DTS Sentinel unit serial number:	SN410029Multiplexer serial number:	ORYXHardware model number:	OX2-SRSoftware version number:	ORYX F/W v4,00 Oryx Data Collector v3.7.2.0data status	okinstallation	B5 Nyhavnadifferential loss correction	single-endedforward channel	channel 2reverse channel	N/Adate	2023/12/13time	15:12:13forward acquisition time	300,00reverse acquisition time	0,00gamma	499,1914k internal	0,3160k external	0,3160temperature offset calibration	1,0000default loss term (dB/km)	0,3820temperature slope calibration	1,0000multiplexer offset coefficient	1,0000multiplexer slope coefficient	1,0000fibre end	0,00T internal ref (°C)	14,99T ext. ref 1 (°C)	-1,34T ext. ref 2 (°C)	-1,63length (m)	temperature (°C)	Stokes	anti-Stokes-744,400	-200,000	0,020	-0,148
-743,385	-148,362	-0,398	0,024
-742,371	-11,528	0,115	0,056
-741,356	47,759	-0,243	0,167
-740,342	134,575	0,205	0,196
-739,327	-62,894	-0,116	0,035
-738,312	187,695	0,037	-0,041
-737,298	105,208	-0,176	-0,153
-736,283	-7,763	0,228	0,113
-735,269	-160,581	-0,253	-0,010
-734,254	84,711	0,060	-0,048
-733,239	10,186	-0,460	-0,257
-732,225	-172,592	0,154	0,003
-731,210	800,000	-0,032	-0,069
-730,196	176,200	-0,041	-0,043
-729,181	153,017	-0,063	-0,064
-728,167	-39,150	0,024	-0,009
-727,152	169,139	-0,037	-0,039
-726,137	800,000	-0,035	-0,073
-725,123	171,938	-0,056	-0,059
-724,108	-200,000	0,008	-0,078
-723,094	-80,576	-0,205	-0,050
-722,079	-200,000	-0,002	0,088
-721,064	162,217	0,032	-0,033
-720,050	-157,217	0,051	-0,002
-719,035	-187,208	-0,017	-0,000
-718,021	67,267	0,058	-0,043
-717,006	-84,643	-0,113	-0,026
-715,991	478,742	0,106	-0,177
-714,977	800,000	0,027	-0,073
-713,962	800,000	0,022	0,051
-712,948	21,189	-0,062	0,037
-711,933	108,565	-0,025	0,022
-710,918	-200,000	0,008	-0,095
-709,904	-200,000	-0,001	0,048
-708,889	-95,648	-0,055	-0,011
-707,875	93,156	0,076	0,063
-706,860	784,057	0,032	0,065
-705,845	-56,489	-0,272	0,088
-704,831	800,000	0,037	0,104
-703,816	-46,945	0,057	0,020
-702,802	-200,000	-0,036	-0,156
-701,787	-200,000	-0,012	-0,044
-700,772	-158,563	-0,126	0,005
-699,758	-7,425	0,095	-0,047
-698,743	-200,000	-0,010	0,098
-697,729	18,831	0,118	0,070
-696,714	-99,444	0,058	0,011
-695,699	5,591	0,025	-0,014
-694,685	-68,742	0,033	-0,009
-693,670	800,000	-0,047	-0,142
-692,656	176,718	0,085	-0,091
-691,641	113,191	0,098	-0,087
-690,627	79,548	0,049	0,038
-689,612	800,000	-0,011	-0,033
-688,597	116,797	0,038	0,034
-687,583	113,285	-0,107	-0,096
-686,568	-200,000	-0,002	-0,142
-685,554	534,178	-0,052	-0,091
-684,539	-200,000	-0,004	0,098
-683,524	9,841	0,063	-0,035
-682,510	-4,254	0,047	0,024
-681,495	-200,000	0,003	-0,021
-680,481	40,564	-0,153	-0,101
-679,466	-200,000	-0,000	-0,109
-678,451	-23,878	0,054	-0,024
-677,437	224,546	0,031	-0,037
-676,422	800,000	-0,046	0,120
-675,408	-200,000	0,002	0,042
-674,393	-77,258	-0,051	-0,013
-673,378	-175,188	-0,111	0,002
-672,364	-200,000	-0,020	0,089
-671,349	163,258	-0,060	-0,062
-670,335	289,250	-0,063	0,084
-669,320	39,713	0,067	0,044
-668,305	216,651	0,054	-0,063
-667,291	66,364	-0,106	-0,079
-666,276	250,684	-0,034	0,042
-665,262	-79,173	0,094	0,023
-664,247	-118,452	-0,089	-0,011
-663,232	-200,000	0,006	0,140
-662,218	-151,732	0,068	-0,004
-661,203	800,000	-0,043	-0,092
-660,189	-29,995	-0,079	0,033
-659,174	800,000	-0,057	-0,125
-658,159	-200,000	-0,026	-0,120
-657,145	-14,113	-0,040	-0,019
-656,130	237,819	-0,084	-0,103
-655,116	142,013	0,105	-0,102
-654,101	800,000	-0,031	-0,090
-653,086	-123,656	0,117	-0,013
-652,072	142,222	-0,070	-0,068
-651,057	36,421	-0,045	-0,029
-650,043	-128,889	-0,007	-0,001
-649,028	800,000	0,006	-0,019
-648,014	-40,458	0,063	0,024
-646,999	539,889	-0,084	-0,147
-645,984	800,000	-0,029	0,074
-644,970	-200,000	-0,033	-0,196
-643,955	800,000	-0,110	-0,227
-642,941	333,908	0,133	-0,190
-641,926	-200,000	-0,008	0,135
-640,911	61,882	0,025	-0,018
-639,897	-200,000	-0,047	0,170
-638,882	-200,000	0,015	0,127
-637,868	-77,468	0,110	0,028
-636,853	37,387	-0,087	-0,056
-635,838	-8,720	0,034	0,017
-634,824	-200,000	0,018	-0,104
-633,809	60,059	0,089	0,065
-632,795	199,293	-0,029	-0,032
-631,780	-57,789	0,051	0,016
-630,765	-200,000	-0,015	0,150
-629,751	-91,751	0,064	-0,013
-628,736	198,042	-0,111	-0,125
-627,722	701,937	0,019	-0,037
-626,707	-34,339	0,127	0,051
-625,692	205,887	-0,061	0,070
-624,678	800,000	-0,036	0,101
-623,663	-7,490	-0,098	-0,049
-622,649	-109,139	-0,164	0,025
-621,634	-90,955	-0,106	-0,022
-620,619	75,316	-0,067	0,052
-619,605	185,438	0,152	-0,166
-618,590	649,695	-0,090	-0,170
-617,576	84,051	0,093	-0,075
-616,561	-157,132	-0,045	0,002
-615,546	268,039	-0,047	-0,060
-614,532	105,710	-0,083	0,072
-613,517	320,267	-0,091	0,126
-612,503	470,371	0,070	0,116
-611,488	-200,000	0,019	0,102
-610,474	-200,000	-0,002	0,043
-609,459	237,071	-0,079	0,096
-608,444	-83,770	0,081	0,019
-607,430	161,745	-0,063	-0,064
-606,415	-96,219	0,122	-0,024
-605,401	768,847	0,046	-0,092
-604,386	-197,953	0,066	-0,000
-603,371	251,449	-0,038	-0,048
-602,357	-103,902	-0,094	0,016
-601,342	-138,939	-0,083	0,007
-600,328	800,000	-0,027	-0,064
-599,313	245,905	-0,133	0,165
-598,298	-51,141	0,064	0,022
-597,284	-69,914	0,149	0,041
-596,269	-200,000	0,008	-0,109
-595,255	-200,000	0,004	-0,149
-594,240	109,171	0,079	0,069
-593,225	-81,311	-0,123	0,030
-592,211	303,091	0,033	-0,045
-591,196	-200,000	-0,026	-0,096
-590,182	800,000	-0,019	-0,051
-589,167	751,538	-0,060	-0,120
-588,152	51,313	0,095	0,066
-587,138	201,109	-0,058	-0,065
-586,123	17,421	-0,032	-0,018
-585,109	79,206	-0,163	0,128
-584,094	89,655	0,047	0,039
-583,079	-77,475	0,089	0,022
-582,065	-7,838	-0,038	0,019
-581,050	47,278	-0,068	-0,046
-580,036	-200,000	-0,024	-0,155
-579,021	350,094	0,065	-0,094
-578,006	-53,751	-0,099	-0,033
-576,992	455,883	0,021	-0,033
-575,977	800,000	-0,023	-0,047
-574,963	469,753	0,033	-0,055
-573,948	-1,484	-0,071	-0,037
-572,934	93,012	0,010	-0,008
-571,919	-200,000	-0,007	-0,075
-570,904	426,044	-0,095	-0,150
-569,890	-2,539	0,095	0,049
-568,875	339,330	-0,074	0,106
-567,861	800,000	-0,023	0,055
-566,846	70,237	0,093	0,070
-565,831	30,789	0,084	0,052
-564,817	-22,297	-0,106	-0,047
-563,802	-200,000	-0,007	0,044
-562,788	-200,000	-0,020	0,180
-561,773	-97,699	0,141	0,026
-560,758	-200,000	0,023	0,102
-559,744	-39,117	-0,045	-0,017
-558,729	-95,393	0,096	-0,019
-557,715	223,367	-0,041	0,048
-556,700	344,014	-0,101	-0,146
-555,685	-200,000	0,010	-0,126
-554,671	77,395	-0,081	0,063
-553,656	800,000	0,017	-0,042
-552,642	-2,864	-0,082	-0,042
-551,627	-200,000	0,018	-0,083
-550,612	-152,565	-0,066	-0,003
-549,598	-200,000	-0,008	-0,051
-548,583	-200,000	0,017	-0,130
-547,569	-200,000	0,002	0,019
-546,554	800,000	0,023	0,068
-545,539	-200,000	-0,031	0,135
-544,525	525,003	0,067	0,116
-543,510	-71,270	-0,160	-0,044
-542,496	166,193	-0,064	-0,067
-541,481	-6,217	-0,140	-0,070
-540,466	-44,312	0,053	0,019
-539,452	215,294	0,029	-0,034
-538,437	-149,765	0,131	0,007
-537,423	23,011	-0,159	-0,095
-536,408	79,754	-0,086	0,067
-535,393	800,000	-0,030	0,082
-534,379	637,469	-0,018	-0,034
-533,364	385,702	0,037	-0,056
-532,350	10,988	0,069	-0,038
-531,335	242,126	0,103	0,126
-530,321	800,000	-0,037	0,075
-529,306	800,000	0,006	-0,016
-528,291	-186,970	-0,049	0,000
-527,277	-200,000	0,007	-0,046
-526,262	-200,000	0,014	-0,184
-525,248	498,807	0,067	-0,113
-524,233	-152,484	0,131	0,007
-523,218	75,934	-0,022	-0,017
-522,204	-200,000	-0,001	-0,034
-521,189	-200,000	-0,005	0,107
-520,175	148,659	-0,142	-0,140
-519,160	7,131	-0,083	0,045
-518,145	-166,218	0,070	-0,002
-517,131	-200,000	-0,000	0,006
-516,116	800,000	0,054	0,136
-515,102	-101,862	-0,093	0,016
-514,087	502,269	-0,004	-0,008
-513,072	-200,000	-0,025	-0,098
-512,058	77,032	-0,040	-0,031
-511,043	-169,037	0,120	-0,003
-510,029	-200,000	0,005	0,060
-509,014	502,946	0,046	-0,078
-507,999	-200,000	-0,005	0,027
-506,985	800,000	0,040	-0,116
-505,970	-33,749	0,148	-0,059
-504,956	-63,445	-0,123	0,037
-503,941	324,349	-0,069	0,097
-502,926	-37,249	0,153	0,059
-501,912	-6,159	0,199	-0,099
-500,897	800,000	0,066	-0,163
-499,883	-200,000	-0,012	0,040
-498,868	-200,000	-0,041	-0,206
-497,853	-162,804	0,122	-0,004
-496,839	-200,000	0,026	-0,096
-495,824	800,000	-0,041	0,092
-494,810	19,653	-0,053	-0,031
-493,795	58,826	-0,114	-0,082
-492,781	432,167	0,016	0,025
-491,766	800,000	0,006	-0,015
-490,751	72,419	0,159	-0,121
-489,737	-60,563	-0,182	-0,056
-488,722	251,404	-0,058	-0,073
-487,708	192,061	0,087	0,096
-486,693	10,270	-0,042	0,023
-485,678	-18,707	0,133	0,060
-484,664	235,587	-0,032	0,039
-483,649	-29,818	0,093	-0,038
-482,635	671,348	0,044	0,083
-481,620	-71,269	0,057	0,016
-480,605	800,000	-0,019	-0,055
-479,591	-200,000	0,015	-0,142
-478,576	111,633	-0,076	0,067
-477,562	23,769	-0,106	0,063
-476,547	-129,319	-0,098	-0,010
-475,532	-200,000	-0,022	-0,088
-474,518	-78,633	0,113	-0,028
-473,503	40,492	-0,021	0,014
-472,489	767,927	0,047	-0,093
-471,474	-200,000	0,023	0,075
-470,459	531,529	-0,084	-0,145
-469,445	800,000	-0,051	-0,110
-468,430	253,699	-0,068	0,084
-467,416	800,000	-0,034	0,105
-466,401	-200,000	0,036	0,152
-465,386	70,707	-0,115	0,087
-464,372	-200,000	0,018	0,099
-463,357	-62,486	0,029	-0,009
-462,343	-180,722	-0,079	-0,001
-461,328	800,000	0,021	-0,043
-460,313	22,695	0,205	0,122
-459,299	3,178	0,042	0,022
-458,284	74,411	0,115	0,088
-457,270	-122,020	0,002	0,000
-456,255	292,915	0,039	-0,052
-455,241	-200,000	0,014	-0,057
-454,226	261,052	0,065	0,082
-453,211	535,610	0,047	-0,082
-452,197	-53,895	-0,086	0,028
-451,182	-200,000	-0,011	0,039
-450,168	-70,886	-0,152	0,041
-449,153	42,751	-0,053	-0,035
-448,138	-125,796	-0,076	-0,008
-447,124	-69,693	0,158	0,044
-446,109	-200,000	0,004	-0,032
-445,095	5,018	-0,031	-0,017
-444,080	-200,000	0,024	0,151
-443,065	-54,638	-0,099	-0,032
-442,051	3,323	-0,108	-0,057
-441,036	420,110	0,031	-0,049
-440,022	-114,561	-0,062	0,009
-439,007	800,000	0,041	0,105
-437,992	174,786	0,031	0,032
-436,978	101,364	0,115	0,098
-435,963	-27,218	-0,068	-0,029
-434,949	-112,111	0,148	-0,021
-433,934	112,257	0,040	0,035
-432,919	800,000	0,009	-0,018
-431,905	-200,000	-0,005	0,148
-430,890	-5,446	-0,076	-0,038
-429,876	82,227	-0,098	-0,077
-428,861	800,000	0,005	-0,014
-427,846	32,844	-0,083	-0,052
-426,832	-54,583	-0,063	-0,021
-425,817	-200,000	-0,053	-0,178
-424,803	-191,439	-0,037	0,000
-423,788	-98,834	-0,083	-0,015
-422,773	591,538	0,071	-0,127
-421,759	800,000	-0,025	-0,068
-420,744	800,000	0,032	-0,092
-419,730	-58,744	-0,075	-0,024
-418,715	-95,946	-0,107	-0,020
-417,701	745,723	0,051	-0,100
-416,686	84,665	-0,118	0,094
-415,671	108,752	-0,089	0,077
-414,657	800,000	0,033	0,097
-413,642	-60,773	-0,063	0,019
-412,628	66,228	0,057	0,042
-411,613	241,581	0,091	-0,111
-410,598	63,094	-0,130	-0,094
-409,584	280,221	0,067	0,088
-408,569	530,134	-0,068	0,118
-407,555	86,308	0,047	0,038
-406,540	16,345	-0,007	-0,004
-405,525	164,498	0,032	-0,033
-404,511	800,000	0,026	0,053
-403,496	-200,000	0,014	-0,057
-402,482	-37,143	-0,130	-0,050
-401,467	-200,000	0,034	0,118
-400,452	210,117	0,116	0,132
-399,438	-41,360	-0,008	-0,003
-398,423	106,661	0,049	-0,042
-397,409	-187,598	0,166	0,002
-396,394	-200,000	-0,016	0,076
-395,379	-200,000	-0,006	0,056
-394,365	-69,704	0,101	0,028
-393,350	-80,368	-0,094	-0,023
-392,336	-200,000	-0,021	0,112
-391,321	-200,000	-0,006	-0,065
-390,306	155,976	-0,154	-0,154
-389,292	-43,808	-0,134	-0,049
-388,277	145,913	0,040	0,039
-387,263	800,000	-0,042	0,118
-386,248	-200,000	0,008	0,033
-385,233	-56,926	0,117	-0,037
-384,219	193,506	0,040	-0,044
-383,204	512,808	0,063	0,108
-382,190	-95,513	0,048	0,009
-381,175	-200,000	0,003	-0,057
-380,160	-160,073	0,079	0,003
-379,146	758,647	-0,045	-0,088
-378,131	-95,080	0,166	0,032
-377,117	327,087	0,049	-0,068
-376,102	-200,000	-0,013	-0,240
-375,088	-200,000	-0,012	-0,093
-374,073	-99,807	-0,064	0,012
-373,058	-43,507	0,045	0,016
-372,044	-200,000	-0,001	0,058
-371,029	141,874	0,126	-0,121
-370,015	-136,047	0,138	-0,012
-369,000	-200,000	0,016	-0,110
-367,985	38,039	-0,058	0,037
-366,971	27,710	0,044	0,027
-365,956	-128,884	-0,056	0,006
-364,942	-70,435	-0,105	-0,029
-363,927	-200,000	0,023	0,085
-362,912	-51,236	-0,037	-0,012
-361,898	-200,000	-0,025	-0,127
-360,883	-200,000	-0,006	-0,049
-359,869	184,730	0,064	-0,069
-358,854	-200,000	0,007	-0,049
-357,839	206,738	0,073	0,083
-356,825	234,592	0,057	0,068
-355,810	-51,499	-0,123	0,041
-354,796	800,000	0,030	0,075
-353,781	-200,000	-0,014	-0,057
-352,766	800,000	-0,031	0,079
-351,752	534,500	0,050	0,087
-350,737	-200,000	0,001	0,067
-349,723	-200,000	0,010	0,043
-348,708	114,783	-0,067	-0,059
-347,693	67,805	-0,094	0,070
-346,679	-200,000	0,007	0,041
-345,664	-182,842	0,174	-0,002
-344,650	-200,000	0,025	0,086
-343,635	-87,676	0,155	0,034
-342,620	-28,766	-0,056	0,023
-341,606	-164,413	0,158	-0,005
-340,591	800,000	-0,044	0,120
-339,577	-107,660	-0,084	0,013
-338,562	-200,000	-0,000	0,120
-337,548	-200,000	0,019	0,107
-336,533	118,471	0,139	0,125
-335,518	61,109	0,049	-0,035
-334,504	800,000	0,019	0,051
-333,489	-200,000	0,012	0,044
-332,475	-146,433	-0,048	-0,003
-331,460	800,000	-0,045	-0,119
-330,445	81,266	0,073	0,057
-329,431	-149,867	-0,032	-0,002
-328,416	185,237	0,027	0,029
-327,402	203,589	-0,039	-0,044
-326,387	-100,656	0,169	0,030
-325,372	-200,000	-0,007	-0,075
-324,358	800,000	-0,033	-0,093
-323,343	800,000	0,007	0,022
-322,329	-111,044	0,158	0,023
-321,314	57,755	-0,119	0,084
-320,299	20,847	0,099	-0,058
-319,285	-200,000	0,011	0,035
-318,270	-200,000	-0,021	0,067
-317,256	263,228	-0,064	-0,081
-316,241	542,798	0,032	-0,056
-315,226	-200,000	-0,030	0,114
-314,212	262,657	0,071	0,089
-313,197	-66,309	0,073	-0,021
-312,183	-200,000	-0,015	0,057
-311,168	270,495	-0,062	-0,079
-310,153	553,077	0,022	0,038
-309,139	800,000	0,034	-0,107
-308,124	-200,000	0,006	-0,080
-307,110	-101,035	0,110	-0,019
-306,095	800,000	0,030	0,090
-305,080	-34,611	0,091	0,036
-304,066	-200,000	-0,005	0,096
-303,051	-162,680	-0,011	-0,000
-302,037	102,208	-0,086	-0,073
-301,022	277,656	-0,057	0,073
-300,008	341,982	0,075	-0,107
-298,993	55,931	-0,163	-0,114
-297,978	190,275	0,148	0,161
-296,964	-200,000	-0,005	-0,062
-295,949	800,000	-0,022	-0,065
-294,935	77,790	0,064	-0,050
-293,920	289,978	0,029	-0,038
-292,905	-200,000	-0,014	-0,076
-291,891	173,115	0,055	0,057
-290,876	142,462	-0,052	-0,050
-289,862	-200,000	0,012	0,066
-288,847	-133,758	-0,098	-0,009
-287,832	248,421	0,088	-0,108
-286,818	174,307	0,091	-0,095
-285,803	-45,859	0,146	0,052
-284,789	140,403	0,013	-0,013
-283,774	-200,000	-0,017	0,094
-282,759	553,249	0,019	0,034
-281,745	-200,000	-0,001	0,035
-280,730	800,000	0,046	-0,113
-279,716	534,450	-0,018	0,031
-278,701	-123,208	0,104	-0,012
-277,686	-200,000	-0,031	0,107
-276,672	159,214	0,057	-0,058
-275,657	-118,448	-0,029	-0,004
-274,643	-65,288	-0,054	-0,016
-273,628	62,401	-0,068	0,049
-272,613	215,517	-0,018	-0,021
-271,599	-200,000	-0,008	0,032
-270,584	-37,011	-0,042	0,016
-269,570	-200,000	0,006	0,054
-268,555	-34,514	0,121	0,048
-267,540	603,723	0,037	0,067
-266,526	-90,060	-0,146	-0,031
-265,511	-109,947	-0,108	-0,016
-264,497	800,000	-0,009	-0,026
-263,482	36,251	0,021	0,013
-262,467	-26,926	0,102	-0,043
-261,453	106,534	-0,064	0,055
-260,438	-72,686	0,065	0,017
-259,424	-56,636	-0,060	-0,019
-258,409	38,081	-0,037	0,024
-257,395	80,441	0,096	0,075
-256,380	800,000	0,037	-0,099
-255,365	185,498	0,050	0,054
-254,351	-200,000	-0,026	0,102
-253,336	356,947	0,037	-0,053
-252,322	-200,000	0,004	-0,099
-251,307	-200,000	-0,004	-0,111
-250,292	-60,604	0,082	0,025
-249,278	800,000	0,016	-0,032
-248,263	-66,765	0,058	-0,016
-247,249	-200,000	-0,012	-0,133
-246,234	-97,274	0,103	0,019
-245,219	333,430	0,069	-0,097
-244,205	800,000	0,030	0,061
-243,190	6,151	0,178	-0,095
-242,176	-42,811	0,056	-0,020
-241,161	-200,000	0,004	0,095
-240,146	-10,517	0,067	-0,032
-239,132	-200,000	-0,034	-0,154
-238,117	-62,816	-0,147	-0,044
-237,103	-92,422	0,047	0,010
-236,088	-200,000	0,005	-0,056
-235,073	716,985	-0,058	0,112
-234,059	800,000	0,046	0,122
-233,044	800,000	-0,040	0,113
-232,030	800,000	-0,043	0,087
-231,015	38,982	-0,081	-0,052
-230,000	44,859	0,082	-0,054
-228,986	-200,000	-0,012	0,073
-227,971	112,806	-0,037	-0,032
-226,957	-200,000	-0,010	-0,096
-225,942	800,000	-0,032	-0,066
-224,927	-70,151	0,135	-0,037
-223,913	378,183	-0,052	-0,077
-222,898	-120,176	-0,063	-0,008
-221,884	800,000	0,044	0,098
-220,869	15,726	0,079	-0,045
-219,855	800,000	0,084	0,198
-218,840	375,971	0,044	0,065
-217,825	102,788	-0,039	0,033
-216,811	-55,051	-0,105	0,034
-215,796	-140,742	0,190	0,014
-214,782	79,012	-0,087	-0,067
-213,767	170,439	0,037	0,038
-212,752	16,591	-0,052	0,029
-211,738	22,438	-0,032	0,019
-210,723	-138,038	-0,107	0,008
-209,709	39,044	-0,031	-0,020
-208,694	-173,438	-0,094	-0,002
-207,679	201,217	0,035	0,039
-206,665	800,000	-0,064	0,142
-205,650	-33,025	-0,020	-0,008
-204,636	-200,000	0,009	-0,051
-203,621	23,861	0,049	0,029
-202,606	-200,000	-0,008	-0,086
-201,592	-39,013	-0,170	0,064
-200,577	-161,670	0,059	-0,002
-199,563	88,343	-0,067	0,054
-198,548	-200,000	0,005	-0,064
-197,533	209,471	-0,104	0,117
-196,519	-200,000	-0,007	0,072
-195,504	-32,464	-0,081	-0,032
-194,490	111,815	0,029	-0,025
-193,475	-200,000	-0,022	0,074
-192,460	314,461	0,068	0,092
-191,446	800,000	-0,019	-0,049
-190,431	-63,728	-0,051	0,015
-189,417	55,321	-0,021	-0,015
-188,402	556,402	0,068	0,119
-187,387	138,017	-0,141	0,133
-186,373	-200,000	-0,003	0,090
-185,358	800,000	0,006	0,012
-184,344	152,028	0,076	0,075
-183,329	429,886	0,013	0,021
-182,315	25,165	-0,082	-0,049
-181,300	800,000	-0,048	0,149
-180,285	234,375	-0,115	-0,137
-179,271	316,665	-0,114	-0,156
-178,256	-32,269	-0,113	0,045
-177,242	-32,663	0,142	0,057
-176,227	26,761	-0,065	0,039
-175,212	-60,489	0,020	0,006
-174,198	211,001	-0,033	0,038
-173,183	778,165	0,078	-0,153
-172,169	212,246	-0,013	-0,015
-171,154	96,728	-0,148	-0,122
-170,139	-200,000	0,005	0,068
-169,125	167,763	0,062	0,064
-168,110	256,946	-0,069	0,085
-167,096	-95,311	-0,045	0,009
-166,081	-72,810	-0,091	-0,024
-165,066	-200,000	-0,007	-0,046
-164,052	-43,836	0,059	0,021
-163,037	255,215	0,007	-0,009
-162,023	800,000	-0,020	0,043
-161,008	-200,000	-0,004	0,120
-159,993	-194,027	0,105	-0,001
-158,979	255,234	-0,078	0,096
-157,964	256,009	0,026	0,032
-156,950	-110,337	0,039	0,006
-155,935	-130,399	0,081	0,008
-154,920	226,893	-0,048	0,056
-153,906	81,008	-0,038	-0,029
-152,891	800,000	-0,020	-0,059
-151,877	-200,000	0,033	0,125
-150,862	398,681	0,028	0,042
-149,847	-156,234	0,072	-0,003
-148,833	710,566	-0,016	-0,030
-147,818	-200,000	0,019	0,067
-146,804	558,197	-0,041	0,072
-145,789	-151,852	0,134	0,007
-144,775	-200,000	-0,016	0,112
-143,760	-18,465	-0,009	0,004
-142,745	671,885	0,053	-0,100
-141,731	56,157	-0,123	0,086
-140,716	-137,867	-0,073	0,006
-139,702	-80,072	0,160	-0,038
-138,687	233,179	0,034	0,040
-137,672	28,195	0,079	-0,048
-136,658	74,271	-0,080	0,060
-135,643	78,960	-0,034	0,026
-134,629	-200,000	0,002	-0,059
-133,614	-20,991	0,094	-0,041
-132,599	338,793	0,027	-0,038
-131,585	-76,500	0,022	0,006
-130,570	43,989	0,031	0,020
-129,556	65,383	0,057	-0,042
-128,541	800,000	-0,025	-0,072
-127,526	125,228	0,017	0,015
-126,512	-200,000	0,013	0,106
-125,497	216,016	-0,045	-0,052
-124,483	-178,030	0,113	0,002
-123,468	97,308	-0,090	0,074
-122,453	-126,936	0,085	-0,009
-121,439	-86,759	-0,094	-0,021
-120,424	800,000	0,035	0,105
-119,410	7,053	0,030	0,016
-118,395	271,168	0,051	0,065
-117,380	-200,000	0,018	0,065
-116,366	461,645	0,043	-0,069
-115,351	-200,000	0,016	0,057
-114,337	-21,191	0,078	-0,034
-113,322	31,046	-0,083	-0,051
-112,307	-200,000	-0,006	-0,031
-111,293	-190,939	-0,109	0,001
-110,278	800,000	0,023	-0,059
-109,264	66,912	-0,061	0,045
-108,249	800,000	0,062	0,141
-107,234	499,961	-0,042	-0,070
-106,220	-19,008	-0,073	-0,032
-105,205	-200,000	-0,001	0,015
-104,191	1,566	-0,101	0,052
-103,176	800,000	0,033	0,079
-102,162	-133,803	-0,078	-0,007
-101,147	556,734	-0,074	-0,129
-100,132	544,149	-0,092	-0,159
-99,118	-200,000	-0,006	-0,108
-98,103	-200,000	-0,015	-0,053
-97,089	-80,851	0,109	0,026
-96,074	-51,500	-0,086	-0,029
-95,059	-27,530	0,081	-0,034
-94,045	800,000	0,032	0,087
-93,030	44,694	-0,041	-0,027
-92,016	800,000	-0,029	0,088
-91,001	-38,250	-0,110	0,042
-89,986	800,000	0,058	-0,131
-88,972	98,147	-0,048	0,039
-87,957	288,885	-0,141	-0,184
-86,943	628,849	0,064	-0,117
-85,928	182,926	-0,128	-0,136
-84,913	-115,463	-0,051	0,007
-83,899	-200,000	-0,000	-0,048
-82,884	-200,000	0,012	-0,108
-81,870	47,436	0,100	-0,067
-80,855	140,500	-0,068	0,065
-79,840	194,974	0,044	0,049
-78,826	-142,846	0,105	-0,007
-77,811	349,458	0,046	0,065
-76,797	25,112	-0,055	-0,033
-75,782	-128,183	0,136	0,014
-74,767	191,551	-0,129	-0,140
-73,753	40,383	0,035	-0,023
-72,738	-171,598	0,105	-0,002
-71,724	800,000	-0,022	-0,070
-70,709	-106,537	0,120	-0,019
-69,694	-144,972	-0,096	-0,006
-68,680	86,776	0,022	-0,017
-67,665	-189,842	-0,048	-0,000
-66,651	800,000	0,022	0,054
-65,636	-200,000	0,015	-0,056
-64,622	-139,834	0,081	0,006
-63,607	-103,456	-0,112	-0,019
-62,592	42,201	0,111	-0,072
-61,578	138,913	0,056	-0,053
-60,563	314,537	-0,032	0,043
-59,549	91,190	-0,089	0,072
-58,534	-1,356	-1,903	-0,960
-57,519	-200,000	-0,102	-0,983
-56,505	-200,000	-1,206	-4,994
-55,490	75,528	0,895	0,677
-54,476	800,000	5,180	11,954
-53,461	-200,000	17,833	288,732
-52,446	800,000	729,435	2227,723
-51,432	535,111	1645,117	2808,481
-50,417	109,505	1635,011	1404,256
-49,403	75,268	1286,726	972,123
-48,388	31,716	1027,302	632,453
-47,373	20,121	988,991	570,676
-46,359	18,236	977,100	557,616
-45,344	15,334	972,935	545,732
-44,330	15,604	971,328	545,692
-43,315	15,062	969,523	542,888
-42,300	14,970	968,444	541,961
-41,286	14,969	967,549	541,435
-40,271	14,999	966,447	540,895
-39,257	14,988	965,536	540,330
-38,242	15,005	964,607	539,844
-37,227	15,053	963,952	539,610
-36,213	14,973	963,063	538,832
-35,198	14,984	962,124	538,321
-34,184	14,998	961,374	537,924
-33,169	14,963	960,391	537,243
-32,154	15,035	959,530	536,971
-31,140	14,959	958,676	536,225
-30,125	15,072	957,835	536,097
-29,111	14,970	957,142	535,362
-28,096	15,082	956,546	535,367
-27,082	15,045	955,699	534,754
-26,067	15,055	954,875	534,302
-25,052	15,069	954,146	533,918
-24,038	15,057	953,602	533,552
-23,023	15,020	952,852	532,993
-22,009	15,053	952,224	532,726
-20,994	15,041	951,640	532,342
-19,979	15,038	950,962	531,931
-18,965	15,016	950,345	531,495
-17,950	15,043	949,705	531,203
-16,936	14,957	949,210	530,631
-15,921	15,010	948,310	530,274
-14,906	14,894	947,881	529,643
-13,892	14,922	947,134	529,295
-12,877	14,866	946,480	528,731
-11,863	14,855	945,892	528,345
-10,848	14,912	945,311	528,181
-9,833	15,010	944,747	528,156
-8,819	14,947	944,329	527,703
-7,804	14,925	943,472	527,133
-6,790	14,937	942,904	526,832
-5,775	14,977	942,322	526,613
-4,760	14,932	941,613	526,053
-3,746	14,917	940,995	525,638
-2,731	14,781	940,358	524,834
-1,717	14,739	939,635	524,276
-0,702	14,765	939,116	524,048
0,313	14,538	938,449	523,752
1,327	17,806	936,365	532,825
2,342	26,722	792,703	474,641
3,356	23,461	457,875	269,162
4,371	-3,573	314,061	155,935
5,386	-7,678	295,890	142,754
6,400	-9,487	289,755	137,989
7,415	-10,100	287,351	136,230
8,429	-10,256	285,787	135,323
9,444	-10,224	285,022	134,981
10,459	-10,438	284,430	134,480
11,473	-10,319	283,666	134,222
12,488	-10,242	283,163	134,048
13,502	-10,194	282,687	133,856
14,517	-10,040	282,212	133,767
15,531	-10,134	281,788	133,465
16,546	-10,120	281,333	133,251
17,561	-10,287	280,960	132,902
18,575	-10,181	280,691	132,864
19,590	-10,217	280,226	132,597
20,604	-10,114	279,903	132,532
21,619	-10,307	279,534	132,161
22,634	-10,360	279,396	132,033
23,648	-10,427	278,991	131,767
24,663	-10,343	278,802	131,745
25,677	-10,342	278,522	131,602
26,692	-10,212	278,115	131,521
27,707	-10,386	277,898	131,242
28,721	-10,330	277,653	131,168
29,736	-10,349	277,444	131,039
30,750	-10,406	277,074	130,799
31,765	-10,428	276,963	130,714
32,780	-10,429	276,744	130,598
33,794	-10,187	276,214	130,565
34,809	-10,387	276,133	130,326
35,823	-10,435	275,843	130,133
36,838	-10,430	275,504	129,966
37,853	-10,460	275,318	129,838
38,867	-10,255	275,069	129,902
39,882	-10,373	274,841	129,671
40,896	-10,378	274,660	129,569
41,911	-10,362	274,446	129,472
42,926	-10,438	274,046	129,201
43,940	-10,566	273,926	129,013
44,955	-10,388	273,539	128,986
45,969	-10,382	273,464	128,944
46,984	-10,528	273,248	128,695
47,999	-10,808	272,826	128,224
49,013	-10,772	272,572	128,127
50,028	-10,993	272,303	127,784
51,042	-11,008	272,168	127,695
52,057	-11,160	271,827	127,383
53,071	-11,165	271,690	127,303
54,086	-10,897	271,594	127,494
55,101	-10,926	271,371	127,352
56,115	-10,488	271,145	127,639
57,130	-10,244	271,031	127,799
58,144	-10,239	270,875	127,719
59,159	-10,196	270,685	127,657
60,174	-10,318	270,279	127,343
61,188	-10,124	270,125	127,437
62,203	-10,159	269,975	127,323
63,217	-10,283	269,811	127,120
64,232	-10,233	269,570	127,041
65,247	-10,152	269,347	126,998
66,261	-10,203	268,974	126,765
67,276	-10,440	268,733	126,424
68,290	-10,633	268,386	126,072
69,305	-10,642	268,327	126,026
70,320	-10,656	268,004	125,850
71,334	-10,309	267,827	126,071
72,349	-10,321	267,696	125,988
73,363	-10,106	267,460	126,061
74,378	-10,225	267,418	125,922
75,393	-10,135	267,108	125,846
76,407	-10,205	266,911	125,678
77,422	-10,101	266,539	125,586
78,436	-10,143	266,412	125,477
79,451	-10,205	266,165	125,293
80,466	-10,103	265,902	125,251
81,480	-10,314	265,554	124,886
82,495	-10,547	265,473	124,626
83,509	-10,464	265,368	124,641
84,524	-10,443	265,083	124,514
85,539	-10,553	264,737	124,242
86,553	-10,685	264,683	124,087
87,568	-10,393	264,515	124,259
88,582	-10,421	264,258	124,102
89,597	-10,389	264,035	124,015
90,611	-10,308	264,006	124,063
91,626	-10,295	263,840	123,986
92,641	-10,156	263,638	124,004
93,655	-10,306	263,266	123,684
94,670	-10,291	263,087	123,603
95,684	-10,353	262,993	123,492
96,699	-10,396	262,700	123,305
97,714	-10,384	262,417	123,171
98,728	-10,393	262,288	123,093
99,743	-10,412	261,980	122,920
100,757	-10,551	261,774	122,689
101,772	-10,534	261,579	122,602
102,787	-10,440	261,540	122,655
103,801	-10,399	261,399	122,615
104,816	-10,338	261,101	122,518
105,830	-10,182	260,980	122,589
106,845	-10,095	260,787	122,564
107,860	-10,345	260,690	122,287
108,874	-10,319	260,290	122,111
109,889	-10,164	260,140	122,167
110,903	-10,200	259,973	122,045
111,918	-10,228	259,655	121,860
112,933	-10,341	259,658	121,751
113,947	-10,441	259,417	121,539
114,962	-10,195	259,203	121,645
115,976	-10,289	259,010	121,461
116,991	-10,357	258,651	121,222
118,006	-10,189	258,635	121,351
119,020	-10,271	258,577	121,241
120,035	-10,092	258,439	121,323
121,049	-10,273	258,311	121,093
122,064	-10,207	257,956	120,974
123,079	-10,215	257,670	120,822
124,093	-10,327	257,504	120,636
125,108	-10,240	257,248	120,580
126,122	-10,592	257,097	120,193
127,137	-10,758	256,831	119,914
128,151	-10,630	256,757	119,979
129,166	-10,382	256,434	120,033
130,181	-10,425	256,354	119,948
131,195	-10,405	256,136	119,852
132,210	-10,260	256,039	119,921
133,224	-10,357	255,810	119,720
134,239	-10,169	255,622	119,784
135,254	-10,321	255,416	119,545
136,268	-10,378	255,194	119,381
137,283	-10,603	254,870	119,025
138,297	-10,691	254,668	118,844
139,312	-10,679	254,453	118,744
140,327	-10,205	254,355	119,095
141,341	-10,085	254,354	119,187
142,356	-10,137	254,176	119,048
143,370	-10,176	253,911	118,880
144,385	-10,145	253,821	118,854
145,400	-9,969	253,373	118,784
146,414	-10,041	253,537	118,788
147,429	-9,950	253,134	118,667
148,443	-10,009	253,080	118,581
149,458	-9,982	252,965	118,539
150,473	-9,893	252,637	118,452
151,487	-10,053	252,424	118,205
152,502	-9,986	252,332	118,208
153,516	-10,156	252,120	117,953
154,531	-9,985	251,886	117,979
155,546	-10,019	251,744	117,873
156,560	-10,166	251,493	117,620
157,575	-9,915	251,226	117,697
158,589	-10,124	251,272	117,531
159,604	-10,094	251,029	117,433
160,619	-9,926	250,743	117,430
161,633	-10,106	250,702	117,248
162,648	-10,074	250,535	117,187
163,662	-10,032	250,362	117,131
164,677	-10,053	250,224	117,038
165,692	-10,186	250,161	116,886
166,706	-9,901	249,745	116,921
167,721	-10,084	249,694	116,733
168,735	-10,106	249,466	116,598
169,750	-10,100	249,445	116,582
170,764	-9,941	249,330	116,652
171,779	-9,915	249,297	116,648
172,794	-9,791	248,903	116,557
173,808	-9,952	248,710	116,321
174,823	-10,576	248,570	115,723
175,837	-10,557	248,199	115,555
176,852	-10,219	248,195	115,826
177,867	-9,833	247,902	116,002
178,881	-9,882	247,761	115,884
179,896	-9,938	247,685	115,792
180,910	-9,917	247,535	115,729
181,925	-9,870	247,430	115,708
182,940	-9,954	247,274	115,555
183,954	-9,948	246,939	115,393
184,969	-9,788	246,831	115,465
185,983	-9,912	246,626	115,256
186,998	-9,839	246,631	115,310
188,013	-9,981	246,322	115,037
189,027	-10,030	246,226	114,941
190,042	-9,932	246,004	114,908
191,056	-10,083	245,942	114,744
192,071	-10,000	245,713	114,695
193,086	-10,279	245,672	114,436
194,100	-9,981	245,324	114,509
195,115	-10,022	245,104	114,363
196,129	-10,012	244,924	114,276
197,144	-10,004	244,716	114,176
198,159	-9,893	244,498	114,156
199,173	-10,001	244,529	114,071
200,188	-9,809	244,130	114,032
201,202	-10,166	243,796	113,574
202,217	-10,469	243,574	113,212
203,232	-10,399	243,457	113,204
204,246	-10,135	243,393	113,381
205,261	-9,389	243,175	113,878
206,275	-10,546	242,868	112,780
207,290	-6,689	244,620	116,753
208,304	0,933	247,090	124,227
209,319	4,609	247,855	127,640
210,334	4,840	247,950	127,869
211,348	5,077	247,864	128,009
212,363	5,500	247,759	128,292
213,377	5,571	247,561	128,236
214,392	5,402	247,362	127,983
215,407	5,229	247,228	127,760
216,421	5,017	247,089	127,503
217,436	5,347	246,953	127,692
218,450	5,404	246,821	127,659
219,465	5,284	246,577	127,423
220,480	5,049	246,362	127,108
221,494	5,035	246,289	127,048
222,509	4,979	246,019	126,851
223,523	4,923	245,889	126,727
224,538	4,583	245,596	126,287
225,553	4,644	245,506	126,280
226,567	4,963	245,435	126,492
227,582	4,988	245,139	126,348
228,596	4,858	244,959	126,139
229,611	4,649	244,749	125,849
230,626	4,630	244,531	125,711
231,640	4,524	244,417	125,555
232,655	4,591	244,404	125,591
233,669	4,570	244,102	125,407
234,684	4,540	243,959	125,299
235,699	4,865	243,899	125,520
236,713	4,885	243,741	125,444
237,728	4,728	243,475	125,168
238,742	4,583	243,381	124,991
239,757	4,459	243,055	124,713
240,772	4,422	242,868	124,576
241,786	4,605	242,809	124,682
242,801	4,544	242,738	124,586
243,815	4,489	242,581	124,450
244,830	5,052	242,323	124,760
245,844	4,700	242,321	124,464
246,859	4,819	242,046	124,407
247,874	4,576	242,070	124,213
248,888	4,758	241,731	124,174
249,903	4,750	241,555	124,066
250,917	4,803	241,491	124,065
251,932	5,104	241,503	124,301
252,947	4,813	241,162	123,881
253,961	4,578	240,959	123,579
254,976	4,685	240,894	123,619
255,990	4,896	240,761	123,709
257,005	4,735	240,486	123,428
258,020	4,554	240,431	123,244
259,034	4,579	240,174	123,122
260,049	4,771	240,069	123,210
261,063	4,679	239,894	123,035
262,078	4,591	239,696	122,853
263,093	4,695	239,818	122,988
264,107	5,042	239,497	123,088
265,122	4,601	239,219	122,584
266,136	4,697	239,165	122,621
267,151	4,854	239,149	122,726
268,166	4,755	238,795	122,456
269,180	4,406	238,641	122,089
270,195	4,970	238,738	122,574
271,209	5,269	238,673	122,767
272,224	4,508	238,323	121,975
273,239	4,381	237,961	121,678
274,253	4,300	238,021	121,634
275,268	4,665	237,790	121,794
276,282	4,567	237,679	121,649
277,297	4,429	237,237	121,303
278,312	4,648	237,183	121,436
279,326	4,793	237,127	121,511
280,341	4,639	236,984	121,306
281,355	4,626	236,940	121,262
282,370	4,836	236,731	121,309
283,384	4,693	236,569	121,103
284,399	4,572	236,298	120,859
285,414	4,472	236,262	120,752
286,428	4,611	236,118	120,776
287,443	4,586	235,880	120,624
288,457	4,792	235,986	120,828
289,472	4,838	235,657	120,685
290,487	4,820	235,414	120,536
291,501	4,434	235,312	120,172
292,516	4,255	235,137	119,933
293,530	4,171	235,131	119,854
294,545	4,742	235,027	120,234
295,560	4,841	234,776	120,171
296,574	4,494	234,590	119,797
297,589	4,405	234,357	119,598
298,603	4,815	234,421	119,937
299,618	4,828	234,379	119,916
300,633	4,714	233,985	119,615
301,647	5,035	233,986	119,853
302,662	5,148	234,054	119,964
303,676	5,085	233,689	119,718
304,691	4,825	233,589	119,456
305,706	5,010	233,426	119,504
306,720	5,265	233,131	119,539
307,735	4,898	233,160	119,261
308,749	4,826	232,828	119,025
309,764	4,402	232,757	118,652
310,779	4,385	232,517	118,506
311,793	4,125	232,161	118,115
312,808	3,937	232,100	117,929
313,822	4,585	231,999	118,364
314,837	4,826	231,896	118,484
315,852	4,646	231,839	118,308
316,866	4,507	231,778	118,159
317,881	4,944	231,589	118,387
318,895	4,948	231,309	118,236
319,910	5,145	231,329	118,386
320,925	4,690	230,978	117,849
321,939	4,480	230,789	117,582
322,954	4,586	230,794	117,655
323,968	4,432	230,639	117,448
324,983	4,628	230,440	117,485
325,997	5,143	230,378	117,835
327,012	5,098	230,246	117,723
328,027	4,578	230,182	117,284
329,041	4,899	229,999	117,425
330,056	5,126	230,034	117,604
331,070	5,295	229,934	117,670
332,085	5,307	229,514	117,453
333,100	4,865	229,363	117,032
334,114	4,943	229,161	116,977
335,129	5,342	229,169	117,273
336,143	5,019	229,119	116,993
337,158	4,950	228,938	116,838
338,173	4,842	228,662	116,605
339,187	4,703	228,429	116,371
340,202	4,950	228,332	116,497
341,216	4,828	228,274	116,366
342,231	4,717	228,028	116,147
343,246	4,658	227,955	116,054
344,260	4,827	227,920	116,153
345,275	4,885	227,802	116,126
346,289	5,166	227,652	116,250
347,304	5,116	227,392	116,069
348,319	4,988	227,314	115,923
349,333	4,808	227,142	115,691
350,348	4,748	226,840	115,482
351,362	4,678	226,729	115,363
352,377	4,802	226,544	115,351
353,392	4,521	226,350	115,032
354,406	4,317	226,356	114,873
355,421	195,117	1319,280	1393,448
356,435	156,406	1452,418	1393,425
