DTS Sentinel unit serial number:	SN410029Multiplexer serial number:	ORYXHardware model number:	OX2-SRSoftware version number:	ORYX F/W v4,00 Oryx Data Collector v3.7.2.0data status	okinstallation	B5 Nyhavnadifferential loss correction	single-endedforward channel	channel 2reverse channel	N/Adate	2023/12/12time	00:02:13forward acquisition time	300,00reverse acquisition time	0,00gamma	499,1914k internal	0,3156k external	0,3156temperature offset calibration	1,0000default loss term (dB/km)	0,3820temperature slope calibration	1,0000multiplexer offset coefficient	1,0000multiplexer slope coefficient	1,0000fibre end	0,00T internal ref (°C)	16,17T ext. ref 1 (°C)	-0,19T ext. ref 2 (°C)	-0,47length (m)	temperature (°C)	Stokes	anti-Stokes-744,400	-154,071	0,165	-0,008
-743,385	37,861	-0,267	0,175
-742,371	772,843	0,086	0,175
-741,356	35,573	-0,234	0,151
-740,342	-200,000	0,013	0,053
-739,327	-171,893	-0,347	-0,008
-738,312	424,561	0,050	0,080
-737,298	-97,049	-0,337	0,064
-736,283	252,351	0,067	-0,084
-735,269	-39,879	-0,243	0,093
-734,254	-50,447	0,072	0,025
-733,239	-108,967	-0,430	-0,067
-732,225	-59,226	0,193	0,061
-731,210	-156,612	0,081	-0,004
-730,196	800,000	-0,035	-0,076
-729,181	140,141	0,042	-0,041
-728,167	-154,447	-0,089	0,004
-727,152	30,564	0,029	-0,018
-726,137	-108,453	-0,063	-0,010
-725,123	299,269	0,034	-0,047
-724,108	166,438	-0,121	-0,127
-723,094	800,000	-0,049	-0,141
-722,079	-200,000	-0,019	-0,105
-721,064	800,000	0,039	0,085
-720,050	800,000	-0,025	-0,057
-719,035	172,814	-0,041	-0,044
-718,021	637,898	0,041	-0,077
-717,006	-42,682	-0,163	-0,061
-715,991	-58,599	-0,121	-0,038
-714,977	459,546	-0,018	0,029
-713,962	-104,148	-0,131	-0,022
-712,948	-200,000	0,041	-0,141
-711,933	-45,519	-0,089	0,032
-710,918	171,450	0,080	0,084
-709,904	-159,599	-0,169	0,007
-708,889	-200,000	-0,017	-0,093
-707,875	-75,814	0,045	0,012
-706,860	-79,638	-0,026	0,006
-705,845	55,546	0,031	-0,022
-704,831	-200,000	-0,022	0,099
-703,816	166,636	-0,109	0,114
-702,802	471,662	-0,057	-0,095
-701,787	-14,712	-0,073	-0,034
-700,772	-58,958	0,023	0,007
-699,758	-134,191	-0,096	0,009
-698,743	800,000	0,074	0,185
-697,729	-200,000	0,000	0,011
-696,714	31,818	-0,047	0,030
-695,699	425,638	-0,034	-0,055
-694,685	-200,000	-0,047	-0,214
-693,670	800,000	-0,032	-0,082
-692,656	-200,000	0,025	0,098
-691,641	-200,000	-0,017	0,121
-690,627	395,866	0,051	0,079
-689,612	800,000	-0,038	0,081
-688,597	277,201	0,039	-0,051
-687,583	-200,000	-0,008	-0,073
-686,568	-17,252	-0,103	-0,048
-685,554	-200,000	-0,001	-0,080
-684,539	-200,000	0,003	0,068
-683,524	-56,713	0,159	0,051
-682,510	-10,362	-0,043	0,021
-681,495	423,340	-0,049	-0,077
-680,481	-81,212	0,075	-0,018
-679,466	-123,853	0,047	-0,005
-678,451	22,480	-0,079	-0,048
-677,437	-200,000	0,004	-0,023
-676,422	268,925	-0,049	0,064
-675,408	-200,000	0,005	0,024
-674,393	-200,000	0,013	0,090
-673,378	-141,603	-0,124	0,009
-672,364	245,077	0,084	0,105
-671,349	-200,000	-0,001	-0,004
-670,335	157,533	0,166	-0,169
-669,320	-35,200	0,116	0,046
-668,305	-8,126	0,125	0,062
-667,291	-200,000	0,024	-0,077
-666,276	-116,817	0,048	-0,006
-665,262	53,158	0,035	0,025
-664,247	800,000	0,061	0,153
-663,232	-56,832	-0,047	0,015
-662,218	-30,113	0,084	0,035
-661,203	-72,941	0,172	0,046
-660,189	421,658	0,017	0,026
-659,174	17,146	-0,180	-0,105
-658,159	86,422	-0,083	-0,067
-657,145	67,570	-0,113	0,085
-656,130	274,908	0,029	0,038
-655,116	-200,000	-0,030	0,133
-654,101	800,000	0,057	0,130
-653,086	176,901	0,015	0,016
-652,072	-117,491	-0,225	0,030
-651,057	-29,453	0,067	-0,028
-650,043	112,367	-0,050	0,045
-649,028	157,365	-0,047	0,048
-648,014	27,377	0,111	-0,069
-646,999	414,315	-0,073	0,115
-645,984	-58,169	0,055	0,017
-644,970	-34,833	-0,099	-0,040
-643,955	-200,000	0,011	-0,101
-642,941	61,536	-0,025	-0,018
-641,926	52,502	-0,104	-0,073
-640,911	800,000	0,052	-0,145
-639,897	-200,000	-0,004	0,131
-638,882	45,383	0,076	-0,051
-637,868	243,180	0,103	0,127
-636,853	-23,599	0,080	0,035
-635,838	-108,870	-0,117	0,018
-634,824	121,479	-0,045	0,041
-633,809	800,000	-0,054	0,170
-632,795	-200,000	0,001	-0,049
-631,780	-19,012	0,136	-0,062
-630,765	121,221	-0,138	-0,126
-629,751	526,240	0,022	-0,038
-628,736	187,763	-0,061	-0,067
-627,722	-200,000	0,002	-0,144
-626,707	-31,767	0,057	0,023
-625,692	-200,000	0,015	0,100
-624,678	547,855	0,010	-0,018
-623,663	122,089	0,064	-0,059
-622,649	107,977	-0,083	0,073
-621,634	351,688	-0,112	0,164
-620,619	242,230	-0,069	0,085
-619,605	-97,440	0,028	-0,005
-618,590	-148,519	-0,008	-0,000
-617,576	52,243	0,129	0,090
-616,561	-146,257	0,104	-0,007
-615,546	311,007	-0,078	-0,108
-614,532	-200,000	0,021	0,088
-613,517	58,483	-0,036	-0,026
-612,503	-29,513	0,159	0,067
-611,488	207,349	-0,032	0,037
-610,474	3,503	-0,037	0,020
-609,459	398,742	-0,071	-0,110
-608,444	-200,000	0,007	-0,118
-607,430	-108,597	0,112	0,018
-606,415	134,286	-0,035	-0,034
-605,401	800,000	-0,037	-0,099
-604,386	-14,570	0,061	-0,029
-603,371	104,948	-0,035	-0,030
-602,357	172,851	0,090	0,095
-601,342	-200,000	-0,003	-0,016
-600,328	-24,081	-0,104	-0,046
-599,313	-81,402	0,110	0,026
-598,298	75,680	-0,108	0,084
-597,284	581,755	-0,049	0,088
-596,269	464,814	0,087	0,143
-595,255	528,775	0,067	0,117
-594,240	-200,000	0,008	0,071
-593,225	-8,701	-0,101	0,050
-592,211	-76,325	-0,163	0,042
-591,196	-200,000	-0,040	-0,205
-590,182	371,364	-0,027	-0,040
-589,167	122,808	0,134	0,123
-588,152	92,822	0,078	0,065
-587,138	-33,348	-0,104	-0,042
-586,123	-200,000	0,006	-0,107
-585,109	86,708	-0,057	0,046
-584,094	-73,262	-0,093	0,025
-583,079	-200,000	-0,009	0,087
-582,065	-200,000	-0,000	0,011
-581,050	19,227	0,069	0,040
-580,036	266,359	0,028	0,036
-579,021	57,157	0,167	-0,120
-578,006	-200,000	0,009	-0,091
-576,992	507,374	-0,035	-0,060
-575,977	-200,000	-0,017	0,116
-574,963	-200,000	-0,024	0,083
-573,948	57,730	-0,091	-0,065
-572,934	-30,503	0,223	-0,092
-571,919	-98,155	-0,138	-0,026
-570,904	314,624	0,027	0,037
-569,890	-118,657	-0,100	0,013
-568,875	33,405	0,044	0,028
-567,861	800,000	0,044	0,126
-566,846	48,714	0,066	-0,045
-565,831	-200,000	0,009	0,088
-564,817	-200,000	0,007	0,085
-563,802	-126,038	-0,169	0,018
-562,788	7,592	-0,119	-0,065
-561,773	-200,000	0,005	0,126
-560,758	476,294	0,010	0,017
-559,744	800,000	0,020	0,063
-558,729	800,000	0,018	-0,049
-557,715	257,798	-0,092	-0,117
-556,700	430,298	-0,018	-0,028
-555,685	-20,941	-0,078	-0,035
-554,671	5,557	0,044	0,023
-553,656	24,290	0,064	-0,038
-552,642	-58,321	0,071	0,022
-551,627	497,374	0,046	-0,077
-550,612	800,000	0,016	0,037
-549,598	49,518	-0,118	0,081
-548,583	-200,000	-0,013	-0,075
-547,569	-110,115	0,090	0,014
-546,554	30,442	0,072	0,045
-545,539	-82,584	-0,056	-0,013
-544,525	117,227	0,015	0,013
-543,510	-36,694	-0,087	0,034
-542,496	-200,000	-0,001	0,053
-541,481	26,728	-0,062	0,038
-540,466	-84,600	-0,189	-0,043
-539,452	-44,597	0,104	0,038
-538,437	127,992	-0,040	0,037
-537,423	204,214	-0,009	0,010
-536,408	-200,000	-0,010	0,102
-535,393	-66,166	0,132	0,038
-534,379	-159,107	-0,068	-0,003
-533,364	798,889	0,012	-0,025
-532,350	-155,841	-0,076	0,003
-531,335	-200,000	0,028	-0,100
-530,321	800,000	0,016	-0,043
-529,306	112,820	0,108	0,096
-528,291	125,171	0,065	-0,060
-527,277	-200,000	0,009	-0,088
-526,262	627,516	0,020	0,037
-525,248	97,391	0,081	0,068
-524,233	38,984	0,127	0,083
-523,218	-152,784	-0,027	0,001
-522,204	-166,838	0,086	0,003
-521,189	-10,171	0,099	-0,048
-520,175	-154,060	-0,041	0,002
-519,160	-200,000	-0,052	-0,210
-518,145	150,834	0,093	-0,093
-517,131	-92,098	0,085	0,017
-516,116	723,192	-0,053	0,103
-515,102	-66,047	-0,108	0,031
-514,087	345,981	-0,044	-0,063
-513,072	196,763	-0,081	-0,091
-512,058	800,000	0,047	-0,105
-511,043	34,090	0,023	0,014
-510,029	-200,000	-0,025	-0,110
-509,014	323,959	0,097	0,135
-507,999	800,000	0,067	0,164
-506,985	-156,545	0,131	-0,006
-505,970	267,657	-0,042	-0,054
-504,956	-200,000	-0,024	-0,089
-503,941	-23,492	0,103	-0,045
-502,926	-5,597	0,123	0,062
-501,912	-200,000	-0,019	0,066
-500,897	-36,190	-0,070	-0,028
-499,883	406,163	0,015	0,024
-498,868	10,809	0,071	0,039
-497,853	-54,371	0,077	-0,025
-496,839	-140,173	-0,078	0,006
-495,824	29,177	0,127	-0,078
-494,810	485,538	0,060	0,100
-493,795	-200,000	-0,005	0,029
-492,781	800,000	0,045	0,130
-491,766	-200,000	0,009	-0,033
-490,751	194,539	-0,077	-0,086
-489,737	153,659	-0,041	0,041
-488,722	-200,000	-0,003	0,048
-487,708	252,562	0,075	0,093
-486,693	-70,121	0,117	0,032
-485,678	-160,347	-0,142	-0,005
-484,664	800,000	-0,031	-0,078
-483,649	-7,561	0,153	-0,075
-482,635	800,000	0,032	-0,088
-481,620	209,801	0,098	0,112
-480,605	688,886	-0,052	0,100
-479,591	261,646	0,038	-0,048
-478,576	299,010	-0,014	0,019
-477,562	-200,000	-0,004	0,054
-476,547	16,940	0,084	-0,048
-475,532	98,916	-0,031	0,026
-474,518	-40,673	0,072	0,027
-473,503	-200,000	0,000	-0,020
-472,489	-58,935	0,068	0,021
-471,474	-34,248	-0,032	0,013
-470,459	41,151	-0,058	0,038
-469,445	113,223	0,145	-0,128
-468,430	307,702	0,092	-0,125
-467,416	519,141	-0,038	0,065
-466,401	-200,000	0,007	0,038
-465,386	100,354	0,109	0,092
-464,372	446,312	0,065	-0,105
-463,357	436,558	-0,031	-0,050
-462,343	174,511	-0,031	-0,033
-461,328	-37,915	-0,104	0,040
-460,313	-200,000	0,012	0,099
-459,299	800,000	0,062	0,137
-458,284	441,055	0,024	0,038
-457,270	-79,531	-0,160	-0,039
-456,255	800,000	-0,091	-0,222
-455,241	83,812	-0,036	0,028
-454,226	-91,684	-0,088	0,018
-453,211	-23,956	-0,070	-0,030
-452,197	-14,467	0,120	0,056
-451,182	-40,301	-0,103	0,039
-450,168	800,000	0,022	0,068
-449,153	-84,430	-0,011	-0,002
-448,138	-122,679	-0,106	-0,012
-447,124	253,809	-0,111	0,138
-446,109	-29,548	0,124	0,052
-445,095	-200,000	0,004	0,025
-444,080	-135,116	-0,035	0,003
-443,065	-200,000	-0,010	0,061
-442,051	242,521	0,032	-0,039
-441,036	-44,287	-0,058	0,021
-440,022	-144,766	-0,146	-0,010
-439,007	800,000	0,082	0,189
-437,992	161,590	-0,056	0,057
-436,978	-125,536	0,033	-0,004
-435,963	-136,768	-0,061	0,005
-434,949	55,408	0,099	0,070
-433,934	-200,000	0,012	-0,042
-432,919	-130,610	-0,085	0,008
-431,905	-200,000	0,016	-0,114
-430,890	30,035	0,008	-0,005
-429,876	800,000	0,074	0,165
-428,861	-200,000	0,014	0,127
-427,846	153,950	-0,078	0,078
-426,832	595,577	-0,086	-0,156
-425,817	800,000	-0,051	-0,133
-424,803	-57,490	-0,141	0,045
-423,788	75,961	-0,049	0,038
-422,773	-200,000	-0,001	0,047
-421,759	-200,000	0,009	-0,091
-420,744	-200,000	0,007	0,038
-419,730	61,635	-0,052	-0,037
-418,715	-200,000	-0,011	-0,056
-417,701	71,045	-0,126	-0,095
-416,686	494,661	-0,039	0,065
-415,671	-37,863	0,139	-0,054
-414,657	26,686	-0,106	-0,064
-413,642	194,688	-0,100	0,111
-412,628	-200,000	0,014	-0,122
-411,613	300,544	0,039	0,052
-410,598	-57,120	0,028	-0,009
-409,584	800,000	0,040	0,108
-408,569	152,360	0,096	0,096
-407,555	800,000	-0,036	0,101
-406,540	-200,000	-0,033	0,135
-405,525	-200,000	0,005	-0,201
-404,511	-200,000	-0,004	0,041
-403,496	187,616	-0,038	0,041
-402,482	156,186	-0,038	-0,039
-401,467	465,217	0,007	-0,012
-400,452	0,160	0,131	-0,068
-399,438	-200,000	-0,017	-0,064
-398,423	435,305	0,062	0,099
-397,409	216,397	0,035	0,041
-396,394	800,000	0,048	-0,134
-395,379	493,905	-0,017	0,029
-394,365	246,945	0,042	0,051
-393,350	-124,425	0,132	0,015
-392,336	92,430	-0,013	0,011
-391,321	78,361	-0,133	0,103
-390,306	-108,225	0,070	0,011
-389,292	-200,000	-0,031	-0,147
-388,277	-200,000	-0,022	-0,148
-387,263	754,266	0,064	0,126
-386,248	-41,070	0,140	0,052
-385,233	-200,000	-0,014	0,163
-384,219	-29,514	0,045	-0,018
-383,204	-127,609	-0,109	0,011
-382,190	800,000	-0,022	-0,067
-381,175	-200,000	0,009	-0,105
-380,160	9,001	0,029	-0,016
-379,146	-200,000	-0,010	0,075
-378,131	-93,616	-0,095	-0,019
-377,117	800,000	-0,035	-0,090
-376,102	-27,302	-0,108	-0,045
-375,088	-67,754	-0,019	0,005
-374,073	-200,000	0,003	0,038
-373,058	295,118	0,040	-0,054
-372,044	-115,433	0,082	-0,011
-371,029	309,119	-0,037	0,050
-370,015	137,817	-0,055	-0,053
-369,000	-200,000	-0,003	-0,099
-367,985	-11,198	-0,111	-0,053
-366,971	171,621	0,082	-0,086
-365,956	800,000	-0,056	0,114
-364,942	800,000	0,047	0,134
-363,927	107,230	-0,077	0,066
-362,912	-15,698	-0,112	-0,052
-361,898	-200,000	0,012	0,076
-360,883	489,301	0,035	0,059
-359,869	35,648	-0,028	0,018
-358,854	119,978	-0,054	0,048
-357,839	409,890	0,057	-0,089
-356,825	-94,529	-0,052	-0,010
-355,810	-43,761	-0,140	-0,051
-354,796	-123,593	-0,039	-0,004
-353,781	154,877	0,102	-0,102
-352,766	-200,000	0,024	-0,128
-351,752	308,424	-0,058	0,079
-350,737	-162,146	-0,033	0,001
-349,723	-119,755	0,069	0,009
-348,708	-200,000	-0,007	-0,035
-347,693	800,000	-0,038	-0,108
-346,679	56,989	-0,088	-0,062
-345,664	340,095	0,022	0,031
-344,650	109,155	0,013	-0,011
-343,635	-63,140	0,166	0,049
-342,620	-2,240	-0,100	0,051
-341,606	7,940	0,093	0,050
-340,591	-22,524	0,059	-0,026
-339,577	-19,354	-0,062	-0,028
-338,562	230,601	0,056	-0,066
-337,548	-200,000	0,002	-0,065
-336,533	-95,987	0,024	-0,005
-335,518	-200,000	-0,010	-0,063
-334,504	-70,863	0,168	0,046
-333,489	-200,000	-0,021	-0,081
-332,475	-200,000	0,052	-0,183
-331,460	119,386	-0,076	-0,068
-330,445	-66,231	0,043	-0,012
-329,431	-123,249	0,055	0,006
-328,416	-12,340	-0,044	0,021
-327,402	-98,043	-0,042	0,008
-326,387	284,619	0,028	-0,037
-325,372	183,829	0,086	-0,092
-324,358	17,271	0,086	-0,050
-323,343	6,914	0,108	-0,058
-322,329	-200,000	0,002	0,096
-321,314	-28,614	-0,030	-0,012
-320,299	262,945	0,035	0,045
-319,285	594,666	0,079	0,143
-318,270	-200,000	-0,050	-0,179
-317,256	-200,000	0,010	-0,163
-316,241	667,992	-0,047	-0,088
-315,226	800,000	0,045	-0,121
-314,212	594,850	0,056	-0,101
-313,197	231,625	-0,033	-0,039
-312,183	92,120	-0,105	-0,086
-311,168	-180,378	-0,054	0,001
-310,153	68,804	-0,082	0,061
-309,139	-200,000	0,024	0,078
-308,124	47,207	-0,040	-0,027
-307,110	23,959	0,036	-0,021
-306,095	25,898	0,063	0,038
-305,080	48,847	0,055	-0,037
-304,066	800,000	-0,009	0,022
-303,051	9,772	-0,111	-0,061
-302,037	-73,383	0,038	-0,010
-301,022	-183,099	-0,055	0,001
-300,008	-94,710	0,131	-0,025
-298,993	22,999	-0,040	0,024
-297,978	266,648	0,042	0,053
-296,964	28,796	0,074	-0,045
-295,949	32,097	-0,078	-0,048
-294,935	-19,487	0,130	-0,058
-293,920	47,810	-0,090	0,061
-292,905	449,658	0,025	0,039
-291,891	800,000	0,043	0,131
-290,876	453,246	0,085	0,137
-289,862	0,211	-0,041	0,021
-288,847	3,192	-0,105	0,055
-287,832	-111,163	0,070	-0,010
-286,818	-200,000	0,034	-0,139
-285,803	-200,000	-0,014	0,114
-284,789	778,152	0,018	-0,036
-283,774	170,799	0,046	0,048
-282,759	-26,352	0,176	0,075
-281,745	-137,992	-0,098	-0,008
-280,730	-62,301	-0,077	-0,023
-279,716	107,537	0,086	-0,074
-278,701	634,313	-0,077	-0,142
-277,686	97,709	0,045	-0,037
-276,672	800,000	-0,087	0,182
-275,657	-44,258	0,067	0,024
-274,643	630,482	0,068	-0,126
-273,628	800,000	-0,048	-0,098
-272,613	106,729	-0,046	0,040
-271,599	800,000	-0,067	-0,142
-270,584	206,254	-0,009	0,010
-269,570	677,509	0,074	0,139
-268,555	-200,000	-0,002	0,060
-267,540	-83,486	-0,111	-0,026
-266,526	800,000	-0,085	-0,176
-265,511	-88,688	0,082	-0,018
-264,497	-200,000	-0,012	0,038
-263,482	33,947	0,120	-0,076
-262,467	-99,275	-0,067	-0,012
-261,453	296,650	-0,023	0,031
-260,438	106,022	-0,101	-0,086
-259,424	-200,000	0,015	-0,118
-258,409	169,127	0,033	-0,035
-257,395	-74,561	0,088	0,023
-256,380	17,909	0,102	0,059
-255,365	-200,000	0,020	0,122
-254,351	-8,205	-0,079	0,038
-253,336	-171,764	0,116	0,003
-252,322	-200,000	-0,006	-0,027
-251,307	800,000	-0,075	-0,180
-250,292	35,629	0,129	-0,082
-249,278	51,801	-0,080	0,055
-248,263	54,197	-0,087	0,061
-247,249	348,613	0,006	-0,009
-246,234	-200,000	0,003	-0,104
-245,219	-20,975	-0,082	-0,036
-244,205	535,541	-0,047	0,080
-243,190	800,000	-0,038	-0,080
-242,176	317,184	-0,033	0,045
-241,161	-73,669	0,078	-0,021
-240,146	75,068	0,081	-0,062
-239,132	-200,000	0,011	0,153
-238,117	-200,000	0,023	0,099
-237,103	-200,000	-0,018	-0,066
-236,088	800,000	0,070	-0,140
-235,073	-55,206	-0,090	0,029
-234,059	-110,477	0,090	0,013
-233,044	257,110	0,087	0,108
-232,030	-200,000	-0,009	0,082
-231,015	-112,559	0,067	-0,010
-230,000	290,926	-0,049	0,064
-228,986	36,717	-0,055	0,035
-227,971	575,255	-0,068	0,121
-226,957	-68,512	-0,032	-0,009
-225,942	2,545	-0,088	0,046
-224,927	-200,000	0,001	-0,061
-223,913	800,000	-0,013	-0,032
-222,898	800,000	0,006	0,016
-221,884	390,393	-0,034	-0,052
-220,869	-44,281	-0,086	-0,031
-219,855	-200,000	0,012	0,082
-218,840	-200,000	0,007	-0,164
-217,825	-31,568	-0,043	-0,017
-216,811	-200,000	-0,016	-0,065
-215,796	800,000	-0,054	-0,161
-214,782	-200,000	0,007	-0,032
-213,767	-75,530	-0,119	0,030
-212,752	135,076	0,070	0,065
-211,738	-200,000	0,019	-0,069
-210,723	368,673	0,055	0,081
-209,709	800,000	-0,038	-0,100
-208,694	255,376	0,089	0,111
-207,679	-154,614	-0,100	-0,005
-206,665	-45,351	0,060	-0,021
-205,650	-200,000	0,015	-0,104
-204,636	125,660	-0,007	-0,007
-203,621	315,146	-0,100	0,137
-202,606	-200,000	0,004	0,042
-201,592	-200,000	-0,002	-0,078
-200,577	-200,000	0,006	-0,042
-199,563	118,104	-0,031	-0,027
-198,548	-200,000	0,005	-0,019
-197,533	-132,873	0,069	0,006
-196,519	24,231	0,046	0,028
-195,504	239,600	-0,084	-0,101
-194,490	382,293	-0,077	0,115
-193,475	-200,000	-0,026	0,131
-192,460	757,207	0,059	-0,116
-191,446	-116,746	0,169	-0,022
-190,431	-14,478	0,050	0,023
-189,417	198,969	0,021	0,024
-188,402	117,605	-0,088	0,078
-187,387	-61,400	-0,091	-0,027
-186,373	97,798	0,046	-0,038
-185,358	-200,000	-0,001	-0,019
-184,344	184,813	0,080	0,086
-183,329	-44,708	0,043	0,015
-182,315	198,556	-0,075	0,083
-181,300	-106,060	-0,099	-0,016
-180,285	207,770	-0,018	0,021
-179,271	507,184	0,060	-0,100
-178,256	-106,845	-0,078	-0,012
-177,242	-50,404	-0,114	0,039
-176,227	-73,798	0,043	-0,011
-175,212	-98,317	-0,136	0,025
-174,198	626,653	0,046	0,085
-173,183	111,601	-0,070	0,061
-172,169	800,000	-0,068	-0,155
-171,154	-84,799	0,197	-0,044
-170,139	800,000	0,050	0,139
-169,125	83,465	0,103	0,081
-168,110	800,000	0,026	0,076
-167,096	-200,000	-0,009	0,081
-166,081	-156,183	0,053	0,002
-165,066	-127,972	-0,139	-0,014
-164,052	-45,439	-0,101	-0,036
-163,037	-200,000	0,016	-0,054
-162,023	136,358	-0,019	0,017
-161,008	14,336	-0,134	0,075
-159,993	-59,145	-0,027	0,008
-158,979	-200,000	-0,021	-0,082
-157,964	-4,874	0,042	-0,021
-156,950	190,302	-0,061	-0,066
-155,935	800,000	-0,044	-0,139
-154,920	-200,000	-0,026	0,164
-153,906	-165,301	0,122	-0,004
-152,891	-126,588	0,023	0,002
-151,877	800,000	0,031	0,087
-150,862	523,074	-0,055	-0,094
-149,847	-200,000	0,018	0,177
-148,833	-200,000	0,010	0,102
-147,818	-200,000	-0,003	-0,139
-146,804	-93,315	0,113	-0,022
-145,789	-200,000	0,006	0,155
-144,775	-200,000	-0,037	-0,132
-143,760	-200,000	-0,012	0,072
-142,745	-200,000	0,005	0,020
-141,731	-131,408	0,059	-0,006
-140,716	-77,332	0,087	0,022
-139,702	-200,000	0,008	0,055
-138,687	-11,614	-0,074	0,035
-137,672	0,704	-0,024	-0,012
-136,658	-76,552	0,036	0,009
-135,643	158,038	0,023	0,023
-134,629	236,759	-0,061	-0,073
-133,614	363,916	0,046	0,067
-132,599	-200,000	0,004	0,040
-131,585	447,548	-0,047	0,075
-130,570	800,000	0,007	-0,017
-129,556	-200,000	-0,015	-0,081
-128,541	-200,000	0,002	0,019
-127,526	-200,000	-0,006	-0,049
-126,512	153,484	0,045	-0,045
-125,497	153,889	0,143	0,142
-124,483	111,552	-0,052	0,045
-123,468	656,303	-0,088	0,164
-122,453	199,683	0,041	-0,046
-121,439	-152,306	0,108	-0,006
-120,424	800,000	-0,029	-0,066
-119,410	294,986	-0,054	-0,072
-118,395	-200,000	-0,002	-0,030
-117,380	57,724	0,080	0,056
-116,366	-200,000	-0,002	-0,008
-115,351	-144,405	0,143	0,009
-114,337	298,531	-0,170	-0,225
-113,322	245,976	0,079	0,096
-112,307	2,164	0,038	-0,020
-111,293	478,481	-0,039	0,064
-110,278	-133,792	-0,056	-0,005
-109,264	195,861	-0,040	0,044
-108,249	109,957	0,043	-0,037
-107,234	472,291	-0,045	0,073
-106,220	531,741	-0,059	-0,101
-105,205	-36,742	0,037	-0,014
-104,191	-113,318	0,104	0,015
-103,176	800,000	0,016	-0,038
-102,162	-200,000	0,013	0,078
-101,147	388,347	-0,048	-0,072
-100,132	-7,638	-0,185	-0,090
-99,118	-200,000	0,009	0,031
-98,103	76,748	0,109	0,084
-97,089	338,558	0,059	-0,082
-96,074	62,762	0,029	0,021
-95,059	15,506	-0,031	-0,017
-94,045	-200,000	-0,002	0,063
-93,030	-200,000	-0,025	0,127
-92,016	251,582	-0,055	0,067
-91,001	800,000	-0,040	0,091
-89,986	268,202	0,034	0,043
-88,972	108,423	0,149	0,128
-87,957	800,000	-0,053	-0,122
-86,943	800,000	0,030	0,086
-85,928	85,306	-0,052	-0,041
-84,913	-13,335	-0,092	0,043
-83,899	678,834	0,047	0,089
-82,884	-200,000	0,025	0,238
-81,870	-200,000	0,016	0,140
-80,855	638,391	-0,056	0,103
-79,840	-200,000	-0,000	-0,039
-78,826	-200,000	-0,000	-0,023
-77,811	-200,000	0,013	-0,054
-76,797	97,878	0,029	-0,024
-75,782	175,578	-0,037	-0,038
-74,767	-2,909	0,115	0,057
-73,753	720,624	-0,024	-0,047
-72,738	800,000	0,052	-0,147
-71,724	375,168	-0,036	-0,052
-70,709	102,048	0,136	-0,114
-69,694	211,213	0,117	-0,133
-68,680	-200,000	-0,006	0,039
-67,665	4,860	0,060	0,032
-66,651	24,576	0,024	0,014
-65,636	458,330	-0,070	0,112
-64,622	-54,441	-0,135	0,044
-63,607	-200,000	-0,048	-0,153
-62,592	-200,000	0,013	-0,052
-61,578	-51,766	-0,089	0,030
-60,563	-200,000	0,012	0,052
-59,549	527,267	-0,029	-0,049
-58,534	-9,900	-1,847	-0,879
-57,519	800,000	-0,416	-1,035
-56,505	-200,000	-1,149	-4,849
-55,490	-46,204	0,871	0,306
-54,476	800,000	5,375	12,332
-53,461	-200,000	17,147	282,103
-52,446	800,000	721,060	2227,079
-51,432	545,862	1636,372	2820,252
-50,417	112,884	1630,583	1418,526
-49,403	76,669	1287,444	979,640
-48,388	33,249	1030,268	640,394
-47,373	20,373	991,816	573,948
-46,359	18,998	979,871	562,491
-45,344	16,514	976,216	552,220
-44,330	16,640	974,839	551,833
-43,315	16,264	972,895	549,481
-42,300	16,222	971,701	548,648
-41,286	16,212	970,851	548,111
-40,271	16,157	969,972	547,415
-39,257	16,218	968,927	547,002
-38,242	16,218	968,121	546,524
-37,227	16,262	967,133	546,090
-36,213	16,231	966,410	545,558
-35,198	16,130	965,560	544,728
-34,184	16,238	964,752	544,602
-33,169	16,213	963,765	543,943
-32,154	16,257	962,702	543,463
-31,140	16,184	961,964	542,789
-30,125	16,301	961,185	542,704
-29,111	16,264	960,229	542,024
-28,096	16,278	959,662	541,729
-27,082	16,178	959,172	541,106
-26,067	16,198	958,155	540,578
-25,052	16,175	957,602	540,168
-24,038	16,231	956,874	539,918
-23,023	16,231	956,221	539,527
-22,009	16,211	955,536	539,056
-20,994	16,169	955,051	538,627
-19,979	16,239	954,336	538,426
-18,965	16,190	953,681	537,877
-17,950	16,201	953,033	537,527
-16,936	16,166	952,415	537,044
-15,921	16,137	951,766	536,563
-14,906	16,071	951,143	535,979
-13,892	16,119	950,365	535,675
-12,877	16,028	949,846	535,070
-11,863	16,045	949,017	534,636
-10,848	16,061	948,672	534,471
-9,833	16,113	948,186	534,343
-8,819	16,187	947,249	534,027
-7,804	16,111	946,704	533,458
-6,790	16,107	946,218	533,149
-5,775	16,134	945,505	532,813
-4,760	16,093	944,948	532,348
-3,746	16,160	944,160	532,094
-2,731	16,012	943,735	531,365
-1,717	15,918	943,080	530,676
-0,702	15,936	942,238	530,239
0,313	15,665	941,870	529,974
1,327	19,020	939,697	539,302
2,342	28,092	797,283	481,685
3,356	24,818	460,971	273,452
4,371	-2,712	314,921	157,508
5,386	-6,714	296,539	144,246
6,400	-8,910	290,716	139,216
7,415	-9,270	288,211	137,649
8,429	-9,364	286,602	136,776
9,444	-9,448	285,855	136,325
10,459	-9,344	285,321	136,159
11,473	-9,242	284,500	135,855
12,488	-9,282	284,016	135,574
13,502	-9,353	283,502	135,246
14,517	-9,133	283,141	135,275
15,531	-9,219	282,551	134,899
16,546	-9,149	282,328	134,848
17,561	-9,178	281,836	134,573
18,575	-9,317	281,647	134,336
19,590	-9,426	281,048	133,934
20,604	-9,285	280,874	133,975
21,619	-9,259	280,506	133,812
22,634	-9,255	280,243	133,678
23,648	-9,375	279,883	133,380
24,663	-9,333	279,718	133,330
25,677	-9,294	279,319	133,165
26,692	-9,295	279,202	133,096
27,707	-9,112	278,737	133,037
28,721	-9,305	278,473	132,716
29,736	-9,256	278,315	132,675
30,750	-9,225	277,826	132,460
31,765	-9,270	277,833	132,409
32,780	-9,357	277,523	132,166
33,794	-9,241	277,289	132,154
34,809	-9,215	277,058	132,056
35,823	-9,435	276,902	131,761
36,838	-9,308	276,495	131,676
37,853	-9,350	276,254	131,510
38,867	-9,374	276,072	131,389
39,882	-9,394	276,026	131,337
40,896	-9,449	275,632	131,086
41,911	-9,257	275,421	131,154
42,926	-9,569	275,152	130,722
43,940	-9,328	274,883	130,808
44,955	-9,357	274,678	130,672
45,969	-9,224	274,416	130,660
46,984	-9,502	274,130	130,252
47,999	-9,516	273,716	130,031
49,013	-9,830	273,536	129,640
50,028	-9,945	273,224	129,373
51,042	-9,906	272,810	129,202
52,057	-10,177	272,811	128,939
53,071	-9,920	272,579	129,057
54,086	-9,800	272,413	129,078
55,101	-9,625	272,219	129,137
56,115	-9,677	272,093	129,017
57,130	-9,314	271,989	129,294
58,144	-9,231	271,719	129,230
59,159	-9,096	271,454	129,218
60,174	-9,144	271,179	129,032
61,188	-9,158	271,170	129,003
62,203	-9,096	270,639	128,795
63,217	-9,195	270,608	128,678
64,232	-9,083	270,188	128,570
65,247	-9,284	270,167	128,363
66,261	-9,332	269,995	128,226
67,276	-9,353	269,756	128,082
68,290	-9,407	269,298	127,803
69,305	-9,704	269,189	127,468
70,320	-9,724	268,952	127,327
71,334	-9,500	268,946	127,517
72,349	-9,139	268,580	127,662
73,363	-9,253	268,451	127,485
74,378	-9,256	268,195	127,350
75,393	-9,264	268,064	127,269
76,407	-8,988	267,780	127,375
77,422	-9,119	267,491	127,106
78,436	-9,240	267,407	126,945
79,451	-9,098	267,198	126,963
80,466	-9,292	266,879	126,624
81,480	-9,243	266,473	126,465
82,495	-9,414	266,462	126,293
83,509	-9,178	266,180	126,363
84,524	-9,469	265,997	126,001
85,539	-9,303	265,721	126,009
86,553	-9,494	265,625	125,780
87,568	-9,483	265,437	125,689
88,582	-9,435	265,298	125,655
89,597	-9,468	265,043	125,493
90,611	-9,335	264,867	125,519
91,626	-9,194	264,695	125,553
92,641	-9,037	264,370	125,529
93,655	-9,271	264,312	125,280
94,670	-9,567	264,017	124,863
95,684	-9,287	263,947	125,070
96,699	-9,188	263,596	124,981
97,714	-9,433	263,468	124,690
98,728	-9,456	263,167	124,516
99,743	-9,253	263,000	124,607
100,757	-9,655	262,766	124,127
101,772	-9,500	262,566	124,159
102,787	-9,383	262,407	124,177
103,801	-9,297	262,209	124,149
104,816	-9,172	261,950	124,126
105,830	-9,165	261,993	124,142
106,845	-9,089	261,680	124,051
107,860	-9,511	261,594	123,624
108,874	-9,263	261,197	123,645
109,889	-9,174	261,021	123,630
110,903	-9,436	261,016	123,384
111,918	-9,181	260,613	123,408
112,933	-9,128	260,492	123,386
113,947	-9,227	260,439	123,263
114,962	-9,223	260,213	123,148
115,976	-9,357	259,983	122,910
116,991	-9,238	259,653	122,849
118,006	-9,209	259,527	122,803
119,020	-9,223	259,496	122,765
120,035	-9,140	259,243	122,708
121,049	-9,047	259,130	122,725
122,064	-9,297	258,914	122,392
123,079	-9,355	258,739	122,247
124,093	-9,447	258,512	122,049
125,108	-9,381	258,228	121,962
126,122	-9,674	258,078	121,624
127,137	-9,566	257,623	121,492
128,151	-9,435	257,681	121,623
129,166	-9,524	257,374	121,390
130,181	-9,471	257,415	121,445
131,195	-9,519	257,060	121,225
132,210	-9,394	256,999	121,294
133,224	-9,132	256,577	121,312
134,239	-9,123	256,474	121,260
135,254	-9,333	256,351	121,009
136,268	-9,292	256,201	120,963
137,283	-9,370	255,818	120,703
138,297	-9,605	255,552	120,364
139,312	-9,536	255,481	120,379
140,327	-9,458	255,325	120,363
141,341	-9,082	255,256	120,644
142,356	-9,025	255,135	120,625
143,370	-9,078	254,876	120,447
144,385	-8,972	254,696	120,442
145,400	-8,984	254,597	120,374
146,414	-8,983	254,330	120,238
147,429	-9,157	254,276	120,052
148,443	-9,067	253,981	119,980
149,458	-8,951	253,777	119,972
150,473	-9,031	253,587	119,803
151,487	-9,195	253,525	119,622
152,502	-9,210	253,294	119,490
153,516	-9,080	253,082	119,491
154,531	-9,064	252,925	119,420
155,546	-9,014	252,633	119,313
156,560	-9,209	252,600	119,121
157,575	-9,055	252,285	119,093
158,589	-9,259	252,263	118,898
159,604	-8,959	251,937	118,989
160,619	-9,089	251,688	118,751
161,633	-9,026	251,574	118,740
162,648	-8,729	251,355	118,878
163,662	-8,866	251,403	118,774
164,677	-9,114	251,174	118,444
165,692	-9,098	251,105	118,415
166,706	-9,010	250,849	118,358
167,721	-9,015	250,615	118,233
168,735	-8,957	250,503	118,219
169,750	-8,936	250,301	118,130
170,764	-8,927	250,256	118,106
171,779	-8,882	250,125	118,072
172,794	-8,879	249,908	117,962
173,808	-9,175	249,775	117,639
174,823	-9,537	249,390	117,142
175,837	-9,530	249,114	117,008
176,852	-9,219	249,158	117,280
177,867	-9,057	249,064	117,361
178,881	-8,996	248,848	117,300
179,896	-8,797	248,570	117,325
180,910	-8,951	248,484	117,146
181,925	-8,940	248,336	117,074
182,940	-9,059	248,176	116,889
183,954	-8,999	247,927	116,812
184,969	-9,056	247,812	116,699
185,983	-9,044	247,732	116,661
186,998	-8,817	247,437	116,701
188,013	-8,873	247,189	116,527
189,027	-9,003	247,122	116,377
190,042	-8,841	246,921	116,407
191,056	-8,956	246,833	116,259
192,071	-8,884	246,626	116,211
193,086	-9,043	246,478	115,999
194,100	-9,218	246,315	115,767
195,115	-8,836	246,014	115,931
196,129	-8,966	245,876	115,748
197,144	-8,968	245,679	115,644
198,159	-9,221	245,611	115,392
199,173	-9,219	245,261	115,219
200,188	-9,006	245,071	115,295
201,202	-9,330	244,846	114,912
202,217	-9,599	244,614	114,571
203,232	-9,737	244,400	114,348
204,246	-9,350	244,449	114,678
205,261	-8,908	244,304	114,963
206,275	-10,126	243,728	113,683
207,290	-6,739	245,073	117,092
208,304	-0,365	246,957	123,262
209,319	2,408	247,662	125,900
210,334	2,845	247,747	126,294
211,348	2,941	247,801	126,390
212,363	3,299	247,750	126,649
213,377	3,721	247,483	126,849
214,392	3,403	247,288	126,476
215,407	3,344	247,066	126,302
216,421	3,303	247,074	126,261
217,436	3,544	246,879	126,348
218,450	3,624	246,637	126,279
219,465	3,372	246,404	125,942
220,480	3,122	246,297	125,670
221,494	3,150	246,154	125,610
222,509	3,397	245,972	125,707
223,523	3,338	245,691	125,504
224,538	2,803	245,425	124,919
225,553	2,806	245,318	124,856
226,567	2,945	245,297	124,948
227,582	2,979	245,177	124,904
228,596	3,094	244,953	124,872
229,611	2,819	244,711	124,514
230,626	2,804	244,594	124,431
231,640	2,808	244,485	124,367
232,655	3,126	244,196	124,469
233,669	2,898	244,088	124,217
234,684	2,738	243,890	123,974
235,699	3,124	243,923	124,294
236,713	3,211	243,882	124,333
237,728	3,199	243,460	124,097
238,742	3,032	243,261	123,849
239,757	2,832	243,103	123,596
240,772	2,784	243,059	123,523
241,786	2,990	242,778	123,537
242,801	2,789	242,602	123,273
243,815	2,716	242,496	123,150
244,830	2,910	242,422	123,257
245,844	3,110	242,185	123,287
246,859	3,072	241,982	123,142
247,874	2,811	241,906	122,882
248,888	2,912	241,790	122,894
249,903	3,012	241,595	122,864
250,917	3,317	241,508	123,055
251,932	3,348	241,414	123,020
252,947	3,358	241,172	122,894
253,961	2,911	241,039	122,457
254,976	3,041	240,936	122,497
255,990	3,190	240,734	122,503
257,005	2,810	240,523	122,081
258,020	2,634	240,323	121,828
259,034	2,717	240,203	121,822
260,049	2,958	240,104	121,954
261,063	2,925	239,779	121,751
262,078	2,769	239,774	121,614
263,093	2,854	239,711	121,638
264,107	3,115	239,529	121,744
265,122	2,993	239,327	121,533
266,136	2,944	239,115	121,375
267,151	3,258	239,105	121,609
268,166	2,842	238,733	121,079
269,180	2,697	238,597	120,884
270,195	3,395	238,614	121,435
271,209	3,573	238,580	121,548
272,224	3,036	238,225	120,932
273,239	2,587	237,896	120,399
274,253	2,667	237,848	120,427
275,268	2,969	237,810	120,636
276,282	3,024	237,698	120,612
277,297	2,841	237,465	120,338
278,312	2,899	237,261	120,270
279,326	2,825	237,169	120,154
280,341	2,977	237,111	120,234
281,355	3,257	236,848	120,310
282,370	3,216	236,783	120,234
283,384	2,877	236,627	119,878
284,399	3,057	236,233	119,809
285,414	2,635	236,198	119,450
286,428	2,641	236,037	119,362
287,443	2,814	235,975	119,455
288,457	3,011	235,858	119,540
289,472	3,161	235,604	119,518
290,487	2,899	235,529	119,264
291,501	2,822	235,173	119,013
292,516	2,862	235,090	118,991
293,530	2,512	234,922	118,623
294,545	2,736	234,980	118,817
295,560	3,023	234,675	118,875
296,574	2,697	234,446	118,495
297,589	2,872	234,285	118,539
298,603	3,220	234,312	118,812
299,618	3,207	234,273	118,772
300,633	3,043	234,173	118,584
301,647	3,081	233,968	118,499
302,662	3,457	233,887	118,738
303,676	3,430	233,760	118,642
304,691	3,321	233,561	118,447
305,706	3,433	233,380	118,430
306,720	3,590	233,049	118,373
307,735	3,389	233,020	118,193
308,749	3,099	232,791	117,843
309,764	2,979	232,720	117,704
310,779	2,760	232,504	117,416
311,793	2,808	232,288	117,332
312,808	2,767	232,173	117,232
313,822	2,668	231,970	117,044
314,837	2,809	231,882	117,098
315,852	2,453	231,766	116,755
316,866	3,157	231,579	117,190
317,881	3,403	231,619	117,389
318,895	3,539	231,324	117,332
319,910	3,353	231,242	117,138
320,925	3,075	231,122	116,854
321,939	2,969	230,841	116,621
322,954	3,364	230,791	116,887
323,968	2,933	230,608	116,455
324,983	2,701	230,549	116,237
325,997	2,943	230,393	116,333
327,012	3,074	230,215	116,333
328,027	3,320	230,102	116,452
329,041	3,375	230,117	116,491
330,056	3,907	230,060	116,856
331,070	3,462	229,915	116,434
332,085	3,479	229,417	116,185
333,100	3,043	229,200	115,734
334,114	3,176	229,258	115,854
335,129	3,474	228,985	115,931
336,143	3,420	228,959	115,866
337,158	3,417	228,950	115,850
338,173	3,491	228,665	115,751
339,187	3,381	228,612	115,631
340,202	3,246	228,376	115,399
341,216	3,259	228,176	115,298
342,231	3,214	228,100	115,215
343,246	2,868	227,976	114,882
344,260	3,415	227,853	115,221
345,275	3,431	227,621	115,105
346,289	3,522	227,595	115,150
347,304	3,656	227,476	115,181
348,319	3,707	227,290	115,114
349,333	3,381	227,080	114,753
350,348	3,017	226,958	114,409
351,362	3,396	226,760	114,583
352,377	3,159	226,600	114,314
353,392	2,980	226,517	114,129
354,406	2,897	226,352	113,973
355,421	195,903	1321,355	1400,099
356,435	157,057	1454,775	1400,109
