DTS Sentinel unit serial number:	SN410029Multiplexer serial number:	ORYXHardware model number:	OX2-SRSoftware version number:	ORYX F/W v4,00 Oryx Data Collector v3.7.2.0data status	okinstallation	B5 Nyhavnadifferential loss correction	single-endedforward channel	channel 2reverse channel	N/Adate	2023/12/12time	23:07:13forward acquisition time	300,00reverse acquisition time	0,00gamma	499,1914k internal	0,3158k external	0,3158temperature offset calibration	1,0000default loss term (dB/km)	0,3820temperature slope calibration	1,0000multiplexer offset coefficient	1,0000multiplexer slope coefficient	1,0000fibre end	0,00T internal ref (°C)	14,50T ext. ref 1 (°C)	-2,04T ext. ref 2 (°C)	-2,36length (m)	temperature (°C)	Stokes	anti-Stokes-744,400	110,049	0,122	-0,108
-743,385	44,796	-0,313	-0,212
-742,371	-61,813	0,148	0,045
-741,356	-2,247	-0,247	0,127
-740,342	89,953	-0,080	0,066
-739,327	-82,924	-0,190	-0,045
-738,312	216,945	0,061	0,071
-737,298	-119,222	-0,155	-0,020
-736,283	-200,000	-0,007	0,050
-735,269	-136,379	-0,266	0,022
-734,254	-87,917	0,166	0,036
-733,239	-22,590	-0,539	-0,239
-732,225	95,180	0,058	0,049
-731,210	81,608	-0,092	0,073
-730,196	41,552	-0,022	-0,015
-729,181	693,214	-0,035	-0,068
-728,167	589,961	0,018	0,033
-727,152	-108,842	-0,075	0,012
-726,137	131,826	-0,123	-0,117
-725,123	197,674	-0,034	-0,038
-724,108	800,000	-0,039	-0,102
-723,094	269,174	0,015	0,019
-722,079	59,241	-0,098	-0,071
-721,064	541,586	-0,061	0,107
-720,050	193,937	-0,091	0,101
-719,035	-200,000	0,001	0,065
-718,021	-83,608	-0,074	-0,017
-717,006	-70,519	-0,140	-0,039
-715,991	-144,982	-0,091	-0,006
-714,977	800,000	-0,074	-0,154
-713,962	-200,000	0,006	0,094
-712,948	-200,000	-0,025	-0,117
-711,933	-22,553	-0,113	-0,050
-710,918	181,004	0,079	-0,085
-709,904	83,989	-0,091	0,073
-708,889	-18,048	-0,136	-0,063
-707,875	420,473	0,045	-0,072
-706,860	-147,833	-0,054	0,003
-705,845	800,000	-0,037	-0,085
-704,831	-79,846	0,086	-0,021
-703,816	-100,059	-0,093	0,017
-702,802	188,730	-0,062	-0,069
-701,787	800,000	-0,035	0,078
-700,772	72,474	-0,075	-0,057
-699,758	800,000	0,021	0,059
-698,743	-77,082	-0,069	-0,017
-697,729	-79,086	0,064	0,016
-696,714	-64,875	-0,144	0,042
-695,699	-198,445	0,077	-0,000
-694,685	-22,027	-0,055	-0,024
-693,670	-97,182	-0,085	0,016
-692,656	-5,755	0,045	0,022
-691,641	715,320	0,078	-0,154
-690,627	21,603	-0,055	0,033
-689,612	-126,709	-0,043	0,005
-688,597	-200,000	0,018	0,063
-687,583	800,000	-0,034	-0,104
-686,568	-200,000	-0,007	-0,027
-685,554	17,464	0,024	-0,014
-684,539	-200,000	0,016	-0,090
-683,524	800,000	0,088	-0,252
-682,510	-0,688	-0,137	-0,071
-681,495	-144,626	0,173	-0,012
-680,481	2,461	-0,068	0,036
-679,466	0,124	-0,297	-0,155
-678,451	-54,546	-0,146	-0,048
-677,437	-116,989	-0,036	0,005
-676,422	-200,000	0,009	0,159
-675,408	253,725	-0,041	-0,052
-674,393	-200,000	0,004	-0,034
-673,378	59,906	-0,071	-0,052
-672,364	48,270	-0,076	-0,052
-671,349	-38,533	-0,035	-0,013
-670,335	3,024	0,072	-0,038
-669,320	50,823	-0,026	-0,018
-668,305	323,933	-0,055	0,077
-667,291	-15,093	0,144	-0,068
-666,276	450,353	-0,037	0,061
-665,262	353,832	0,012	-0,017
-664,247	116,968	0,061	-0,055
-663,232	754,569	0,020	0,039
-662,218	148,083	-0,099	0,099
-661,203	17,298	-0,124	0,072
-660,189	671,284	0,043	0,082
-659,174	-200,000	-0,024	-0,189
-658,159	71,141	0,033	-0,025
-657,145	-182,795	0,043	0,001
-656,130	18,159	0,064	0,037
-655,116	51,979	-0,126	0,088
-654,101	-200,000	-0,002	-0,020
-653,086	166,473	-0,038	-0,040
-652,072	49,294	0,068	0,047
-651,057	175,115	0,032	0,034
-650,043	-170,426	-0,145	-0,004
-649,028	-58,425	-0,208	-0,066
-648,014	800,000	0,030	0,079
-646,999	-200,000	-0,010	0,158
-645,984	-200,000	-0,004	0,108
-644,970	-200,000	-0,038	0,134
-643,955	-151,642	-0,028	-0,001
-642,941	87,017	0,099	-0,080
-641,926	59,800	-0,086	-0,062
-640,911	800,000	-0,023	0,048
-639,897	761,608	0,034	0,068
-638,882	135,199	-0,071	0,068
-637,868	-75,437	0,091	0,024
-636,853	70,908	-0,057	-0,043
-635,838	711,762	0,061	-0,119
-634,824	800,000	-0,022	0,054
-633,809	-58,424	0,154	0,049
-632,795	-119,001	-0,099	0,013
-631,780	-170,236	-0,069	0,002
-630,765	18,365	-0,070	0,041
-629,751	6,975	-0,021	0,011
-628,736	-200,000	0,033	-0,142
-627,722	-89,880	-0,053	-0,011
-626,707	418,468	0,077	0,121
-625,692	500,001	0,009	-0,015
-624,678	135,712	0,075	-0,072
-623,663	-40,843	-0,059	0,022
-622,649	271,255	0,064	-0,083
-621,634	-163,412	-0,135	-0,005
-620,619	-200,000	0,009	-0,144
-619,605	-200,000	-0,025	-0,132
-618,590	-27,424	0,137	0,058
-617,576	256,864	0,092	-0,116
-616,561	66,873	0,048	-0,036
-615,546	-143,038	-0,113	-0,008
-614,532	-148,577	0,053	-0,003
-613,517	-42,261	0,007	-0,002
-612,503	-136,302	-0,151	0,013
-611,488	-126,169	0,088	0,010
-610,474	124,063	-0,092	-0,085
-609,459	800,000	-0,028	0,065
-608,444	378,060	-0,058	-0,087
-607,430	-16,988	0,023	0,010
-606,415	81,666	-0,066	-0,052
-605,401	-97,945	-0,065	0,012
-604,386	-200,000	-0,008	0,045
-603,371	-200,000	-0,003	-0,048
-602,357	-200,000	-0,005	-0,056
-601,342	-200,000	0,024	-0,093
-600,328	-200,000	-0,007	0,069
-599,313	-155,548	-0,103	0,005
-598,298	80,748	-0,075	-0,059
-597,284	800,000	-0,054	0,142
-596,269	692,645	0,060	0,115
-595,255	68,685	-0,102	0,077
-594,240	79,784	-0,011	0,009
-593,225	-12,188	-0,148	-0,070
-592,211	-132,253	0,015	-0,001
-591,196	-21,292	-0,086	0,038
-590,182	-200,000	-0,003	0,026
-589,167	-71,957	0,173	-0,047
-588,152	-200,000	0,024	-0,114
-587,138	800,000	0,059	-0,166
-586,123	-90,731	-0,068	-0,014
-585,109	-85,694	-0,024	0,006
-584,094	-200,000	0,028	0,131
-583,079	-200,000	0,000	0,034
-582,065	-5,108	0,022	-0,011
-581,050	-200,000	0,037	0,143
-580,036	319,049	0,070	0,097
-579,021	112,778	-0,117	0,104
-578,006	-200,000	-0,041	-0,136
-576,992	-77,060	-0,090	0,023
-575,977	800,000	0,048	-0,121
-574,963	-200,000	-0,022	0,092
-573,948	-200,000	-0,009	0,101
-572,934	203,702	0,020	-0,022
-571,919	-200,000	-0,010	-0,191
-570,904	-161,689	-0,100	-0,004
-569,890	209,407	-0,037	-0,042
-568,875	-162,533	0,128	-0,005
-567,861	168,408	0,055	0,057
-566,846	-200,000	-0,007	-0,105
-565,831	142,844	-0,070	-0,068
-564,817	62,479	-0,152	0,111
-563,802	-84,664	-0,060	0,014
-562,788	-75,982	-0,042	0,011
-561,773	-200,000	-0,010	0,096
-560,758	189,427	-0,037	-0,040
-559,744	800,000	0,051	-0,116
-558,729	-200,000	0,037	-0,167
-557,715	-152,832	-0,065	-0,003
-556,700	-200,000	-0,016	0,106
-555,685	-136,891	-0,073	0,006
-554,671	-45,268	-0,085	-0,031
-553,656	-19,421	-0,071	-0,032
-552,642	-30,839	-0,085	-0,035
-551,627	172,299	-0,026	-0,027
-550,612	-200,000	-0,007	-0,054
-549,598	-71,373	0,045	-0,012
-548,583	68,166	-0,125	0,094
-547,569	-2,728	-0,115	0,059
-546,554	56,385	0,055	0,039
-545,539	-200,000	0,005	-0,072
-544,525	-119,580	0,062	-0,008
-543,510	-200,000	-0,006	0,022
-542,496	510,379	-0,053	-0,091
-541,481	-147,258	-0,062	0,004
-540,466	800,000	0,023	-0,058
-539,452	-200,000	-0,067	0,000
-538,437	58,418	0,157	0,112
-537,423	408,874	0,070	0,109
-536,408	80,395	-0,048	-0,038
-535,393	210,677	-0,116	-0,134
-534,379	436,701	-0,034	-0,054
-533,364	800,000	0,018	0,050
-532,350	154,294	0,094	-0,095
-531,335	-124,400	0,147	0,017
-530,321	168,761	-0,051	-0,053
-529,306	732,402	-0,047	-0,092
-528,291	-190,095	-0,135	-0,001
-527,277	372,808	0,024	0,037
-526,262	800,000	-0,007	-0,016
-525,248	46,426	-0,047	0,032
-524,233	-200,000	-0,000	-0,026
-523,218	520,496	-0,058	0,099
-522,204	112,718	-0,072	-0,064
-521,189	-89,777	0,073	-0,015
-520,175	734,422	0,024	0,048
-519,160	789,966	-0,004	-0,009
-518,145	800,000	-0,053	0,151
-517,131	-200,000	0,022	-0,087
-516,116	-53,396	-0,136	0,045
-515,102	800,000	-0,033	-0,100
-514,087	-158,559	-0,165	0,007
-513,072	-12,066	-0,116	-0,055
-512,058	467,506	0,031	-0,050
-511,043	-43,686	-0,059	-0,021
-510,029	-200,000	-0,007	0,057
-509,014	3,646	0,054	0,029
-507,999	-16,647	0,052	-0,024
-506,985	800,000	-0,012	-0,037
-505,970	77,425	-0,036	-0,028
-504,956	-180,676	-0,103	-0,002
-503,941	-200,000	0,004	0,039
-502,926	-8,814	0,114	0,056
-501,912	395,116	-0,028	0,043
-500,897	-200,000	-0,019	0,109
-499,883	-200,000	0,011	-0,108
-498,868	35,283	-0,081	-0,052
-497,853	-95,017	-0,107	0,021
-496,839	-3,367	-0,082	0,041
-495,824	22,878	0,063	-0,037
-494,810	-34,451	0,097	0,039
-493,795	-200,000	0,011	0,067
-492,781	-200,000	0,009	-0,127
-491,766	62,301	-0,083	0,060
-490,751	-44,072	-0,096	-0,035
-489,737	39,299	0,056	0,036
-488,722	-78,977	0,094	0,023
-487,708	-200,000	-0,002	0,127
-486,693	35,419	0,031	-0,020
-485,678	-200,000	0,021	-0,098
-484,664	125,371	0,081	0,075
-483,649	172,916	-0,081	-0,086
-482,635	-99,507	-0,053	0,010
-481,620	800,000	-0,051	0,124
-480,605	78,950	0,112	0,088
-479,591	800,000	0,020	0,051
-478,576	-140,501	0,010	0,001
-477,562	800,000	0,016	0,037
-476,547	-136,718	-0,148	0,012
-475,532	-42,848	0,026	-0,009
-474,518	800,000	0,049	0,106
-473,503	255,723	0,022	-0,027
-472,489	67,242	0,066	-0,049
-471,474	-200,000	0,003	0,038
-470,459	61,353	-0,117	0,085
-469,445	166,323	0,065	-0,067
-468,430	-164,864	-0,131	-0,004
-467,416	247,354	0,065	-0,080
-466,401	-92,295	-0,112	0,023
-465,386	104,084	0,095	0,081
-464,372	800,000	-0,021	0,048
-463,357	-94,437	0,103	0,020
-462,343	16,231	-0,141	0,081
-461,328	-117,620	-0,080	0,010
-460,313	-32,493	0,072	0,029
-459,299	-200,000	0,037	0,129
-458,284	-200,000	0,040	0,000
-457,270	60,656	0,061	-0,044
-456,255	800,000	0,020	-0,059
-455,241	314,417	-0,058	-0,080
-454,226	-121,535	-0,069	-0,008
-453,211	-182,938	0,060	0,001
-452,197	800,000	0,052	0,115
-451,182	-43,355	0,131	0,048
-450,168	43,436	-0,197	0,131
-449,153	-23,547	-0,110	0,048
-448,138	-158,569	-0,047	-0,002
-447,124	113,337	0,003	-0,003
-446,109	205,944	0,063	-0,072
-445,095	555,094	0,049	0,087
-444,080	-171,070	0,089	-0,002
-443,065	360,208	0,098	0,143
-442,051	800,000	-0,048	0,113
-441,036	307,851	0,049	-0,066
-440,022	-89,101	-0,026	-0,006
-439,007	1,702	0,062	-0,032
-437,992	178,608	0,028	0,030
-436,978	800,000	0,055	-0,111
-435,963	-127,464	-0,084	-0,009
-434,949	-49,045	0,166	-0,057
-433,934	350,562	-0,044	0,063
-432,919	-36,765	0,124	-0,048
-431,905	800,000	0,007	-0,015
-430,890	-30,678	0,086	0,035
-429,876	-200,000	-0,003	0,017
-428,861	155,780	0,046	0,046
-427,846	291,695	0,006	-0,008
-426,832	800,000	0,038	-0,085
-425,817	-84,761	0,103	-0,023
-424,803	-33,303	-0,108	-0,043
-423,788	507,169	0,039	-0,067
-422,773	-116,228	0,103	-0,014
-421,759	198,419	0,046	-0,051
-420,744	150,427	0,074	-0,073
-419,730	100,156	-0,043	0,036
-418,715	-29,304	-0,057	-0,024
-417,701	565,845	0,050	-0,088
-416,686	-122,538	0,144	-0,017
-415,671	-200,000	-0,011	-0,092
-414,657	800,000	0,019	0,043
-413,642	-200,000	0,016	0,060
-412,628	-1,137	0,069	-0,036
-411,613	42,397	-0,066	-0,044
-410,598	-200,000	0,011	0,075
-409,584	-83,512	0,039	-0,009
-408,569	-156,462	0,131	-0,006
-407,555	-200,000	-0,011	0,078
-406,540	-11,958	-0,130	-0,062
-405,525	-27,604	0,035	-0,015
-404,511	114,795	-0,055	-0,049
-403,496	-15,898	0,057	-0,026
-402,482	-103,819	0,126	0,021
-401,467	55,318	-0,023	-0,016
-400,452	157,486	0,068	0,068
-399,438	-200,000	-0,045	0,249
-398,423	604,618	-0,049	0,089
-397,409	534,644	0,053	-0,092
-396,394	261,393	-0,076	-0,096
-395,379	-200,000	0,034	-0,163
-394,365	-200,000	-0,001	0,057
-393,350	-146,786	0,070	0,004
-392,336	-140,206	-0,038	0,003
-391,321	-60,839	-0,156	0,048
-390,306	-89,938	-0,057	-0,012
-389,292	800,000	0,015	0,034
-388,277	-57,780	0,082	0,026
-387,263	41,074	0,083	-0,055
-386,248	-66,952	0,122	-0,035
-385,233	-145,235	0,028	-0,002
-384,219	44,302	0,026	0,017
-383,204	-120,731	-0,042	0,005
-382,190	120,557	-0,083	-0,075
-381,175	-25,365	-0,128	-0,055
-380,160	-200,000	-0,003	-0,051
-379,146	-200,000	0,003	0,081
-378,131	-200,000	-0,007	0,157
-377,117	237,031	-0,108	-0,130
-376,102	-132,558	-0,080	0,007
-375,088	-84,129	-0,079	-0,018
-374,073	-200,000	0,009	-0,151
-373,058	-8,797	0,056	-0,027
-372,044	-200,000	-0,007	-0,054
-371,029	85,821	0,070	-0,056
-370,015	-151,050	-0,036	-0,002
-369,000	229,537	-0,037	-0,044
-367,985	-200,000	-0,014	-0,149
-366,971	-200,000	0,018	-0,064
-365,956	73,122	-0,037	-0,028
-364,942	-54,947	0,131	0,043
-363,927	-200,000	0,028	0,090
-362,912	-67,420	-0,025	-0,007
-361,898	800,000	0,020	0,048
-360,883	-101,163	-0,103	-0,018
-359,869	605,009	0,076	0,137
-358,854	27,284	0,114	0,070
-357,839	213,282	-0,077	0,089
-356,825	287,660	-0,045	0,059
-355,810	800,000	-0,030	-0,080
-354,796	800,000	0,063	-0,158
-353,781	622,370	-0,037	-0,068
-352,766	358,478	0,010	-0,015
-351,752	-200,000	-0,009	0,043
-350,737	6,828	0,174	0,094
-349,723	-200,000	0,062	0,245
-348,708	599,171	0,059	-0,106
-347,693	-200,000	0,024	-0,082
-346,679	-200,000	-0,002	0,016
-345,664	113,076	-0,082	0,072
-344,650	-200,000	0,013	-0,061
-343,635	-123,219	0,177	0,020
-342,620	497,755	0,024	0,041
-341,606	54,553	-0,055	0,038
-340,591	-200,000	0,013	-0,047
-339,577	123,691	-0,079	0,072
-338,562	-200,000	-0,010	-0,056
-337,548	-55,651	0,034	0,011
-336,533	-118,808	0,143	-0,018
-335,518	-200,000	0,026	-0,089
-334,504	-103,645	0,135	0,023
-333,489	-28,092	-0,041	-0,017
-332,475	59,188	-0,085	-0,060
-331,460	39,028	-0,068	-0,044
-330,445	-112,649	0,070	0,010
-329,431	-130,631	-0,078	-0,008
-328,416	768,540	0,049	0,097
-327,402	-120,041	-0,144	0,018
-326,387	91,292	0,134	0,109
-325,372	800,000	-0,055	-0,138
-324,358	-200,000	0,007	0,040
-323,343	78,683	0,087	-0,068
-322,329	116,605	-0,095	-0,084
-321,314	-92,212	-0,060	-0,012
-320,299	-200,000	-0,004	0,018
-319,285	-63,937	0,086	0,025
-318,270	523,756	-0,053	0,091
-317,256	-200,000	-0,031	-0,125
-316,241	800,000	-0,017	0,052
-315,226	265,583	0,083	0,105
-314,212	404,414	0,053	0,082
-313,197	-200,000	0,000	0,005
-312,183	-200,000	-0,001	-0,086
-311,168	-143,601	0,089	-0,006
-310,153	-6,096	0,051	-0,025
-309,139	222,434	0,063	0,074
-308,124	-200,000	0,013	-0,126
-307,110	606,358	0,036	0,065
-306,095	-200,000	0,000	-0,031
-305,080	-200,000	-0,000	-0,024
-304,066	-129,355	0,068	-0,007
-303,051	800,000	0,014	0,044
-302,037	142,347	-0,048	0,047
-301,022	64,503	-0,113	0,082
-300,008	53,389	0,064	0,044
-298,993	269,186	0,068	0,086
-297,978	-68,544	0,196	-0,055
-296,964	96,621	0,040	0,033
-295,949	-200,000	-0,016	-0,086
-294,935	70,843	0,064	-0,048
-293,920	779,050	-0,076	0,151
-292,905	8,479	0,022	-0,012
-291,891	384,337	0,024	0,035
-290,876	467,339	-0,043	0,070
-289,862	-50,837	-0,036	0,012
-288,847	467,183	-0,067	-0,110
-287,832	800,000	-0,008	-0,017
-286,818	800,000	-0,027	-0,060
-285,803	54,320	0,037	0,026
-284,789	800,000	-0,058	0,166
-283,774	800,000	-0,017	0,049
-282,759	195,483	-0,112	0,123
-281,745	318,968	-0,050	0,069
-280,730	800,000	0,003	-0,009
-279,716	-200,000	0,009	-0,083
-278,701	-141,855	0,080	0,006
-277,686	-66,305	-0,019	0,005
-276,672	-112,624	-0,207	0,029
-275,657	-200,000	0,007	-0,061
-274,643	30,806	-0,068	-0,042
-273,628	184,862	0,051	0,055
-272,613	-200,000	0,013	-0,044
-271,599	130,184	0,113	0,105
-270,584	-50,371	0,132	0,045
-269,570	-96,594	-0,080	0,015
-268,555	16,326	0,100	-0,057
-267,540	-39,703	0,042	-0,016
-266,526	26,104	0,071	-0,043
-265,511	-200,000	0,022	-0,074
-264,497	-66,159	0,110	0,031
-263,482	-200,000	-0,001	0,029
-262,467	-112,983	0,037	-0,005
-261,453	139,023	-0,089	0,084
-260,438	404,730	-0,144	-0,220
-259,424	-114,946	0,015	-0,002
-258,409	-38,009	-0,149	-0,057
-257,395	-68,232	0,043	-0,012
-256,380	387,255	-0,061	0,092
-255,365	-200,000	0,013	0,101
-254,351	-75,535	0,041	0,010
-253,336	-99,258	-0,088	0,016
-252,322	-122,950	-0,112	0,013
-251,307	-166,654	0,040	-0,001
-250,292	506,375	0,062	-0,104
-249,278	-127,465	0,081	-0,008
-248,263	-200,000	-0,009	-0,084
-247,249	-200,000	-0,066	0,000
-246,234	374,006	0,040	0,060
-245,219	-200,000	0,019	-0,061
-244,205	-200,000	-0,015	-0,099
-243,190	-43,953	-0,085	0,031
-242,176	303,775	0,088	0,119
-241,161	-200,000	-0,004	0,113
-240,146	141,602	0,060	-0,058
-239,132	432,982	0,010	-0,016
-238,117	-96,624	0,061	-0,012
-237,103	-103,420	0,095	0,016
-236,088	800,000	-0,079	-0,212
-235,073	-200,000	0,015	0,064
-234,059	-103,706	0,079	0,013
-233,044	-135,205	-0,114	0,010
-232,030	-153,709	-0,055	-0,003
-231,015	-140,464	-0,136	0,010
-230,000	304,104	-0,012	-0,016
-228,986	-27,129	-0,056	0,024
-227,971	-128,894	0,092	0,009
-226,957	-200,000	-0,023	-0,084
-225,942	-200,000	-0,036	-0,131
-224,927	-200,000	-0,002	-0,118
-223,913	-55,944	-0,091	-0,029
-222,898	788,817	0,029	-0,058
-221,884	-124,980	-0,095	0,010
-220,869	42,939	0,144	0,095
-219,855	425,476	-0,066	-0,103
-218,840	43,283	-0,041	-0,027
-217,825	-69,304	0,090	0,025
-216,811	170,585	-0,042	-0,044
-215,796	239,018	0,030	0,036
-214,782	-90,680	-0,143	-0,029
-213,767	261,290	0,075	-0,093
-212,752	4,459	0,095	-0,050
-211,738	-77,428	0,063	-0,016
-210,723	101,644	-0,074	0,062
-209,709	-200,000	0,004	0,071
-208,694	-114,076	0,075	-0,010
-207,679	-169,063	-0,099	0,003
-206,665	-85,746	0,190	0,042
-205,650	-200,000	-0,014	-0,109
-204,636	-200,000	0,007	0,098
-203,621	587,642	0,092	0,165
-202,606	-200,000	0,005	0,047
-201,592	-200,000	0,021	0,109
-200,577	800,000	0,019	-0,047
-199,563	200,359	-0,107	0,119
-198,548	355,331	0,128	0,184
-197,533	-96,555	0,100	0,019
-196,519	800,000	0,032	-0,083
-195,504	317,144	0,033	0,046
-194,490	-200,000	-0,002	-0,126
-193,475	46,060	-0,129	-0,086
-192,460	-68,567	0,081	-0,022
-191,446	-118,451	0,123	-0,016
-190,431	96,641	0,078	0,064
-189,417	800,000	-0,049	0,102
-188,402	278,596	-0,045	0,058
-187,387	-149,883	-0,183	-0,010
-186,373	-26,115	-0,134	-0,057
-185,358	-33,971	-0,029	-0,012
-184,344	328,861	0,043	-0,060
-183,329	800,000	-0,030	-0,062
-182,315	338,369	0,067	0,094
-181,300	70,963	-0,061	-0,045
-180,285	-165,552	-0,056	0,002
-179,271	-50,378	-0,251	-0,085
-178,256	-50,430	0,132	-0,045
-177,242	800,000	0,082	0,178
-176,227	63,687	-0,071	0,052
-175,212	399,052	0,081	0,122
-174,198	-46,858	0,107	0,038
-173,183	800,000	-0,025	-0,053
-172,169	-173,157	-0,044	-0,001
-171,154	267,876	0,064	-0,081
-170,139	-200,000	-0,012	-0,086
-169,125	-35,626	0,115	0,045
-168,110	-77,744	-0,096	-0,024
-167,096	229,870	0,098	-0,116
-166,081	-200,000	0,002	-0,035
-165,066	6,593	0,127	-0,068
-164,052	-200,000	0,015	-0,062
-163,037	71,005	0,137	-0,103
-162,023	-122,211	0,041	-0,005
-161,008	-200,000	-0,031	0,145
-159,993	232,074	0,044	-0,052
-158,979	-200,000	0,008	-0,065
-157,964	-200,000	-0,023	0,083
-156,950	-200,000	0,107	0,000
-155,935	-133,603	0,137	-0,012
-154,920	-90,798	-0,051	-0,010
-153,906	-200,000	-0,006	-0,030
-152,891	-200,000	0,037	0,183
-151,877	-26,653	-0,085	0,036
-150,862	-28,589	-0,112	-0,046
-149,847	285,946	0,028	-0,036
-148,833	-119,504	-0,100	0,012
-147,818	-20,972	0,118	-0,052
-146,804	-200,000	-0,015	0,104
-145,789	288,075	0,052	-0,068
-144,775	-12,429	0,065	-0,030
-143,760	-110,233	-0,130	-0,019
-142,745	-3,845	-0,065	0,033
-141,731	63,577	-0,114	-0,082
-140,716	-24,576	-0,073	0,031
-139,702	75,839	0,116	0,088
-138,687	226,309	0,087	0,102
-137,672	412,212	0,064	0,098
-136,658	57,880	-0,119	-0,083
-135,643	-66,971	0,042	-0,012
-134,629	-60,804	0,038	0,011
-133,614	-38,962	0,046	0,018
-132,599	-48,516	0,094	0,033
-131,585	62,872	-0,080	0,058
-130,570	-139,377	0,071	-0,005
-129,556	145,366	-0,123	0,118
-128,541	-200,000	0,023	-0,096
-127,526	0,973	-0,082	-0,042
-126,512	800,000	0,037	0,077
-125,497	-200,000	-0,005	-0,021
-124,483	-104,353	-0,025	-0,004
-123,468	-200,000	0,005	0,076
-122,453	-13,828	0,090	0,042
-121,439	-88,342	-0,146	0,031
-120,424	-200,000	-0,019	0,097
-119,410	-111,373	-0,017	0,002
-118,395	-200,000	-0,037	0,160
-117,380	-102,717	-0,038	0,006
-116,366	3,439	0,119	-0,062
-115,351	461,284	-0,062	0,099
-114,337	479,047	-0,008	-0,014
-113,322	-0,137	-0,067	-0,034
-112,307	-52,382	0,183	0,060
-111,293	102,056	-0,027	0,023
-110,278	-200,000	0,030	0,153
-109,264	226,703	0,052	0,061
-108,249	-142,819	-0,126	0,009
-107,234	-200,000	-0,016	-0,072
-106,220	449,204	-0,060	-0,096
-105,205	-200,000	-0,002	-0,168
-104,191	89,626	0,072	-0,057
-103,176	657,203	0,019	-0,035
-102,162	-200,000	-0,010	0,051
-101,147	800,000	-0,021	0,058
-100,132	-200,000	0,021	-0,150
-99,118	142,212	-0,123	-0,117
-98,103	800,000	0,021	-0,049
-97,089	22,197	-0,083	0,048
-96,074	-200,000	-0,009	0,123
-95,059	-200,000	-0,005	-0,172
-94,045	-160,781	-0,047	0,002
-93,030	800,000	-0,032	-0,084
-92,016	-83,781	0,081	-0,018
-91,001	159,930	-0,045	-0,045
-89,986	164,702	-0,063	0,064
-88,972	-10,393	0,127	0,060
-87,957	85,524	-0,013	0,010
-86,943	-200,000	-0,016	-0,087
-85,928	-39,229	0,083	0,031
-84,913	696,510	-0,087	-0,165
-83,899	-72,189	-0,024	-0,006
-82,884	176,444	0,022	0,023
-81,870	-9,171	0,104	0,050
-80,855	-102,852	-0,098	-0,017
-79,840	-129,935	0,085	-0,008
-78,826	68,877	-0,112	0,083
-77,811	-117,507	-0,014	-0,002
-76,797	7,169	0,054	0,029
-75,782	90,465	0,113	-0,091
-74,767	-74,849	-0,011	0,003
-73,753	-33,765	0,124	-0,049
-72,738	-110,448	-0,136	0,020
-71,724	155,484	-0,085	0,084
-70,709	539,586	-0,082	-0,141
-69,694	220,467	-0,036	0,042
-68,680	-177,112	-0,173	0,003
-67,665	-200,000	0,007	0,054
-66,651	268,609	0,079	-0,100
-65,636	-200,000	0,003	0,103
-64,622	351,383	-0,047	-0,067
-63,607	-200,000	-0,030	-0,147
-62,592	-85,093	0,107	0,024
-61,578	-5,701	-0,062	0,030
-60,563	502,053	-0,028	-0,046
-59,549	58,795	-0,037	0,026
-58,534	16,857	-2,106	-1,193
-57,519	-200,000	-0,202	-0,713
-56,505	-200,000	-1,346	-5,010
-55,490	27,410	0,949	0,571
-54,476	800,000	5,185	12,073
-53,461	-200,000	18,054	298,697
-52,446	800,000	733,226	2266,031
-51,432	544,831	1650,092	2839,320
-50,417	109,661	1638,636	1408,911
-49,403	74,486	1289,003	971,256
-48,388	31,047	1028,712	631,399
-47,373	20,042	990,741	571,746
-46,359	18,013	978,186	557,818
-45,344	14,880	974,520	545,437
-44,330	15,115	972,760	545,202
-43,315	14,605	970,942	542,493
-42,300	14,510	969,891	541,574
-41,286	14,514	968,938	541,035
-40,271	14,504	968,058	540,490
-39,257	14,549	967,112	540,087
-38,242	14,562	966,047	539,511
-37,227	14,453	965,536	538,852
-36,213	14,530	964,399	538,443
-35,198	14,487	963,576	537,823
-34,184	14,575	962,965	537,748
-33,169	14,537	961,943	537,033
-32,154	14,563	961,011	536,573
-31,140	14,539	960,210	536,027
-30,125	14,496	959,485	535,465
-29,111	14,552	958,482	535,064
-28,096	14,586	957,769	534,752
-27,082	14,520	957,177	534,190
-26,067	14,551	956,335	533,797
-25,052	14,515	955,652	533,280
-24,038	14,487	954,948	532,774
-23,023	14,487	954,427	532,462
-22,009	14,539	953,646	532,175
-20,994	14,559	952,986	531,850
-19,979	14,531	952,474	531,452
-18,965	14,536	951,633	530,977
-17,950	14,625	951,104	530,945
-16,936	14,486	950,571	530,184
-15,921	14,535	949,767	529,871
-14,906	14,416	949,196	529,150
-13,892	14,446	948,404	528,785
-12,877	14,399	948,003	528,389
-11,863	14,376	947,347	527,928
-10,848	14,477	946,741	527,891
-9,833	14,538	946,170	527,747
-8,819	14,465	945,528	527,138
-7,804	14,458	945,006	526,802
-6,790	14,443	944,267	526,323
-5,775	14,446	943,960	526,140
-4,760	14,447	943,052	525,613
-3,746	14,417	942,452	525,165
-2,731	14,362	941,637	524,515
-1,717	14,250	941,222	523,908
-0,702	14,306	940,478	523,649
0,313	14,107	939,911	523,497
1,327	17,461	937,569	532,723
2,342	26,620	793,704	475,238
3,356	23,229	458,950	269,591
4,371	-4,208	315,158	155,885
5,386	-8,376	296,969	142,645
6,400	-10,291	290,889	137,807
7,415	-10,509	288,372	136,387
8,429	-10,622	286,906	135,571
9,444	-10,691	286,011	135,068
10,459	-10,765	285,331	134,663
11,473	-10,798	284,854	134,393
12,488	-10,784	284,280	134,125
13,502	-10,835	283,741	133,809
14,517	-10,766	283,377	133,692
15,531	-10,691	282,759	133,461
16,546	-10,760	282,687	133,348
17,561	-10,856	282,167	132,999
18,575	-10,647	281,839	133,033
19,590	-10,730	281,448	132,757
20,604	-10,587	281,107	132,722
21,619	-10,754	280,910	132,457
22,634	-10,737	280,408	132,225
23,648	-10,975	280,202	131,887
24,663	-10,676	279,812	131,979
25,677	-10,901	279,801	131,746
26,692	-10,881	279,367	131,550
27,707	-10,727	279,137	131,576
28,721	-10,670	278,646	131,388
29,736	-10,706	278,561	131,301
30,750	-10,854	278,108	130,935
31,765	-10,877	278,119	130,907
32,780	-10,764	277,762	130,835
33,794	-10,619	277,581	130,875
34,809	-10,740	277,161	130,551
35,823	-10,793	277,015	130,420
36,838	-10,672	276,659	130,355
37,853	-10,951	276,547	130,027
38,867	-10,851	276,286	129,988
39,882	-10,814	276,066	129,907
40,896	-10,658	275,937	129,982
41,911	-10,824	275,567	129,640
42,926	-10,786	275,252	129,515
43,940	-10,815	274,991	129,354
44,955	-10,873	274,835	129,215
45,969	-10,740	274,493	129,167
46,984	-10,944	274,181	128,818
47,999	-11,104	274,057	128,598
49,013	-11,357	273,845	128,252
50,028	-11,348	273,442	128,060
51,042	-11,334	273,157	127,928
52,057	-11,371	272,891	127,758
53,071	-11,568	272,877	127,556
54,086	-11,582	272,797	127,495
55,101	-11,218	272,634	127,745
56,115	-11,044	272,356	127,765
57,130	-10,754	272,110	127,908
58,144	-10,604	271,901	127,937
59,159	-10,696	271,561	127,680
60,174	-10,697	271,456	127,618
61,188	-10,656	271,280	127,562
62,203	-10,593	271,133	127,540
63,217	-10,640	270,880	127,367
64,232	-10,688	270,611	127,184
65,247	-10,652	270,276	127,048
66,261	-10,637	270,073	126,956
67,276	-10,611	269,934	126,902
68,290	-11,029	269,555	126,329
69,305	-11,091	269,424	126,201
70,320	-10,985	269,164	126,164
71,334	-10,761	269,043	126,301
72,349	-10,683	268,704	126,202
73,363	-10,801	268,597	126,033
74,378	-10,710	268,259	125,946
75,393	-10,720	268,116	125,858
76,407	-10,881	267,985	125,639
77,422	-10,739	267,838	125,689
78,436	-10,643	267,513	125,612
79,451	-10,573	267,260	125,546
80,466	-10,649	266,937	125,314
81,480	-10,772	266,772	125,113
82,495	-11,084	266,627	124,752
83,509	-10,806	266,464	124,916
84,524	-10,746	266,221	124,845
85,539	-10,914	265,770	124,471
86,553	-10,818	265,677	124,503
87,568	-10,868	265,555	124,389
88,582	-10,887	265,418	124,297
89,597	-10,973	265,229	124,120
90,611	-10,743	265,001	124,209
91,626	-10,602	264,874	124,266
92,641	-10,450	264,584	124,255
93,655	-10,889	264,486	123,804
94,670	-10,749	264,103	123,739
95,684	-10,724	263,914	123,662
96,699	-10,703	263,734	123,585
97,714	-10,673	263,354	123,422
98,728	-10,869	263,447	123,279
99,743	-10,929	263,085	123,046
100,757	-10,993	262,982	122,930
101,772	-10,813	262,660	122,929
102,787	-10,733	262,422	122,878
103,801	-10,770	262,406	122,826
104,816	-10,821	262,358	122,747
105,830	-10,699	262,022	122,688
106,845	-10,710	261,850	122,587
107,860	-10,629	261,648	122,553
108,874	-10,666	261,376	122,382
109,889	-10,702	261,106	122,213
110,903	-10,811	260,969	122,041
111,918	-10,622	260,727	122,085
112,933	-10,879	260,716	121,841
113,947	-10,601	260,437	121,945
114,962	-10,752	260,185	121,683
115,976	-10,754	260,000	121,584
116,991	-10,720	259,882	121,548
118,006	-10,700	259,638	121,441
119,020	-10,674	259,584	121,427
120,035	-10,659	259,368	121,328
121,049	-10,686	259,047	121,143
122,064	-10,864	259,016	120,962
123,079	-10,769	258,875	120,969
124,093	-10,737	258,557	120,838
125,108	-10,898	258,279	120,556
126,122	-10,917	258,088	120,440
127,137	-11,265	258,026	120,096
128,151	-11,014	257,715	120,160
129,166	-10,829	257,478	120,200
130,181	-10,818	257,312	120,121
131,195	-10,917	257,083	119,917
132,210	-10,723	256,988	120,031
133,224	-10,634	256,773	119,997
134,239	-10,763	256,687	119,834
135,254	-10,792	256,511	119,716
136,268	-10,760	256,155	119,567
137,283	-10,937	256,120	119,387
138,297	-10,875	255,623	119,197
139,312	-11,174	255,589	118,913
140,327	-10,745	255,466	119,216
141,341	-10,596	255,281	119,248
142,356	-10,595	255,153	119,178
143,370	-10,508	254,944	119,145
144,385	-10,530	254,872	119,081
145,400	-10,473	254,591	118,989
146,414	-10,236	254,468	119,125
147,429	-10,586	254,248	118,710
148,443	-10,400	253,941	118,715
149,458	-10,608	254,046	118,575
150,473	-10,441	253,722	118,557
151,487	-10,487	253,528	118,417
152,502	-10,706	253,325	118,123
153,516	-10,568	253,182	118,165
154,531	-10,394	252,930	118,184
155,546	-10,593	252,846	117,965
156,560	-10,585	252,676	117,882
157,575	-10,751	252,331	117,569
158,589	-10,560	252,258	117,687
159,604	-10,489	251,907	117,573
160,619	-10,547	251,892	117,507
161,633	-10,742	251,704	117,242
162,648	-10,527	251,523	117,330
163,662	-10,657	251,389	117,148
164,677	-10,457	251,211	117,223
165,692	-10,531	251,001	117,052
166,706	-10,445	250,768	117,006
167,721	-10,620	250,738	116,834
168,735	-10,535	250,349	116,714
169,750	-10,402	250,346	116,814
170,764	-10,508	250,304	116,695
171,779	-10,678	250,244	116,513
172,794	-10,287	249,703	116,580
173,808	-10,467	249,563	116,353
174,823	-10,750	249,373	116,016
175,837	-11,011	249,211	115,710
176,852	-10,580	249,110	116,016
177,867	-10,441	249,053	116,095
178,881	-10,368	248,889	116,070
179,896	-10,493	248,630	115,834
180,910	-10,414	248,494	115,826
181,925	-10,483	248,237	115,638
182,940	-10,393	248,165	115,670
183,954	-10,457	248,074	115,563
184,969	-10,431	247,728	115,413
185,983	-10,417	247,598	115,355
186,998	-10,352	247,490	115,349
188,013	-10,510	247,364	115,148
189,027	-10,398	247,148	115,130
190,042	-10,427	246,877	114,969
191,056	-10,536	246,878	114,869
192,071	-10,463	246,422	114,707
193,086	-10,281	246,259	114,772
194,100	-10,354	246,200	114,674
195,115	-10,474	246,029	114,484
196,129	-10,501	245,965	114,422
197,144	-10,323	245,509	114,347
198,159	-10,554	245,588	114,183
199,173	-10,468	245,367	114,141
200,188	-10,467	245,176	114,043
201,202	-10,651	244,858	113,732
202,217	-10,943	244,555	113,341
203,232	-10,885	244,276	113,250
204,246	-10,692	244,366	113,440
205,261	-10,416	244,144	113,554
206,275	-10,985	243,852	112,941
207,290	-6,424	245,782	117,592
208,304	1,213	248,284	125,130
209,319	4,223	248,782	127,870
210,334	4,493	248,742	128,062
211,348	4,601	248,774	128,157
212,363	4,908	248,577	128,298
213,377	5,097	248,700	128,507
214,392	4,765	248,463	128,098
215,407	4,860	248,019	127,936
216,421	4,660	248,046	127,774
217,436	5,030	247,972	128,030
218,450	5,209	247,739	128,046
219,465	4,877	247,502	127,638
220,480	4,568	247,266	127,250
221,494	4,450	247,215	127,115
222,509	4,578	246,961	127,079
223,523	4,659	246,763	127,032
224,538	4,236	246,584	126,581
225,553	4,438	246,363	126,623
226,567	4,334	246,254	126,470
227,582	4,495	246,082	126,502
228,596	4,840	245,773	126,614
229,611	4,269	245,626	126,060
230,626	3,826	245,528	125,637
231,640	4,228	245,354	125,865
232,655	4,350	245,199	125,873
233,669	4,152	245,094	125,647
234,684	3,975	245,013	125,450
235,699	4,531	244,906	125,837
236,713	4,437	244,931	125,762
237,728	4,457	244,358	125,473
238,742	4,045	244,307	125,101
239,757	3,965	244,097	124,917
240,772	4,129	243,871	124,923
241,786	4,373	243,876	125,113
242,801	4,079	243,628	124,736
243,815	4,040	243,581	124,669
244,830	4,468	243,331	124,876
245,844	4,244	243,298	124,667
246,859	4,350	242,913	124,544
247,874	4,144	242,904	124,362
248,888	4,198	242,753	124,317
249,903	4,685	242,490	124,564
250,917	4,460	242,351	124,300
251,932	4,534	242,447	124,398
252,947	4,440	242,164	124,166
253,961	4,301	241,947	123,932
254,976	4,290	241,910	123,893
255,990	4,340	241,688	123,809
257,005	4,126	241,477	123,518
258,020	4,088	241,249	123,359
259,034	4,061	241,171	123,287
260,049	4,338	241,141	123,483
261,063	3,897	240,929	123,010
262,078	4,163	240,623	123,056
263,093	4,659	240,509	123,382
264,107	4,458	240,430	123,170
265,122	4,229	240,173	122,846
266,136	4,261	240,176	122,861
267,151	4,429	240,020	122,904
268,166	4,372	239,751	122,710
269,180	4,151	239,678	122,486
270,195	4,651	239,525	122,794
271,209	4,932	239,441	122,963
272,224	4,187	239,156	122,215
273,239	3,984	238,945	121,935
274,253	4,148	238,724	121,942
275,268	4,318	238,642	122,024
276,282	4,413	238,552	122,042
277,297	4,106	238,327	121,673
278,312	4,048	238,289	121,597
279,326	4,355	238,197	121,782
280,341	4,387	238,042	121,717
281,355	4,187	237,861	121,456
282,370	4,576	237,722	121,680
283,384	4,248	237,507	121,302
284,399	4,057	237,295	121,032
285,414	4,211	237,070	121,028
286,428	4,014	237,110	120,883
287,443	4,061	236,953	120,829
288,457	4,309	236,835	120,953
289,472	4,526	236,586	120,984
290,487	4,280	236,519	120,747
291,501	4,271	236,193	120,563
292,516	3,950	236,102	120,254
293,530	4,159	235,815	120,261
294,545	4,270	235,884	120,372
295,560	4,288	235,768	120,316
296,574	3,905	235,660	119,951
297,589	4,050	235,364	119,903
298,603	4,456	235,319	120,185
299,618	4,629	235,170	120,233
300,633	4,611	235,002	120,122
301,647	4,409	234,847	119,875
302,662	4,625	234,909	120,065
303,676	4,806	234,631	120,052
304,691	4,651	234,522	119,866
305,706	4,908	234,336	119,959
306,720	4,885	234,012	119,765
307,735	4,505	234,091	119,501
308,749	4,624	233,837	119,451
309,764	4,192	233,618	118,996
310,779	4,089	233,270	118,728
311,793	4,189	233,237	118,778
312,808	3,983	233,107	118,542
313,822	3,883	232,690	118,243
314,837	3,688	232,791	118,134
315,852	4,209	232,785	118,521
316,866	4,458	232,659	118,638
317,881	4,500	232,513	118,585
318,895	4,429	232,346	118,435
319,910	4,577	232,182	118,454
320,925	4,085	231,909	117,928
321,939	4,066	231,939	117,917
322,954	4,655	231,898	118,337
323,968	4,520	231,713	118,129
324,983	4,668	231,415	118,080
325,997	4,509	231,447	117,964
327,012	4,540	231,199	117,850
328,027	4,406	231,057	117,665
329,041	4,663	230,940	117,792
330,056	4,967	231,071	118,079
331,070	4,913	230,853	117,916
332,085	4,616	230,582	117,541
333,100	4,509	230,222	117,266
334,114	4,546	230,093	117,218
335,129	4,679	230,002	117,262
336,143	4,861	229,901	117,338
337,158	4,429	229,748	116,922
338,173	4,226	229,623	116,695
339,187	4,430	229,386	116,718
340,202	4,441	229,273	116,658
341,216	4,375	229,094	116,507
342,231	4,438	228,985	116,489
343,246	4,247	228,980	116,332
344,260	4,489	228,745	116,385
345,275	4,722	228,718	116,536
346,289	4,648	228,521	116,370
347,304	4,695	228,325	116,294
348,319	4,606	228,340	116,225
349,333	4,437	227,972	115,900
350,348	4,330	227,728	115,686
351,362	4,487	227,504	115,680
352,377	4,027	227,431	115,287
353,392	3,954	227,333	115,172
354,406	4,030	227,251	115,178
355,421	194,615	1321,548	1395,031
356,435	155,996	1454,859	1395,001
