DTS Sentinel unit serial number:	SN410029Multiplexer serial number:	ORYXHardware model number:	OX2-SRSoftware version number:	ORYX F/W v4,00 Oryx Data Collector v3.7.2.0data status	okinstallation	B5 Nyhavnadifferential loss correction	single-endedforward channel	channel 2reverse channel	N/Adate	2023/12/14time	12:17:13forward acquisition time	300,00reverse acquisition time	0,00gamma	499,1914k internal	0,3158k external	0,3158temperature offset calibration	1,0000default loss term (dB/km)	0,3820temperature slope calibration	1,0000multiplexer offset coefficient	1,0000multiplexer slope coefficient	1,0000fibre end	0,00T internal ref (°C)	7,74T ext. ref 1 (°C)	-7,75T ext. ref 2 (°C)	-7,78length (m)	temperature (°C)	Stokes	anti-Stokes-744,400	-171,410	0,162	0,004
-743,385	-108,657	-0,450	-0,070
-742,371	113,061	0,078	0,069
-741,356	-68,661	-0,258	-0,073
-740,342	-145,425	0,181	0,012
-739,327	-13,240	-0,398	-0,190
-738,312	246,723	0,080	-0,099
-737,298	-160,312	-0,259	-0,010
-736,283	724,354	0,076	0,151
-735,269	-81,053	-0,415	0,100
-734,254	-64,982	0,196	-0,058
-733,239	-67,396	-0,586	-0,168
-732,225	18,694	0,246	0,144
-731,210	13,745	-0,026	-0,015
-730,196	439,329	-0,104	-0,168
-729,181	-200,000	0,004	0,127
-728,167	50,126	-0,123	-0,086
-727,152	40,429	-0,036	-0,024
-726,137	-64,710	-0,111	-0,033
-725,123	-140,675	-0,126	-0,009
-724,108	-144,867	-0,170	-0,011
-723,094	481,871	-0,053	-0,089
-722,079	-107,983	-0,061	-0,010
-721,064	-200,000	-0,007	-0,040
-720,050	-151,326	-0,074	-0,004
-719,035	-200,000	0,000	-0,172
-718,021	-200,000	0,014	-0,052
-717,006	43,375	-0,156	-0,104
-715,991	800,000	0,018	-0,041
-714,977	-152,247	-0,075	0,004
-713,962	-117,108	-0,125	0,017
-712,948	-200,000	0,016	0,064
-711,933	447,953	0,047	0,077
-710,918	-200,000	-0,069	-0,000
-709,904	-122,377	-0,042	-0,005
-708,889	-91,975	-0,108	-0,022
-707,875	-200,000	-0,005	-0,061
-706,860	358,292	0,092	-0,136
-705,845	401,945	-0,024	0,037
-704,831	-200,000	-0,012	-0,066
-703,816	428,878	0,029	0,047
-702,802	-14,599	0,052	0,024
-701,787	-200,000	0,021	-0,105
-700,772	-200,000	-0,017	-0,166
-699,758	83,359	-0,030	0,024
-698,743	-137,610	0,170	0,014
-697,729	57,311	-0,061	-0,044
-696,714	222,769	-0,072	-0,085
-695,699	112,168	0,073	0,065
-694,685	36,146	-0,077	-0,050
-693,670	-200,000	-0,028	-0,118
-692,656	-200,000	-0,026	0,124
-691,641	764,662	-0,048	-0,097
-690,627	-61,252	-0,052	0,016
-689,612	-200,000	-0,007	-0,066
-688,597	800,000	-0,032	-0,081
-687,583	595,830	0,051	-0,094
-686,568	800,000	-0,044	0,094
-685,554	-77,337	0,082	-0,021
-684,539	-14,303	0,046	-0,022
-683,524	-141,269	-0,067	-0,005
-682,510	-200,000	-0,023	0,129
-681,495	114,135	-0,099	0,089
-680,481	-23,774	0,148	-0,065
-679,466	-0,623	-0,137	-0,071
-678,451	-122,620	-0,026	0,003
-677,437	-200,000	0,030	-0,141
-676,422	-200,000	0,003	-0,056
-675,408	-19,560	-0,110	0,050
-674,393	800,000	-0,041	-0,129
-673,378	-73,823	-0,085	-0,023
-672,364	-47,945	-0,034	-0,012
-671,349	-200,000	-0,046	-0,208
-670,335	-200,000	0,029	0,098
-669,320	-200,000	0,015	-0,052
-668,305	-200,000	0,006	0,074
-667,291	128,485	0,059	-0,056
-666,276	482,910	-0,050	-0,085
-665,262	27,577	-0,048	-0,029
-664,247	-71,582	-0,050	-0,014
-663,232	800,000	-0,053	0,121
-662,218	-200,000	0,011	-0,094
-661,203	-200,000	-0,007	0,080
-660,189	78,708	-0,095	0,074
-659,174	-200,000	0,000	-0,013
-658,159	182,062	-0,033	-0,036
-657,145	-200,000	0,025	-0,162
-656,130	33,387	0,096	0,061
-655,116	-200,000	-0,021	-0,093
-654,101	71,985	0,150	0,114
-653,086	2,697	0,073	0,039
-652,072	646,495	0,086	-0,162
-651,057	95,336	0,073	-0,061
-650,043	55,136	-0,119	-0,084
-649,028	334,562	0,011	-0,016
-648,014	-131,640	-0,082	0,008
-646,999	-200,000	-0,013	0,045
-645,984	-17,529	-0,034	-0,016
-644,970	184,912	0,024	0,027
-643,955	96,223	-0,085	-0,072
-642,941	-47,531	-0,120	-0,043
-641,926	-200,000	-0,002	-0,024
-640,911	703,303	0,055	0,107
-639,897	211,678	0,084	0,097
-638,882	-200,000	-0,015	0,095
-637,868	257,900	-0,043	-0,054
-636,853	194,557	0,032	0,036
-635,838	-65,329	-0,100	-0,029
-634,824	155,128	0,046	0,047
-633,809	-40,026	-0,102	0,039
-632,795	-25,393	0,097	0,042
-631,780	627,370	-0,048	0,089
-630,765	190,325	-0,079	0,087
-629,751	-200,000	0,014	-0,108
-628,736	276,882	-0,034	-0,044
-627,722	800,000	-0,050	-0,133
-626,707	427,780	-0,067	-0,107
-625,692	800,000	0,014	-0,041
-624,678	-200,000	0,018	-0,095
-623,663	-42,882	-0,106	-0,039
-622,649	51,526	-0,121	-0,084
-621,634	-84,099	-0,060	-0,014
-620,619	355,383	-0,027	-0,039
-619,605	557,444	-0,071	0,127
-618,590	13,387	0,043	-0,024
-617,576	-200,000	-0,043	-0,144
-616,561	39,575	0,073	0,048
-615,546	-32,622	-0,096	-0,039
-614,532	800,000	0,046	-0,101
-613,517	-52,125	-0,116	0,039
-612,503	-51,309	0,155	0,053
-611,488	-141,080	-0,037	-0,003
-610,474	-19,990	-0,051	-0,023
-609,459	-30,400	-0,023	0,010
-608,444	29,534	-0,017	-0,011
-607,430	-200,000	-0,002	-0,176
-606,415	88,887	-0,134	0,110
-605,401	54,706	-0,042	0,030
-604,386	-200,000	0,005	-0,049
-603,371	-136,945	0,148	-0,012
-602,357	104,879	-0,078	-0,068
-601,342	67,779	-0,069	0,052
-600,328	800,000	0,052	-0,115
-599,313	-200,000	0,001	-0,075
-598,298	-77,498	-0,035	-0,009
-597,284	392,110	0,032	-0,049
-596,269	800,000	-0,062	-0,137
-595,255	-138,452	0,091	0,007
-594,240	134,281	0,022	-0,021
-593,225	189,658	-0,153	-0,168
-592,211	-175,614	0,049	-0,001
-591,196	-153,452	-0,081	0,004
-590,182	529,721	0,041	-0,072
-589,167	-118,825	-0,012	0,002
-588,152	-74,228	0,005	-0,001
-587,138	-200,000	-0,014	-0,048
-586,123	235,069	0,162	-0,196
-585,109	-38,654	-0,086	-0,033
-584,094	-9,581	0,005	-0,002
-583,079	-200,000	0,020	0,141
-582,065	143,080	-0,060	0,058
-581,050	800,000	0,011	-0,030
-580,036	800,000	0,036	-0,093
-579,021	-200,000	0,006	-0,029
-578,006	90,308	-0,050	-0,041
-576,992	130,256	-0,069	0,065
-575,977	-91,725	-0,087	-0,018
-574,963	126,528	0,010	-0,009
-573,948	58,965	0,068	-0,049
-572,934	-89,240	-0,157	0,034
-571,919	-143,666	-0,072	-0,005
-570,904	-102,523	-0,092	0,016
-569,890	-200,000	-0,014	-0,081
-568,875	-15,780	0,123	0,057
-567,861	-101,237	-0,143	-0,025
-566,846	800,000	-0,022	0,053
-565,831	-64,478	0,095	-0,028
-564,817	-200,000	-0,009	-0,069
-563,802	680,733	0,039	-0,075
-562,788	-167,157	-0,035	0,001
-561,773	48,558	-0,080	-0,055
-560,758	122,911	-0,106	0,097
-559,744	444,454	0,042	-0,067
-558,729	-52,367	0,071	0,024
-557,715	-200,000	0,006	-0,105
-556,700	330,828	-0,013	0,018
-555,685	420,601	-0,040	0,063
-554,671	-45,632	0,173	-0,062
-553,656	-91,284	0,174	0,036
-552,642	316,054	0,048	0,067
-551,627	-200,000	-0,011	-0,088
-550,612	284,409	-0,073	0,096
-549,598	-200,000	0,010	-0,083
-548,583	800,000	0,042	0,099
-547,569	149,073	-0,070	-0,069
-546,554	262,800	-0,007	0,008
-545,539	-200,000	0,012	0,053
-544,525	-200,000	0,038	0,122
-543,510	254,515	0,033	0,042
-542,496	-200,000	-0,015	-0,070
-541,481	7,708	0,088	0,048
-540,466	-19,471	0,098	-0,044
-539,452	115,120	-0,084	-0,075
-538,437	800,000	-0,033	0,078
-537,423	43,120	-0,041	0,027
-536,408	-200,000	0,018	0,141
-535,393	212,062	-0,058	-0,067
-534,379	-200,000	0,001	-0,013
-533,364	296,581	-0,041	0,054
-532,350	800,000	0,023	0,047
-531,335	-22,984	-0,110	0,048
-530,321	-200,000	0,024	0,105
-529,306	391,175	0,068	-0,104
-528,291	461,792	0,036	-0,058
-527,277	275,478	-0,049	0,064
-526,262	800,000	-0,030	-0,085
-525,248	764,804	0,030	0,060
-524,233	83,224	0,047	-0,037
-523,218	-199,329	-0,023	0,000
-522,204	-22,476	0,048	-0,021
-521,189	-16,437	-0,165	0,076
-520,175	125,861	-0,124	-0,115
-519,160	-200,000	0,001	-0,098
-518,145	-56,981	0,084	0,027
-517,131	-177,050	0,098	0,002
-516,116	-200,000	-0,004	0,092
-515,102	438,718	-0,026	0,041
-514,087	-28,141	0,044	-0,019
-513,072	747,480	-0,080	-0,158
-512,058	-200,000	-0,013	-0,117
-511,043	-200,000	0,003	0,103
-510,029	-51,287	0,148	0,050
-509,014	800,000	0,070	0,172
-507,999	-122,328	-0,108	-0,013
-506,985	800,000	-0,040	0,085
-505,970	-6,551	0,062	-0,031
-504,956	-42,133	-0,117	-0,043
-503,941	196,929	0,056	0,062
-502,926	36,046	-0,169	0,108
-501,912	800,000	-0,061	0,148
-500,897	800,000	-0,053	0,116
-499,883	-200,000	0,018	-0,078
-498,868	30,142	0,066	0,041
-497,853	-138,492	-0,088	-0,007
-496,839	-200,000	0,054	0,194
-495,824	-200,000	-0,013	-0,084
-494,810	334,501	0,058	0,082
-493,795	-46,598	0,025	-0,009
-492,781	-168,818	0,047	-0,001
-491,766	110,675	-0,105	-0,092
-490,751	25,935	-0,031	-0,019
-489,737	182,055	-0,037	-0,039
-488,722	-142,557	0,055	-0,004
-487,708	-200,000	0,041	0,139
-486,693	-200,000	0,006	0,152
-485,678	-98,982	0,036	0,007
-484,664	-200,000	0,011	-0,053
-483,649	-73,546	-0,098	-0,026
-482,635	-200,000	-0,005	-0,084
-481,620	86,074	0,107	0,086
-480,605	-43,374	0,058	0,021
-479,591	800,000	-0,057	0,125
-478,576	800,000	0,028	-0,062
-477,562	-18,806	-0,066	0,030
-476,547	512,004	-0,082	-0,140
-475,532	103,894	-0,027	-0,023
-474,518	800,000	-0,051	-0,137
-473,503	-167,171	0,118	-0,003
-472,489	-135,097	0,071	-0,006
-471,474	72,591	-0,057	0,043
-470,459	-200,000	-0,017	-0,082
-469,445	-68,340	-0,075	-0,021
-468,430	-200,000	-0,009	-0,088
-467,416	-200,000	-0,039	-0,126
-466,401	75,029	-0,114	0,088
-465,386	-6,636	0,045	0,022
-464,372	-200,000	0,011	-0,129
-463,357	-27,949	-0,041	-0,017
-462,343	800,000	-0,066	-0,151
-461,328	-127,146	0,111	0,012
-460,313	800,000	-0,023	-0,051
-459,299	-72,599	0,098	-0,026
-458,284	800,000	0,032	-0,081
-457,270	-200,000	-0,007	-0,031
-456,255	-22,688	-0,150	0,066
-455,241	50,929	-0,085	0,059
-454,226	-200,000	-0,016	-0,081
-453,211	-200,000	0,022	0,164
-452,197	4,317	0,035	-0,018
-451,182	-116,203	0,077	-0,010
-450,168	800,000	0,048	0,106
-449,153	-75,141	-0,128	0,033
-448,138	-200,000	0,004	-0,094
-447,124	249,269	-0,065	-0,080
-446,109	-200,000	0,020	-0,095
-445,095	238,299	-0,050	0,061
-444,080	-200,000	-0,029	0,115
-443,065	-200,000	-0,004	-0,064
-442,051	47,592	0,093	0,063
-441,036	800,000	-0,026	-0,058
-440,022	42,208	-0,041	-0,027
-439,007	9,517	0,082	-0,045
-437,992	-94,822	-0,066	0,013
-436,978	-200,000	-0,006	-0,158
-435,963	332,999	0,074	0,104
-434,949	-68,087	0,039	0,011
-433,934	800,000	-0,013	-0,040
-432,919	-1,265	-0,070	-0,036
-431,905	-200,000	0,013	0,065
-430,890	-64,868	-0,058	0,017
-429,876	42,243	0,103	0,068
-428,861	-200,000	-0,002	0,030
-427,846	101,615	0,049	0,041
-426,832	800,000	0,004	0,011
-425,817	-200,000	0,016	-0,127
-424,803	506,636	0,062	0,105
-423,788	-71,974	0,050	0,014
-422,773	84,321	0,106	0,085
-421,759	-115,408	-0,092	-0,013
-420,744	573,009	-0,086	0,153
-419,730	127,025	0,077	0,071
-418,715	431,487	-0,034	0,053
-417,701	800,000	-0,029	-0,078
-416,686	800,000	0,060	0,145
-415,671	5,151	-0,016	-0,009
-414,657	91,903	0,167	0,137
-413,642	166,316	-0,132	-0,136
-412,628	-50,547	-0,070	-0,024
-411,613	-24,133	-0,103	0,045
-410,598	690,178	0,021	-0,040
-409,584	-200,000	-0,017	0,158
-408,569	305,488	0,135	0,183
-407,555	-52,893	0,054	-0,018
-406,540	-59,011	0,072	-0,022
-405,525	-200,000	-0,011	-0,045
-404,511	-200,000	-0,000	-0,028
-403,496	-200,000	-0,030	-0,164
-402,482	-103,218	0,154	0,026
-401,467	800,000	0,036	0,073
-400,452	217,895	-0,048	-0,056
-399,438	197,838	0,105	-0,116
-398,423	261,660	-0,122	-0,154
-397,409	88,484	0,127	-0,102
-396,394	800,000	-0,023	-0,066
-395,379	6,904	-0,070	0,038
-394,365	352,124	0,052	0,075
-393,350	76,299	0,083	0,064
-392,336	-120,831	0,067	-0,008
-391,321	46,901	0,017	-0,011
-390,306	800,000	0,072	-0,181
-389,292	11,782	0,032	-0,018
-388,277	-200,000	-0,006	0,169
-387,263	-46,462	0,174	0,062
-386,248	61,150	-0,057	-0,041
-385,233	800,000	-0,051	0,121
-384,219	-56,583	-0,120	-0,038
-383,204	-71,190	-0,110	-0,030
-382,190	800,000	-0,017	-0,039
-381,175	197,601	-0,030	0,033
-380,160	-61,111	0,029	-0,009
-379,146	362,461	-0,060	0,087
-378,131	-189,330	0,148	0,001
-377,117	-163,642	-0,142	0,005
-376,102	-74,696	0,047	0,012
-375,088	-96,897	0,077	0,015
-374,073	-103,675	-0,082	-0,014
-373,058	-128,049	-0,145	0,015
-372,044	25,403	0,069	0,042
-371,029	800,000	-0,021	-0,048
-370,015	-200,000	0,037	0,157
-369,000	446,984	0,033	0,053
-367,985	228,504	0,136	-0,162
-366,971	38,436	0,130	0,084
-365,956	21,215	0,057	0,033
-364,942	375,151	0,043	0,063
-363,927	105,450	-0,036	-0,031
-362,912	-29,060	0,056	-0,023
-361,898	631,492	-0,037	0,069
-360,883	-12,921	0,119	-0,056
-359,869	-88,774	0,031	-0,007
-358,854	-74,875	0,057	0,015
-357,839	-6,904	0,236	0,116
-356,825	-0,346	-0,088	0,045
-355,810	224,272	-0,070	0,082
-354,796	622,777	0,004	-0,007
-353,781	-157,471	0,070	-0,003
-352,766	800,000	0,015	-0,044
-351,752	27,767	-0,042	-0,026
-350,737	-77,881	0,033	-0,008
-349,723	348,683	0,087	0,125
-348,708	-71,135	0,066	0,018
-347,693	271,682	-0,091	-0,117
-346,679	-200,000	-0,035	-0,184
-345,664	566,451	-0,148	-0,261
-344,650	48,348	0,061	-0,042
-343,635	-118,491	-0,015	-0,002
-342,620	416,431	-0,019	0,030
-341,606	376,818	0,058	0,087
-340,591	-200,000	0,000	0,141
-339,577	-2,322	-0,102	-0,052
-338,562	-135,962	0,142	-0,012
-337,548	108,479	0,051	0,045
-336,533	60,654	0,107	0,077
-335,518	-97,383	-0,080	0,015
-334,504	274,392	0,059	0,076
-333,489	-30,475	-0,076	0,031
-332,475	618,479	0,045	-0,082
-331,460	-200,000	-0,008	-0,114
-330,445	-160,724	-0,112	0,004
-329,431	-200,000	-0,030	0,100
-328,416	57,829	0,062	0,044
-327,402	252,232	0,042	-0,052
-326,387	-200,000	-0,008	0,034
-325,372	-24,581	0,064	-0,028
-324,358	27,181	-0,097	-0,059
-323,343	-200,000	-0,017	0,054
-322,329	117,478	0,116	0,103
-321,314	-200,000	-0,046	0,196
-320,299	-17,478	-0,061	0,028
-319,285	-50,343	-0,050	-0,017
-318,270	-41,989	0,110	-0,040
-317,256	800,000	0,048	0,124
-316,241	166,358	-0,088	-0,090
-315,226	-39,759	0,127	-0,048
-314,212	42,628	0,125	0,083
-313,197	-56,513	-0,119	-0,038
-312,183	13,038	0,058	-0,032
-311,168	241,601	0,009	0,011
-310,153	-56,041	0,013	-0,004
-309,139	59,473	-0,178	0,127
-308,124	-200,000	-0,016	0,056
-307,110	90,831	0,062	0,051
-306,095	109,364	-0,059	0,051
-305,080	800,000	0,034	-0,093
-304,066	78,055	-0,011	0,009
-303,051	800,000	-0,021	-0,047
-302,037	520,070	-0,059	-0,101
-301,022	-85,410	-0,046	0,010
-300,008	800,000	0,031	0,077
-298,993	-200,000	-0,009	0,055
-297,978	173,996	-0,050	0,053
-296,964	-38,421	-0,046	0,018
-295,949	-29,221	-0,167	0,069
-294,935	13,995	0,012	-0,007
-293,920	-200,000	-0,004	0,049
-292,905	-193,551	0,029	-0,000
-291,891	550,605	0,074	-0,130
-290,876	-200,000	-0,002	0,121
-289,862	-200,000	-0,027	-0,103
-288,847	-200,000	0,006	-0,086
-287,832	-200,000	-0,017	0,075
-286,818	-200,000	-0,012	0,061
-285,803	-99,860	0,080	0,014
-284,789	800,000	0,019	0,059
-283,774	-64,478	-0,133	0,039
-282,759	-56,664	0,118	-0,038
-281,745	-200,000	0,004	0,131
-280,730	800,000	-0,038	-0,119
-279,716	23,481	-0,134	-0,079
-278,701	-15,496	0,122	0,056
-277,686	-106,657	-0,083	-0,013
-276,672	-200,000	0,087	-0,000
-275,657	-200,000	-0,036	0,159
-274,643	800,000	-0,038	0,081
-273,628	-49,279	0,082	-0,028
-272,613	-3,525	-0,015	-0,008
-271,599	800,000	0,027	-0,057
-270,584	-200,000	0,013	0,069
-269,570	-200,000	-0,015	-0,111
-268,555	606,616	0,047	-0,085
-267,540	-200,000	0,009	-0,065
-266,526	800,000	0,092	-0,226
-265,511	100,933	-0,051	-0,043
-264,497	-116,284	-0,063	-0,008
-263,482	-38,053	0,130	0,050
-262,467	800,000	0,031	-0,073
-261,453	204,604	0,039	0,044
-260,438	-43,824	-0,075	-0,027
-259,424	-200,000	-0,019	-0,133
-258,409	83,217	0,136	-0,107
-257,395	-200,000	0,004	-0,033
-256,380	-81,522	0,140	-0,033
-255,365	-69,586	-0,172	-0,047
-254,351	613,207	-0,041	-0,074
-253,336	273,570	-0,055	0,070
-252,322	721,891	-0,087	-0,168
-251,307	39,823	-0,042	-0,027
-250,292	108,034	0,045	-0,039
-249,278	-27,323	0,056	0,024
-248,263	800,000	0,017	-0,043
-247,249	25,471	0,087	-0,052
-246,234	800,000	0,026	-0,061
-245,219	-77,095	0,056	-0,014
-244,205	157,980	0,059	-0,059
-243,190	481,248	0,042	0,070
-242,176	-200,000	0,007	-0,087
-241,161	800,000	-0,050	0,130
-240,146	160,716	-0,127	0,129
-239,132	800,000	0,018	0,049
-238,117	-29,389	-0,090	-0,037
-237,103	167,296	0,063	-0,065
-236,088	-200,000	-0,001	-0,045
-235,073	758,477	0,025	-0,050
-234,059	-80,461	-0,061	0,015
-233,044	800,000	0,043	0,108
-232,030	158,518	-0,085	-0,085
-231,015	609,142	-0,018	0,032
-230,000	-105,726	0,176	0,028
-228,986	96,831	-0,047	-0,039
-227,971	324,927	-0,032	-0,045
-226,957	84,909	0,037	-0,029
-225,942	-200,000	-0,047	0,175
-224,927	-80,309	0,161	0,038
-223,913	128,027	-0,035	0,032
-222,898	360,673	-0,040	0,057
-221,884	800,000	-0,042	0,086
-220,869	-27,522	0,066	-0,028
-219,855	-200,000	-0,003	-0,045
-218,840	-167,491	0,073	0,002
-217,825	800,000	-0,005	0,013
-216,811	138,531	0,033	0,031
-215,796	-200,000	-0,025	-0,180
-214,782	-148,070	0,111	-0,007
-213,767	-200,000	-0,010	-0,090
-212,752	800,000	-0,060	0,172
-211,738	-152,394	-0,050	-0,003
-210,723	-47,680	-0,071	0,025
-209,709	34,933	0,139	0,088
-208,694	-143,315	-0,180	-0,012
-207,679	-41,172	0,050	0,019
-206,665	-77,841	0,092	0,023
-205,650	132,174	0,118	-0,110
-204,636	800,000	-0,034	0,069
-203,621	29,239	-0,103	0,063
-202,606	796,875	0,058	-0,116
-201,592	89,822	-0,068	-0,055
-200,577	-139,641	-0,089	0,007
-199,563	-69,718	0,099	0,027
-198,548	370,652	0,087	0,128
-197,533	-20,850	0,043	-0,019
-196,519	-49,229	0,044	-0,015
-195,504	792,617	-0,036	-0,072
-194,490	800,000	0,071	0,144
-193,475	-137,143	0,063	-0,005
-192,460	-52,870	-0,081	-0,027
-191,446	45,372	0,102	0,068
-190,431	-200,000	0,046	0,174
-189,417	-14,705	0,073	-0,034
-188,402	211,020	-0,067	0,076
-187,387	-200,000	-0,011	-0,048
-186,373	-200,000	0,005	-0,029
-185,358	-166,855	0,118	-0,003
-184,344	-25,768	-0,122	0,052
-183,329	-200,000	-0,015	0,066
-182,315	-200,000	-0,008	-0,037
-181,300	236,808	-0,034	0,041
-180,285	139,961	0,125	-0,119
-179,271	207,320	-0,038	-0,043
-178,256	39,718	-0,027	0,017
-177,242	-200,000	0,018	0,096
-176,227	-200,000	-0,002	-0,020
-175,212	339,194	0,047	0,066
-174,198	58,486	0,116	-0,082
-173,183	45,163	-0,101	0,067
-172,169	-200,000	-0,030	0,109
-171,154	-200,000	0,008	-0,036
-170,139	-50,958	-0,016	0,006
-169,125	-86,531	0,172	0,038
-168,110	248,570	-0,018	0,021
-167,096	93,384	-0,032	0,026
-166,081	132,392	0,028	0,026
-165,066	188,261	-0,060	-0,065
-164,052	-200,000	0,005	-0,093
-163,037	-22,975	0,012	0,005
-162,023	249,678	-0,033	0,040
-161,008	7,214	0,028	0,015
-159,993	-109,382	-0,033	0,005
-158,979	34,362	-0,039	0,024
-157,964	39,272	-0,057	0,037
-156,950	283,178	-0,058	-0,075
-155,935	389,096	0,031	-0,047
-154,920	80,130	0,112	0,087
-153,906	409,950	-0,058	0,089
-152,891	148,074	0,018	-0,017
-151,877	70,702	0,132	-0,098
-150,862	20,039	-0,055	-0,032
-149,847	200,134	-0,077	-0,085
-148,833	218,845	0,072	-0,083
-147,818	-79,781	0,089	0,021
-146,804	-94,992	0,087	0,017
-145,789	-15,622	0,081	0,037
-144,775	-45,853	0,055	-0,019
-143,760	22,045	-0,029	-0,017
-142,745	162,533	0,054	-0,055
-141,731	-82,324	0,106	0,025
-140,716	-200,000	0,003	-0,090
-139,702	54,524	-0,014	-0,010
-138,687	183,837	0,033	0,035
-137,672	112,388	0,036	-0,031
-136,658	-192,462	0,056	0,000
-135,643	800,000	-0,029	0,087
-134,629	-200,000	0,022	0,082
-133,614	-200,000	0,003	0,086
-132,599	153,767	0,071	-0,070
-131,585	800,000	-0,021	0,055
-130,570	800,000	-0,023	-0,058
-129,556	3,405	0,059	-0,031
-128,541	-116,698	-0,151	0,020
-127,526	-64,900	-0,033	0,010
-126,512	72,644	0,092	0,069
-125,497	78,890	0,123	0,095
-124,483	800,000	-0,040	0,107
-123,468	-94,234	-0,053	0,010
-122,453	-200,000	0,000	-0,027
-121,439	-115,083	-0,141	0,019
-120,424	706,608	0,075	-0,143
-119,410	-73,696	0,093	-0,024
-118,395	-117,936	-0,103	0,013
-117,380	-43,032	0,175	0,064
-116,366	-200,000	0,014	0,055
-115,351	800,000	-0,036	-0,110
-114,337	79,423	-0,072	0,055
-113,322	746,724	-0,026	0,051
-112,307	139,161	0,048	0,045
-111,293	-47,078	0,122	0,042
-110,278	487,249	0,070	0,115
-109,264	800,000	-0,046	-0,131
-108,249	164,308	-0,075	-0,076
-107,234	197,416	-0,104	0,114
-106,220	800,000	-0,014	0,029
-105,205	138,259	0,065	-0,061
-104,191	-33,620	0,073	-0,029
-103,176	44,377	0,056	0,037
-102,162	-143,953	-0,042	-0,003
-101,147	349,332	-0,073	0,104
-100,132	-200,000	-0,027	0,123
-99,118	8,485	0,073	-0,039
-98,103	-18,516	-0,023	-0,010
-97,089	32,972	0,107	0,067
-96,074	137,294	0,096	0,090
-95,059	-40,915	0,105	0,039
-94,045	146,203	0,091	-0,088
-93,030	-133,771	-0,120	0,011
-92,016	357,389	0,027	-0,039
-91,001	800,000	0,037	0,080
-89,986	-200,000	0,007	0,047
-88,972	-72,707	0,130	0,034
-87,957	24,340	0,035	-0,021
-86,943	800,000	-0,042	-0,121
-85,928	544,462	0,036	-0,062
-84,913	142,574	0,052	-0,050
-83,899	-41,771	-0,025	-0,009
-82,884	153,657	0,047	0,046
-81,870	138,701	0,063	0,059
-80,855	-66,527	0,084	-0,024
-79,840	800,000	0,019	-0,053
-78,826	112,418	0,144	-0,125
-77,811	114,402	-0,016	-0,014
-76,797	485,235	0,064	-0,106
-75,782	88,965	0,047	-0,038
-74,767	-97,274	0,113	-0,021
-73,753	-7,251	-0,056	-0,027
-72,738	800,000	0,036	-0,110
-71,724	157,238	-0,043	0,043
-70,709	-2,451	-0,173	-0,087
-69,694	-200,000	-0,011	-0,057
-68,680	-177,605	0,081	-0,001
-67,665	-150,059	0,064	-0,004
-66,651	800,000	-0,032	0,086
-65,636	-65,547	-0,030	0,009
-64,622	-1,253	-0,124	0,062
-63,607	-200,000	0,062	-0,244
-62,592	-109,209	-0,119	-0,018
-61,578	113,185	-0,046	0,040
-60,563	676,087	0,055	-0,103
-59,549	-200,000	-0,002	0,066
-58,534	76,280	-2,710	-2,058
-57,519	1,586	0,454	-0,234
-56,505	-200,000	-1,626	-5,458
-55,490	565,396	1,253	2,189
-54,476	800,000	5,302	11,263
-53,461	-200,000	22,433	347,839
-52,446	800,000	761,125	2287,307
-51,432	510,416	1645,045	2755,588
-50,417	96,330	1606,953	1318,080
-49,403	64,240	1264,017	911,727
-48,388	22,663	1016,290	595,388
-47,373	19,442	983,972	565,822
-46,359	12,744	970,916	536,417
-45,344	8,430	967,794	520,557
-44,330	8,858	965,724	520,823
-43,315	7,867	964,055	516,665
-42,300	7,772	962,767	515,644
-41,286	7,799	961,888	515,243
-40,271	7,777	960,981	514,664
-39,257	7,756	960,008	514,055
-38,242	7,742	959,380	513,654
-37,227	7,795	958,177	513,159
-36,213	7,776	957,448	512,688
-35,198	7,775	956,536	512,176
-34,184	7,826	955,680	511,862
-33,169	7,729	955,073	511,202
-32,154	7,865	953,794	510,935
-31,140	7,833	953,154	510,470
-30,125	7,906	952,247	510,199
-29,111	7,765	951,743	509,456
-28,096	7,834	950,986	509,251
-27,082	7,796	950,389	508,789
-26,067	7,734	949,560	508,127
-25,052	7,769	948,699	507,758
-24,038	7,734	948,016	507,260
-23,023	7,713	947,239	506,756
-22,009	7,759	946,903	506,703
-20,994	7,757	946,192	506,298
-19,979	7,789	945,510	506,016
-18,965	7,752	944,823	505,509
-17,950	7,794	944,056	505,213
-16,936	7,738	943,589	504,764
-15,921	7,730	942,824	504,308
-14,906	7,647	942,212	503,697
-13,892	7,696	941,642	503,527
-12,877	7,690	940,800	503,039
-11,863	7,624	940,411	502,602
-10,848	7,629	939,798	502,269
-9,833	7,759	939,291	502,391
-8,819	7,719	938,591	501,869
-7,804	7,669	938,008	501,379
-6,790	7,661	937,530	501,078
-5,775	7,676	937,018	500,834
-4,760	7,688	936,535	500,593
-3,746	7,660	935,816	500,100
-2,731	7,500	935,130	499,209
-1,717	7,528	934,561	498,974
-0,702	7,499	933,874	498,495
0,313	7,347	933,255	498,436
1,327	10,799	930,728	507,913
2,342	19,698	778,860	448,320
3,356	15,163	447,009	250,473
4,371	-10,988	311,681	146,929
5,386	-14,778	294,357	134,929
6,400	-16,704	288,014	130,108
7,415	-17,303	285,452	128,353
8,429	-18,047	283,570	126,772
9,444	-18,300	282,638	126,099
10,459	-18,340	282,065	125,793
11,473	-18,243	281,432	125,593
12,488	-18,178	280,987	125,446
13,502	-18,184	280,351	125,145
14,517	-18,228	280,023	124,945
15,531	-18,302	279,366	124,570
16,546	-18,377	279,167	124,399
17,561	-18,118	278,511	124,342
18,575	-18,192	278,398	124,210
19,590	-18,398	277,996	123,824
20,604	-18,243	277,734	123,843
21,619	-18,222	277,353	123,682
22,634	-18,308	277,039	123,450
23,648	-18,285	276,715	123,316
24,663	-18,324	276,396	123,126
25,677	-18,196	276,155	123,129
26,692	-18,302	275,923	122,914
27,707	-18,281	275,617	122,786
28,721	-18,392	275,397	122,573
29,736	-18,419	275,134	122,419
30,750	-18,377	274,770	122,287
31,765	-18,338	274,597	122,235
32,780	-18,350	274,243	122,055
33,794	-18,258	273,984	122,016
34,809	-18,278	273,903	121,950
35,823	-18,179	273,562	121,880
36,838	-18,268	273,407	121,717
37,853	-18,151	272,860	121,571
38,867	-18,363	272,772	121,323
39,882	-18,344	272,542	121,228
40,896	-18,324	272,443	121,192
41,911	-18,148	271,866	121,088
42,926	-18,303	271,798	120,903
43,940	-18,195	271,414	120,821
44,955	-18,454	271,323	120,530
45,969	-18,271	271,101	120,590
46,984	-18,226	270,971	120,563
47,999	-18,274	270,896	120,475
49,013	-18,137	270,444	120,390
50,028	-18,314	270,356	120,176
51,042	-18,214	269,969	120,086
52,057	-18,134	269,754	120,053
53,071	-18,392	269,623	119,747
54,086	-18,052	269,273	119,893
55,101	-18,067	269,070	119,778
56,115	-18,247	269,001	119,571
57,130	-18,163	268,685	119,497
58,144	-18,228	268,320	119,265
59,159	-18,296	268,196	119,137
60,174	-18,257	267,867	119,016
61,188	-18,114	267,787	119,101
62,203	-18,243	267,567	118,874
63,217	-18,122	267,415	118,906
64,232	-18,168	267,078	118,704
65,247	-18,258	266,793	118,485
66,261	-18,236	266,578	118,398
67,276	-18,216	266,378	118,318
68,290	-18,388	266,177	118,062
69,305	-18,307	266,098	118,090
70,320	-18,156	265,673	118,027
71,334	-18,204	265,450	117,874
72,349	-18,195	265,242	117,779
73,363	-18,184	265,079	117,706
74,378	-18,198	264,675	117,504
75,393	-18,162	264,613	117,498
76,407	-18,260	264,404	117,307
77,422	-18,101	264,299	117,393
78,436	-18,073	263,807	117,189
79,451	-17,993	263,599	117,158
80,466	-18,218	263,372	116,845
81,480	-18,231	263,245	116,767
82,495	-18,140	263,003	116,730
83,509	-18,107	262,841	116,677
84,524	-18,201	262,509	116,435
85,539	-18,364	262,409	116,235
86,553	-18,149	262,192	116,320
87,568	-18,285	261,938	116,076
88,582	-18,146	261,866	116,158
89,597	-18,202	261,549	115,957
90,611	-18,386	261,438	115,733
91,626	-18,255	261,303	115,780
92,641	-18,068	260,899	115,757
93,655	-18,450	260,888	115,402
94,670	-18,319	260,545	115,357
95,684	-18,114	260,305	115,422
96,699	-18,205	260,112	115,246
97,714	-18,231	260,019	115,171
98,728	-18,262	259,697	114,991
99,743	-18,206	259,475	114,931
100,757	-18,225	259,222	114,793
101,772	-18,212	259,138	114,757
102,787	-18,253	259,016	114,656
103,801	-18,096	258,653	114,623
104,816	-18,175	258,587	114,514
105,830	-18,099	258,388	114,482
106,845	-17,938	258,087	114,480
107,860	-18,266	257,934	114,115
108,874	-18,287	257,653	113,962
109,889	-18,098	257,391	114,002
110,903	-18,169	257,317	113,896
111,918	-18,100	257,081	113,842
112,933	-18,115	256,892	113,735
113,947	-18,082	256,745	113,689
114,962	-18,311	256,527	113,383
115,976	-18,049	256,287	113,494
116,991	-18,045	256,076	113,394
118,006	-18,135	255,826	113,195
119,020	-18,219	255,702	113,057
120,035	-18,125	255,712	113,134
121,049	-18,158	255,528	113,013
122,064	-18,073	255,244	112,951
123,079	-18,093	254,814	112,734
124,093	-18,162	254,798	112,656
125,108	-18,140	254,547	112,555
126,122	-18,143	254,435	112,492
127,137	-18,448	254,252	112,138
128,151	-18,032	254,020	112,385
129,166	-18,053	253,858	112,284
130,181	-18,124	253,556	112,080
131,195	-18,086	253,390	112,030
132,210	-17,990	253,064	111,957
133,224	-18,115	252,899	111,768
134,239	-17,965	252,730	111,811
135,254	-18,177	252,650	111,585
136,268	-18,127	252,508	111,555
137,283	-17,969	252,004	111,457
138,297	-18,102	251,917	111,295
139,312	-18,051	251,792	111,273
140,327	-18,164	251,590	111,078
141,341	-18,168	251,412	110,986
142,356	-18,033	251,157	110,978
143,370	-17,998	251,009	110,932
144,385	-18,184	250,995	110,758
145,400	-18,134	250,704	110,663
146,414	-18,215	250,386	110,443
147,429	-18,109	250,259	110,468
148,443	-18,060	250,047	110,406
149,458	-18,060	249,931	110,344
150,473	-18,007	249,682	110,270
151,487	-17,857	249,529	110,319
152,502	-18,065	249,407	110,079
153,516	-17,942	249,128	110,050
154,531	-18,081	248,994	109,864
155,546	-18,196	248,850	109,694
156,560	-17,917	248,503	109,766
157,575	-17,889	248,399	109,734
158,589	-17,927	248,099	109,560
159,604	-17,888	247,996	109,537
160,619	-17,879	247,709	109,408
161,633	-18,011	247,564	109,224
162,648	-18,068	247,624	109,192
163,662	-17,998	247,370	109,130
164,677	-17,976	247,225	109,074
165,692	-18,130	247,048	108,857
166,706	-17,983	246,805	108,864
167,721	-18,090	246,645	108,694
168,735	-17,968	246,599	108,766
169,750	-18,169	246,510	108,550
170,764	-17,950	246,205	108,588
171,779	-17,950	245,986	108,482
172,794	-18,004	246,015	108,439
173,808	-17,841	245,769	108,457
174,823	-17,787	245,425	108,340
175,837	-18,072	245,376	108,073
176,852	-18,039	245,292	108,053
177,867	-17,996	244,947	107,928
178,881	-17,854	244,916	108,021
179,896	-17,831	244,553	107,871
180,910	-18,021	244,585	107,718
181,925	-17,895	244,240	107,661
182,940	-17,921	244,053	107,547
183,954	-17,844	243,892	107,530
184,969	-17,843	243,860	107,507
185,983	-17,836	243,628	107,401
186,998	-17,832	243,401	107,294
188,013	-18,018	243,276	107,078
189,027	-17,911	243,010	107,038
190,042	-18,008	242,928	106,913
191,056	-18,032	242,837	106,844
192,071	-18,040	242,592	106,720
193,086	-17,860	242,402	106,774
194,100	-17,893	242,323	106,703
195,115	-17,824	242,101	106,652
196,129	-17,819	241,814	106,520
197,144	-17,916	241,706	106,384
198,159	-17,909	241,471	106,277
199,173	-17,763	241,366	106,340
200,188	-17,929	241,204	106,124
201,202	-17,776	240,824	106,072
202,217	-17,897	240,779	105,944
203,232	-17,986	240,628	105,796
204,246	-17,892	240,498	105,806
205,261	-17,661	240,474	105,973
206,275	-15,701	240,811	107,702
207,290	-10,314	242,676	112,926
208,304	-4,831	244,578	118,305
209,319	-3,118	244,906	119,859
210,334	-2,326	245,053	120,570
211,348	-1,427	245,182	121,361
212,363	-0,923	245,191	121,768
213,377	-0,442	245,284	122,198
214,392	0,262	245,456	122,851
215,407	0,551	245,301	122,999
216,421	0,573	244,992	122,851
217,436	0,797	244,966	123,010
218,450	0,714	244,722	122,808
219,465	0,811	244,652	122,842
220,480	0,841	244,611	122,835
221,494	0,718	244,449	122,643
222,509	0,489	243,978	122,208
223,523	0,214	243,770	121,869
224,538	0,189	243,656	121,782
225,553	0,064	243,503	121,593
226,567	0,131	243,305	121,537
227,582	0,265	243,220	121,593
228,596	0,209	243,005	121,429
229,611	0,321	242,839	121,425
230,626	0,263	242,709	121,303
231,640	0,258	242,486	121,177
232,655	0,012	242,416	120,932
233,669	0,196	242,216	120,970
234,684	-0,032	242,093	120,714
235,699	0,028	241,797	120,604
236,713	0,135	241,720	120,641
237,728	0,094	241,615	120,545
238,742	0,220	241,462	120,559
239,757	0,146	241,257	120,387
240,772	0,106	240,970	120,201
241,786	0,166	240,857	120,181
242,801	0,119	240,822	120,115
243,815	0,139	240,643	120,032
244,830	0,035	240,484	119,858
245,844	0,181	240,253	119,850
246,859	0,357	240,092	119,899
247,874	0,165	240,134	119,756
248,888	0,265	239,876	119,696
249,903	0,327	239,617	119,606
250,917	0,228	239,604	119,510
251,932	0,473	239,310	119,548
252,947	0,267	239,310	119,373
253,961	0,093	239,178	119,158
254,976	0,256	238,865	119,121
255,990	0,287	238,710	119,058
257,005	0,337	238,722	119,093
258,020	0,247	238,540	118,920
259,034	0,153	238,382	118,756
260,049	0,175	238,254	118,699
261,063	0,047	237,905	118,413
262,078	0,266	237,818	118,533
263,093	0,290	237,739	118,502
264,107	0,357	237,422	118,386
265,122	0,395	237,297	118,343
266,136	0,162	237,288	118,144
267,151	0,220	237,107	118,089
268,166	0,228	236,988	118,026
269,180	0,286	236,675	117,905
270,195	0,227	236,665	117,843
271,209	0,081	236,436	117,604
272,224	0,297	236,271	117,681
273,239	0,060	236,217	117,457
274,253	0,289	235,909	117,473
275,268	0,234	235,822	117,376
276,282	0,093	235,777	117,233
277,297	0,142	235,417	117,082
278,312	0,341	235,383	117,211
279,326	0,326	235,238	117,116
280,341	0,360	235,133	117,079
281,355	0,268	235,040	116,951
282,370	0,185	234,882	116,798
283,384	0,201	234,562	116,640
284,399	0,122	234,442	116,508
285,414	0,008	234,402	116,390
286,428	0,337	234,137	116,504
287,443	0,306	234,038	116,420
288,457	0,425	233,910	116,438
289,472	0,142	233,821	116,164
290,487	0,123	233,618	116,038
291,501	0,388	233,419	116,134
292,516	0,259	233,341	115,985
293,530	0,312	233,123	115,907
294,545	0,243	233,145	115,854
295,560	0,228	232,926	115,723
296,574	0,486	232,835	115,868
297,589	0,153	232,594	115,481
298,603	0,501	232,338	115,611
299,618	0,361	232,223	115,436
300,633	0,444	232,153	115,454
301,647	0,559	231,977	115,445
302,662	0,469	231,906	115,330
303,676	0,446	231,712	115,206
304,691	0,316	231,660	115,070
305,706	0,331	231,448	114,966
306,720	0,378	231,409	114,972
307,735	0,535	231,292	115,024
308,749	0,552	230,897	114,831
309,764	0,382	230,897	114,690
310,779	0,552	230,723	114,724
311,793	0,552	230,422	114,564
312,808	0,370	230,407	114,407
313,822	0,564	230,114	114,399
314,837	0,582	230,019	114,356
315,852	0,522	229,973	114,277
316,866	0,599	229,798	114,238
317,881	0,674	229,676	114,225
318,895	0,676	229,360	114,058
319,910	0,497	229,269	113,867
320,925	0,543	229,135	113,826
321,939	0,355	228,987	113,599
322,954	0,524	229,026	113,737
323,968	0,296	228,876	113,479
324,983	0,681	228,752	113,699
325,997	0,846	228,356	113,617
327,012	0,576	228,210	113,330
328,027	0,520	228,144	113,245
329,041	0,387	228,171	113,148
330,056	0,557	227,961	113,162
331,070	0,556	227,756	113,049
332,085	0,677	227,475	112,991
333,100	0,623	227,571	112,988
334,114	0,469	227,285	112,720
335,129	0,566	227,107	112,694
336,143	0,669	226,962	112,690
337,158	0,782	226,939	112,753
338,173	0,773	226,721	112,628
339,187	0,921	226,657	112,697
340,202	0,682	226,513	112,436
341,216	0,558	226,338	112,247
342,231	0,643	226,109	112,186
343,246	0,822	226,059	112,286
344,260	0,767	226,009	112,210
345,275	1,037	225,766	112,280
346,289	0,753	225,612	111,982
347,304	0,348	225,569	111,649
348,319	0,592	225,364	111,720
349,333	0,802	225,166	111,767
350,348	0,549	225,165	111,568
351,362	0,636	224,900	111,492
352,377	0,701	224,828	111,494
353,392	0,794	224,553	111,418
354,406	0,794	224,519	111,391
355,421	191,617	1311,191	1374,513
356,435	153,440	1443,433	1374,343
