DTS Sentinel unit serial number:	SN410029Multiplexer serial number:	ORYXHardware model number:	OX2-SRSoftware version number:	ORYX F/W v4,00 Oryx Data Collector v3.7.2.0data status	okinstallation	B5 Nyhavnadifferential loss correction	single-endedforward channel	channel 2reverse channel	N/Adate	2023/12/13time	03:22:13forward acquisition time	300,00reverse acquisition time	0,00gamma	499,1914k internal	0,3160k external	0,3160temperature offset calibration	1,0000default loss term (dB/km)	0,3820temperature slope calibration	1,0000multiplexer offset coefficient	1,0000multiplexer slope coefficient	1,0000fibre end	0,00T internal ref (°C)	13,94T ext. ref 1 (°C)	-2,47T ext. ref 2 (°C)	-2,80length (m)	temperature (°C)	Stokes	anti-Stokes-744,400	-32,902	0,186	0,076
-743,385	-93,544	-0,311	-0,063
-742,371	-130,322	0,203	0,020
-741,356	-116,609	-0,282	0,038
-740,342	800,000	0,044	0,112
-739,327	-111,641	-0,302	-0,045
-738,312	20,552	0,131	-0,078
-737,298	-86,286	-0,316	-0,071
-736,283	11,023	0,119	0,067
-735,269	-29,975	-0,326	0,136
-734,254	800,000	0,095	0,198
-733,239	-2,301	-0,387	-0,199
-732,225	502,057	0,121	0,207
-731,210	-200,000	-0,028	0,129
-730,196	-200,000	0,021	-0,081
-729,181	531,461	0,034	-0,060
-728,167	680,858	-0,081	-0,157
-727,152	800,000	0,014	0,042
-726,137	800,000	-0,051	0,113
-725,123	658,335	-0,058	-0,111
-724,108	-200,000	0,003	0,077
-723,094	15,857	-0,046	-0,027
-722,079	800,000	0,019	0,056
-721,064	207,287	-0,047	-0,054
-720,050	46,455	-0,004	0,003
-719,035	110,989	0,046	0,041
-718,021	177,402	-0,011	0,012
-717,006	41,373	-0,078	-0,052
-715,991	153,522	-0,165	-0,166
-714,977	-200,000	-0,038	-0,145
-713,962	-40,247	0,105	-0,040
-712,948	-63,011	-0,078	-0,024
-711,933	800,000	0,054	0,117
-710,918	426,411	0,057	0,091
-709,904	110,475	0,111	-0,098
-708,889	10,267	-0,136	-0,076
-707,875	-200,000	0,019	-0,079
-706,860	526,951	0,070	-0,123
-705,845	800,000	0,034	-0,109
-704,831	-112,499	0,135	-0,020
-703,816	-200,000	0,012	-0,087
-702,802	-157,520	0,025	-0,001
-701,787	-92,283	-0,096	0,020
-700,772	185,681	-0,066	0,072
-699,758	198,823	0,024	-0,027
-698,743	-145,062	0,056	-0,004
-697,729	-3,551	0,088	0,045
-696,714	6,073	-0,037	-0,020
-695,699	-23,741	0,023	0,010
-694,685	800,000	-0,001	-0,001
-693,670	800,000	-0,071	-0,155
-692,656	-200,000	-0,009	-0,220
-691,641	211,808	0,035	0,041
-690,627	-200,000	-0,028	0,124
-689,612	-200,000	0,022	0,083
-688,597	15,271	0,035	-0,020
-687,583	-44,198	-0,141	0,052
-686,568	-37,786	-0,051	0,020
-685,554	-82,832	-0,108	0,025
-684,539	44,237	0,059	-0,040
-683,524	-200,000	0,001	0,142
-682,510	800,000	-0,061	0,143
-681,495	475,667	-0,056	0,093
-680,481	-200,000	-0,016	-0,140
-679,466	-80,823	0,053	-0,013
-678,451	800,000	-0,031	-0,090
-677,437	-18,070	0,026	-0,012
-676,422	5,826	-0,096	-0,052
-675,408	217,903	-0,023	0,027
-674,393	-73,127	0,102	0,027
-673,378	248,317	-0,046	-0,057
-672,364	279,778	-0,046	-0,061
-671,349	138,465	-0,059	0,057
-670,335	44,206	0,048	0,032
-669,320	-200,000	-0,037	0,150
-668,305	339,149	-0,113	-0,162
-667,291	-200,000	0,002	-0,078
-666,276	135,367	0,129	0,123
-665,262	-115,268	-0,215	0,030
-664,247	-25,185	-0,133	-0,057
-663,232	-174,648	0,089	-0,002
-662,218	59,974	0,040	0,029
-661,203	-161,461	0,100	0,004
-660,189	-138,867	-0,113	-0,009
-659,174	-69,985	-0,126	0,035
-658,159	-16,947	0,076	-0,035
-657,145	-138,112	-0,047	0,004
-656,130	-114,119	0,101	0,014
-655,116	-52,336	0,078	0,026
-654,101	-37,859	-0,104	-0,040
-653,086	6,241	-0,105	0,057
-652,072	-102,746	0,135	-0,023
-651,057	54,045	-0,042	0,030
-650,043	26,747	0,071	0,044
-649,028	759,365	0,030	-0,059
-648,014	758,983	0,074	-0,149
-646,999	10,446	-0,069	0,038
-645,984	3,737	0,117	0,063
-644,970	40,303	-0,112	0,074
-643,955	-190,322	-0,109	0,001
-642,941	-200,000	-0,001	-0,153
-641,926	166,329	0,036	-0,037
-640,911	-79,519	0,045	-0,011
-639,897	-154,110	-0,069	-0,003
-638,882	619,590	0,020	0,036
-637,868	-113,437	-0,119	-0,017
-636,853	-181,040	0,025	0,000
-635,838	-170,272	-0,042	0,001
-634,824	-121,997	0,080	-0,010
-633,809	-200,000	-0,010	-0,060
-632,795	280,744	0,048	-0,063
-631,780	505,564	-0,029	0,049
-630,765	61,075	0,052	0,038
-629,751	800,000	0,020	-0,043
-628,736	-200,000	-0,000	0,018
-627,722	484,052	-0,071	0,120
-626,707	-45,146	-0,149	-0,054
-625,692	-90,206	0,018	0,004
-624,678	-200,000	0,018	0,078
-623,663	-200,000	-0,011	0,064
-622,649	50,660	-0,026	0,018
-621,634	-200,000	0,002	-0,038
-620,619	780,252	0,066	-0,133
-619,605	81,670	-0,055	0,044
-618,590	202,423	0,042	-0,048
-617,576	9,871	-0,085	0,047
-616,561	-200,000	0,043	-0,153
-615,546	-66,782	0,029	-0,008
-614,532	-200,000	-0,012	-0,133
-613,517	351,151	-0,035	-0,050
-612,503	211,186	0,021	0,025
-611,488	800,000	-0,036	-0,097
-610,474	-200,000	0,023	0,161
-609,459	255,717	-0,043	0,054
-608,444	8,616	-0,103	0,057
-607,430	800,000	-0,064	-0,178
-606,415	114,081	-0,062	0,055
-605,401	54,985	-0,068	-0,048
-604,386	131,469	0,058	0,055
-603,371	8,503	0,107	0,059
-602,357	53,149	-0,038	0,027
-601,342	226,070	-0,115	-0,136
-600,328	-64,016	-0,105	0,031
-599,313	61,439	-0,085	-0,062
-598,298	800,000	0,058	0,120
-597,284	800,000	0,032	-0,067
-596,269	150,850	-0,055	-0,055
-595,255	-200,000	-0,003	-0,094
-594,240	316,445	0,034	-0,047
-593,225	90,501	0,093	-0,076
-592,211	-95,510	-0,127	0,025
-591,196	161,128	0,049	0,051
-590,182	-19,564	-0,062	0,028
-589,167	-114,702	0,162	-0,022
-588,152	165,626	0,080	-0,083
-587,138	-114,375	-0,188	0,026
-586,123	-94,438	-0,061	-0,012
-585,109	195,684	-0,059	-0,066
-584,094	-200,000	0,019	-0,091
-583,079	79,244	0,056	-0,044
-582,065	-24,136	0,044	-0,019
-581,050	-200,000	0,016	0,134
-580,036	-20,927	-0,109	0,049
-579,021	-53,425	0,042	0,014
-578,006	86,979	-0,123	-0,100
-576,992	-200,000	-0,018	0,108
-575,977	143,190	-0,028	-0,028
-574,963	-200,000	-0,008	0,048
-573,948	270,890	-0,069	-0,089
-572,934	-93,143	0,185	-0,037
-571,919	53,920	-0,029	0,020
-570,904	-48,154	-0,064	-0,022
-569,890	67,804	0,140	-0,105
-568,875	-49,263	-0,056	-0,019
-567,861	-129,977	-0,020	-0,002
-566,846	9,624	-0,099	0,055
-565,831	-200,000	0,012	-0,049
-564,817	-200,000	-0,018	-0,121
-563,802	22,307	-0,024	0,014
-562,788	-200,000	-0,020	-0,070
-561,773	-200,000	0,001	-0,087
-560,758	-162,413	-0,100	-0,004
-559,744	-200,000	-0,025	0,141
-558,729	-200,000	0,001	0,047
-557,715	-116,528	-0,032	0,004
-556,700	-200,000	-0,013	-0,076
-555,685	-200,000	-0,037	-0,127
-554,671	674,798	-0,038	0,073
-553,656	178,280	-0,055	0,058
-552,642	800,000	0,006	-0,017
-551,627	38,751	0,086	-0,056
-550,612	-200,000	-0,001	-0,046
-549,598	276,595	-0,052	0,068
-548,583	186,712	-0,051	0,055
-547,569	290,344	0,041	0,055
-546,554	800,000	0,093	0,225
-545,539	49,722	-0,012	-0,009
-544,525	-9,275	0,061	0,030
-543,510	144,833	-0,081	-0,080
-542,496	79,311	-0,035	0,027
-541,481	122,188	-0,102	-0,093
-540,466	122,598	-0,024	-0,022
-539,452	-15,415	0,154	0,072
-538,437	-200,000	0,011	0,101
-537,423	189,966	0,060	-0,065
-536,408	800,000	-0,084	-0,198
-535,393	131,376	0,100	-0,093
-534,379	442,517	-0,050	-0,080
-533,364	-200,000	-0,020	-0,123
-532,350	800,000	-0,040	-0,082
-531,335	503,695	-0,026	-0,044
-530,321	163,165	0,080	-0,082
-529,306	-41,749	-0,074	-0,028
-528,291	-200,000	-0,026	0,114
-527,277	6,779	0,068	-0,037
-526,262	140,981	-0,063	0,060
-525,248	34,868	0,076	0,048
-524,233	-112,866	0,134	-0,019
-523,218	-200,000	-0,032	0,108
-522,204	-200,000	0,014	0,090
-521,189	14,650	-0,048	0,028
-520,175	255,377	-0,037	0,047
-519,160	98,592	-0,120	-0,101
-518,145	-200,000	-0,014	0,138
-517,131	800,000	-0,036	-0,094
-516,116	58,442	-0,087	0,062
-515,102	4,211	-0,085	-0,045
-514,087	-27,263	0,023	0,010
-513,072	105,148	0,043	0,037
-512,058	208,017	-0,076	-0,087
-511,043	800,000	-0,065	0,143
-510,029	630,319	-0,029	0,054
-509,014	-107,001	-0,029	-0,005
-507,999	378,250	0,032	0,048
-506,985	264,237	-0,036	-0,045
-505,970	384,772	0,013	-0,020
-504,956	597,449	-0,095	0,173
-503,941	169,822	0,045	-0,047
-502,926	-186,802	0,057	0,001
-501,912	-64,181	-0,154	0,046
-500,897	168,078	0,039	-0,040
-499,883	-8,185	-0,117	-0,057
-498,868	-200,000	0,009	-0,134
-497,853	386,080	0,099	-0,149
-496,839	800,000	0,018	-0,058
-495,824	-171,592	0,092	-0,002
-494,810	293,790	0,040	0,054
-493,795	224,882	-0,041	-0,049
-492,781	510,884	-0,049	0,084
-491,766	800,000	0,083	-0,179
-490,751	412,729	0,053	-0,083
-489,737	580,472	-0,004	0,006
-488,722	-200,000	0,045	-0,153
-487,708	279,828	0,059	-0,078
-486,693	-78,415	-0,123	-0,031
-485,678	800,000	-0,023	-0,061
-484,664	362,199	0,029	0,042
-483,649	-121,503	0,071	0,009
-482,635	-121,387	0,080	0,010
-481,620	109,711	-0,044	0,039
-480,605	-200,000	0,009	0,067
-479,591	800,000	0,019	0,050
-478,576	160,764	0,072	0,073
-477,562	-200,000	0,019	-0,073
-476,547	-123,121	0,114	-0,013
-475,532	-192,590	-0,031	0,000
-474,518	349,945	0,039	0,057
-473,503	29,141	0,125	0,077
-472,489	773,796	-0,041	0,082
-471,474	5,796	0,022	0,012
-470,459	239,199	-0,101	-0,123
-469,445	800,000	0,027	-0,056
-468,430	-39,676	-0,116	0,044
-467,416	111,388	0,038	0,033
-466,401	-200,000	-0,001	-0,024
-465,386	-200,000	-0,039	0,127
-464,372	-76,174	-0,070	0,018
-463,357	390,930	0,081	-0,124
-462,343	164,076	-0,112	-0,115
-461,328	53,615	0,159	-0,111
-460,313	300,485	0,058	-0,078
-459,299	-159,291	0,049	-0,002
-458,284	278,259	0,003	-0,004
-457,270	0,326	-0,121	0,063
-456,255	-200,000	0,033	0,145
-455,241	-61,072	-0,108	-0,033
-454,226	-112,340	-0,100	0,014
-453,211	206,414	0,057	0,065
-452,197	-200,000	0,032	0,162
-451,182	800,000	0,029	0,081
-450,168	496,558	0,108	-0,182
-449,153	-57,568	-0,123	-0,039
-448,138	800,000	-0,044	-0,129
-447,124	-200,000	0,008	-0,091
-446,109	291,393	-0,049	0,065
-445,095	210,429	0,049	0,056
-444,080	-10,880	0,026	-0,013
-443,065	-200,000	0,009	0,040
-442,051	575,123	-0,052	0,092
-441,036	345,257	-0,061	-0,087
-440,022	800,000	0,023	0,067
-439,007	39,374	-0,110	-0,072
-437,992	-2,094	0,077	-0,039
-436,978	-9,206	0,055	-0,027
-435,963	-184,662	0,092	-0,001
-434,949	-2,867	-0,119	0,060
-433,934	-63,666	-0,108	-0,032
-432,919	-75,898	-0,070	0,018
-431,905	-200,000	0,036	0,125
-430,890	2,389	0,067	0,035
-429,876	317,366	0,049	-0,067
-428,861	24,712	0,054	0,033
-427,846	-89,592	-0,082	0,017
-426,832	-107,317	0,120	0,019
-425,817	-13,514	-0,093	-0,044
-424,803	800,000	-0,037	0,089
-423,788	10,157	-0,107	-0,059
-422,773	-200,000	0,008	-0,028
-421,759	28,254	-0,046	0,028
-420,744	639,133	0,055	-0,102
-419,730	243,865	-0,006	-0,008
-418,715	-119,019	-0,093	-0,012
-417,701	-91,309	0,122	0,025
-416,686	686,481	-0,049	-0,095
-415,671	18,824	0,040	-0,023
-414,657	-200,000	0,017	0,112
-413,642	79,665	0,147	0,114
-412,628	-200,000	-0,048	-0,166
-411,613	-19,567	-0,056	-0,025
-410,598	-96,442	0,069	0,013
-409,584	-81,067	0,052	0,012
-408,569	281,948	0,128	0,168
-407,555	-200,000	0,002	-0,091
-406,540	-110,836	0,081	-0,012
-405,525	318,232	0,055	-0,076
-404,511	-17,596	-0,107	-0,049
-403,496	-200,000	0,002	-0,108
-402,482	418,495	0,067	0,104
-401,467	-55,658	0,086	0,028
-400,452	-200,000	-0,037	0,141
-399,438	82,361	-0,126	0,099
-398,423	43,048	-0,041	-0,027
-397,409	800,000	-0,034	-0,070
-396,394	-9,089	0,068	-0,033
-395,379	248,503	0,063	-0,078
-394,365	132,848	0,045	0,042
-393,350	609,034	-0,004	-0,008
-392,336	45,197	0,054	0,036
-391,321	-200,000	0,000	-0,034
-390,306	83,906	-0,089	-0,071
-389,292	102,770	-0,102	-0,086
-388,277	-1,127	0,086	0,044
-387,263	53,870	-0,154	0,108
-386,248	-200,000	-0,024	0,080
-385,233	-200,000	0,012	0,051
-384,219	-200,000	0,004	-0,018
-383,204	-152,868	0,059	-0,003
-382,190	-37,840	-0,132	-0,051
-381,175	331,320	0,076	-0,107
-380,160	-85,512	0,099	-0,022
-379,146	302,718	0,047	-0,063
-378,131	114,715	0,092	0,082
-377,117	169,341	0,049	-0,051
-376,102	156,771	-0,091	0,091
-375,088	-200,000	-0,025	-0,145
-374,073	-18,669	-0,063	0,029
-373,058	39,117	-0,043	0,028
-372,044	-107,350	-0,053	-0,008
-371,029	394,765	-0,024	-0,036
-370,015	800,000	-0,023	0,051
-369,000	-129,919	-0,100	-0,010
-367,985	800,000	-0,042	-0,100
-366,971	-200,000	-0,009	-0,054
-365,956	-200,000	0,020	-0,086
-364,942	21,967	0,060	-0,035
-363,927	-200,000	0,041	-0,147
-362,912	296,995	-0,068	0,091
-361,898	-200,000	-0,013	0,046
-360,883	-16,347	-0,061	0,028
-359,869	-25,893	-0,093	0,040
-358,854	-107,807	-0,098	-0,015
-357,839	-137,483	0,074	-0,006
-356,825	-140,926	0,082	-0,006
-355,810	-142,876	0,081	-0,006
-354,796	-40,667	-0,118	0,044
-353,781	-79,895	-0,146	-0,035
-352,766	425,055	0,050	0,079
-351,752	-67,995	0,088	0,025
-350,737	217,495	-0,031	0,036
-349,723	15,893	0,064	0,036
-348,708	-140,260	0,060	-0,005
-347,693	337,058	-0,096	-0,135
-346,679	123,491	0,102	-0,093
-345,664	165,857	0,025	0,025
-344,650	800,000	0,032	0,087
-343,635	278,434	0,024	0,031
-342,620	583,997	0,045	-0,081
-341,606	-93,419	0,189	-0,038
-340,591	800,000	-0,010	0,025
-339,577	61,986	-0,095	-0,069
-338,562	800,000	0,012	-0,029
-337,548	272,814	-0,081	-0,104
-336,533	-200,000	0,024	0,157
-335,518	53,649	0,084	0,059
-334,504	176,094	0,023	0,025
-333,489	-98,889	0,086	-0,016
-332,475	10,339	0,119	-0,066
-331,460	-53,970	-0,057	-0,019
-330,445	318,875	-0,120	0,166
-329,431	-200,000	-0,001	0,026
-328,416	800,000	0,035	0,085
-327,402	565,938	0,012	0,021
-326,387	30,959	-0,105	-0,065
-325,372	-133,590	-0,056	-0,005
-324,358	-165,097	0,011	0,000
-323,343	-24,405	-0,124	-0,053
-322,329	800,000	-0,071	0,199
-321,314	-200,000	-0,017	0,101
-320,299	-105,401	0,100	-0,016
-319,285	-200,000	0,018	-0,087
-318,270	-12,375	-0,052	-0,024
-317,256	-33,000	0,113	-0,045
-316,241	-114,026	0,079	-0,011
-315,226	-52,815	0,134	0,044
-314,212	5,167	-0,094	-0,050
-313,197	126,606	-0,066	0,061
-312,183	800,000	-0,010	-0,029
-311,168	-200,000	-0,029	-0,096
-310,153	-200,000	0,017	0,065
-309,139	138,484	-0,017	0,016
-308,124	-56,592	0,110	0,035
-307,110	208,767	0,111	-0,126
-306,095	-6,686	0,111	-0,055
-305,080	-200,000	0,020	-0,099
-304,066	-136,589	0,032	0,003
-303,051	-91,193	-0,065	-0,013
-302,037	800,000	0,019	-0,054
-301,022	800,000	0,027	0,080
-300,008	401,772	0,066	-0,101
-298,993	70,118	-0,132	0,099
-297,978	433,590	0,053	-0,083
-296,964	-200,000	0,031	0,121
-295,949	-135,898	0,078	-0,007
-294,935	385,588	-0,058	-0,088
-293,920	-200,000	0,016	0,142
-292,905	-41,419	0,070	0,026
-291,891	-200,000	0,000	0,124
-290,876	800,000	-0,031	0,083
-289,862	204,535	0,041	-0,046
-288,847	-36,417	-0,152	0,059
-287,832	64,510	-0,059	-0,043
-286,818	-9,455	-0,091	0,044
-285,803	554,857	0,039	-0,069
-284,789	60,301	0,054	0,039
-283,774	45,098	-0,105	-0,070
-282,759	-156,526	-0,118	-0,005
-281,745	-53,446	-0,039	-0,013
-280,730	62,702	-0,052	0,038
-279,716	-66,060	-0,145	-0,042
-278,701	-136,947	0,088	0,007
-277,686	-135,494	0,094	0,008
-276,672	800,000	-0,053	0,131
-275,657	0,604	-0,048	0,025
-274,643	-159,511	0,041	0,002
-273,628	-114,921	0,152	0,021
-272,613	-200,000	-0,006	0,088
-271,599	-80,291	-0,063	0,015
-270,584	-183,676	0,026	0,000
-269,570	800,000	0,035	0,077
-268,555	-154,288	0,070	0,003
-267,540	-148,836	0,046	-0,003
-266,526	-122,055	-0,154	0,018
-265,511	-200,000	-0,005	0,037
-264,497	-200,000	-0,029	0,121
-263,482	-200,000	0,004	0,172
-262,467	-125,111	0,006	0,001
-261,453	-200,000	0,030	-0,110
-260,438	-171,812	-0,057	-0,001
-259,424	419,022	-0,033	-0,052
-258,409	22,067	-0,066	-0,039
-257,395	-57,364	0,178	0,056
-256,380	-200,000	0,005	0,044
-255,365	4,241	0,101	0,053
-254,351	354,939	0,032	0,046
-253,336	-80,886	0,062	-0,015
-252,322	-200,000	-0,001	0,024
-251,307	94,185	-0,094	0,077
-250,292	-44,457	0,058	-0,021
-249,278	113,828	0,080	0,070
-248,263	397,139	-0,041	0,063
-247,249	-29,802	0,083	0,034
-246,234	74,250	-0,080	-0,060
-245,219	-200,000	-0,018	0,095
-244,205	-20,011	0,043	-0,019
-243,190	-200,000	0,009	0,065
-242,176	254,927	-0,073	0,091
-241,161	176,402	0,157	0,164
-240,146	-200,000	-0,011	-0,063
-239,132	-80,582	0,085	0,020
-238,117	-200,000	0,014	0,095
-237,103	-200,000	-0,013	-0,061
-236,088	-140,708	0,115	-0,008
-235,073	155,009	-0,031	-0,030
-234,059	-111,482	0,099	0,014
-233,044	286,321	-0,066	0,086
-232,030	-139,089	-0,133	-0,010
-231,015	-200,000	-0,011	-0,131
-230,000	-67,139	0,068	-0,019
-228,986	-187,049	0,153	-0,001
-227,971	-200,000	0,018	0,143
-226,957	-200,000	0,007	0,053
-225,942	800,000	-0,021	-0,052
-224,927	-33,322	0,110	0,044
-223,913	118,824	0,034	-0,030
-222,898	-81,092	-0,185	-0,044
-221,884	-200,000	0,001	-0,091
-220,869	-200,000	-0,019	0,099
-219,855	29,668	0,124	-0,076
-218,840	460,162	-0,068	0,110
-217,825	-200,000	-0,024	0,113
-216,811	277,914	-0,032	-0,041
-215,796	800,000	-0,039	-0,118
-214,782	97,289	-0,051	0,042
-213,767	15,928	0,048	-0,027
-212,752	800,000	0,035	0,090
-211,738	454,104	0,045	0,072
-210,723	284,826	0,057	0,075
-209,709	11,745	-0,122	-0,068
-208,694	-200,000	-0,002	-0,062
-207,679	-55,450	0,118	-0,038
-206,665	-200,000	-0,000	0,004
-205,650	-200,000	0,001	0,154
-204,636	-47,311	-0,083	-0,029
-203,621	369,614	0,034	-0,049
-202,606	135,767	-0,112	-0,105
-201,592	-35,339	-0,061	0,024
-200,577	69,987	-0,047	0,035
-199,563	800,000	0,044	0,095
-198,548	83,084	-0,030	0,023
-197,533	-200,000	-0,003	0,026
-196,519	-200,000	0,016	0,186
-195,504	160,219	0,038	0,038
-194,490	-200,000	0,008	-0,107
-193,475	-43,214	-0,039	0,014
-192,460	320,666	0,078	0,107
-191,446	-22,687	0,200	-0,087
-190,431	-130,728	0,079	0,008
-189,417	571,295	0,030	0,052
-188,402	125,324	-0,090	0,082
-187,387	-150,449	0,244	0,013
-186,373	-134,079	0,109	-0,010
-185,358	88,092	-0,056	-0,044
-184,344	-89,190	0,157	-0,033
-183,329	-78,588	-0,055	-0,013
-182,315	57,894	0,076	0,053
-181,300	207,426	0,074	-0,083
-180,285	459,773	0,044	-0,071
-179,271	800,000	0,041	0,098
-178,256	22,063	-0,099	0,058
-177,242	-200,000	0,008	-0,070
-176,227	-72,113	0,065	0,017
-175,212	56,762	0,171	0,120
-174,198	167,533	-0,079	-0,081
-173,183	316,330	0,146	-0,199
-172,169	-123,054	0,026	-0,003
-171,154	-128,944	0,053	0,005
-170,139	-200,000	0,028	0,168
-169,125	29,304	-0,027	0,017
-168,110	-74,406	0,085	0,022
-167,096	-200,000	0,013	0,045
-166,081	-200,000	-0,067	0,000
-165,066	-200,000	0,003	0,027
-164,052	-57,671	-0,064	-0,020
-163,037	800,000	0,009	0,018
-162,023	334,067	0,070	0,098
-161,008	45,937	0,043	0,028
-159,993	334,524	-0,111	0,155
-158,979	-34,110	-0,061	-0,024
-157,964	-200,000	-0,036	-0,135
-156,950	800,000	0,014	0,036
-155,935	239,645	-0,118	-0,141
-154,920	800,000	-0,030	0,071
-153,906	-200,000	0,005	-0,096
-152,891	161,574	-0,127	-0,128
-151,877	139,674	0,027	-0,026
-150,862	-89,874	-0,035	0,007
-149,847	-131,043	0,073	-0,007
-148,833	-41,976	0,066	0,024
-147,818	501,301	0,024	0,041
-146,804	-200,000	-0,043	-0,173
-145,789	135,537	0,045	0,042
-144,775	-66,248	-0,042	-0,012
-143,760	800,000	0,029	-0,078
-142,745	101,178	0,033	-0,028
-141,731	758,672	0,065	0,127
-140,716	108,776	-0,056	0,048
-139,702	-32,804	0,056	0,022
-138,687	-200,000	-0,012	0,040
-137,672	800,000	0,058	-0,123
-136,658	-120,609	-0,087	-0,010
-135,643	-200,000	0,016	-0,080
-134,629	-137,162	0,059	-0,005
-133,614	73,125	0,065	0,049
-132,599	249,759	0,064	-0,079
-131,585	-200,000	-0,037	0,150
-130,570	-161,021	-0,015	-0,001
-129,556	-96,726	-0,098	-0,018
-128,541	-27,341	-0,056	0,023
-127,526	800,000	0,029	0,064
-126,512	79,500	-0,081	0,063
-125,497	-68,084	0,152	0,042
-124,483	-99,932	0,039	0,007
-123,468	143,966	0,054	0,052
-122,453	-76,614	0,054	0,014
-121,439	-91,748	-0,107	0,022
-120,424	-200,000	-0,031	0,111
-119,410	350,232	0,072	0,102
-118,395	-43,726	0,072	0,026
-117,380	-200,000	0,010	0,085
-116,366	75,844	0,059	0,045
-115,351	-54,580	0,088	-0,029
-114,337	-115,572	-0,064	0,009
-113,322	35,152	-0,046	-0,029
-112,307	388,529	-0,054	0,080
-111,293	628,259	-0,029	-0,053
-110,278	800,000	0,028	-0,084
-109,264	800,000	0,047	0,099
-108,249	800,000	-0,045	-0,108
-107,234	800,000	0,026	-0,054
-106,220	126,602	-0,064	-0,058
-105,205	-200,000	0,000	0,106
-104,191	139,779	-0,064	0,061
-103,176	-200,000	0,009	0,079
-102,162	800,000	-0,011	0,034
-101,147	68,567	-0,056	-0,041
-100,132	89,081	0,057	-0,046
-99,118	800,000	0,074	-0,162
-98,103	-38,699	-0,100	0,038
-97,089	70,454	0,052	0,039
-96,074	800,000	-0,027	0,057
-95,059	-112,412	0,074	0,011
-94,045	269,723	0,017	0,022
-93,030	-200,000	0,001	0,083
-92,016	-200,000	0,004	-0,163
-91,001	800,000	0,018	-0,043
-89,986	18,815	-0,025	0,014
-88,972	425,848	-0,076	-0,118
-87,957	191,504	-0,028	0,030
-86,943	-200,000	0,013	0,140
-85,928	-51,644	0,102	0,034
-84,913	-52,523	0,047	-0,015
-83,899	-200,000	-0,002	0,012
-82,884	-86,766	0,124	-0,027
-81,870	-200,000	0,024	0,097
-80,855	48,091	0,052	-0,035
-79,840	-84,410	-0,109	-0,025
-78,826	800,000	-0,033	-0,074
-77,811	800,000	0,027	-0,056
-76,797	-200,000	0,007	-0,070
-75,782	-200,000	0,003	0,021
-74,767	-108,000	0,131	-0,020
-73,753	800,000	-0,039	0,095
-72,738	-81,134	0,101	-0,024
-71,724	9,146	-0,113	-0,061
-70,709	-75,936	-0,032	-0,008
-69,694	-200,000	-0,001	-0,136
-68,680	-200,000	0,011	0,039
-67,665	-80,841	0,107	0,025
-66,651	-179,533	-0,051	0,001
-65,636	-200,000	0,007	-0,073
-64,622	294,893	0,017	0,022
-63,607	360,866	-0,069	-0,100
-62,592	800,000	-0,021	0,042
-61,578	-200,000	0,014	0,091
-60,563	131,425	-0,074	0,068
-59,549	279,784	0,026	0,034
-58,534	8,168	-2,078	-1,116
-57,519	-200,000	-0,152	-0,702
-56,505	-200,000	-1,328	-5,083
-55,490	69,176	0,870	0,641
-54,476	800,000	5,355	12,075
-53,461	-200,000	18,440	311,287
-52,446	800,000	739,652	2318,625
-51,432	557,069	1656,047	2874,161
-50,417	110,849	1640,493	1415,638
-49,403	74,952	1290,472	973,845
-48,388	30,567	1030,851	630,817
-47,373	19,960	993,455	572,806
-46,359	17,610	980,863	557,795
-45,344	14,312	976,997	544,736
-44,330	14,611	975,561	544,895
-43,315	13,989	973,666	541,776
-42,300	13,985	972,537	541,115
-41,286	14,043	971,500	540,704
-40,271	13,903	970,742	539,804
-39,257	13,961	969,895	539,501
-38,242	13,976	968,975	539,018
-37,227	14,004	968,042	538,569
-36,213	13,948	967,391	538,002
-35,198	13,960	966,151	537,330
-34,184	13,994	965,555	537,088
-33,169	13,952	964,515	536,353
-32,154	14,007	963,623	536,012
-31,140	13,953	962,907	535,418
-30,125	13,974	962,327	535,143
-29,111	13,957	961,252	534,469
-28,096	13,947	960,714	534,117
-27,082	14,015	959,949	533,888
-26,067	13,977	959,184	533,320
-25,052	13,982	958,389	532,873
-24,038	13,958	957,749	532,417
-23,023	13,939	957,066	531,957
-22,009	13,980	956,511	531,759
-20,994	14,036	955,781	531,510
-19,979	14,010	955,119	531,038
-18,965	13,905	954,641	530,413
-17,950	13,990	954,031	530,328
-16,936	13,932	953,370	529,754
-15,921	13,925	952,628	529,299
-14,906	13,910	951,850	528,795
-13,892	13,873	951,238	528,317
-12,877	13,866	950,528	527,878
-11,863	13,837	950,010	527,476
-10,848	13,816	949,466	527,088
-9,833	13,954	948,909	527,196
-8,819	13,923	948,278	526,727
-7,804	13,861	947,642	526,154
-6,790	13,863	947,065	525,821
-5,775	13,938	946,582	525,771
-4,760	13,939	945,888	525,366
-3,746	13,870	945,340	524,822
-2,731	13,744	944,809	524,106
-1,717	13,715	944,107	523,603
-0,702	13,682	943,244	523,001
0,313	13,474	942,662	522,807
1,327	16,692	940,348	531,660
2,342	25,656	795,718	473,699
3,356	22,036	460,510	268,563
4,371	-4,781	317,317	156,269
5,386	-8,627	299,097	143,354
6,400	-10,646	292,892	138,344
7,415	-10,847	290,337	136,925
8,429	-11,136	288,861	135,932
9,444	-11,395	288,068	135,291
10,459	-11,018	287,278	135,278
11,473	-11,163	286,910	134,951
12,488	-11,165	286,324	134,661
13,502	-11,261	285,847	134,331
14,517	-11,080	285,205	134,194
15,531	-11,233	284,897	133,888
16,546	-10,992	284,367	133,862
17,561	-11,122	283,971	133,537
18,575	-11,163	283,743	133,378
19,590	-11,207	283,275	133,103
20,604	-11,112	282,959	133,035
21,619	-11,144	282,500	132,776
22,634	-11,145	282,294	132,667
23,648	-11,373	282,109	132,348
24,663	-11,140	281,681	132,360
25,677	-11,115	281,479	132,277
26,692	-11,217	281,328	132,097
27,707	-11,250	280,949	131,875
28,721	-11,227	280,829	131,829
29,736	-11,240	280,450	131,627
30,750	-11,292	280,042	131,374
31,765	-11,084	279,599	131,353
32,780	-11,136	279,667	131,324
33,794	-11,200	279,265	131,062
34,809	-11,292	279,161	130,913
35,823	-11,198	278,785	130,816
36,838	-11,129	278,505	130,738
37,853	-11,323	278,268	130,431
38,867	-11,333	278,147	130,353
39,882	-11,291	277,825	130,230
40,896	-11,277	277,511	130,084
41,911	-11,330	277,203	129,878
42,926	-11,483	277,088	129,669
43,940	-11,329	276,776	129,656
44,955	-11,323	276,731	129,629
45,969	-11,261	276,454	129,546
46,984	-11,414	276,094	129,222
47,999	-11,617	275,689	128,831
49,013	-11,661	275,432	128,657
50,028	-11,890	275,186	128,316
51,042	-12,075	275,137	128,108
52,057	-11,923	274,791	128,078
53,071	-12,164	274,751	127,822
54,086	-11,838	274,368	127,937
55,101	-11,649	274,229	128,038
56,115	-11,441	274,005	128,117
57,130	-11,083	273,925	128,402
58,144	-11,252	273,635	128,096
59,159	-11,057	273,417	128,165
60,174	-11,169	273,176	127,936
61,188	-11,086	273,168	127,998
62,203	-11,209	272,878	127,736
63,217	-11,115	272,528	127,649
64,232	-11,064	272,294	127,575
65,247	-11,166	272,095	127,376
66,261	-11,103	271,757	127,264
67,276	-11,279	271,662	127,046
68,290	-11,364	271,263	126,770
69,305	-11,541	271,123	126,530
70,320	-11,351	270,836	126,559
71,334	-11,214	270,665	126,594
72,349	-11,101	270,494	126,607
73,363	-11,004	270,152	126,525
74,378	-11,023	270,094	126,469
75,393	-11,076	269,754	126,250
76,407	-10,941	269,623	126,302
77,422	-11,084	269,377	126,043
78,436	-10,969	269,224	126,066
79,451	-10,994	268,831	125,848
80,466	-11,125	268,772	125,689
81,480	-11,293	268,527	125,410
82,495	-11,337	268,196	125,205
83,509	-11,049	268,193	125,454
84,524	-11,375	267,881	125,000
85,539	-11,368	267,644	124,885
86,553	-11,416	267,335	124,686
87,568	-11,275	267,186	124,734
88,582	-11,180	266,937	124,692
89,597	-11,280	266,752	124,504
90,611	-11,114	266,714	124,626
91,626	-10,966	266,603	124,696
92,641	-11,214	266,380	124,356
93,655	-11,188	266,067	124,224
94,670	-11,284	265,799	124,001
95,684	-11,078	265,602	124,083
96,699	-11,016	265,415	124,040
97,714	-11,095	265,172	123,845
98,728	-11,344	264,891	123,478
99,743	-11,358	264,694	123,363
100,757	-11,395	264,433	123,197
101,772	-11,324	264,412	123,240
102,787	-11,166	264,044	123,199
103,801	-11,289	264,124	123,116
104,816	-11,162	263,715	123,027
105,830	-11,165	263,781	123,045
106,845	-11,159	263,401	122,861
107,860	-11,009	263,292	122,934
108,874	-11,059	262,994	122,740
109,889	-11,223	262,817	122,499
110,903	-11,190	262,612	122,423
111,918	-11,232	262,387	122,269
112,933	-11,324	262,237	122,107
113,947	-10,974	262,060	122,324
114,962	-11,115	261,807	122,070
115,976	-11,183	261,748	121,971
116,991	-11,252	261,500	121,784
118,006	-11,216	261,403	121,760
119,020	-11,036	261,057	121,747
120,035	-10,952	260,971	121,770
121,049	-11,126	260,701	121,480
122,064	-11,093	260,607	121,454
123,079	-11,265	260,403	121,196
124,093	-11,065	260,073	121,208
125,108	-11,350	259,885	120,859
126,122	-11,597	259,689	120,540
127,137	-11,499	259,447	120,503
128,151	-11,553	259,356	120,403
129,166	-11,594	259,186	120,277
130,181	-11,481	258,829	120,200
131,195	-11,558	258,720	120,070
132,210	-11,319	258,470	120,153
133,224	-11,179	258,217	120,147
134,239	-11,043	258,216	120,255
135,254	-11,120	257,931	120,044
136,268	-11,196	257,803	119,908
137,283	-11,385	257,503	119,593
138,297	-11,533	257,307	119,363
139,312	-11,467	257,052	119,290
140,327	-11,355	257,058	119,380
141,341	-11,002	256,915	119,610
142,356	-10,980	256,531	119,439
143,370	-11,191	256,563	119,260
144,385	-11,154	256,399	119,205
145,400	-10,788	256,075	119,362
146,414	-11,030	255,946	119,081
147,429	-11,166	255,862	118,914
148,443	-11,212	255,730	118,803
149,458	-10,910	255,299	118,852
150,473	-11,066	255,241	118,680
151,487	-11,036	255,028	118,596
152,502	-11,022	254,886	118,532
153,516	-11,138	254,613	118,294
154,531	-10,928	254,583	118,450
155,546	-11,018	254,348	118,253
156,560	-10,920	254,089	118,206
157,575	-11,108	253,849	117,923
158,589	-10,981	253,733	117,967
159,604	-11,182	253,663	117,752
160,619	-11,126	253,371	117,654
161,633	-11,119	253,244	117,591
162,648	-10,710	253,068	117,848
163,662	-10,910	252,887	117,582
164,677	-11,002	252,865	117,482
165,692	-11,018	252,651	117,359
166,706	-11,047	252,434	117,223
167,721	-10,950	252,163	117,170
168,735	-10,897	252,116	117,182
169,750	-11,046	251,939	116,963
170,764	-10,786	251,799	117,109
171,779	-10,843	251,707	117,007
172,794	-10,978	251,464	116,769
173,808	-10,782	251,188	116,796
174,823	-11,420	250,925	116,123
175,837	-11,535	250,615	115,872
176,852	-11,130	250,655	116,223
177,867	-10,972	250,539	116,293
178,881	-11,007	250,513	116,240
179,896	-10,892	250,143	116,155
180,910	-10,822	250,014	116,144
181,925	-10,866	249,782	115,989
182,940	-11,110	249,724	115,746
183,954	-10,974	249,557	115,773
184,969	-10,939	249,313	115,678
185,983	-11,105	249,181	115,468
186,998	-11,066	249,035	115,423
188,013	-10,878	248,765	115,445
189,027	-10,860	248,616	115,381
190,042	-10,929	248,554	115,284
191,056	-10,845	248,268	115,211
192,071	-10,934	248,137	115,066
193,086	-11,019	247,848	114,851
194,100	-10,922	247,745	114,873
195,115	-10,713	247,557	114,950
196,129	-10,793	247,398	114,799
197,144	-10,882	247,233	114,638
198,159	-10,949	246,988	114,459
199,173	-10,759	246,728	114,486
200,188	-10,889	246,571	114,295
201,202	-11,277	246,478	113,920
202,217	-11,358	246,082	113,660
203,232	-11,238	245,908	113,669
204,246	-11,161	245,899	113,718
205,261	-10,565	245,807	114,158
206,275	-11,266	245,346	113,355
207,290	-7,407	247,137	117,377
208,304	0,520	249,623	125,176
209,319	4,145	250,623	128,699
210,334	4,757	250,502	129,136
211,348	4,690	250,443	129,038
212,363	4,986	250,392	129,248
213,377	5,132	250,278	129,299
214,392	4,821	250,229	129,003
215,407	4,854	249,896	128,848
216,421	4,868	249,693	128,742
217,436	5,026	249,665	128,848
218,450	5,026	249,499	128,751
219,465	4,548	249,408	128,295
220,480	4,851	249,019	128,335
221,494	4,509	248,895	127,976
222,509	4,627	248,770	127,998
223,523	4,573	248,601	127,856
224,538	4,170	248,326	127,370
225,553	4,513	248,055	127,502
226,567	4,659	248,045	127,607
227,582	4,607	247,876	127,465
228,596	4,489	247,639	127,235
229,611	4,084	247,490	126,813
230,626	4,178	247,230	126,746
231,640	4,353	247,107	126,816
232,655	4,341	246,969	126,724
233,669	4,356	246,809	126,643
234,684	4,164	246,548	126,340
235,699	4,586	246,575	126,689
236,713	4,808	246,423	126,781
237,728	4,235	246,100	126,135
238,742	4,189	245,819	125,942
239,757	4,114	245,695	125,806
240,772	4,185	245,675	125,842
241,786	4,404	245,558	125,950
242,801	4,119	245,262	125,555
243,815	4,270	245,167	125,618
244,830	4,350	245,156	125,667
245,844	4,210	245,033	125,478
246,859	4,315	244,684	125,373
247,874	4,303	244,493	125,255
248,888	4,465	244,441	125,348
249,903	4,430	244,226	125,198
250,917	4,607	244,109	125,271
251,932	4,635	244,083	125,269
252,947	4,399	243,937	124,992
253,961	4,326	243,708	124,805
254,976	4,555	243,429	124,835
255,990	4,366	243,519	124,717
257,005	4,276	243,134	124,436
258,020	4,177	242,937	124,245
259,034	4,166	242,868	124,189
260,049	4,189	242,794	124,159
261,063	4,025	242,497	123,865
262,078	4,089	242,366	123,838
263,093	4,409	242,274	124,037
264,107	4,561	242,084	124,050
265,122	4,384	241,838	123,771
266,136	4,586	241,807	123,907
267,151	4,619	241,743	123,889
268,166	4,390	241,359	123,498
269,180	4,330	241,080	123,296
270,195	4,702	241,374	123,733
271,209	5,217	241,130	124,009
272,224	4,554	240,797	123,297
273,239	4,046	240,644	122,803
274,253	3,947	240,432	122,605
275,268	4,188	240,473	122,807
276,282	4,487	240,167	122,878
277,297	4,071	240,074	122,488
278,312	4,237	239,753	122,446
279,326	4,221	239,891	122,493
280,341	4,785	239,405	122,681
281,355	4,235	239,494	122,278
282,370	4,351	239,261	122,241
283,384	4,465	239,112	122,244
284,399	4,435	238,808	122,054
285,414	4,101	238,749	121,749
286,428	4,180	238,721	121,786
287,443	4,335	238,594	121,833
288,457	4,373	238,369	121,737
289,472	4,728	238,197	121,918
290,487	4,544	238,073	121,699
291,501	4,288	237,844	121,370
292,516	4,104	237,650	121,115
293,530	3,859	237,477	120,824
294,545	4,270	237,636	121,217
295,560	4,431	237,270	121,146
296,574	4,201	237,021	120,827
297,589	4,054	237,027	120,705
298,603	4,311	236,955	120,859
299,618	4,470	236,741	120,863
300,633	4,550	236,621	120,854
301,647	4,665	236,523	120,883
302,662	4,901	236,551	121,071
303,676	4,841	236,228	120,848
304,691	4,593	236,034	120,545
305,706	4,833	235,875	120,640
306,720	4,666	235,837	120,479
307,735	4,588	235,686	120,330
308,749	4,557	235,467	120,184
309,764	4,264	235,137	119,777
310,779	4,155	234,970	119,597
311,793	3,906	234,818	119,316
312,808	3,941	234,748	119,297
313,822	3,886	234,391	119,062
314,837	4,089	234,365	119,195
315,852	4,085	234,112	119,053
316,866	4,441	234,007	119,264
317,881	4,384	233,957	119,183
318,895	4,395	233,887	119,145
319,910	4,414	233,776	119,094
320,925	4,553	233,532	119,066
321,939	4,360	233,394	118,836
322,954	4,638	233,404	119,045
323,968	4,488	233,149	118,788
324,983	4,387	232,986	118,618
325,997	4,630	233,114	118,859
327,012	4,592	232,836	118,677
328,027	4,245	232,636	118,299
329,041	4,835	232,466	118,654
330,056	5,042	232,566	118,853
331,070	5,221	232,360	118,874
332,085	4,778	232,032	118,356
333,100	4,487	231,853	118,032
334,114	4,535	231,747	118,005
335,129	4,830	231,597	118,143
336,143	4,855	231,391	118,047
337,158	4,896	231,439	118,092
338,173	4,743	230,980	117,730
339,187	4,276	230,970	117,359
340,202	4,423	230,920	117,436
341,216	4,497	230,596	117,317
342,231	4,419	230,583	117,240
343,246	4,475	230,440	117,200
344,260	4,410	230,225	117,030
345,275	4,650	230,323	117,252
346,289	4,710	229,995	117,120
347,304	4,689	229,846	117,018
348,319	4,634	229,774	116,929
349,333	4,372	229,555	116,609
350,348	4,337	229,331	116,458
351,362	4,223	229,306	116,349
352,377	4,298	229,043	116,262
353,392	4,069	228,804	115,957
354,406	4,313	228,670	116,063
355,421	196,713	1316,455	1395,731
356,435	157,838	1448,949	1395,696
