DTS Sentinel unit serial number:	SN410029Multiplexer serial number:	ORYXHardware model number:	OX2-SRSoftware version number:	ORYX F/W v4,00 Oryx Data Collector v3.7.2.0data status	okinstallation	B5 Nyhavnadifferential loss correction	single-endedforward channel	channel 2reverse channel	N/Adate	2023/12/11time	16:02:13forward acquisition time	300,00reverse acquisition time	0,00gamma	499,1914k internal	0,3166k external	0,3166temperature offset calibration	1,0000default loss term (dB/km)	0,3820temperature slope calibration	1,0000multiplexer offset coefficient	1,0000multiplexer slope coefficient	1,0000fibre end	0,00T internal ref (°C)	13,71T ext. ref 1 (°C)	-1,30T ext. ref 2 (°C)	-1,37length (m)	temperature (°C)	Stokes	anti-Stokes-744,400	159,413	0,099	-0,101
-743,385	-162,704	-0,364	-0,013
-742,371	-108,771	0,199	-0,031
-741,356	-84,269	-0,306	0,071
-740,342	126,466	0,169	0,157
-739,327	-86,900	-0,206	-0,046
-738,312	-81,741	0,165	0,039
-737,298	-199,354	-0,400	0,001
-736,283	72,081	-0,014	-0,011
-735,269	-73,514	-0,498	-0,133
-734,254	62,179	0,088	0,064
-733,239	-36,923	-0,385	-0,151
-732,225	415,656	-0,015	-0,023
-731,210	294,375	-0,022	-0,030
-730,196	800,000	0,021	-0,045
-729,181	-200,000	0,022	0,105
-728,167	-66,545	0,063	0,018
-727,152	203,993	-0,094	-0,107
-726,137	-153,806	-0,118	0,006
-725,123	-200,000	-0,002	0,052
-724,108	-200,000	-0,020	-0,122
-723,094	-31,369	-0,078	0,032
-722,079	-84,757	-0,090	0,021
-721,064	246,687	-0,066	-0,081
-720,050	497,587	0,062	0,106
-719,035	36,625	-0,135	0,087
-718,021	-200,000	0,004	-0,053
-717,006	-51,217	-0,140	-0,048
-715,991	800,000	-0,051	-0,134
-714,977	-200,000	-0,007	-0,153
-713,962	800,000	0,026	0,053
-712,948	-92,258	-0,077	0,016
-711,933	800,000	-0,044	-0,130
-710,918	-77,643	-0,094	0,024
-709,904	-3,061	-0,019	-0,010
-708,889	96,902	-0,042	0,035
-707,875	-147,976	-0,142	-0,009
-706,860	-20,840	0,076	0,034
-705,845	-200,000	0,006	0,025
-704,831	74,397	0,034	-0,026
-703,816	177,429	-0,059	-0,064
-702,802	-200,000	0,009	0,096
-701,787	31,570	-0,047	-0,030
-700,772	625,460	0,050	-0,092
-699,758	-54,296	-0,140	-0,047
-698,743	800,000	0,064	0,168
-697,729	-62,320	0,082	-0,025
-696,714	13,347	-0,071	0,040
-695,699	196,913	-0,053	-0,059
-694,685	-200,000	-0,021	-0,073
-693,670	27,098	-0,158	-0,097
-692,656	-200,000	-0,020	-0,152
-691,641	-24,356	0,070	0,030
-690,627	-76,729	0,092	-0,024
-689,612	118,484	-0,062	-0,056
-688,597	-62,093	-0,108	-0,033
-687,583	-32,170	-0,125	-0,051
-686,568	766,786	-0,014	-0,028
-685,554	-111,758	-0,168	-0,025
-684,539	-32,304	-0,117	0,048
-683,524	-200,000	0,008	0,096
-682,510	-200,000	0,025	0,135
-681,495	-117,563	-0,109	-0,014
-680,481	28,017	-0,034	0,021
-679,466	-61,486	0,137	-0,042
-678,451	87,525	-0,100	-0,081
-677,437	-50,922	-0,046	-0,016
-676,422	30,433	0,088	0,055
-675,408	192,080	0,104	-0,115
-674,393	-200,000	-0,029	-0,123
-673,378	20,584	-0,038	-0,023
-672,364	-138,083	0,050	0,004
-671,349	-200,000	0,036	-0,267
-670,335	255,819	0,090	-0,114
-669,320	-194,110	-0,129	0,001
-668,305	-200,000	0,021	0,074
-667,291	256,859	-0,065	0,082
-666,276	-170,181	0,056	-0,001
-665,262	-200,000	0,016	-0,096
-664,247	-119,078	-0,097	0,012
-663,232	-120,099	-0,057	0,007
-662,218	800,000	-0,022	0,063
-661,203	-200,000	-0,006	-0,077
-660,189	800,000	-0,089	-0,208
-659,174	91,782	-0,081	-0,067
-658,159	722,990	0,059	0,116
-657,145	286,945	0,046	-0,060
-656,130	-112,098	-0,077	0,011
-655,116	133,124	0,039	0,036
-654,101	-200,000	0,021	-0,077
-653,086	800,000	-0,015	0,043
-652,072	-10,962	-0,051	-0,025
-651,057	-80,857	0,025	-0,006
-650,043	3,467	-0,129	-0,068
-649,028	-131,724	-0,094	-0,009
-648,014	-102,246	0,072	0,013
-646,999	112,642	-0,041	0,036
-645,984	-200,000	0,011	0,064
-644,970	-65,290	-0,220	-0,065
-643,955	-68,012	-0,075	0,021
-642,941	-19,425	-0,190	0,086
-641,926	118,490	0,127	0,115
-640,911	-200,000	-0,012	0,057
-639,897	-81,224	-0,083	0,020
-638,882	-200,000	-0,019	-0,100
-637,868	-200,000	-0,015	-0,080
-636,853	359,799	0,040	-0,059
-635,838	800,000	-0,034	-0,091
-634,824	-200,000	0,022	-0,087
-633,809	71,743	0,032	-0,024
-632,795	800,000	0,012	0,033
-631,780	-200,000	-0,007	-0,034
-630,765	173,396	0,055	-0,058
-629,751	-200,000	-0,035	-0,138
-628,736	-117,125	-0,043	0,006
-627,722	222,649	-0,025	-0,029
-626,707	87,273	0,034	-0,027
-625,692	300,523	-0,080	0,108
-624,678	800,000	-0,026	-0,064
-623,663	203,392	0,042	0,048
-622,649	61,092	-0,113	-0,082
-621,634	93,484	0,109	0,090
-620,619	113,862	0,040	-0,036
-619,605	-200,000	-0,033	0,113
-618,590	457,593	-0,078	0,127
-617,576	800,000	0,086	0,184
-616,561	504,289	-0,053	0,091
-615,546	570,792	0,090	-0,162
-614,532	698,648	0,046	-0,090
-613,517	174,533	0,033	0,035
-612,503	-200,000	-0,003	-0,050
-611,488	-200,000	0,050	0,253
-610,474	-200,000	0,002	0,159
-609,459	-200,000	0,004	0,113
-608,444	-111,462	0,052	0,008
-607,430	777,815	-0,020	-0,040
-606,415	140,971	-0,093	-0,090
-605,401	-118,425	-0,062	-0,008
-604,386	-200,000	-0,012	-0,080
-603,371	-187,024	0,067	-0,001
-602,357	-142,096	-0,100	0,007
-601,342	188,657	-0,045	-0,049
-600,328	-200,000	-0,009	-0,033
-599,313	-200,000	-0,001	-0,120
-598,298	-200,000	0,008	0,090
-597,284	-200,000	0,020	0,081
-596,269	-123,592	0,105	0,012
-595,255	-194,552	0,213	-0,001
-594,240	520,370	-0,063	-0,108
-593,225	-200,000	0,005	-0,054
-592,211	-15,564	0,106	0,049
-591,196	-200,000	-0,001	-0,060
-590,182	-133,740	-0,088	0,008
-589,167	387,249	0,054	0,081
-588,152	-8,841	-0,092	-0,045
-587,138	-117,009	-0,050	-0,007
-586,123	36,317	-0,130	-0,084
-585,109	40,684	0,048	-0,032
-584,094	-200,000	-0,005	0,097
-583,079	800,000	-0,037	0,105
-582,065	62,753	0,106	0,078
-581,050	-155,133	-0,138	-0,006
-580,036	-200,000	-0,025	0,095
-579,021	800,000	-0,053	-0,145
-578,006	800,000	0,019	0,051
-576,992	125,864	0,020	0,018
-575,977	-127,927	-0,093	-0,010
-574,963	-119,829	0,035	0,004
-573,948	0,600	-0,046	-0,024
-572,934	800,000	-0,016	-0,049
-571,919	52,193	-0,046	-0,032
-570,904	-186,587	-0,063	0,001
-569,890	-95,265	-0,072	0,014
-568,875	448,982	0,062	-0,100
-567,861	-200,000	0,017	0,122
-566,846	11,961	0,095	0,053
-565,831	-200,000	-0,054	0,187
-564,817	-117,308	0,061	-0,008
-563,802	26,650	0,072	0,044
-562,788	335,524	-0,006	0,009
-561,773	-156,964	-0,091	0,004
-560,758	163,370	0,040	0,041
-559,744	-102,652	0,040	-0,007
-558,729	289,294	0,089	0,117
-557,715	-85,866	-0,052	0,012
-556,700	-200,000	0,019	-0,150
-555,685	73,599	-0,055	-0,042
-554,671	68,984	0,098	0,074
-553,656	83,814	0,020	0,016
-552,642	259,779	0,045	0,057
-551,627	-89,109	0,211	-0,045
-550,612	-106,363	-0,205	0,033
-549,598	498,256	-0,026	0,043
-548,583	361,713	0,148	-0,217
-547,569	87,886	0,069	-0,056
-546,554	176,529	0,128	0,136
-545,539	800,000	-0,054	0,112
-544,525	64,042	-0,053	0,039
-543,510	224,632	0,005	-0,006
-542,496	-36,843	0,029	0,011
-541,481	165,820	-0,120	-0,124
-540,466	-23,701	-0,023	-0,010
-539,452	-128,101	0,248	-0,026
-538,437	-200,000	0,014	-0,056
-537,423	195,118	-0,018	0,020
-536,408	-200,000	-0,004	-0,039
-535,393	107,377	-0,044	-0,038
-534,379	-39,893	-0,074	0,028
-533,364	-200,000	-0,029	-0,183
-532,350	68,537	0,064	-0,048
-531,335	800,000	0,058	-0,132
-530,321	130,574	0,098	0,092
-529,306	440,310	0,055	0,088
-528,291	128,240	0,015	0,014
-527,277	-88,232	-0,105	0,023
-526,262	-104,070	-0,050	0,008
-525,248	153,738	-0,072	-0,072
-524,233	-173,933	0,159	0,003
-523,218	-200,000	-0,020	-0,072
-522,204	-137,793	-0,090	0,007
-521,189	54,570	-0,028	0,019
-520,175	68,839	-0,040	-0,030
-519,160	-150,531	-0,138	0,008
-518,145	-200,000	0,040	0,218
-517,131	800,000	0,047	0,097
-516,116	88,801	-0,057	0,046
-515,102	125,859	-0,136	-0,125
-514,087	-69,079	0,130	-0,036
-513,072	-200,000	0,033	-0,178
-512,058	16,715	-0,078	-0,045
-511,043	-13,298	0,107	0,050
-510,029	159,489	-0,062	0,063
-509,014	-56,845	-0,131	-0,042
-507,999	800,000	0,024	0,051
-506,985	54,835	0,033	0,023
-505,970	-12,503	0,050	0,024
-504,956	-28,643	-0,064	0,027
-503,941	686,294	-0,059	-0,113
-502,926	53,593	-0,049	-0,034
-501,912	26,194	0,081	0,049
-500,897	-91,996	0,053	-0,011
-499,883	-77,903	-0,136	-0,034
-498,868	318,708	0,068	-0,094
-497,853	550,583	0,093	-0,164
-496,839	-200,000	-0,022	0,077
-495,824	-200,000	-0,019	0,064
-494,810	-41,749	0,175	0,065
-493,795	393,469	-0,067	-0,101
-492,781	-67,340	0,067	-0,019
-491,766	243,436	-0,054	0,067
-490,751	27,496	0,045	-0,028
-489,737	-53,382	0,067	0,022
-488,722	-61,106	0,096	0,029
-487,708	-73,999	-0,056	-0,015
-486,693	-200,000	0,003	0,117
-485,678	160,498	-0,062	0,063
-484,664	101,529	0,140	-0,119
-483,649	246,768	-0,057	-0,070
-482,635	503,735	0,019	-0,032
-481,620	-28,090	0,104	-0,044
-480,605	-22,450	0,080	-0,035
-479,591	-79,784	-0,152	-0,037
-478,576	-200,000	-0,002	-0,049
-477,562	390,846	-0,062	-0,094
-476,547	-25,206	-0,185	-0,079
-475,532	668,206	0,022	-0,042
-474,518	-110,717	0,149	0,022
-473,503	-200,000	0,013	0,087
-472,489	-200,000	-0,012	0,134
-471,474	-200,000	-0,033	-0,155
-470,459	72,154	0,060	-0,045
-469,445	135,480	0,055	0,052
-468,430	-200,000	0,016	-0,136
-467,416	184,213	0,044	0,048
-466,401	-200,000	0,009	0,144
-465,386	466,527	0,097	0,159
-464,372	800,000	-0,019	-0,051
-463,357	440,509	-0,032	-0,052
-462,343	-159,111	-0,099	-0,004
-461,328	-200,000	0,006	0,049
-460,313	335,444	-0,042	0,060
-459,299	-200,000	0,014	-0,052
-458,284	-200,000	-0,007	0,061
-457,270	79,682	0,039	0,030
-456,255	562,952	0,065	0,115
-455,241	3,666	-0,101	-0,053
-454,226	-200,000	-0,010	0,035
-453,211	-139,285	0,078	0,006
-452,197	800,000	-0,023	0,055
-451,182	800,000	0,023	0,070
-450,168	115,211	0,033	0,029
-449,153	-200,000	-0,007	0,055
-448,138	113,097	0,010	0,009
-447,124	-20,045	-0,161	0,072
-446,109	57,564	0,059	-0,042
-445,095	-200,000	-0,007	0,084
-444,080	516,414	0,043	0,074
-443,065	3,365	0,094	0,049
-442,051	135,612	-0,064	-0,061
-441,036	-79,388	0,046	0,011
-440,022	214,001	0,088	0,101
-439,007	99,987	-0,129	0,108
-437,992	175,896	-0,043	0,045
-436,978	-103,606	0,077	0,013
-435,963	369,745	0,049	0,072
-434,949	-1,089	-0,062	-0,032
-433,934	245,349	-0,036	0,044
-432,919	-200,000	0,002	-0,012
-431,905	7,811	0,017	-0,009
-430,890	-200,000	0,019	0,163
-429,876	-102,481	0,026	-0,005
-428,861	-50,238	-0,088	0,030
-427,846	-34,564	0,092	-0,036
-426,832	800,000	0,064	-0,184
-425,817	-42,716	-0,141	0,052
-424,803	-54,663	-0,031	-0,010
-423,788	-88,342	-0,117	0,025
-422,773	-41,191	0,055	-0,021
-421,759	-200,000	-0,025	0,143
-420,744	-109,777	-0,074	0,011
-419,730	52,794	0,090	-0,062
-418,715	485,351	0,089	0,148
-417,701	800,000	-0,015	-0,032
-416,686	-3,944	-0,042	0,021
-415,671	-4,383	0,155	-0,078
-414,657	-156,381	0,048	0,002
-413,642	166,451	-0,054	-0,056
-412,628	-200,000	0,036	0,117
-411,613	32,936	0,075	0,047
-410,598	-16,575	-0,068	-0,031
-409,584	717,103	-0,015	0,030
-408,569	-70,438	0,090	0,024
-407,555	221,468	-0,044	0,051
-406,540	561,183	-0,087	-0,154
-405,525	369,431	-0,080	-0,118
-404,511	-12,932	0,004	0,002
-403,496	65,438	0,077	0,056
-402,482	593,775	0,028	-0,051
-401,467	-200,000	0,021	0,091
-400,452	-87,378	0,080	-0,017
-399,438	190,766	0,038	0,041
-398,423	800,000	0,073	0,151
-397,409	-200,000	-0,003	-0,032
-396,394	-170,748	0,084	-0,002
-395,379	186,754	0,069	-0,074
-394,365	207,577	-0,030	-0,034
-393,350	-114,792	0,125	0,017
-392,336	-85,380	-0,065	-0,015
-391,321	-182,182	-0,090	-0,001
-390,306	133,182	-0,113	0,106
-389,292	592,484	-0,037	0,067
-388,277	-16,743	-0,075	-0,034
-387,263	-110,633	0,198	0,029
-386,248	-200,000	-0,026	0,084
-385,233	-91,105	0,083	0,017
-384,219	-136,657	0,065	0,005
-383,204	800,000	-0,005	0,012
-382,190	404,349	-0,035	0,054
-381,175	8,098	0,012	0,006
-380,160	84,687	0,093	0,074
-379,146	37,605	0,107	-0,069
-378,131	394,699	-0,019	-0,028
-377,117	-18,840	-0,025	-0,011
-376,102	294,917	0,112	-0,148
-375,088	-64,240	0,067	0,020
-374,073	-1,260	-0,133	0,068
-373,058	98,585	0,060	0,050
-372,044	128,969	-0,022	-0,020
-371,029	102,920	0,120	-0,102
-370,015	191,349	-0,053	0,058
-369,000	261,386	-0,055	-0,069
-367,985	800,000	0,082	-0,174
-366,971	-44,405	-0,078	0,028
-365,956	613,580	-0,074	-0,135
-364,942	800,000	0,035	0,081
-363,927	-86,227	-0,039	0,009
-362,912	137,686	-0,066	0,063
-361,898	800,000	0,018	0,047
-360,883	187,196	-0,066	0,071
-359,869	-30,270	0,047	-0,019
-358,854	-116,214	-0,056	-0,007
-357,839	-50,634	0,095	0,032
-356,825	129,565	0,099	0,092
-355,810	294,013	-0,059	0,078
-354,796	-104,086	0,067	-0,011
-353,781	800,000	0,023	-0,058
-352,766	481,177	-0,052	-0,087
-351,752	66,719	0,062	0,045
-350,737	16,299	-0,188	0,107
-349,723	-45,696	-0,052	-0,019
-348,708	69,959	-0,038	0,029
-347,693	-200,000	0,007	0,077
-346,679	56,630	0,067	0,047
-345,664	-200,000	0,019	-0,118
-344,650	800,000	-0,032	-0,081
-343,635	66,264	0,043	-0,032
-342,620	-200,000	0,011	0,040
-341,606	-47,441	-0,129	-0,045
-340,591	96,353	-0,080	-0,066
-339,577	5,965	-0,044	-0,023
-338,562	-5,068	-0,033	-0,016
-337,548	-78,298	0,065	0,016
-336,533	49,085	0,030	-0,020
-335,518	-53,085	-0,131	0,043
-334,504	-151,867	-0,021	0,001
-333,489	-200,000	0,008	-0,109
-332,475	171,746	-0,040	0,041
-331,460	-200,000	0,017	-0,070
-330,445	462,809	-0,076	0,123
-329,431	-200,000	-0,011	0,189
-328,416	1,166	-0,131	0,068
-327,402	181,669	-0,032	0,034
-326,387	-200,000	-0,003	-0,117
-325,372	284,440	0,066	0,086
-324,358	291,102	-0,070	0,092
-323,343	-121,002	-0,075	-0,009
-322,329	-68,812	0,108	-0,030
-321,314	-81,598	0,139	0,033
-320,299	39,837	0,205	0,133
-319,285	-200,000	-0,044	0,142
-318,270	110,666	0,087	-0,076
-317,256	289,078	-0,039	-0,051
-316,241	203,565	-0,049	-0,055
-315,226	692,647	-0,068	-0,130
-314,212	318,195	0,083	0,113
-313,197	22,868	0,109	0,064
-312,183	-200,000	0,009	-0,198
-311,168	-93,913	-0,065	0,013
-310,153	-95,301	0,072	0,014
-309,139	-200,000	0,024	-0,077
-308,124	222,113	0,016	-0,019
-307,110	-36,174	0,073	0,028
-306,095	-97,970	-0,146	0,027
-305,080	-113,741	0,100	-0,014
-304,066	557,225	-0,048	-0,085
-303,051	96,969	-0,076	-0,063
-302,037	-146,395	-0,082	0,005
-301,022	639,950	0,026	-0,049
-300,008	-200,000	0,005	0,072
-298,993	280,098	0,055	-0,071
-297,978	639,436	0,042	-0,078
-296,964	-154,540	-0,075	-0,004
-295,949	-200,000	-0,003	0,045
-294,935	-200,000	-0,024	0,098
-293,920	-200,000	0,001	0,010
-292,905	-200,000	-0,009	0,113
-291,891	63,358	-0,055	-0,040
-290,876	125,477	0,092	0,084
-289,862	-78,859	-0,157	0,038
-288,847	671,123	0,008	-0,014
-287,832	-30,073	0,057	-0,023
-286,818	-7,567	-0,035	0,017
-285,803	23,856	-0,123	0,073
-284,789	-157,445	0,160	-0,007
-283,774	87,518	-0,030	0,024
-282,759	-82,738	0,091	0,021
-281,745	124,100	-0,074	-0,067
-280,730	-146,484	-0,127	-0,008
-279,716	287,554	0,082	0,108
-278,701	-200,000	0,020	0,126
-277,686	-36,589	0,166	-0,064
-276,672	266,827	0,030	-0,038
-275,657	-200,000	0,013	-0,047
-274,643	345,778	0,041	-0,059
-273,628	-200,000	-0,013	0,076
-272,613	-93,111	-0,073	-0,015
-271,599	-200,000	-0,017	-0,156
-270,584	144,850	0,027	-0,026
-269,570	396,376	0,058	0,088
-268,555	-174,512	0,074	0,001
-267,540	351,561	-0,023	0,033
-266,526	21,355	0,087	-0,051
-265,511	800,000	0,019	-0,045
-264,497	-200,000	-0,007	0,038
-263,482	33,670	-0,029	0,018
-262,467	78,824	-0,038	0,030
-261,453	-200,000	-0,002	-0,062
-260,438	750,473	-0,036	-0,070
-259,424	-200,000	0,034	-0,138
-258,409	177,837	-0,119	-0,126
-257,395	-38,817	0,109	0,041
-256,380	800,000	-0,036	0,078
-255,365	154,587	0,063	0,063
-254,351	126,745	-0,111	0,102
-253,336	511,103	-0,053	-0,089
-252,322	-200,000	-0,035	-0,159
-251,307	-200,000	-0,013	0,076
-250,292	77,122	-0,045	0,035
-249,278	-128,115	-0,118	0,012
-248,263	24,573	-0,040	0,024
-247,249	-200,000	0,008	-0,050
-246,234	-200,000	-0,005	-0,042
-245,219	800,000	-0,048	0,122
-244,205	80,490	-0,066	-0,051
-243,190	-200,000	-0,010	-0,109
-242,176	125,042	-0,107	0,097
-241,161	119,653	-0,062	-0,055
-240,146	448,253	-0,071	0,114
-239,132	671,455	-0,036	0,068
-238,117	259,346	0,060	-0,074
-237,103	-200,000	-0,016	-0,116
-236,088	23,203	0,036	-0,021
-235,073	16,090	0,024	0,014
-234,059	800,000	-0,027	-0,065
-233,044	137,614	-0,052	-0,049
-232,030	-200,000	0,018	-0,126
-231,015	191,258	-0,090	0,098
-230,000	246,899	-0,057	-0,069
-228,986	800,000	0,060	-0,120
-227,971	60,525	0,053	-0,038
-226,957	40,697	0,071	-0,046
-225,942	800,000	-0,039	-0,118
-224,927	-200,000	0,052	-0,178
-223,913	-200,000	-0,017	-0,104
-222,898	-77,638	0,045	-0,011
-221,884	800,000	-0,010	-0,025
-220,869	800,000	-0,052	0,146
-219,855	-112,890	0,036	-0,005
-218,840	-64,950	0,100	-0,029
-217,825	-200,000	0,011	-0,092
-216,811	-200,000	-0,043	0,170
-215,796	12,205	0,071	-0,039
-214,782	294,210	0,053	0,071
-213,767	-109,918	-0,030	-0,004
-212,752	7,560	0,076	0,041
-211,738	-99,138	0,068	0,012
-210,723	203,424	0,058	0,065
-209,709	-65,921	-0,098	-0,028
-208,694	-200,000	0,018	-0,162
-207,679	209,410	-0,113	0,127
-206,665	-97,940	0,065	-0,012
-205,650	-147,955	0,180	-0,011
-204,636	-171,399	0,050	-0,001
-203,621	800,000	-0,023	0,072
-202,606	270,250	-0,051	-0,065
-201,592	-128,092	-0,030	-0,003
-200,577	260,323	0,032	0,040
-199,563	-200,000	0,013	0,069
-198,548	-126,680	0,075	0,008
-197,533	-200,000	-0,000	0,082
-196,519	800,000	-0,057	0,126
-195,504	42,451	-0,063	-0,041
-194,490	64,101	-0,129	-0,093
-193,475	-143,018	-0,047	-0,003
-192,460	-200,000	-0,010	-0,051
-191,446	800,000	0,039	0,079
-190,431	-200,000	0,010	0,061
-189,417	43,874	-0,049	0,032
-188,402	-9,719	0,079	0,038
-187,387	126,542	-0,017	-0,016
-186,373	-163,528	-0,103	0,003
-185,358	522,525	-0,146	-0,248
-184,344	320,450	-0,067	-0,092
-183,329	-19,187	0,050	-0,022
-182,315	-53,190	0,064	0,021
-181,300	639,842	0,004	0,007
-180,285	108,413	0,109	0,094
-179,271	-200,000	-0,004	-0,052
-178,256	-178,034	0,084	-0,001
-177,242	36,629	-0,086	-0,054
-176,227	36,225	0,110	-0,069
-175,212	98,434	0,159	-0,132
-174,198	-121,498	-0,092	-0,011
-173,183	-109,869	-0,117	0,017
-172,169	223,806	0,026	-0,030
-171,154	-26,351	-0,045	-0,019
-170,139	-111,855	0,190	0,027
-169,125	-62,399	-0,100	0,030
-168,110	9,797	-0,036	-0,019
-167,096	-193,431	-0,069	0,000
-166,081	-200,000	-0,006	-0,106
-165,066	-142,923	-0,109	-0,007
-164,052	-200,000	-0,019	0,103
-163,037	800,000	0,035	0,087
-162,023	-123,024	0,051	-0,006
-161,008	-97,810	0,067	-0,012
-159,993	800,000	-0,050	-0,149
-158,979	-200,000	-0,014	-0,211
-157,964	-156,672	0,089	-0,004
-156,950	-200,000	-0,044	-0,143
-155,935	-106,836	0,038	-0,006
-154,920	-116,024	0,105	0,014
-153,906	-144,393	-0,177	-0,012
-152,891	-95,803	0,048	-0,009
-151,877	306,012	-0,036	-0,048
-150,862	-42,348	-0,125	-0,045
-149,847	-200,000	-0,005	0,033
-148,833	800,000	-0,051	-0,115
-147,818	202,574	-0,045	-0,050
-146,804	-200,000	0,042	-0,136
-145,789	800,000	0,017	-0,040
-144,775	-15,905	-0,096	-0,044
-143,760	-53,310	0,110	-0,036
-142,745	-200,000	-0,021	0,089
-141,731	381,181	0,063	-0,094
-140,716	42,035	-0,066	-0,043
-139,702	271,040	0,012	0,015
-138,687	251,544	-0,121	0,149
-137,672	94,888	0,017	-0,014
-136,658	12,241	-0,104	0,058
-135,643	-200,000	-0,017	0,088
-134,629	147,196	-0,070	0,067
-133,614	-200,000	0,001	-0,025
-132,599	-16,396	0,045	0,021
-131,585	432,863	-0,083	0,129
-130,570	77,567	-0,041	0,031
-129,556	100,089	-0,131	-0,109
-128,541	288,657	0,072	0,094
-127,526	67,026	0,081	0,059
-126,512	359,523	0,041	-0,060
-125,497	-5,135	0,103	-0,051
-124,483	155,061	-0,037	-0,036
-123,468	241,486	0,055	0,066
-122,453	9,153	-0,127	-0,069
-121,439	-9,127	-0,120	-0,058
-120,424	-121,968	0,080	0,009
-119,410	-143,235	0,033	-0,002
-118,395	800,000	-0,035	0,110
-117,380	139,838	-0,010	0,010
-116,366	3,499	-0,130	0,068
-115,351	-200,000	-0,010	0,081
-114,337	494,806	-0,045	-0,074
-113,322	565,567	0,039	0,068
-112,307	71,791	0,049	-0,037
-111,293	-80,023	0,112	-0,027
-110,278	-91,563	-0,115	-0,023
-109,264	191,045	-0,040	0,043
-108,249	200,101	-0,074	0,082
-107,234	800,000	-0,073	0,150
-106,220	800,000	-0,049	-0,105
-105,205	712,317	0,115	0,220
-104,191	800,000	0,067	0,165
-103,176	-200,000	0,005	0,028
-102,162	-55,806	0,130	-0,041
-101,147	7,679	-0,101	0,054
-100,132	-83,561	-0,019	0,004
-99,118	-43,881	-0,189	-0,068
-98,103	-114,864	-0,105	0,014
-97,089	5,617	-0,074	-0,039
-96,074	470,803	0,022	0,035
-95,059	-200,000	0,002	0,040
-94,045	-200,000	-0,033	0,128
-93,030	16,062	-0,022	-0,012
-92,016	-200,000	0,041	-0,211
-91,001	75,895	-0,194	0,147
-89,986	-200,000	0,000	-0,018
-88,972	268,428	-0,076	0,095
-87,957	-79,286	-0,056	0,014
-86,943	29,019	-0,052	-0,031
-85,928	-25,542	-0,064	0,027
-84,913	-96,244	-0,039	-0,007
-83,899	-22,730	-0,113	0,049
-82,884	800,000	0,015	0,040
-81,870	657,581	0,052	-0,095
-80,855	-164,919	0,055	-0,002
-79,840	-200,000	0,005	0,165
-78,826	-200,000	-0,017	0,061
-77,811	-20,222	-0,059	-0,026
-76,797	-42,666	-0,076	0,028
-75,782	6,290	-0,126	-0,067
-74,767	-182,417	0,134	-0,002
-73,753	-151,680	0,131	-0,007
-72,738	-200,000	-0,013	0,066
-71,724	-85,832	-0,061	0,013
-70,709	-200,000	-0,029	0,111
-69,694	-88,438	-0,221	0,047
-68,680	-88,376	0,050	0,011
-67,665	500,825	0,029	0,049
-66,651	800,000	0,057	0,131
-65,636	30,535	-0,136	0,083
-64,622	-200,000	-0,032	0,123
-63,607	485,775	-0,066	0,108
-62,592	398,707	-0,010	0,015
-61,578	-24,654	0,101	-0,043
-60,563	176,060	-0,053	0,055
-59,549	-41,215	0,187	0,069
-58,534	24,479	-2,034	-1,202
-57,519	800,000	-0,286	-0,695
-56,505	-200,000	-1,274	-5,171
-55,490	111,788	0,780	0,674
-54,476	800,000	5,356	12,298
-53,461	-200,000	18,619	315,214
-52,446	800,000	739,577	2327,004
-51,432	556,969	1655,885	2868,132
-50,417	110,951	1640,632	1413,519
-49,403	74,612	1290,697	970,776
-48,388	30,248	1031,085	628,657
-47,373	19,814	993,499	571,245
-46,359	17,376	981,215	556,147
-45,344	14,071	977,345	543,087
-44,330	14,459	975,804	543,484
-43,315	13,745	973,905	540,065
-42,300	13,677	972,866	539,246
-41,286	13,668	972,086	538,763
-40,271	13,734	970,840	538,267
-39,257	13,764	970,133	537,950
-38,242	13,726	969,117	537,243
-37,227	13,816	968,169	536,988
-36,213	13,668	967,441	536,083
-35,198	13,717	966,398	535,641
-34,184	13,726	965,953	535,401
-33,169	13,674	964,799	534,573
-32,154	13,767	963,660	534,223
-31,140	13,780	962,784	533,757
-30,125	13,762	962,304	533,411
-29,111	13,707	961,471	532,752
-28,096	13,792	960,570	532,507
-27,082	13,733	960,233	532,108
-26,067	13,739	959,238	531,553
-25,052	13,733	958,551	531,133
-24,038	13,781	957,887	530,898
-23,023	13,698	957,257	530,262
-22,009	13,753	956,640	530,075
-20,994	13,836	955,974	529,952
-19,979	13,701	955,357	529,157
-18,965	13,730	954,720	528,875
-17,950	13,761	954,309	528,726
-16,936	13,715	953,554	528,137
-15,921	13,715	952,932	527,772
-14,906	13,586	952,104	526,880
-13,892	13,668	951,527	526,804
-12,877	13,633	950,732	526,229
-11,863	13,523	950,205	525,566
-10,848	13,624	949,544	525,502
-9,833	13,727	949,099	525,563
-8,819	13,692	948,530	525,116
-7,804	13,683	947,709	524,612
-6,790	13,673	947,200	524,276
-5,775	13,666	946,654	523,933
-4,760	13,646	946,091	523,536
-3,746	13,680	945,355	523,217
-2,731	13,481	944,863	522,291
-1,717	13,424	944,253	521,754
-0,702	13,431	943,587	521,386
0,313	13,208	942,917	521,097
1,327	16,616	940,359	530,401
2,342	25,721	795,259	472,687
3,356	22,316	459,379	267,816
4,371	-4,267	316,095	155,921
5,386	-8,003	297,860	143,120
6,400	-10,080	292,051	138,245
7,415	-10,602	289,335	136,432
8,429	-11,238	287,725	135,035
9,444	-11,268	286,732	134,528
10,459	-11,197	285,985	134,235
11,473	-11,180	285,388	133,960
12,488	-10,997	285,036	133,961
13,502	-11,115	284,470	133,568
14,517	-11,380	284,042	133,098
15,531	-11,513	283,563	132,733
16,546	-11,297	283,034	132,682
17,561	-11,357	282,710	132,461
18,575	-11,306	282,340	132,324
19,590	-11,494	281,962	131,955
20,604	-11,395	281,711	131,921
21,619	-11,375	281,327	131,748
22,634	-11,525	280,942	131,413
23,648	-11,408	280,630	131,367
24,663	-11,571	280,458	131,119
25,677	-11,520	280,144	131,009
26,692	-11,544	279,930	130,875
27,707	-11,312	279,640	130,949
28,721	-11,407	279,188	130,635
29,736	-11,402	278,952	130,518
30,750	-11,492	278,703	130,304
31,765	-11,450	278,495	130,234
32,780	-11,587	278,285	129,995
33,794	-11,562	277,928	129,841
34,809	-11,761	277,836	129,597
35,823	-11,503	277,424	129,638
36,838	-11,519	277,333	129,569
37,853	-11,495	276,911	129,382
38,867	-11,487	276,580	129,224
39,882	-11,521	276,598	129,188
40,896	-11,604	276,297	128,958
41,911	-11,534	276,027	128,887
42,926	-11,534	275,666	128,707
43,940	-11,564	275,450	128,566
44,955	-11,513	275,279	128,523
45,969	-11,624	274,961	128,259
46,984	-11,707	274,848	128,117
47,999	-11,612	274,644	128,099
49,013	-11,596	274,405	127,992
50,028	-11,711	274,175	127,765
51,042	-11,802	274,036	127,604
52,057	-11,626	273,655	127,579
53,071	-11,840	273,459	127,277
54,086	-11,656	273,296	127,361
55,101	-11,544	273,041	127,335
56,115	-11,388	272,832	127,371
57,130	-11,379	272,585	127,253
58,144	-11,445	272,431	127,109
59,159	-11,358	272,107	127,026
60,174	-11,405	271,902	126,876
61,188	-11,299	271,723	126,878
62,203	-11,499	271,527	126,591
63,217	-11,433	271,084	126,435
64,232	-11,541	271,028	126,297
65,247	-11,354	270,728	126,319
66,261	-11,318	270,555	126,260
67,276	-11,353	270,174	126,038
68,290	-11,512	270,114	125,854
69,305	-11,419	269,966	125,859
70,320	-11,491	269,638	125,629
71,334	-11,590	269,466	125,447
72,349	-11,281	269,127	125,560
73,363	-11,191	268,844	125,499
74,378	-11,404	268,730	125,240
75,393	-11,405	268,670	125,200
76,407	-11,451	268,288	124,969
77,422	-11,523	268,124	124,816
78,436	-11,309	267,834	124,864
79,451	-11,286	267,690	124,807
80,466	-11,431	267,367	124,514
81,480	-11,389	267,063	124,399
82,495	-11,457	267,014	124,303
83,509	-11,583	266,843	124,099
84,524	-11,394	266,589	124,141
85,539	-11,539	266,331	123,878
86,553	-11,482	266,162	123,840
87,568	-11,433	265,866	123,735
88,582	-11,503	265,731	123,599
89,597	-11,402	265,522	123,581
90,611	-11,552	265,372	123,365
91,626	-11,458	265,229	123,372
92,641	-11,302	264,788	123,296
93,655	-11,566	264,709	123,012
94,670	-11,582	264,564	122,919
95,684	-11,461	264,285	122,887
96,699	-11,429	264,091	122,814
97,714	-11,510	264,065	122,719
98,728	-11,426	263,597	122,565
99,743	-11,435	263,562	122,531
100,757	-11,422	263,386	122,449
101,772	-11,602	263,310	122,243
102,787	-11,482	263,074	122,229
103,801	-11,440	262,807	122,131
104,816	-11,276	262,513	122,129
105,830	-11,469	262,424	121,905
106,845	-11,438	262,238	121,836
107,860	-11,329	262,011	121,817
108,874	-11,312	261,804	121,724
109,889	-11,458	261,640	121,508
110,903	-11,360	261,416	121,479
111,918	-11,311	261,136	121,381
112,933	-11,374	260,981	121,243
113,947	-11,217	260,697	121,240
114,962	-11,329	260,641	121,103
115,976	-11,149	260,225	121,058
116,991	-11,568	260,244	120,687
118,006	-11,390	259,985	120,713
119,020	-11,337	259,841	120,682
120,035	-11,381	259,729	120,580
121,049	-11,498	259,560	120,389
122,064	-11,195	259,310	120,528
123,079	-11,342	259,035	120,260
124,093	-11,430	258,928	120,122
125,108	-11,454	258,674	119,973
126,122	-11,338	258,511	119,988
127,137	-11,443	258,129	119,708
128,151	-11,507	258,207	119,678
129,166	-11,329	257,961	119,709
130,181	-11,492	257,781	119,473
131,195	-11,444	257,402	119,328
132,210	-11,193	257,322	119,499
133,224	-11,285	257,055	119,284
134,239	-11,284	256,990	119,244
135,254	-11,383	256,902	119,107
136,268	-11,115	256,458	119,123
137,283	-11,261	256,150	118,843
138,297	-11,487	256,147	118,635
139,312	-11,598	255,934	118,430
140,327	-11,271	255,785	118,632
141,341	-11,328	255,586	118,481
142,356	-11,340	255,409	118,378
143,370	-11,178	255,363	118,485
144,385	-11,198	255,073	118,323
145,400	-11,171	254,730	118,176
146,414	-11,237	254,826	118,153
147,429	-11,292	254,450	117,922
148,443	-11,269	254,287	117,855
149,458	-11,214	254,055	117,785
150,473	-11,187	253,905	117,728
151,487	-11,136	253,618	117,627
152,502	-11,171	253,579	117,569
153,516	-11,297	253,455	117,393
154,531	-11,280	253,276	117,314
155,546	-11,250	252,998	117,201
156,560	-11,316	252,871	117,075
157,575	-11,377	252,717	116,942
158,589	-11,233	252,358	116,888
159,604	-11,163	252,028	116,784
160,619	-11,275	251,948	116,641
161,633	-11,315	252,009	116,624
162,648	-11,222	251,813	116,603
163,662	-11,190	251,660	116,549
164,677	-11,010	251,256	116,504
165,692	-11,144	251,276	116,389
166,706	-11,164	251,171	116,313
167,721	-11,299	250,957	116,090
168,735	-11,122	250,887	116,197
169,750	-11,029	250,447	116,061
170,764	-11,239	250,441	115,870
171,779	-11,045	250,432	116,019
172,794	-11,274	250,182	115,700
173,808	-11,167	249,879	115,640
174,823	-11,387	249,673	115,350
175,837	-11,412	249,451	115,215
176,852	-11,215	249,432	115,362
177,867	-11,257	249,299	115,255
178,881	-11,308	249,098	115,109
179,896	-11,126	248,960	115,187
180,910	-11,084	248,878	115,174
181,925	-11,073	248,418	114,960
182,940	-11,088	248,358	114,909
183,954	-11,300	248,252	114,673
184,969	-11,012	248,149	114,856
185,983	-10,944	247,946	114,808
186,998	-11,186	247,826	114,541
188,013	-11,073	247,578	114,510
189,027	-11,152	247,433	114,367
190,042	-11,343	247,384	114,175
191,056	-10,818	247,061	114,452
192,071	-10,880	246,807	114,273
193,086	-11,163	246,666	113,964
194,100	-11,040	246,448	113,954
195,115	-10,847	246,281	114,026
196,129	-10,945	246,033	113,820
197,144	-10,973	245,919	113,734
198,159	-11,210	245,849	113,496
199,173	-10,912	245,538	113,588
200,188	-10,988	245,359	113,432
201,202	-11,334	245,243	113,084
202,217	-11,346	244,852	112,884
203,232	-11,299	244,738	112,860
204,246	-10,867	244,845	113,254
205,261	-9,832	244,920	114,129
206,275	-9,723	244,906	114,202
207,290	-8,403	245,302	115,462
208,304	-5,381	246,135	118,335
209,319	-3,183	246,779	120,449
210,334	-2,285	246,802	121,190
211,348	-1,671	246,928	121,747
212,363	-1,127	246,918	122,180
213,377	-0,753	246,916	122,477
214,392	-0,580	246,711	122,506
215,407	-0,592	246,656	122,458
216,421	-0,436	246,608	122,552
217,436	-0,612	246,393	122,289
218,450	-0,623	246,119	122,134
219,465	-0,589	245,984	122,084
220,480	-0,463	245,897	122,132
221,494	-0,524	245,702	121,975
222,509	-0,604	245,543	121,820
223,523	-0,705	245,198	121,555
224,538	-0,681	245,186	121,558
225,553	-0,857	245,009	121,315
226,567	-0,802	244,738	121,215
227,582	-0,816	244,795	121,222
228,596	-0,624	244,523	121,232
229,611	-0,949	244,408	120,900
230,626	-0,634	244,217	121,051
231,640	-0,790	244,013	120,812
232,655	-0,900	243,790	120,601
233,669	-0,909	243,766	120,572
234,684	-0,670	243,394	120,571
235,699	-0,695	243,343	120,514
236,713	-0,946	243,292	120,275
237,728	-0,775	243,048	120,282
238,742	-0,761	242,953	120,236
239,757	-0,796	242,757	120,099
240,772	-0,846	242,618	119,980
241,786	-0,862	242,395	119,846
242,801	-0,808	242,204	119,784
243,815	-0,462	242,070	119,986
244,830	-0,630	241,932	119,772
245,844	-0,791	241,827	119,580
246,859	-0,675	241,609	119,554
247,874	-0,674	241,400	119,441
248,888	-0,577	241,183	119,400
249,903	-0,775	241,279	119,279
250,917	-0,717	240,965	119,160
251,932	-0,617	240,875	119,185
252,947	-0,829	240,541	118,839
253,961	-0,737	240,508	118,886
254,976	-0,808	240,359	118,745
255,990	-0,761	240,141	118,664
257,005	-0,585	239,936	118,693
258,020	-0,740	239,947	118,564
259,034	-0,543	239,621	118,549
260,049	-0,605	239,603	118,480
261,063	-0,853	239,462	118,202
262,078	-0,896	239,278	118,067
263,093	-0,700	239,006	118,078
264,107	-0,570	238,939	118,137
265,122	-0,634	238,698	117,957
266,136	-0,864	238,730	117,780
267,151	-0,540	238,473	117,900
268,166	-0,623	238,286	117,730
269,180	-0,909	238,296	117,499
270,195	-0,607	237,912	117,537
271,209	-0,703	237,948	117,469
272,224	-0,696	237,690	117,337
273,239	-0,888	237,643	117,151
274,253	-0,775	237,598	117,208
275,268	-0,650	237,211	117,105
276,282	-0,556	237,148	117,138
277,297	-0,556	236,956	117,032
278,312	-0,444	236,951	117,107
279,326	-0,618	236,755	116,863
280,341	-0,516	236,566	116,839
281,355	-0,711	236,467	116,627
282,370	-0,435	236,173	116,688
283,384	-0,530	236,181	116,607
284,399	-0,566	235,922	116,441
285,414	-0,490	235,644	116,352
286,428	-0,632	235,512	116,167
287,443	-0,419	235,404	116,269
288,457	-0,655	235,344	116,045
289,472	-0,489	235,198	116,092
290,487	-0,515	235,127	116,026
291,501	-0,663	234,882	115,779
292,516	-0,549	234,678	115,757
293,530	-0,415	234,419	115,723
294,545	-0,604	234,409	115,561
295,560	-0,441	234,334	115,640
296,574	-0,602	234,158	115,419
297,589	-0,535	233,948	115,356
298,603	-0,334	233,850	115,454
299,618	-0,501	233,595	115,189
300,633	-0,391	233,581	115,256
301,647	-0,405	233,480	115,186
302,662	-0,622	233,362	114,949
303,676	-0,338	233,078	115,018
304,691	-0,473	232,977	114,854
305,706	-0,385	232,728	114,788
306,720	-0,389	232,657	114,740
307,735	-0,502	232,506	114,569
308,749	-0,368	232,359	114,589
309,764	-0,278	232,181	114,560
310,779	-0,202	232,017	114,528
311,793	-0,423	231,869	114,274
312,808	-0,493	231,823	114,188
313,822	-0,442	231,557	114,085
314,837	-0,432	231,550	114,080
315,852	-0,255	231,348	114,106
316,866	-0,212	231,190	114,051
317,881	-0,277	231,003	113,898
318,895	-0,500	230,878	113,656
319,910	-0,530	230,730	113,550
320,925	-0,496	230,521	113,464
321,939	-0,199	230,249	113,546
322,954	-0,287	230,408	113,547
323,968	-0,184	230,231	113,527
324,983	-0,214	230,127	113,443
325,997	-0,076	229,814	113,384
327,012	-0,174	229,731	113,258
328,027	-0,094	229,486	113,188
329,041	-0,152	229,546	113,164
330,056	-0,268	229,342	112,965
331,070	-0,394	229,142	112,762
332,085	-0,149	228,900	112,817
333,100	-0,457	228,936	112,592
334,114	-0,365	228,738	112,554
335,129	-0,329	228,585	112,496
336,143	-0,303	228,397	112,413
337,158	-0,138	228,334	112,496
338,173	-0,231	228,171	112,336
339,187	-0,251	227,997	112,225
340,202	-0,159	227,816	112,195
341,216	-0,023	227,548	112,155
342,231	-0,188	227,512	112,004
343,246	-0,102	227,477	112,041
344,260	-0,103	227,274	111,930
345,275	-0,152	227,085	111,791
346,289	0,015	226,925	111,827
347,304	-0,093	226,735	111,642
348,319	-0,220	226,753	111,547
349,333	-0,147	226,515	111,474
350,348	0,026	226,275	111,475
351,362	-0,109	226,226	111,341
352,377	-0,182	226,116	111,222
353,392	0,046	226,071	111,360
354,406	-0,034	225,857	111,185
355,421	196,982	1317,887	1395,403
356,435	157,969	1450,901	1395,377
