DTS Sentinel unit serial number:	SN410029Multiplexer serial number:	ORYXHardware model number:	OX2-SRSoftware version number:	ORYX F/W v4,00 Oryx Data Collector v3.7.2.0data status	okinstallation	B5 Nyhavnadifferential loss correction	single-endedforward channel	channel 2reverse channel	N/Adate	2023/12/12time	05:37:13forward acquisition time	300,00reverse acquisition time	0,00gamma	499,1914k internal	0,3157k external	0,3157temperature offset calibration	1,0000default loss term (dB/km)	0,3820temperature slope calibration	1,0000multiplexer offset coefficient	1,0000multiplexer slope coefficient	1,0000fibre end	0,00T internal ref (°C)	15,34T ext. ref 1 (°C)	-1,03T ext. ref 2 (°C)	-1,33length (m)	temperature (°C)	Stokes	anti-Stokes-744,400	-200,000	0,007	0,080
-743,385	-65,895	-0,268	0,078
-742,371	47,723	0,110	0,076
-741,356	-103,611	-0,178	0,030
-740,342	67,833	0,111	0,083
-739,327	65,247	-0,177	0,132
-738,312	-168,669	-0,150	0,004
-737,298	-172,398	-0,217	-0,005
-736,283	-36,971	0,158	-0,062
-735,269	-127,615	-0,182	-0,019
-734,254	159,830	0,093	0,096
-733,239	21,865	-0,415	-0,249
-732,225	-115,874	0,275	-0,037
-731,210	800,000	0,027	-0,059
-730,196	-200,000	-0,005	0,022
-729,181	-200,000	0,024	-0,169
-728,167	96,674	-0,094	0,079
-727,152	-200,000	-0,006	-0,048
-726,137	17,726	-0,075	-0,044
-725,123	-59,586	-0,124	-0,039
-724,108	-1,578	-0,138	-0,071
-723,094	203,741	0,053	-0,060
-722,079	-119,581	-0,108	0,014
-721,064	-146,287	0,077	-0,005
-720,050	148,552	-0,048	-0,048
-719,035	183,613	-0,013	-0,014
-718,021	-39,684	0,024	0,009
-717,006	0,935	0,054	-0,029
-715,991	241,106	0,077	-0,095
-714,977	-30,084	-0,164	-0,068
-713,962	-62,498	-0,069	0,021
-712,948	-28,732	0,038	-0,016
-711,933	-17,370	-0,059	-0,027
-710,918	-95,891	0,033	-0,006
-709,904	-102,553	-0,155	-0,027
-708,889	800,000	-0,033	-0,088
-707,875	407,560	-0,112	-0,176
-706,860	59,363	-0,084	-0,061
-705,845	-11,493	-0,034	-0,016
-704,831	740,204	0,028	0,056
-703,816	-200,000	-0,007	-0,094
-702,802	227,747	0,017	-0,020
-701,787	40,243	-0,098	0,065
-700,772	-200,000	0,018	0,086
-699,758	-200,000	0,003	-0,091
-698,743	87,790	-0,105	-0,086
-697,729	-82,920	-0,082	0,019
-696,714	238,393	-0,020	0,025
-695,699	-200,000	0,000	0,018
-694,685	141,059	-0,075	0,074
-693,670	-107,846	0,052	-0,008
-692,656	82,098	-0,082	-0,065
-691,641	-79,168	0,042	-0,010
-690,627	545,985	-0,010	-0,018
-689,612	800,000	0,005	0,014
-688,597	245,066	0,052	-0,064
-687,583	278,137	-0,097	-0,128
-686,568	-200,000	-0,023	-0,079
-685,554	800,000	0,025	-0,082
-684,539	20,281	0,071	-0,042
-683,524	569,549	0,054	-0,097
-682,510	93,399	0,108	-0,090
-681,495	684,173	-0,026	0,051
-680,481	-200,000	-0,138	0,000
-679,466	-188,470	-0,120	-0,001
-678,451	-25,224	0,074	0,032
-677,437	78,388	-0,087	-0,068
-676,422	439,611	-0,059	-0,096
-675,408	-200,000	-0,007	-0,092
-674,393	334,853	0,033	0,047
-673,378	-200,000	-0,053	-0,177
-672,364	738,224	0,038	-0,076
-671,349	106,576	0,082	0,071
-670,335	-106,449	0,048	0,008
-669,320	-59,565	-0,087	-0,027
-668,305	422,342	0,043	-0,068
-667,291	-135,158	-0,147	0,013
-666,276	-200,000	-0,016	-0,096
-665,262	311,461	-0,096	-0,132
-664,247	-200,000	0,048	-0,157
-663,232	-135,179	0,022	-0,002
-662,218	-133,937	-0,077	-0,007
-661,203	-200,000	0,021	0,083
-660,189	102,475	-0,051	-0,044
-659,174	16,993	-0,065	-0,038
-658,159	-200,000	-0,007	-0,044
-657,145	-115,818	-0,126	0,017
-656,130	60,566	0,167	-0,121
-655,116	800,000	0,023	-0,049
-654,101	71,610	0,101	0,077
-653,086	-200,000	-0,023	-0,090
-652,072	-168,115	0,038	0,001
-651,057	-138,823	-0,086	-0,007
-650,043	137,311	-0,076	-0,073
-649,028	-200,000	-0,027	0,089
-648,014	-73,104	-0,034	-0,009
-646,999	447,550	0,052	-0,084
-645,984	20,550	0,091	0,054
-644,970	137,620	-0,036	0,035
-643,955	-69,196	-0,045	-0,013
-642,941	215,928	-0,108	-0,127
-641,926	27,230	-0,059	-0,037
-640,911	-200,000	0,013	-0,078
-639,897	-43,364	0,152	-0,056
-638,882	-200,000	0,006	0,079
-637,868	110,544	0,018	-0,016
-636,853	-200,000	-0,105	0,000
-635,838	27,828	-0,132	-0,082
-634,824	-200,000	0,001	-0,030
-633,809	800,000	-0,035	-0,078
-632,795	203,670	-0,040	-0,046
-631,780	-26,349	-0,079	0,034
-630,765	664,662	-0,039	0,074
-629,751	7,029	-0,059	0,032
-628,736	-200,000	-0,024	-0,139
-627,722	-200,000	0,004	0,050
-626,707	800,000	0,022	-0,059
-625,692	-81,752	0,044	-0,011
-624,678	-29,006	0,063	0,026
-623,663	800,000	0,029	-0,062
-622,649	-118,740	0,069	-0,009
-621,634	76,550	0,060	0,046
-620,619	113,517	-0,082	0,073
-619,605	-200,000	0,011	0,083
-618,590	251,823	0,039	-0,049
-617,576	-200,000	0,007	-0,026
-616,561	587,754	0,021	-0,038
-615,546	194,923	0,036	0,040
-614,532	370,594	0,031	-0,046
-613,517	24,676	-0,069	-0,042
-612,503	-125,200	-0,032	0,004
-611,488	-182,007	0,064	-0,001
-610,474	800,000	0,035	0,093
-609,459	621,683	0,035	-0,065
-608,444	-52,533	-0,022	0,008
-607,430	-106,672	-0,069	-0,011
-606,415	-200,000	-0,002	-0,090
-605,401	-200,000	-0,011	0,075
-604,386	800,000	-0,013	0,041
-603,371	-200,000	-0,010	0,041
-602,357	89,927	0,108	-0,088
-601,342	98,945	-0,049	0,042
-600,328	374,246	-0,098	-0,147
-599,313	375,763	-0,101	-0,152
-598,298	-33,801	0,194	0,078
-597,284	800,000	-0,019	-0,050
-596,269	800,000	0,026	0,054
-595,255	-31,535	0,142	0,058
-594,240	-10,877	-0,024	-0,012
-593,225	-48,249	0,052	-0,018
-592,211	98,405	-0,038	-0,032
-591,196	-105,665	0,056	-0,009
-590,182	313,617	0,043	-0,060
-589,167	297,057	-0,075	0,101
-588,152	-98,867	0,152	-0,028
-587,138	37,092	0,028	0,018
-586,123	-101,238	-0,069	-0,012
-585,109	-51,360	-0,120	-0,041
-584,094	114,281	0,079	-0,071
-583,079	-200,000	-0,016	-0,054
-582,065	233,334	0,066	0,080
-581,050	382,914	-0,088	0,133
-580,036	800,000	0,055	0,119
-579,021	-30,603	-0,082	-0,034
-578,006	-128,479	-0,007	-0,001
-576,992	59,573	0,074	-0,053
-575,977	-17,427	0,057	-0,026
-574,963	-106,739	0,175	-0,028
-573,948	-200,000	0,002	-0,078
-572,934	298,315	-0,070	0,094
-571,919	297,003	-0,065	-0,088
-570,904	461,272	0,076	-0,124
-569,890	-4,547	0,073	-0,037
-568,875	800,000	0,038	-0,086
-567,861	-200,000	0,012	0,139
-566,846	-12,953	-0,069	0,033
-565,831	52,999	-0,097	0,068
-564,817	-200,000	0,005	-0,168
-563,802	535,883	0,055	0,095
-562,788	4,421	0,042	-0,022
-561,773	246,885	-0,074	0,091
-560,758	-200,000	-0,007	0,106
-559,744	800,000	0,038	0,088
-558,729	408,659	-0,034	-0,053
-557,715	98,086	-0,075	-0,063
-556,700	-200,000	-0,204	0,000
-555,685	534,132	0,085	-0,148
-554,671	648,873	0,041	-0,077
-553,656	800,000	0,028	0,062
-552,642	739,332	-0,064	0,127
-551,627	800,000	0,055	0,121
-550,612	69,621	0,080	0,060
-549,598	-46,272	-0,119	-0,042
-548,583	-131,940	0,115	0,011
-547,569	135,126	0,080	-0,077
-546,554	-200,000	-0,020	0,159
-545,539	90,926	-0,038	-0,031
-544,525	-151,645	0,049	0,003
-543,510	-200,000	0,013	-0,059
-542,496	442,861	-0,070	-0,112
-541,481	363,239	0,043	-0,064
-540,466	-200,000	-0,003	0,023
-539,452	-200,000	0,004	-0,017
-538,437	31,655	0,059	-0,037
-537,423	-200,000	0,002	-0,016
-536,408	-81,521	-0,148	-0,035
-535,393	800,000	0,005	-0,012
-534,379	5,132	-0,030	0,016
-533,364	-135,730	0,092	0,008
-532,350	73,172	0,051	0,039
-531,335	800,000	0,037	-0,117
-530,321	-200,000	0,011	0,064
-529,306	178,313	-0,035	-0,037
-528,291	298,077	-0,054	-0,073
-527,277	-26,820	-0,091	0,039
-526,262	-200,000	0,007	0,030
-525,248	-200,000	-0,002	0,203
-524,233	-200,000	0,020	0,181
-523,218	-70,368	0,053	-0,015
-522,204	-102,673	0,236	0,041
-521,189	-137,843	-0,068	0,006
-520,175	349,095	-0,106	0,153
-519,160	273,920	0,101	-0,131
-518,145	-200,000	0,010	-0,145
-517,131	-85,855	-0,041	-0,009
-516,116	-114,283	0,036	0,005
-515,102	711,675	0,028	-0,054
-514,087	-145,727	-0,128	-0,008
-513,072	-200,000	-0,003	0,019
-512,058	-71,847	-0,114	0,031
-511,043	590,205	-0,031	0,056
-510,029	269,712	-0,025	-0,032
-509,014	-87,351	-0,121	0,027
-507,999	-41,860	0,086	0,032
-506,985	168,321	-0,105	-0,109
-505,970	800,000	0,034	0,080
-504,956	-200,000	-0,002	0,020
-503,941	-56,120	0,031	-0,010
-502,926	-200,000	-0,015	0,065
-501,912	-93,357	0,044	-0,009
-500,897	-200,000	-0,023	0,104
-499,883	328,942	0,062	0,087
-498,868	-83,493	-0,250	-0,058
-497,853	-200,000	-0,026	-0,128
-496,839	-17,385	-0,036	-0,016
-495,824	431,174	0,082	0,130
-494,810	442,117	-0,070	0,112
-493,795	556,275	-0,059	0,105
-492,781	-19,918	-0,092	-0,041
-491,766	-113,206	0,077	0,011
-490,751	-28,225	-0,110	0,046
-489,737	-200,000	-0,031	-0,105
-488,722	446,647	0,088	0,141
-487,708	188,087	-0,060	0,066
-486,693	-78,135	-0,058	0,015
-485,678	-131,258	-0,132	0,013
-484,664	-129,424	-0,083	-0,008
-483,649	-200,000	0,003	-0,099
-482,635	736,430	0,061	-0,120
-481,620	228,624	0,072	0,086
-480,605	157,680	0,082	0,083
-479,591	-200,000	-0,005	0,053
-478,576	-200,000	-0,014	0,074
-477,562	-51,462	0,064	0,022
-476,547	-84,001	0,158	-0,036
-475,532	206,164	0,039	0,044
-474,518	-200,000	0,011	-0,051
-473,503	-28,434	0,075	-0,031
-472,489	800,000	0,039	-0,108
-471,474	-43,332	0,018	0,007
-470,459	566,253	-0,038	0,068
-469,445	136,177	-0,060	-0,058
-468,430	362,387	-0,045	-0,067
-467,416	-100,269	0,197	0,035
-466,401	800,000	-0,014	0,032
-465,386	35,689	0,178	-0,114
-464,372	31,465	0,035	0,022
-463,357	-200,000	-0,011	-0,060
-462,343	-9,318	0,053	-0,026
-461,328	-117,751	-0,099	0,013
-460,313	800,000	0,014	0,044
-459,299	276,196	0,050	0,065
-458,284	-200,000	0,011	0,087
-457,270	586,289	0,038	0,068
-456,255	234,479	-0,091	-0,110
-455,241	-52,371	-0,110	-0,037
-454,226	-42,453	-0,130	-0,048
-453,211	-112,501	0,053	-0,008
-452,197	-200,000	0,015	0,082
-451,182	-33,634	0,041	-0,016
-450,168	102,465	-0,101	0,086
-449,153	-22,470	0,100	-0,044
-448,138	800,000	-0,072	-0,152
-447,124	91,117	-0,046	0,038
-446,109	108,283	0,100	0,087
-445,095	-154,158	-0,031	0,002
-444,080	493,733	-0,077	0,129
-443,065	-81,765	0,058	0,014
-442,051	-13,490	-0,092	-0,043
-441,036	366,370	0,040	0,059
-440,022	-30,239	0,068	-0,028
-439,007	-9,402	-0,075	-0,036
-437,992	269,299	0,065	0,084
-436,978	289,436	0,109	0,144
-435,963	43,525	-0,083	-0,055
-434,949	-200,000	-0,019	0,109
-433,934	161,785	-0,089	-0,091
-432,919	-200,000	-0,036	-0,156
-431,905	373,763	-0,063	-0,094
-430,890	-103,618	0,108	-0,018
-429,876	-69,007	0,110	0,031
-428,861	-81,886	-0,077	0,018
-427,846	6,376	-0,104	0,056
-426,832	-105,918	-0,112	-0,018
-425,817	-200,000	0,026	0,124
-424,803	800,000	0,038	0,111
-423,788	-200,000	0,022	0,078
-422,773	-0,652	-0,028	0,014
-421,759	-97,646	-0,084	0,016
-420,744	48,045	0,036	-0,024
-419,730	-200,000	-0,025	-0,103
-418,715	229,684	-0,087	-0,104
-417,701	560,563	0,015	-0,027
-416,686	398,064	-0,028	-0,042
-415,671	-26,582	0,026	-0,011
-414,657	-200,000	-0,006	0,055
-413,642	-200,000	-0,028	0,129
-412,628	-200,000	-0,008	0,027
-411,613	-200,000	0,008	0,112
-410,598	-98,902	-0,034	0,006
-409,584	-123,122	0,058	-0,007
-408,569	800,000	0,116	-0,246
-407,555	-200,000	-0,013	0,047
-406,540	800,000	0,025	0,059
-405,525	-25,260	-0,059	-0,025
-404,511	109,108	-0,070	-0,061
-403,496	-200,000	-0,006	0,031
-402,482	-200,000	-0,006	0,097
-401,467	85,975	0,164	0,132
-400,452	800,000	-0,047	-0,122
-399,438	-108,907	0,195	0,030
-398,423	636,014	-0,090	-0,166
-397,409	-200,000	-0,016	-0,160
-396,394	-200,000	-0,128	0,000
-395,379	-200,000	0,040	0,190
-394,365	-200,000	0,009	0,156
-393,350	-0,769	0,136	0,070
-392,336	66,326	0,035	0,026
-391,321	219,765	-0,075	-0,088
-390,306	18,207	0,026	0,015
-389,292	800,000	0,028	0,074
-388,277	-200,000	-0,020	0,109
-387,263	-100,929	0,148	-0,026
-386,248	-82,130	0,052	-0,012
-385,233	-43,438	-0,062	-0,023
-384,219	-200,000	0,014	0,054
-383,204	350,414	-0,167	-0,241
-382,190	-107,466	0,025	0,004
-381,175	800,000	0,034	0,091
-380,160	140,979	0,123	-0,118
-379,146	317,805	0,046	-0,064
-378,131	154,727	-0,046	-0,046
-377,117	-32,351	-0,101	0,041
-376,102	-163,199	-0,069	0,002
-375,088	-200,000	0,030	0,000
-374,073	800,000	0,016	-0,035
-373,058	-200,000	-0,011	-0,110
-372,044	-133,077	0,081	-0,007
-371,029	800,000	0,038	-0,106
-370,015	-200,000	-0,003	-0,173
-369,000	-106,764	-0,048	0,008
-367,985	-200,000	0,005	0,024
-366,971	-56,077	0,103	0,033
-365,956	-122,199	0,058	-0,007
-364,942	562,386	0,010	0,018
-363,927	418,798	0,021	-0,033
-362,912	-130,255	-0,044	-0,004
-361,898	800,000	-0,026	-0,059
-360,883	-46,000	-0,170	-0,060
-359,869	-78,592	0,062	0,015
-358,854	-95,197	-0,094	-0,018
-357,839	79,380	-0,060	-0,047
-356,825	144,600	0,038	-0,037
-355,810	518,410	0,061	0,104
-354,796	-29,524	0,049	0,020
-353,781	800,000	0,002	0,005
-352,766	-122,773	-0,039	-0,005
-351,752	800,000	0,022	-0,054
-350,737	-9,574	0,105	0,051
-349,723	800,000	0,024	0,067
-348,708	-200,000	0,032	0,135
-347,693	489,119	0,044	-0,073
-346,679	-86,830	-0,149	-0,033
-345,664	110,699	-0,072	0,063
-344,650	-38,317	0,217	0,083
-343,635	-111,857	0,141	-0,020
-342,620	-200,000	-0,008	0,078
-341,606	99,498	0,028	-0,024
-340,591	-200,000	0,032	0,127
-339,577	41,788	-0,082	-0,054
-338,562	11,943	0,039	-0,022
-337,548	131,849	0,074	0,069
-336,533	800,000	0,044	0,112
-335,518	290,561	0,056	0,075
-334,504	800,000	-0,036	-0,095
-333,489	276,755	-0,014	0,017
-332,475	-200,000	0,013	-0,042
-331,460	25,835	-0,050	0,030
-330,445	800,000	-0,042	-0,115
-329,431	-200,000	-0,003	-0,049
-328,416	800,000	0,029	-0,061
-327,402	-200,000	0,036	0,173
-326,387	543,885	0,056	0,097
-325,372	-140,154	0,039	0,003
-324,358	135,907	-0,029	0,028
-323,343	396,586	-0,022	0,033
-322,329	-200,000	-0,008	0,032
-321,314	-200,000	0,013	-0,086
-320,299	51,371	-0,040	-0,027
-319,285	-200,000	-0,006	-0,094
-318,270	-79,766	0,124	-0,030
-317,256	451,572	-0,012	0,019
-316,241	424,368	-0,048	-0,076
-315,226	458,312	-0,049	0,080
-314,212	195,294	-0,091	0,101
-313,197	206,981	0,023	0,026
-312,183	157,663	-0,071	0,072
-311,168	30,944	0,169	0,105
-310,153	165,689	-0,119	-0,123
-309,139	800,000	0,036	0,099
-308,124	273,287	0,099	0,127
-307,110	-200,000	0,012	0,044
-306,095	800,000	-0,013	0,028
-305,080	247,365	-0,104	-0,128
-304,066	800,000	0,063	-0,152
-303,051	87,785	-0,099	-0,079
-302,037	11,077	-0,050	-0,028
-301,022	-32,872	-0,136	-0,054
-300,008	59,671	0,103	-0,073
-298,993	-200,000	-0,006	-0,103
-297,978	-87,672	-0,039	0,008
-296,964	670,981	0,030	0,056
-295,949	180,872	0,102	-0,108
-294,935	-61,817	0,038	0,012
-293,920	800,000	-0,018	-0,037
-292,905	-39,267	0,093	0,035
-291,891	-200,000	0,016	-0,116
-290,876	-14,480	-0,107	0,050
-289,862	659,399	0,027	-0,050
-288,847	36,222	-0,094	-0,060
-287,832	-104,423	-0,053	-0,009
-286,818	800,000	-0,066	0,172
-285,803	499,862	0,033	0,055
-284,789	509,960	0,009	0,016
-283,774	-170,027	0,072	-0,002
-282,759	166,963	-0,040	0,041
-281,745	66,305	0,035	-0,026
-280,730	-151,933	-0,067	-0,003
-279,716	653,904	0,054	0,101
-278,701	102,921	0,099	-0,084
-277,686	80,103	0,033	0,026
-276,672	24,726	-0,041	0,025
-275,657	-130,363	0,051	-0,005
-274,643	153,924	-0,052	-0,051
-273,628	88,581	0,021	-0,017
-272,613	-200,000	0,004	-0,082
-271,599	414,857	-0,021	0,033
-270,584	2,834	0,033	-0,017
-269,570	-61,701	0,041	0,012
-268,555	-200,000	0,012	0,121
-267,540	120,022	-0,019	0,017
-266,526	-63,373	-0,205	-0,061
-265,511	103,944	0,115	0,098
-264,497	-200,000	0,014	-0,092
-263,482	-200,000	-0,001	0,009
-262,467	29,263	0,153	0,094
-261,453	-109,108	-0,051	0,008
-260,438	-36,491	0,035	0,013
-259,424	139,432	0,076	0,072
-258,409	482,643	-0,048	0,079
-257,395	800,000	-0,043	-0,135
-256,380	-50,253	0,133	-0,045
-255,365	-200,000	-0,012	0,068
-254,351	335,499	0,038	0,053
-253,336	800,000	-0,009	0,020
-252,322	-64,292	-0,134	-0,039
-251,307	48,133	-0,114	0,077
-250,292	-200,000	0,004	-0,046
-249,278	321,939	0,052	-0,072
-248,263	102,001	0,067	0,057
-247,249	-178,952	-0,081	-0,001
-246,234	800,000	0,044	-0,113
-245,219	49,249	-0,140	-0,095
-244,205	800,000	-0,075	0,160
-243,190	-75,800	0,096	0,025
-242,176	-89,979	0,126	0,026
-241,161	800,000	-0,085	0,183
-240,146	179,071	-0,080	0,085
-239,132	-200,000	-0,015	-0,052
-238,117	-123,057	0,142	-0,016
-237,103	20,081	0,079	-0,046
-236,088	633,596	-0,078	-0,143
-235,073	-25,551	-0,049	0,021
-234,059	-158,311	-0,034	-0,001
-233,044	42,027	0,056	0,036
-232,030	154,630	0,045	-0,044
-231,015	800,000	-0,034	0,107
-230,000	-171,306	-0,068	0,002
-228,986	-200,000	0,012	0,130
-227,971	-162,881	-0,141	-0,005
-226,957	-53,409	0,147	-0,048
-225,942	-200,000	0,003	0,018
-224,927	390,917	0,006	0,009
-223,913	206,298	-0,051	-0,058
-222,898	210,805	0,033	-0,037
-221,884	-23,509	0,094	0,041
-220,869	37,159	0,023	0,015
-219,855	-39,438	0,091	-0,034
-218,840	70,820	0,074	0,055
-217,825	22,551	0,054	-0,032
-216,811	-127,644	-0,127	-0,013
-215,796	93,500	-0,057	-0,047
-214,782	800,000	0,046	0,110
-213,767	-8,907	-0,107	0,052
-212,752	-113,749	0,096	0,013
-211,738	211,790	-0,036	0,041
-210,723	337,726	0,105	0,147
-209,709	-116,510	-0,025	0,003
-208,694	95,608	-0,103	-0,085
-207,679	-200,000	-0,029	0,118
-206,665	689,285	-0,025	-0,048
-205,650	166,207	0,074	0,076
-204,636	4,472	-0,033	0,018
-203,621	-200,000	-0,013	-0,116
-202,606	106,259	0,080	0,068
-201,592	-200,000	0,032	-0,201
-200,577	-200,000	-0,053	-0,202
-199,563	-97,143	0,111	0,021
-198,548	133,073	0,079	0,074
-197,533	410,046	-0,064	0,097
-196,519	-200,000	0,007	-0,076
-195,504	-34,869	0,127	0,050
-194,490	-9,320	-0,055	-0,026
-193,475	39,151	-0,068	-0,044
-192,460	-110,249	0,081	0,012
-191,446	-143,360	0,089	-0,006
-190,431	-200,000	0,025	-0,099
-189,417	34,924	-0,049	-0,031
-188,402	14,974	-0,032	-0,018
-187,387	-125,784	0,108	-0,012
-186,373	-200,000	-0,041	-0,162
-185,358	800,000	0,021	-0,063
-184,344	-200,000	-0,008	0,087
-183,329	530,687	0,064	0,109
-182,315	-102,539	-0,039	-0,007
-181,300	189,618	0,041	0,044
-180,285	-200,000	0,010	-0,097
-179,271	-200,000	0,006	-0,086
-178,256	50,687	-0,108	-0,074
-177,242	800,000	-0,013	-0,040
-176,227	-123,688	0,070	0,008
-175,212	-200,000	-0,017	-0,249
-174,198	-200,000	-0,008	-0,068
-173,183	-153,747	-0,093	-0,005
-172,169	800,000	-0,013	-0,038
-171,154	-200,000	0,003	-0,064
-170,139	-200,000	-0,012	0,076
-169,125	102,872	-0,106	0,090
-168,110	-113,939	-0,126	-0,017
-167,096	-200,000	-0,045	0,210
-166,081	-200,000	-0,001	-0,014
-165,066	85,630	-0,128	-0,101
-164,052	628,039	0,017	0,032
-163,037	50,935	-0,102	-0,069
-162,023	-200,000	-0,005	0,103
-161,008	-95,116	-0,075	-0,014
-159,993	73,917	-0,065	0,049
-158,979	-24,524	0,096	0,041
-157,964	502,294	-0,078	-0,131
-156,950	160,865	-0,099	-0,100
-155,935	170,655	0,054	-0,056
-154,920	160,720	-0,026	0,026
-153,906	-200,000	-0,001	0,070
-152,891	792,041	-0,032	0,064
-151,877	590,196	0,047	0,083
-150,862	211,447	-0,108	-0,123
-149,847	-83,139	-0,151	-0,035
-148,833	-200,000	-0,049	0,183
-147,818	800,000	0,038	-0,092
-146,804	204,072	0,029	-0,032
-145,789	-200,000	0,009	0,121
-144,775	-74,109	-0,058	0,015
-143,760	-4,392	0,049	-0,024
-142,745	-186,100	-0,115	0,001
-141,731	800,000	-0,034	-0,079
-140,716	-116,343	0,123	-0,016
-139,702	-80,287	-0,037	-0,009
-138,687	26,647	-0,026	0,016
-137,672	196,407	0,010	-0,011
-136,658	333,579	0,108	0,151
-135,643	271,060	-0,070	-0,088
-134,629	-165,125	-0,076	-0,002
-133,614	-200,000	0,019	0,072
-132,599	-66,304	0,094	0,027
-131,585	-51,360	-0,130	0,044
-130,570	-200,000	0,003	-0,031
-129,556	-200,000	-0,151	-0,000
-128,541	800,000	-0,071	-0,146
-127,526	500,246	-0,025	0,042
-126,512	-200,000	-0,030	0,105
-125,497	-21,907	-0,055	0,024
-124,483	-200,000	-0,003	0,226
-123,468	85,413	-0,066	0,052
-122,453	-200,000	0,033	-0,169
-121,439	800,000	-0,039	-0,095
-120,424	800,000	0,068	0,147
-119,410	-200,000	-0,019	-0,109
-118,395	438,306	0,006	0,010
-117,380	311,646	0,057	0,077
-116,366	-165,926	-0,068	-0,002
-115,351	93,430	-0,129	-0,105
-114,337	173,569	-0,035	0,036
-113,322	-163,027	0,165	0,006
-112,307	-123,875	0,092	0,010
-111,293	39,061	0,030	0,019
-110,278	-200,000	0,057	-0,228
-109,264	71,711	0,137	-0,102
-108,249	800,000	0,057	-0,170
-107,234	25,567	-0,097	-0,058
-106,220	-200,000	-0,006	-0,166
-105,205	-80,852	-0,139	0,033
-104,191	253,448	-0,081	-0,100
-103,176	-200,000	-0,011	0,037
-102,162	-76,689	-0,063	0,016
-101,147	-47,010	-0,128	0,045
-100,132	137,513	-0,052	-0,049
-99,118	-41,592	-0,088	-0,032
-98,103	212,851	-0,044	0,050
-97,089	601,184	-0,029	-0,051
-96,074	-24,755	0,098	0,042
-95,059	800,000	-0,037	0,097
-94,045	180,339	0,024	0,025
-93,030	-200,000	0,014	0,058
-92,016	151,970	-0,042	0,041
-91,001	-134,086	-0,073	0,006
-89,986	-1,789	0,043	-0,022
-88,972	-54,362	0,122	-0,040
-87,957	800,000	0,012	-0,029
-86,943	-200,000	-0,026	0,193
-85,928	28,450	-0,053	-0,032
-84,913	542,438	-0,096	-0,165
-83,899	-156,238	0,119	0,005
-82,884	31,970	0,112	0,069
-81,870	800,000	-0,021	-0,062
-80,855	800,000	0,068	-0,152
-79,840	-200,000	-0,008	0,081
-78,826	-148,151	-0,101	-0,006
-77,811	-94,054	-0,073	0,014
-76,797	68,087	0,083	-0,061
-75,782	711,968	-0,052	-0,098
-74,767	800,000	0,065	0,179
-73,753	525,095	0,104	0,177
-72,738	-108,589	-0,016	-0,002
-71,724	800,000	-0,054	-0,117
-70,709	2,663	-0,117	0,061
-69,694	-200,000	-0,026	0,086
-68,680	-49,391	0,093	0,032
-67,665	-200,000	-0,013	0,041
-66,651	19,016	0,107	-0,061
-65,636	239,440	-0,075	-0,090
-64,622	-177,701	-0,127	-0,002
-63,607	-200,000	-0,011	-0,070
-62,592	327,320	0,037	-0,052
-61,578	718,356	-0,039	0,076
-60,563	-200,000	0,014	0,110
-59,549	1,892	0,094	0,048
-58,534	-2,423	-1,804	-0,904
-57,519	800,000	-0,364	-0,942
-56,505	-200,000	-1,170	-4,791
-55,490	-19,846	0,851	0,376
-54,476	800,000	5,235	12,204
-53,461	-200,000	17,586	283,734
-52,446	800,000	727,357	2215,489
-51,432	535,013	1643,617	2808,410
-50,417	110,092	1634,312	1407,815
-49,403	75,707	1286,439	974,598
-48,388	32,070	1027,746	634,537
-47,373	20,221	989,371	571,777
-46,359	18,570	977,218	559,317
-45,344	15,669	973,688	547,779
-44,330	15,852	972,013	547,413
-43,315	15,472	970,078	545,059
-42,300	15,374	969,087	544,163
-41,286	15,322	968,086	543,410
-40,271	15,376	966,887	542,889
-39,257	15,393	965,876	542,356
-38,242	15,330	965,394	541,860
-37,227	15,356	964,527	541,437
-36,213	15,395	963,458	540,941
-35,198	15,339	962,766	540,350
-34,184	15,403	962,022	540,118
-33,169	15,378	960,940	539,407
-32,154	15,399	960,126	538,997
-31,140	15,415	959,188	538,500
-30,125	15,355	958,728	538,027
-29,111	15,402	957,535	537,487
-28,096	15,380	957,083	537,142
-27,082	15,342	956,375	536,600
-26,067	15,371	955,576	536,227
-25,052	15,320	954,739	535,571
-24,038	15,393	954,032	535,387
-23,023	15,342	953,380	534,835
-22,009	15,364	952,892	534,610
-20,994	15,410	952,107	534,296
-19,979	15,377	951,539	533,852
-18,965	15,370	950,990	533,499
-17,950	15,349	950,447	533,106
-16,936	15,389	949,661	532,773
-15,921	15,334	949,084	532,251
-14,906	15,245	948,266	531,488
-13,892	15,277	947,632	531,216
-12,877	15,180	947,150	530,613
-11,863	15,242	946,324	530,327
-10,848	15,281	945,847	530,162
-9,833	15,333	945,287	529,994
-8,819	15,346	944,860	529,775
-7,804	15,286	944,111	529,142
-6,790	15,267	943,644	528,800
-5,775	15,370	942,926	528,703
-4,760	15,300	942,274	528,095
-3,746	15,328	941,616	527,794
-2,731	15,143	940,941	526,810
-1,717	15,114	940,369	526,375
-0,702	15,129	939,722	526,041
0,313	14,941	939,127	525,908
1,327	18,080	936,795	534,443
2,342	26,862	794,232	476,384
3,356	23,290	459,904	270,353
4,371	-3,427	315,486	156,951
5,386	-7,454	297,175	143,738
6,400	-9,451	291,204	138,849
7,415	-9,880	288,749	137,242
8,429	-9,850	287,152	136,500
9,444	-10,062	286,329	135,889
10,459	-9,953	285,760	135,714
11,473	-10,140	285,232	135,268
12,488	-10,028	284,590	135,060
13,502	-10,105	284,103	134,742
14,517	-9,977	283,712	134,669
15,531	-10,029	283,197	134,362
16,546	-9,782	282,839	134,419
17,561	-9,921	282,426	134,077
18,575	-9,839	282,090	133,985
19,590	-10,170	281,830	133,531
20,604	-9,928	281,428	133,561
21,619	-9,897	281,156	133,450
22,634	-9,898	280,768	133,252
23,648	-10,015	280,446	132,975
24,663	-9,926	280,109	132,889
25,677	-9,891	279,777	132,753
26,692	-9,956	279,718	132,651
27,707	-9,919	279,409	132,528
28,721	-9,943	279,101	132,348
29,736	-9,974	278,859	132,192
30,750	-10,033	278,526	131,966
31,765	-10,117	278,351	131,791
32,780	-9,956	278,107	131,817
33,794	-10,009	277,804	131,611
34,809	-10,021	277,534	131,460
35,823	-9,984	277,282	131,364
36,838	-9,928	276,978	131,261
37,853	-9,987	276,764	131,093
38,867	-9,937	276,507	131,006
39,882	-10,124	276,403	130,769
40,896	-10,064	276,085	130,663
41,911	-10,057	275,908	130,575
42,926	-10,102	275,644	130,396
43,940	-10,083	275,321	130,249
44,955	-10,013	275,040	130,170
45,969	-10,048	274,831	130,027
46,984	-10,365	274,679	129,646
47,999	-10,335	274,233	129,453
49,013	-10,387	274,036	129,299
50,028	-10,533	273,745	129,013
51,042	-10,627	273,550	128,823
52,057	-10,747	273,154	128,513
53,071	-10,671	273,142	128,567
54,086	-10,525	272,948	128,600
55,101	-10,332	272,726	128,663
56,115	-10,255	272,652	128,688
57,130	-9,878	272,437	128,926
58,144	-9,812	272,175	128,851
59,159	-10,026	272,089	128,601
60,174	-9,814	271,799	128,649
61,188	-9,944	271,619	128,431
62,203	-9,788	271,352	128,438
63,217	-9,816	271,154	128,307
64,232	-9,843	270,866	128,135
65,247	-9,861	270,727	128,040
66,261	-9,817	270,495	127,960
67,276	-10,000	270,185	127,633
68,290	-10,125	269,853	127,350
69,305	-10,179	269,730	127,231
70,320	-10,053	269,372	127,167
71,334	-10,107	269,374	127,107
72,349	-9,864	269,008	127,146
73,363	-9,970	269,008	127,037
74,378	-9,908	268,695	126,935
75,393	-9,843	268,498	126,889
76,407	-9,965	268,348	126,696
77,422	-9,829	267,985	126,637
78,436	-9,908	267,787	126,461
79,451	-9,853	267,616	126,418
80,466	-9,904	267,397	126,257
81,480	-10,160	267,034	125,842
82,495	-10,042	266,982	125,913
83,509	-9,946	266,731	125,871
84,524	-9,841	266,544	125,867
85,539	-10,104	266,346	125,524
86,553	-10,009	266,036	125,453
87,568	-10,132	265,933	125,281
88,582	-10,079	265,653	125,186
89,597	-10,133	265,452	125,032
90,611	-9,883	265,235	125,144
91,626	-9,929	265,138	125,045
92,641	-9,785	264,837	125,022
93,655	-9,877	264,782	124,902
94,670	-9,990	264,519	124,665
95,684	-9,929	264,370	124,639
96,699	-9,853	264,169	124,600
97,714	-10,171	263,974	124,213
98,728	-10,109	263,794	124,173
99,743	-10,094	263,270	123,928
100,757	-10,080	263,258	123,924
101,772	-10,114	263,019	123,770
102,787	-9,984	262,715	123,732
103,801	-10,010	262,691	123,687
104,816	-9,972	262,654	123,692
105,830	-9,860	262,498	123,707
106,845	-9,853	262,143	123,535
107,860	-9,916	262,025	123,413
108,874	-9,953	261,921	123,320
109,889	-9,794	261,494	123,249
110,903	-9,934	261,209	122,979
111,918	-9,981	261,100	122,875
112,933	-9,933	261,045	122,881
113,947	-9,850	260,777	122,817
114,962	-10,061	260,672	122,570
115,976	-10,112	260,448	122,409
116,991	-9,978	260,258	122,428
118,006	-9,895	259,994	122,365
119,020	-9,973	259,943	122,261
120,035	-9,934	259,718	122,179
121,049	-9,809	259,556	122,202
122,064	-9,959	259,354	121,964
123,079	-9,802	259,274	122,054
124,093	-10,006	259,083	121,773
125,108	-10,087	258,748	121,535
126,122	-10,256	258,389	121,207
127,137	-10,304	258,212	121,072
128,151	-10,223	258,016	121,039
129,166	-10,157	257,897	121,030
130,181	-10,293	257,704	120,810
131,195	-10,251	257,478	120,730
132,210	-10,026	257,199	120,784
133,224	-9,943	257,037	120,770
134,239	-9,928	256,975	120,743
135,254	-9,958	256,828	120,638
136,268	-9,906	256,545	120,539
137,283	-10,209	256,283	120,142
138,297	-10,091	256,023	120,112
139,312	-10,462	256,024	119,779
140,327	-10,153	255,745	119,906
141,341	-9,716	255,617	120,213
142,356	-9,727	255,495	120,135
143,370	-9,818	255,416	120,009
144,385	-9,613	255,174	120,062
145,400	-9,820	254,968	119,775
146,414	-9,686	254,722	119,765
147,429	-9,662	254,604	119,719
148,443	-9,639	254,313	119,591
149,458	-9,661	254,271	119,542
150,473	-9,603	254,124	119,512
151,487	-9,773	253,830	119,217
152,502	-9,657	253,703	119,246
153,516	-9,750	253,471	119,047
154,531	-9,961	253,293	118,773
155,546	-9,635	253,095	118,948
156,560	-9,879	253,030	118,698
157,575	-9,959	252,794	118,509
158,589	-9,869	252,572	118,470
159,604	-9,715	252,387	118,504
160,619	-9,699	252,040	118,344
161,633	-9,745	252,073	118,310
162,648	-9,585	251,918	118,363
163,662	-9,825	251,766	118,077
164,677	-9,857	251,661	117,990
165,692	-9,805	251,396	117,900
166,706	-9,688	251,183	117,888
167,721	-9,714	251,088	117,811
168,735	-9,540	250,790	117,808
169,750	-9,587	250,753	117,740
170,764	-9,636	250,486	117,563
171,779	-9,722	250,470	117,472
172,794	-9,722	250,314	117,389
173,808	-9,846	250,053	117,152
174,823	-10,075	249,777	116,819
175,837	-10,111	249,523	116,659
176,852	-9,665	249,511	117,018
177,867	-9,587	249,315	116,982
178,881	-9,509	249,264	117,013
179,896	-9,596	249,007	116,809
180,910	-9,676	248,719	116,596
181,925	-9,598	248,640	116,614
182,940	-9,506	248,421	116,578
183,954	-9,560	248,336	116,483
184,969	-9,593	248,185	116,374
185,983	-9,620	248,006	116,258
186,998	-9,576	247,852	116,211
188,013	-9,632	247,706	116,086
189,027	-9,598	247,458	115,988
190,042	-9,585	247,382	115,952
191,056	-9,744	247,234	115,740
192,071	-9,774	247,053	115,620
193,086	-9,826	246,879	115,485
194,100	-9,566	246,469	115,499
195,115	-9,591	246,369	115,421
196,129	-9,653	246,319	115,336
197,144	-9,740	246,094	115,148
198,159	-9,549	245,784	115,151
199,173	-9,731	245,771	114,984
200,188	-9,816	245,730	114,884
201,202	-10,025	245,216	114,461
202,217	-10,171	244,960	114,211
203,232	-10,255	244,798	114,056
204,246	-9,856	244,786	114,369
205,261	-9,572	244,616	114,513
206,275	-10,340	244,351	113,747
207,290	-7,387	245,463	116,692
208,304	-0,617	247,597	123,318
209,319	3,430	248,668	127,204
210,334	3,701	248,770	127,470
211,348	3,881	248,538	127,489
212,363	4,067	248,558	127,642
213,377	4,483	248,317	127,851
214,392	4,003	248,140	127,352
215,407	3,890	247,985	127,168
216,421	3,939	247,903	127,155
217,436	4,131	247,831	127,265
218,450	4,362	247,690	127,372
219,465	3,886	247,337	126,786
220,480	3,709	247,238	126,578
221,494	3,822	247,075	126,577
222,509	3,723	246,804	126,346
223,523	3,789	246,687	126,329
224,538	3,427	246,310	125,827
225,553	3,448	246,272	125,813
226,567	3,590	246,107	125,835
227,582	3,598	246,203	125,879
228,596	3,723	245,831	125,780
229,611	3,489	245,770	125,546
230,626	3,515	245,268	125,299
231,640	3,382	245,344	125,219
232,655	3,705	245,121	125,358
233,669	3,493	244,956	125,089
234,684	3,266	244,743	124,784
235,699	3,783	244,734	125,189
236,713	3,946	244,753	125,321
237,728	3,470	244,466	124,775
238,742	3,378	244,063	124,483
239,757	3,491	243,890	124,476
240,772	3,435	243,780	124,363
241,786	3,748	243,663	124,546
242,801	3,529	243,398	124,222
243,815	3,339	243,398	124,058
244,830	3,566	243,238	124,149
245,844	3,621	243,221	124,173
246,859	3,606	242,940	124,007
247,874	3,516	242,676	123,789
248,888	3,617	242,423	123,730
249,903	3,787	242,379	123,833
250,917	3,811	242,351	123,828
251,932	3,753	242,342	123,765
252,947	3,913	242,080	123,748
253,961	3,553	241,747	123,278
254,976	3,650	241,682	123,312
255,990	3,661	241,541	123,238
257,005	3,419	241,415	122,968
258,020	3,283	241,116	122,696
259,034	3,427	241,079	122,782
260,049	3,494	240,941	122,754
261,063	3,452	240,741	122,607
262,078	3,450	240,458	122,451
263,093	3,778	240,483	122,715
264,107	3,791	240,246	122,593
265,122	3,579	239,975	122,275
266,136	3,587	239,883	122,224
267,151	3,648	239,939	122,290
268,166	3,595	239,606	122,067
269,180	3,298	239,409	121,719
270,195	4,010	239,471	122,306
271,209	4,136	239,360	122,339
272,224	3,662	239,027	121,782
273,239	3,325	238,748	121,362
274,253	3,508	238,590	121,416
275,268	3,740	238,598	121,592
276,282	3,665	238,483	121,464
277,297	3,374	238,219	121,089
278,312	3,454	237,938	120,998
279,326	3,516	237,883	121,008
280,341	3,524	237,880	121,002
281,355	3,620	237,815	121,034
282,370	3,715	237,620	120,999
283,384	3,652	237,350	120,801
284,399	3,414	237,185	120,519
285,414	3,400	236,892	120,348
286,428	3,599	236,756	120,425
287,443	3,718	236,649	120,453
288,457	3,425	236,596	120,185
289,472	3,899	236,573	120,534
290,487	3,633	236,223	120,138
291,501	3,598	235,933	119,952
292,516	3,274	235,857	119,649
293,530	3,358	235,634	119,591
294,545	3,578	235,604	119,737
295,560	3,705	235,458	119,751
296,574	3,348	235,285	119,374
297,589	3,348	235,158	119,299
298,603	3,826	235,133	119,648
299,618	3,914	234,893	119,584
300,633	3,741	234,864	119,423
301,647	3,866	234,686	119,419
302,662	4,122	234,696	119,613
303,676	3,825	234,547	119,296
304,691	3,907	234,383	119,265
305,706	3,967	234,334	119,276
306,720	3,908	234,060	119,080
307,735	3,830	233,913	118,935
308,749	3,578	233,679	118,611
309,764	3,384	233,557	118,388
310,779	3,448	233,298	118,296
311,793	3,245	232,975	117,964
312,808	3,110	232,967	117,846
313,822	3,172	232,672	117,734
314,837	3,320	232,509	117,755
315,852	3,380	232,374	117,722
316,866	3,784	232,359	118,015
317,881	3,764	232,288	117,953
318,895	3,824	232,208	117,947
319,910	4,004	232,043	117,992
320,925	3,805	231,813	117,712
321,939	3,465	231,627	117,346
322,954	3,738	231,584	117,523
323,968	3,663	231,236	117,278
324,983	3,258	231,248	116,964
325,997	3,810	231,049	117,274
327,012	3,768	231,020	117,217
328,027	3,650	230,835	117,023
329,041	3,939	230,706	117,168
330,056	4,020	230,703	117,217
331,070	4,030	230,420	117,071
332,085	4,038	230,356	117,034
333,100	4,062	230,148	116,936
334,114	3,954	229,981	116,759
335,129	4,022	229,860	116,739
336,143	3,881	229,694	116,537
337,158	3,807	229,572	116,408
338,173	4,067	229,369	116,492
339,187	3,910	229,154	116,253
340,202	4,227	229,038	116,424
341,216	3,812	229,016	116,089
342,231	3,762	228,775	115,919
343,246	3,707	228,677	115,817
344,260	3,886	228,516	115,860
345,275	3,963	228,563	115,932
346,289	4,125	228,348	115,934
347,304	3,983	228,216	115,750
348,319	4,040	227,941	115,643
349,333	3,979	227,854	115,542
350,348	3,746	227,575	115,216
351,362	3,829	227,342	115,150
352,377	3,624	227,229	114,929
353,392	3,432	227,097	114,709
354,406	3,832	227,048	114,973
355,421	194,190	1322,022	1394,735
356,435	155,633	1455,424	1394,728
