DTS Sentinel unit serial number:	SN410029Multiplexer serial number:	ORYXHardware model number:	OX2-SRSoftware version number:	ORYX F/W v4,00 Oryx Data Collector v3.7.2.0data status	okinstallation	B5 Nyhavnadifferential loss correction	single-endedforward channel	channel 2reverse channel	N/Adate	2023/12/12time	12:57:13forward acquisition time	300,00reverse acquisition time	0,00gamma	499,1914k internal	0,3158k external	0,3158temperature offset calibration	1,0000default loss term (dB/km)	0,3820temperature slope calibration	1,0000multiplexer offset coefficient	1,0000multiplexer slope coefficient	1,0000fibre end	0,00T internal ref (°C)	15,45T ext. ref 1 (°C)	-0,46T ext. ref 2 (°C)	-0,70length (m)	temperature (°C)	Stokes	anti-Stokes-744,400	-200,000	0,032	0,152
-743,385	-192,603	-0,290	-0,002
-742,371	-200,000	0,012	0,078
-741,356	145,321	-0,134	0,132
-740,342	-18,145	0,233	0,107
-739,327	-64,023	-0,234	0,070
-738,312	-185,654	0,020	0,000
-737,298	-90,306	-0,232	0,049
-736,283	53,478	0,156	-0,110
-735,269	-161,853	-0,247	-0,009
-734,254	617,956	0,056	-0,103
-733,239	-21,284	-0,336	-0,151
-732,225	-17,568	0,113	0,052
-731,210	-200,000	-0,016	0,127
-730,196	800,000	-0,048	0,120
-729,181	-92,861	0,085	0,017
-728,167	-44,149	-0,050	0,018
-727,152	-11,336	0,015	0,007
-726,137	-113,406	-0,223	-0,032
-725,123	266,877	0,044	-0,057
-724,108	128,963	-0,105	-0,099
-723,094	-200,000	0,020	0,182
-722,079	158,414	-0,072	-0,074
-721,064	62,538	-0,076	0,056
-720,050	313,295	0,027	0,038
-719,035	800,000	0,059	0,139
-718,021	-180,657	-0,102	-0,002
-717,006	800,000	-0,044	-0,125
-715,991	-200,000	0,009	0,112
-714,977	-125,056	0,109	-0,012
-713,962	800,000	-0,065	-0,140
-712,948	-200,000	-0,023	0,131
-711,933	63,850	0,051	-0,037
-710,918	-200,000	0,012	0,122
-709,904	-200,000	-0,005	0,100
-708,889	533,204	-0,061	0,107
-707,875	-144,415	-0,021	-0,001
-706,860	800,000	-0,011	0,036
-705,845	-200,000	0,020	-0,111
-704,831	-121,685	0,182	-0,022
-703,816	-155,787	0,070	-0,003
-702,802	-80,827	0,183	-0,044
-701,787	368,842	-0,063	0,094
-700,772	800,000	0,059	-0,155
-699,758	-59,072	-0,236	0,075
-698,743	-137,030	0,089	0,007
-697,729	800,000	0,022	0,064
-696,714	-21,340	0,075	-0,033
-695,699	-200,000	0,003	-0,081
-694,685	-60,184	-0,141	-0,044
-693,670	-200,000	0,017	0,095
-692,656	-13,687	0,058	0,028
-691,641	-70,804	-0,081	0,022
-690,627	83,625	-0,072	0,057
-689,612	270,777	0,042	0,054
-688,597	-120,656	-0,115	-0,014
-687,583	-152,592	-0,236	-0,012
-686,568	660,077	-0,018	-0,034
-685,554	-200,000	-0,020	-0,105
-684,539	-200,000	0,006	-0,125
-683,524	800,000	0,031	0,064
-682,510	-53,708	0,040	0,013
-681,495	-200,000	0,048	0,175
-680,481	-149,190	-0,086	0,005
-679,466	800,000	-0,020	-0,043
-678,451	253,919	-0,065	-0,082
-677,437	230,374	-0,026	0,031
-676,422	-54,619	0,153	0,051
-675,408	235,742	0,027	0,033
-674,393	428,579	-0,052	0,083
-673,378	-116,845	0,060	-0,008
-672,364	-200,000	-0,012	0,233
-671,349	-200,000	-0,006	0,027
-670,335	800,000	0,068	0,189
-669,320	140,315	0,148	-0,144
-668,305	247,999	-0,137	0,171
-667,291	800,000	0,045	0,104
-666,276	-200,000	-0,019	0,139
-665,262	-18,915	-0,065	0,030
-664,247	800,000	0,097	-0,241
-663,232	412,572	-0,015	0,023
-662,218	66,657	0,071	0,053
-661,203	-58,230	-0,008	0,003
-660,189	-200,000	0,006	-0,124
-659,174	-102,937	-0,117	0,020
-658,159	-111,167	-0,092	0,014
-657,145	525,721	0,006	-0,011
-656,130	-200,000	-0,014	-0,115
-655,116	178,924	-0,049	0,053
-654,101	98,875	-0,027	0,023
-653,086	428,891	0,106	0,169
-652,072	-1,211	-0,052	-0,027
-651,057	534,288	-0,106	-0,185
-650,043	-1,047	-0,038	-0,020
-649,028	800,000	-0,015	0,031
-648,014	-18,406	-0,101	0,046
-646,999	-143,697	-0,033	-0,002
-645,984	800,000	-0,046	0,103
-644,970	503,082	-0,072	-0,123
-643,955	56,611	0,120	-0,086
-642,941	-200,000	0,026	-0,195
-641,926	-200,000	0,025	0,140
-640,911	664,291	0,023	0,044
-639,897	60,673	0,107	-0,078
-638,882	-61,178	-0,141	0,043
-637,868	-63,068	-0,081	0,024
-636,853	260,661	-0,062	-0,079
-635,838	470,706	-0,100	-0,166
-634,824	-200,000	-0,021	0,071
-633,809	59,809	0,136	-0,099
-632,795	-126,436	-0,139	0,015
-631,780	-68,747	0,091	0,026
-630,765	-200,000	0,011	0,077
-629,751	800,000	-0,020	-0,050
-628,736	-185,009	-0,096	-0,001
-627,722	-83,369	0,057	0,013
-626,707	399,267	0,027	0,041
-625,692	-175,305	-0,108	-0,002
-624,678	-200,000	-0,024	0,150
-623,663	159,644	0,083	0,084
-622,649	-200,000	0,023	-0,097
-621,634	67,990	0,097	-0,073
-620,619	-200,000	0,012	-0,055
-619,605	-200,000	-0,004	-0,065
-618,590	144,679	0,042	-0,041
-617,576	-94,961	0,084	0,017
-616,561	-200,000	0,005	-0,155
-615,546	-200,000	0,012	-0,118
-614,532	-100,998	-0,101	-0,018
-613,517	-70,220	-0,112	-0,031
-612,503	-200,000	0,015	-0,070
-611,488	-147,481	0,058	-0,004
-610,474	-107,938	0,056	-0,009
-609,459	800,000	-0,041	-0,124
-608,444	-51,970	-0,113	0,038
-607,430	800,000	-0,029	0,080
-606,415	-200,000	0,003	-0,026
-605,401	-200,000	0,016	-0,069
-604,386	-200,000	-0,025	0,155
-603,371	72,711	-0,034	0,026
-602,357	-16,019	0,050	-0,023
-601,342	69,883	0,018	-0,014
-600,328	-200,000	-0,003	-0,067
-599,313	-200,000	0,013	-0,069
-598,298	-200,000	-0,001	0,045
-597,284	667,351	-0,041	-0,079
-596,269	-200,000	0,037	0,230
-595,255	39,320	-0,039	-0,025
-594,240	575,948	-0,024	-0,043
-593,225	-200,000	0,016	-0,071
-592,211	-200,000	-0,001	0,072
-591,196	-166,681	0,055	0,002
-590,182	366,013	0,051	0,075
-589,167	501,362	-0,057	-0,096
-588,152	-119,899	0,031	0,004
-587,138	-128,021	-0,073	0,008
-586,123	-200,000	0,007	-0,110
-585,109	-146,513	-0,005	-0,000
-584,094	-200,000	0,003	0,117
-583,079	800,000	0,017	0,039
-582,065	-2,272	0,131	0,067
-581,050	-200,000	0,024	0,095
-580,036	-123,322	-0,075	0,009
-579,021	260,164	-0,071	-0,090
-578,006	-17,691	-0,033	-0,015
-576,992	-93,542	0,087	0,017
-575,977	-17,498	0,075	0,035
-574,963	-200,000	0,010	0,095
-573,948	800,000	-0,020	-0,051
-572,934	570,073	0,062	0,111
-571,919	533,920	-0,045	-0,078
-570,904	273,407	0,099	-0,128
-569,890	-86,013	0,115	0,026
-568,875	-200,000	0,019	0,091
-567,861	800,000	0,042	0,095
-566,846	198,242	0,060	-0,068
-565,831	181,498	-0,032	-0,035
-564,817	75,448	0,026	0,020
-563,802	-90,667	0,044	0,009
-562,788	-111,525	-0,047	-0,007
-561,773	-40,875	0,060	0,023
-560,758	30,280	0,070	-0,043
-559,744	-200,000	0,008	-0,130
-558,729	122,217	-0,056	0,051
-557,715	-70,873	-0,104	-0,029
-556,700	377,368	0,043	-0,065
-555,685	-15,425	-0,131	-0,061
-554,671	-200,000	0,028	0,117
-553,656	-75,761	0,059	0,015
-552,642	-105,943	-0,137	-0,022
-551,627	-5,924	-0,076	0,038
-550,612	-80,197	0,172	-0,042
-549,598	-26,698	-0,124	-0,053
-548,583	66,975	-0,091	-0,068
-547,569	-200,000	-0,151	-0,000
-546,554	213,040	0,038	0,044
-545,539	171,447	-0,124	0,130
-544,525	-200,000	-0,039	-0,126
-543,510	504,785	-0,015	0,026
-542,496	-144,731	-0,169	-0,011
-541,481	-127,952	0,011	0,001
-540,466	96,922	-0,091	-0,076
-539,452	418,776	0,023	-0,036
-538,437	800,000	0,080	0,225
-537,423	-200,000	0,032	0,110
-536,408	77,812	0,156	0,122
-535,393	800,000	0,047	-0,097
-534,379	180,328	-0,096	-0,103
-533,364	7,824	0,025	-0,014
-532,350	-10,788	0,081	0,039
-531,335	800,000	-0,026	0,066
-530,321	49,023	0,011	-0,008
-529,306	281,460	0,082	-0,107
-528,291	-200,000	-0,048	-0,196
-527,277	-200,000	-0,019	-0,083
-526,262	115,258	-0,052	-0,047
-525,248	287,807	-0,015	0,020
-524,233	-200,000	0,003	-0,044
-523,218	-200,000	0,005	-0,076
-522,204	105,434	0,152	0,132
-521,189	-200,000	-0,007	-0,080
-520,175	-200,000	0,018	-0,083
-519,160	323,235	-0,030	0,042
-518,145	81,040	0,141	-0,111
-517,131	-99,374	-0,204	-0,037
-516,116	800,000	0,021	-0,043
-515,102	199,540	-0,113	-0,126
-514,087	743,177	-0,050	-0,099
-513,072	800,000	-0,038	-0,085
-512,058	409,792	0,049	-0,076
-511,043	368,143	0,021	-0,031
-510,029	-174,221	-0,228	-0,005
-509,014	-124,202	0,065	-0,007
-507,999	-15,971	0,124	-0,057
-506,985	-23,759	0,076	-0,033
-505,970	738,171	-0,038	-0,075
-504,956	253,949	0,054	-0,068
-503,941	-64,471	0,151	0,045
-502,926	-174,075	-0,042	0,001
-501,912	0,029	0,027	0,014
-500,897	31,109	0,076	0,047
-499,883	-200,000	-0,035	-0,132
-498,868	69,704	-0,061	-0,046
-497,853	-200,000	-0,005	-0,024
-496,839	800,000	-0,030	0,082
-495,824	-200,000	0,010	0,098
-494,810	129,778	0,063	0,059
-493,795	-64,233	-0,051	-0,015
-492,781	-158,510	-0,120	-0,005
-491,766	-65,789	-0,029	-0,008
-490,751	326,354	-0,051	0,071
-489,737	-200,000	-0,005	-0,038
-488,722	-96,562	0,058	-0,011
-487,708	622,194	0,021	0,039
-486,693	-187,168	0,077	-0,001
-485,678	-200,000	-0,007	0,082
-484,664	61,096	0,121	-0,087
-483,649	347,770	0,049	0,071
-482,635	187,509	-0,040	0,044
-481,620	537,589	-0,041	0,071
-480,605	383,996	-0,045	-0,068
-479,591	140,913	0,104	0,101
-478,576	54,491	-0,132	-0,093
-477,562	-200,000	-0,003	-0,058
-476,547	-127,236	0,076	0,008
-475,532	800,000	-0,017	0,036
-474,518	-145,833	0,061	0,004
-473,503	-35,754	0,151	-0,059
-472,489	-167,002	-0,144	-0,004
-471,474	-200,000	-0,014	-0,103
-470,459	43,648	-0,082	0,055
-469,445	-200,000	-0,017	-0,125
-468,430	118,033	-0,019	0,017
-467,416	-200,000	-0,010	0,056
-466,401	800,000	0,034	-0,089
-465,386	786,722	0,057	-0,114
-464,372	800,000	-0,047	0,137
-463,357	667,894	-0,045	0,086
-462,343	-57,592	-0,022	-0,007
-461,328	101,162	-0,050	0,043
-460,313	313,785	0,085	0,117
-459,299	79,465	0,079	0,061
-458,284	153,538	-0,073	0,073
-457,270	-200,000	-0,012	0,117
-456,255	-200,000	0,016	-0,055
-455,241	-200,000	-0,022	-0,157
-454,226	23,075	0,060	0,036
-453,211	-200,000	-0,003	-0,094
-452,197	-39,685	-0,037	-0,014
-451,182	275,408	-0,098	-0,127
-450,168	591,390	0,027	-0,049
-449,153	49,277	-0,093	-0,064
-448,138	267,828	-0,026	-0,033
-447,124	800,000	-0,016	0,045
-446,109	138,359	-0,049	-0,047
-445,095	699,935	-0,023	-0,045
-444,080	455,634	-0,069	-0,112
-443,065	417,841	-0,055	-0,087
-442,051	-89,690	0,020	0,004
-441,036	800,000	-0,021	-0,050
-440,022	800,000	-0,038	-0,089
-439,007	145,321	-0,058	-0,057
-437,992	533,187	0,070	0,121
-436,978	-200,000	0,012	-0,111
-435,963	-85,043	0,039	0,009
-434,949	800,000	-0,088	-0,229
-433,934	-200,000	-0,018	-0,143
-432,919	-200,000	-0,006	-0,051
-431,905	147,081	0,090	-0,089
-430,890	118,308	0,063	-0,057
-429,876	-200,000	-0,020	0,084
-428,861	-122,492	0,064	-0,008
-427,846	296,613	-0,109	-0,146
-426,832	-200,000	0,002	-0,142
-425,817	219,932	-0,067	-0,078
-424,803	800,000	0,016	-0,048
-423,788	-93,209	0,137	0,028
-422,773	-141,836	-0,179	-0,013
-421,759	479,200	0,052	0,086
-420,744	-106,553	-0,153	0,025
-419,730	800,000	-0,012	0,035
-418,715	237,801	-0,112	-0,136
-417,701	379,458	0,027	0,040
-416,686	-153,104	0,039	0,002
-415,671	199,249	-0,100	-0,112
-414,657	229,007	-0,057	-0,068
-413,642	21,744	0,023	-0,014
-412,628	300,395	0,021	0,028
-411,613	1,450	-0,073	0,038
-410,598	-200,000	0,004	-0,074
-409,584	-128,224	-0,097	-0,010
-408,569	472,314	-0,045	0,074
-407,555	367,050	0,093	0,136
-406,540	231,571	-0,067	0,080
-405,525	293,276	0,062	0,083
-404,511	-139,530	0,026	0,002
-403,496	-33,848	-0,213	0,085
-402,482	-77,547	0,176	0,044
-401,467	-128,466	0,156	0,016
-400,452	137,770	-0,091	0,087
-399,438	-83,593	-0,144	-0,033
-398,423	-200,000	-0,004	0,116
-397,409	-200,000	0,019	-0,131
-396,394	82,712	0,035	-0,028
-395,379	-123,467	0,075	-0,009
-394,365	-77,987	0,069	0,017
-393,350	-22,758	0,094	-0,041
-392,336	800,000	0,009	-0,026
-391,321	-170,733	-0,128	0,003
-390,306	-200,000	-0,002	0,079
-389,292	137,516	-0,082	-0,079
-388,277	-200,000	0,037	0,128
-387,263	91,720	0,149	0,121
-386,248	-73,050	0,094	-0,025
-385,233	-200,000	0,016	0,096
-384,219	31,063	0,108	-0,067
-383,204	-200,000	0,027	-0,093
-382,190	393,561	-0,039	0,059
-381,175	274,083	-0,070	0,090
-380,160	-200,000	-0,009	0,037
-379,146	103,031	-0,061	0,052
-378,131	-200,000	-0,012	0,097
-377,117	-200,000	-0,002	-0,019
-376,102	-64,267	0,062	0,018
-375,088	-117,577	0,085	-0,011
-374,073	-173,855	0,101	-0,002
-373,058	800,000	0,002	-0,007
-372,044	-200,000	0,016	0,146
-371,029	-200,000	-0,003	0,117
-370,015	-200,000	-0,032	-0,236
-369,000	-200,000	0,010	0,066
-367,985	-137,126	-0,078	-0,006
-366,971	-158,175	0,036	-0,002
-365,956	223,368	0,045	0,053
-364,942	-110,245	0,029	0,004
-363,927	-92,119	-0,067	-0,014
-362,912	0,123	-0,028	-0,014
-361,898	-34,845	-0,085	0,034
-360,883	-200,000	-0,037	-0,131
-359,869	-24,321	-0,096	0,041
-358,854	343,216	0,038	0,054
-357,839	-200,000	-0,018	0,080
-356,825	-200,000	-0,017	0,129
-355,810	-200,000	-0,011	0,238
-354,796	90,351	-0,074	-0,060
-353,781	73,203	-0,073	-0,056
-352,766	800,000	-0,016	-0,045
-351,752	-59,155	0,148	0,046
-350,737	-9,998	0,106	0,051
-349,723	-200,000	-0,007	-0,043
-348,708	-5,333	-0,176	-0,087
-347,693	-143,022	-0,144	0,010
-346,679	484,659	-0,080	0,133
-345,664	-3,736	-0,122	0,061
-344,650	-3,905	-0,100	0,050
-343,635	-102,040	-0,062	-0,011
-342,620	-73,220	0,096	-0,025
-341,606	-200,000	0,026	0,145
-340,591	-74,234	-0,088	-0,023
-339,577	222,959	0,048	-0,056
-338,562	800,000	0,033	0,086
-337,548	684,320	0,030	0,057
-336,533	134,582	-0,044	0,041
-335,518	599,817	-0,075	0,136
-334,504	270,317	-0,024	0,030
-333,489	-60,767	-0,030	0,009
-332,475	286,422	0,031	-0,041
-331,460	-51,319	-0,133	-0,045
-330,445	433,594	-0,016	-0,025
-329,431	267,081	0,041	0,052
-328,416	245,321	0,022	-0,027
-327,402	-8,467	-0,096	0,047
-326,387	800,000	0,036	0,108
-325,372	206,029	0,085	0,096
-324,358	-37,892	0,047	0,018
-323,343	-200,000	0,020	-0,095
-322,329	198,208	0,109	-0,121
-321,314	-200,000	-0,002	0,015
-320,299	-93,519	-0,100	0,020
-319,285	34,862	-0,130	0,082
-318,270	-47,386	-0,066	-0,023
-317,256	800,000	0,038	-0,078
-316,241	-8,591	0,081	0,039
-315,226	-200,000	0,002	0,076
-314,212	99,409	0,092	0,077
-313,197	-200,000	0,016	0,101
-312,183	444,443	0,083	0,133
-311,168	746,275	0,055	-0,107
-310,153	-26,633	0,023	0,010
-309,139	-200,000	-0,009	-0,041
-308,124	462,562	-0,025	0,041
-307,110	153,579	-0,051	-0,051
-306,095	-17,591	0,181	0,082
-305,080	-51,414	-0,014	-0,005
-304,066	800,000	0,050	-0,113
-303,051	-177,512	-0,120	0,002
-302,037	-58,962	-0,037	-0,011
-301,022	-65,545	-0,041	-0,012
-300,008	7,718	0,199	0,107
-298,993	35,794	0,026	-0,016
-297,978	-200,000	-0,009	0,111
-296,964	800,000	0,029	0,065
-295,949	800,000	-0,028	-0,077
-294,935	2,178	-0,048	0,025
-293,920	10,019	-0,064	-0,035
-292,905	-70,259	0,031	0,009
-291,891	55,369	-0,093	-0,065
-290,876	-200,000	-0,008	-0,104
-289,862	112,318	0,028	-0,025
-288,847	201,950	0,040	0,045
-287,832	28,859	0,073	-0,045
-286,818	79,087	-0,132	0,102
-285,803	-108,376	0,067	0,010
-284,789	-72,340	-0,032	-0,009
-283,774	296,633	0,044	0,059
-282,759	-101,017	-0,054	-0,009
-281,745	72,466	0,032	0,024
-280,730	439,163	-0,061	0,096
-279,716	-20,205	0,112	-0,050
-278,701	-154,614	0,029	-0,001
-277,686	-196,941	-0,048	0,000
-276,672	70,009	0,103	-0,077
-275,657	0,694	0,105	0,054
-274,643	-41,118	-0,120	0,045
-273,628	-98,491	0,137	-0,025
-272,613	737,550	-0,025	0,049
-271,599	-66,072	0,186	0,053
-270,584	-33,556	0,124	-0,049
-269,570	-106,188	-0,101	0,016
-268,555	111,709	0,057	0,050
-267,540	800,000	0,048	-0,098
-266,526	800,000	0,013	0,027
-265,511	-94,355	0,102	-0,020
-264,497	746,993	0,026	0,051
-263,482	193,911	0,026	0,029
-262,467	-200,000	0,001	-0,011
-261,453	800,000	0,010	-0,028
-260,438	568,298	-0,020	-0,035
-259,424	-198,423	-0,109	0,000
-258,409	405,690	-0,038	0,058
-257,395	785,842	0,029	0,058
-256,380	73,368	0,059	0,045
-255,365	800,000	0,031	0,096
-254,351	-146,526	-0,189	0,012
-253,336	72,001	-0,049	0,037
-252,322	800,000	-0,006	-0,014
-251,307	800,000	-0,010	0,021
-250,292	800,000	0,012	-0,036
-249,278	249,523	-0,045	0,055
-248,263	-200,000	0,017	-0,103
-247,249	101,738	-0,059	-0,050
-246,234	-33,936	0,036	-0,014
-245,219	-50,807	0,026	-0,009
-244,205	-58,362	0,064	0,020
-243,190	296,719	0,059	0,078
-242,176	-64,140	-0,034	0,010
-241,161	-200,000	0,013	0,090
-240,146	-11,742	0,031	-0,015
-239,132	207,145	0,057	-0,064
-238,117	157,176	-0,089	0,089
-237,103	143,899	0,155	-0,149
-236,088	-0,155	-0,092	0,047
-235,073	694,566	0,046	0,088
-234,059	-200,000	0,036	0,145
-233,044	176,428	-0,062	-0,065
-232,030	-16,452	0,116	-0,053
-231,015	142,528	-0,029	0,027
-230,000	204,947	-0,075	-0,084
-228,986	-5,504	-0,070	-0,035
-227,971	-200,000	-0,022	0,102
-226,957	-165,707	0,092	0,003
-225,942	-26,375	-0,086	0,036
-224,927	147,729	-0,049	-0,048
-223,913	-38,821	0,095	-0,036
-222,898	24,345	0,035	0,021
-221,884	-75,998	0,014	-0,004
-220,869	-39,873	0,105	0,040
-219,855	800,000	0,032	-0,064
-218,840	100,978	-0,141	-0,118
-217,825	-200,000	0,007	0,095
-216,811	-16,418	0,091	-0,041
-215,796	-104,399	-0,085	-0,014
-214,782	-200,000	0,010	0,048
-213,767	-85,700	0,296	0,066
-212,752	-200,000	-0,004	-0,120
-211,738	-31,739	0,041	0,016
-210,723	-185,929	0,125	0,001
-209,709	96,358	0,042	-0,035
-208,694	-3,364	-0,116	-0,058
-207,679	-200,000	-0,029	-0,156
-206,665	-200,000	-0,010	-0,071
-205,650	89,849	0,033	0,026
-204,636	31,928	-0,096	-0,059
-203,621	69,298	0,114	0,085
-202,606	531,163	-0,072	-0,124
-201,592	-73,244	-0,131	0,034
-200,577	-52,206	0,080	0,027
-199,563	677,312	0,071	0,134
-198,548	-200,000	-0,021	0,095
-197,533	69,120	-0,105	0,078
-196,519	-4,141	0,157	0,078
-195,504	-102,654	-0,078	0,013
-194,490	-93,037	0,084	-0,017
-193,475	-84,287	-0,199	-0,045
-192,460	-200,000	0,001	-0,008
-191,446	800,000	0,061	0,174
-190,431	12,098	-0,081	0,045
-189,417	7,918	0,112	0,060
-188,402	-74,754	-0,095	0,024
-187,387	-75,121	-0,058	0,015
-186,373	121,765	0,053	-0,048
-185,358	-94,665	-0,025	0,005
-184,344	-200,000	0,028	0,120
-183,329	-200,000	-0,003	0,088
-182,315	16,411	0,078	0,044
-181,300	-114,434	-0,025	0,003
-180,285	-152,797	-0,107	0,005
-179,271	800,000	0,013	-0,033
-178,256	-200,000	0,009	0,053
-177,242	-200,000	-0,005	0,047
-176,227	29,014	0,008	-0,005
-175,212	-54,365	0,074	-0,024
-174,198	-41,534	0,054	-0,020
-173,183	800,000	0,049	-0,139
-172,169	468,245	-0,031	0,050
-171,154	-20,598	0,077	0,034
-170,139	-141,952	-0,177	0,013
-169,125	-200,000	-0,015	0,091
-168,110	-111,992	-0,100	0,014
-167,096	285,758	0,076	-0,099
-166,081	-200,000	-0,003	-0,051
-165,066	800,000	-0,024	0,051
-164,052	-200,000	-0,030	-0,108
-163,037	-16,958	0,046	-0,021
-162,023	279,832	0,101	-0,130
-161,008	224,317	0,035	-0,041
-159,993	262,080	0,056	0,070
-158,979	-38,028	0,106	-0,040
-157,964	-69,039	0,067	-0,018
-156,950	-200,000	-0,022	0,088
-155,935	-64,989	0,085	-0,025
-154,920	419,233	0,017	0,027
-153,906	800,000	0,028	0,071
-152,891	284,621	0,135	0,175
-151,877	-200,000	0,008	0,049
-150,862	40,440	-0,079	-0,051
-149,847	-200,000	0,003	-0,123
-148,833	-145,341	0,093	0,006
-147,818	95,251	0,179	0,147
-146,804	282,518	-0,039	-0,050
-145,789	186,953	-0,038	-0,041
-144,775	71,229	-0,098	-0,073
-143,760	106,153	-0,028	-0,024
-142,745	-11,520	0,022	0,011
-141,731	-127,953	0,100	0,010
-140,716	800,000	0,018	-0,044
-139,702	251,213	0,025	0,030
-138,687	140,620	0,074	-0,070
-137,672	58,080	-0,024	-0,017
-136,658	-200,000	-0,012	-0,163
-135,643	-20,099	0,150	0,066
-134,629	800,000	-0,032	0,088
-133,614	45,049	0,076	0,050
-132,599	800,000	-0,031	0,095
-131,585	26,598	0,102	0,061
-130,570	244,314	-0,068	0,082
-129,556	800,000	-0,035	-0,107
-128,541	271,284	-0,152	-0,193
-127,526	-46,658	0,087	0,030
-126,512	800,000	0,017	0,050
-125,497	-3,311	0,192	0,096
-124,483	124,229	-0,027	0,024
-123,468	483,138	0,082	0,134
-122,453	-200,000	-0,016	0,068
-121,439	-50,651	-0,042	-0,014
-120,424	65,230	0,064	0,046
-119,410	52,232	-0,116	0,079
-118,395	800,000	0,034	-0,087
-117,380	283,484	-0,049	-0,064
-116,366	-121,260	-0,026	0,003
-115,351	-132,996	-0,081	0,007
-114,337	204,216	0,015	-0,017
-113,322	-1,960	-0,222	0,112
-112,307	-126,550	0,128	-0,013
-111,293	409,249	0,036	0,056
-110,278	-200,000	0,004	-0,049
-109,264	52,911	-0,034	0,023
-108,249	37,585	0,007	-0,005
-107,234	192,277	-0,074	-0,081
-106,220	460,185	0,058	-0,093
-105,205	538,501	0,061	0,104
-104,191	800,000	0,049	-0,104
-103,176	-71,911	0,156	0,041
-102,162	-200,000	0,002	-0,006
-101,147	-160,255	0,017	0,001
-100,132	533,225	-0,028	-0,048
-99,118	509,352	-0,055	-0,092
-98,103	-5,733	-0,020	0,010
-97,089	294,118	0,104	0,136
-96,074	64,201	0,107	0,077
-95,059	800,000	0,057	-0,129
-94,045	244,384	-0,053	-0,064
-93,030	491,215	0,010	-0,016
-92,016	33,856	-0,180	-0,113
-91,001	104,759	0,024	-0,020
-89,986	-200,000	0,020	0,112
-88,972	-22,768	0,027	0,011
-87,957	-26,442	0,108	0,045
-86,943	163,617	0,070	0,071
-85,928	-51,821	-0,054	0,018
-84,913	112,167	0,030	0,026
-83,899	746,489	-0,027	-0,053
-82,884	800,000	-0,012	0,032
-81,870	-160,198	0,119	0,005
-80,855	42,752	-0,084	-0,055
-79,840	34,510	-0,082	0,051
-78,826	218,684	-0,093	-0,107
-77,811	-200,000	0,005	0,076
-76,797	-88,903	-0,126	-0,027
-75,782	213,400	0,062	-0,071
-74,767	-200,000	-0,028	-0,131
-73,753	800,000	0,041	0,087
-72,738	-200,000	0,015	-0,048
-71,724	-200,000	0,002	-0,082
-70,709	-200,000	0,022	0,085
-69,694	248,851	0,066	-0,080
-68,680	180,180	-0,097	0,102
-67,665	-200,000	0,035	0,163
-66,651	-200,000	-0,023	0,084
-65,636	625,185	-0,101	-0,184
-64,622	167,694	0,078	-0,080
-63,607	-200,000	-0,010	0,109
-62,592	-22,225	-0,064	0,028
-61,578	177,998	-0,052	0,055
-60,563	-76,617	0,153	0,038
-59,549	-200,000	-0,005	0,127
-58,534	-2,349	-1,759	-0,882
-57,519	800,000	-0,352	-0,932
-56,505	-200,000	-1,317	-4,860
-55,490	27,628	0,735	0,443
-54,476	800,000	5,272	12,087
-53,461	-200,000	17,596	282,418
-52,446	800,000	725,486	2214,796
-51,432	536,852	1641,781	2808,549
-50,417	110,187	1632,890	1406,714
-49,403	74,917	1286,036	970,905
-48,388	32,094	1027,648	634,409
-47,373	20,079	989,558	571,278
-46,359	18,541	977,395	559,193
-45,344	15,755	973,540	547,848
-44,330	15,977	972,194	547,794
-43,315	15,501	970,337	545,174
-42,300	15,456	969,199	544,363
-41,286	15,486	968,135	543,844
-40,271	15,419	967,029	542,983
-39,257	15,481	966,116	542,648
-38,242	15,476	965,232	542,114
-37,227	15,551	964,453	541,899
-36,213	15,458	963,649	541,123
-35,198	15,417	962,848	540,520
-34,184	15,529	962,017	540,394
-33,169	15,472	961,202	539,732
-32,154	15,476	960,102	539,105
-31,140	15,447	959,382	538,587
-30,125	15,504	958,469	538,236
-29,111	15,482	957,711	537,718
-28,096	15,505	957,165	537,463
-27,082	15,454	956,539	536,927
-26,067	15,525	955,554	536,580
-25,052	15,535	954,651	536,084
-24,038	15,454	954,210	535,557
-23,023	15,521	953,367	535,276
-22,009	15,475	953,033	534,920
-20,994	15,485	952,418	534,585
-19,979	15,493	951,657	534,162
-18,965	15,419	951,143	533,616
-17,950	15,505	950,458	533,487
-16,936	15,437	949,808	532,884
-15,921	15,446	949,134	532,512
-14,906	15,398	948,272	531,856
-13,892	15,353	947,684	531,359
-12,877	15,421	947,114	531,236
-11,863	15,266	946,439	530,344
-10,848	15,344	946,155	530,411
-9,833	15,405	945,562	530,252
-8,819	15,428	944,881	529,923
-7,804	15,415	944,063	529,400
-6,790	15,331	943,627	528,868
-5,775	15,435	943,130	528,900
-4,760	15,408	942,445	528,409
-3,746	15,386	941,797	527,955
-2,731	15,293	941,047	527,219
-1,717	15,185	940,601	526,606
-0,702	15,252	939,677	526,280
0,313	15,100	938,991	526,210
1,327	18,273	936,922	534,998
2,342	27,360	794,400	477,688
3,356	24,292	459,354	271,501
4,371	-2,575	314,829	157,502
5,386	-6,634	296,648	144,282
6,400	-8,732	290,623	139,255
7,415	-9,147	288,150	137,647
8,429	-9,555	286,616	136,502
9,444	-9,478	285,681	136,121
10,459	-9,459	285,001	135,803
11,473	-9,325	284,396	135,633
12,488	-9,577	284,009	135,191
13,502	-9,540	283,403	134,927
14,517	-9,522	283,018	134,749
15,531	-9,545	282,512	134,474
16,546	-9,509	282,091	134,296
17,561	-9,616	281,729	134,009
18,575	-9,613	281,549	133,914
19,590	-9,740	280,997	133,518
20,604	-9,524	280,647	133,547
21,619	-9,496	280,227	133,362
22,634	-9,485	280,043	133,273
23,648	-9,494	279,767	133,121
24,663	-9,691	279,414	132,753
25,677	-9,741	279,207	132,595
26,692	-9,702	278,973	132,509
27,707	-9,677	278,700	132,391
28,721	-9,678	278,389	132,231
29,736	-9,698	278,204	132,112
30,750	-9,640	277,850	131,987
31,765	-9,664	277,558	131,814
32,780	-9,680	277,453	131,737
33,794	-9,644	277,094	131,589
34,809	-9,712	276,899	131,420
35,823	-9,660	276,523	131,280
36,838	-9,651	276,303	131,172
37,853	-9,763	276,176	130,994
38,867	-9,712	275,791	130,848
39,882	-9,824	275,687	130,682
40,896	-9,706	275,351	130,622
41,911	-9,916	275,164	130,324
42,926	-9,627	274,841	130,431
43,940	-9,687	274,572	130,235
44,955	-9,915	274,486	129,969
45,969	-9,648	274,081	130,015
46,984	-9,932	273,938	129,670
47,999	-10,078	273,573	129,350
49,013	-10,193	273,260	129,083
50,028	-10,425	273,148	128,803
51,042	-10,559	272,854	128,528
52,057	-10,471	272,620	128,488
53,071	-10,197	272,263	128,562
54,086	-10,307	272,137	128,390
55,101	-9,989	271,995	128,606
56,115	-9,874	271,960	128,685
57,130	-9,488	271,881	128,994
58,144	-9,457	271,583	128,869
59,159	-9,394	271,169	128,719
60,174	-9,377	271,129	128,705
61,188	-9,479	270,960	128,520
62,203	-9,736	270,834	128,211
63,217	-9,568	270,417	128,157
64,232	-9,536	270,206	128,075
65,247	-9,615	270,080	127,931
66,261	-9,544	269,871	127,885
67,276	-9,649	269,408	127,559
68,290	-9,924	269,277	127,233
69,305	-10,008	269,090	127,057
70,320	-9,859	268,946	127,114
71,334	-9,612	268,624	127,175
72,349	-9,589	268,514	127,133
73,363	-9,567	268,205	126,996
74,378	-9,346	267,991	127,085
75,393	-9,505	267,733	126,806
76,407	-9,598	267,632	126,662
77,422	-9,460	267,385	126,659
78,436	-9,434	267,200	126,584
79,451	-9,493	267,101	126,472
80,466	-9,752	266,773	126,071
81,480	-9,790	266,507	125,900
82,495	-9,757	266,203	125,775
83,509	-9,715	266,159	125,781
84,524	-9,803	265,840	125,539
85,539	-9,852	265,633	125,386
86,553	-9,977	265,419	125,161
87,568	-9,925	265,349	125,164
88,582	-9,791	265,127	125,169
89,597	-9,606	264,820	125,179
90,611	-9,621	264,662	125,079
91,626	-9,424	264,597	125,215
92,641	-9,500	264,418	125,051
93,655	-9,694	264,124	124,727
94,670	-9,520	263,925	124,777
95,684	-9,642	263,703	124,552
96,699	-9,724	263,595	124,417
97,714	-9,645	263,357	124,363
98,728	-9,830	263,200	124,113
99,743	-9,841	262,842	123,924
100,757	-10,000	262,578	123,646
101,772	-9,857	262,547	123,748
102,787	-9,951	262,343	123,557
103,801	-9,657	262,113	123,700
104,816	-9,721	262,134	123,641
105,830	-9,368	261,763	123,769
106,845	-9,473	261,503	123,541
107,860	-9,547	261,491	123,459
108,874	-9,454	261,113	123,353
109,889	-9,553	261,042	123,220
110,903	-9,597	260,893	123,100
111,918	-9,603	260,587	122,939
112,933	-9,624	260,395	122,819
113,947	-9,595	260,269	122,775
114,962	-9,543	260,051	122,707
115,976	-9,649	259,887	122,524
116,991	-9,568	259,552	122,427
118,006	-9,755	259,484	122,219
119,020	-9,568	259,454	122,359
120,035	-9,380	259,226	122,405
121,049	-9,726	259,059	122,013
122,064	-9,473	258,818	122,110
123,079	-9,341	258,554	122,090
124,093	-9,728	258,359	121,648
125,108	-9,713	258,120	121,537
126,122	-9,885	257,750	121,203
127,137	-10,184	257,539	120,832
128,151	-9,813	257,431	121,093
129,166	-9,784	257,332	121,062
130,181	-9,876	257,153	120,887
131,195	-9,819	256,895	120,804
132,210	-9,786	256,844	120,798
133,224	-9,503	256,632	120,934
134,239	-9,353	256,362	120,926
135,254	-9,603	256,260	120,650
136,268	-9,392	255,984	120,692
137,283	-9,663	255,669	120,298
138,297	-10,098	255,434	119,801
139,312	-9,892	255,140	119,830
140,327	-9,721	255,242	120,015
141,341	-9,518	255,065	120,096
142,356	-9,383	255,120	120,228
143,370	-9,219	254,731	120,175
144,385	-9,419	254,769	120,010
145,400	-9,300	254,415	119,935
146,414	-9,360	254,249	119,794
147,429	-9,405	254,225	119,734
148,443	-9,416	253,914	119,567
149,458	-9,219	253,685	119,617
150,473	-9,402	253,616	119,418
151,487	-9,575	253,411	119,162
152,502	-9,359	253,177	119,226
153,516	-9,288	252,975	119,181
154,531	-9,277	252,845	119,119
155,546	-9,243	252,429	118,941
156,560	-9,242	252,362	118,900
157,575	-9,413	252,142	118,640
158,589	-9,277	251,980	118,669
159,604	-9,342	251,916	118,573
160,619	-9,379	251,687	118,423
161,633	-9,384	251,489	118,315
162,648	-9,402	251,480	118,285
163,662	-9,221	251,124	118,260
164,677	-9,496	251,280	118,090
165,692	-9,404	250,869	117,965
166,706	-9,192	250,684	118,047
167,721	-9,443	250,509	117,741
168,735	-9,264	250,486	117,871
169,750	-9,391	250,282	117,658
170,764	-9,284	250,094	117,649
171,779	-9,227	249,979	117,632
172,794	-9,406	249,880	117,424
173,808	-9,214	249,544	117,417
174,823	-9,554	249,156	116,939
175,837	-9,852	248,991	116,601
176,852	-9,484	248,966	116,888
177,867	-9,270	248,931	117,040
178,881	-9,292	248,708	116,906
179,896	-9,206	248,552	116,895
180,910	-9,085	248,392	116,911
181,925	-9,261	248,306	116,712
182,940	-9,172	247,981	116,623
183,954	-9,203	247,906	116,552
184,969	-9,335	247,664	116,318
185,983	-9,363	247,563	116,236
186,998	-9,216	247,338	116,243
188,013	-9,434	247,194	115,983
189,027	-9,126	247,030	116,152
190,042	-9,117	246,911	116,093
191,056	-9,098	246,713	116,005
192,071	-9,055	246,506	115,934
193,086	-9,105	246,287	115,779
194,100	-9,074	246,144	115,728
195,115	-9,048	245,983	115,662
196,129	-9,243	245,796	115,403
197,144	-9,044	245,502	115,420
198,159	-9,330	245,486	115,165
199,173	-9,022	245,227	115,287
200,188	-9,381	245,251	114,992
201,202	-9,538	244,827	114,654
202,217	-9,659	244,422	114,354
203,232	-9,872	244,408	114,163
204,246	-9,444	244,410	114,505
205,261	-8,881	244,432	114,968
206,275	-9,474	244,053	114,293
207,290	-6,042	245,530	117,805
208,304	0,727	247,502	124,355
209,319	3,445	248,366	127,032
210,334	3,995	248,185	127,384
211,348	4,442	248,072	127,685
212,363	4,416	248,030	127,630
213,377	4,580	247,992	127,734
214,392	4,424	247,841	127,516
215,407	4,601	247,408	127,428
216,421	4,544	247,428	127,380
217,436	4,609	247,176	127,292
218,450	4,756	247,200	127,415
219,465	4,381	246,891	126,936
220,480	4,171	246,659	126,632
221,494	4,394	246,476	126,710
222,509	4,167	246,340	126,443
223,523	4,189	246,088	126,321
224,538	3,856	245,885	125,932
225,553	3,791	245,845	125,847
226,567	3,886	245,664	125,821
227,582	4,095	245,561	125,928
228,596	4,164	245,377	125,879
229,611	3,629	245,289	125,385
230,626	3,663	245,040	125,275
231,640	3,994	244,667	125,342
232,655	4,104	244,641	125,407
233,669	3,865	244,405	125,081
234,684	3,637	244,357	124,860
235,699	4,196	244,227	125,237
236,713	4,376	244,039	125,275
237,728	3,911	243,774	124,750
238,742	3,963	243,483	124,633
239,757	3,745	243,409	124,407
240,772	3,818	243,398	124,449
241,786	3,998	243,087	124,425
242,801	3,755	243,037	124,192
243,815	3,773	242,848	124,099
244,830	3,909	242,803	124,174
245,844	4,175	242,527	124,236
246,859	3,848	242,441	123,918
247,874	3,847	242,287	123,827
248,888	3,995	242,079	123,829
249,903	4,089	241,863	123,784
250,917	4,068	241,934	123,792
251,932	4,066	241,979	123,802
252,947	4,060	241,594	123,589
253,961	3,752	241,377	123,220
254,976	4,087	241,139	123,356
255,990	4,056	241,095	123,298
257,005	3,959	240,846	123,082
258,020	3,863	240,575	122,856
259,034	3,864	240,605	122,860
260,049	4,057	240,470	122,935
261,063	3,728	240,202	122,524
262,078	3,741	239,954	122,397
263,093	3,896	240,003	122,535
264,107	4,037	239,833	122,550
265,122	3,928	239,595	122,330
266,136	4,061	239,553	122,404
267,151	4,051	239,415	122,314
268,166	4,027	239,095	122,121
269,180	3,583	239,065	121,743
270,195	4,301	239,124	122,331
271,209	4,741	238,846	122,527
272,224	4,168	238,563	121,917
273,239	3,648	238,251	121,336
274,253	3,771	238,252	121,423
275,268	4,045	238,250	121,628
276,282	3,888	238,000	121,365
277,297	3,734	237,757	121,109
278,312	3,887	237,606	121,142
279,326	4,137	237,502	121,275
280,341	4,031	237,274	121,064
281,355	3,931	237,190	120,932
282,370	4,394	237,037	121,207
283,384	4,122	237,006	120,967
284,399	4,074	236,578	120,700
285,414	3,707	236,505	120,364
286,428	3,694	236,388	120,284
287,443	3,951	236,261	120,410
288,457	4,093	236,247	120,503
289,472	4,112	235,982	120,372
290,487	3,993	235,926	120,239
291,501	3,578	235,749	119,815
292,516	3,693	235,408	119,720
293,530	3,408	235,451	119,509
294,545	3,873	235,300	119,784
295,560	3,904	235,009	119,650
296,574	3,674	234,860	119,384
297,589	4,102	234,724	119,636
298,603	4,153	234,681	119,644
299,618	4,164	234,509	119,554
300,633	3,980	234,452	119,372
301,647	4,081	234,454	119,440
302,662	4,436	234,235	119,593
303,676	4,403	234,080	119,478
304,691	4,164	233,857	119,169
305,706	4,321	233,666	119,182
306,720	4,369	233,494	119,121
307,735	4,016	233,398	118,789
308,749	4,019	233,207	118,683
309,764	3,820	232,952	118,389
310,779	3,723	232,801	118,227
311,793	3,818	232,802	118,290
312,808	3,820	232,505	118,130
313,822	3,682	232,392	117,957
314,837	3,699	232,141	117,832
315,852	3,529	232,162	117,702
316,866	3,956	232,022	117,948
317,881	4,191	231,730	117,969
318,895	3,988	231,676	117,775
319,910	4,059	231,512	117,736
320,925	3,816	231,451	117,508
321,939	3,980	231,353	117,573
322,954	4,127	231,171	117,582
323,968	4,104	230,995	117,465
324,983	3,784	230,787	117,105
325,997	3,766	230,733	117,053
327,012	3,941	230,603	117,110
328,027	4,296	230,406	117,270
329,041	4,318	230,570	117,359
330,056	4,760	230,337	117,566
331,070	4,603	230,148	117,340
332,085	4,236	229,925	116,938
333,100	4,157	229,667	116,736
334,114	4,015	229,621	116,595
335,129	4,463	229,383	116,802
336,143	4,720	229,315	116,952
337,158	4,525	229,135	116,702
338,173	4,220	228,994	116,390
339,187	4,231	228,755	116,266
340,202	4,379	228,737	116,358
341,216	4,202	228,530	116,109
342,231	3,946	228,361	115,820
343,246	4,134	228,226	115,883
344,260	4,161	228,146	115,852
345,275	4,257	228,107	115,894
346,289	4,467	227,976	115,975
347,304	4,215	227,802	115,687
348,319	4,439	227,608	115,746
349,333	4,137	227,345	115,376
350,348	3,984	227,151	115,152
351,362	4,164	227,112	115,257
352,377	3,804	226,863	114,851
353,392	3,617	226,693	114,616
354,406	3,910	226,488	114,720
355,421	195,647	1320,932	1397,888
356,435	156,849	1454,270	1397,888
