DTS Sentinel unit serial number:	SN410029Multiplexer serial number:	ORYXHardware model number:	OX2-SRSoftware version number:	ORYX F/W v4,00 Oryx Data Collector v3.7.2.0data status	okinstallation	B5 Nyhavnadifferential loss correction	single-endedforward channel	channel 2reverse channel	N/Adate	2023/12/12time	08:17:13forward acquisition time	300,00reverse acquisition time	0,00gamma	499,1914k internal	0,3158k external	0,3158temperature offset calibration	1,0000default loss term (dB/km)	0,3820temperature slope calibration	1,0000multiplexer offset coefficient	1,0000multiplexer slope coefficient	1,0000fibre end	0,00T internal ref (°C)	15,11T ext. ref 1 (°C)	-1,27T ext. ref 2 (°C)	-1,58length (m)	temperature (°C)	Stokes	anti-Stokes-744,400	-122,453	0,246	-0,029
-743,385	-98,598	-0,244	0,045
-742,371	142,045	0,046	0,045
-741,356	87,985	-0,285	0,233
-740,342	800,000	0,053	0,159
-739,327	-93,907	-0,261	0,052
-738,312	-160,940	0,115	0,004
-737,298	-123,722	-0,295	-0,034
-736,283	-25,965	-0,033	-0,014
-735,269	-88,222	-0,286	-0,063
-734,254	198,291	0,054	-0,062
-733,239	-4,295	-0,528	-0,269
-732,225	-2,874	0,055	-0,028
-731,210	800,000	-0,022	0,060
-730,196	-200,000	0,033	-0,159
-729,181	430,820	-0,080	-0,128
-728,167	473,179	-0,031	-0,052
-727,152	278,982	0,030	0,039
-726,137	135,565	0,061	-0,058
-725,123	800,000	-0,066	0,164
-724,108	119,623	-0,080	-0,073
-723,094	-200,000	0,004	-0,108
-722,079	-200,000	0,004	-0,063
-721,064	297,587	0,032	-0,043
-720,050	-127,093	-0,058	0,006
-719,035	124,209	-0,051	0,048
-718,021	-200,000	0,025	0,084
-717,006	118,259	-0,169	-0,154
-715,991	284,769	-0,107	-0,142
-714,977	416,109	-0,078	-0,123
-713,962	10,042	-0,049	-0,027
-712,948	-109,313	-0,059	0,009
-711,933	48,387	-0,084	0,058
-710,918	800,000	0,017	0,041
-709,904	52,545	-0,122	-0,086
-708,889	-149,347	0,088	-0,005
-707,875	107,448	-0,079	-0,069
-706,860	457,141	0,054	-0,089
-705,845	77,708	0,065	0,051
-704,831	432,403	-0,049	0,078
-703,816	800,000	0,060	-0,137
-702,802	210,257	-0,082	0,095
-701,787	-200,000	-0,006	0,020
-700,772	-157,962	0,076	-0,003
-699,758	0,787	0,112	-0,059
-698,743	679,850	0,042	-0,081
-697,729	-78,570	-0,118	0,029
-696,714	89,848	0,046	-0,038
-695,699	212,284	0,034	-0,039
-694,685	2,469	0,029	0,015
-693,670	-200,000	0,008	-0,050
-692,656	103,614	0,047	0,041
-691,641	-138,232	-0,085	0,007
-690,627	253,536	-0,064	0,080
-689,612	-200,000	-0,036	-0,190
-688,597	-25,994	-0,141	-0,061
-687,583	-200,000	-0,009	-0,069
-686,568	359,343	-0,070	-0,104
-685,554	134,512	0,114	-0,109
-684,539	-86,579	0,154	0,034
-683,524	-58,755	0,027	-0,009
-682,510	-200,000	0,025	0,165
-681,495	54,160	-0,033	-0,024
-680,481	223,246	0,024	-0,028
-679,466	-149,909	-0,261	0,015
-678,451	31,578	0,073	0,046
-677,437	-200,000	-0,013	0,061
-676,422	144,224	0,070	-0,068
-675,408	165,033	0,049	0,051
-674,393	-200,000	-0,017	0,074
-673,378	367,819	-0,075	-0,111
-672,364	800,000	0,018	0,051
-671,349	142,191	0,054	-0,053
-670,335	186,921	0,064	-0,070
-669,320	435,805	-0,030	0,048
-668,305	-200,000	0,011	0,080
-667,291	171,210	0,076	0,080
-666,276	-200,000	-0,007	-0,043
-665,262	-200,000	-0,019	-0,070
-664,247	78,647	-0,066	-0,052
-663,232	-52,337	0,136	-0,046
-662,218	-139,061	0,140	-0,011
-661,203	143,306	-0,065	0,064
-660,189	-135,130	0,141	-0,012
-659,174	-200,000	-0,005	-0,087
-658,159	800,000	-0,025	-0,075
-657,145	345,665	0,066	-0,096
-656,130	9,964	0,045	-0,025
-655,116	168,412	-0,032	-0,034
-654,101	800,000	0,045	0,121
-653,086	-200,000	-0,001	-0,161
-652,072	-39,507	0,052	-0,020
-651,057	-42,863	-0,127	0,047
-650,043	800,000	0,034	-0,102
-649,028	-157,064	0,033	0,001
-648,014	-200,000	0,010	0,046
-646,999	-44,183	-0,102	0,037
-645,984	800,000	0,025	0,057
-644,970	181,313	-0,039	-0,042
-643,955	74,085	0,127	-0,098
-642,941	-21,694	-0,116	-0,052
-641,926	2,583	-0,147	0,078
-640,911	-200,000	0,017	0,086
-639,897	220,795	0,060	0,071
-638,882	28,227	0,041	0,025
-637,868	-200,000	-0,016	-0,053
-636,853	5,655	-0,122	-0,066
-635,838	476,930	-0,087	-0,145
-634,824	-42,588	-0,076	-0,028
-633,809	800,000	-0,055	-0,124
-632,795	35,175	0,088	0,056
-631,780	800,000	0,007	0,015
-630,765	800,000	-0,070	0,157
-629,751	-111,060	-0,106	-0,016
-628,736	549,137	0,057	-0,101
-627,722	-200,000	-0,061	-0,234
-626,707	123,355	0,046	0,043
-625,692	-92,457	0,023	0,005
-624,678	-109,176	0,146	-0,023
-623,663	201,259	-0,063	0,071
-622,649	71,221	0,091	0,069
-621,634	50,821	0,070	-0,049
-620,619	-200,000	-0,001	-0,069
-619,605	-68,903	0,065	-0,018
-618,590	539,789	0,034	-0,060
-617,576	428,336	0,036	0,057
-616,561	162,294	-0,092	0,095
-615,546	515,649	-0,082	0,141
-614,532	126,123	-0,095	-0,088
-613,517	-119,104	0,031	0,004
-612,503	-200,000	0,008	0,030
-611,488	-200,000	0,053	0,190
-610,474	13,400	0,057	-0,032
-609,459	-200,000	-0,029	0,104
-608,444	-200,000	-0,018	-0,115
-607,430	128,343	0,034	-0,032
-606,415	800,000	-0,056	-0,172
-605,401	771,095	0,053	-0,106
-604,386	800,000	0,035	-0,099
-603,371	800,000	-0,037	0,079
-602,357	800,000	0,017	-0,051
-601,342	-69,958	-0,147	-0,041
-600,328	-145,736	-0,098	-0,006
-599,313	-200,000	-0,020	-0,096
-598,298	300,883	-0,093	-0,127
-597,284	-200,000	0,000	0,080
-596,269	-200,000	0,026	-0,103
-595,255	-200,000	0,041	-0,137
-594,240	-200,000	0,044	-0,148
-593,225	-168,480	-0,043	-0,001
-592,211	-58,302	-0,056	-0,018
-591,196	-50,675	0,161	-0,055
-590,182	56,428	0,129	-0,092
-589,167	574,924	0,069	0,124
-588,152	-47,408	-0,127	0,045
-587,138	-1,854	0,114	-0,059
-586,123	-137,077	-0,199	0,016
-585,109	-164,474	-0,119	0,004
-584,094	244,488	0,075	0,093
-583,079	91,195	0,022	-0,018
-582,065	32,944	0,123	-0,078
-581,050	-70,261	-0,114	0,032
-580,036	800,000	0,044	-0,100
-579,021	198,659	0,019	0,021
-578,006	-80,582	0,062	-0,015
-576,992	93,224	-0,035	-0,029
-575,977	13,963	0,029	0,017
-574,963	-33,012	0,088	-0,035
-573,948	-60,096	0,128	-0,040
-572,934	-200,000	0,013	-0,091
-571,919	800,000	-0,027	-0,079
-570,904	-200,000	-0,023	-0,102
-569,890	-200,000	0,014	-0,066
-568,875	-38,835	-0,099	0,038
-567,861	-117,152	0,192	0,025
-566,846	-200,000	0,011	0,101
-565,831	-200,000	0,014	0,064
-564,817	-130,070	0,073	0,007
-563,802	-200,000	-0,015	0,103
-562,788	60,414	0,123	0,089
-561,773	-30,262	-0,081	-0,034
-560,758	118,413	-0,019	-0,018
-559,744	788,836	-0,036	0,073
-558,729	584,315	-0,051	0,092
-557,715	153,844	-0,143	-0,144
-556,700	-200,000	-0,011	0,060
-555,685	-42,680	-0,065	0,024
-554,671	57,727	0,138	0,099
-553,656	-104,010	-0,033	0,006
-552,642	-200,000	-0,006	0,173
-551,627	800,000	-0,076	0,177
-550,612	66,800	-0,076	0,056
-549,598	-200,000	-0,008	0,071
-548,583	800,000	-0,047	-0,113
-547,569	-137,712	-0,133	-0,011
-546,554	-73,175	0,018	0,005
-545,539	-153,375	0,281	0,014
-544,525	-65,227	-0,087	0,025
-543,510	157,136	0,041	0,042
-542,496	-121,715	-0,089	-0,011
-541,481	-51,931	0,012	0,004
-540,466	174,748	-0,036	0,038
-539,452	-109,767	-0,053	-0,008
-538,437	429,548	0,058	-0,091
-537,423	800,000	0,099	0,206
-536,408	-200,000	0,000	-0,105
-535,393	48,644	-0,085	-0,058
-534,379	708,100	-0,064	-0,124
-533,364	-108,102	-0,086	-0,013
-532,350	-65,396	-0,128	-0,037
-531,335	458,801	0,092	0,150
-530,321	-200,000	0,009	0,035
-529,306	800,000	0,041	-0,104
-528,291	-97,841	-0,054	-0,010
-527,277	87,243	-0,094	-0,076
-526,262	113,733	0,026	0,023
-525,248	-200,000	0,020	-0,119
-524,233	800,000	0,044	-0,128
-523,218	62,944	0,026	0,019
-522,204	-200,000	-0,000	-0,018
-521,189	-109,027	-0,119	-0,018
-520,175	274,352	-0,034	-0,044
-519,160	-43,344	0,079	-0,029
-518,145	442,776	0,071	0,115
-517,131	277,600	0,070	-0,091
-516,116	-200,000	0,013	0,122
-515,102	126,982	-0,012	0,011
-514,087	-200,000	0,006	-0,037
-513,072	-33,665	-0,160	-0,064
-512,058	-76,550	-0,083	-0,021
-511,043	74,654	0,081	-0,062
-510,029	800,000	0,025	-0,074
-509,014	371,728	-0,027	0,040
-507,999	-200,000	-0,033	-0,108
-506,985	-113,789	0,055	0,008
-505,970	800,000	0,003	-0,007
-504,956	150,195	-0,023	-0,023
-503,941	-46,909	-0,113	-0,040
-502,926	-79,383	-0,056	0,014
-501,912	-70,299	0,171	-0,047
-500,897	538,477	-0,035	0,062
-499,883	-107,497	0,170	0,027
-498,868	-118,392	-0,097	-0,012
-497,853	45,714	-0,109	0,073
-496,839	-200,000	0,003	-0,112
-495,824	529,851	0,019	-0,032
-494,810	800,000	0,057	0,148
-493,795	-31,616	0,059	0,024
-492,781	-89,750	-0,101	0,021
-491,766	-200,000	0,015	-0,061
-490,751	63,411	-0,018	-0,013
-489,737	70,325	-0,089	-0,067
-488,722	-200,000	-0,010	0,136
-487,708	244,870	0,014	0,018
-486,693	113,764	0,049	-0,043
-485,678	275,923	-0,060	-0,078
-484,664	800,000	0,025	-0,054
-483,649	578,514	-0,043	-0,078
-482,635	228,742	-0,045	-0,054
-481,620	-200,000	0,014	-0,046
-480,605	-131,847	0,108	-0,010
-479,591	156,333	0,133	0,134
-478,576	-59,217	-0,021	0,007
-477,562	-14,800	-0,092	0,043
-476,547	800,000	0,015	0,032
-475,532	-200,000	0,015	-0,051
-474,518	53,018	-0,140	0,097
-473,503	-92,891	0,130	-0,026
-472,489	-200,000	0,064	0,214
-471,474	800,000	-0,033	-0,080
-470,459	335,686	-0,054	0,077
-469,445	629,611	0,044	-0,082
-468,430	47,176	-0,060	0,040
-467,416	110,128	0,083	0,073
-466,401	-200,000	-0,001	-0,047
-465,386	639,904	0,062	0,116
-464,372	38,532	0,053	0,035
-463,357	16,816	-0,062	-0,036
-462,343	111,218	-0,107	-0,094
-461,328	-112,080	-0,108	-0,016
-460,313	-142,012	0,111	-0,008
-459,299	-132,440	0,029	0,003
-458,284	336,992	0,054	0,077
-457,270	95,405	0,048	0,040
-456,255	800,000	-0,035	-0,095
-455,241	-200,000	-0,018	-0,096
-454,226	800,000	-0,036	-0,080
-453,211	96,385	-0,040	0,033
-452,197	800,000	0,039	0,092
-451,182	-105,967	-0,060	0,010
-450,168	115,172	-0,068	-0,061
-449,153	121,515	0,035	0,032
-448,138	579,234	-0,075	0,134
-447,124	-140,764	-0,162	-0,012
-446,109	98,444	-0,019	0,016
-445,095	76,859	-0,051	0,039
-444,080	211,967	-0,049	0,056
-443,065	52,983	-0,069	-0,048
-442,051	287,428	-0,003	0,004
-441,036	370,474	-0,046	0,068
-440,022	-200,000	-0,015	-0,167
-439,007	-133,952	-0,068	0,006
-437,992	128,323	-0,046	-0,043
-436,978	-106,890	0,029	-0,005
-435,963	-200,000	0,019	-0,133
-434,949	-200,000	-0,002	-0,079
-433,934	104,733	-0,014	-0,012
-432,919	83,309	0,071	-0,056
-431,905	393,348	-0,115	0,174
-430,890	-100,792	0,087	0,015
-429,876	144,133	0,032	0,031
-428,861	-74,147	0,144	0,038
-427,846	-200,000	-0,004	0,037
-426,832	332,605	0,004	0,006
-425,817	114,041	0,093	-0,082
-424,803	194,060	-0,109	-0,121
-423,788	91,676	0,059	-0,049
-422,773	800,000	0,044	0,121
-421,759	7,909	0,058	-0,032
-420,744	368,180	0,062	0,092
-419,730	303,126	0,021	0,028
-418,715	223,423	-0,019	0,022
-417,701	-77,615	0,090	-0,022
-416,686	-50,638	0,041	0,014
-415,671	-11,789	-0,134	0,064
-414,657	800,000	0,016	0,034
-413,642	349,512	0,031	0,045
-412,628	-200,000	0,019	0,087
-411,613	338,588	-0,079	-0,112
-410,598	-61,505	0,187	0,057
-409,584	202,009	-0,042	0,047
-408,569	-3,871	0,190	0,096
-407,555	704,630	0,018	0,034
-406,540	68,802	-0,067	-0,050
-405,525	-135,490	-0,032	-0,003
-404,511	-200,000	-0,020	-0,065
-403,496	-75,271	-0,164	0,042
-402,482	36,809	0,066	0,043
-401,467	-200,000	0,008	-0,073
-400,452	146,772	0,097	0,095
-399,438	-27,833	-0,117	-0,049
-398,423	-87,826	0,090	0,020
-397,409	-187,532	-0,211	0,002
-396,394	-200,000	-0,008	0,039
-395,379	-119,909	0,146	0,018
-394,365	398,420	-0,018	0,028
-393,350	-200,000	0,010	-0,138
-392,336	116,024	0,079	0,071
-391,321	-26,938	0,045	0,019
-390,306	224,778	-0,066	0,078
-389,292	1,410	-0,012	-0,006
-388,277	420,251	0,054	0,085
-387,263	6,976	0,022	0,012
-386,248	-200,000	0,021	0,110
-385,233	372,643	-0,030	0,045
-384,219	-36,119	-0,049	0,019
-383,204	-32,766	0,062	-0,025
-382,190	-88,252	-0,054	0,012
-381,175	-127,774	-0,114	-0,012
-380,160	-131,866	0,126	0,012
-379,146	-91,563	0,026	-0,005
-378,131	800,000	0,015	0,044
-377,117	0,324	0,126	0,065
-376,102	-200,000	0,003	-0,071
-375,088	132,306	-0,035	-0,033
-374,073	800,000	0,044	0,098
-373,058	-166,468	0,180	-0,005
-372,044	425,443	0,030	0,047
-371,029	121,491	0,105	0,096
-370,015	154,275	0,084	-0,084
-369,000	800,000	0,018	-0,051
-367,985	89,685	0,106	-0,086
-366,971	159,120	0,089	-0,090
-365,956	103,371	0,075	-0,064
-364,942	643,988	0,034	-0,063
-363,927	-150,879	0,184	0,010
-362,912	-38,960	-0,054	0,021
-361,898	247,088	0,038	0,046
-360,883	-28,725	0,129	-0,054
-359,869	94,691	0,031	-0,026
-358,854	-200,000	-0,021	-0,068
-357,839	616,478	0,022	-0,040
-356,825	-7,365	0,098	0,048
-355,810	800,000	-0,077	0,171
-354,796	127,112	-0,057	0,053
-353,781	-200,000	0,027	-0,115
-352,766	-135,306	0,143	0,012
-351,752	247,158	0,046	0,056
-350,737	257,530	-0,055	0,069
-349,723	-57,691	0,125	0,040
-348,708	-200,000	0,007	0,061
-347,693	124,720	0,062	0,057
-346,679	256,541	0,077	-0,096
-345,664	333,418	0,044	0,061
-344,650	31,770	0,040	-0,025
-343,635	-7,986	-0,098	0,048
-342,620	350,211	0,093	0,133
-341,606	19,642	0,118	-0,069
-340,591	279,512	-0,065	0,085
-339,577	176,073	0,046	0,049
-338,562	800,000	-0,055	0,127
-337,548	-86,954	0,109	-0,024
-336,533	9,936	0,017	0,009
-335,518	407,779	0,053	0,081
-334,504	-138,040	0,166	-0,013
-333,489	-200,000	-0,015	-0,148
-332,475	634,217	0,023	0,042
-331,460	583,479	-0,050	-0,090
-330,445	-5,708	0,033	0,016
-329,431	800,000	-0,037	0,097
-328,416	206,477	-0,070	0,079
-327,402	-160,269	-0,082	0,003
-326,387	-156,083	0,104	0,005
-325,372	62,652	0,078	-0,056
-324,358	7,291	0,057	0,031
-323,343	-103,660	-0,157	-0,026
-322,329	45,350	0,053	0,035
-321,314	-105,599	-0,045	0,007
-320,299	437,566	0,017	0,028
-319,285	249,940	0,069	0,085
-318,270	800,000	-0,026	-0,070
-317,256	-77,386	-0,027	0,007
-316,241	271,964	0,047	-0,060
-315,226	-200,000	-0,014	0,137
-314,212	-200,000	-0,002	0,125
-313,197	53,234	0,029	-0,020
-312,183	418,914	0,038	-0,059
-311,168	667,731	0,070	-0,131
-310,153	-96,567	-0,160	0,030
-309,139	115,419	-0,107	-0,095
-308,124	536,714	0,094	-0,162
-307,110	516,307	0,071	0,121
-306,095	697,810	0,061	0,117
-305,080	107,527	-0,085	-0,073
-304,066	-71,710	0,065	-0,018
-303,051	800,000	-0,020	-0,040
-302,037	243,382	-0,051	0,062
-301,022	-89,065	-0,112	0,024
-300,008	-13,765	0,098	0,046
-298,993	220,524	-0,013	-0,015
-297,978	-97,524	-0,017	-0,003
-296,964	36,958	-0,117	-0,075
-295,949	-200,000	-0,001	0,010
-294,935	66,312	-0,097	0,071
-293,920	-111,589	-0,016	-0,002
-292,905	800,000	0,010	-0,022
-291,891	-200,000	0,008	0,044
-290,876	-200,000	-0,019	0,123
-289,862	587,494	-0,044	-0,079
-288,847	122,282	-0,072	-0,065
-287,832	220,622	-0,064	0,075
-286,818	255,565	-0,060	0,074
-285,803	-101,871	0,152	0,026
-284,789	800,000	-0,052	0,130
-283,774	-200,000	0,001	0,138
-282,759	582,306	-0,062	0,111
-281,745	800,000	-0,050	-0,111
-280,730	800,000	-0,010	-0,028
-279,716	-47,668	-0,108	0,038
-278,701	172,411	-0,085	0,089
-277,686	800,000	0,041	0,103
-276,672	-137,068	0,085	0,007
-275,657	-200,000	0,009	-0,059
-274,643	-138,796	0,146	0,011
-273,628	-122,977	-0,074	0,008
-272,613	-188,080	0,059	-0,001
-271,599	93,543	0,048	0,039
-270,584	-200,000	0,043	0,139
-269,570	143,889	-0,056	0,054
-268,555	-200,000	0,016	0,109
-267,540	-200,000	-0,002	-0,106
-266,526	14,290	-0,083	0,046
-265,511	-200,000	0,027	0,093
-264,497	-97,555	0,136	0,025
-263,482	-200,000	-0,003	-0,038
-262,467	-13,753	0,060	0,028
-261,453	-200,000	-0,042	0,144
-260,438	115,028	-0,053	-0,047
-259,424	287,307	-0,032	0,042
-258,409	342,314	-0,056	-0,079
-257,395	800,000	0,034	-0,074
-256,380	276,200	0,107	0,137
-255,365	3,324	0,106	0,056
-254,351	-61,832	0,079	-0,024
-253,336	-200,000	0,002	0,068
-252,322	-70,169	-0,136	-0,037
-251,307	2,290	0,100	-0,052
-250,292	-200,000	-0,028	-0,186
-249,278	-78,480	0,142	-0,035
-248,263	-50,286	-0,160	-0,054
-247,249	-36,388	0,109	-0,042
-246,234	-17,378	-0,078	-0,036
-245,219	10,977	-0,087	-0,048
-244,205	-200,000	0,039	-0,127
-243,190	-93,560	0,099	0,020
-242,176	746,374	0,035	0,069
-241,161	-61,980	-0,052	0,016
-240,146	-200,000	-0,050	0,185
-239,132	187,218	0,024	-0,026
-238,117	800,000	0,051	-0,130
-237,103	-120,215	-0,073	0,009
-236,088	-118,694	-0,086	0,011
-235,073	-83,635	-0,066	-0,015
-234,059	68,389	0,043	-0,032
-233,044	138,706	-0,074	-0,071
-232,030	-200,000	0,003	0,016
-231,015	-43,130	0,031	0,011
-230,000	128,802	-0,120	-0,111
-228,986	735,991	0,025	-0,049
-227,971	-152,109	-0,050	-0,003
-226,957	-200,000	0,013	-0,127
-225,942	247,717	-0,043	-0,052
-224,927	-200,000	0,043	0,154
-223,913	800,000	-0,076	-0,164
-222,898	-153,089	-0,064	0,003
-221,884	730,027	0,107	-0,208
-220,869	4,882	-0,093	-0,049
-219,855	-200,000	0,002	-0,053
-218,840	558,189	-0,042	0,073
-217,825	-53,889	-0,045	-0,015
-216,811	800,000	-0,009	-0,028
-215,796	-200,000	0,020	0,075
-214,782	479,160	0,018	-0,030
-213,767	196,104	-0,063	0,069
-212,752	221,016	0,062	0,071
-211,738	241,313	-0,066	0,080
-210,723	9,328	0,061	0,033
-209,709	94,292	-0,094	-0,077
-208,694	-93,553	-0,115	0,023
-207,679	-32,314	-0,072	-0,029
-206,665	800,000	0,017	0,052
-205,650	461,127	0,040	0,065
-204,636	147,344	0,082	-0,080
-203,621	19,544	-0,033	0,019
-202,606	62,277	-0,115	-0,083
-201,592	-85,951	-0,030	0,007
-200,577	-55,675	0,039	0,013
-199,563	297,238	0,090	-0,119
-198,548	172,571	-0,063	-0,066
-197,533	137,492	0,052	0,049
-196,519	800,000	-0,032	0,064
-195,504	-178,570	-0,094	0,002
-194,490	392,966	-0,116	0,175
-193,475	-130,807	-0,110	-0,010
-192,460	-200,000	-0,022	-0,087
-191,446	-200,000	0,005	-0,198
-190,431	-200,000	0,005	0,077
-189,417	-200,000	-0,006	-0,022
-188,402	394,008	-0,042	0,064
-187,387	800,000	-0,040	-0,109
-186,373	147,323	-0,049	0,048
-185,358	800,000	0,022	0,066
-184,344	-64,372	-0,073	-0,021
-183,329	280,125	-0,036	0,046
-182,315	-139,214	0,125	0,010
-181,300	-200,000	0,026	-0,157
-180,285	-107,742	-0,107	-0,017
-179,271	333,788	-0,062	-0,086
-178,256	74,368	0,052	0,039
-177,242	26,462	0,095	0,057
-176,227	-200,000	-0,021	0,081
-175,212	-61,557	-0,087	0,026
-174,198	-12,422	-0,104	-0,049
-173,183	-200,000	0,001	-0,139
-172,169	-200,000	0,009	-0,133
-171,154	92,975	0,044	0,036
-170,139	58,460	0,049	-0,035
-169,125	-175,043	-0,077	0,002
-168,110	-200,000	-0,004	0,027
-167,096	-200,000	-0,025	0,104
-166,081	114,465	-0,065	-0,057
-165,066	-71,411	-0,075	0,020
-164,052	61,679	0,040	-0,029
-163,037	-110,183	0,123	-0,018
-162,023	493,184	-0,018	-0,031
-161,008	-200,000	-0,012	0,047
-159,993	51,442	-0,124	-0,085
-158,979	328,691	0,062	-0,086
-157,964	800,000	0,014	-0,035
-156,950	155,217	-0,085	0,084
-155,935	800,000	0,044	0,101
-154,920	-32,065	-0,052	-0,021
-153,906	-20,037	0,175	-0,077
-152,891	282,422	0,050	-0,065
-151,877	-200,000	0,003	0,049
-150,862	101,863	-0,090	0,076
-149,847	-94,172	0,022	0,004
-148,833	-160,947	0,131	0,005
-147,818	228,616	0,023	-0,027
-146,804	147,025	0,065	0,063
-145,789	198,624	-0,043	0,047
-144,775	-200,000	0,047	-0,172
-143,760	-37,088	-0,088	0,034
-142,745	-200,000	-0,028	0,181
-141,731	-151,948	0,127	-0,007
-140,716	8,556	0,098	0,053
-139,702	-200,000	0,007	0,098
-138,687	800,000	0,070	0,151
-137,672	-129,562	-0,052	0,005
-136,658	-89,769	-0,095	-0,020
-135,643	-200,000	0,012	-0,085
-134,629	519,686	-0,112	-0,190
-133,614	778,593	0,081	0,160
-132,599	800,000	0,040	0,121
-131,585	-200,000	0,013	0,116
-130,570	671,024	-0,043	-0,081
-129,556	-200,000	-0,025	-0,120
-128,541	272,544	-0,056	-0,071
-127,526	800,000	0,022	0,059
-126,512	800,000	0,041	-0,088
-125,497	-52,813	-0,081	0,027
-124,483	493,417	0,025	0,042
-123,468	-130,218	0,048	-0,005
-122,453	34,665	0,028	0,017
-121,439	312,329	0,091	-0,123
-120,424	75,511	-0,077	-0,059
-119,410	33,926	0,048	-0,030
-118,395	171,068	0,074	0,077
-117,380	598,660	0,049	0,088
-116,366	654,865	-0,076	0,142
-115,351	-200,000	0,021	-0,084
-114,337	-200,000	0,016	-0,255
-113,322	-200,000	0,013	-0,083
-112,307	203,358	0,049	-0,054
-111,293	800,000	0,067	-0,139
-110,278	-140,098	-0,110	-0,008
-109,264	-200,000	-0,010	0,128
-108,249	378,181	-0,053	-0,079
-107,234	-200,000	0,019	-0,147
-106,220	191,697	-0,043	0,047
-105,205	22,300	0,102	0,060
-104,191	12,301	-0,032	-0,018
-103,176	37,869	0,070	-0,045
-102,162	-200,000	-0,003	-0,111
-101,147	176,769	-0,091	-0,095
-100,132	-44,742	-0,125	0,045
-99,118	800,000	-0,052	-0,123
-98,103	-200,000	-0,011	-0,085
-97,089	-200,000	-0,022	-0,084
-96,074	-200,000	0,021	-0,087
-95,059	246,832	-0,074	0,090
-94,045	8,926	0,108	-0,058
-93,030	-200,000	-0,014	-0,095
-92,016	12,988	0,026	0,015
-91,001	-128,872	-0,139	0,014
-89,986	-200,000	0,040	-0,154
-88,972	-67,004	0,155	-0,044
-87,957	220,909	-0,061	0,071
-86,943	-160,323	-0,064	0,002
-85,928	50,058	0,067	-0,045
-84,913	-21,295	0,089	-0,039
-83,899	535,739	0,012	-0,021
-82,884	-200,000	-0,001	0,084
-81,870	231,285	-0,032	-0,037
-80,855	-48,480	0,031	-0,011
-79,840	69,667	-0,012	0,009
-78,826	-24,431	-0,078	-0,033
-77,811	335,931	0,025	-0,035
-76,797	-200,000	-0,010	0,108
-75,782	2,169	-0,111	0,058
-74,767	635,207	-0,053	0,097
-73,753	247,396	0,062	0,076
-72,738	-21,704	0,129	0,056
-71,724	313,441	0,005	0,006
-70,709	691,190	-0,046	-0,087
-69,694	279,194	0,076	-0,098
-68,680	93,648	-0,041	0,033
-67,665	-200,000	-0,017	0,104
-66,651	-124,313	0,074	0,008
-65,636	344,863	0,050	-0,071
-64,622	-76,885	0,040	-0,010
-63,607	-200,000	0,003	-0,033
-62,592	17,711	-0,029	-0,017
-61,578	-118,825	0,129	0,016
-60,563	427,684	-0,005	0,007
-59,549	47,172	-0,142	0,095
-58,534	7,669	-1,939	-1,039
-57,519	-200,000	-0,120	-0,686
-56,505	-200,000	-1,408	-4,973
-55,490	59,790	0,791	0,560
-54,476	800,000	5,397	12,319
-53,461	-200,000	17,691	287,330
-52,446	800,000	728,723	2226,513
-51,432	537,041	1645,088	2814,711
-50,417	109,802	1635,202	1406,912
-49,403	75,784	1287,264	975,335
-48,388	31,904	1027,377	633,620
-47,373	20,158	989,328	571,426
-46,359	18,393	977,053	558,530
-45,344	15,465	973,063	546,648
-44,330	15,645	971,728	546,465
-43,315	15,177	969,618	543,730
-42,300	15,131	968,431	542,894
-41,286	15,122	967,592	542,371
-40,271	15,080	966,581	541,648
-39,257	15,150	965,613	541,310
-38,242	15,136	964,639	540,697
-37,227	15,146	964,056	540,382
-36,213	15,146	963,181	539,870
-35,198	15,087	962,211	539,113
-34,184	15,173	961,430	538,935
-33,169	15,107	960,462	538,156
-32,154	15,110	959,587	537,654
-31,140	15,130	958,642	537,168
-30,125	15,149	958,006	536,851
-29,111	15,083	957,312	536,227
-28,096	15,113	956,629	535,919
-27,082	15,162	955,691	535,530
-26,067	15,131	954,992	535,018
-25,052	15,120	954,319	534,587
-24,038	15,135	953,605	534,212
-23,023	15,110	953,120	533,840
-22,009	15,181	952,462	533,676
-20,994	15,186	951,642	533,211
-19,979	15,161	951,049	532,780
-18,965	15,090	950,439	532,190
-17,950	15,148	949,962	532,086
-16,936	15,123	949,283	531,606
-15,921	15,068	948,522	530,984
-14,906	15,024	947,699	530,360
-13,892	14,992	947,223	529,970
-12,877	15,024	946,501	529,648
-11,863	15,042	945,796	529,289
-10,848	15,062	945,298	529,054
-9,833	15,170	944,866	529,133
-8,819	15,109	944,067	528,472
-7,804	14,995	943,718	527,894
-6,790	15,087	943,058	527,795
-5,775	15,116	942,597	527,609
-4,760	15,031	941,861	526,907
-3,746	15,086	941,192	526,684
-2,731	14,914	940,565	525,769
-1,717	14,870	939,806	525,185
-0,702	14,948	939,155	525,047
0,313	14,710	938,363	524,645
1,327	18,007	936,360	533,859
2,342	27,175	793,269	476,537
3,356	23,888	458,649	270,476
4,371	-3,566	314,690	156,374
5,386	-7,514	296,529	143,337
6,400	-9,556	290,404	138,335
7,415	-9,848	287,897	136,841
8,429	-10,128	286,400	135,843
9,444	-10,166	285,439	135,338
10,459	-10,067	284,807	135,122
11,473	-9,989	284,231	134,913
12,488	-10,260	283,716	134,393
13,502	-10,229	283,360	134,243
14,517	-10,186	282,726	133,972
15,531	-10,061	282,293	133,876
16,546	-10,065	281,986	133,714
17,561	-10,096	281,509	133,446
18,575	-10,048	281,185	133,327
19,590	-10,158	280,913	133,081
20,604	-10,087	280,549	132,964
21,619	-9,967	280,103	132,857
22,634	-9,996	279,780	132,664
23,648	-10,113	279,372	132,346
24,663	-10,170	279,235	132,216
25,677	-10,063	279,077	132,231
26,692	-10,147	278,664	131,943
27,707	-10,118	278,390	131,830
28,721	-9,981	278,126	131,823
29,736	-10,097	277,835	131,563
30,750	-10,116	277,732	131,485
31,765	-10,281	277,442	131,179
32,780	-10,092	277,128	131,199
33,794	-10,122	276,906	131,053
34,809	-10,324	276,553	130,683
35,823	-10,277	276,486	130,684
36,838	-10,039	276,117	130,722
37,853	-10,127	275,858	130,505
38,867	-10,252	275,575	130,242
39,882	-10,401	275,434	130,024
40,896	-10,298	275,173	129,986
41,911	-10,229	274,945	129,931
42,926	-10,304	274,720	129,743
43,940	-10,462	274,486	129,473
44,955	-10,212	274,138	129,531
45,969	-10,059	273,880	129,541
46,984	-10,600	273,690	128,934
47,999	-10,595	273,501	128,838
49,013	-10,735	273,025	128,472
50,028	-10,766	272,899	128,372
51,042	-10,803	272,663	128,216
52,057	-10,919	272,365	127,956
53,071	-10,787	272,041	127,915
54,086	-10,581	271,939	128,047
55,101	-10,535	271,870	128,045
56,115	-10,450	271,734	128,049
57,130	-10,038	271,485	128,301
58,144	-10,026	271,173	128,154
59,159	-9,929	271,005	128,152
60,174	-9,967	270,853	128,034
61,188	-9,961	270,646	127,930
62,203	-9,761	270,254	127,917
63,217	-9,928	270,144	127,700
64,232	-9,975	269,902	127,531
65,247	-9,875	269,738	127,534
66,261	-10,051	269,470	127,235
67,276	-10,145	269,327	127,070
68,290	-10,357	269,033	126,725
69,305	-10,450	268,760	126,501
70,320	-10,230	268,584	126,608
71,334	-10,139	268,346	126,567
72,349	-10,093	268,213	126,535
73,363	-10,111	267,939	126,378
74,378	-9,953	267,732	126,414
75,393	-9,982	267,548	126,289
76,407	-9,994	267,202	126,104
77,422	-10,061	267,120	125,993
78,436	-9,925	266,953	126,026
79,451	-9,983	266,655	125,821
80,466	-10,048	266,407	125,634
81,480	-10,239	266,039	125,277
82,495	-10,146	265,898	125,283
83,509	-10,193	265,818	125,192
84,524	-10,094	265,568	125,153
85,539	-10,403	265,366	124,767
86,553	-10,388	265,147	124,667
87,568	-10,297	265,003	124,671
88,582	-10,127	264,775	124,705
89,597	-10,187	264,635	124,574
90,611	-10,084	264,326	124,510
91,626	-10,119	264,341	124,474
92,641	-10,061	264,023	124,365
93,655	-10,139	263,696	124,130
94,670	-10,248	263,598	123,976
95,684	-10,176	263,286	123,882
96,699	-10,123	263,183	123,870
97,714	-10,125	262,916	123,731
98,728	-10,167	262,679	123,571
99,743	-10,517	262,686	123,251
100,757	-10,332	262,253	123,202
101,772	-10,129	261,989	123,247
102,787	-10,274	261,887	123,060
103,801	-10,119	261,742	123,118
104,816	-10,021	261,742	123,194
105,830	-10,020	261,369	123,009
106,845	-10,101	261,286	122,887
107,860	-9,990	260,906	122,796
108,874	-10,153	260,732	122,558
109,889	-10,106	260,527	122,493
110,903	-10,141	260,427	122,404
111,918	-10,036	260,164	122,362
112,933	-9,890	259,895	122,353
113,947	-10,205	259,846	122,041
114,962	-9,955	259,655	122,161
115,976	-10,015	259,470	122,010
116,991	-10,059	259,203	121,835
118,006	-9,968	259,087	121,850
119,020	-10,102	258,941	121,652
120,035	-9,897	258,832	121,770
121,049	-10,168	258,620	121,423
122,064	-10,087	258,304	121,334
123,079	-10,210	258,144	121,141
124,093	-9,931	257,844	121,233
125,108	-10,210	257,646	120,886
126,122	-10,386	257,394	120,603
127,137	-10,333	257,108	120,504
128,151	-10,354	257,185	120,511
129,166	-10,226	256,747	120,406
130,181	-10,382	256,702	120,239
131,195	-10,145	256,328	120,259
132,210	-10,167	256,255	120,195
133,224	-10,139	256,204	120,185
134,239	-9,963	255,986	120,224
135,254	-9,887	255,714	120,151
136,268	-10,263	255,572	119,749
137,283	-10,444	255,399	119,500
138,297	-10,570	255,022	119,205
139,312	-10,398	254,929	119,299
140,327	-10,082	254,713	119,460
141,341	-10,011	254,805	119,553
142,356	-10,025	254,482	119,379
143,370	-9,986	254,431	119,378
144,385	-9,913	254,276	119,358
145,400	-9,749	253,874	119,298
146,414	-9,992	253,641	118,970
147,429	-9,869	253,622	119,056
148,443	-9,998	253,561	118,906
149,458	-9,894	253,174	118,803
150,473	-9,741	253,096	118,887
151,487	-9,908	252,867	118,626
152,502	-10,049	252,674	118,405
153,516	-9,838	252,417	118,453
154,531	-9,830	252,326	118,407
155,546	-10,041	252,236	118,175
156,560	-10,028	252,092	118,107
157,575	-9,813	251,659	118,077
158,589	-9,871	251,648	118,012
159,604	-10,045	251,268	117,676
160,619	-9,924	251,246	117,758
161,633	-9,769	250,909	117,720
162,648	-9,880	250,838	117,582
163,662	-10,002	250,788	117,445
164,677	-9,748	250,623	117,572
165,692	-9,832	250,534	117,449
166,706	-9,990	250,237	117,166
167,721	-9,997	250,236	117,149
168,735	-9,809	249,780	117,084
169,750	-9,826	249,872	117,102
170,764	-9,957	249,660	116,882
171,779	-9,984	249,550	116,798
172,794	-9,735	249,234	116,848
173,808	-9,771	249,115	116,751
174,823	-10,245	248,819	116,205
175,837	-10,527	248,633	115,871
176,852	-10,260	248,619	116,078
177,867	-9,847	248,534	116,374
178,881	-9,976	248,337	116,163
179,896	-9,720	248,056	116,236
180,910	-9,760	247,871	116,106
181,925	-9,878	247,692	115,913
182,940	-9,831	247,666	115,930
183,954	-10,002	247,422	115,663
184,969	-9,970	247,263	115,604
185,983	-9,891	247,106	115,586
186,998	-9,710	246,854	115,608
188,013	-9,510	246,588	115,640
189,027	-9,677	246,511	115,455
190,042	-9,906	246,228	115,122
191,056	-9,900	246,189	115,099
192,071	-9,953	246,117	115,011
193,086	-10,055	245,729	114,735
194,100	-9,829	245,630	114,865
195,115	-9,756	245,558	114,882
196,129	-9,750	245,284	114,748
197,144	-9,900	245,069	114,513
198,159	-9,832	244,847	114,456
199,173	-9,865	244,812	114,402
200,188	-9,875	244,476	114,227
201,202	-9,983	244,312	114,051
202,217	-10,423	244,097	113,579
203,232	-10,448	243,757	113,390
204,246	-10,053	243,841	113,743
205,261	-9,566	243,618	114,028
206,275	-10,532	243,240	113,051
207,290	-7,120	244,627	116,491
208,304	0,077	246,884	123,512
209,319	3,234	247,787	126,566
210,334	3,789	247,863	127,053
211,348	4,153	247,718	127,267
212,363	4,361	247,633	127,385
213,377	4,303	247,551	127,283
214,392	4,195	247,448	127,129
215,407	4,221	247,025	126,922
216,421	4,196	247,029	126,893
217,436	4,471	246,833	127,007
218,450	4,362	246,834	126,906
219,465	4,209	246,436	126,565
220,480	4,118	246,198	126,357
221,494	3,955	246,071	126,147
222,509	3,956	246,006	126,103
223,523	3,941	245,804	125,976
224,538	3,586	245,434	125,484
225,553	3,726	245,234	125,485
226,567	3,871	245,204	125,578
227,582	3,961	245,107	125,589
228,596	4,139	244,908	125,622
229,611	3,706	244,705	125,154
230,626	3,435	244,459	124,796
231,640	3,804	244,421	125,066
232,655	3,759	244,272	124,942
233,669	3,507	244,127	124,652
234,684	3,264	243,892	124,323
235,699	3,768	243,922	124,737
236,713	3,989	243,667	124,775
237,728	3,623	243,416	124,338
238,742	3,640	243,281	124,273
239,757	3,514	243,026	124,029
240,772	3,565	242,879	123,984
241,786	3,832	242,751	124,123
242,801	3,629	242,623	123,883
243,815	3,346	242,568	123,615
244,830	3,616	242,536	123,806
245,844	3,956	242,169	123,882
246,859	3,669	242,067	123,587
247,874	3,625	241,782	123,395
248,888	3,774	241,719	123,472
249,903	3,601	241,653	123,288
250,917	3,822	241,372	123,311
251,932	3,880	241,402	123,362
252,947	3,901	241,144	123,236
253,961	3,545	240,918	122,824
254,976	3,865	240,788	123,003
255,990	3,941	240,606	122,960
257,005	3,744	240,510	122,742
258,020	3,409	240,358	122,387
259,034	3,447	240,202	122,327
260,049	3,898	239,977	122,561
261,063	3,555	239,782	122,177
262,078	3,482	239,629	122,030
263,093	3,743	239,635	122,229
264,107	3,765	239,403	122,118
265,122	3,574	239,162	121,832
266,136	4,008	239,030	122,099
267,151	3,948	239,023	122,036
268,166	3,569	238,787	121,605
269,180	3,514	238,659	121,486
270,195	4,155	238,611	121,958
271,209	4,039	238,658	121,879
272,224	3,887	238,108	121,467
273,239	3,472	237,902	121,024
274,253	3,516	237,837	121,015
275,268	3,764	237,762	121,161
276,282	3,891	237,644	121,190
277,297	3,597	237,244	120,744
278,312	3,572	237,081	120,631
279,326	3,784	237,161	120,827
280,341	3,809	236,976	120,743
281,355	3,717	236,881	120,611
282,370	3,849	236,608	120,564
283,384	4,084	236,482	120,674
284,399	3,719	236,219	120,243
285,414	3,590	236,100	120,070
286,428	3,505	236,097	119,992
287,443	3,793	235,874	120,093
288,457	3,767	235,776	120,012
289,472	3,978	235,592	120,072
290,487	3,635	235,464	119,729
291,501	3,675	235,297	119,665
292,516	3,495	235,071	119,398
293,530	3,478	234,780	119,227
294,545	3,735	234,949	119,503
295,560	3,511	234,723	119,203
296,574	3,399	234,495	118,989
297,589	3,432	234,424	118,968
298,603	3,912	234,255	119,244
299,618	3,861	234,226	119,179
300,633	3,493	234,134	118,836
301,647	3,838	233,973	119,011
302,662	4,219	233,804	119,210
303,676	4,108	233,643	119,031
304,691	3,918	233,447	118,774
305,706	4,199	233,381	118,946
306,720	4,128	233,168	118,773
307,735	4,023	232,939	118,565
308,749	3,931	232,753	118,389
309,764	3,601	232,652	118,073
310,779	3,490	232,411	117,854
311,793	3,561	232,212	117,797
312,808	3,417	232,085	117,612
313,822	3,524	231,977	117,629
314,837	3,413	231,877	117,483
315,852	3,457	231,603	117,367
316,866	3,615	231,506	117,428
317,881	4,016	231,417	117,679
318,895	3,907	231,435	117,595
319,910	3,921	231,259	117,506
320,925	3,772	230,945	117,222
321,939	3,438	230,631	116,798
322,954	3,513	230,671	116,864
323,968	3,833	230,688	117,106
324,983	3,939	230,411	117,036
325,997	3,809	230,518	116,981
327,012	3,706	230,151	116,706
328,027	3,571	229,817	116,424
329,041	3,854	229,712	116,575
330,056	4,279	229,891	116,978
331,070	4,754	229,766	117,264
332,085	4,308	229,454	116,757
333,100	4,062	229,283	116,473
334,114	3,908	229,141	116,274
335,129	3,974	229,041	116,263
336,143	4,187	229,028	116,407
337,158	4,194	228,829	116,300
338,173	4,027	228,585	116,040
339,187	3,857	228,343	115,779
340,202	4,050	228,232	115,858
341,216	3,853	228,153	115,659
342,231	4,038	227,835	115,626
343,246	3,763	227,903	115,444
344,260	3,910	227,710	115,446
345,275	4,127	227,602	115,544
346,289	4,214	227,547	115,571
347,304	4,240	227,361	115,485
348,319	4,225	227,031	115,297
349,333	3,958	227,005	115,073
350,348	3,796	226,785	114,830
351,362	4,047	226,643	114,936
352,377	3,814	226,549	114,704
353,392	3,768	226,208	114,487
354,406	3,608	226,204	114,355
355,421	194,354	1323,644	1396,690
356,435	155,739	1457,339	1396,687
