DTS Sentinel unit serial number:	SN410029Multiplexer serial number:	ORYXHardware model number:	OX2-SRSoftware version number:	ORYX F/W v4,00 Oryx Data Collector v3.7.2.0data status	okinstallation	B5 Nyhavnadifferential loss correction	single-endedforward channel	channel 2reverse channel	N/Adate	2023/12/14time	06:42:13forward acquisition time	300,00reverse acquisition time	0,00gamma	499,1914k internal	0,3158k external	0,3158temperature offset calibration	1,0000default loss term (dB/km)	0,3820temperature slope calibration	1,0000multiplexer offset coefficient	1,0000multiplexer slope coefficient	1,0000fibre end	0,00T internal ref (°C)	7,38T ext. ref 1 (°C)	-9,09T ext. ref 2 (°C)	-9,18length (m)	temperature (°C)	Stokes	anti-Stokes-744,400	-126,622	0,162	-0,018
-743,385	-106,297	-0,332	-0,054
-742,371	-200,000	0,021	0,086
-741,356	-65,913	-0,340	-0,100
-740,342	151,570	0,173	0,173
-739,327	-146,532	-0,390	-0,025
-738,312	-200,000	-0,020	0,091
-737,298	-130,724	-0,371	-0,036
-736,283	-54,765	0,219	0,072
-735,269	-92,697	-0,447	0,091
-734,254	-200,000	0,006	0,086
-733,239	-86,755	-0,514	-0,115
-732,225	168,137	0,225	0,236
-731,210	-200,000	0,000	-0,013
-730,196	800,000	-0,036	-0,102
-729,181	72,354	-0,037	0,028
-728,167	-200,000	0,013	0,054
-727,152	459,324	-0,071	-0,116
-726,137	63,539	-0,130	-0,096
-725,123	800,000	0,023	0,051
-724,108	341,886	-0,063	0,091
-723,094	649,008	-0,093	-0,175
-722,079	-63,513	-0,081	0,024
-721,064	-12,054	-0,112	-0,054
-720,050	800,000	-0,062	-0,146
-719,035	-105,043	0,150	0,025
-718,021	175,854	-0,110	-0,117
-717,006	-56,529	0,070	-0,023
-715,991	173,583	-0,188	-0,200
-714,977	165,223	0,030	0,031
-713,962	242,219	-0,054	-0,066
-712,948	126,336	-0,111	0,103
-711,933	800,000	-0,004	0,011
-710,918	215,404	0,026	0,030
-709,904	95,096	-0,178	0,149
-708,889	800,000	-0,015	0,042
-707,875	800,000	-0,029	-0,064
-706,860	-17,474	0,008	0,004
-705,845	-200,000	-0,001	-0,049
-704,831	0,388	0,009	0,005
-703,816	253,886	0,071	0,089
-702,802	56,006	-0,082	0,058
-701,787	135,022	-0,007	0,006
-700,772	-200,000	0,000	0,073
-699,758	-200,000	0,002	-0,088
-698,743	-66,341	0,086	-0,025
-697,729	-147,554	0,081	0,005
-696,714	-199,119	0,037	-0,000
-695,699	800,000	0,046	-0,134
-694,685	404,026	-0,093	-0,144
-693,670	-200,000	0,004	-0,051
-692,656	124,394	-0,106	-0,098
-691,641	-6,715	0,092	-0,046
-690,627	225,281	0,030	0,036
-689,612	309,422	0,047	-0,064
-688,597	-19,911	-0,113	-0,051
-687,583	69,907	-0,183	-0,139
-686,568	-200,000	-0,001	-0,069
-685,554	-137,097	0,103	-0,009
-684,539	-165,182	-0,147	-0,005
-683,524	454,667	-0,098	0,160
-682,510	52,576	-0,057	-0,040
-681,495	-7,525	0,090	-0,045
-680,481	-14,842	0,035	-0,017
-679,466	714,024	-0,065	0,127
-678,451	92,230	-0,047	0,039
-677,437	10,944	0,073	-0,041
-676,422	138,198	0,064	-0,061
-675,408	577,193	-0,029	0,053
-674,393	-126,787	0,044	-0,005
-673,378	-200,000	-0,025	0,132
-672,364	224,606	-0,024	0,028
-671,349	-106,433	-0,127	-0,021
-670,335	70,935	0,044	0,033
-669,320	-155,544	0,060	0,003
-668,305	-125,312	0,109	-0,012
-667,291	800,000	0,044	0,098
-666,276	800,000	-0,089	-0,184
-665,262	-200,000	-0,010	-0,064
-664,247	800,000	-0,054	0,152
-663,232	104,617	-0,099	-0,086
-662,218	-22,372	-0,020	0,009
-661,203	800,000	0,030	0,068
-660,189	580,803	-0,038	0,069
-659,174	-200,000	-0,019	0,162
-658,159	-137,775	-0,113	0,009
-657,145	-1,378	-0,094	0,048
-656,130	289,352	-0,051	0,068
-655,116	521,673	-0,062	0,108
-654,101	-200,000	0,016	0,093
-653,086	800,000	0,011	0,024
-652,072	330,738	0,077	-0,109
-651,057	-37,585	-0,069	-0,027
-650,043	403,683	0,020	-0,031
-649,028	-79,507	0,033	-0,008
-648,014	-200,000	-0,017	0,147
-646,999	-200,000	0,011	-0,153
-645,984	800,000	0,049	0,156
-644,970	-62,026	-0,126	-0,038
-643,955	-200,000	-0,002	-0,153
-642,941	316,121	0,025	0,035
-641,926	-200,000	0,025	0,116
-640,911	800,000	0,014	-0,039
-639,897	-200,000	0,016	0,081
-638,882	800,000	-0,060	-0,178
-637,868	84,393	-0,077	0,061
-636,853	-200,000	-0,041	-0,189
-635,838	181,633	-0,122	0,132
-634,824	-200,000	-0,002	0,079
-633,809	26,706	-0,041	0,025
-632,795	-200,000	0,000	0,041
-631,780	-117,791	-0,044	0,006
-630,765	225,972	0,074	-0,088
-629,751	-200,000	-0,034	-0,119
-628,736	82,783	-0,044	-0,035
-627,722	-200,000	0,027	0,132
-626,707	-200,000	0,005	-0,140
-625,692	800,000	0,020	0,050
-624,678	507,756	0,023	-0,039
-623,663	-82,034	-0,066	0,016
-622,649	-200,000	0,014	-0,097
-621,634	800,000	0,035	0,085
-620,619	-200,000	0,000	-0,080
-619,605	71,187	0,101	0,077
-618,590	-90,145	0,130	-0,028
-617,576	-200,000	0,028	0,105
-616,561	201,336	0,044	-0,050
-615,546	800,000	0,041	-0,109
-614,532	124,657	-0,110	-0,102
-613,517	-100,641	-0,101	-0,018
-612,503	11,317	0,135	-0,076
-611,488	67,226	-0,149	0,112
-610,474	28,396	-0,006	-0,004
-609,459	-22,664	-0,156	-0,069
-608,444	-200,000	0,023	-0,078
-607,430	-200,000	-0,013	-0,173
-606,415	-200,000	-0,025	-0,288
-605,401	16,830	0,107	0,062
-604,386	-200,000	0,012	-0,118
-603,371	-200,000	0,015	-0,057
-602,357	-163,007	-0,069	-0,002
-601,342	116,717	0,136	-0,123
-600,328	-72,789	-0,079	-0,021
-599,313	-200,000	-0,024	0,094
-598,298	301,697	-0,050	0,068
-597,284	213,916	0,057	-0,066
-596,269	-119,987	0,156	-0,019
-595,255	-200,000	-0,005	-0,033
-594,240	358,540	0,044	-0,065
-593,225	-100,391	-0,047	0,008
-592,211	800,000	-0,054	0,121
-591,196	58,245	0,073	-0,052
-590,182	-90,439	-0,081	0,017
-589,167	-200,000	0,000	0,062
-588,152	69,888	-0,051	-0,039
-587,138	-103,417	-0,092	0,016
-586,123	76,740	-0,173	-0,134
-585,109	-163,732	-0,005	0,000
-584,094	-132,390	0,100	-0,009
-583,079	482,190	0,021	-0,035
-582,065	-200,000	0,012	0,093
-581,050	-39,421	0,053	0,020
-580,036	282,790	-0,054	0,071
-579,021	-88,176	-0,173	0,038
-578,006	121,893	-0,013	0,012
-576,992	-189,451	-0,035	0,000
-575,977	-141,603	-0,037	-0,003
-574,963	177,203	-0,048	0,051
-573,948	-57,560	0,035	-0,011
-572,934	346,850	0,061	0,088
-571,919	-184,412	0,082	0,001
-570,904	-161,808	0,134	-0,005
-569,890	122,557	-0,035	-0,032
-568,875	-200,000	0,025	0,109
-567,861	779,062	0,076	0,152
-566,846	800,000	-0,021	-0,049
-565,831	551,992	0,045	0,080
-564,817	-22,282	0,119	-0,053
-563,802	-200,000	0,012	-0,084
-562,788	-10,047	-0,068	0,033
-561,773	-108,035	0,088	0,014
-560,758	-7,355	-0,065	-0,032
-559,744	33,243	0,099	0,063
-558,729	-200,000	0,056	-0,204
-557,715	-118,053	-0,098	0,013
-556,700	-200,000	-0,015	-0,087
-555,685	800,000	-0,002	0,004
-554,671	552,052	-0,049	0,087
-553,656	800,000	-0,036	0,081
-552,642	-117,960	0,100	0,013
-551,627	800,000	0,017	-0,054
-550,612	-200,000	-0,008	-0,086
-549,598	75,626	0,082	-0,063
-548,583	-200,000	0,002	-0,060
-547,569	444,406	0,065	-0,104
-546,554	800,000	0,037	-0,096
-545,539	107,548	0,068	0,059
-544,525	178,553	-0,087	0,093
-543,510	-200,000	0,018	0,060
-542,496	546,476	-0,035	0,062
-541,481	800,000	-0,015	-0,039
-540,466	-6,081	-0,040	0,020
-539,452	537,394	0,063	0,110
-538,437	800,000	-0,050	-0,113
-537,423	282,493	0,097	0,128
-536,408	185,993	-0,056	-0,060
-535,393	-200,000	-0,002	-0,068
-534,379	-200,000	0,023	-0,104
-533,364	-200,000	-0,009	0,079
-532,350	377,772	0,074	0,111
-531,335	-39,932	0,174	0,066
-530,321	-102,397	-0,135	-0,023
-529,306	225,285	0,080	0,095
-528,291	211,764	0,029	-0,034
-527,277	-95,381	-0,075	-0,015
-526,262	800,000	-0,071	0,175
-525,248	175,148	0,021	-0,022
-524,233	-200,000	0,002	0,044
-523,218	310,696	0,065	-0,090
-522,204	-30,062	0,019	0,008
-521,189	-108,574	-0,078	0,012
-520,175	-200,000	-0,028	-0,101
-519,160	-200,000	-0,022	-0,082
-518,145	-200,000	-0,003	-0,224
-517,131	10,607	-0,122	0,068
-516,116	-200,000	-0,000	0,056
-515,102	800,000	0,036	-0,107
-514,087	800,000	-0,014	-0,045
-513,072	-29,713	-0,049	-0,020
-512,058	229,366	-0,070	-0,083
-511,043	216,455	-0,092	-0,107
-510,029	-200,000	0,012	-0,064
-509,014	225,791	-0,108	0,128
-507,999	213,812	0,067	-0,077
-506,985	-21,945	0,040	-0,018
-505,970	-200,000	0,013	-0,078
-504,956	39,000	0,072	-0,047
-503,941	-70,848	0,104	-0,028
-502,926	-200,000	-0,041	-0,153
-501,912	15,822	0,094	-0,054
-500,897	-200,000	0,013	0,081
-499,883	-200,000	-0,009	-0,057
-498,868	479,882	-0,100	-0,166
-497,853	-71,475	0,053	0,014
-496,839	-200,000	0,018	-0,096
-495,824	-200,000	0,007	0,089
-494,810	800,000	-0,035	-0,082
-493,795	-24,008	0,075	0,033
-492,781	-87,210	-0,059	-0,013
-491,766	-112,493	0,055	0,008
-490,751	303,995	0,074	-0,101
-489,737	-26,923	-0,046	0,020
-488,722	17,035	0,101	-0,058
-487,708	332,587	0,046	0,064
-486,693	-26,164	0,075	-0,032
-485,678	-200,000	-0,002	-0,032
-484,664	800,000	-0,027	-0,071
-483,649	169,356	0,059	-0,061
-482,635	-47,788	-0,088	0,031
-481,620	143,430	0,090	0,088
-480,605	775,841	0,064	0,129
-479,591	-200,000	-0,005	-0,063
-478,576	800,000	0,014	-0,041
-477,562	-120,574	0,085	0,010
-476,547	-200,000	0,013	-0,064
-475,532	-171,887	-0,085	-0,002
-474,518	-54,976	-0,028	0,009
-473,503	-200,000	0,038	-0,132
-472,489	-200,000	0,005	-0,061
-471,474	-186,508	-0,061	0,001
-470,459	172,894	0,015	0,016
-469,445	-64,408	-0,057	-0,017
-468,430	29,182	0,047	-0,029
-467,416	-56,894	0,101	0,032
-466,401	800,000	-0,005	-0,012
-465,386	800,000	-0,058	0,153
-464,372	3,141	-0,083	-0,044
-463,357	115,702	-0,132	-0,118
-462,343	140,698	-0,034	-0,032
-461,328	-20,637	0,048	0,021
-460,313	-99,918	0,026	-0,005
-459,299	663,862	0,066	0,125
-458,284	-200,000	-0,026	0,185
-457,270	180,065	0,056	-0,060
-456,255	249,722	0,040	-0,049
-455,241	-200,000	0,003	-0,017
-454,226	-200,000	-0,014	-0,054
-453,211	-107,949	-0,098	0,015
-452,197	-62,476	-0,143	0,043
-451,182	800,000	0,017	-0,035
-450,168	800,000	0,066	-0,159
-449,153	-200,000	-0,023	-0,159
-448,138	-200,000	0,013	-0,055
-447,124	180,394	-0,136	-0,146
-446,109	800,000	0,026	-0,079
-445,095	-45,150	-0,099	0,036
-444,080	511,731	0,057	0,097
-443,065	139,416	0,076	-0,073
-442,051	274,960	-0,034	-0,044
-441,036	-200,000	-0,010	-0,058
-440,022	-144,706	-0,102	-0,007
-439,007	-28,629	0,133	-0,056
-437,992	30,160	-0,031	0,020
-436,978	800,000	0,009	-0,019
-435,963	-200,000	-0,024	0,127
-434,949	-10,864	-0,061	-0,029
-433,934	244,165	0,022	0,027
-432,919	-200,000	0,006	-0,044
-431,905	-200,000	0,027	0,150
-430,890	-32,844	0,095	0,038
-429,876	-18,911	-0,043	-0,020
-428,861	-96,643	0,091	0,017
-427,846	410,478	0,029	0,045
-426,832	3,301	0,100	-0,053
-425,817	-118,830	-0,202	-0,026
-424,803	-102,613	0,039	0,007
-423,788	-87,113	0,078	0,017
-422,773	-11,541	-0,056	-0,027
-421,759	12,645	0,138	0,077
-420,744	-200,000	0,002	-0,091
-419,730	-150,197	-0,097	0,005
-418,715	-200,000	-0,002	-0,060
-417,701	355,317	0,061	-0,088
-416,686	-147,274	0,090	0,005
-415,671	14,095	0,047	0,027
-414,657	-131,939	0,065	-0,006
-413,642	266,018	0,019	0,024
-412,628	322,408	0,098	-0,136
-411,613	-59,316	-0,063	-0,020
-410,598	-13,644	-0,118	0,056
-409,584	-200,000	0,011	0,098
-408,569	29,230	0,063	0,039
-407,555	298,838	0,040	-0,054
-406,540	-200,000	-0,023	-0,113
-405,525	-200,000	-0,023	0,087
-404,511	45,195	-0,095	-0,064
-403,496	-93,707	-0,104	0,021
-402,482	-200,000	-0,020	-0,133
-401,467	-200,000	-0,020	-0,066
-400,452	3,746	0,133	-0,071
-399,438	375,540	0,038	0,056
-398,423	-39,847	0,042	-0,016
-397,409	570,433	0,030	-0,053
-396,394	-11,917	-0,077	0,036
-395,379	71,247	0,076	0,057
-394,365	8,002	0,088	0,048
-393,350	-59,784	0,043	-0,013
-392,336	800,000	0,005	-0,012
-391,321	380,994	-0,065	-0,097
-390,306	27,617	-0,119	0,073
-389,292	30,783	0,017	0,011
-388,277	800,000	0,030	0,085
-387,263	60,386	-0,014	-0,010
-386,248	24,839	0,107	-0,064
-385,233	-160,554	0,076	0,003
-384,219	-75,988	0,032	-0,008
-383,204	-150,246	-0,061	-0,003
-382,190	-101,770	-0,144	0,025
-381,175	17,556	-0,108	-0,062
-380,160	-200,000	-0,007	0,051
-379,146	116,376	0,116	0,104
-378,131	208,996	0,029	0,033
-377,117	4,019	-0,047	-0,025
-376,102	800,000	0,068	0,204
-375,088	-200,000	0,009	0,092
-374,073	-42,768	-0,073	0,027
-373,058	-114,519	0,046	0,006
-372,044	716,723	-0,020	0,040
-371,029	230,306	0,019	0,023
-370,015	166,430	-0,078	0,080
-369,000	-200,000	-0,055	-0,195
-367,985	-176,457	-0,157	0,003
-366,971	800,000	0,039	0,091
-365,956	800,000	0,037	0,108
-364,942	53,859	0,051	0,035
-363,927	800,000	-0,022	-0,059
-362,912	-95,810	0,124	-0,024
-361,898	-179,758	-0,125	0,002
-360,883	800,000	-0,020	0,065
-359,869	9,962	-0,087	0,048
-358,854	800,000	0,022	-0,070
-357,839	-75,606	0,095	0,024
-356,825	-153,957	0,077	0,004
-355,810	-25,881	-0,080	0,034
-354,796	30,933	-0,135	0,084
-353,781	10,953	0,086	0,047
-352,766	477,304	0,085	0,140
-351,752	-200,000	0,002	-0,127
-350,737	166,613	0,073	0,075
-349,723	800,000	0,038	0,094
-348,708	151,273	0,034	0,034
-347,693	100,161	0,094	0,079
-346,679	716,464	-0,069	-0,134
-345,664	-200,000	0,001	0,020
-344,650	-200,000	-0,004	0,045
-343,635	800,000	0,023	0,066
-342,620	325,770	-0,052	0,072
-341,606	-200,000	0,005	0,104
-340,591	142,582	0,074	0,072
-339,577	800,000	0,024	-0,057
-338,562	291,821	-0,006	-0,008
-337,548	77,765	-0,008	-0,006
-336,533	-200,000	-0,021	0,091
-335,518	458,477	-0,054	0,087
-334,504	-200,000	-0,015	0,188
-333,489	-200,000	-0,016	-0,102
-332,475	-68,348	-0,115	-0,032
-331,460	-200,000	-0,021	-0,129
-330,445	-200,000	0,010	0,091
-329,431	443,921	0,117	0,187
-328,416	-40,266	-0,032	-0,012
-327,402	-125,188	0,037	-0,004
-326,387	-8,551	0,033	0,016
-325,372	315,980	-0,039	-0,053
-324,358	-200,000	-0,002	-0,033
-323,343	800,000	0,014	-0,044
-322,329	237,628	0,056	-0,067
-321,314	-200,000	0,013	-0,130
-320,299	-13,068	-0,055	0,026
-319,285	800,000	-0,036	0,092
-318,270	-124,108	0,069	-0,008
-317,256	-55,630	-0,129	0,042
-316,241	-154,960	-0,051	-0,002
-315,226	85,282	0,113	0,090
-314,212	168,129	0,135	-0,140
-313,197	133,207	-0,012	0,011
-312,183	295,801	-0,038	0,051
-311,168	351,696	0,035	-0,050
-310,153	-200,000	-0,003	0,056
-309,139	-105,638	-0,103	0,017
-308,124	305,208	0,100	0,135
-307,110	800,000	0,091	0,198
-306,095	290,004	0,122	0,161
-305,080	-200,000	-0,006	-0,040
-304,066	-200,000	0,006	0,044
-303,051	2,797	-0,159	-0,083
-302,037	800,000	0,023	-0,061
-301,022	3,221	0,123	0,065
-300,008	0,332	-0,063	0,032
-298,993	-30,344	-0,039	0,016
-297,978	-7,759	-0,027	-0,013
-296,964	800,000	0,038	-0,094
-295,949	-41,973	-0,050	0,019
-294,935	-200,000	-0,022	-0,111
-293,920	71,929	0,136	-0,103
-292,905	402,261	-0,070	0,107
-291,891	-79,446	-0,041	-0,010
-290,876	-200,000	-0,003	-0,012
-289,862	108,798	-0,052	0,045
-288,847	489,438	0,054	0,089
-287,832	49,701	-0,175	0,119
-286,818	29,485	0,115	-0,071
-285,803	63,563	0,123	0,089
-284,789	-200,000	0,001	-0,055
-283,774	203,913	-0,121	0,136
-282,759	-12,129	-0,009	0,004
-281,745	169,236	0,078	-0,081
-280,730	-200,000	0,006	-0,095
-279,716	800,000	0,031	-0,073
-278,701	-72,647	0,060	0,016
-277,686	-200,000	0,024	0,121
-276,672	-117,341	-0,056	-0,007
-275,657	-200,000	0,004	-0,032
-274,643	-132,191	-0,033	0,003
-273,628	-114,404	-0,053	0,007
-272,613	244,322	-0,097	-0,119
-271,599	-200,000	0,009	0,078
-270,584	-118,640	-0,060	0,008
-269,570	28,180	0,017	0,011
-268,555	-43,833	-0,076	0,028
-267,540	75,063	-0,040	-0,030
-266,526	-200,000	-0,007	-0,069
-265,511	-40,910	-0,168	-0,063
-264,497	152,512	-0,143	0,142
-263,482	-200,000	-0,010	0,072
-262,467	189,268	0,054	0,058
-261,453	95,125	-0,038	0,031
-260,438	800,000	0,017	0,042
-259,424	163,961	-0,099	-0,101
-258,409	800,000	-0,022	-0,067
-257,395	800,000	0,021	-0,051
-256,380	-42,819	0,156	0,057
-255,365	655,426	0,043	0,081
-254,351	119,832	0,078	0,070
-253,336	234,261	0,017	-0,020
-252,322	-99,760	-0,170	0,031
-251,307	-200,000	-0,007	-0,133
-250,292	49,847	-0,086	-0,059
-249,278	106,066	-0,007	0,006
-248,263	800,000	0,027	0,080
-247,249	418,390	-0,018	0,028
-246,234	206,543	0,049	0,055
-245,219	328,671	-0,031	0,043
-244,205	-17,034	-0,093	-0,042
-243,190	620,231	0,091	0,167
-242,176	648,147	0,031	0,058
-241,161	-59,869	-0,083	-0,025
-240,146	61,249	0,139	0,100
-239,132	460,641	0,066	0,107
-238,117	222,694	-0,090	-0,105
-237,103	-53,825	0,132	-0,043
-236,088	-200,000	0,004	-0,094
-235,073	-33,423	-0,065	-0,026
-234,059	-82,114	0,233	0,055
-233,044	-6,435	-0,005	0,003
-232,030	-0,177	0,015	-0,008
-231,015	800,000	-0,016	-0,046
-230,000	-75,120	-0,209	0,054
-228,986	-200,000	-0,006	0,077
-227,971	-200,000	0,011	0,060
-226,957	43,555	0,131	-0,086
-225,942	-200,000	-0,028	-0,145
-224,927	-200,000	0,017	0,183
-223,913	309,305	-0,035	-0,048
-222,898	-99,129	-0,068	0,012
-221,884	-158,101	0,048	-0,002
-220,869	800,000	-0,064	-0,135
-219,855	-200,000	-0,007	-0,060
-218,840	107,005	-0,049	0,042
-217,825	-131,626	-0,087	0,008
-216,811	132,467	-0,029	-0,027
-215,796	800,000	-0,013	0,028
-214,782	-6,283	-0,049	-0,024
-213,767	800,000	0,014	-0,041
-212,752	358,262	0,019	0,027
-211,738	800,000	0,029	0,065
-210,723	551,640	0,018	-0,031
-209,709	-110,870	-0,123	-0,018
-208,694	800,000	-0,061	-0,183
-207,679	800,000	0,009	-0,026
-206,665	-111,532	0,105	-0,015
-205,650	-6,616	0,124	-0,061
-204,636	-200,000	-0,048	0,191
-203,621	-200,000	-0,002	0,109
-202,606	10,137	-0,094	-0,051
-201,592	-101,811	0,140	0,024
-200,577	308,886	0,083	-0,112
-199,563	452,357	0,037	0,059
-198,548	800,000	-0,023	0,063
-197,533	-200,000	-0,013	0,074
-196,519	-200,000	-0,002	-0,013
-195,504	-36,443	-0,041	0,016
-194,490	341,752	-0,050	0,070
-193,475	800,000	-0,047	-0,101
-192,460	800,000	0,057	0,159
-191,446	-46,639	0,185	0,065
-190,431	-33,368	-0,076	-0,030
-189,417	-145,001	-0,061	-0,004
-188,402	56,936	-0,151	-0,106
-187,387	177,875	0,064	-0,067
-186,373	-5,801	0,075	0,037
-185,358	-200,000	0,015	-0,107
-184,344	418,155	-0,024	0,038
-183,329	-200,000	-0,003	0,035
-182,315	133,647	-0,048	0,045
-181,300	651,098	0,065	0,121
-180,285	95,352	-0,105	-0,087
-179,271	-115,873	-0,041	-0,005
-178,256	-75,876	-0,018	-0,004
-177,242	77,629	-0,096	0,073
-176,227	-200,000	-0,003	0,055
-175,212	33,046	0,074	0,046
-174,198	439,460	0,068	0,107
-173,183	-200,000	-0,012	0,066
-172,169	57,988	-0,129	0,091
-171,154	-200,000	0,014	0,080
-170,139	79,900	-0,097	0,075
-169,125	-67,455	0,045	0,013
-168,110	-200,000	-0,043	0,212
-167,096	800,000	0,039	0,082
-166,081	-200,000	-0,016	-0,109
-165,066	124,320	-0,073	0,066
-164,052	-176,015	0,076	-0,001
-163,037	-51,388	-0,115	0,039
-162,023	370,475	0,076	0,112
-161,008	800,000	0,049	-0,142
-159,993	-200,000	0,021	-0,075
-158,979	107,393	-0,061	-0,053
-157,964	-97,366	0,034	-0,006
-156,950	178,928	-0,034	0,035
-155,935	126,952	0,111	0,101
-154,920	-51,737	0,079	-0,026
-153,906	454,898	0,013	-0,020
-152,891	-200,000	-0,027	-0,180
-151,877	204,394	-0,056	-0,063
-150,862	635,026	0,028	0,051
-149,847	121,179	-0,028	0,025
-148,833	788,807	0,056	0,112
-147,818	800,000	-0,074	0,161
-146,804	103,910	0,074	0,063
-145,789	-200,000	-0,007	-0,034
-144,775	-4,238	0,108	-0,054
-143,760	800,000	0,054	-0,114
-142,745	476,840	-0,043	-0,070
-141,731	800,000	-0,023	-0,066
-140,716	72,493	0,098	-0,074
-139,702	37,773	-0,061	-0,039
-138,687	50,421	0,080	0,055
-137,672	51,155	-0,046	-0,032
-136,658	-79,565	-0,084	-0,020
-135,643	132,094	0,050	0,046
-134,629	-200,000	-0,052	-0,196
-133,614	800,000	-0,058	0,143
-132,599	800,000	-0,040	0,093
-131,585	-29,395	-0,126	0,052
-130,570	-200,000	0,022	0,076
-129,556	299,420	-0,036	0,048
-128,541	-200,000	0,013	0,092
-127,526	800,000	-0,037	-0,079
-126,512	797,246	0,010	0,021
-125,497	95,882	0,074	0,061
-124,483	-200,000	0,017	0,091
-123,468	37,249	-0,095	0,060
-122,453	133,358	-0,117	-0,109
-121,439	103,371	-0,078	-0,066
-120,424	-200,000	0,001	-0,079
-119,410	146,469	-0,073	0,071
-118,395	-200,000	0,005	-0,052
-117,380	18,380	-0,031	-0,018
-116,366	-2,585	-0,046	0,023
-115,351	-78,902	0,166	-0,040
-114,337	-14,472	-0,138	0,063
-113,322	657,390	0,033	0,062
-112,307	800,000	0,038	-0,087
-111,293	583,076	-0,047	0,083
-110,278	23,286	0,049	0,029
-109,264	-54,227	-0,070	-0,023
-108,249	-39,186	0,150	-0,057
-107,234	800,000	0,031	0,081
-106,220	-200,000	0,038	-0,128
-105,205	-200,000	-0,036	-0,148
-104,191	-143,857	0,182	-0,012
-103,176	-200,000	0,003	0,074
-102,162	724,613	-0,030	-0,059
-101,147	-76,001	-0,055	0,014
-100,132	-200,000	-0,018	-0,087
-99,118	177,181	-0,044	0,046
-98,103	-115,643	0,060	-0,008
-97,089	74,384	0,145	-0,109
-96,074	589,805	-0,025	0,044
-95,059	-55,867	0,068	0,022
-94,045	149,249	-0,078	-0,076
-93,030	150,208	0,077	-0,075
-92,016	292,818	0,034	0,044
-91,001	125,445	0,067	0,061
-89,986	-200,000	0,013	0,087
-88,972	-200,000	-0,010	0,053
-87,957	-158,920	0,029	0,001
-86,943	-29,543	-0,025	0,010
-85,928	-62,954	-0,009	-0,003
-84,913	-200,000	0,013	0,100
-83,899	800,000	0,046	0,099
-82,884	-200,000	-0,020	0,149
-81,870	800,000	-0,013	0,027
-80,855	-200,000	-0,026	0,101
-79,840	-200,000	0,037	-0,145
-78,826	800,000	-0,030	-0,068
-77,811	315,169	-0,064	-0,087
-76,797	2,838	-0,036	0,019
-75,782	-67,673	0,117	0,033
-74,767	123,683	-0,133	0,120
-73,753	288,958	0,064	0,084
-72,738	-200,000	-0,003	0,112
-71,724	91,567	0,097	0,079
-70,709	-135,690	0,135	-0,011
-69,694	-200,000	-0,040	-0,130
-68,680	792,013	0,065	-0,128
-67,665	-143,288	0,034	-0,002
-66,651	-30,293	0,135	-0,055
-65,636	-116,668	-0,105	-0,014
-64,622	233,787	0,062	0,074
-63,607	800,000	0,040	-0,110
-62,592	14,010	-0,155	-0,086
-61,578	24,272	0,099	-0,059
-60,563	800,000	0,025	-0,062
-59,549	-49,839	-0,047	0,016
-58,534	94,281	-2,592	-2,110
-57,519	-104,540	0,460	-0,076
-56,505	800,000	-1,839	-5,482
-55,490	467,326	1,228	1,983
-54,476	800,000	5,171	11,176
-53,461	-200,000	22,996	348,249
-52,446	800,000	764,130	2273,167
-51,432	501,334	1644,656	2734,465
-50,417	93,848	1602,979	1302,874
-49,403	62,112	1259,403	899,919
-48,388	21,698	1011,592	589,377
-47,373	18,685	979,188	560,590
-46,359	12,183	966,011	531,884
-45,344	8,040	962,859	516,635
-44,330	8,370	960,822	516,597
-43,315	7,502	959,023	512,788
-42,300	7,457	957,986	512,069
-41,286	7,437	957,051	511,484
-40,271	7,428	955,964	510,852
-39,257	7,450	955,040	510,408
-38,242	7,412	954,049	509,738
-37,227	7,348	953,603	509,270
-36,213	7,361	952,533	508,722
-35,198	7,432	951,699	508,484
-34,184	7,405	951,016	508,014
-33,169	7,361	950,055	507,338
-32,154	7,428	949,345	507,153
-31,140	7,457	948,327	506,685
-30,125	7,486	947,537	506,335
-29,111	7,430	946,790	505,735
-28,096	7,469	946,142	505,493
-27,082	7,409	945,654	505,021
-26,067	7,450	944,715	504,632
-25,052	7,398	943,762	503,936
-24,038	7,457	943,173	503,790
-23,023	7,356	942,672	503,179
-22,009	7,474	941,886	503,117
-20,994	7,407	941,387	502,617
-19,979	7,425	940,726	502,301
-18,965	7,423	940,015	501,896
-17,950	7,410	939,566	501,595
-16,936	7,313	939,007	500,967
-15,921	7,385	938,142	500,713
-14,906	7,290	937,593	500,100
-13,892	7,334	937,103	499,958
-12,877	7,286	936,286	499,351
-11,863	7,256	935,880	499,020
-10,848	7,304	935,139	498,758
-9,833	7,400	934,677	498,793
-8,819	7,331	934,132	498,264
-7,804	7,336	933,284	497,811
-6,790	7,287	932,929	497,444
-5,775	7,343	932,320	497,277
-4,760	7,351	931,710	496,958
-3,746	7,294	931,190	496,480
-2,731	7,202	930,313	495,703
-1,717	7,138	929,877	495,252
-0,702	7,129	929,189	494,835
0,313	7,042	928,466	494,924
1,327	10,364	926,028	503,993
2,342	19,025	773,720	443,621
3,356	14,067	443,158	246,684
4,371	-12,072	309,109	144,572
5,386	-15,858	291,753	132,656
6,400	-18,017	285,615	127,740
7,415	-18,148	283,035	126,447
8,429	-18,921	281,167	124,856
9,444	-19,039	280,319	124,355
10,459	-18,922	279,731	124,195
11,473	-18,698	279,055	124,098
12,488	-18,830	278,697	123,802
13,502	-18,817	278,200	123,583
14,517	-18,938	277,776	123,268
15,531	-18,598	277,338	123,386
16,546	-18,470	276,929	123,314
17,561	-18,621	276,535	122,985
18,575	-18,583	276,364	122,934
19,590	-18,473	275,973	122,853
20,604	-18,450	275,744	122,762
21,619	-18,536	275,290	122,468
22,634	-18,458	274,836	122,328
23,648	-18,479	274,670	122,223
24,663	-18,597	274,489	122,021
25,677	-18,512	274,088	121,911
26,692	-18,553	273,967	121,809
27,707	-18,503	273,517	121,645
28,721	-18,413	273,204	121,578
29,736	-18,490	272,977	121,395
30,750	-18,424	272,717	121,330
31,765	-18,618	272,555	121,066
32,780	-18,668	272,318	120,904
33,794	-18,601	272,068	120,844
34,809	-18,458	271,717	120,810
35,823	-18,492	271,470	120,658
36,838	-18,329	271,270	120,710
37,853	-18,300	270,875	120,550
38,867	-18,480	270,700	120,295
39,882	-18,600	270,580	120,120
40,896	-18,587	270,373	120,029
41,911	-18,434	269,913	119,955
42,926	-18,535	269,867	119,831
43,940	-18,537	269,592	119,697
44,955	-18,451	269,303	119,637
45,969	-18,425	269,096	119,558
46,984	-18,362	268,932	119,533
47,999	-18,419	268,745	119,386
49,013	-18,302	268,510	119,378
50,028	-18,338	268,239	119,215
51,042	-18,267	268,010	119,167
52,057	-18,092	267,767	119,209
53,071	-18,535	267,773	118,795
54,086	-18,343	267,267	118,736
55,101	-18,370	267,233	118,686
56,115	-18,487	266,982	118,456
57,130	-18,531	266,588	118,231
58,144	-18,472	266,345	118,167
59,159	-18,485	266,091	118,031
60,174	-18,501	265,850	117,900
61,188	-18,637	265,678	117,689
62,203	-18,423	265,365	117,734
63,217	-18,382	265,141	117,662
64,232	-18,542	265,022	117,453
65,247	-18,590	264,673	117,245
66,261	-18,486	264,478	117,242
67,276	-18,451	264,461	117,255
68,290	-18,542	264,215	117,054
69,305	-18,592	263,972	116,890
70,320	-18,608	263,830	116,802
71,334	-18,418	263,523	116,827
72,349	-18,612	263,143	116,474
73,363	-18,558	262,937	116,422
74,378	-18,421	262,609	116,389
75,393	-18,380	262,563	116,394
76,407	-18,512	262,308	116,152
77,422	-18,293	262,026	116,213
78,436	-18,193	261,805	116,194
79,451	-18,316	261,481	115,930
80,466	-18,386	261,322	115,787
81,480	-18,301	261,174	115,787
82,495	-18,375	260,901	115,590
83,509	-18,455	260,726	115,431
84,524	-18,417	260,588	115,394
85,539	-18,291	260,367	115,397
86,553	-18,348	260,073	115,206
87,568	-18,357	259,849	115,088
88,582	-18,302	259,727	115,072
89,597	-18,333	259,586	114,972
90,611	-18,406	259,435	114,831
91,626	-18,337	259,160	114,760
92,641	-18,544	258,952	114,475
93,655	-18,466	258,752	114,445
94,670	-18,476	258,473	114,303
95,684	-18,565	258,322	114,147
96,699	-18,631	258,081	113,973
97,714	-18,268	257,808	114,160
98,728	-18,276	257,773	114,127
99,743	-18,435	257,575	113,890
100,757	-18,370	257,312	113,821
101,772	-18,434	257,019	113,625
102,787	-18,387	256,687	113,509
103,801	-18,280	256,624	113,565
104,816	-18,390	256,494	113,401
105,830	-18,402	256,178	113,241
106,845	-18,341	255,950	113,183
107,860	-18,308	255,840	113,153
108,874	-18,365	255,561	112,970
109,889	-18,429	255,354	112,813
110,903	-18,423	255,103	112,697
111,918	-18,460	255,029	112,622
112,933	-18,437	254,780	112,522
113,947	-18,360	254,679	112,535
114,962	-18,421	254,467	112,378
115,976	-18,480	254,155	112,179
116,991	-18,339	253,877	112,167
118,006	-18,294	253,753	112,142
119,020	-18,268	253,558	112,068
120,035	-18,295	253,628	112,066
121,049	-18,604	253,294	111,643
122,064	-18,446	253,138	111,700
123,079	-18,460	252,910	111,577
124,093	-18,243	252,706	111,663
125,108	-18,262	252,494	111,543
126,122	-18,399	252,347	111,351
127,137	-18,308	252,286	111,392
128,151	-18,200	251,906	111,307
129,166	-18,325	251,846	111,163
130,181	-18,264	251,576	111,087
131,195	-18,376	251,280	110,851
132,210	-18,379	251,042	110,733
133,224	-18,336	250,855	110,677
134,239	-18,489	250,869	110,543
135,254	-18,423	250,479	110,418
136,268	-18,259	250,286	110,462
137,283	-18,209	250,179	110,448
138,297	-18,298	249,869	110,225
139,312	-18,265	249,696	110,167
140,327	-18,304	249,476	110,027
141,341	-18,481	249,304	109,792
142,356	-18,282	249,024	109,827
143,370	-18,303	248,940	109,762
144,385	-18,247	248,662	109,677
145,400	-18,510	248,543	109,394
146,414	-18,335	248,344	109,444
147,429	-18,301	248,150	109,377
148,443	-18,376	247,983	109,230
149,458	-18,405	247,929	109,172
150,473	-18,474	247,576	108,949
151,487	-18,488	247,497	108,893
152,502	-18,237	247,098	108,918
153,516	-18,417	247,013	108,720
154,531	-18,227	246,700	108,731
155,546	-18,321	246,626	108,611
156,560	-18,518	246,611	108,430
157,575	-18,284	246,167	108,420
158,589	-18,334	246,066	108,324
159,604	-18,369	245,991	108,252
160,619	-18,333	245,626	108,112
161,633	-18,342	245,622	108,093
162,648	-18,312	245,408	108,015
163,662	-18,369	245,239	107,882
164,677	-18,342	245,084	107,827
165,692	-18,366	244,903	107,718
166,706	-18,342	244,735	107,655
167,721	-18,306	244,604	107,617
168,735	-18,402	244,453	107,462
169,750	-18,413	244,321	107,385
170,764	-18,393	244,063	107,278
171,779	-18,288	244,008	107,332
172,794	-18,134	243,685	107,306
173,808	-18,375	243,559	107,043
174,823	-18,316	243,529	107,069
175,837	-18,270	243,366	107,026
176,852	-18,361	243,133	106,839
177,867	-18,330	242,882	106,745
178,881	-18,300	242,784	106,716
179,896	-18,287	242,566	106,622
180,910	-18,425	242,385	106,420
181,925	-18,208	242,055	106,443
182,940	-18,306	241,938	106,302
183,954	-18,405	241,721	106,116
184,969	-18,260	241,723	106,226
185,983	-18,410	241,539	106,013
186,998	-18,487	241,279	105,827
188,013	-18,172	241,137	106,012
189,027	-18,298	241,028	105,852
190,042	-18,265	240,746	105,745
191,056	-18,328	240,548	105,598
192,071	-18,402	240,467	105,493
193,086	-18,316	240,318	105,488
194,100	-18,339	240,000	105,320
195,115	-18,308	239,864	105,276
196,129	-18,358	239,663	105,138
197,144	-18,259	239,381	105,085
198,159	-18,108	239,251	105,140
199,173	-18,369	239,173	104,886
200,188	-18,385	238,894	104,742
201,202	-18,623	238,932	104,557
202,217	-18,103	238,600	104,821
203,232	-18,186	238,492	104,698
204,246	-18,337	238,285	104,476
205,261	-18,653	238,056	104,113
206,275	-16,930	238,419	105,647
207,290	-12,296	240,085	110,122
208,304	-5,781	242,176	116,373
209,319	-2,266	243,232	119,736
210,334	-0,949	243,505	120,932
211,348	-0,327	243,464	121,408
212,363	0,177	243,531	121,840
213,377	0,253	243,474	121,863
214,392	0,674	243,316	122,116
215,407	0,806	243,318	122,213
216,421	1,200	243,075	122,400
217,436	1,192	243,052	122,371
218,450	0,983	242,893	122,111
219,465	1,283	242,612	122,201
220,480	1,473	242,540	122,309
221,494	1,085	242,372	121,898
222,509	0,731	242,201	121,515
223,523	0,534	241,921	121,205
224,538	0,548	241,721	121,106
225,553	0,396	241,569	120,896
226,567	0,676	241,299	120,975
227,582	0,756	241,103	120,931
228,596	0,613	240,972	120,739
229,611	0,485	240,995	120,637
230,626	0,582	240,669	120,541
231,640	0,511	240,644	120,460
232,655	0,726	240,340	120,470
233,669	0,458	240,258	120,204
234,684	0,489	240,025	120,102
235,699	0,610	239,888	120,119
236,713	0,505	239,796	119,978
237,728	0,473	239,572	119,830
238,742	0,542	239,483	119,829
239,757	0,425	239,276	119,621
240,772	0,465	239,245	119,628
241,786	0,472	238,876	119,438
242,801	0,494	238,822	119,418
243,815	0,717	238,511	119,429
244,830	0,492	238,575	119,272
245,844	0,645	238,307	119,248
246,859	0,406	238,196	118,993
247,874	0,755	237,926	119,124
248,888	0,556	237,797	118,891
249,903	0,582	237,793	118,899
250,917	0,558	237,617	118,781
251,932	0,658	237,511	118,797
252,947	0,687	237,147	118,627
253,961	0,690	237,122	118,607
254,976	0,473	236,964	118,346
255,990	0,570	236,827	118,343
257,005	0,579	236,710	118,281
258,020	0,718	236,594	118,322
259,034	0,796	236,330	118,241
260,049	0,608	236,213	118,024
261,063	0,597	236,121	117,959
262,078	0,575	235,918	117,830
263,093	0,427	235,769	117,629
264,107	0,676	235,441	117,649
265,122	0,608	235,498	117,614
266,136	0,712	235,278	117,575
267,151	0,590	235,066	117,363
268,166	0,718	234,863	117,352
269,180	0,514	234,814	117,157
270,195	0,721	234,590	117,197
271,209	0,705	234,354	117,055
272,224	0,641	234,355	116,996
273,239	0,460	234,239	116,786
274,253	0,480	234,044	116,695
275,268	0,614	233,745	116,639
276,282	0,568	233,706	116,574
277,297	0,485	233,641	116,466
278,312	0,300	233,436	116,210
279,326	0,493	233,373	116,318
280,341	0,746	233,188	116,412
281,355	0,715	232,940	116,253
282,370	0,751	232,916	116,259
283,384	0,700	232,677	116,090
284,399	0,475	232,545	115,840
285,414	0,684	232,380	115,909
286,428	0,637	232,192	115,768
287,443	0,655	232,068	115,710
288,457	0,836	231,899	115,755
289,472	0,496	231,853	115,460
290,487	0,563	231,740	115,445
291,501	0,629	231,459	115,345
292,516	0,571	231,410	115,266
293,530	0,629	231,172	115,182
294,545	0,653	231,149	115,178
295,560	0,545	230,922	114,972
296,574	0,741	230,721	115,012
297,589	0,727	230,600	114,930
298,603	0,592	230,540	114,787
299,618	0,745	230,315	114,782
300,633	0,829	230,311	114,834
301,647	0,807	229,967	114,635
302,662	0,856	230,004	114,681
303,676	0,903	229,689	114,549
304,691	0,989	229,582	114,552
305,706	0,924	229,384	114,393
306,720	0,886	229,222	114,273
307,735	0,958	229,283	114,348
308,749	0,857	229,136	114,187
309,764	0,861	228,970	114,098
310,779	0,947	228,702	114,020
311,793	0,907	228,419	113,838
312,808	0,945	228,502	113,898
313,822	0,864	228,312	113,732
314,837	0,777	228,132	113,566
315,852	0,780	228,028	113,506
316,866	0,782	227,942	113,455
317,881	0,829	227,748	113,384
318,895	0,826	227,551	113,273
319,910	0,820	227,275	113,122
320,925	0,900	227,239	113,153
321,939	0,860	227,199	113,093
322,954	0,765	227,074	112,950
323,968	0,842	226,920	112,920
324,983	0,799	226,955	112,895
325,997	0,820	226,448	112,649
327,012	0,908	226,476	112,719
328,027	0,761	226,336	112,530
329,041	0,929	226,252	112,603
330,056	0,768	226,047	112,371
331,070	0,823	225,826	112,292
332,085	1,139	225,648	112,429
333,100	0,838	225,622	112,182
334,114	0,920	225,394	112,120
335,129	0,792	225,246	111,940
336,143	0,910	225,157	111,974
337,158	0,975	225,044	111,956
338,173	1,131	224,876	111,979
339,187	1,086	224,701	111,848
340,202	0,985	224,623	111,724
341,216	0,885	224,488	111,573
342,231	1,007	224,376	111,598
343,246	1,214	224,040	111,574
344,260	0,958	223,984	111,347
345,275	1,186	223,803	111,416
346,289	0,922	223,695	111,156
347,304	1,176	223,445	111,210
348,319	0,948	223,397	111,008
349,333	0,942	223,369	110,979
350,348	0,958	223,171	110,883
351,362	0,969	223,065	110,829
352,377	1,072	222,880	110,803
353,392	1,033	222,773	110,711
354,406	1,114	222,660	110,705
355,421	193,119	1310,686	1378,758
356,435	154,651	1443,087	1378,590
