DTS Sentinel unit serial number:	SN410029Multiplexer serial number:	ORYXHardware model number:	OX2-SRSoftware version number:	ORYX F/W v4,00 Oryx Data Collector v3.7.2.0data status	okinstallation	B5 Nyhavnadifferential loss correction	single-endedforward channel	channel 2reverse channel	N/Adate	2023/12/13time	03:07:13forward acquisition time	300,00reverse acquisition time	0,00gamma	499,1914k internal	0,3160k external	0,3160temperature offset calibration	1,0000default loss term (dB/km)	0,3820temperature slope calibration	1,0000multiplexer offset coefficient	1,0000multiplexer slope coefficient	1,0000fibre end	0,00T internal ref (°C)	13,96T ext. ref 1 (°C)	-2,47T ext. ref 2 (°C)	-2,77length (m)	temperature (°C)	Stokes	anti-Stokes-744,400	178,567	0,096	0,104
-743,385	-174,591	-0,280	-0,006
-742,371	28,245	0,095	0,059
-741,356	5,721	-0,291	0,158
-740,342	-37,631	0,130	-0,051
-739,327	-158,013	-0,320	-0,014
-738,312	6,395	0,037	0,020
-737,298	-143,428	-0,214	-0,015
-736,283	16,637	0,158	0,092
-735,269	-141,704	-0,403	-0,029
-734,254	-162,923	0,132	-0,005
-733,239	-41,937	-0,549	-0,206
-732,225	11,216	0,144	0,081
-731,210	63,642	-0,067	0,050
-730,196	274,524	-0,082	-0,107
-729,181	-24,139	-0,097	-0,043
-728,167	-168,063	-0,134	0,004
-727,152	-200,000	0,015	-0,093
-726,137	-60,028	-0,087	0,027
-725,123	643,391	-0,080	0,150
-724,108	-62,778	-0,029	0,009
-723,094	21,022	-0,150	-0,089
-722,079	-200,000	-0,022	0,207
-721,064	-53,347	-0,047	0,016
-720,050	139,789	0,072	-0,070
-719,035	800,000	0,027	-0,060
-718,021	-173,094	-0,063	0,001
-717,006	12,326	-0,060	-0,034
-715,991	800,000	-0,077	-0,177
-714,977	-200,000	0,019	-0,080
-713,962	524,766	-0,049	-0,085
-712,948	232,182	-0,072	-0,088
-711,933	-59,784	-0,070	0,022
-710,918	40,440	0,117	-0,078
-709,904	96,335	-0,129	-0,109
-708,889	-130,496	-0,029	-0,003
-707,875	-200,000	0,005	-0,015
-706,860	225,787	-0,063	0,075
-705,845	800,000	-0,023	0,052
-704,831	113,386	0,013	0,012
-703,816	-122,331	-0,065	-0,008
-702,802	52,166	-0,135	-0,095
-701,787	-200,000	-0,011	-0,059
-700,772	-130,732	-0,124	-0,012
-699,758	311,172	-0,046	-0,064
-698,743	768,096	0,062	-0,125
-697,729	800,000	0,025	0,053
-696,714	800,000	0,088	0,202
-695,699	636,877	-0,068	0,128
-694,685	268,612	-0,041	0,053
-693,670	800,000	-0,040	-0,088
-692,656	301,177	0,053	0,072
-691,641	-200,000	-0,040	0,147
-690,627	-200,000	0,027	0,103
-689,612	-200,000	-0,007	0,074
-688,597	238,715	-0,029	0,035
-687,583	-200,000	-0,029	-0,161
-686,568	-200,000	0,013	0,052
-685,554	-200,000	-0,009	-0,100
-684,539	104,447	-0,025	0,022
-683,524	-200,000	0,012	-0,105
-682,510	405,242	0,059	0,091
-681,495	305,177	-0,059	-0,081
-680,481	787,401	0,015	0,030
-679,466	563,028	-0,070	-0,126
-678,451	-8,674	-0,183	-0,090
-677,437	770,319	0,080	-0,161
-676,422	104,307	-0,060	-0,052
-675,408	800,000	-0,032	-0,076
-674,393	61,504	0,070	-0,051
-673,378	247,927	-0,026	-0,033
-672,364	-21,934	-0,107	0,048
-671,349	-93,055	-0,061	-0,012
-670,335	36,183	0,050	0,032
-669,320	7,282	-0,033	-0,018
-668,305	-135,873	0,070	-0,006
-667,291	0,017	0,097	0,051
-666,276	-157,404	-0,216	0,009
-665,262	215,460	-0,035	-0,041
-664,247	93,905	0,083	-0,069
-663,232	-200,000	-0,013	0,125
-662,218	800,000	0,005	0,015
-661,203	8,880	-0,056	-0,031
-660,189	159,550	0,041	-0,042
-659,174	-78,762	-0,007	0,002
-658,159	-114,327	-0,234	-0,033
-657,145	150,259	-0,081	-0,081
-656,130	-200,000	-0,010	0,049
-655,116	-200,000	0,031	0,155
-654,101	306,855	0,067	0,092
-653,086	800,000	0,006	-0,015
-652,072	67,326	-0,081	-0,060
-651,057	-124,140	-0,076	-0,009
-650,043	452,083	0,060	-0,098
-649,028	800,000	0,038	0,109
-648,014	539,611	-0,028	-0,049
-646,999	128,564	-0,096	0,089
-645,984	44,161	-0,072	-0,048
-644,970	-200,000	0,008	-0,088
-643,955	109,170	-0,067	0,059
-642,941	-200,000	-0,024	-0,137
-641,926	-200,000	0,025	-0,088
-640,911	-3,964	0,089	0,045
-639,897	-114,498	-0,023	0,003
-638,882	-200,000	0,021	-0,157
-637,868	-200,000	-0,020	0,073
-636,853	-200,000	-0,037	0,123
-635,838	-60,328	-0,159	-0,049
-634,824	68,457	-0,140	-0,105
-633,809	-19,443	0,069	-0,031
-632,795	473,354	-0,048	-0,079
-631,780	185,160	0,043	0,047
-630,765	-200,000	0,012	-0,150
-629,751	2,065	0,058	-0,030
-628,736	800,000	-0,032	0,085
-627,722	-78,761	0,042	0,011
-626,707	-200,000	0,008	-0,065
-625,692	-122,751	-0,184	-0,022
-624,678	-32,451	-0,162	0,066
-623,663	285,398	0,086	-0,114
-622,649	527,384	0,023	-0,040
-621,634	-159,825	-0,106	0,004
-620,619	-41,680	0,086	-0,032
-619,605	800,000	0,063	0,180
-618,590	-200,000	0,006	0,075
-617,576	-43,034	0,028	0,010
-616,561	-200,000	0,007	-0,033
-615,546	-24,739	-0,123	0,054
-614,532	800,000	-0,039	0,089
-613,517	800,000	-0,033	-0,071
-612,503	13,916	0,114	-0,065
-611,488	257,343	-0,043	-0,054
-610,474	161,893	-0,149	0,153
-609,459	50,539	0,076	0,053
-608,444	-39,324	-0,111	-0,042
-607,430	-200,000	-0,030	-0,121
-606,415	75,705	-0,085	0,066
-605,401	383,939	0,027	-0,041
-604,386	-200,000	-0,008	0,068
-603,371	28,578	0,082	-0,051
-602,357	800,000	-0,009	-0,018
-601,342	-31,711	-0,085	-0,035
-600,328	800,000	0,015	-0,034
-599,313	800,000	-0,049	-0,113
-598,298	99,380	0,111	-0,094
-597,284	-200,000	-0,013	-0,135
-596,269	408,013	-0,026	-0,040
-595,255	334,040	0,051	0,073
-594,240	21,987	-0,118	-0,070
-593,225	-200,000	-0,021	-0,102
-592,211	-200,000	-0,001	-0,161
-591,196	-109,665	-0,077	0,012
-590,182	-200,000	-0,001	0,039
-589,167	-129,106	-0,070	0,007
-588,152	339,350	0,042	0,059
-587,138	-200,000	-0,000	-0,022
-586,123	800,000	-0,066	0,176
-585,109	270,131	-0,073	0,094
-584,094	360,938	0,078	-0,115
-583,079	-200,000	-0,010	-0,210
-582,065	-122,614	-0,068	0,008
-581,050	151,135	0,127	0,127
-580,036	57,938	-0,118	-0,085
-579,021	66,048	-0,055	-0,041
-578,006	-78,834	-0,170	-0,042
-576,992	-200,000	-0,043	0,151
-575,977	70,891	0,071	-0,054
-574,963	-200,000	-0,001	-0,043
-573,948	-200,000	0,013	0,080
-572,934	-200,000	0,004	-0,038
-571,919	-200,000	0,009	-0,038
-570,904	399,073	0,077	-0,118
-569,890	139,159	-0,015	-0,014
-568,875	-5,638	0,097	0,049
-567,861	-200,000	0,049	0,173
-566,846	66,506	0,077	-0,057
-565,831	-200,000	-0,020	-0,087
-564,817	220,293	-0,068	-0,080
-563,802	43,587	-0,079	-0,053
-562,788	-121,183	0,062	-0,007
-561,773	91,172	0,122	0,100
-560,758	488,638	-0,047	0,079
-559,744	-200,000	-0,012	-0,130
-558,729	102,048	-0,026	0,022
-557,715	360,440	-0,064	-0,095
-556,700	800,000	0,038	-0,122
-555,685	-200,000	0,010	0,059
-554,671	82,939	-0,017	0,014
-553,656	14,546	0,059	0,034
-552,642	800,000	-0,040	-0,087
-551,627	-102,131	0,043	-0,008
-550,612	-200,000	-0,022	-0,071
-549,598	800,000	-0,052	-0,115
-548,583	-200,000	0,022	0,144
-547,569	-92,661	0,080	0,016
-546,554	-200,000	0,003	-0,078
-545,539	-28,514	0,045	-0,019
-544,525	-21,905	-0,037	-0,016
-543,510	354,779	-0,012	0,017
-542,496	-30,799	-0,058	0,024
-541,481	-130,527	0,073	-0,007
-540,466	25,660	-0,131	-0,080
-539,452	106,008	0,074	-0,064
-538,437	-18,517	-0,225	-0,102
-537,423	62,192	0,050	-0,037
-536,408	28,771	0,058	-0,036
-535,393	800,000	-0,040	-0,096
-534,379	-23,969	-0,024	-0,011
-533,364	-119,113	0,102	-0,013
-532,350	-200,000	-0,001	-0,110
-531,335	255,660	0,036	0,046
-530,321	93,769	0,083	0,069
-529,306	18,355	0,068	-0,040
-528,291	70,128	0,033	0,025
-527,277	428,591	-0,045	0,072
-526,262	495,698	0,065	0,109
-525,248	-200,000	-0,014	0,128
-524,233	-117,266	0,066	0,009
-523,218	166,535	-0,027	-0,028
-522,204	-200,000	0,001	-0,051
-521,189	478,842	-0,033	0,055
-520,175	-72,871	0,123	0,033
-519,160	-95,099	-0,152	0,030
-518,145	35,698	-0,059	0,038
-517,131	800,000	0,015	0,034
-516,116	-200,000	0,015	-0,060
-515,102	800,000	0,036	-0,113
-514,087	28,986	-0,066	-0,041
-513,072	-58,390	0,086	-0,027
-512,058	81,836	-0,031	0,024
-511,043	136,859	-0,078	0,074
-510,029	800,000	-0,070	-0,194
-509,014	-200,000	0,014	0,070
-507,999	-0,543	0,052	0,027
-506,985	-200,000	-0,011	0,057
-505,970	5,643	-0,130	0,070
-504,956	90,131	0,052	-0,042
-503,941	203,607	-0,008	0,010
-502,926	800,000	-0,061	0,144
-501,912	-9,979	0,108	0,052
-500,897	-39,430	-0,071	0,027
-499,883	0,449	0,134	0,070
-498,868	107,871	0,071	-0,062
-497,853	-34,905	0,093	0,037
-496,839	800,000	0,017	0,040
-495,824	-200,000	0,046	0,151
-494,810	162,676	0,078	0,080
-493,795	88,208	0,026	-0,021
-492,781	653,633	-0,017	-0,032
-491,766	-200,000	-0,053	-0,179
-490,751	136,213	-0,058	-0,055
-489,737	136,365	0,076	0,072
-488,722	34,762	0,078	-0,049
-487,708	-200,000	0,002	0,126
-486,693	54,308	0,086	-0,060
-485,678	-160,740	-0,097	-0,004
-484,664	-200,000	-0,009	0,104
-483,649	-176,952	-0,170	-0,003
-482,635	131,235	-0,055	0,052
-481,620	-179,447	0,116	0,002
-480,605	128,493	0,082	0,076
-479,591	32,114	-0,078	-0,049
-478,576	-200,000	0,002	-0,038
-477,562	-200,000	-0,018	-0,107
-476,547	-46,601	-0,133	-0,047
-475,532	-60,722	-0,054	0,016
-474,518	-200,000	-0,019	0,123
-473,503	31,767	-0,129	-0,081
-472,489	37,309	0,083	-0,054
-471,474	-19,725	-0,112	-0,050
-470,459	-200,000	-0,010	-0,199
-469,445	800,000	0,029	-0,078
-468,430	178,727	0,072	-0,077
-467,416	-200,000	0,034	0,126
-466,401	800,000	0,049	0,139
-465,386	-53,524	0,113	-0,038
-464,372	200,613	-0,081	0,091
-463,357	304,830	0,048	0,065
-462,343	45,953	0,068	-0,046
-461,328	-200,000	-0,001	0,037
-460,313	510,265	0,065	0,110
-459,299	-200,000	0,004	0,066
-458,284	20,000	0,062	0,036
-457,270	-104,800	-0,087	0,014
-456,255	-200,000	-0,025	-0,141
-455,241	-200,000	-0,004	-0,015
-454,226	356,744	0,065	-0,094
-453,211	-200,000	-0,036	0,152
-452,197	635,477	0,020	0,036
-451,182	-18,877	0,102	0,046
-450,168	588,819	-0,112	0,201
-449,153	260,899	-0,041	0,052
-448,138	28,400	-0,125	0,077
-447,124	193,098	0,040	-0,044
-446,109	-200,000	-0,029	-0,147
-445,095	125,593	0,114	0,105
-444,080	128,723	0,075	-0,070
-443,065	-200,000	0,019	0,107
-442,051	-200,000	-0,023	0,101
-441,036	-63,582	-0,038	-0,011
-440,022	800,000	0,069	-0,150
-439,007	108,690	0,033	0,029
-437,992	17,812	0,087	0,050
-436,978	800,000	0,012	-0,027
-435,963	-118,522	0,060	0,008
-434,949	552,389	0,024	0,042
-433,934	179,835	-0,091	-0,097
-432,919	279,459	-0,108	-0,141
-431,905	-200,000	0,031	-0,137
-430,890	-165,895	0,188	-0,006
-429,876	-200,000	-0,020	0,132
-428,861	800,000	-0,044	-0,099
-427,846	-148,951	0,146	0,008
-426,832	76,677	-0,097	0,075
-425,817	-200,000	-0,014	-0,212
-424,803	-23,749	-0,034	-0,015
-423,788	17,839	-0,053	-0,030
-422,773	-158,757	0,063	0,003
-421,759	313,638	0,078	0,107
-420,744	609,789	-0,045	0,082
-419,730	-26,250	-0,109	-0,046
-418,715	50,719	-0,089	0,062
-417,701	-26,515	0,075	-0,032
-416,686	-37,128	0,157	0,061
-415,671	-7,799	0,129	0,063
-414,657	-200,000	0,012	-0,089
-413,642	16,924	-0,060	0,034
-412,628	-35,515	-0,127	0,050
-411,613	-35,669	-0,056	0,022
-410,598	159,076	0,061	-0,062
-409,584	174,825	0,061	-0,064
-408,569	800,000	-0,014	0,038
-407,555	-200,000	-0,001	-0,094
-406,540	391,339	0,054	0,082
-405,525	800,000	-0,033	-0,098
-404,511	41,143	0,100	-0,066
-403,496	-26,609	-0,100	0,042
-402,482	193,095	-0,096	0,106
-401,467	-200,000	-0,012	-0,067
-400,452	221,459	0,031	0,036
-399,438	4,723	-0,095	-0,051
-398,423	-200,000	-0,000	0,078
-397,409	325,490	-0,055	0,076
-396,394	120,420	0,049	-0,044
-395,379	83,583	0,076	-0,060
-394,365	-200,000	0,042	0,153
-393,350	800,000	-0,017	0,050
-392,336	268,228	-0,021	-0,027
-391,321	80,734	-0,030	-0,024
-390,306	52,723	0,052	-0,036
-389,292	-162,171	-0,057	0,002
-388,277	-78,360	-0,137	0,034
-387,263	-35,612	0,040	-0,016
-386,248	-200,000	0,011	-0,135
-385,233	452,473	0,025	0,040
-384,219	384,300	-0,047	0,071
-383,204	-200,000	0,011	0,058
-382,190	-25,402	0,101	-0,043
-381,175	367,226	-0,058	-0,085
-380,160	118,377	0,108	0,097
-379,146	47,906	-0,050	-0,034
-378,131	148,688	0,053	0,052
-377,117	86,637	0,027	0,021
-376,102	800,000	-0,038	-0,090
-375,088	-200,000	-0,012	0,099
-374,073	59,947	0,017	0,012
-373,058	800,000	0,095	0,198
-372,044	-24,631	0,087	-0,038
-371,029	-55,672	-0,067	0,022
-370,015	-200,000	-0,019	0,109
-369,000	-200,000	-0,016	-0,096
-367,985	-200,000	0,018	-0,096
-366,971	-102,160	-0,010	0,002
-365,956	-45,960	0,128	-0,046
-364,942	-162,242	0,055	-0,002
-363,927	-200,000	0,021	-0,109
-362,912	-200,000	-0,009	0,031
-361,898	800,000	0,057	-0,175
-360,883	-47,054	0,076	-0,027
-359,869	527,801	-0,039	-0,066
-358,854	-43,089	-0,035	-0,013
-357,839	800,000	-0,047	0,139
-356,825	-139,530	0,051	-0,004
-355,810	-24,465	-0,087	0,037
-354,796	-68,873	0,021	-0,006
-353,781	-83,916	-0,070	-0,016
-352,766	164,703	-0,061	0,062
-351,752	241,552	-0,077	-0,094
-350,737	800,000	0,048	0,128
-349,723	564,271	-0,043	0,076
-348,708	-200,000	-0,036	-0,132
-347,693	-118,638	0,087	0,011
-346,679	-200,000	-0,016	-0,088
-345,664	-91,317	0,022	-0,004
-344,650	-130,204	0,027	-0,003
-343,635	23,756	-0,048	0,029
-342,620	-83,744	0,178	-0,041
-341,606	95,756	0,095	0,079
-340,591	233,428	-0,052	-0,063
-339,577	203,491	-0,109	0,122
-338,562	-9,570	-0,030	0,015
-337,548	-129,961	-0,054	-0,005
-336,533	137,885	0,033	0,031
-335,518	72,949	0,104	0,079
-334,504	-200,000	0,002	0,015
-333,489	800,000	0,023	-0,060
-332,475	123,322	0,052	0,047
-331,460	-68,498	-0,038	-0,011
-330,445	105,136	-0,046	-0,040
-329,431	219,784	-0,031	0,036
-328,416	168,393	-0,058	0,060
-327,402	141,193	-0,050	0,048
-326,387	45,462	-0,175	0,117
-325,372	361,730	0,027	0,040
-324,358	-200,000	0,029	0,093
-323,343	-74,706	0,051	-0,013
-322,329	-112,178	0,048	-0,007
-321,314	-69,146	-0,067	0,018
-320,299	256,096	0,029	-0,036
-319,285	-22,566	0,057	-0,025
-318,270	-200,000	-0,002	-0,038
-317,256	-200,000	-0,001	-0,049
-316,241	-200,000	-0,022	-0,090
-315,226	-200,000	0,004	-0,063
-314,212	37,242	0,095	0,061
-313,197	169,048	0,098	0,101
-312,183	-99,956	-0,075	-0,014
-311,168	-200,000	-0,005	0,040
-310,153	101,304	-0,032	-0,027
-309,139	-200,000	0,002	-0,068
-308,124	-200,000	-0,026	0,086
-307,110	-200,000	-0,018	0,058
-306,095	84,518	-0,032	0,025
-305,080	448,951	-0,113	0,181
-304,066	-200,000	0,015	-0,050
-303,051	274,407	-0,072	-0,092
-302,037	-67,783	-0,132	0,037
-301,022	70,987	0,180	-0,135
-300,008	-145,981	0,056	0,004
-298,993	-48,822	0,184	0,063
-297,978	10,612	-0,085	0,047
-296,964	800,000	0,037	-0,076
-295,949	45,525	-0,168	0,112
-294,935	-135,694	0,192	-0,016
-293,920	-33,496	0,076	-0,030
-292,905	-200,000	-0,011	0,042
-291,891	584,906	0,076	0,135
-290,876	-35,838	0,095	-0,037
-289,862	129,510	-0,081	0,075
-288,847	133,401	0,012	0,011
-287,832	-86,196	-0,033	-0,007
-286,818	-200,000	-0,010	0,102
-285,803	800,000	-0,033	0,094
-284,789	201,191	-0,090	0,100
-283,774	-122,470	-0,107	-0,012
-282,759	379,797	-0,021	0,031
-281,745	800,000	0,038	-0,089
-280,730	104,298	-0,113	-0,097
-279,716	-200,000	-0,027	-0,135
-278,701	-200,000	-0,006	0,107
-277,686	-200,000	0,002	-0,091
-276,672	143,336	0,042	-0,041
-275,657	-42,520	-0,058	-0,021
-274,643	-200,000	-0,005	-0,025
-273,628	53,605	-0,067	-0,046
-272,613	-200,000	0,012	-0,041
-271,599	232,169	-0,028	0,033
-270,584	129,504	0,135	-0,125
-269,570	-19,035	0,180	-0,081
-268,555	-200,000	0,006	0,095
-267,540	264,891	0,090	0,113
-266,526	103,465	0,092	-0,078
-265,511	696,360	-0,033	0,063
-264,497	368,313	0,021	-0,031
-263,482	29,262	-0,053	-0,032
-262,467	376,575	0,073	0,108
-261,453	239,748	0,059	0,071
-260,438	65,848	-0,158	-0,115
-259,424	277,741	0,023	0,030
-258,409	343,469	0,072	-0,102
-257,395	-200,000	0,002	-0,029
-256,380	-200,000	-0,001	0,082
-255,365	10,954	0,194	-0,107
-254,351	-118,196	-0,114	-0,014
-253,336	-96,201	0,172	-0,033
-252,322	174,214	-0,168	-0,175
-251,307	800,000	0,084	0,175
-250,292	-9,496	-0,130	0,062
-249,278	-200,000	0,001	-0,016
-248,263	-15,632	0,050	-0,023
-247,249	277,491	-0,100	0,129
-246,234	-78,415	-0,080	0,020
-245,219	-106,079	-0,063	-0,010
-244,205	49,331	-0,030	-0,020
-243,190	-54,960	-0,054	0,017
-242,176	257,795	-0,061	0,076
-241,161	475,007	0,035	0,057
-240,146	-200,000	-0,020	0,084
-239,132	-105,585	0,109	0,018
-238,117	447,798	-0,082	-0,131
-237,103	-200,000	0,005	-0,049
-236,088	-90,783	-0,086	-0,018
-235,073	-109,492	0,111	-0,017
-234,059	-111,436	0,121	-0,018
-233,044	-200,000	0,003	0,168
-232,030	800,000	0,035	0,090
-231,015	-200,000	0,026	-0,126
-230,000	-63,426	0,020	0,006
-228,986	446,925	-0,069	0,110
-227,971	532,244	0,087	0,149
-226,957	55,251	0,062	-0,043
-225,942	79,464	0,094	0,073
-224,927	-200,000	0,009	-0,104
-223,913	800,000	-0,013	-0,037
-222,898	413,756	-0,058	0,090
-221,884	-11,871	-0,044	0,021
-220,869	115,071	0,141	-0,124
-219,855	-200,000	-0,007	-0,038
-218,840	192,533	-0,064	0,070
-217,825	-200,000	0,004	0,035
-216,811	277,203	-0,047	0,060
-215,796	800,000	0,089	-0,193
-214,782	46,780	-0,157	-0,105
-213,767	315,676	0,085	0,116
-212,752	800,000	0,027	0,061
-211,738	-200,000	0,004	0,077
-210,723	-45,614	0,030	-0,011
-209,709	-200,000	0,007	-0,227
-208,694	-200,000	-0,025	-0,100
-207,679	800,000	0,039	-0,094
-206,665	800,000	-0,082	0,182
-205,650	-200,000	-0,002	0,028
-204,636	163,661	0,075	0,076
-203,621	800,000	-0,055	0,150
-202,606	-200,000	-0,005	0,084
-201,592	170,472	-0,087	0,090
-200,577	-2,242	0,132	0,067
-199,563	800,000	-0,038	0,099
-198,548	-38,107	-0,008	-0,003
-197,533	800,000	0,058	0,164
-196,519	22,948	-0,036	0,021
-195,504	-36,509	0,081	0,031
-194,490	-200,000	-0,007	-0,138
-193,475	-200,000	-0,027	-0,099
-192,460	-200,000	0,003	0,044
-191,446	72,576	0,065	0,049
-190,431	-71,664	0,029	-0,008
-189,417	-200,000	-0,012	0,038
-188,402	85,030	0,011	0,009
-187,387	-200,000	0,011	-0,039
-186,373	-193,702	0,019	-0,000
-185,358	168,967	-0,062	-0,064
-184,344	-36,604	-0,054	-0,021
-183,329	190,325	0,049	0,053
-182,315	-87,377	0,072	0,016
-181,300	260,808	0,042	-0,052
-180,285	16,009	-0,157	-0,089
-179,271	40,703	0,038	-0,025
-178,256	-0,447	0,143	0,073
-177,242	89,947	-0,170	0,137
-176,227	29,337	-0,105	-0,064
-175,212	-200,000	-0,007	0,044
-174,198	128,838	0,033	-0,030
-173,183	197,659	-0,103	0,114
-172,169	67,723	-0,065	-0,048
-171,154	-200,000	-0,003	-0,255
-170,139	-200,000	0,014	-0,079
-169,125	-128,011	0,105	-0,011
-168,110	-200,000	-0,013	0,074
-167,096	93,845	-0,026	-0,021
-166,081	-200,000	-0,033	-0,156
-165,066	-200,000	0,022	-0,181
-164,052	800,000	-0,064	-0,132
-163,037	-123,397	0,088	0,010
-162,023	-155,405	0,059	0,003
-161,008	800,000	0,054	0,169
-159,993	-70,989	0,134	0,036
-158,979	-200,000	-0,005	-0,048
-157,964	-200,000	-0,019	0,116
-156,950	408,933	-0,054	-0,082
-155,935	304,184	0,022	-0,029
-154,920	396,623	-0,068	0,103
-153,906	800,000	0,036	0,081
-152,891	397,258	0,010	0,015
-151,877	-200,000	0,005	0,130
-150,862	176,669	-0,011	-0,011
-149,847	264,369	-0,029	0,037
-148,833	481,365	0,083	-0,136
-147,818	-200,000	-0,049	0,189
-146,804	-200,000	-0,020	0,135
-145,789	-147,171	-0,141	0,009
-144,775	-134,646	-0,116	-0,010
-143,760	800,000	0,032	-0,082
-142,745	-17,044	-0,115	0,052
-141,731	-200,000	-0,005	0,035
-140,716	800,000	0,019	-0,060
-139,702	-200,000	0,003	0,147
-138,687	1,351	-0,049	-0,025
-137,672	-3,924	-0,048	0,024
-136,658	621,440	0,066	-0,121
-135,643	294,816	-0,005	-0,007
-134,629	-200,000	0,000	-0,024
-133,614	-200,000	0,017	0,095
-132,599	-7,186	0,063	0,031
-131,585	800,000	0,023	-0,049
-130,570	166,388	0,079	-0,080
-129,556	-63,956	-0,170	0,050
-128,541	291,477	0,051	-0,067
-127,526	562,783	-0,017	-0,029
-126,512	-0,529	0,103	0,052
-125,497	-133,369	0,044	-0,004
-124,483	-87,757	-0,110	0,024
-123,468	-76,973	-0,126	0,031
-122,453	24,968	-0,048	-0,029
-121,439	-200,000	0,002	0,182
-120,424	171,973	0,040	-0,041
-119,410	-200,000	-0,029	-0,164
-118,395	193,830	-0,065	-0,070
-117,380	138,645	0,116	-0,110
-116,366	-200,000	0,008	-0,063
-115,351	-108,297	-0,145	-0,022
-114,337	-53,940	-0,080	0,026
-113,322	33,194	-0,023	-0,015
-112,307	156,256	-0,025	0,024
-111,293	20,249	-0,057	-0,033
-110,278	80,763	0,052	-0,041
-109,264	-200,000	0,003	0,044
-108,249	800,000	-0,040	-0,115
-107,234	-15,364	0,075	0,034
-106,220	-200,000	0,006	0,069
-105,205	91,637	-0,130	0,105
-104,191	-66,858	0,102	-0,029
-103,176	-200,000	-0,002	-0,061
-102,162	-103,300	-0,132	0,022
-101,147	800,000	0,021	-0,067
-100,132	-61,691	-0,061	-0,018
-99,118	-68,787	-0,134	-0,037
-98,103	52,026	-0,054	-0,037
-97,089	-200,000	0,038	-0,129
-96,074	-89,720	-0,027	-0,006
-95,059	-27,544	-0,148	-0,061
-94,045	-200,000	-0,025	-0,103
-93,030	166,776	-0,082	-0,084
-92,016	-53,309	-0,050	0,016
-91,001	-200,000	0,005	0,042
-89,986	-29,854	0,075	-0,031
-88,972	-200,000	0,006	-0,045
-87,957	73,435	-0,042	0,031
-86,943	96,200	-0,039	-0,032
-85,928	800,000	0,032	-0,084
-84,913	-200,000	-0,004	0,018
-83,899	800,000	0,019	0,044
-82,884	-45,389	0,012	0,004
-81,870	60,997	0,053	-0,037
-80,855	-200,000	0,023	0,075
-79,840	800,000	0,029	-0,082
-78,826	-46,735	-0,132	0,046
-77,811	65,714	-0,057	0,041
-76,797	-1,490	-0,044	0,022
-75,782	-125,425	-0,061	0,007
-74,767	-80,558	0,064	0,015
-73,753	233,878	0,139	0,164
-72,738	-93,287	-0,041	-0,008
-71,724	-200,000	0,012	0,082
-70,709	-200,000	-0,019	-0,116
-69,694	-103,451	0,063	-0,011
-68,680	-161,567	0,074	0,003
-67,665	-200,000	0,022	0,164
-66,651	800,000	-0,045	0,099
-65,636	-200,000	-0,018	0,109
-64,622	131,820	-0,020	0,018
-63,607	-22,770	-0,042	0,018
-62,592	131,563	0,049	-0,045
-61,578	-7,553	0,027	0,013
-60,563	-200,000	-0,010	0,120
-59,549	242,580	-0,047	0,057
-58,534	15,175	-2,148	-1,204
-57,519	-200,000	-0,141	-0,798
-56,505	-200,000	-1,318	-5,068
-55,490	176,850	0,713	0,745
-54,476	800,000	5,268	12,076
-53,461	-200,000	18,631	312,037
-52,446	800,000	740,220	2319,609
-51,432	556,435	1656,211	2873,070
-50,417	110,743	1640,270	1414,909
-49,403	75,042	1290,175	973,960
-48,388	30,516	1030,874	630,645
-47,373	20,009	993,488	572,977
-46,359	17,595	981,140	557,889
-45,344	14,340	977,056	544,849
-44,330	14,631	975,637	544,994
-43,315	14,006	973,776	541,885
-42,300	13,976	972,603	541,112
-41,286	13,961	971,776	540,579
-40,271	14,021	970,753	540,184
-39,257	13,989	969,824	539,544
-38,242	13,987	969,058	539,090
-37,227	13,994	968,235	538,631
-36,213	14,027	967,089	538,081
-35,198	13,973	966,309	537,449
-34,184	14,025	965,630	537,222
-33,169	13,920	964,736	536,359
-32,154	14,042	963,688	536,153
-31,140	13,977	963,021	535,547
-30,125	14,059	962,106	535,285
-29,111	13,975	961,258	534,521
-28,096	14,023	960,520	534,244
-27,082	13,985	960,013	533,816
-26,067	14,000	959,253	533,421
-25,052	13,981	958,504	532,921
-24,038	13,979	957,755	532,478
-23,023	13,943	957,107	531,982
-22,009	14,026	956,596	531,943
-20,994	13,963	955,956	531,364
-19,979	14,042	955,086	531,112
-18,965	14,000	954,502	530,632
-17,950	13,977	954,031	530,277
-16,936	13,985	953,313	529,882
-15,921	13,927	952,731	529,351
-14,906	13,885	951,883	528,724
-13,892	13,891	951,311	528,405
-12,877	13,864	950,714	527,967
-11,863	13,853	950,106	527,571
-10,848	13,831	949,639	527,223
-9,833	13,931	949,048	527,192
-8,819	13,951	948,276	526,806
-7,804	13,977	947,589	526,485
-6,790	13,920	947,162	526,044
-5,775	13,970	946,518	525,827
-4,760	13,925	946,065	525,410
-3,746	13,879	945,420	524,884
-2,731	13,748	944,591	523,986
-1,717	13,735	943,788	523,481
-0,702	13,687	943,375	523,078
0,313	13,501	942,716	522,913
1,327	16,758	940,338	531,852
2,342	25,644	795,673	473,632
3,356	22,115	460,152	268,471
4,371	-4,786	317,348	156,276
5,386	-8,617	299,155	143,388
6,400	-10,576	292,993	138,459
7,415	-11,087	290,559	136,789
8,429	-11,233	288,878	135,841
9,444	-11,200	288,035	135,465
10,459	-11,233	287,470	135,155
11,473	-11,103	286,690	134,903
12,488	-11,235	286,278	134,568
13,502	-11,239	285,760	134,308
14,517	-11,226	285,349	134,117
15,531	-11,100	284,824	133,981
16,546	-11,190	284,526	133,741
17,561	-11,111	284,111	133,611
18,575	-11,242	283,928	133,386
19,590	-11,015	283,214	133,258
20,604	-11,045	282,944	133,090
21,619	-11,167	282,681	132,837
22,634	-11,127	282,421	132,741
23,648	-11,288	282,149	132,446
24,663	-11,142	281,793	132,408
25,677	-11,071	281,517	132,334
26,692	-11,148	281,128	132,066
27,707	-11,258	281,013	131,895
28,721	-11,203	280,643	131,762
29,736	-11,184	280,451	131,679
30,750	-11,230	280,094	131,455
31,765	-11,182	279,880	131,389
32,780	-11,144	279,687	131,322
33,794	-11,313	279,430	131,029
34,809	-11,161	279,118	131,015
35,823	-11,171	278,863	130,876
36,838	-11,196	278,608	130,720
37,853	-11,149	278,264	130,592
38,867	-11,215	278,077	130,429
39,882	-11,274	277,875	130,267
40,896	-11,138	277,585	130,248
41,911	-11,346	277,424	129,964
42,926	-11,279	277,119	129,873
43,940	-11,233	276,745	129,729
44,955	-11,199	276,584	129,675
45,969	-11,295	276,420	129,496
46,984	-11,392	276,096	129,241
47,999	-11,878	275,866	128,665
49,013	-11,713	275,554	128,663
50,028	-11,871	275,245	128,359
51,042	-11,822	274,982	128,271
52,057	-11,851	274,820	128,156
53,071	-11,999	274,782	127,989
54,086	-11,860	274,318	127,891
55,101	-11,737	274,262	127,968
56,115	-11,626	274,206	128,035
57,130	-11,065	274,024	128,462
58,144	-11,042	273,728	128,333
59,159	-11,107	273,476	128,144
60,174	-11,037	273,313	128,121
61,188	-11,138	273,118	127,924
62,203	-11,132	272,842	127,789
63,217	-10,991	272,641	127,814
64,232	-11,136	272,337	127,526
65,247	-10,912	272,098	127,610
66,261	-11,131	271,997	127,348
67,276	-11,142	271,593	127,138
68,290	-11,378	271,291	126,767
69,305	-11,394	271,028	126,618
70,320	-11,364	270,894	126,572
71,334	-11,349	270,720	126,494
72,349	-11,236	270,685	126,570
73,363	-11,112	270,300	126,492
74,378	-11,105	270,099	126,393
75,393	-11,086	269,930	126,321
76,407	-11,199	269,781	126,136
77,422	-11,267	269,502	125,932
78,436	-11,284	269,264	125,794
79,451	-11,102	269,095	125,870
80,466	-11,126	268,807	125,702
81,480	-11,169	268,507	125,511
82,495	-11,196	268,213	125,339
83,509	-11,254	268,283	125,307
84,524	-11,251	267,913	125,126
85,539	-11,276	267,514	124,905
86,553	-11,367	267,353	124,736
87,568	-11,433	267,412	124,693
88,582	-11,361	267,060	124,583
89,597	-11,228	266,896	124,616
90,611	-11,321	266,874	124,510
91,626	-11,063	266,634	124,622
92,641	-11,157	266,257	124,348
93,655	-11,173	266,080	124,241
94,670	-11,297	265,957	124,060
95,684	-11,225	265,651	123,971
96,699	-11,040	265,483	124,048
97,714	-11,045	265,188	123,895
98,728	-11,178	264,914	123,636
99,743	-11,265	264,717	123,455
100,757	-11,521	264,537	123,131
101,772	-11,360	264,318	123,162
102,787	-11,100	264,219	123,338
103,801	-11,213	264,056	123,149
104,816	-11,207	263,903	123,072
105,830	-11,152	263,717	123,024
106,845	-11,144	263,538	122,937
107,860	-11,051	263,269	122,883
108,874	-11,196	263,155	122,690
109,889	-11,288	262,868	122,463
110,903	-11,325	262,616	122,302
111,918	-11,307	262,597	122,298
112,933	-11,206	262,330	122,253
113,947	-10,983	262,133	122,348
114,962	-10,930	261,842	122,248
115,976	-11,200	261,781	121,970
116,991	-11,301	261,623	121,795
118,006	-10,874	261,277	122,002
119,020	-11,050	261,277	121,835
120,035	-11,069	260,975	121,666
121,049	-11,143	260,851	121,532
122,064	-11,131	260,742	121,481
123,079	-11,233	260,660	121,342
124,093	-11,014	259,991	121,212
125,108	-11,216	259,933	120,997
126,122	-11,529	259,563	120,539
127,137	-11,563	259,443	120,443
128,151	-11,338	259,293	120,560
129,166	-11,352	259,140	120,466
130,181	-11,476	258,999	120,281
131,195	-11,400	258,630	120,165
132,210	-11,393	258,534	120,116
133,224	-11,015	258,239	120,298
134,239	-11,150	258,148	120,127
135,254	-11,359	258,166	119,942
136,268	-11,172	257,816	119,932
137,283	-11,493	257,644	119,561
138,297	-11,501	257,294	119,381
139,312	-11,555	257,164	119,263
140,327	-11,228	256,990	119,457
141,341	-10,873	257,078	119,795
142,356	-11,127	256,820	119,444
143,370	-11,064	256,550	119,362
144,385	-10,791	256,475	119,553
145,400	-10,845	256,114	119,328
146,414	-10,972	255,977	119,143
147,429	-10,976	255,711	119,006
148,443	-10,910	255,538	118,972
149,458	-10,838	255,487	118,999
150,473	-10,740	255,204	118,942
151,487	-11,053	255,004	118,568
152,502	-10,929	254,754	118,548
153,516	-10,907	254,676	118,520
154,531	-11,003	254,610	118,396
155,546	-10,855	254,230	118,336
156,560	-10,945	254,161	118,217
157,575	-11,019	253,792	117,970
158,589	-10,970	253,730	117,973
159,604	-10,951	253,582	117,910
160,619	-10,854	253,447	117,920
161,633	-11,058	253,227	117,632
162,648	-10,947	253,083	117,650
163,662	-10,831	252,948	117,676
164,677	-10,912	252,647	117,456
165,692	-10,935	252,519	117,367
166,706	-10,669	252,342	117,500
167,721	-11,012	252,246	117,153
168,735	-11,015	252,122	117,082
169,750	-10,821	251,935	117,150
170,764	-10,949	251,726	116,934
171,779	-10,892	251,791	117,002
172,794	-10,823	251,476	116,903
173,808	-10,861	251,280	116,770
174,823	-11,290	250,921	116,230
175,837	-11,409	250,655	115,995
176,852	-11,043	250,625	116,280
177,867	-10,960	250,682	116,367
178,881	-10,938	250,519	116,300
179,896	-10,853	250,239	116,231
180,910	-10,733	249,918	116,172
181,925	-10,824	249,787	116,024
182,940	-10,901	249,767	115,940
183,954	-10,937	249,501	115,776
184,969	-10,881	249,408	115,769
185,983	-10,721	249,076	115,740
186,998	-10,780	249,059	115,671
188,013	-10,881	248,857	115,482
189,027	-11,030	248,718	115,284
190,042	-10,793	248,369	115,309
191,056	-10,957	248,505	115,225
192,071	-10,831	248,096	115,131
193,086	-10,851	247,755	114,945
194,100	-10,882	247,722	114,894
195,115	-10,789	247,596	114,902
196,129	-10,804	247,366	114,774
197,144	-11,088	247,171	114,437
198,159	-10,959	247,131	114,515
199,173	-10,816	246,838	114,487
200,188	-11,010	246,739	114,270
201,202	-11,073	246,398	114,050
202,217	-11,471	246,111	113,577
203,232	-11,468	245,791	113,422
204,246	-11,001	245,830	113,816
205,261	-10,693	245,796	114,045
206,275	-11,552	245,435	113,158
207,290	-7,570	247,007	117,178
208,304	0,544	249,614	125,189
209,319	4,230	250,535	128,722
210,334	4,593	250,743	129,121
211,348	4,851	250,512	129,206
212,363	4,911	250,465	129,220
213,377	5,202	250,304	129,368
214,392	5,044	250,080	129,110
215,407	4,928	249,979	128,949
216,421	4,996	249,703	128,852
217,436	5,214	249,669	129,004
218,450	5,112	249,372	128,754
219,465	4,796	249,318	128,453
220,480	4,706	249,172	128,291
221,494	4,583	248,911	128,044
222,509	4,513	248,840	127,938
223,523	4,601	248,644	127,899
224,538	4,176	248,308	127,363
225,553	4,369	248,183	127,447
226,567	4,509	248,028	127,472
227,582	4,681	247,762	127,465
228,596	4,495	247,796	127,318
229,611	4,300	247,466	126,976
230,626	4,181	247,205	126,733
231,640	4,416	247,082	126,853
232,655	4,417	247,011	126,805
233,669	4,051	246,867	126,420
234,684	4,255	246,562	126,420
235,699	4,657	246,632	126,773
236,713	4,644	246,463	126,665
237,728	4,391	246,208	126,316
238,742	4,185	246,006	126,032
239,757	4,280	245,736	125,960
240,772	4,139	245,613	125,771
241,786	4,337	245,442	125,834
242,801	4,351	245,359	125,791
243,815	4,143	245,171	125,514
244,830	4,362	244,996	125,591
245,844	4,525	245,023	125,726
246,859	4,331	244,720	125,402
247,874	4,291	244,594	125,294
248,888	4,323	244,391	125,205
249,903	4,532	244,228	125,279
250,917	4,624	244,016	125,235
251,932	4,864	244,008	125,414
252,947	4,798	243,847	125,267
253,961	4,331	243,693	124,798
254,976	4,354	243,483	124,698
255,990	4,569	243,328	124,781
257,005	4,195	243,056	124,329
258,020	4,136	243,053	124,269
259,034	4,421	242,829	124,372
260,049	4,462	242,801	124,380
261,063	4,190	242,514	124,004
262,078	4,228	242,292	123,910
263,093	4,492	242,376	124,154
264,107	4,560	242,139	124,076
265,122	4,182	241,931	123,654
266,136	4,489	241,845	123,846
267,151	4,657	241,642	123,865
268,166	4,417	241,362	123,519
269,180	4,495	241,211	123,493
270,195	4,843	241,162	123,735
271,209	4,916	241,179	123,791
272,224	4,628	240,732	123,321
273,239	4,016	240,615	122,762
274,253	4,221	240,358	122,783
275,268	4,445	240,470	123,008
276,282	4,295	240,258	122,769
277,297	4,034	240,174	122,507
278,312	4,111	239,912	122,424
279,326	4,543	239,804	122,701
280,341	4,331	239,601	122,418
281,355	4,461	239,260	122,336
282,370	4,520	239,342	122,414
283,384	4,334	239,139	122,151
284,399	4,174	239,047	121,967
285,414	4,140	238,826	121,817
286,428	4,233	238,699	121,815
287,443	4,143	238,491	121,626
288,457	4,407	238,395	121,775
289,472	4,620	238,218	121,842
290,487	4,505	238,035	121,647
291,501	4,212	237,824	121,297
292,516	3,794	237,733	120,911
293,530	4,063	237,574	121,031
294,545	4,446	237,594	121,332
295,560	4,285	237,453	121,123
296,574	4,007	237,131	120,729
297,589	4,124	236,996	120,742
298,603	4,493	236,937	120,990
299,618	4,595	236,844	121,011
300,633	4,693	236,536	120,920
301,647	4,754	236,411	120,892
302,662	4,742	236,589	120,963
303,676	4,799	236,189	120,793
304,691	4,602	236,133	120,599
305,706	4,914	235,833	120,679
306,720	4,822	235,934	120,648
307,735	4,618	235,684	120,350
308,749	4,643	235,355	120,191
309,764	4,352	235,153	119,852
310,779	3,985	234,949	119,452
311,793	4,064	234,652	119,351
312,808	4,271	234,667	119,509
313,822	3,968	234,610	119,234
314,837	3,994	234,336	119,105
315,852	3,936	234,256	119,008
316,866	4,437	234,101	119,306
317,881	4,571	234,086	119,392
318,895	4,082	233,898	118,907
319,910	4,423	233,717	119,068
320,925	4,662	233,529	119,146
321,939	4,086	233,526	118,690
322,954	4,578	233,449	119,019
323,968	4,369	233,273	118,758
324,983	4,191	233,119	118,532
325,997	4,689	233,038	118,863
327,012	4,771	232,731	118,759
328,027	4,453	232,602	118,439
329,041	4,624	232,645	118,580
330,056	4,934	232,587	118,778
331,070	5,194	232,374	118,858
332,085	4,719	232,116	118,352
333,100	4,607	231,784	118,087
334,114	4,415	231,670	117,872
335,129	4,827	231,730	118,206
336,143	4,973	231,507	118,193
337,158	4,740	231,279	117,889
338,173	4,312	231,213	117,518
339,187	4,488	230,909	117,488
340,202	4,432	230,846	117,402
341,216	4,432	230,593	117,263
342,231	4,393	230,479	117,165
343,246	4,202	230,447	116,994
344,260	4,537	230,355	117,191
345,275	4,706	230,273	117,267
346,289	4,600	230,079	117,077
347,304	4,755	230,041	117,164
348,319	4,828	229,729	117,050
349,333	4,747	229,504	116,865
350,348	4,306	229,447	116,492
351,362	4,663	229,171	116,610
352,377	4,368	228,966	116,274
353,392	4,194	228,750	116,022
354,406	4,238	228,742	116,041
355,421	195,191	1318,773	1393,342
356,435	156,541	1451,552	1393,299
