DTS Sentinel unit serial number:	SN410029Multiplexer serial number:	ORYXHardware model number:	OX2-SRSoftware version number:	ORYX F/W v4,00 Oryx Data Collector v3.7.2.0data status	okinstallation	B5 Nyhavnadifferential loss correction	single-endedforward channel	channel 2reverse channel	N/Adate	2023/12/11time	15:57:13forward acquisition time	300,00reverse acquisition time	0,00gamma	499,1914k internal	0,3166k external	0,3166temperature offset calibration	1,0000default loss term (dB/km)	0,3820temperature slope calibration	1,0000multiplexer offset coefficient	1,0000multiplexer slope coefficient	1,0000fibre end	0,00T internal ref (°C)	13,64T ext. ref 1 (°C)	-1,43T ext. ref 2 (°C)	-1,55length (m)	temperature (°C)	Stokes	anti-Stokes-744,400	-200,000	0,031	0,193
-743,385	-69,140	-0,275	-0,077
-742,371	15,666	0,166	0,096
-741,356	-20,696	-0,275	-0,123
-740,342	-29,587	0,143	0,060
-739,327	-24,633	-0,280	-0,122
-738,312	-74,562	0,162	-0,043
-737,298	-179,372	-0,313	0,005
-736,283	-200,000	-0,023	0,116
-735,269	-13,593	-0,272	0,129
-734,254	332,133	0,134	0,191
-733,239	-36,644	-0,514	-0,202
-732,225	-25,022	0,009	-0,004
-731,210	68,893	0,065	0,049
-730,196	257,935	-0,070	-0,088
-729,181	158,479	-0,088	-0,090
-728,167	-50,088	0,088	0,031
-727,152	-162,982	-0,016	-0,001
-726,137	-148,304	-0,130	0,008
-725,123	800,000	0,018	-0,039
-724,108	312,129	-0,122	-0,168
-723,094	800,000	-0,071	-0,196
-722,079	-200,000	0,007	-0,058
-721,064	122,522	0,146	0,134
-720,050	669,252	0,019	0,037
-719,035	174,505	-0,042	0,045
-718,021	-200,000	-0,009	0,040
-717,006	33,013	0,116	0,074
-715,991	-57,591	-0,056	-0,018
-714,977	227,752	0,045	-0,054
-713,962	800,000	0,038	-0,091
-712,948	-200,000	-0,003	-0,053
-711,933	-97,306	0,030	-0,006
-710,918	-99,156	-0,117	0,021
-709,904	800,000	-0,062	-0,146
-708,889	155,774	0,069	-0,070
-707,875	800,000	0,040	-0,083
-706,860	800,000	-0,022	0,061
-705,845	58,048	0,089	0,064
-704,831	720,472	0,040	0,078
-703,816	-4,544	0,124	-0,062
-702,802	800,000	0,012	-0,034
-701,787	-200,000	0,009	0,086
-700,772	15,435	-0,201	-0,115
-699,758	63,354	-0,029	-0,021
-698,743	-200,000	0,031	-0,157
-697,729	800,000	-0,031	0,079
-696,714	34,586	-0,065	0,042
-695,699	249,350	0,063	-0,079
-694,685	527,515	0,087	-0,151
-693,670	-4,770	-0,145	-0,073
-692,656	-200,000	0,020	-0,129
-691,641	-79,435	-0,088	-0,022
-690,627	800,000	-0,087	-0,204
-689,612	-10,919	0,130	0,063
-688,597	-44,828	0,054	0,020
-687,583	-200,000	0,033	-0,168
-686,568	295,803	-0,062	-0,083
-685,554	800,000	-0,024	0,076
-684,539	-111,535	0,214	0,032
-683,524	235,616	0,016	-0,019
-682,510	-16,784	-0,032	0,015
-681,495	-45,771	-0,149	-0,054
-680,481	130,866	-0,061	-0,057
-679,466	800,000	0,036	0,076
-678,451	800,000	0,041	-0,103
-677,437	51,365	-0,051	-0,035
-676,422	5,418	0,174	0,094
-675,408	-200,000	0,001	0,131
-674,393	-200,000	-0,016	-0,114
-673,378	-200,000	0,028	-0,098
-672,364	23,259	0,112	-0,067
-671,349	190,828	0,031	0,035
-670,335	-200,000	0,013	0,076
-669,320	-30,687	0,080	0,033
-668,305	-200,000	-0,003	0,037
-667,291	-36,026	-0,079	0,031
-666,276	-200,000	0,033	0,122
-665,262	101,128	-0,087	-0,074
-664,247	-200,000	0,031	-0,104
-663,232	61,175	-0,090	0,065
-662,218	183,901	0,059	-0,064
-661,203	-200,000	-0,010	-0,172
-660,189	-25,214	0,078	-0,034
-659,174	108,900	-0,012	-0,011
-658,159	119,142	-0,054	-0,049
-657,145	17,703	0,169	-0,098
-656,130	129,950	0,056	-0,052
-655,116	-177,297	-0,034	0,001
-654,101	53,819	-0,041	-0,029
-653,086	800,000	0,028	-0,057
-652,072	-200,000	0,003	-0,094
-651,057	74,505	-0,033	-0,026
-650,043	-78,087	-0,156	0,039
-649,028	289,534	-0,041	0,054
-648,014	-200,000	-0,015	-0,090
-646,999	800,000	-0,011	0,032
-645,984	88,277	-0,024	-0,019
-644,970	-200,000	0,015	-0,070
-643,955	-13,242	-0,066	-0,031
-642,941	758,585	0,019	-0,038
-641,926	26,202	0,099	-0,060
-640,911	800,000	-0,039	0,096
-639,897	-15,148	-0,080	-0,038
-638,882	-170,981	0,121	-0,003
-637,868	223,917	-0,018	-0,021
-636,853	-16,694	0,046	-0,021
-635,838	-200,000	-0,014	-0,152
-634,824	666,778	-0,042	-0,079
-633,809	-129,550	0,163	0,016
-632,795	-200,000	0,010	0,053
-631,780	75,074	0,048	0,037
-630,765	-200,000	-0,001	-0,150
-629,751	-200,000	0,001	-0,176
-628,736	142,633	-0,073	-0,071
-627,722	446,949	0,117	-0,190
-626,707	-112,624	0,090	0,013
-625,692	800,000	-0,025	0,071
-624,678	272,026	0,105	0,135
-623,663	-200,000	-0,006	0,116
-622,649	-200,000	-0,011	0,072
-621,634	114,556	-0,023	0,021
-620,619	-79,340	-0,135	0,033
-619,605	47,514	0,077	-0,052
-618,590	-200,000	-0,012	-0,129
-617,576	-61,135	-0,058	0,018
-616,561	800,000	0,036	0,077
-615,546	-162,428	0,027	0,001
-614,532	-200,000	0,023	-0,094
-613,517	133,232	0,070	-0,066
-612,503	-67,775	0,170	0,048
-611,488	800,000	0,071	0,146
-610,474	163,310	-0,076	-0,079
-609,459	-200,000	-0,010	0,138
-608,444	-131,508	-0,121	0,012
-607,430	-121,231	-0,025	-0,003
-606,415	-200,000	-0,013	-0,088
-605,401	217,767	0,022	0,026
-604,386	228,675	-0,074	0,088
-603,371	422,999	0,067	0,106
-602,357	-200,000	-0,005	-0,187
-601,342	19,020	-0,060	-0,035
-600,328	79,349	-0,055	0,043
-599,313	-45,362	-0,066	-0,024
-598,298	800,000	0,054	-0,114
-597,284	-99,447	0,103	0,019
-596,269	-143,522	0,120	-0,008
-595,255	-131,509	-0,094	0,009
-594,240	-109,650	-0,099	-0,015
-593,225	-156,966	-0,037	-0,002
-592,211	242,320	-0,026	0,032
-591,196	2,123	-0,018	-0,010
-590,182	800,000	0,029	-0,062
-589,167	-84,950	0,094	-0,021
-588,152	293,990	-0,066	-0,088
-587,138	-200,000	-0,050	-0,175
-586,123	742,708	-0,025	-0,050
-585,109	-200,000	0,019	0,147
-584,094	335,831	-0,072	0,102
-583,079	76,220	0,062	0,048
-582,065	800,000	-0,036	-0,097
-581,050	-47,676	0,039	0,014
-580,036	-56,892	-0,092	0,029
-579,021	457,548	-0,078	-0,127
-578,006	800,000	0,037	-0,096
-576,992	-112,853	0,117	-0,017
-575,977	-34,656	0,111	-0,044
-574,963	-200,000	-0,024	0,129
-573,948	412,559	0,033	0,052
-572,934	158,719	-0,063	-0,064
-571,919	800,000	0,014	0,041
-570,904	-28,274	-0,125	-0,053
-569,890	455,143	-0,041	0,067
-568,875	10,421	-0,097	0,054
-567,861	-8,232	-0,005	-0,002
-566,846	800,000	0,052	0,142
-565,831	12,971	-0,015	-0,009
-564,817	-200,000	-0,020	-0,141
-563,802	68,406	0,121	0,090
-562,788	800,000	-0,077	-0,162
-561,773	191,925	0,070	-0,077
-560,758	-200,000	0,024	0,104
-559,744	-200,000	0,002	0,078
-558,729	253,118	0,075	0,093
-557,715	603,765	-0,092	-0,167
-556,700	-53,844	-0,062	0,021
-555,685	-20,889	-0,051	-0,023
-554,671	-200,000	0,006	0,094
-553,656	-96,595	0,124	0,024
-552,642	41,384	-0,029	0,019
-551,627	800,000	0,023	-0,067
-550,612	-200,000	-0,012	-0,068
-549,598	347,870	-0,042	-0,060
-548,583	-120,170	-0,067	0,008
-547,569	67,261	-0,019	-0,014
-546,554	800,000	0,030	0,094
-545,539	-200,000	-0,003	0,028
-544,525	-24,472	0,077	-0,033
-543,510	504,203	-0,068	-0,115
-542,496	442,655	0,040	-0,063
-541,481	232,593	0,089	-0,107
-540,466	166,661	-0,021	0,022
-539,452	505,772	-0,042	-0,071
-538,437	-200,000	-0,018	0,091
-537,423	46,638	0,043	0,029
-536,408	-200,000	-0,012	-0,064
-535,393	800,000	-0,023	0,057
-534,379	-133,591	-0,180	-0,016
-533,364	-200,000	0,002	0,077
-532,350	-200,000	0,016	-0,141
-531,335	-128,078	-0,127	0,013
-530,321	-7,263	0,021	-0,010
-529,306	85,307	0,032	0,026
-528,291	-101,356	0,089	0,016
-527,277	800,000	-0,075	-0,155
-526,262	-200,000	-0,010	-0,089
-525,248	-125,888	0,079	0,009
-524,233	-183,798	0,063	-0,001
-523,218	-156,800	0,099	-0,004
-522,204	-144,521	-0,102	0,007
-521,189	292,051	-0,025	-0,034
-520,175	-200,000	0,003	-0,017
-519,160	14,405	-0,157	0,089
-518,145	16,414	0,081	0,046
-517,131	-91,615	0,088	0,018
-516,116	-200,000	-0,003	-0,020
-515,102	-125,327	0,089	0,010
-514,087	-60,187	-0,138	0,043
-513,072	177,275	0,089	0,094
-512,058	-200,000	-0,008	-0,106
-511,043	61,611	0,012	0,009
-510,029	-200,000	-0,012	-0,149
-509,014	-200,000	-0,002	0,041
-507,999	-56,287	-0,136	0,044
-506,985	144,406	-0,103	-0,100
-505,970	-79,339	0,042	0,010
-504,956	-200,000	-0,023	0,088
-503,941	800,000	0,033	0,091
-502,926	800,000	-0,042	-0,120
-501,912	183,576	0,094	0,101
-500,897	-148,790	-0,084	-0,005
-499,883	470,790	-0,107	-0,176
-498,868	512,402	0,035	-0,060
-497,853	-200,000	0,012	0,103
-496,839	800,000	-0,074	0,174
-495,824	800,000	-0,010	-0,031
-494,810	66,959	-0,099	0,073
-493,795	73,762	0,075	0,057
-492,781	101,616	-0,076	-0,064
-491,766	107,127	-0,078	0,067
-490,751	17,383	-0,063	-0,037
-489,737	-200,000	0,001	-0,068
-488,722	0,322	0,073	-0,038
-487,708	800,000	0,045	0,092
-486,693	-51,858	-0,051	0,017
-485,678	457,187	-0,075	-0,121
-484,664	-11,791	0,110	0,053
-483,649	800,000	0,031	-0,065
-482,635	563,741	0,041	0,072
-481,620	24,558	-0,048	-0,029
-480,605	800,000	0,036	0,081
-479,591	-92,501	-0,070	0,014
-478,576	323,130	0,017	-0,023
-477,562	-200,000	-0,027	0,103
-476,547	-96,143	-0,114	-0,022
-475,532	762,637	-0,028	-0,055
-474,518	-193,219	0,111	-0,001
-473,503	116,146	-0,053	0,047
-472,489	3,933	0,005	0,003
-471,474	-200,000	-0,005	0,037
-470,459	58,639	0,032	-0,023
-469,445	-156,460	0,155	-0,007
-468,430	-34,429	0,087	-0,034
-467,416	77,712	-0,046	0,036
-466,401	800,000	-0,032	0,083
-465,386	-83,783	-0,070	-0,016
-464,372	-104,904	-0,079	0,013
-463,357	-200,000	0,022	-0,078
-462,343	-36,654	-0,042	-0,016
-461,328	129,432	-0,060	-0,055
-460,313	800,000	-0,052	-0,127
-459,299	18,982	-0,068	-0,039
-458,284	127,804	0,056	-0,051
-457,270	573,734	0,035	0,062
-456,255	-200,000	0,000	0,066
-455,241	-200,000	0,015	-0,067
-454,226	-200,000	0,005	-0,118
-453,211	800,000	0,025	-0,055
-452,197	-200,000	0,011	0,060
-451,182	23,287	0,133	0,079
-450,168	-132,939	-0,049	0,004
-449,153	14,975	-0,101	-0,057
-448,138	717,467	-0,085	-0,166
-447,124	416,233	-0,069	-0,107
-446,109	166,827	0,035	0,036
-445,095	-200,000	-0,026	0,098
-444,080	800,000	-0,053	-0,168
-443,065	159,917	0,105	0,106
-442,051	103,029	0,109	0,092
-441,036	-143,877	0,099	-0,007
-440,022	800,000	-0,039	-0,093
-439,007	-200,000	-0,030	0,128
-437,992	-200,000	-0,011	0,056
-436,978	-149,603	-0,140	0,008
-435,963	-146,595	0,084	0,005
-434,949	800,000	-0,031	0,090
-433,934	800,000	-0,032	-0,094
-432,919	-200,000	-0,001	-0,081
-431,905	0,555	0,082	0,042
-430,890	-200,000	-0,032	0,194
-429,876	800,000	0,031	0,084
-428,861	-132,550	0,030	0,003
-427,846	70,452	-0,056	-0,042
-426,832	-200,000	-0,013	0,102
-425,817	-134,224	-0,089	-0,008
-424,803	800,000	-0,038	-0,079
-423,788	73,114	0,091	0,069
-422,773	8,820	-0,022	-0,012
-421,759	17,969	0,069	-0,040
-420,744	-83,929	-0,074	-0,017
-419,730	-45,793	0,038	-0,014
-418,715	341,911	-0,047	-0,067
-417,701	10,846	0,091	-0,050
-416,686	571,871	-0,030	-0,054
-415,671	-67,714	0,043	-0,012
-414,657	800,000	-0,040	0,120
-413,642	0,163	0,056	-0,029
-412,628	-67,848	-0,044	0,012
-411,613	108,745	0,062	0,053
-410,598	-200,000	-0,014	-0,097
-409,584	-28,431	0,110	-0,046
-408,569	8,009	-0,087	0,047
-407,555	800,000	0,041	0,090
-406,540	-68,275	0,047	-0,013
-405,525	-64,779	-0,134	-0,039
-404,511	-37,490	-0,043	0,017
-403,496	512,200	0,047	-0,080
-402,482	800,000	0,068	0,162
-401,467	50,205	0,138	-0,095
-400,452	48,318	0,148	0,101
-399,438	78,872	0,098	0,076
-398,423	113,347	-0,126	-0,111
-397,409	345,104	-0,070	0,100
-396,394	179,994	0,065	-0,070
-395,379	62,837	0,058	-0,042
-394,365	310,868	-0,036	-0,049
-393,350	-81,460	0,098	-0,023
-392,336	81,405	0,140	-0,110
-391,321	38,646	-0,052	0,033
-390,306	-88,071	0,028	-0,006
-389,292	11,937	0,011	-0,006
-388,277	-200,000	-0,029	0,097
-387,263	-79,936	0,068	-0,016
-386,248	800,000	-0,006	-0,012
-385,233	111,026	-0,047	0,041
-384,219	800,000	-0,006	-0,014
-383,204	-119,337	-0,046	0,006
-382,190	-39,795	0,036	-0,014
-381,175	712,274	-0,015	-0,030
-380,160	-9,418	0,165	0,079
-379,146	-64,691	0,021	0,006
-378,131	-73,600	-0,024	-0,006
-377,117	-200,000	-0,030	0,154
-376,102	-120,983	-0,071	0,009
-375,088	257,487	-0,082	-0,103
-374,073	181,237	-0,045	-0,048
-373,058	264,622	-0,049	-0,062
-372,044	13,769	0,032	-0,018
-371,029	-135,500	-0,065	-0,006
-370,015	607,808	-0,037	-0,067
-369,000	178,585	0,042	0,045
-367,985	-200,000	-0,085	-0,290
-366,971	92,162	-0,087	0,071
-365,956	776,435	0,113	0,224
-364,942	258,336	0,116	0,145
-363,927	45,847	0,076	0,051
-362,912	-21,985	0,065	0,028
-361,898	800,000	-0,023	-0,062
-360,883	67,928	-0,022	0,016
-359,869	776,922	0,027	-0,054
-358,854	-200,000	0,003	0,039
-357,839	267,083	0,071	0,090
-356,825	-200,000	0,009	0,058
-355,810	489,111	-0,050	0,083
-354,796	-200,000	-0,003	0,175
-353,781	76,523	-0,019	0,014
-352,766	137,052	0,128	0,121
-351,752	184,683	-0,053	-0,057
-350,737	-39,920	0,006	-0,002
-349,723	-200,000	0,029	0,102
-348,708	372,469	-0,073	0,108
-347,693	374,785	-0,054	0,079
-346,679	-3,826	0,146	-0,073
-345,664	287,577	-0,016	-0,020
-344,650	30,298	-0,075	-0,046
-343,635	234,362	0,066	0,079
-342,620	800,000	-0,063	0,171
-341,606	-200,000	0,002	0,074
-340,591	800,000	-0,065	-0,156
-339,577	-149,130	-0,053	-0,003
-338,562	-33,646	-0,057	-0,023
-337,548	-74,574	0,022	-0,006
-336,533	-122,803	-0,040	0,005
-335,518	-83,335	0,236	-0,054
-334,504	-60,252	-0,064	0,020
-333,489	25,065	0,028	0,017
-332,475	800,000	0,022	-0,058
-331,460	-39,048	0,072	-0,027
-330,445	-200,000	-0,008	0,048
-329,431	18,899	-0,140	-0,081
-328,416	172,696	0,058	-0,061
-327,402	-200,000	-0,008	0,132
-326,387	-124,298	0,172	0,019
-325,372	-153,423	-0,050	0,002
-324,358	83,749	-0,059	0,047
-323,343	-38,873	-0,060	-0,023
-322,329	15,249	-0,071	-0,040
-321,314	357,343	0,026	-0,038
-320,299	47,216	0,052	0,035
-319,285	162,448	-0,063	0,064
-318,270	42,586	-0,114	-0,075
-317,256	324,709	-0,069	-0,095
-316,241	236,215	-0,103	0,123
-315,226	299,508	0,033	0,045
-314,212	224,592	-0,021	0,025
-313,197	706,595	0,024	0,046
-312,183	800,000	-0,029	0,088
-311,168	-67,763	0,104	0,029
-310,153	684,468	0,056	-0,106
-309,139	540,460	-0,035	0,061
-308,124	296,149	-0,030	0,039
-307,110	85,518	0,118	-0,094
-306,095	-200,000	-0,003	0,112
-305,080	33,223	0,170	0,106
-304,066	32,311	-0,029	0,018
-303,051	-153,248	-0,072	0,004
-302,037	-200,000	0,004	0,069
-301,022	-7,853	0,082	0,040
-300,008	794,622	-0,013	-0,027
-298,993	118,626	0,076	-0,068
-297,978	380,150	0,035	-0,052
-296,964	-74,019	-0,054	-0,014
-295,949	74,210	-0,134	-0,101
-294,935	11,529	0,108	-0,060
-293,920	-47,683	0,125	-0,044
-292,905	-98,975	0,061	0,011
-291,891	315,376	0,156	0,213
-290,876	-200,000	0,016	-0,123
-289,862	-47,535	-0,131	0,046
-288,847	261,234	0,042	-0,053
-287,832	-32,095	-0,076	-0,031
-286,818	192,658	-0,084	0,092
-285,803	-108,043	-0,106	0,016
-284,789	664,414	0,070	0,130
-283,774	27,248	0,118	0,072
-282,759	-46,617	-0,102	0,036
-281,745	-32,795	-0,085	-0,034
-280,730	247,209	-0,086	-0,105
-279,716	-200,000	-0,005	-0,059
-278,701	-52,723	-0,082	-0,027
-277,686	800,000	0,045	-0,092
-276,672	-170,337	0,082	0,002
-275,657	800,000	-0,029	-0,077
-274,643	-200,000	-0,013	-0,205
-273,628	-200,000	-0,003	0,036
-272,613	800,000	0,013	-0,033
-271,599	800,000	0,035	0,094
-270,584	-200,000	-0,025	-0,101
-269,570	44,815	-0,058	0,039
-268,555	429,480	-0,138	-0,217
-267,540	586,872	0,024	0,044
-266,526	-127,507	-0,126	0,013
-265,511	-38,807	-0,017	0,006
-264,497	-123,684	0,159	-0,018
-263,482	-51,429	-0,018	0,006
-262,467	-108,889	0,114	0,017
-261,453	169,116	0,072	0,074
-260,438	-200,000	-0,005	0,024
-259,424	243,973	-0,036	-0,044
-258,409	252,844	-0,023	0,029
-257,395	319,307	0,095	0,130
-256,380	-200,000	0,013	-0,100
-255,365	-200,000	-0,012	0,098
-254,351	-103,457	-0,102	-0,017
-253,336	800,000	-0,016	-0,047
-252,322	-200,000	0,000	-0,031
-251,307	800,000	-0,012	-0,034
-250,292	-8,697	-0,061	-0,029
-249,278	-77,161	-0,017	0,004
-248,263	33,800	0,081	0,051
-247,249	414,798	-0,020	0,030
-246,234	800,000	0,052	-0,157
-245,219	-200,000	0,002	-0,015
-244,205	-120,628	-0,127	-0,015
-243,190	-200,000	0,005	0,077
-242,176	465,223	0,029	0,047
-241,161	45,602	0,145	0,097
-240,146	-200,000	0,009	0,047
-239,132	-84,061	-0,041	0,009
-238,117	800,000	0,013	0,031
-237,103	-5,686	0,081	-0,040
-236,088	-74,563	0,083	0,021
-235,073	-4,803	0,107	0,053
-234,059	242,795	0,079	-0,096
-233,044	284,293	-0,048	-0,063
-232,030	409,842	-0,016	0,025
-231,015	-127,381	-0,129	-0,013
-230,000	51,146	0,051	0,035
-228,986	-8,431	0,008	-0,004
-227,971	76,498	0,114	0,087
-226,957	-113,541	-0,144	-0,020
-225,942	-27,742	0,084	-0,035
-224,927	800,000	-0,012	0,030
-223,913	132,854	-0,017	-0,016
-222,898	-42,765	-0,056	0,020
-221,884	800,000	0,029	0,060
-220,869	800,000	0,050	-0,137
-219,855	-33,464	-0,084	0,033
-218,840	-200,000	0,002	0,078
-217,825	231,902	-0,054	0,064
-216,811	-200,000	-0,006	0,145
-215,796	-101,316	-0,113	0,020
-214,782	10,280	0,073	-0,040
-213,767	-72,431	0,041	0,011
-212,752	-148,387	-0,068	-0,004
-211,738	-92,283	0,138	-0,028
-210,723	-200,000	0,013	0,159
-209,709	-88,769	-0,146	0,031
-208,694	-42,175	-0,043	-0,016
-207,679	-200,000	-0,014	0,144
-206,665	240,193	-0,032	0,038
-205,650	185,679	0,093	-0,099
-204,636	-68,441	-0,054	-0,015
-203,621	800,000	0,055	-0,122
-202,606	347,171	0,074	-0,105
-201,592	82,986	-0,101	0,079
-200,577	257,309	-0,060	0,075
-199,563	531,254	0,029	0,049
-198,548	-200,000	0,009	0,033
-197,533	-47,200	0,088	0,031
-196,519	-200,000	-0,016	0,198
-195,504	-200,000	0,010	0,125
-194,490	-59,391	-0,118	-0,036
-193,475	-100,827	0,075	-0,013
-192,460	-22,261	-0,088	0,038
-191,446	-200,000	0,082	-0,000
-190,431	81,980	0,103	-0,080
-189,417	22,271	0,072	0,042
-188,402	-45,458	-0,016	-0,006
-187,387	-200,000	-0,060	-0,207
-186,373	-200,000	0,023	-0,128
-185,358	219,737	-0,054	0,062
-184,344	-98,331	0,104	0,019
-183,329	-200,000	-0,048	0,153
-182,315	-200,000	-0,017	0,057
-181,300	-28,562	0,064	-0,026
-180,285	-200,000	0,006	-0,104
-179,271	-157,381	-0,112	-0,005
-178,256	82,577	-0,023	-0,018
-177,242	104,249	0,050	-0,042
-176,227	-97,493	0,130	-0,024
-175,212	51,605	-0,069	-0,047
-174,198	-200,000	0,028	-0,176
-173,183	-165,715	-0,135	0,004
-172,169	3,078	-0,070	0,037
-171,154	-55,978	-0,107	0,034
-170,139	36,667	0,052	0,033
-169,125	692,412	0,044	0,084
-168,110	-200,000	0,001	-0,040
-167,096	-82,567	-0,021	-0,005
-166,081	336,704	-0,092	-0,129
-165,066	260,888	0,008	0,010
-164,052	-104,204	-0,141	-0,023
-163,037	-200,000	0,012	0,138
-162,023	-89,742	0,121	-0,025
-161,008	179,964	0,109	0,114
-159,993	-200,000	0,006	0,038
-158,979	80,970	-0,029	0,022
-157,964	197,954	-0,019	0,021
-156,950	-35,548	-0,051	-0,020
-155,935	40,861	0,110	-0,071
-154,920	-200,000	0,071	-0,000
-153,906	-200,000	0,015	-0,085
-152,891	99,000	-0,068	-0,057
-151,877	189,001	-0,044	-0,048
-150,862	77,092	0,031	0,024
-149,847	556,191	0,036	-0,062
-148,833	12,277	-0,065	-0,036
-147,818	-3,979	0,141	0,070
-146,804	-54,423	0,022	-0,007
-145,789	-56,371	-0,115	-0,036
-144,775	168,598	0,031	-0,032
-143,760	-200,000	-0,038	-0,225
-142,745	-200,000	-0,036	-0,167
-141,731	-200,000	0,006	-0,030
-140,716	761,022	-0,005	-0,010
-139,702	-77,221	0,097	-0,024
-138,687	-138,795	0,138	0,011
-137,672	62,303	0,085	-0,061
-136,658	786,538	0,069	-0,136
-135,643	68,152	0,032	0,023
-134,629	800,000	0,025	0,050
-133,614	-62,088	0,044	0,013
-132,599	296,793	-0,040	0,052
-131,585	220,913	-0,101	0,116
-130,570	800,000	-0,016	-0,036
-129,556	-3,122	-0,056	-0,028
-128,541	-200,000	0,011	0,078
-127,526	45,963	0,160	-0,106
-126,512	-200,000	-0,008	-0,121
-125,497	69,903	-0,054	0,040
-124,483	-200,000	0,022	0,134
-123,468	-73,535	-0,162	0,042
-122,453	546,399	0,039	0,067
-121,439	-113,028	-0,004	0,000
-120,424	800,000	-0,063	-0,189
-119,410	-200,000	0,002	0,168
-118,395	598,847	0,060	0,108
-117,380	45,518	0,047	0,031
-116,366	139,575	-0,044	0,041
-115,351	-200,000	0,009	0,052
-114,337	800,000	-0,028	-0,070
-113,322	-84,091	0,036	-0,008
-112,307	-88,690	0,138	0,029
-111,293	-112,081	0,143	-0,020
-110,278	115,634	-0,135	-0,118
-109,264	-79,347	-0,100	-0,024
-108,249	241,314	0,089	-0,107
-107,234	195,188	-0,101	-0,110
-106,220	9,312	-0,058	-0,031
-105,205	13,622	-0,048	0,027
-104,191	-200,000	0,026	-0,145
-103,176	-200,000	0,027	0,087
-102,162	-159,826	-0,059	0,002
-101,147	8,391	-0,005	0,003
-100,132	-200,000	-0,011	-0,157
-99,118	104,258	-0,063	-0,053
-98,103	65,727	0,118	-0,085
-97,089	53,626	0,135	-0,092
-96,074	-93,835	0,078	-0,015
-95,059	-200,000	-0,000	-0,057
-94,045	-92,689	-0,046	-0,009
-93,030	800,000	-0,033	-0,084
-92,016	-200,000	0,075	0,000
-91,001	-87,602	-0,079	0,017
-89,986	-39,560	0,154	0,058
-88,972	800,000	-0,012	0,028
-87,957	-170,481	-0,040	-0,001
-86,943	478,834	-0,048	-0,078
-85,928	-70,000	-0,059	-0,016
-84,913	-200,000	0,007	-0,055
-83,899	-200,000	0,013	0,096
-82,884	-200,000	-0,022	0,154
-81,870	603,984	0,062	0,111
-80,855	-31,042	-0,108	-0,043
-79,840	411,595	-0,047	-0,072
-78,826	-109,373	-0,067	0,010
-77,811	1,299	-0,193	0,099
-76,797	-200,000	0,025	-0,085
-75,782	-79,451	0,067	-0,016
-74,767	800,000	0,008	-0,020
-73,753	800,000	-0,040	-0,110
-72,738	-200,000	-0,002	-0,007
-71,724	13,914	-0,112	0,062
-70,709	-200,000	0,012	0,080
-69,694	800,000	0,018	-0,049
-68,680	675,108	0,047	0,089
-67,665	14,475	0,106	-0,059
-66,651	273,621	0,065	0,083
-65,636	81,862	-0,140	0,109
-64,622	38,685	-0,074	-0,047
-63,607	-140,659	0,117	0,009
-62,592	148,065	0,016	-0,015
-61,578	800,000	0,032	0,091
-60,563	0,980	0,044	-0,023
-59,549	43,696	0,060	0,039
-58,534	21,053	-2,102	-1,218
-57,519	-200,000	-0,092	-0,818
-56,505	-200,000	-1,382	-5,158
-55,490	69,475	1,001	0,737
-54,476	800,000	5,307	12,186
-53,461	-200,000	18,631	316,393
-52,446	800,000	740,002	2328,939
-51,432	556,815	1656,152	2868,281
-50,417	110,865	1640,489	1412,984
-49,403	74,503	1290,490	970,182
-48,388	30,118	1031,107	628,229
-47,373	19,789	993,568	571,202
-46,359	17,356	981,227	556,091
-45,344	13,990	977,454	542,883
-44,330	14,301	975,683	542,900
-43,315	13,754	973,753	540,013
-42,300	13,670	972,854	539,218
-41,286	13,662	971,974	538,683
-40,271	13,663	970,972	538,110
-39,257	13,633	970,295	537,615
-38,242	13,654	969,230	537,070
-37,227	13,615	968,486	536,511
-36,213	13,642	967,408	535,979
-35,198	13,628	966,606	535,469
-34,184	13,674	965,895	535,203
-33,169	13,638	964,997	534,567
-32,154	13,673	964,073	534,147
-31,140	13,678	962,956	533,524
-30,125	13,761	962,223	533,364
-29,111	13,699	961,490	532,736
-28,096	13,661	960,750	532,183
-27,082	13,655	960,261	531,873
-26,067	13,680	959,445	531,479
-25,052	13,728	958,480	531,079
-24,038	13,619	958,188	530,546
-23,023	13,654	957,418	530,210
-22,009	13,746	956,708	530,091
-20,994	13,682	956,107	529,533
-19,979	13,701	955,535	529,254
-18,965	13,684	954,755	528,747
-17,950	13,729	954,195	528,561
-16,936	13,641	953,485	527,866
-15,921	13,672	952,950	527,648
-14,906	13,571	952,200	526,886
-13,892	13,597	951,442	526,530
-12,877	13,557	951,058	526,169
-11,863	13,552	950,292	525,709
-10,848	13,600	949,817	525,579
-9,833	13,672	949,207	525,448
-8,819	13,634	948,743	525,050
-7,804	13,572	947,895	524,363
-6,790	13,554	947,347	523,981
-5,775	13,587	946,963	523,854
-4,760	13,592	946,218	523,437
-3,746	13,550	945,749	523,023
-2,731	13,449	944,890	522,207
-1,717	13,458	944,127	521,794
-0,702	13,421	943,517	521,318
0,313	13,227	942,822	521,106
1,327	16,607	940,432	530,416
2,342	25,810	794,973	472,753
3,356	22,438	458,856	267,699
4,371	-4,348	315,526	155,554
5,386	-8,268	297,423	142,641
6,400	-10,021	291,216	137,909
7,415	-10,691	288,814	136,099
8,429	-11,122	286,989	134,805
9,444	-11,395	286,216	134,162
10,459	-11,233	285,368	133,911
11,473	-11,320	284,867	133,579
12,488	-11,248	284,218	133,333
13,502	-11,337	283,853	133,063
14,517	-11,509	283,413	132,679
15,531	-11,352	282,923	132,589
16,546	-11,341	282,371	132,330
17,561	-11,521	282,084	132,010
18,575	-11,366	281,699	131,967
19,590	-11,435	281,397	131,747
20,604	-11,436	280,986	131,542
21,619	-11,257	280,610	131,526
22,634	-11,370	280,408	131,311
23,648	-11,490	280,046	131,015
24,663	-11,283	279,878	131,123
25,677	-11,646	279,663	130,664
26,692	-11,453	279,122	130,583
27,707	-11,560	278,952	130,390
28,721	-11,507	278,863	130,388
29,736	-11,502	278,352	130,142
30,750	-11,439	277,957	130,006
31,765	-11,633	277,937	129,801
32,780	-11,487	277,681	129,807
33,794	-11,547	277,296	129,560
34,809	-11,666	277,102	129,345
35,823	-11,681	276,848	129,200
36,838	-11,565	276,637	129,200
37,853	-11,737	276,373	128,903
38,867	-11,528	276,144	128,982
39,882	-11,565	275,927	128,833
40,896	-11,419	275,579	128,797
41,911	-11,623	275,466	128,542
42,926	-11,568	275,060	128,392
43,940	-11,564	274,789	128,257
44,955	-11,539	274,748	128,251
45,969	-11,706	274,465	127,951
46,984	-11,713	274,241	127,829
47,999	-11,811	274,166	127,691
49,013	-11,662	273,759	127,629
50,028	-11,689	273,474	127,459
51,042	-11,734	273,261	127,307
52,057	-11,731	273,015	127,184
53,071	-11,609	272,812	127,191
54,086	-11,488	272,709	127,244
55,101	-11,497	272,407	127,083
56,115	-11,400	272,123	127,029
57,130	-11,381	272,033	126,993
58,144	-11,583	271,699	126,640
59,159	-11,403	271,523	126,712
60,174	-11,379	271,309	126,623
61,188	-11,500	271,090	126,398
62,203	-11,268	270,679	126,409
63,217	-11,517	270,720	126,188
64,232	-11,313	270,302	126,170
65,247	-11,185	270,145	126,202
66,261	-11,403	269,985	125,916
67,276	-11,553	269,720	125,643
68,290	-11,612	269,704	125,570
69,305	-11,613	269,229	125,338
70,320	-11,522	269,071	125,336
71,334	-11,541	268,901	125,229
72,349	-11,248	268,574	125,333
73,363	-11,456	268,497	125,095
74,378	-11,471	268,313	124,985
75,393	-11,436	267,855	124,793
76,407	-11,524	267,725	124,641
77,422	-11,522	267,512	124,532
78,436	-11,326	267,348	124,623
79,451	-11,436	267,114	124,403
80,466	-11,441	266,826	124,253
81,480	-11,361	266,498	124,161
82,495	-11,553	266,468	123,963
83,509	-11,536	266,159	123,824
84,524	-11,512	266,086	123,799
85,539	-11,598	265,793	123,575
86,553	-11,565	265,550	123,481
87,568	-11,493	265,399	123,464
88,582	-11,416	265,239	123,448
89,597	-11,424	265,043	123,339
90,611	-11,342	264,784	123,281
91,626	-11,396	264,579	123,126
92,641	-11,347	264,271	123,016
93,655	-11,439	264,121	122,852
94,670	-11,369	263,874	122,789
95,684	-11,535	263,792	122,592
96,699	-11,659	263,597	122,379
97,714	-11,498	263,375	122,409
98,728	-11,463	263,206	122,350
99,743	-11,629	262,930	122,064
100,757	-11,485	262,835	122,136
101,772	-11,524	262,701	122,029
102,787	-11,549	262,407	121,859
103,801	-11,585	262,174	121,708
104,816	-11,406	261,974	121,764
105,830	-11,312	261,770	121,742
106,845	-11,435	261,657	121,569
107,860	-11,196	261,309	121,608
108,874	-11,439	261,340	121,397
109,889	-11,412	261,125	121,310
110,903	-11,211	260,699	121,278
111,918	-11,324	260,550	121,098
112,933	-11,255	260,403	121,080
113,947	-11,166	260,204	121,055
114,962	-11,473	260,047	120,701
115,976	-11,403	259,859	120,665
116,991	-11,382	259,526	120,518
118,006	-11,573	259,397	120,279
119,020	-11,489	259,377	120,333
120,035	-11,279	259,135	120,394
121,049	-11,444	258,984	120,169
122,064	-11,373	258,743	120,108
123,079	-11,483	258,619	119,944
124,093	-11,538	258,363	119,767
125,108	-11,374	258,200	119,823
126,122	-11,379	257,919	119,678
127,137	-11,507	257,729	119,468
128,151	-11,581	257,567	119,318
129,166	-11,385	257,536	119,463
130,181	-11,489	257,307	119,255
131,195	-11,595	256,968	118,996
132,210	-11,307	256,819	119,166
133,224	-11,094	256,470	119,178
134,239	-11,186	256,250	118,986
135,254	-11,474	256,241	118,722
136,268	-11,176	255,939	118,829
137,283	-11,474	255,748	118,472
138,297	-11,414	255,435	118,368
139,312	-11,473	255,312	118,250
140,327	-11,377	255,083	118,215
141,341	-11,382	255,034	118,178
142,356	-11,253	254,892	118,213
143,370	-11,132	254,819	118,272
144,385	-11,087	254,384	118,098
145,400	-11,372	254,279	117,795
146,414	-11,181	254,023	117,830
147,429	-11,676	254,098	117,429
148,443	-11,450	253,790	117,471
149,458	-11,360	253,652	117,473
150,473	-11,412	253,357	117,281
151,487	-11,294	253,224	117,311
152,502	-11,352	252,982	117,138
153,516	-11,185	252,884	117,225
154,531	-11,291	252,680	117,029
155,546	-11,248	252,576	117,007
156,560	-11,265	252,265	116,839
157,575	-11,326	252,007	116,656
158,589	-11,318	251,918	116,612
159,604	-11,066	251,694	116,711
160,619	-11,269	251,430	116,406
161,633	-11,100	251,313	116,485
162,648	-11,185	251,270	116,383
163,662	-11,357	251,001	116,102
164,677	-11,020	250,797	116,283
165,692	-11,085	250,786	116,213
166,706	-11,219	250,505	115,958
167,721	-11,100	250,491	116,042
168,735	-11,098	250,367	115,976
169,750	-11,208	250,101	115,750
170,764	-11,281	250,002	115,632
171,779	-11,193	249,806	115,605
172,794	-11,084	249,440	115,517
173,808	-11,298	249,382	115,300
174,823	-11,340	249,201	115,171
175,837	-11,443	249,124	115,039
176,852	-11,391	248,867	114,953
177,867	-11,149	248,482	114,967
178,881	-11,253	248,609	114,929
179,896	-11,325	248,272	114,703
180,910	-11,096	248,171	114,838
181,925	-11,206	248,107	114,706
182,940	-11,098	247,803	114,645
183,954	-11,076	247,837	114,668
184,969	-11,187	247,610	114,461
185,983	-11,058	247,330	114,428
186,998	-10,935	247,033	114,383
188,013	-10,972	246,778	114,224
189,027	-11,153	246,813	114,080
190,042	-11,162	246,622	113,974
191,056	-10,926	246,358	114,037
192,071	-11,045	246,202	113,857
193,086	-11,105	246,150	113,772
194,100	-11,061	245,959	113,711
195,115	-11,150	245,782	113,545
196,129	-11,087	245,575	113,491
197,144	-11,031	245,371	113,433
198,159	-10,902	245,072	113,391
199,173	-11,099	245,023	113,196
200,188	-11,054	244,739	113,092
201,202	-11,240	244,621	112,874
202,217	-11,311	244,276	112,647
203,232	-11,506	244,299	112,488
204,246	-10,882	244,416	113,043
205,261	-9,837	244,241	113,809
206,275	-9,781	244,458	113,946
207,290	-8,214	244,869	115,414
208,304	-5,573	245,650	117,945
209,319	-3,070	246,174	120,247
210,334	-2,304	246,244	120,900
211,348	-1,722	246,378	121,435
212,363	-1,113	246,153	121,814
213,377	-0,861	246,411	122,137
214,392	-0,618	246,353	122,298
215,407	-0,421	246,231	122,388
216,421	-0,563	246,089	122,190
217,436	-0,538	245,836	122,074
218,450	-0,372	245,496	122,030
219,465	-0,556	245,454	121,848
220,480	-0,579	245,371	121,777
221,494	-0,590	245,112	121,628
222,509	-0,604	245,066	121,584
223,523	-0,521	244,781	121,499
224,538	-0,569	244,542	121,330
225,553	-0,874	244,469	121,035
226,567	-0,754	244,379	121,077
227,582	-0,601	244,181	121,093
228,596	-0,713	244,005	120,903
229,611	-0,617	243,808	120,873
230,626	-0,841	243,626	120,590
231,640	-0,853	243,524	120,519
232,655	-0,831	243,551	120,540
233,669	-0,700	242,965	120,345
234,684	-0,780	242,967	120,271
235,699	-0,669	242,835	120,284
236,713	-0,695	242,782	120,226
237,728	-0,660	242,549	120,129
238,742	-0,624	242,385	120,066
239,757	-0,673	242,143	119,895
240,772	-0,853	241,987	119,663
241,786	-0,627	241,704	119,694
242,801	-0,630	241,902	119,779
243,815	-0,768	241,575	119,495
244,830	-0,511	241,290	119,550
245,844	-0,827	241,308	119,294
246,859	-0,858	241,062	119,137
247,874	-0,759	240,945	119,148
248,888	-0,758	240,717	119,026
249,903	-0,927	240,647	118,845
250,917	-0,681	240,502	118,959
251,932	-0,689	240,218	118,802
252,947	-0,698	240,062	118,707
253,961	-0,714	239,941	118,624
254,976	-0,862	239,816	118,434
255,990	-0,746	239,654	118,435
257,005	-0,827	239,624	118,346
258,020	-0,475	239,335	118,473
259,034	-0,853	239,327	118,157
260,049	-0,728	239,023	118,095
261,063	-0,898	238,905	117,892
262,078	-0,622	238,823	118,060
263,093	-0,722	238,499	117,810
264,107	-0,693	238,516	117,831
265,122	-0,878	238,304	117,570
266,136	-0,639	238,164	117,679
267,151	-0,504	237,902	117,646
268,166	-0,660	237,823	117,473
269,180	-0,712	237,697	117,359
270,195	-0,639	237,445	117,281
271,209	-0,620	237,415	117,272
272,224	-0,444	237,192	117,289
273,239	-0,622	236,965	117,026
274,253	-0,665	236,941	116,970
275,268	-0,716	236,793	116,847
276,282	-0,658	236,581	116,777
277,297	-0,568	236,431	116,764
278,312	-0,560	236,191	116,641
279,326	-0,544	236,067	116,582
280,341	-0,595	235,997	116,497
281,355	-0,661	235,865	116,369
282,370	-0,552	235,662	116,344
283,384	-0,737	235,666	116,191
284,399	-0,619	235,371	116,128
285,414	-0,903	235,376	115,898
286,428	-0,533	235,012	115,997
287,443	-0,324	234,968	116,128
288,457	-0,366	234,799	116,001
289,472	-0,323	234,616	115,934
290,487	-0,509	234,530	115,736
291,501	-0,658	234,347	115,520
292,516	-0,408	234,210	115,637
293,530	-0,485	234,090	115,506
294,545	-0,336	233,936	115,536
295,560	-0,445	233,797	115,373
296,574	-0,611	233,614	115,144
297,589	-0,433	233,360	115,145
298,603	-0,338	233,119	115,090
299,618	-0,537	233,190	114,961
300,633	-0,531	232,958	114,841
301,647	-0,337	232,903	114,953
302,662	-0,587	232,760	114,680
303,676	-0,574	232,718	114,659
304,691	-0,476	232,451	114,592
305,706	-0,580	232,314	114,435
306,720	-0,408	232,032	114,418
307,735	-0,558	231,967	114,260
308,749	-0,191	231,718	114,409
309,764	-0,390	231,780	114,277
310,779	-0,468	231,420	114,029
311,793	-0,350	231,363	114,081
312,808	-0,467	231,228	113,915
313,822	-0,291	231,017	113,935
314,837	-0,484	230,964	113,752
315,852	-0,124	230,830	113,950
316,866	-0,240	230,730	113,803
317,881	-0,390	230,561	113,595
318,895	-0,486	230,320	113,393
319,910	-0,515	230,255	113,329
320,925	-0,369	230,078	113,342
321,939	-0,255	229,800	113,282
322,954	-0,259	229,795	113,266
323,968	-0,249	229,687	113,210
324,983	-0,132	229,558	113,225
325,997	-0,387	229,446	112,967
327,012	-0,094	229,231	113,072
328,027	-0,333	229,034	112,785
329,041	-0,129	228,918	112,872
330,056	-0,259	228,716	112,664
331,070	-0,124	228,727	112,761
332,085	-0,023	228,364	112,648
333,100	-0,446	228,308	112,292
334,114	-0,029	228,116	112,501
335,129	-0,337	228,071	112,237
336,143	-0,354	227,779	112,071
337,158	-0,419	227,755	112,000
338,173	-0,114	227,621	112,153
339,187	-0,053	227,598	112,178
340,202	-0,316	227,591	111,967
341,216	0,003	227,094	111,951
342,231	-0,034	227,151	111,942
343,246	-0,074	227,001	111,828
344,260	-0,123	226,859	111,711
345,275	-0,155	226,667	111,583
346,289	-0,118	226,556	111,546
347,304	-0,099	226,333	111,440
348,319	-0,120	226,236	111,367
349,333	-0,136	226,013	111,236
350,348	-0,173	225,991	111,187
351,362	-0,223	225,655	110,975
352,377	-0,149	225,684	111,034
353,392	0,195	225,363	111,121
354,406	0,241	225,371	111,150
355,421	197,295	1318,007	1396,519
356,435	158,211	1451,102	1396,479
