DTS Sentinel unit serial number:	SN410029Multiplexer serial number:	ORYXHardware model number:	OX2-SRSoftware version number:	ORYX F/W v4,00 Oryx Data Collector v3.7.2.0data status	okinstallation	B5 Nyhavnadifferential loss correction	single-endedforward channel	channel 2reverse channel	N/Adate	2023/12/13time	16:27:14forward acquisition time	300,00reverse acquisition time	0,00gamma	499,1914k internal	0,3159k external	0,3159temperature offset calibration	1,0000default loss term (dB/km)	0,3820temperature slope calibration	1,0000multiplexer offset coefficient	1,0000multiplexer slope coefficient	1,0000fibre end	0,00T internal ref (°C)	14,74T ext. ref 1 (°C)	-2,15T ext. ref 2 (°C)	-2,25length (m)	temperature (°C)	Stokes	anti-Stokes-744,400	107,362	0,124	0,108
-743,385	-116,723	-0,388	0,052
-742,371	29,125	0,073	0,045
-741,356	12,979	-0,273	0,155
-740,342	184,075	0,144	0,157
-739,327	-109,744	-0,304	0,047
-738,312	-200,000	0,045	0,190
-737,298	-99,096	-0,377	-0,070
-736,283	39,625	0,054	-0,036
-735,269	-97,270	-0,204	0,039
-734,254	-122,792	0,131	0,015
-733,239	-64,264	-0,459	-0,137
-732,225	23,150	0,212	0,128
-731,210	97,857	-0,086	0,073
-730,196	43,665	-0,126	0,085
-729,181	17,857	-0,068	-0,040
-728,167	800,000	-0,042	-0,093
-727,152	-200,000	-0,010	-0,102
-726,137	18,347	-0,115	-0,068
-725,123	-65,784	0,067	0,020
-724,108	800,000	-0,018	-0,043
-723,094	721,225	0,015	0,029
-722,079	-49,534	-0,175	-0,061
-721,064	-200,000	-0,009	0,079
-720,050	-200,000	0,010	-0,044
-719,035	362,670	-0,041	0,061
-718,021	-200,000	0,003	-0,116
-717,006	-135,375	-0,174	-0,015
-715,991	688,222	0,014	0,028
-714,977	-200,000	0,017	0,101
-713,962	439,561	0,045	-0,072
-712,948	-67,529	0,091	-0,026
-711,933	9,207	-0,151	0,084
-710,918	91,300	0,016	0,013
-709,904	302,398	-0,077	-0,105
-708,889	800,000	-0,021	-0,059
-707,875	34,673	0,090	-0,058
-706,860	490,550	-0,072	0,122
-705,845	147,851	-0,104	-0,103
-704,831	695,972	0,041	0,079
-703,816	-108,155	-0,089	0,014
-702,802	-42,663	0,104	-0,039
-701,787	-200,000	0,003	-0,047
-700,772	179,797	-0,067	0,072
-699,758	-38,661	-0,090	-0,035
-698,743	-200,000	-0,019	-0,080
-697,729	515,829	-0,067	-0,115
-696,714	800,000	0,026	0,061
-695,699	-125,928	-0,228	-0,025
-694,685	-61,268	-0,038	0,012
-693,670	726,821	-0,056	0,111
-692,656	-42,982	-0,061	0,023
-691,641	-27,780	-0,083	0,035
-690,627	258,956	-0,066	-0,084
-689,612	-200,000	-0,006	-0,023
-688,597	-200,000	-0,020	0,081
-687,583	33,661	-0,064	0,041
-686,568	-72,171	-0,105	0,028
-685,554	-35,781	0,060	-0,024
-684,539	653,091	-0,027	-0,051
-683,524	-116,544	0,228	-0,031
-682,510	-140,894	-0,044	-0,003
-681,495	-26,530	0,063	0,027
-680,481	32,422	-0,063	0,040
-679,466	-200,000	-0,024	0,089
-678,451	-108,906	-0,117	0,018
-677,437	785,788	-0,038	0,077
-676,422	34,615	0,050	-0,032
-675,408	-200,000	-0,013	0,112
-674,393	-40,915	-0,024	0,009
-673,378	-123,845	-0,099	0,011
-672,364	-113,302	-0,025	-0,004
-671,349	800,000	-0,023	0,055
-670,335	167,189	-0,071	-0,074
-669,320	-200,000	-0,022	0,085
-668,305	800,000	0,031	0,074
-667,291	800,000	0,008	0,021
-666,276	120,115	-0,128	-0,117
-665,262	-69,703	-0,094	-0,026
-664,247	263,904	-0,025	0,032
-663,232	107,694	0,075	-0,065
-662,218	422,798	-0,015	0,023
-661,203	785,220	-0,013	-0,026
-660,189	-53,332	-0,138	-0,046
-659,174	83,131	0,074	0,060
-658,159	84,556	0,108	-0,087
-657,145	-88,329	0,023	-0,005
-656,130	116,939	-0,069	0,062
-655,116	-102,693	0,031	-0,005
-654,101	-90,077	0,127	0,027
-653,086	-24,058	-0,090	-0,039
-652,072	155,327	-0,077	-0,078
-651,057	-104,562	-0,179	0,030
-650,043	618,784	0,016	0,029
-649,028	679,518	-0,007	0,013
-648,014	258,586	0,019	0,025
-646,999	-200,000	0,035	0,180
-645,984	800,000	-0,035	0,110
-644,970	433,013	0,038	0,061
-643,955	300,170	0,013	0,018
-642,941	5,211	-0,015	0,008
-641,926	573,887	-0,058	-0,105
-640,911	57,510	0,111	-0,079
-639,897	-200,000	0,022	0,229
-638,882	121,971	-0,077	-0,071
-637,868	-143,177	0,108	0,007
-636,853	-200,000	0,002	-0,142
-635,838	201,692	-0,051	-0,057
-634,824	-200,000	0,008	-0,042
-633,809	640,429	-0,005	-0,009
-632,795	28,747	0,056	0,035
-631,780	-38,699	-0,107	-0,041
-630,765	403,530	-0,055	-0,085
-629,751	-116,747	-0,013	-0,002
-628,736	252,411	0,067	-0,085
-627,722	-200,000	0,030	-0,157
-626,707	42,195	-0,077	-0,051
-625,692	38,556	0,038	0,025
-624,678	-200,000	0,030	0,120
-623,663	41,948	0,082	-0,054
-622,649	-200,000	-0,010	-0,079
-621,634	428,528	-0,023	-0,037
-620,619	-200,000	-0,013	-0,049
-619,605	-10,056	-0,045	0,022
-618,590	-166,794	0,145	-0,004
-617,576	-200,000	-0,010	-0,089
-616,561	-131,276	0,113	0,011
-615,546	151,828	0,005	0,005
-614,532	-200,000	-0,011	-0,121
-613,517	-96,928	0,139	-0,026
-612,503	196,054	-0,084	-0,094
-611,488	229,267	0,116	-0,139
-610,474	800,000	0,052	0,110
-609,459	-66,865	0,056	0,016
-608,444	800,000	0,014	0,031
-607,430	-6,550	-0,118	-0,059
-606,415	428,151	0,067	-0,106
-605,401	-72,423	0,113	-0,031
-604,386	7,705	-0,021	-0,012
-603,371	-113,593	-0,039	-0,005
-602,357	320,674	-0,033	0,046
-601,342	-83,620	-0,185	0,043
-600,328	-47,126	-0,100	0,035
-599,313	-200,000	0,001	-0,077
-598,298	253,798	0,079	-0,099
-597,284	162,034	0,057	-0,058
-596,269	605,491	0,019	0,035
-595,255	-59,865	0,122	0,038
-594,240	44,059	0,047	-0,031
-593,225	698,613	-0,056	-0,108
-592,211	59,087	-0,072	-0,052
-591,196	-60,406	-0,075	0,023
-590,182	-66,928	0,116	-0,033
-589,167	-178,377	0,099	0,002
-588,152	-87,493	-0,076	0,017
-587,138	-200,000	0,003	0,044
-586,123	-200,000	0,007	-0,026
-585,109	-9,514	-0,106	0,052
-584,094	586,030	-0,038	-0,069
-583,079	-77,544	-0,107	0,027
-582,065	117,640	0,078	-0,070
-581,050	796,135	-0,017	-0,035
-580,036	36,565	-0,061	-0,039
-579,021	713,462	0,036	-0,070
-578,006	216,672	-0,030	-0,035
-576,992	199,215	-0,038	0,043
-575,977	3,606	-0,152	-0,081
-574,963	800,000	-0,019	-0,041
-573,948	-47,783	0,043	0,015
-572,934	-105,277	-0,156	-0,026
-571,919	-11,908	0,042	-0,020
-570,904	800,000	0,033	0,082
-569,890	-200,000	-0,011	0,086
-568,875	-200,000	0,116	0,000
-567,861	-200,000	0,009	0,104
-566,846	-179,070	0,117	0,002
-565,831	-200,000	0,019	-0,110
-564,817	-200,000	-0,017	0,077
-563,802	431,303	-0,087	-0,138
-562,788	675,453	0,006	0,012
-561,773	-34,473	0,009	0,004
-560,758	-200,000	-0,008	-0,071
-559,744	-200,000	-0,002	-0,124
-558,729	261,124	-0,062	-0,078
-557,715	-31,979	-0,035	-0,014
-556,700	-200,000	-0,024	0,203
-555,685	-200,000	0,008	0,067
-554,671	112,874	0,078	-0,070
-553,656	27,214	-0,054	-0,033
-552,642	-200,000	0,036	0,144
-551,627	91,409	-0,057	0,047
-550,612	800,000	-0,049	-0,120
-549,598	146,552	-0,044	0,043
-548,583	-200,000	0,013	0,173
-547,569	-73,465	-0,121	0,032
-546,554	-187,295	-0,060	0,001
-545,539	183,618	0,079	0,085
-544,525	-94,656	0,040	0,008
-543,510	-177,162	-0,054	-0,001
-542,496	-20,418	-0,072	-0,032
-541,481	110,136	-0,030	-0,026
-540,466	800,000	0,030	-0,071
-539,452	800,000	0,012	0,036
-538,437	124,639	-0,064	-0,058
-537,423	-75,819	-0,024	0,006
-536,408	-200,000	0,001	-0,014
-535,393	-200,000	-0,003	-0,122
-534,379	-200,000	-0,037	-0,128
-533,364	351,630	0,012	0,017
-532,350	147,526	0,050	0,049
-531,335	-27,647	-0,113	0,048
-530,321	-14,265	0,115	-0,054
-529,306	-200,000	0,005	0,033
-528,291	-75,772	0,067	0,017
-527,277	204,259	0,029	-0,033
-526,262	221,126	-0,035	-0,041
-525,248	26,046	-0,038	-0,023
-524,233	-200,000	0,033	0,137
-523,218	117,359	-0,025	0,023
-522,204	64,715	0,067	-0,049
-521,189	317,840	0,029	0,040
-520,175	89,509	-0,062	-0,050
-519,160	800,000	-0,069	-0,166
-518,145	-200,000	0,004	-0,045
-517,131	-8,670	0,112	-0,055
-516,116	-200,000	-0,011	0,140
-515,102	-200,000	-0,002	0,091
-514,087	800,000	-0,021	0,045
-513,072	60,715	0,093	0,067
-512,058	-200,000	-0,028	-0,123
-511,043	-13,146	0,021	0,010
-510,029	62,916	-0,123	0,090
-509,014	-114,393	0,041	-0,006
-507,999	800,000	-0,079	0,196
-506,985	-31,581	0,034	-0,014
-505,970	404,816	0,076	-0,117
-504,956	88,072	0,023	0,018
-503,941	183,513	0,069	0,074
-502,926	16,868	0,086	0,050
-501,912	573,288	0,058	0,104
-500,897	-18,826	-0,060	0,027
-499,883	-144,388	-0,104	0,007
-498,868	111,951	-0,134	-0,118
-497,853	30,311	-0,061	0,038
-496,839	99,176	-0,041	-0,034
-495,824	111,622	0,070	0,062
-494,810	-200,000	-0,006	0,025
-493,795	11,592	-0,083	0,046
-492,781	-43,358	-0,075	0,028
-491,766	-104,756	-0,065	-0,011
-490,751	800,000	0,053	0,123
-489,737	800,000	-0,033	-0,082
-488,722	800,000	0,020	-0,055
-487,708	-43,717	0,099	0,036
-486,693	83,871	-0,100	0,079
-485,678	800,000	-0,028	0,079
-484,664	-200,000	0,002	-0,044
-483,649	247,067	-0,084	-0,103
-482,635	-171,731	0,069	0,002
-481,620	-51,751	0,174	-0,059
-480,605	-87,918	-0,139	0,030
-479,591	73,390	0,022	0,017
-478,576	276,407	-0,056	0,073
-477,562	364,329	0,033	0,048
-476,547	209,266	-0,068	0,078
-475,532	-39,751	-0,104	0,039
-474,518	737,343	-0,058	0,114
-473,503	8,352	0,070	0,038
-472,489	-90,889	0,124	0,026
-471,474	-200,000	0,021	0,086
-470,459	266,563	-0,086	-0,110
-469,445	-200,000	0,009	0,092
-468,430	-200,000	0,036	0,115
-467,416	-98,859	0,090	0,017
-466,401	58,239	0,043	0,031
-465,386	800,000	0,041	0,127
-464,372	642,526	0,034	0,063
-463,357	800,000	-0,025	-0,062
-462,343	252,324	0,050	0,063
-461,328	-101,849	0,036	-0,006
-460,313	-200,000	0,022	-0,107
-459,299	800,000	-0,018	-0,052
-458,284	448,312	-0,052	0,084
-457,270	176,287	0,152	0,161
-456,255	-67,100	-0,136	0,039
-455,241	77,272	0,088	-0,068
-454,226	-200,000	-0,032	-0,108
-453,211	90,887	0,012	0,010
-452,197	-200,000	-0,000	-0,038
-451,182	-200,000	0,001	-0,173
-450,168	330,018	-0,033	0,046
-449,153	-92,375	-0,053	0,011
-448,138	-200,000	-0,010	-0,044
-447,124	236,368	-0,090	-0,108
-446,109	800,000	-0,048	-0,098
-445,095	-106,009	0,120	-0,019
-444,080	298,544	0,083	-0,112
-443,065	-154,265	-0,106	0,005
-442,051	-200,000	-0,015	0,152
-441,036	215,410	0,068	-0,079
-440,022	-40,306	-0,071	0,027
-439,007	73,999	0,083	-0,063
-437,992	139,498	-0,079	0,076
-436,978	1,431	0,039	-0,021
-435,963	30,560	0,080	0,050
-434,949	-42,767	0,126	0,046
-433,934	46,311	0,007	0,005
-432,919	-200,000	0,023	-0,075
-431,905	-89,525	-0,162	-0,034
-430,890	-200,000	-0,003	-0,038
-429,876	277,744	0,079	0,103
-428,861	-57,728	-0,151	-0,048
-427,846	-95,234	-0,052	0,010
-426,832	-134,264	-0,060	0,005
-425,817	-200,000	-0,012	-0,082
-424,803	-87,036	-0,142	0,031
-423,788	65,615	0,043	-0,032
-422,773	237,713	-0,017	-0,021
-421,759	-200,000	-0,005	0,034
-420,744	-66,555	-0,075	0,022
-419,730	214,354	-0,053	0,062
-418,715	800,000	0,034	0,087
-417,701	800,000	-0,016	-0,044
-416,686	251,405	0,042	0,052
-415,671	-200,000	-0,012	-0,073
-414,657	800,000	0,025	-0,050
-413,642	-142,973	-0,107	-0,007
-412,628	-73,908	0,137	0,036
-411,613	7,434	-0,137	-0,074
-410,598	126,741	-0,067	0,061
-409,584	107,051	0,085	0,073
-408,569	-200,000	0,008	0,044
-407,555	-35,529	0,162	-0,064
-406,540	32,615	-0,073	0,046
-405,525	-200,000	0,017	-0,127
-404,511	190,897	-0,008	-0,009
-403,496	139,960	0,147	-0,141
-402,482	-200,000	-0,008	-0,053
-401,467	28,462	0,127	-0,078
-400,452	18,215	-0,038	-0,022
-399,438	51,847	-0,070	0,048
-398,423	120,792	-0,018	-0,016
-397,409	24,535	-0,063	0,038
-396,394	-200,000	-0,011	-0,052
-395,379	800,000	-0,044	0,119
-394,365	-167,602	0,121	-0,003
-393,350	-61,388	0,122	0,037
-392,336	-200,000	0,000	0,008
-391,321	-27,337	0,094	-0,040
-390,306	-200,000	-0,024	-0,081
-389,292	-200,000	-0,034	-0,123
-388,277	-200,000	-0,030	0,125
-387,263	-13,281	0,076	-0,036
-386,248	-200,000	-0,022	0,097
-385,233	-104,802	0,131	-0,022
-384,219	17,565	0,126	-0,073
-383,204	320,642	-0,080	0,110
-382,190	-200,000	0,016	-0,132
-381,175	171,072	0,089	-0,092
-380,160	-200,000	-0,003	0,091
-379,146	-170,855	-0,053	-0,001
-378,131	-91,618	0,104	0,021
-377,117	299,220	-0,053	0,071
-376,102	800,000	0,015	-0,034
-375,088	-200,000	-0,013	0,077
-374,073	148,152	-0,028	-0,027
-373,058	97,856	0,094	-0,079
-372,044	172,777	0,058	-0,061
-371,029	-122,437	-0,115	0,013
-370,015	-25,030	0,025	0,011
-369,000	-200,000	-0,002	-0,204
-367,985	277,816	0,034	-0,044
-366,971	228,329	-0,037	-0,044
-365,956	-97,328	-0,089	0,017
-364,942	800,000	-0,038	0,076
-363,927	46,062	0,110	0,074
-362,912	800,000	-0,060	-0,165
-361,898	207,838	0,034	0,038
-360,883	305,734	-0,053	0,071
-359,869	146,427	-0,105	-0,102
-358,854	-86,388	-0,045	0,010
-357,839	800,000	0,045	0,091
-356,825	73,807	0,057	0,043
-355,810	182,788	0,035	-0,037
-354,796	-23,299	-0,155	-0,067
-353,781	566,582	0,034	-0,061
-352,766	800,000	-0,021	-0,054
-351,752	-147,569	0,049	0,003
-350,737	-36,701	0,103	-0,040
-349,723	13,717	-0,060	-0,034
-348,708	467,705	0,049	-0,080
-347,693	-117,867	-0,116	-0,015
-346,679	-127,717	0,139	0,014
-345,664	3,730	0,032	0,017
-344,650	-157,575	0,167	0,007
-343,635	334,793	0,029	0,041
-342,620	56,685	0,134	0,095
-341,606	-200,000	0,023	-0,142
-340,591	126,100	-0,063	-0,058
-339,577	800,000	-0,026	-0,054
-338,562	-152,399	0,078	0,004
-337,548	-115,352	-0,027	-0,004
-336,533	221,267	-0,082	-0,096
-335,518	107,389	0,070	-0,060
-334,504	-200,000	0,013	0,076
-333,489	47,577	0,077	0,052
-332,475	-77,488	-0,060	0,015
-331,460	-200,000	0,040	0,132
-330,445	557,575	0,042	-0,074
-329,431	-200,000	-0,010	0,152
-328,416	-200,000	-0,009	0,102
-327,402	29,895	0,077	0,048
-326,387	-200,000	0,000	0,017
-325,372	-2,995	-0,099	0,050
-324,358	-200,000	0,012	-0,089
-323,343	454,935	0,022	-0,036
-322,329	27,586	0,060	-0,037
-321,314	-107,767	0,110	-0,017
-320,299	800,000	-0,041	0,121
-319,285	433,993	0,061	0,097
-318,270	266,499	0,047	0,060
-317,256	-200,000	0,037	-0,142
-316,241	36,254	0,014	0,009
-315,226	245,486	0,028	0,034
-314,212	-105,724	0,087	0,014
-313,197	-200,000	0,038	0,157
-312,183	-79,610	-0,065	0,016
-311,168	-200,000	0,000	0,021
-310,153	420,995	0,038	0,060
-309,139	-13,654	-0,123	0,058
-308,124	-1,933	0,037	0,019
-307,110	111,177	-0,040	0,035
-306,095	273,272	-0,075	0,096
-305,080	514,887	0,064	0,108
-304,066	-82,566	-0,021	-0,005
-303,051	273,636	-0,072	0,092
-302,037	89,324	0,028	-0,023
-301,022	20,771	0,075	-0,044
-300,008	-72,084	0,107	0,029
-298,993	330,290	0,055	-0,077
-297,978	179,979	0,067	-0,072
-296,964	-98,257	0,072	0,013
-295,949	-158,517	0,045	0,002
-294,935	43,836	-0,116	-0,077
-293,920	63,478	0,055	0,040
-292,905	212,434	-0,084	-0,096
-291,891	730,709	-0,021	0,042
-290,876	-134,233	0,094	0,008
-289,862	179,452	0,073	0,078
-288,847	-143,092	0,049	0,003
-287,832	-50,273	0,084	0,029
-286,818	33,034	-0,077	0,048
-285,803	-200,000	-0,004	0,055
-284,789	-106,585	0,090	-0,014
-283,774	-97,077	-0,029	-0,005
-282,759	5,888	-0,118	-0,063
-281,745	480,855	0,030	0,049
-280,730	-33,128	-0,087	-0,035
-279,716	202,687	-0,098	0,110
-278,701	9,858	-0,096	-0,053
-277,686	-18,412	-0,052	-0,024
-276,672	-25,340	0,047	-0,020
-275,657	-200,000	-0,029	-0,174
-274,643	278,605	-0,055	-0,072
-273,628	-200,000	-0,008	0,094
-272,613	721,644	-0,024	0,047
-271,599	128,123	0,053	0,049
-270,584	-113,278	-0,066	0,009
-269,570	-182,536	0,126	0,002
-268,555	-200,000	0,015	-0,101
-267,540	101,065	-0,032	-0,027
-266,526	-99,640	-0,184	-0,033
-265,511	162,338	-0,022	0,022
-264,497	-159,870	0,081	0,003
-263,482	-111,806	-0,087	0,013
-262,467	-40,029	0,031	-0,012
-261,453	-200,000	-0,001	0,016
-260,438	13,764	-0,093	-0,052
-259,424	129,876	-0,061	-0,056
-258,409	800,000	0,041	-0,100
-257,395	-55,857	0,051	0,016
-256,380	800,000	0,018	0,056
-255,365	-74,918	-0,032	-0,008
-254,351	-108,784	0,139	-0,021
-253,336	-142,329	-0,080	0,006
-252,322	113,577	-0,080	-0,070
-251,307	536,754	0,015	-0,025
-250,292	-200,000	-0,011	0,054
-249,278	84,263	0,054	-0,043
-248,263	-20,183	0,056	0,025
-247,249	-100,530	0,090	0,016
-246,234	184,381	-0,055	0,059
-245,219	317,744	0,037	0,051
-244,205	-122,359	-0,048	-0,006
-243,190	308,594	-0,050	0,068
-242,176	89,834	-0,050	0,041
-241,161	597,426	-0,057	0,102
-240,146	-67,518	0,055	-0,016
-239,132	294,537	-0,093	0,123
-238,117	-200,000	-0,009	0,033
-237,103	563,525	-0,085	-0,149
-236,088	157,234	-0,048	-0,048
-235,073	290,357	0,076	0,100
-234,059	-74,799	0,087	0,022
-233,044	370,312	0,084	-0,124
-232,030	700,531	-0,030	-0,056
-231,015	501,654	-0,044	-0,074
-230,000	800,000	0,060	-0,138
-228,986	-6,880	0,093	0,045
-227,971	800,000	-0,047	0,101
-226,957	-200,000	-0,016	0,147
-225,942	-5,497	-0,081	-0,040
-224,927	518,054	-0,056	0,094
-223,913	85,549	-0,104	0,082
-222,898	-200,000	0,002	-0,023
-221,884	800,000	0,019	0,047
-220,869	117,641	0,044	-0,039
-219,855	-92,752	-0,191	-0,038
-218,840	190,666	-0,046	-0,050
-217,825	-200,000	-0,013	0,098
-216,811	-94,860	-0,198	-0,038
-215,796	-200,000	-0,029	-0,138
-214,782	-200,000	0,010	-0,047
-213,767	-71,191	0,109	-0,029
-212,752	-117,684	-0,024	-0,003
-211,738	-95,717	0,120	-0,023
-210,723	-200,000	0,021	0,143
-209,709	219,503	0,065	0,076
-208,694	-200,000	0,011	-0,048
-207,679	-200,000	0,002	0,053
-206,665	379,807	-0,074	0,110
-205,650	800,000	0,047	0,111
-204,636	-61,880	0,099	-0,030
-203,621	-200,000	-0,017	0,078
-202,606	-200,000	0,010	0,075
-201,592	800,000	0,023	-0,065
-200,577	257,797	0,058	-0,072
-199,563	123,287	0,028	-0,025
-198,548	195,622	-0,033	0,036
-197,533	198,956	-0,076	0,084
-196,519	-36,645	0,072	0,028
-195,504	800,000	-0,023	-0,045
-194,490	240,385	0,060	0,073
-193,475	800,000	-0,030	-0,092
-192,460	71,616	-0,051	0,038
-191,446	269,152	-0,039	0,049
-190,431	-39,495	-0,108	0,041
-189,417	-59,614	-0,104	-0,032
-188,402	-2,436	-0,026	-0,013
-187,387	18,529	0,098	-0,056
-186,373	-64,162	0,070	0,020
-185,358	-147,075	-0,019	-0,001
-184,344	618,365	0,044	0,080
-183,329	-88,447	0,160	-0,034
-182,315	0,379	-0,116	0,059
-181,300	-108,908	-0,110	0,017
-180,285	-7,199	-0,209	0,102
-179,271	50,706	-0,107	-0,073
-178,256	-200,000	0,008	-0,078
-177,242	261,168	0,094	0,117
-176,227	34,944	-0,066	0,041
-175,212	263,809	0,046	-0,058
-174,198	-200,000	-0,019	-0,082
-173,183	206,097	-0,142	-0,160
-172,169	651,243	-0,067	-0,124
-171,154	-200,000	0,004	0,063
-170,139	-200,000	0,031	-0,104
-169,125	800,000	0,044	0,139
-168,110	69,029	0,105	0,078
-167,096	-200,000	0,023	0,080
-166,081	214,392	-0,048	0,055
-165,066	-110,215	-0,162	-0,024
-164,052	-200,000	0,005	-0,079
-163,037	-200,000	-0,005	0,152
-162,023	300,927	-0,008	0,011
-161,008	-200,000	0,007	0,064
-159,993	-59,359	0,103	-0,032
-158,979	3,378	-0,075	0,039
-157,964	-59,871	0,067	0,021
-156,950	68,001	-0,082	-0,060
-155,935	-26,129	0,080	0,034
-154,920	465,774	0,019	-0,031
-153,906	-192,695	0,133	-0,001
-152,891	-200,000	0,017	-0,146
-151,877	-200,000	-0,046	0,166
-150,862	-15,740	0,033	-0,015
-149,847	148,646	0,045	-0,043
-148,833	513,651	0,039	-0,066
-147,818	273,801	0,100	-0,127
-146,804	137,399	0,108	0,102
-145,789	800,000	-0,046	-0,117
-144,775	-18,472	-0,077	-0,034
-143,760	270,746	-0,043	0,055
-142,745	-126,507	-0,085	-0,009
-141,731	-200,000	-0,005	0,030
-140,716	38,096	0,112	-0,071
-139,702	-191,352	0,181	-0,001
-138,687	-4,629	0,132	-0,066
-137,672	-66,765	-0,053	-0,015
-136,658	136,901	-0,029	-0,027
-135,643	37,150	-0,178	-0,113
-134,629	800,000	0,007	-0,020
-133,614	800,000	-0,017	0,040
-132,599	-84,358	0,110	-0,025
-131,585	-45,056	0,093	0,033
-130,570	134,565	0,050	-0,047
-129,556	189,235	-0,038	-0,041
-128,541	170,402	0,007	0,007
-127,526	-45,835	-0,137	0,048
-126,512	-200,000	0,010	0,111
-125,497	-200,000	-0,011	0,089
-124,483	-200,000	-0,001	0,083
-123,468	203,072	0,073	0,081
-122,453	-124,960	-0,162	-0,018
-121,439	-173,081	-0,044	-0,001
-120,424	-200,000	-0,025	0,105
-119,410	-200,000	0,021	0,150
-118,395	259,651	0,046	0,058
-117,380	-200,000	-0,027	0,106
-116,366	800,000	-0,021	0,050
-115,351	-59,902	0,079	-0,024
-114,337	540,973	-0,093	0,159
-113,322	-29,059	0,090	0,037
-112,307	-80,763	-0,086	0,020
-111,293	67,426	-0,077	0,057
-110,278	-87,399	0,044	0,009
-109,264	130,131	-0,063	-0,058
-108,249	-200,000	0,015	0,075
-107,234	-72,737	-0,040	0,011
-106,220	800,000	0,010	-0,023
-105,205	-49,628	-0,044	0,015
-104,191	800,000	0,086	0,199
-103,176	-200,000	0,011	0,131
-102,162	-196,662	-0,155	-0,001
-101,147	150,267	-0,064	-0,062
-100,132	800,000	0,030	0,063
-99,118	23,770	0,062	-0,037
-98,103	28,526	0,036	0,022
-97,089	800,000	0,025	0,052
-96,074	-200,000	0,013	-0,081
-95,059	-1,785	-0,096	0,048
-94,045	-33,492	-0,145	-0,057
-93,030	86,190	-0,119	-0,094
-92,016	494,667	0,057	-0,094
-91,001	109,513	-0,141	-0,121
-89,986	-12,399	0,048	0,022
-88,972	154,878	-0,080	0,079
-87,957	615,524	0,022	-0,040
-86,943	38,657	0,038	0,024
-85,928	129,214	-0,101	-0,093
-84,913	16,039	-0,034	-0,019
-83,899	-96,720	0,150	-0,028
-82,884	-75,096	0,124	-0,032
-81,870	90,354	0,131	-0,105
-80,855	800,000	-0,039	0,077
-79,840	462,703	-0,023	-0,036
-78,826	-200,000	-0,019	0,121
-77,811	-200,000	0,011	-0,112
-76,797	645,844	-0,029	-0,053
-75,782	-27,166	-0,097	-0,040
-74,767	13,318	0,058	-0,032
-73,753	-200,000	0,019	0,104
-72,738	-200,000	0,013	0,115
-71,724	4,203	-0,119	-0,062
-70,709	-131,677	-0,098	0,009
-69,694	-122,189	0,067	-0,008
-68,680	13,675	0,098	0,054
-67,665	800,000	-0,051	0,143
-66,651	39,850	-0,024	0,016
-65,636	800,000	0,026	-0,058
-64,622	-41,267	-0,129	-0,048
-63,607	-166,277	-0,209	0,006
-62,592	-32,884	0,145	-0,058
-61,578	800,000	0,043	0,108
-60,563	89,240	0,021	-0,017
-59,549	-200,000	0,005	0,110
-58,534	-3,235	-2,056	-1,025
-57,519	-200,000	-0,226	-0,904
-56,505	-200,000	-1,303	-4,889
-55,490	125,780	0,785	0,711
-54,476	800,000	5,214	11,968
-53,461	-200,000	18,071	294,388
-52,446	800,000	730,821	2247,105
-51,432	538,963	1647,419	2821,203
-50,417	109,020	1636,862	1403,791
-49,403	74,062	1287,761	968,264
-48,388	31,178	1027,865	631,092
-47,373	20,127	989,549	571,125
-46,359	18,167	977,311	557,617
-45,344	15,085	973,343	545,251
-44,330	15,304	971,788	545,074
-43,315	14,784	969,921	542,306
-42,300	14,736	968,857	541,534
-41,286	14,787	967,795	541,085
-40,271	14,750	966,781	540,375
-39,257	14,818	965,949	540,109
-38,242	14,782	965,134	539,516
-37,227	14,739	964,386	538,936
-36,213	14,795	963,402	538,548
-35,198	14,791	962,417	537,962
-34,184	14,763	961,851	537,535
-33,169	14,762	960,713	536,875
-32,154	14,797	959,918	536,522
-31,140	14,737	959,079	535,837
-30,125	14,755	958,313	535,446
-29,111	14,763	957,497	534,995
-28,096	14,795	956,814	534,693
-27,082	14,793	956,141	534,292
-26,067	14,807	955,259	533,821
-25,052	14,797	954,486	533,338
-24,038	14,787	953,740	532,868
-23,023	14,750	953,266	532,462
-22,009	14,776	952,465	532,078
-20,994	14,800	952,012	531,880
-19,979	14,793	951,400	531,495
-18,965	14,790	950,634	531,037
-17,950	14,804	950,137	530,782
-16,936	14,707	949,528	530,112
-15,921	14,716	948,820	529,723
-14,906	14,644	948,255	529,156
-13,892	14,656	947,423	528,711
-12,877	14,659	946,705	528,299
-11,863	14,602	946,275	527,857
-10,848	14,661	945,517	527,598
-9,833	14,744	945,244	527,690
-8,819	14,787	944,496	527,390
-7,804	14,694	944,020	526,806
-6,790	14,697	943,381	526,438
-5,775	14,684	942,640	525,962
-4,760	14,637	942,239	525,568
-3,746	14,677	941,339	525,172
-2,731	14,587	940,680	524,499
-1,717	14,504	940,144	523,917
-0,702	14,476	939,623	523,517
0,313	14,288	938,914	523,319
1,327	17,384	936,459	531,654
2,342	26,046	793,114	473,194
3,356	22,000	459,030	267,654
4,371	-4,799	315,468	155,344
5,386	-8,890	297,274	142,217
6,400	-11,034	291,064	137,099
7,415	-11,124	288,881	135,969
8,429	-11,154	287,519	135,286
9,444	-11,128	286,643	134,888
10,459	-10,947	285,972	134,737
11,473	-10,947	285,421	134,466
12,488	-11,179	284,866	133,966
13,502	-11,097	284,302	133,769
14,517	-11,014	283,889	133,643
15,531	-10,752	283,682	133,788
16,546	-10,632	283,214	133,671
17,561	-10,465	282,781	133,617
18,575	-10,645	282,538	133,316
19,590	-10,803	282,204	132,994
20,604	-10,582	281,952	133,076
21,619	-10,830	281,580	132,650
22,634	-10,711	281,262	132,603
23,648	-10,654	280,820	132,438
24,663	-10,611	280,656	132,390
25,677	-10,728	280,415	132,152
26,692	-10,541	280,131	132,186
27,707	-10,621	279,888	131,982
28,721	-10,737	279,655	131,750
29,736	-10,809	279,365	131,533
30,750	-10,737	278,967	131,402
31,765	-10,809	278,861	131,272
32,780	-10,594	278,507	131,298
33,794	-10,584	278,222	131,162
34,809	-10,725	278,022	130,923
35,823	-10,703	277,813	130,832
36,838	-10,910	277,563	130,508
37,853	-11,039	277,363	130,279
38,867	-10,782	277,018	130,349
39,882	-10,558	276,640	130,371
40,896	-10,817	276,553	130,074
41,911	-10,747	276,302	130,010
42,926	-10,769	275,953	129,814
43,940	-10,735	275,786	129,755
44,955	-10,946	275,468	129,396
45,969	-10,820	275,265	129,407
46,984	-10,963	275,107	129,188
47,999	-11,077	274,653	128,856
49,013	-11,249	274,659	128,686
50,028	-11,145	274,238	128,575
51,042	-11,403	273,957	128,190
52,057	-11,461	273,869	128,083
53,071	-11,312	273,588	128,080
54,086	-11,288	273,553	128,074
55,101	-11,086	273,062	128,021
56,115	-10,932	273,087	128,165
57,130	-10,668	272,820	128,273
58,144	-10,691	272,583	128,129
59,159	-10,670	272,258	127,985
60,174	-10,789	272,204	127,838
61,188	-10,762	271,932	127,723
62,203	-10,863	271,747	127,531
63,217	-10,594	271,562	127,682
64,232	-10,743	271,243	127,383
65,247	-10,791	271,039	127,232
66,261	-10,806	270,736	127,064
67,276	-10,895	270,639	126,925
68,290	-10,924	270,243	126,701
69,305	-11,066	270,048	126,468
70,320	-10,993	269,972	126,489
71,334	-10,710	269,631	126,577
72,349	-10,704	269,498	126,509
73,363	-10,866	269,271	126,243
74,378	-10,686	268,911	126,228
75,393	-10,764	268,894	126,137
76,407	-10,755	268,692	126,039
77,422	-10,768	268,459	125,906
78,436	-10,747	268,223	125,804
79,451	-10,793	267,967	125,631
80,466	-10,623	267,572	125,589
81,480	-10,786	267,425	125,360
82,495	-10,976	267,245	125,092
83,509	-10,903	267,217	125,134
84,524	-10,830	267,046	125,110
85,539	-10,880	266,562	124,826
86,553	-10,972	266,336	124,626
87,568	-10,818	266,240	124,709
88,582	-10,835	265,983	124,562
89,597	-10,927	265,682	124,327
90,611	-10,735	265,621	124,461
91,626	-10,646	265,512	124,480
92,641	-10,651	265,327	124,377
93,655	-10,653	265,141	124,277
94,670	-10,904	264,861	123,909
95,684	-10,752	264,605	123,914
96,699	-10,867	264,582	123,789
97,714	-11,009	264,182	123,464
98,728	-11,022	263,947	123,331
99,743	-10,967	263,888	123,342
100,757	-10,788	263,477	123,299
101,772	-10,930	263,328	123,091
102,787	-10,924	263,150	123,002
103,801	-10,925	262,936	122,890
104,816	-10,703	262,709	122,972
105,830	-10,815	262,626	122,822
106,845	-10,790	262,534	122,790
107,860	-10,851	262,464	122,691
108,874	-11,041	262,133	122,357
109,889	-10,876	261,844	122,358
110,903	-11,066	261,703	122,113
111,918	-11,103	261,301	121,882
112,933	-11,006	261,293	121,953
113,947	-10,822	261,063	121,997
114,962	-10,952	260,909	121,800
115,976	-10,724	260,648	121,868
116,991	-10,860	260,495	121,666
118,006	-10,881	260,408	121,596
119,020	-10,776	260,133	121,549
120,035	-10,809	260,138	121,511
121,049	-10,901	259,845	121,282
122,064	-10,640	259,619	121,396
123,079	-10,961	259,448	121,023
124,093	-10,800	259,223	121,049
125,108	-10,852	258,904	120,843
126,122	-11,043	258,807	120,619
127,137	-11,098	258,503	120,419
128,151	-10,911	258,444	120,544
129,166	-10,997	258,133	120,314
130,181	-11,005	257,943	120,207
131,195	-11,211	257,655	119,883
132,210	-10,993	257,542	120,010
133,224	-10,946	257,355	119,953
134,239	-10,976	257,248	119,866
135,254	-10,902	257,005	119,807
136,268	-11,266	256,881	119,422
137,283	-11,033	256,547	119,459
138,297	-11,162	256,492	119,310
139,312	-11,406	256,198	118,951
140,327	-10,815	256,113	119,413
141,341	-10,466	255,967	119,636
142,356	-10,681	255,748	119,337
143,370	-10,735	255,540	119,183
144,385	-10,419	255,400	119,380
145,400	-10,535	255,152	119,153
146,414	-10,633	255,148	119,056
147,429	-10,731	254,952	118,869
148,443	-10,646	254,798	118,860
149,458	-10,719	254,527	118,661
150,473	-10,832	254,320	118,457
151,487	-10,997	254,107	118,205
152,502	-10,759	253,964	118,332
153,516	-10,535	253,720	118,400
154,531	-10,662	253,596	118,222
155,546	-10,547	253,312	118,179
156,560	-10,743	253,133	117,917
157,575	-11,002	252,994	117,620
158,589	-10,845	252,763	117,636
159,604	-10,707	252,681	117,705
160,619	-10,628	252,798	117,816
161,633	-10,528	252,298	117,658
162,648	-10,470	252,121	117,615
163,662	-10,674	252,024	117,385
164,677	-10,645	251,746	117,270
165,692	-10,856	251,706	117,062
166,706	-10,606	251,600	117,214
167,721	-10,582	251,370	117,117
168,735	-10,548	251,199	117,055
169,750	-10,546	251,018	116,963
170,764	-10,663	250,790	116,747
171,779	-10,437	250,540	116,811
172,794	-10,660	250,495	116,591
173,808	-10,712	250,290	116,441
174,823	-11,095	250,067	116,004
175,837	-11,101	249,813	115,871
176,852	-11,030	249,850	115,938
177,867	-10,645	249,728	116,195
178,881	-10,685	249,425	116,010
179,896	-10,668	249,318	115,964
180,910	-10,522	249,092	115,971
181,925	-10,533	248,825	115,827
182,940	-10,629	248,807	115,729
183,954	-10,846	248,682	115,478
184,969	-10,448	248,440	115,688
185,983	-10,476	248,299	115,589
186,998	-10,587	248,194	115,437
188,013	-10,438	247,963	115,444
189,027	-10,555	247,791	115,256
190,042	-10,534	247,515	115,135
191,056	-10,650	247,230	114,895
192,071	-10,740	247,095	114,747
193,086	-10,856	246,811	114,509
194,100	-10,764	246,742	114,543
195,115	-10,661	246,619	114,561
196,129	-10,787	246,480	114,382
197,144	-10,672	246,231	114,351
198,159	-10,893	246,051	114,075
199,173	-10,646	245,856	114,178
200,188	-11,296	245,550	113,489
201,202	-11,305	245,165	113,294
202,217	-11,297	245,051	113,238
203,232	-11,273	244,984	113,217
204,246	-11,476	244,702	112,909
205,261	-12,434	244,064	111,817
206,275	-13,215	243,759	111,027
207,290	-8,766	245,603	115,531
208,304	-0,565	248,267	123,600
209,319	3,486	249,468	127,562
210,334	4,518	249,310	128,327
211,348	4,616	249,418	128,453
212,363	4,776	249,226	128,475
213,377	4,894	249,113	128,504
214,392	4,995	248,934	128,484
215,407	4,780	248,997	128,326
216,421	4,868	248,724	128,247
217,436	4,893	248,454	128,117
218,450	4,711	248,539	127,999
219,465	4,751	248,364	127,931
220,480	4,665	248,002	127,661
221,494	4,625	247,882	127,555
222,509	4,588	247,641	127,390
223,523	4,439	247,391	127,127
224,538	4,070	247,171	126,699
225,553	4,045	246,964	126,561
226,567	4,070	246,826	126,500
227,582	3,930	246,727	126,323
228,596	3,942	246,550	126,231
229,611	4,069	246,293	126,192
230,626	3,739	246,198	125,861
231,640	3,844	245,990	125,830
232,655	4,019	245,846	125,888
233,669	3,983	245,547	125,695
234,684	3,775	245,480	125,479
235,699	3,830	245,510	125,528
236,713	4,232	245,267	125,720
237,728	4,140	245,082	125,540
238,742	3,941	245,017	125,333
239,757	3,865	244,788	125,143
240,772	3,858	244,545	125,001
241,786	3,683	244,550	124,851
242,801	3,850	244,162	124,777
243,815	3,920	244,061	124,771
244,830	3,870	243,950	124,663
245,844	3,748	243,870	124,512
246,859	3,977	243,546	124,521
247,874	4,220	243,245	124,552
248,888	4,130	243,344	124,519
249,903	4,069	242,995	124,280
250,917	4,195	242,935	124,340
251,932	4,063	242,930	124,219
252,947	4,385	242,662	124,331
253,961	4,199	242,581	124,129
254,976	4,042	242,249	123,822
255,990	4,234	242,096	123,887
257,005	4,030	242,156	123,742
258,020	4,073	241,932	123,651
259,034	3,835	241,857	123,411
260,049	4,022	241,552	123,394
261,063	3,757	241,370	123,077
262,078	3,810	241,158	123,001
263,093	4,031	241,153	123,164
264,107	4,153	240,933	123,139
265,122	4,038	240,719	122,926
266,136	3,904	240,564	122,729
267,151	4,262	240,616	123,031
268,166	3,939	240,232	122,566
269,180	3,595	240,164	122,247
270,195	4,119	240,098	122,619
271,209	4,471	239,801	122,737
272,224	4,108	239,619	122,344
273,239	3,685	239,585	121,979
274,253	3,970	239,431	122,117
275,268	3,945	239,336	122,037
276,282	4,002	239,032	121,917
277,297	3,910	238,833	121,731
278,312	3,930	238,810	121,724
279,326	4,076	238,589	121,717
280,341	3,939	238,409	121,505
281,355	4,014	238,276	121,486
282,370	4,336	238,268	121,726
283,384	4,223	238,039	121,509
284,399	3,817	237,933	121,123
285,414	3,862	237,765	121,063
286,428	4,180	237,553	121,194
287,443	3,901	237,469	120,921
288,457	3,927	237,380	120,885
289,472	3,910	237,162	120,750
290,487	3,926	236,956	120,647
291,501	3,700	236,689	120,324
292,516	3,803	236,626	120,361
293,530	3,725	236,568	120,260
294,545	3,921	236,369	120,302
295,560	3,904	236,094	120,138
296,574	3,580	236,015	119,833
297,589	3,787	235,876	119,914
298,603	4,214	235,778	120,186
299,618	3,931	235,600	119,865
300,633	3,892	235,546	119,796
301,647	4,289	235,371	120,006
302,662	4,360	235,252	119,989
303,676	4,195	235,078	119,762
304,691	4,223	234,908	119,686
305,706	4,238	234,663	119,562
306,720	4,420	234,545	119,633
307,735	4,205	234,515	119,440
308,749	4,150	234,371	119,313
309,764	3,734	234,254	118,921
310,779	3,622	233,891	118,639
311,793	3,798	233,604	118,619
312,808	3,552	233,603	118,418
313,822	4,070	233,548	118,779
314,837	4,375	233,333	118,895
315,852	4,044	233,139	118,530
316,866	4,125	233,053	118,538
317,881	4,032	233,002	118,430
318,895	3,973	232,907	118,326
319,910	4,188	232,824	118,438
320,925	4,181	232,462	118,238
321,939	3,960	232,361	118,007
322,954	3,880	232,328	117,918
323,968	4,034	232,091	117,906
324,983	4,150	231,889	117,881
325,997	4,439	231,879	118,087
327,012	4,253	231,668	117,827
328,027	4,345	231,396	117,748
329,041	4,108	231,389	117,553
330,056	4,208	231,348	117,598
331,070	4,326	231,087	117,545
332,085	4,093	230,934	117,279
333,100	4,103	230,735	117,175
334,114	4,165	230,499	117,092
335,129	4,080	230,384	116,958
336,143	4,165	230,347	116,994
337,158	4,238	230,191	116,960
338,173	4,229	230,041	116,866
339,187	4,143	229,769	116,652
340,202	4,097	229,744	116,595
341,216	4,173	229,566	116,551
342,231	4,047	229,282	116,302
343,246	4,097	229,187	116,280
344,260	4,309	229,122	116,397
345,275	4,282	228,951	116,280
346,289	4,094	228,840	116,071
347,304	4,198	228,646	116,041
348,319	4,066	228,619	115,917
349,333	4,035	228,447	115,796
350,348	3,901	228,297	115,609
351,362	4,162	228,090	115,690
352,377	4,065	227,887	115,505
353,392	4,058	227,724	115,407
354,406	3,592	227,537	114,952
355,421	194,964	1319,996	1393,985
356,435	156,312	1453,079	1393,971
