DTS Sentinel unit serial number:	SN410029Multiplexer serial number:	ORYXHardware model number:	OX2-SRSoftware version number:	ORYX F/W v4,00 Oryx Data Collector v3.7.2.0data status	okinstallation	B5 Nyhavnadifferential loss correction	single-endedforward channel	channel 2reverse channel	N/Adate	2023/12/12time	07:02:13forward acquisition time	300,00reverse acquisition time	0,00gamma	499,1914k internal	0,3157k external	0,3157temperature offset calibration	1,0000default loss term (dB/km)	0,3820temperature slope calibration	1,0000multiplexer offset coefficient	1,0000multiplexer slope coefficient	1,0000fibre end	0,00T internal ref (°C)	15,19T ext. ref 1 (°C)	-1,12T ext. ref 2 (°C)	-1,40length (m)	temperature (°C)	Stokes	anti-Stokes-744,400	268,297	0,067	-0,087
-743,385	-119,050	-0,333	0,042
-742,371	-200,000	0,049	0,205
-741,356	-177,831	-0,241	-0,004
-740,342	-200,000	0,011	0,091
-739,327	2,361	-0,277	0,147
-738,312	30,494	0,056	0,035
-737,298	-107,494	-0,333	-0,053
-736,283	800,000	-0,009	-0,025
-735,269	-100,141	-0,153	0,028
-734,254	138,437	0,164	-0,159
-733,239	-26,127	-0,500	-0,216
-732,225	-20,871	0,127	0,057
-731,210	516,904	-0,055	0,095
-730,196	800,000	-0,015	0,044
-729,181	227,190	-0,049	0,058
-728,167	575,742	0,036	-0,065
-727,152	362,963	-0,062	0,092
-726,137	-105,965	-0,125	0,021
-725,123	208,279	-0,106	-0,122
-724,108	245,467	-0,099	-0,123
-723,094	-200,000	-0,016	-0,115
-722,079	-87,851	-0,178	-0,039
-721,064	46,435	0,052	-0,035
-720,050	-200,000	-0,012	-0,116
-719,035	-16,276	-0,124	0,058
-718,021	176,706	0,054	-0,057
-717,006	-200,000	-0,036	-0,132
-715,991	295,909	0,064	-0,086
-714,977	53,733	-0,087	-0,061
-713,962	494,342	-0,091	0,154
-712,948	101,460	-0,074	-0,064
-711,933	-39,016	0,070	-0,027
-710,918	-200,000	0,013	-0,088
-709,904	-200,000	0,004	-0,134
-708,889	-200,000	0,009	-0,161
-707,875	-137,400	0,034	0,003
-706,860	124,442	0,154	-0,143
-705,845	-200,000	-0,001	-0,182
-704,831	-200,000	-0,024	0,114
-703,816	267,055	-0,108	0,139
-702,802	181,011	-0,054	0,058
-701,787	-117,181	0,096	-0,013
-700,772	-79,570	-0,100	-0,025
-699,758	-200,000	0,004	-0,095
-698,743	800,000	0,014	0,036
-697,729	800,000	-0,042	-0,096
-696,714	217,286	0,037	0,043
-695,699	-48,929	-0,049	-0,017
-694,685	-119,262	0,054	0,007
-693,670	238,907	0,085	-0,104
-692,656	547,371	0,019	0,034
-691,641	-200,000	-0,018	0,112
-690,627	-200,000	0,027	-0,132
-689,612	-98,141	0,121	0,023
-688,597	-2,566	-0,110	0,057
-687,583	412,167	-0,055	-0,086
-686,568	-200,000	0,001	0,109
-685,554	-32,565	-0,183	0,075
-684,539	800,000	0,041	0,089
-683,524	84,707	-0,097	0,078
-682,510	-43,120	-0,050	-0,018
-681,495	190,253	-0,063	0,070
-680,481	201,332	-0,043	0,049
-679,466	-100,522	-0,078	0,014
-678,451	689,430	0,044	0,085
-677,437	-39,199	-0,020	0,008
-676,422	800,000	0,049	0,141
-675,408	86,467	0,023	0,019
-674,393	800,000	0,030	-0,071
-673,378	687,561	-0,089	-0,173
-672,364	-51,370	-0,167	-0,057
-671,349	670,012	0,015	-0,029
-670,335	-200,000	0,012	-0,069
-669,320	800,000	0,012	0,026
-668,305	-80,199	-0,036	0,009
-667,291	39,924	0,029	-0,019
-666,276	-200,000	0,014	-0,049
-665,262	-26,023	0,055	-0,024
-664,247	0,271	-0,199	-0,104
-663,232	-2,973	-0,127	0,065
-662,218	-9,457	0,039	0,019
-661,203	175,480	-0,013	0,014
-660,189	800,000	-0,034	-0,090
-659,174	-40,258	0,061	0,023
-658,159	-200,000	0,011	-0,064
-657,145	-200,000	-0,005	-0,171
-656,130	-200,000	0,008	-0,045
-655,116	-117,737	-0,051	-0,007
-654,101	73,408	0,065	0,050
-653,086	-200,000	-0,008	-0,092
-652,072	-47,141	-0,058	0,021
-651,057	543,696	-0,107	-0,188
-650,043	135,683	-0,124	-0,118
-649,028	279,389	-0,021	0,028
-648,014	-65,360	0,053	0,016
-646,999	-73,518	-0,099	0,026
-645,984	-200,000	-0,017	-0,100
-644,970	800,000	-0,038	-0,118
-643,955	-10,737	-0,043	-0,021
-642,941	-114,409	-0,159	-0,022
-641,926	-22,703	-0,079	-0,035
-640,911	2,835	0,026	-0,014
-639,897	-200,000	-0,007	0,036
-638,882	-38,455	-0,030	-0,011
-637,868	-83,001	-0,101	0,024
-636,853	-112,460	0,143	-0,021
-635,838	-77,302	0,116	0,029
-634,824	253,072	-0,135	-0,170
-633,809	-40,223	0,136	0,052
-632,795	-200,000	0,026	-0,103
-631,780	-9,311	-0,107	0,053
-630,765	-193,679	-0,175	0,001
-629,751	-46,198	-0,050	0,018
-628,736	33,272	-0,194	0,124
-627,722	800,000	0,045	0,109
-626,707	800,000	-0,020	-0,066
-625,692	33,733	-0,019	0,012
-624,678	4,140	-0,151	-0,081
-623,663	225,716	-0,044	0,052
-622,649	-91,396	-0,102	-0,021
-621,634	-36,437	-0,115	0,045
-620,619	261,174	-0,040	0,051
-619,605	311,077	0,095	0,130
-618,590	-166,568	0,123	-0,004
-617,576	800,000	-0,009	-0,024
-616,561	800,000	-0,031	0,079
-615,546	96,600	0,031	-0,026
-614,532	117,690	-0,171	-0,155
-613,517	-200,000	-0,004	-0,036
-612,503	721,132	0,049	0,095
-611,488	-160,719	-0,137	-0,005
-610,474	66,311	0,073	0,055
-609,459	800,000	0,045	-0,109
-608,444	-153,411	0,034	0,002
-607,430	800,000	-0,012	-0,037
-606,415	125,724	-0,131	-0,122
-605,401	800,000	0,026	-0,082
-604,386	13,467	-0,014	0,008
-603,371	-52,747	-0,073	0,025
-602,357	39,688	-0,038	0,025
-601,342	800,000	-0,005	0,015
-600,328	171,880	0,008	-0,008
-599,313	-200,000	0,005	-0,020
-598,298	66,229	0,096	0,071
-597,284	239,851	0,040	0,049
-596,269	800,000	-0,011	-0,028
-595,255	-200,000	0,004	0,076
-594,240	148,940	-0,074	-0,073
-593,225	51,976	-0,114	-0,080
-592,211	141,081	-0,095	-0,092
-591,196	800,000	-0,045	-0,144
-590,182	-50,757	0,035	0,012
-589,167	203,155	0,042	-0,048
-588,152	326,744	0,011	0,015
-587,138	-99,236	-0,102	0,019
-586,123	-55,233	-0,031	0,010
-585,109	-200,000	-0,141	0,000
-584,094	-59,618	-0,038	0,012
-583,079	689,489	0,035	-0,067
-582,065	-20,557	-0,042	-0,019
-581,050	55,607	-0,054	0,038
-580,036	800,000	-0,024	-0,063
-579,021	-200,000	0,225	-0,000
-578,006	-200,000	-0,017	-0,143
-576,992	34,519	-0,122	-0,078
-575,977	-78,992	-0,072	0,018
-574,963	1,911	0,109	0,057
-573,948	458,168	0,046	-0,075
-572,934	-183,499	-0,111	-0,001
-571,919	-200,000	-0,006	-0,029
-570,904	18,318	-0,075	0,044
-569,890	75,337	0,005	0,004
-568,875	-78,922	0,056	0,014
-567,861	1,524	0,112	0,059
-566,846	89,828	-0,022	0,018
-565,831	279,914	0,155	0,203
-564,817	139,731	-0,085	-0,082
-563,802	-200,000	-0,004	-0,142
-562,788	-200,000	-0,042	-0,148
-561,773	14,505	-0,061	-0,035
-560,758	212,329	-0,081	-0,093
-559,744	-200,000	-0,003	-0,027
-558,729	-200,000	-0,030	-0,115
-557,715	800,000	0,036	-0,094
-556,700	152,642	-0,067	-0,067
-555,685	-106,547	-0,183	0,030
-554,671	-58,274	0,094	0,030
-553,656	-200,000	-0,019	0,250
-552,642	-3,521	-0,055	0,028
-551,627	-200,000	0,008	0,132
-550,612	397,288	-0,073	-0,112
-549,598	301,803	-0,060	-0,081
-548,583	-182,491	0,030	-0,000
-547,569	288,156	0,049	0,065
-546,554	142,433	0,035	-0,034
-545,539	240,570	0,077	-0,094
-544,525	-7,965	-0,052	-0,025
-543,510	-200,000	-0,004	-0,036
-542,496	-104,725	-0,249	0,042
-541,481	-200,000	0,005	-0,077
-540,466	35,368	0,105	-0,067
-539,452	29,371	-0,073	-0,046
-538,437	-8,146	0,078	0,038
-537,423	800,000	-0,011	0,025
-536,408	-200,000	0,008	-0,037
-535,393	-200,000	0,012	0,068
-534,379	27,075	0,056	-0,034
-533,364	-148,443	-0,119	0,007
-532,350	-200,000	-0,018	0,088
-531,335	-200,000	-0,008	-0,046
-530,321	-79,481	-0,005	0,001
-529,306	-123,832	-0,081	-0,009
-528,291	117,360	0,055	-0,049
-527,277	338,951	-0,061	-0,087
-526,262	-200,000	-0,037	0,136
-525,248	21,416	0,060	0,035
-524,233	-200,000	0,009	0,156
-523,218	-153,447	0,134	0,007
-522,204	-57,243	-0,098	-0,031
-521,189	-200,000	0,008	-0,077
-520,175	29,600	-0,108	-0,067
-519,160	800,000	-0,057	-0,116
-518,145	-72,900	-0,082	0,022
-517,131	14,268	0,030	0,017
-516,116	673,699	0,013	-0,026
-515,102	-90,411	0,053	0,011
-514,087	-135,006	-0,113	-0,010
-513,072	-76,728	0,009	-0,002
-512,058	-98,307	-0,111	0,021
-511,043	-91,182	0,069	-0,014
-510,029	24,432	0,137	0,083
-509,014	800,000	0,040	0,108
-507,999	-200,000	-0,011	0,127
-506,985	800,000	-0,078	-0,163
-505,970	-112,172	-0,042	-0,006
-504,956	394,348	0,041	-0,063
-503,941	399,236	-0,064	-0,098
-502,926	209,381	-0,146	0,168
-501,912	-9,835	0,050	-0,024
-500,897	234,472	-0,110	-0,133
-499,883	507,967	-0,031	-0,054
-498,868	-200,000	0,000	-0,043
-497,853	467,953	-0,043	-0,071
-496,839	386,331	-0,055	0,083
-495,824	97,441	0,170	0,142
-494,810	-200,000	-0,025	0,101
-493,795	114,285	0,081	-0,072
-492,781	134,292	0,063	-0,060
-491,766	-49,970	-0,065	0,022
-490,751	800,000	0,038	-0,086
-489,737	699,628	-0,040	-0,076
-488,722	143,539	0,044	-0,043
-487,708	347,570	0,026	0,037
-486,693	508,181	-0,056	-0,095
-485,678	242,177	0,035	-0,043
-484,664	-200,000	-0,007	-0,079
-483,649	-110,911	-0,101	0,015
-482,635	111,909	0,015	-0,013
-481,620	-200,000	0,001	-0,029
-480,605	800,000	-0,042	0,125
-479,591	-16,621	0,007	0,003
-478,576	-182,796	0,102	-0,001
-477,562	-200,000	0,005	-0,055
-476,547	800,000	-0,020	-0,050
-475,532	-6,761	0,080	0,040
-474,518	-200,000	0,009	-0,071
-473,503	111,873	-0,053	0,046
-472,489	14,368	0,057	0,032
-471,474	-93,208	-0,065	-0,013
-470,459	56,106	0,017	0,012
-469,445	-200,000	-0,021	-0,115
-468,430	-20,890	-0,161	0,071
-467,416	363,269	0,058	0,086
-466,401	-200,000	-0,025	0,099
-465,386	-64,459	0,054	0,016
-464,372	-34,513	-0,076	-0,030
-463,357	-200,000	-0,011	-0,058
-462,343	33,430	-0,179	-0,113
-461,328	-200,000	-0,027	0,088
-460,313	29,334	-0,110	0,068
-459,299	211,477	0,148	0,170
-458,284	194,342	0,067	0,074
-457,270	293,812	0,052	0,069
-456,255	-56,672	0,060	0,019
-455,241	-200,000	-0,003	0,066
-454,226	50,609	-0,052	-0,036
-453,211	90,120	0,062	0,050
-452,197	212,326	0,027	0,031
-451,182	711,884	0,010	-0,020
-450,168	-184,039	-0,035	0,000
-449,153	68,048	-0,028	-0,021
-448,138	91,760	-0,090	0,073
-447,124	-200,000	0,042	-0,148
-446,109	-43,394	-0,164	0,060
-445,095	-122,850	0,081	-0,009
-444,080	-200,000	-0,010	-0,102
-443,065	-94,550	0,061	-0,012
-442,051	780,344	-0,051	0,102
-441,036	800,000	-0,060	-0,170
-440,022	-200,000	-0,011	0,035
-439,007	-100,307	0,104	0,019
-437,992	83,608	0,092	0,073
-436,978	462,243	0,037	-0,060
-435,963	233,533	0,074	0,089
-434,949	800,000	-0,032	0,082
-433,934	-18,895	-0,081	-0,036
-432,919	40,860	0,154	0,101
-431,905	104,331	-0,028	0,024
-430,890	-200,000	-0,003	0,023
-429,876	331,011	0,077	0,109
-428,861	-136,470	0,148	-0,012
-427,846	-8,430	0,052	0,025
-426,832	19,916	0,082	-0,048
-425,817	800,000	-0,020	-0,051
-424,803	408,986	0,073	-0,113
-423,788	74,118	0,054	0,041
-422,773	800,000	-0,009	0,025
-421,759	108,976	-0,005	-0,004
-420,744	182,968	-0,073	0,078
-419,730	32,187	0,051	-0,032
-418,715	111,425	0,033	-0,029
-417,701	268,736	0,047	0,060
-416,686	-200,000	0,002	0,108
-415,671	800,000	-0,045	0,128
-414,657	-64,918	0,111	0,033
-413,642	181,627	0,039	-0,041
-412,628	-200,000	0,017	-0,164
-411,613	-4,841	-0,066	0,033
-410,598	-100,555	-0,031	-0,005
-409,584	260,713	-0,008	-0,010
-408,569	389,584	-0,050	0,076
-407,555	552,616	-0,043	0,076
-406,540	84,334	-0,067	0,054
-405,525	-87,507	0,148	-0,032
-404,511	312,946	0,009	0,012
-403,496	88,420	0,077	-0,062
-402,482	-47,477	-0,084	-0,029
-401,467	800,000	0,050	-0,136
-400,452	-101,936	0,184	-0,032
-399,438	128,378	0,008	-0,007
-398,423	-200,000	-0,012	-0,077
-397,409	218,158	0,024	-0,028
-396,394	800,000	-0,037	-0,100
-395,379	157,836	0,070	0,070
-394,365	-200,000	0,003	-0,075
-393,350	336,199	-0,040	0,056
-392,336	-200,000	0,017	0,068
-391,321	448,688	0,033	-0,052
-390,306	800,000	0,015	-0,036
-389,292	34,924	-0,091	-0,058
-388,277	9,023	0,093	0,051
-387,263	119,189	0,029	-0,026
-386,248	-200,000	0,005	0,077
-385,233	398,952	0,042	-0,064
-384,219	92,485	0,106	-0,087
-383,204	-200,000	0,016	-0,068
-382,190	800,000	-0,003	0,009
-381,175	24,569	-0,023	0,014
-380,160	-60,706	0,074	0,023
-379,146	-200,000	-0,007	0,034
-378,131	-200,000	-0,007	0,045
-377,117	124,846	0,078	-0,072
-376,102	48,460	0,129	0,088
-375,088	-128,906	0,086	-0,009
-374,073	-34,048	0,027	0,011
-373,058	-200,000	0,011	-0,126
-372,044	29,663	-0,004	0,002
-371,029	-3,450	-0,027	0,014
-370,015	-6,047	0,033	0,016
-369,000	-200,000	-0,011	0,063
-367,985	127,160	0,090	-0,083
-366,971	-114,992	0,171	-0,023
-365,956	57,611	0,080	-0,057
-364,942	800,000	0,034	0,078
-363,927	-200,000	0,005	0,115
-362,912	735,497	-0,052	0,102
-361,898	-200,000	0,004	0,102
-360,883	-200,000	0,012	-0,069
-359,869	800,000	-0,029	-0,067
-358,854	-21,538	-0,082	-0,036
-357,839	-200,000	-0,007	0,102
-356,825	-29,504	0,092	0,038
-355,810	800,000	0,031	-0,093
-354,796	-36,083	-0,098	-0,038
-353,781	548,249	-0,063	0,111
-352,766	-74,352	-0,078	0,020
-351,752	185,302	-0,032	0,034
-350,737	-200,000	0,001	0,009
-349,723	-74,435	0,116	-0,030
-348,708	-200,000	-0,018	0,097
-347,693	-200,000	0,035	-0,127
-346,679	-71,153	-0,054	0,015
-345,664	-200,000	0,022	0,111
-344,650	157,007	-0,088	-0,088
-343,635	800,000	0,006	0,015
-342,620	-200,000	-0,008	0,059
-341,606	560,237	0,013	0,022
-340,591	-200,000	0,049	0,000
-339,577	-83,487	-0,109	-0,025
-338,562	-67,976	0,030	-0,008
-337,548	800,000	-0,059	-0,130
-336,533	-34,408	0,210	0,083
-335,518	79,007	-0,140	0,109
-334,504	564,745	0,069	0,121
-333,489	-153,105	0,008	-0,000
-332,475	-75,649	-0,046	-0,012
-331,460	-41,693	-0,101	-0,037
-330,445	209,269	0,084	-0,096
-329,431	120,244	0,050	-0,045
-328,416	800,000	0,041	0,086
-327,402	753,985	0,019	0,037
-326,387	-3,277	-0,052	-0,026
-325,372	-154,284	-0,039	0,002
-324,358	-200,000	-0,065	-0,255
-323,343	-200,000	0,013	-0,104
-322,329	800,000	0,019	0,040
-321,314	-73,365	0,038	-0,010
-320,299	-178,653	0,094	-0,002
-319,285	-200,000	-0,012	-0,059
-318,270	-200,000	-0,004	-0,161
-317,256	-200,000	-0,005	0,137
-316,241	-64,961	0,059	-0,017
-315,226	-154,724	-0,104	0,005
-314,212	122,348	-0,036	-0,033
-313,197	384,099	0,065	0,097
-312,183	-152,624	0,176	-0,009
-311,168	48,494	-0,074	-0,050
-310,153	-200,000	-0,012	-0,115
-309,139	-200,000	-0,019	0,134
-308,124	-200,000	0,033	-0,130
-307,110	143,925	0,122	0,118
-306,095	42,650	-0,153	0,101
-305,080	-136,970	-0,059	-0,005
-304,066	-144,173	0,045	0,003
-303,051	193,919	-0,041	0,045
-302,037	290,435	0,018	0,023
-301,022	-50,645	-0,070	0,024
-300,008	-99,345	0,066	0,012
-298,993	448,665	0,049	-0,078
-297,978	146,846	0,079	0,077
-296,964	800,000	-0,042	0,095
-295,949	-199,313	-0,083	0,000
-294,935	-200,000	0,015	-0,123
-293,920	647,555	0,053	-0,098
-292,905	-200,000	0,008	0,056
-291,891	185,300	0,098	0,105
-290,876	408,420	-0,069	0,106
-289,862	648,162	-0,034	0,063
-288,847	248,363	0,074	0,091
-287,832	-41,903	-0,047	-0,017
-286,818	-200,000	0,004	-0,083
-285,803	168,500	-0,060	0,062
-284,789	273,632	0,139	0,178
-283,774	-141,294	0,196	0,014
-282,759	-53,939	0,059	-0,019
-281,745	-200,000	0,009	-0,087
-280,730	251,462	-0,059	-0,072
-279,716	-41,678	0,184	-0,068
-278,701	-111,539	-0,096	0,014
-277,686	-130,657	0,200	0,019
-276,672	800,000	-0,065	0,150
-275,657	-133,548	0,100	-0,009
-274,643	-22,458	-0,104	-0,046
-273,628	-200,000	0,005	-0,017
-272,613	-176,972	-0,113	-0,002
-271,599	-149,072	0,117	0,007
-270,584	135,654	0,090	-0,085
-269,570	-9,691	0,061	-0,029
-268,555	-200,000	-0,021	-0,106
-267,540	-200,000	0,003	-0,082
-266,526	-58,849	-0,102	0,032
-265,511	39,219	0,046	0,030
-264,497	-78,427	0,051	0,013
-263,482	-27,657	0,205	0,086
-262,467	-200,000	0,010	-0,038
-261,453	77,283	0,090	0,069
-260,438	-169,045	0,101	-0,003
-259,424	800,000	-0,012	-0,035
-258,409	99,742	-0,034	0,029
-257,395	12,309	-0,119	0,066
-256,380	-188,610	0,079	0,001
-255,365	800,000	-0,040	0,102
-254,351	61,323	0,138	0,099
-253,336	-77,394	-0,096	0,024
-252,322	-200,000	-0,014	-0,135
-251,307	540,677	0,044	0,076
-250,292	-1,064	0,071	0,036
-249,278	-18,129	-0,035	-0,016
-248,263	171,274	0,069	0,072
-247,249	-200,000	0,038	0,139
-246,234	196,499	-0,105	-0,116
-245,219	-200,000	0,000	-0,059
-244,205	-124,979	-0,010	0,001
-243,190	800,000	0,018	0,047
-242,176	-200,000	-0,004	0,059
-241,161	-69,710	-0,044	-0,012
-240,146	-65,895	0,110	0,032
-239,132	-164,753	-0,128	0,004
-238,117	292,375	-0,083	0,109
-237,103	800,000	-0,019	-0,059
-236,088	800,000	0,055	-0,120
-235,073	-200,000	-0,024	0,188
-234,059	224,113	0,062	0,073
-233,044	-18,678	0,104	0,047
-232,030	800,000	0,038	-0,084
-231,015	-89,020	-0,154	-0,033
-230,000	-72,206	0,030	-0,008
-228,986	485,818	-0,026	-0,043
-227,971	-80,748	0,076	-0,018
-226,957	-13,565	0,054	0,025
-225,942	800,000	0,053	0,133
-224,927	-200,000	-0,025	-0,124
-223,913	-200,000	0,027	-0,100
-222,898	-200,000	-0,022	-0,129
-221,884	-130,272	0,064	0,006
-220,869	205,835	0,034	0,038
-219,855	36,191	-0,037	-0,024
-218,840	800,000	0,083	0,174
-217,825	-200,000	-0,003	0,014
-216,811	366,522	-0,042	-0,061
-215,796	-200,000	-0,003	-0,127
-214,782	366,268	0,057	-0,084
-213,767	-64,482	0,093	-0,027
-212,752	414,619	0,121	0,187
-211,738	102,328	-0,079	-0,067
-210,723	213,449	0,041	0,047
-209,709	-59,839	-0,189	-0,058
-208,694	-108,835	-0,019	0,003
-207,679	-50,489	0,114	-0,039
-206,665	-200,000	-0,010	0,103
-205,650	-200,000	0,026	0,120
-204,636	-200,000	0,001	0,086
-203,621	37,233	0,082	0,052
-202,606	87,833	-0,129	0,103
-201,592	-35,556	-0,046	0,018
-200,577	-104,686	-0,086	-0,014
-199,563	-200,000	0,005	-0,108
-198,548	-107,726	0,062	-0,010
-197,533	-200,000	0,067	0,241
-196,519	-200,000	0,008	0,178
-195,504	20,315	-0,119	-0,069
-194,490	135,090	-0,083	-0,078
-193,475	-200,000	-0,011	-0,096
-192,460	235,777	-0,034	-0,041
-191,446	133,314	0,052	0,049
-190,431	55,561	0,099	0,069
-189,417	800,000	0,043	0,123
-188,402	105,338	0,024	0,020
-187,387	-12,703	-0,148	-0,069
-186,373	121,705	-0,060	-0,054
-185,358	590,444	0,146	0,260
-184,344	-33,761	-0,068	0,027
-183,329	-200,000	-0,130	0,000
-182,315	-148,710	0,082	0,005
-181,300	-200,000	-0,008	-0,036
-180,285	704,191	-0,044	0,085
-179,271	144,218	-0,064	0,061
-178,256	-200,000	0,005	0,057
-177,242	-200,000	0,007	-0,047
-176,227	-200,000	-0,013	0,050
-175,212	45,537	-0,029	-0,019
-174,198	-19,641	0,172	0,076
-173,183	-98,702	-0,114	-0,021
-172,169	615,532	-0,004	0,008
-171,154	-58,636	0,071	-0,022
-170,139	-200,000	-0,024	0,126
-169,125	-200,000	0,020	0,107
-168,110	-60,081	0,142	0,043
-167,096	-147,680	0,045	-0,003
-166,081	800,000	-0,068	-0,179
-165,066	-200,000	0,018	-0,137
-164,052	322,902	-0,089	-0,122
-163,037	-25,981	0,054	-0,023
-162,023	-200,000	-0,010	-0,097
-161,008	-200,000	-0,018	-0,254
-159,993	22,987	0,084	-0,050
-158,979	112,321	-0,044	-0,039
-157,964	-56,192	0,118	-0,038
-156,950	150,541	-0,089	0,087
-155,935	-60,532	-0,112	0,034
-154,920	110,020	-0,062	0,054
-153,906	-133,706	0,040	0,004
-152,891	138,266	-0,130	-0,123
-151,877	529,152	0,029	-0,049
-150,862	259,686	-0,067	0,083
-149,847	66,524	-0,131	-0,096
-148,833	-200,000	0,013	0,079
-147,818	-152,402	0,135	0,007
-146,804	55,339	-0,091	0,063
-145,789	800,000	-0,043	-0,105
-144,775	-115,298	0,124	0,017
-143,760	575,361	0,030	-0,052
-142,745	470,130	-0,057	-0,093
-141,731	-200,000	-0,023	0,092
-140,716	800,000	-0,072	0,149
-139,702	-200,000	-0,021	-0,126
-138,687	115,250	-0,060	-0,053
-137,672	-200,000	0,020	-0,094
-136,658	184,823	-0,032	0,034
-135,643	3,840	0,118	0,062
-134,629	-200,000	-0,000	0,022
-133,614	180,395	-0,207	0,219
-132,599	800,000	0,048	0,127
-131,585	162,642	0,038	-0,038
-130,570	-120,853	0,047	0,006
-129,556	-110,454	-0,189	-0,028
-128,541	-109,525	-0,144	0,022
-127,526	107,794	-0,053	-0,046
-126,512	45,356	-0,063	-0,042
-125,497	800,000	-0,005	0,017
-124,483	-72,803	-0,038	-0,010
-123,468	352,321	-0,027	-0,039
-122,453	-200,000	-0,029	-0,151
-121,439	800,000	-0,037	-0,078
-120,424	694,960	-0,052	-0,099
-119,410	-200,000	0,002	-0,108
-118,395	-179,400	0,060	-0,001
-117,380	-200,000	-0,018	0,073
-116,366	-52,700	-0,143	0,047
-115,351	-200,000	-0,092	0,000
-114,337	259,682	-0,074	-0,092
-113,322	-116,497	0,075	0,010
-112,307	-16,687	0,186	0,084
-111,293	14,478	0,049	-0,027
-110,278	-33,634	-0,114	0,045
-109,264	-11,022	-0,245	0,116
-108,249	-77,238	-0,046	-0,011
-107,234	-16,422	-0,046	0,021
-106,220	539,211	0,015	-0,026
-105,205	-200,000	0,002	-0,039
-104,191	43,466	0,105	-0,069
-103,176	72,836	0,081	0,061
-102,162	30,541	0,081	-0,050
-101,147	94,123	-0,060	-0,049
-100,132	134,271	-0,100	0,094
-99,118	-0,198	-0,099	0,051
-98,103	31,619	-0,093	-0,058
-97,089	142,487	0,035	0,033
-96,074	800,000	0,019	-0,042
-95,059	800,000	-0,074	0,161
-94,045	-69,183	-0,044	-0,012
-93,030	130,514	0,042	0,039
-92,016	-200,000	-0,011	-0,052
-91,001	-200,000	0,010	0,080
-89,986	26,395	0,145	0,087
-88,972	-200,000	0,005	0,050
-87,957	-80,097	0,067	0,016
-86,943	181,480	-0,055	-0,058
-85,928	524,840	0,011	0,018
-84,913	-162,733	-0,094	-0,003
-83,899	-200,000	-0,012	-0,078
-82,884	-126,162	0,069	0,007
-81,870	-45,347	0,071	-0,025
-80,855	-200,000	0,052	0,000
-79,840	109,190	-0,081	0,069
-78,826	-68,249	-0,125	-0,035
-77,811	602,872	-0,039	-0,070
-76,797	132,847	0,053	0,049
-75,782	526,154	-0,029	0,050
-74,767	-55,483	0,081	0,026
-73,753	424,737	-0,086	0,133
-72,738	245,897	-0,083	-0,101
-71,724	-84,799	-0,181	-0,041
-70,709	767,580	-0,021	-0,041
-69,694	-200,000	-0,001	-0,077
-68,680	154,766	-0,102	0,101
-67,665	408,046	0,071	-0,108
-66,651	800,000	0,049	0,150
-65,636	800,000	-0,033	0,079
-64,622	-47,130	-0,089	-0,031
-63,607	-72,906	-0,070	0,018
-62,592	176,816	0,073	-0,077
-61,578	-200,000	0,003	0,048
-60,563	695,625	0,086	0,163
-59,549	-20,245	-0,110	0,048
-58,534	-5,044	-2,021	-0,995
-57,519	800,000	-0,345	-0,913
-56,505	-200,000	-1,327	-4,916
-55,490	44,097	0,657	0,432
-54,476	800,000	5,436	12,256
-53,461	-200,000	17,711	286,681
-52,446	800,000	728,569	2222,529
-51,432	535,980	1644,372	2811,436
-50,417	110,021	1634,778	1407,707
-49,403	76,051	1286,675	976,036
-48,388	32,010	1027,553	634,139
-47,373	20,181	989,402	571,593
-46,359	18,469	977,155	558,883
-45,344	15,558	973,101	547,019
-44,330	15,766	971,525	546,792
-43,315	15,271	969,686	544,119
-42,300	15,220	968,593	543,317
-41,286	15,210	967,522	542,661
-40,271	15,197	966,797	542,191
-39,257	15,239	965,743	541,716
-38,242	15,292	964,802	541,337
-37,227	15,228	964,018	540,668
-36,213	15,186	963,238	540,074
-35,198	15,184	962,302	539,520
-34,184	15,210	961,571	539,174
-33,169	15,155	960,466	538,355
-32,154	15,183	959,744	538,020
-31,140	15,222	958,886	537,644
-30,125	15,285	958,079	537,374
-29,111	15,247	957,208	536,740
-28,096	15,228	956,708	536,379
-27,082	15,235	955,945	535,951
-26,067	15,208	955,211	535,433
-25,052	15,179	954,340	534,828
-24,038	15,215	953,744	534,588
-23,023	15,147	953,143	534,015
-22,009	15,291	952,286	533,972
-20,994	15,229	951,886	533,528
-19,979	15,253	951,130	533,162
-18,965	15,225	950,500	532,698
-17,950	15,226	949,986	532,392
-16,936	15,205	949,166	531,842
-15,921	15,193	948,425	531,370
-14,906	15,132	947,723	530,759
-13,892	15,087	947,292	530,355
-12,877	15,148	946,473	530,067
-11,863	15,085	945,938	529,547
-10,848	15,059	945,606	529,258
-9,833	15,205	944,998	529,360
-8,819	15,196	944,288	528,914
-7,804	15,049	943,811	528,159
-6,790	15,127	943,168	528,025
-5,775	15,166	942,781	527,913
-4,760	15,193	941,916	527,493
-3,746	15,064	941,590	526,879
-2,731	14,979	940,757	526,124
-1,717	14,952	939,980	525,583
-0,702	14,959	939,232	525,167
0,313	14,822	938,499	525,117
1,327	18,196	936,478	534,564
2,342	27,295	793,317	476,920
3,356	24,209	458,145	270,692
4,371	-3,497	314,050	156,143
5,386	-7,478	295,782	143,024
6,400	-9,557	289,696	138,008
7,415	-9,925	287,184	136,437
8,429	-9,984	285,679	135,653
9,444	-10,268	284,968	135,026
10,459	-10,039	284,267	134,905
11,473	-10,094	283,613	134,529
12,488	-10,060	283,112	134,312
13,502	-10,139	282,649	134,004
14,517	-9,993	282,161	133,902
15,531	-10,070	281,638	133,568
16,546	-9,942	281,424	133,577
17,561	-10,151	281,035	133,180
18,575	-10,052	280,688	133,098
19,590	-10,165	280,247	132,769
20,604	-10,047	280,010	132,758
21,619	-10,126	279,644	132,497
22,634	-10,018	279,221	132,388
23,648	-10,032	278,872	132,197
24,663	-10,010	278,702	132,126
25,677	-10,057	278,399	131,925
26,692	-10,079	278,171	131,785
27,707	-10,089	277,925	131,647
28,721	-10,139	277,553	131,412
29,736	-10,197	277,219	131,188
30,750	-10,167	277,096	131,146
31,765	-10,161	276,832	131,015
32,780	-10,045	276,631	131,017
33,794	-10,162	276,408	130,790
34,809	-10,052	276,155	130,762
35,823	-10,026	275,921	130,664
36,838	-10,106	275,689	130,467
37,853	-10,119	275,292	130,256
38,867	-10,201	275,132	130,091
39,882	-9,994	274,829	130,131
40,896	-10,150	274,735	129,928
41,911	-10,190	274,435	129,737
42,926	-10,164	274,179	129,629
43,940	-10,318	273,893	129,338
44,955	-10,374	273,736	129,200
45,969	-10,268	273,576	129,212
46,984	-10,288	273,222	129,014
47,999	-10,479	272,887	128,667
49,013	-10,621	272,676	128,424
50,028	-10,588	272,075	128,160
51,042	-10,876	271,968	127,832
52,057	-10,794	271,784	127,810
53,071	-10,858	271,685	127,692
54,086	-10,634	271,477	127,791
55,101	-10,635	271,429	127,755
56,115	-10,357	271,183	127,885
57,130	-10,078	271,054	128,071
58,144	-9,957	270,721	128,013
59,159	-9,786	270,498	128,054
60,174	-9,869	270,223	127,836
61,188	-9,897	270,104	127,743
62,203	-9,897	269,894	127,632
63,217	-10,069	269,718	127,380
64,232	-10,022	269,395	127,259
65,247	-9,748	269,091	127,355
66,261	-9,954	268,928	127,078
67,276	-10,228	268,788	126,750
68,290	-10,384	268,551	126,484
69,305	-10,448	268,331	126,311
70,320	-10,180	267,966	126,372
71,334	-10,092	267,807	126,366
72,349	-9,996	267,647	126,366
73,363	-10,001	267,435	126,251
74,378	-10,118	267,264	126,052
75,393	-9,917	266,958	126,080
76,407	-10,095	266,905	125,882
77,422	-10,172	266,627	125,670
78,436	-9,997	266,423	125,720
79,451	-9,828	265,972	125,650
80,466	-10,013	265,858	125,417
81,480	-10,048	265,510	125,211
82,495	-10,341	265,571	124,964
83,509	-10,248	265,298	124,907
84,524	-10,092	265,031	124,911
85,539	-10,224	264,756	124,651
86,553	-10,458	264,534	124,325
87,568	-10,068	264,417	124,610
88,582	-10,240	264,099	124,295
89,597	-10,177	263,993	124,290
90,611	-10,179	263,873	124,221
91,626	-9,995	263,688	124,287
92,641	-10,109	263,588	124,127
93,655	-10,086	263,127	123,920
94,670	-10,295	263,158	123,736
95,684	-9,966	262,712	123,809
96,699	-9,973	262,515	123,699
97,714	-10,170	262,442	123,478
98,728	-10,098	262,132	123,386
99,743	-10,249	262,005	123,181
100,757	-10,340	261,728	122,958
101,772	-10,343	261,669	122,917
102,787	-10,076	261,422	123,026
103,801	-10,213	261,223	122,801
104,816	-10,183	261,113	122,765
105,830	-10,036	261,003	122,832
106,845	-9,927	260,729	122,788
107,860	-10,089	260,495	122,525
108,874	-9,961	260,243	122,508
109,889	-10,034	260,073	122,352
110,903	-10,055	259,696	122,146
111,918	-9,985	259,639	122,169
112,933	-10,331	259,568	121,821
113,947	-9,887	259,256	122,054
114,962	-9,992	259,192	121,921
115,976	-10,284	259,125	121,622
116,991	-9,956	258,766	121,729
118,006	-10,020	258,458	121,518
119,020	-10,057	258,450	121,471
120,035	-9,996	258,400	121,490
121,049	-10,170	258,191	121,229
122,064	-10,099	257,840	121,115
123,079	-10,006	257,668	121,104
124,093	-9,852	257,406	121,105
125,108	-10,131	257,137	120,725
126,122	-10,388	257,026	120,438
127,137	-10,444	256,717	120,234
128,151	-10,360	256,537	120,212
129,166	-10,329	256,525	120,222
130,181	-10,225	256,146	120,124
131,195	-10,336	256,052	119,973
132,210	-10,155	255,842	120,021
133,224	-10,066	255,668	120,006
134,239	-9,963	255,491	120,001
135,254	-10,011	255,365	119,889
136,268	-9,999	254,993	119,715
137,283	-10,283	254,813	119,375
138,297	-10,354	254,536	119,173
139,312	-10,523	254,554	119,025
140,327	-10,133	254,264	119,215
141,341	-9,912	254,239	119,382
142,356	-9,681	254,108	119,508
143,370	-9,770	253,890	119,319
144,385	-9,733	253,692	119,247
145,400	-9,909	253,479	118,986
146,414	-9,716	253,265	119,040
147,429	-9,737	253,200	118,980
148,443	-9,780	253,078	118,876
149,458	-9,930	252,825	118,618
150,473	-9,830	252,586	118,581
151,487	-9,917	252,405	118,411
152,502	-9,802	252,306	118,452
153,516	-9,637	252,049	118,461
154,531	-9,732	251,728	118,219
155,546	-9,907	251,693	118,044
156,560	-9,813	251,626	118,081
157,575	-9,945	251,296	117,804
158,589	-10,070	251,186	117,635
159,604	-9,840	250,869	117,672
160,619	-9,943	250,880	117,579
161,633	-10,002	250,658	117,415
162,648	-9,903	250,511	117,419
163,662	-9,695	250,222	117,449
164,677	-9,803	250,043	117,263
165,692	-9,949	250,007	117,113
166,706	-9,777	249,757	117,130
167,721	-9,907	249,502	116,891
168,735	-9,772	249,288	116,894
169,750	-9,685	249,328	116,975
170,764	-9,761	249,260	116,869
171,779	-9,661	249,008	116,824
172,794	-9,749	248,836	116,659
173,808	-9,880	248,768	116,507
174,823	-10,002	248,277	116,164
175,837	-10,346	248,043	115,757
176,852	-9,951	248,178	116,140
177,867	-9,771	247,994	116,194
178,881	-9,578	247,771	116,241
179,896	-9,765	247,600	115,994
180,910	-9,776	247,447	115,903
181,925	-9,682	247,284	115,895
182,940	-9,680	247,095	115,797
183,954	-9,867	247,011	115,592
184,969	-9,884	246,820	115,478
185,983	-9,708	246,648	115,533
186,998	-9,614	246,453	115,509
188,013	-9,851	246,314	115,238
189,027	-9,717	245,986	115,185
190,042	-9,856	245,944	115,040
191,056	-9,764	245,756	115,018
192,071	-9,827	245,483	114,827
193,086	-9,636	245,189	114,838
194,100	-9,729	245,127	114,722
195,115	-9,715	244,968	114,648
196,129	-9,752	244,762	114,512
197,144	-9,872	244,683	114,365
198,159	-9,705	244,506	114,409
199,173	-9,892	244,364	114,179
200,188	-9,869	244,214	114,118
201,202	-10,103	243,881	113,760
202,217	-10,238	243,595	113,506
203,232	-10,343	243,352	113,296
204,246	-9,939	243,358	113,620
205,261	-9,427	243,091	113,904
206,275	-10,306	242,997	113,131
207,290	-7,264	244,235	116,196
208,304	-0,100	246,321	123,094
209,319	3,311	247,413	126,449
210,334	3,831	247,295	126,806
211,348	4,046	247,261	126,955
212,363	4,306	247,075	127,062
213,377	4,202	247,085	126,970
214,392	4,171	246,869	126,822
215,407	3,943	246,701	126,537
216,421	3,990	246,477	126,450
217,436	4,312	246,446	126,687
218,450	4,284	246,275	126,565
219,465	3,795	245,909	125,965
220,480	3,944	245,802	126,021
221,494	3,854	245,581	125,823
222,509	4,025	245,384	125,850
223,523	3,911	245,183	125,643
224,538	3,557	244,961	125,229
225,553	3,646	244,777	125,196
226,567	3,503	244,860	125,111
227,582	3,946	244,599	125,328
228,596	3,895	244,533	125,241
229,611	3,546	244,200	124,775
230,626	3,450	244,062	124,615
231,640	3,543	243,857	124,575
232,655	3,763	243,746	124,686
233,669	3,563	243,435	124,354
234,684	3,273	243,464	124,122
235,699	3,806	243,308	124,463
236,713	4,121	243,337	124,723
237,728	3,615	243,074	124,168
238,742	3,433	242,840	123,890
239,757	3,331	242,612	123,680
240,772	3,509	242,458	123,734
241,786	3,566	242,324	123,701
242,801	3,365	242,124	123,425
243,815	3,487	241,836	123,366
244,830	3,474	241,879	123,366
245,844	3,778	241,720	123,518
246,859	3,597	241,548	123,274
247,874	3,601	241,341	123,161
248,888	3,636	241,184	123,097
249,903	3,794	241,083	123,162
250,917	3,884	241,045	123,203
251,932	3,941	240,827	123,127
252,947	3,923	240,649	123,010
253,961	3,603	240,454	122,644
254,976	4,044	240,229	122,871
255,990	3,767	240,268	122,658
257,005	3,557	240,014	122,350
258,020	3,172	239,730	121,888
259,034	3,287	239,768	121,987
260,049	3,507	239,596	122,065
261,063	3,405	239,338	121,841
262,078	3,474	239,248	121,839
263,093	3,860	239,180	122,100
264,107	3,679	238,940	121,823
265,122	3,530	238,740	121,592
266,136	3,507	238,637	121,511
267,151	4,075	238,545	121,903
268,166	3,758	238,316	121,524
269,180	3,419	238,078	121,124
270,195	4,047	238,196	121,670
271,209	4,132	237,990	121,621
272,224	3,521	237,715	120,988
273,239	3,098	237,470	120,518
274,253	3,387	237,370	120,685
275,268	3,596	237,278	120,792
276,282	3,638	237,197	120,773
277,297	3,441	236,876	120,443
278,312	3,636	236,627	120,459
279,326	3,719	236,607	120,504
280,341	3,825	236,585	120,565
281,355	3,730	236,357	120,364
282,370	3,976	236,147	120,438
283,384	3,772	236,037	120,212
284,399	3,532	235,734	119,860
285,414	3,370	235,701	119,706
286,428	3,477	235,527	119,690
287,443	3,583	235,390	119,692
288,457	3,687	235,338	119,736
289,472	3,514	235,234	119,538
290,487	3,806	234,886	119,577
291,501	3,381	234,779	119,182
292,516	3,259	234,638	119,004
293,530	3,366	234,434	118,974
294,545	3,647	234,354	119,141
295,560	3,613	234,174	119,013
296,574	3,316	234,060	118,714
297,589	3,396	233,956	118,712
298,603	4,019	233,809	119,109
299,618	3,916	233,717	118,973
300,633	3,686	233,551	118,699
301,647	3,967	233,415	118,837
302,662	4,128	233,427	118,957
303,676	4,097	233,149	118,780
304,691	3,942	233,061	118,605
305,706	4,016	232,889	118,564
306,720	4,111	232,669	118,515
307,735	3,842	232,502	118,212
308,749	3,505	232,391	117,886
309,764	3,525	232,188	117,788
310,779	3,375	232,019	117,577
311,793	3,341	231,866	117,463
312,808	3,387	231,644	117,375
313,822	3,498	231,321	117,285
314,837	3,343	231,376	117,184
315,852	3,315	231,161	117,044
316,866	3,722	231,173	117,351
317,881	4,020	231,102	117,531
318,895	3,847	230,993	117,334
319,910	4,252	230,781	117,525
320,925	3,763	230,507	117,002
321,939	3,528	230,295	116,705
322,954	3,656	230,230	116,759
323,968	3,450	230,119	116,536
324,983	3,684	230,035	116,660
325,997	3,950	229,790	116,728
327,012	4,019	229,645	116,696
328,027	3,599	229,376	116,231
329,041	3,717	229,448	116,347
330,056	4,126	229,389	116,616
331,070	4,178	229,370	116,635
332,085	4,191	229,113	116,504
333,100	4,025	228,881	116,250
334,114	3,967	228,739	116,124
335,129	4,159	228,581	116,178
336,143	4,044	228,335	115,956
337,158	4,226	228,205	116,016
338,173	3,904	228,100	115,711
339,187	3,757	228,023	115,551
340,202	4,085	227,708	115,627
341,216	4,020	227,639	115,533
342,231	3,956	227,476	115,392
343,246	3,754	227,347	115,164
344,260	3,754	227,358	115,160
345,275	4,147	227,239	115,384
346,289	3,981	227,046	115,151
347,304	4,205	226,952	115,261
348,319	4,347	226,658	115,207
349,333	3,859	226,607	114,807
350,348	3,689	226,388	114,559
351,362	3,844	226,270	114,604
352,377	3,672	226,029	114,344
353,392	3,307	225,862	113,978
354,406	3,516	225,680	114,031
355,421	193,453	1322,906	1393,147
356,435	154,968	1456,572	1393,139
