DTS Sentinel unit serial number:	SN410029Multiplexer serial number:	ORYXHardware model number:	OX2-SRSoftware version number:	ORYX F/W v4,00 Oryx Data Collector v3.7.2.0data status	okinstallation	B5 Nyhavnadifferential loss correction	single-endedforward channel	channel 2reverse channel	N/Adate	2023/12/11time	18:02:13forward acquisition time	300,00reverse acquisition time	0,00gamma	499,1914k internal	0,3162k external	0,3162temperature offset calibration	1,0000default loss term (dB/km)	0,3820temperature slope calibration	1,0000multiplexer offset coefficient	1,0000multiplexer slope coefficient	1,0000fibre end	0,00T internal ref (°C)	15,00T ext. ref 1 (°C)	-0,52T ext. ref 2 (°C)	-0,76length (m)	temperature (°C)	Stokes	anti-Stokes-744,400	-10,536	0,122	-0,059
-743,385	-163,373	-0,255	0,009
-742,371	488,717	0,084	0,143
-741,356	57,548	-0,250	0,180
-740,342	800,000	0,056	0,141
-739,327	-200,000	-0,345	0,000
-738,312	-115,206	0,112	0,015
-737,298	-162,761	-0,247	-0,009
-736,283	24,519	-0,070	0,043
-735,269	-73,701	-0,179	0,048
-734,254	54,466	-0,087	0,062
-733,239	-126,553	-0,500	-0,054
-732,225	10,177	0,171	0,095
-731,210	-22,602	0,061	-0,027
-730,196	-200,000	-0,010	-0,052
-729,181	-200,000	0,033	-0,127
-728,167	703,926	-0,072	-0,141
-727,152	-83,199	-0,144	0,034
-726,137	131,070	0,059	-0,056
-725,123	195,977	-0,039	0,044
-724,108	-96,802	-0,029	0,006
-723,094	32,201	-0,125	0,079
-722,079	-200,000	0,035	-0,183
-721,064	-200,000	-0,005	0,064
-720,050	-200,000	0,012	-0,115
-719,035	-39,894	0,065	-0,025
-718,021	-124,787	-0,123	-0,014
-717,006	-60,297	-0,136	-0,042
-715,991	-89,781	-0,019	0,004
-714,977	186,657	-0,072	-0,079
-713,962	178,846	-0,075	-0,080
-712,948	117,135	-0,028	-0,025
-711,933	55,536	0,093	-0,066
-710,918	-200,000	0,029	0,110
-709,904	-176,343	-0,180	-0,003
-708,889	-144,532	-0,127	-0,008
-707,875	382,561	-0,136	-0,206
-706,860	800,000	-0,040	-0,103
-705,845	72,461	-0,049	0,038
-704,831	-200,000	0,016	0,085
-703,816	800,000	-0,038	-0,080
-702,802	781,729	0,064	0,130
-701,787	-168,671	0,055	0,001
-700,772	-25,948	-0,046	0,020
-699,758	-200,000	-0,007	-0,026
-698,743	-154,620	0,060	-0,003
-697,729	-200,000	0,029	-0,171
-696,714	-200,000	-0,007	-0,091
-695,699	800,000	0,047	0,131
-694,685	800,000	-0,043	0,093
-693,670	422,230	0,026	0,042
-692,656	-130,697	0,190	0,019
-691,641	-41,102	0,084	-0,032
-690,627	-37,667	-0,057	0,022
-689,612	800,000	0,012	0,029
-688,597	-125,864	0,135	-0,015
-687,583	-200,000	-0,007	-0,134
-686,568	144,626	-0,088	-0,086
-685,554	-33,193	0,034	-0,014
-684,539	-40,663	0,045	0,017
-683,524	143,786	-0,030	0,030
-682,510	-200,000	0,005	0,095
-681,495	800,000	-0,016	0,052
-680,481	-20,470	-0,157	0,071
-679,466	-43,589	0,033	0,012
-678,451	73,821	-0,129	-0,099
-677,437	37,611	0,125	-0,081
-676,422	-69,039	-0,147	0,041
-675,408	-200,000	0,040	0,162
-674,393	-200,000	-0,001	-0,025
-673,378	-200,000	-0,005	0,030
-672,364	-141,628	-0,097	0,007
-671,349	28,182	-0,109	0,068
-670,335	52,669	-0,088	0,062
-669,320	681,135	-0,062	-0,118
-668,305	7,130	-0,087	0,048
-667,291	800,000	0,033	0,097
-666,276	313,107	0,106	-0,146
-665,262	-65,710	-0,031	-0,009
-664,247	-44,233	-0,091	0,033
-663,232	280,509	-0,094	-0,123
-662,218	566,243	0,076	0,136
-661,203	241,430	0,082	0,100
-660,189	154,296	-0,083	0,084
-659,174	58,539	0,118	0,085
-658,159	32,004	-0,136	-0,086
-657,145	-200,000	0,058	-0,000
-656,130	113,813	-0,078	0,069
-655,116	-200,000	0,009	0,037
-654,101	392,488	0,020	-0,031
-653,086	-177,618	0,057	-0,001
-652,072	-132,008	-0,075	0,007
-651,057	147,663	0,091	-0,090
-650,043	-145,502	-0,087	0,006
-649,028	-115,541	-0,054	0,007
-648,014	473,334	-0,062	0,103
-646,999	-36,214	-0,127	0,050
-645,984	-200,000	-0,001	0,031
-644,970	179,858	-0,099	0,106
-643,955	205,766	-0,050	-0,058
-642,941	40,201	0,126	-0,083
-641,926	246,549	-0,025	0,031
-640,911	-0,729	0,114	0,059
-639,897	-46,359	-0,092	-0,033
-638,882	-131,347	-0,039	0,004
-637,868	-173,357	0,043	-0,001
-636,853	800,000	-0,062	-0,130
-635,838	-88,074	-0,060	0,013
-634,824	-200,000	-0,041	-0,144
-633,809	-70,371	0,041	-0,011
-632,795	350,661	0,035	-0,051
-631,780	-147,030	0,097	0,006
-630,765	-188,968	-0,086	0,001
-629,751	-48,328	0,071	0,025
-628,736	-200,000	-0,009	-0,043
-627,722	36,152	-0,025	-0,016
-626,707	650,331	-0,043	0,082
-625,692	-44,075	0,082	-0,030
-624,678	569,126	-0,028	-0,049
-623,663	226,948	-0,091	-0,109
-622,649	32,034	-0,047	-0,030
-621,634	-22,261	-0,056	-0,025
-620,619	416,246	-0,127	-0,199
-619,605	-200,000	0,023	-0,082
-618,590	-200,000	0,008	-0,059
-617,576	-200,000	-0,033	0,151
-616,561	-200,000	-0,006	0,024
-615,546	34,010	-0,174	-0,111
-614,532	-200,000	-0,003	-0,057
-613,517	800,000	0,027	0,063
-612,503	-180,234	0,037	-0,001
-611,488	-26,747	-0,033	0,014
-610,474	124,345	0,025	-0,023
-609,459	800,000	-0,072	-0,220
-608,444	-151,522	0,119	0,006
-607,430	-200,000	0,015	-0,149
-606,415	141,392	-0,098	-0,095
-605,401	-30,373	-0,130	0,054
-604,386	-49,202	0,081	0,028
-603,371	-121,602	0,096	0,011
-602,357	405,803	0,043	0,066
-601,342	-200,000	0,000	0,041
-600,328	41,055	-0,042	0,027
-599,313	-200,000	-0,012	-0,050
-598,298	-29,830	-0,036	0,015
-597,284	-24,676	0,077	-0,033
-596,269	379,027	-0,031	0,047
-595,255	446,150	-0,077	0,125
-594,240	-200,000	-0,025	0,082
-593,225	-200,000	0,003	0,044
-592,211	164,754	-0,052	0,054
-591,196	789,021	-0,064	0,129
-590,182	-91,291	0,064	0,013
-589,167	51,716	-0,031	-0,021
-588,152	-8,306	-0,036	-0,018
-587,138	-94,630	-0,171	-0,034
-586,123	182,040	-0,084	-0,091
-585,109	70,570	-0,042	-0,032
-584,094	-8,393	-0,110	0,054
-583,079	-200,000	0,017	0,216
-582,065	-182,948	0,151	0,002
-581,050	-111,927	0,101	0,015
-580,036	-92,929	-0,094	0,019
-579,021	-200,000	0,022	0,142
-578,006	133,687	-0,078	-0,074
-576,992	92,079	-0,057	-0,047
-575,977	1,126	0,156	0,082
-574,963	61,627	0,078	0,057
-573,948	-200,000	0,013	0,050
-572,934	89,225	0,082	-0,067
-571,919	-27,934	-0,035	-0,015
-570,904	-200,000	0,011	-0,082
-569,890	208,326	0,095	0,109
-568,875	-98,880	0,134	-0,025
-567,861	57,464	0,143	0,102
-566,846	616,912	0,045	0,083
-565,831	-200,000	-0,020	-0,090
-564,817	21,345	-0,070	-0,041
-563,802	800,000	-0,048	-0,102
-562,788	-200,000	0,002	0,063
-561,773	-44,649	-0,067	0,024
-560,758	45,140	0,139	0,093
-559,744	800,000	0,010	0,025
-558,729	-156,219	0,114	-0,005
-557,715	-181,780	0,078	0,001
-556,700	192,277	-0,016	0,017
-555,685	187,694	-0,187	-0,204
-554,671	-200,000	0,011	-0,062
-553,656	-150,357	0,073	-0,004
-552,642	362,118	0,015	0,022
-551,627	-177,120	0,128	-0,002
-550,612	179,035	0,036	-0,038
-549,598	12,080	-0,074	-0,041
-548,583	-24,693	0,048	-0,021
-547,569	235,673	0,052	0,063
-546,554	-200,000	0,032	0,111
-545,539	800,000	0,028	0,058
-544,525	-200,000	0,007	0,090
-543,510	-46,283	-0,128	0,046
-542,496	-200,000	0,003	-0,116
-541,481	-200,000	0,009	-0,089
-540,466	257,315	-0,082	-0,104
-539,452	166,186	-0,091	-0,094
-538,437	16,457	0,130	-0,075
-537,423	480,331	-0,054	0,091
-536,408	-61,260	0,031	-0,009
-535,393	-144,223	-0,091	0,006
-534,379	-71,088	-0,074	-0,020
-533,364	361,496	-0,045	-0,066
-532,350	526,850	0,106	-0,184
-531,335	800,000	0,023	0,066
-530,321	-200,000	0,001	-0,070
-529,306	-200,000	-0,002	0,107
-528,291	307,375	0,091	-0,125
-527,277	-126,335	-0,051	0,005
-526,262	-200,000	0,007	-0,043
-525,248	797,569	0,024	0,049
-524,233	403,449	0,068	0,105
-523,218	78,483	-0,036	0,028
-522,204	108,218	0,028	-0,025
-521,189	40,383	-0,091	-0,060
-520,175	-200,000	0,013	0,108
-519,160	46,241	-0,099	0,067
-518,145	179,026	0,061	0,065
-517,131	-26,269	-0,076	0,033
-516,116	91,217	0,156	0,128
-515,102	271,486	-0,027	0,035
-514,087	-17,733	0,086	-0,039
-513,072	47,855	0,118	-0,080
-512,058	30,149	-0,121	0,075
-511,043	-85,093	0,217	0,049
-510,029	-200,000	-0,001	-0,028
-509,014	-200,000	-0,018	0,119
-507,999	-200,000	-0,051	0,211
-506,985	269,178	0,034	0,043
-505,970	286,621	-0,067	-0,089
-504,956	800,000	0,059	-0,128
-503,941	756,218	-0,019	-0,038
-502,926	-200,000	0,005	-0,034
-501,912	710,680	0,015	-0,030
-500,897	-142,220	0,078	-0,006
-499,883	-4,148	-0,086	0,043
-498,868	-200,000	0,046	-0,197
-497,853	-167,703	-0,048	-0,001
-496,839	459,442	-0,040	0,066
-495,824	279,251	-0,068	-0,089
-494,810	65,933	-0,057	-0,042
-493,795	66,538	0,050	0,037
-492,781	-200,000	0,039	-0,175
-491,766	-38,397	-0,096	-0,037
-490,751	-69,939	-0,101	-0,028
-489,737	-83,847	0,109	0,025
-488,722	508,792	-0,073	0,125
-487,708	-200,000	-0,020	0,124
-486,693	-200,000	0,019	0,089
-485,678	-200,000	-0,024	-0,084
-484,664	-136,363	-0,038	-0,003
-483,649	-22,149	0,062	-0,027
-482,635	-200,000	-0,032	-0,146
-481,620	-200,000	-0,007	0,031
-480,605	45,157	-0,003	0,002
-479,591	32,902	0,045	0,028
-478,576	800,000	-0,033	0,069
-477,562	-118,707	0,036	0,005
-476,547	-200,000	-0,011	0,067
-475,532	154,705	-0,067	0,067
-474,518	-200,000	-0,005	-0,042
-473,503	430,529	0,082	0,130
-472,489	269,641	0,069	-0,089
-471,474	477,237	-0,046	0,076
-470,459	800,000	0,052	0,112
-469,445	65,381	0,082	0,061
-468,430	667,075	-0,068	0,128
-467,416	-200,000	0,014	0,063
-466,401	-108,201	0,071	0,011
-465,386	-13,331	0,146	0,069
-464,372	282,404	0,033	-0,043
-463,357	-200,000	-0,003	-0,034
-462,343	26,711	-0,054	-0,033
-461,328	17,538	0,055	-0,032
-460,313	800,000	-0,016	0,039
-459,299	-5,626	0,072	-0,036
-458,284	-24,820	-0,063	-0,027
-457,270	-7,299	0,103	0,050
-456,255	359,806	-0,072	-0,105
-455,241	419,156	-0,044	-0,069
-454,226	-10,771	-0,074	-0,036
-453,211	155,820	-0,036	-0,037
-452,197	-200,000	-0,009	-0,082
-451,182	-200,000	0,039	0,132
-450,168	307,312	0,051	-0,070
-449,153	52,047	-0,044	-0,030
-448,138	248,497	0,060	-0,074
-447,124	-200,000	-0,023	-0,118
-446,109	47,122	0,052	-0,035
-445,095	-79,368	0,078	0,019
-444,080	217,221	-0,040	0,047
-443,065	-30,246	-0,151	-0,062
-442,051	-34,320	-0,122	-0,049
-441,036	800,000	-0,027	-0,066
-440,022	232,592	-0,088	-0,105
-439,007	373,019	-0,081	-0,120
-437,992	54,216	0,105	0,073
-436,978	-200,000	0,023	0,137
-435,963	-200,000	0,018	-0,065
-434,949	-200,000	0,008	0,027
-433,934	292,582	-0,088	-0,117
-432,919	-200,000	-0,015	0,165
-431,905	800,000	-0,065	0,188
-430,890	339,444	-0,086	-0,122
-429,876	-172,833	0,043	0,001
-428,861	96,373	-0,112	0,093
-427,846	-70,272	-0,078	0,021
-426,832	-27,888	0,050	-0,021
-425,817	-126,245	-0,147	-0,016
-424,803	-160,203	0,110	0,004
-423,788	-200,000	-0,014	0,074
-422,773	302,857	-0,046	0,063
-421,759	77,773	0,061	-0,047
-420,744	528,981	-0,021	-0,036
-419,730	800,000	-0,057	-0,159
-418,715	243,127	-0,128	0,157
-417,701	575,720	-0,051	0,091
-416,686	-200,000	0,057	-0,191
-415,671	-184,106	0,047	-0,001
-414,657	94,143	0,022	0,018
-413,642	-200,000	-0,009	-0,083
-412,628	398,951	-0,034	0,051
-411,613	-200,000	-0,009	-0,038
-410,598	-200,000	0,006	-0,107
-409,584	-200,000	0,043	0,221
-408,569	-13,723	0,054	-0,025
-407,555	123,650	0,092	-0,084
-406,540	-70,398	0,063	0,017
-405,525	800,000	-0,021	-0,056
-404,511	-135,132	-0,086	-0,007
-403,496	-40,078	-0,099	-0,037
-402,482	800,000	-0,022	0,059
-401,467	360,786	-0,016	0,023
-400,452	-47,475	-0,029	-0,010
-399,438	-200,000	-0,009	-0,081
-398,423	292,072	-0,130	0,172
-397,409	-141,825	0,168	-0,012
-396,394	-200,000	-0,038	-0,127
-395,379	160,069	0,053	0,054
-394,365	-200,000	0,011	0,065
-393,350	143,157	0,093	0,090
-392,336	201,985	0,084	-0,094
-391,321	127,633	-0,103	-0,095
-390,306	800,000	0,037	0,086
-389,292	765,382	-0,037	-0,073
-388,277	800,000	-0,052	-0,115
-387,263	-200,000	0,012	0,081
-386,248	-97,570	-0,059	-0,011
-385,233	-200,000	-0,011	-0,041
-384,219	-180,957	-0,131	0,002
-383,204	800,000	-0,016	-0,037
-382,190	-3,193	0,044	-0,022
-381,175	-54,037	-0,088	0,029
-380,160	12,104	0,097	0,054
-379,146	-5,243	0,172	0,085
-378,131	167,221	0,057	0,059
-377,117	293,502	-0,032	0,042
-376,102	800,000	-0,044	-0,114
-375,088	115,879	0,114	-0,101
-374,073	418,952	-0,062	0,096
-373,058	72,441	-0,026	0,020
-372,044	800,000	0,030	0,079
-371,029	-200,000	-0,011	-0,063
-370,015	800,000	0,032	0,088
-369,000	169,299	-0,045	0,047
-367,985	-94,803	-0,170	0,033
-366,971	-54,153	-0,066	-0,022
-365,956	-200,000	-0,013	-0,041
-364,942	-200,000	-0,009	-0,080
-363,927	-79,315	0,119	-0,029
-362,912	-200,000	-0,024	0,137
-361,898	-101,649	-0,114	-0,020
-360,883	45,290	0,050	0,034
-359,869	800,000	-0,038	0,111
-358,854	202,280	0,047	-0,053
-357,839	-200,000	-0,007	0,050
-356,825	-138,298	-0,030	-0,002
-355,810	-38,304	0,017	-0,007
-354,796	-200,000	-0,054	0,196
-353,781	584,284	0,028	-0,050
-352,766	-200,000	0,031	-0,104
-351,752	-156,979	0,043	0,002
-350,737	156,950	-0,047	0,047
-349,723	800,000	-0,014	-0,033
-348,708	643,356	-0,048	0,089
-347,693	-200,000	-0,019	-0,120
-346,679	-200,000	-0,023	-0,110
-345,664	51,888	0,040	-0,027
-344,650	171,617	-0,102	-0,107
-343,635	-71,340	0,091	0,025
-342,620	243,863	0,053	-0,064
-341,606	-109,145	0,089	0,014
-340,591	-200,000	-0,010	-0,064
-339,577	-200,000	-0,023	-0,177
-338,562	-200,000	-0,028	-0,120
-337,548	-112,081	-0,092	0,013
-336,533	36,796	0,106	0,068
-335,518	104,715	0,069	0,059
-334,504	176,069	-0,013	-0,014
-333,489	245,596	0,062	0,075
-332,475	-108,088	0,036	0,006
-331,460	33,584	-0,107	-0,067
-330,445	-115,624	0,104	-0,014
-329,431	702,913	0,061	-0,118
-328,416	287,900	0,050	0,066
-327,402	-33,771	-0,096	-0,038
-326,387	227,335	0,042	-0,049
-325,372	-41,813	-0,080	0,030
-324,358	-106,643	0,077	-0,012
-323,343	-78,376	0,116	0,029
-322,329	-200,000	-0,009	0,160
-321,314	-52,757	0,068	0,023
-320,299	341,877	-0,068	0,097
-319,285	-34,294	0,096	-0,038
-318,270	42,921	-0,064	0,042
-317,256	-49,111	-0,044	-0,015
-316,241	92,359	0,099	-0,080
-315,226	204,677	0,062	0,070
-314,212	800,000	-0,011	-0,023
-313,197	-200,000	-0,003	0,011
-312,183	397,263	0,030	-0,046
-311,168	-200,000	0,006	-0,128
-310,153	800,000	0,026	-0,070
-309,139	48,839	0,096	-0,065
-308,124	-200,000	0,002	-0,091
-307,110	448,128	-0,041	0,065
-306,095	70,051	0,142	0,106
-305,080	519,190	0,043	-0,073
-304,066	38,725	0,094	0,061
-303,051	-78,021	0,107	0,026
-302,037	800,000	-0,050	-0,148
-301,022	-122,491	0,030	-0,004
-300,008	-200,000	0,017	0,112
-298,993	-200,000	0,016	0,061
-297,978	516,556	0,063	0,107
-296,964	-48,513	-0,083	-0,029
-295,949	800,000	-0,019	0,042
-294,935	800,000	0,025	0,066
-293,920	218,630	0,096	0,111
-292,905	-0,984	0,180	0,092
-291,891	800,000	-0,008	0,019
-290,876	162,854	0,090	0,092
-289,862	800,000	0,040	0,116
-288,847	-18,497	-0,129	-0,058
-287,832	-104,540	0,047	-0,008
-286,818	-31,304	-0,091	-0,037
-285,803	-138,069	0,034	-0,003
-284,789	800,000	0,045	-0,097
-283,774	-200,000	-0,007	0,273
-282,759	396,288	-0,084	0,127
-281,745	553,629	0,038	-0,066
-280,730	59,438	0,051	0,036
-279,716	-19,677	0,093	0,041
-278,701	37,946	-0,070	-0,045
-277,686	500,398	0,045	-0,075
-276,672	-153,132	-0,146	0,007
-275,657	-56,872	0,056	0,018
-274,643	-14,399	-0,075	0,035
-273,628	-200,000	0,001	0,030
-272,613	-200,000	-0,034	0,129
-271,599	-37,447	0,092	0,035
-270,584	-200,000	0,002	0,017
-269,570	-70,549	-0,074	-0,020
-268,555	85,838	-0,065	-0,052
-267,540	800,000	0,030	0,075
-266,526	800,000	-0,077	-0,177
-265,511	24,990	0,034	0,020
-264,497	581,167	-0,058	0,103
-263,482	572,071	0,034	-0,060
-262,467	332,897	0,062	-0,087
-261,453	71,926	-0,099	-0,075
-260,438	-27,053	0,056	0,023
-259,424	800,000	0,015	-0,033
-258,409	-200,000	0,001	-0,048
-257,395	-200,000	-0,009	-0,070
-256,380	21,813	0,091	0,053
-255,365	-104,870	0,054	-0,009
-254,351	-200,000	-0,003	0,025
-253,336	-159,093	-0,180	0,007
-252,322	-200,000	-0,007	0,051
-251,307	148,692	0,040	0,039
-250,292	-55,159	-0,109	-0,035
-249,278	167,855	0,090	0,093
-248,263	800,000	-0,015	0,036
-247,249	111,289	-0,102	0,089
-246,234	800,000	-0,025	0,068
-245,219	-40,680	-0,026	0,010
-244,205	-57,259	-0,083	-0,026
-243,190	43,821	-0,111	0,073
-242,176	-118,106	0,126	-0,016
-241,161	-200,000	-0,011	0,038
-240,146	-91,163	0,097	0,020
-239,132	8,331	0,081	0,044
-238,117	88,074	-0,073	-0,058
-237,103	800,000	-0,058	0,140
-236,088	378,599	0,046	-0,068
-235,073	-52,563	0,198	0,066
-234,059	117,879	-0,069	0,061
-233,044	-50,064	0,194	0,066
-232,030	-200,000	0,021	-0,137
-231,015	17,206	0,084	-0,048
-230,000	800,000	-0,047	-0,107
-228,986	-200,000	0,000	-0,154
-227,971	-103,228	-0,105	-0,018
-226,957	-122,457	0,047	-0,005
-225,942	-200,000	-0,004	-0,024
-224,927	-200,000	-0,012	-0,056
-223,913	-79,965	-0,118	-0,028
-222,898	-30,617	0,055	-0,022
-221,884	236,187	-0,036	-0,043
-220,869	-125,213	0,110	-0,012
-219,855	-200,000	-0,012	-0,088
-218,840	18,219	-0,049	0,028
-217,825	-200,000	-0,001	0,041
-216,811	767,804	-0,045	-0,089
-215,796	693,813	0,040	-0,075
-214,782	800,000	-0,008	0,015
-213,767	58,563	0,094	0,067
-212,752	-153,968	0,076	0,004
-211,738	-49,038	-0,075	-0,026
-210,723	-122,601	-0,123	0,014
-209,709	71,288	0,114	-0,085
-208,694	-200,000	0,016	-0,109
-207,679	-200,000	0,004	0,041
-206,665	566,287	-0,044	0,078
-205,650	9,472	0,061	0,033
-204,636	718,137	-0,023	0,044
-203,621	-12,933	-0,042	-0,019
-202,606	18,557	-0,100	0,058
-201,592	-200,000	-0,009	0,127
-200,577	298,448	-0,118	-0,157
-199,563	530,592	0,070	-0,120
-198,548	-200,000	0,015	0,075
-197,533	-67,333	-0,072	0,020
-196,519	381,064	0,041	0,061
-195,504	5,163	0,117	-0,062
-194,490	593,760	0,029	-0,052
-193,475	-84,746	0,213	0,048
-192,460	-200,000	-0,012	-0,066
-191,446	-200,000	0,028	-0,092
-190,431	281,218	0,066	0,085
-189,417	2,418	-0,123	-0,064
-188,402	118,195	-0,149	0,132
-187,387	122,740	0,066	-0,059
-186,373	590,706	0,064	0,115
-185,358	-68,946	-0,040	0,011
-184,344	-200,000	-0,006	0,042
-183,329	-35,275	-0,093	0,036
-182,315	26,416	0,049	0,030
-181,300	-200,000	0,016	0,156
-180,285	-63,296	-0,176	-0,052
-179,271	81,491	-0,100	-0,078
-178,256	-200,000	-0,020	-0,092
-177,242	341,535	-0,047	-0,066
-176,227	79,472	0,171	0,132
-175,212	-200,000	-0,020	-0,089
-174,198	800,000	-0,034	-0,078
-173,183	-86,771	-0,060	0,013
-172,169	800,000	0,060	-0,143
-171,154	-200,000	-0,001	-0,019
-170,139	-130,520	0,092	0,009
-169,125	443,673	-0,060	0,094
-168,110	-200,000	0,015	0,052
-167,096	171,119	0,048	0,049
-166,081	703,546	-0,032	-0,061
-165,066	148,909	-0,065	-0,063
-164,052	-88,654	-0,104	0,022
-163,037	-0,366	0,056	0,028
-162,023	-200,000	-0,024	0,077
-161,008	-200,000	-0,007	0,055
-159,993	-74,857	-0,085	0,022
-158,979	-200,000	0,008	-0,069
-157,964	-200,000	0,027	-0,109
-156,950	-200,000	-0,000	0,135
-155,935	-139,406	0,161	-0,012
-154,920	15,009	0,071	-0,040
-153,906	-165,898	0,040	-0,001
-152,891	-132,213	-0,061	0,006
-151,877	-200,000	-0,005	-0,100
-150,862	800,000	-0,078	-0,192
-149,847	281,038	0,084	0,108
-148,833	358,616	-0,050	-0,072
-147,818	-118,831	0,108	0,013
-146,804	124,891	-0,028	0,025
-145,789	-32,600	-0,142	0,056
-144,775	-200,000	0,034	0,120
-143,760	-162,009	-0,094	0,003
-142,745	-187,693	-0,157	0,001
-141,731	37,397	-0,090	0,057
-140,716	45,724	-0,192	-0,127
-139,702	-200,000	-0,023	-0,091
-138,687	-105,242	-0,044	-0,007
-137,672	-89,835	-0,101	0,021
-136,658	800,000	0,040	-0,091
-135,643	-140,980	-0,025	0,002
-134,629	-200,000	-0,003	-0,046
-133,614	-161,637	0,098	0,004
-132,599	-12,856	0,047	-0,022
-131,585	224,464	0,058	-0,067
-130,570	800,000	0,034	-0,091
-129,556	-58,300	-0,072	-0,022
-128,541	-173,039	-0,126	0,003
-127,526	544,455	0,040	-0,068
-126,512	-200,000	-0,001	0,047
-125,497	-119,000	-0,075	0,009
-124,483	146,042	-0,070	0,067
-123,468	106,104	0,053	0,045
-122,453	800,000	-0,021	-0,059
-121,439	800,000	-0,028	-0,069
-120,424	-200,000	-0,004	0,080
-119,410	-161,239	0,124	-0,005
-118,395	-56,290	0,056	0,018
-117,380	250,777	0,105	0,129
-116,366	-200,000	0,004	0,074
-115,351	800,000	-0,029	-0,088
-114,337	-200,000	0,006	0,072
-113,322	-200,000	0,009	0,131
-112,307	-200,000	-0,008	0,079
-111,293	584,033	0,053	0,095
-110,278	-36,230	-0,150	0,058
-109,264	-92,160	0,094	0,019
-108,249	-200,000	-0,019	-0,102
-107,234	-97,749	-0,109	-0,020
-106,220	-90,834	-0,079	-0,016
-105,205	27,793	0,174	0,105
-104,191	19,223	-0,053	-0,031
-103,176	-149,652	0,138	-0,008
-102,162	-2,622	0,168	-0,084
-101,147	800,000	0,038	-0,078
-100,132	394,438	0,058	0,087
-99,118	-200,000	0,004	-0,152
-98,103	189,230	0,070	-0,076
-97,089	800,000	0,034	0,075
-96,074	0,809	0,094	-0,048
-95,059	21,283	0,021	0,012
-94,045	800,000	0,049	0,139
-93,030	30,638	-0,099	-0,060
-92,016	200,590	0,093	-0,102
-91,001	444,913	0,066	-0,104
-89,986	-200,000	0,026	-0,089
-88,972	-200,000	-0,031	0,115
-87,957	12,009	-0,079	-0,044
-86,943	800,000	-0,012	0,026
-85,928	-200,000	0,012	-0,139
-84,913	137,625	0,022	-0,021
-83,899	617,235	0,029	-0,053
-82,884	-100,189	-0,083	0,015
-81,870	133,868	0,048	0,044
-80,855	-28,945	0,130	0,053
-79,840	800,000	-0,027	-0,054
-78,826	-200,000	-0,004	0,017
-77,811	-33,018	-0,061	0,024
-76,797	56,519	0,102	-0,071
-75,782	-73,955	0,099	0,026
-74,767	277,218	-0,056	0,072
-73,753	7,281	-0,066	0,035
-72,738	-27,476	-0,134	-0,056
-71,724	-200,000	-0,017	-0,197
-70,709	162,889	-0,087	0,088
-69,694	-41,526	-0,035	0,013
-68,680	-168,993	0,079	-0,002
-67,665	-200,000	0,038	0,153
-66,651	34,005	0,075	-0,047
-65,636	-200,000	0,026	-0,090
-64,622	79,113	0,114	0,087
-63,607	-111,353	-0,184	-0,027
-62,592	-200,000	0,005	-0,204
-61,578	580,700	-0,062	-0,110
-60,563	53,375	0,047	0,032
-59,549	-200,000	-0,011	0,069
-58,534	-1,127	-1,975	-0,998
-57,519	-200,000	-0,254	-0,893
-56,505	-200,000	-1,249	-5,050
-55,490	17,377	0,858	0,487
-54,476	800,000	5,380	12,183
-53,461	-200,000	17,720	287,304
-52,446	800,000	727,832	2223,915
-51,432	535,044	1644,143	2804,831
-50,417	109,360	1635,291	1402,877
-49,403	74,613	1287,055	969,117
-48,388	31,594	1027,047	631,465
-47,373	20,027	988,802	569,880
-46,359	18,254	976,505	556,970
-45,344	15,313	972,539	545,081
-44,330	15,564	971,009	545,022
-43,315	15,026	969,263	542,267
-42,300	14,972	968,283	541,523
-41,286	14,983	967,166	540,913
-40,271	15,051	966,197	540,568
-39,257	15,081	965,051	540,004
-38,242	15,039	964,194	539,366
-37,227	15,087	963,429	539,073
-36,213	15,057	962,530	538,453
-35,198	14,941	961,831	537,665
-34,184	15,062	961,105	537,629
-33,169	14,963	960,107	536,729
-32,154	15,053	959,069	536,419
-31,140	15,071	958,175	535,954
-30,125	15,104	957,281	535,538
-29,111	15,020	956,648	534,895
-28,096	15,026	956,066	534,568
-27,082	15,002	955,402	534,095
-26,067	15,060	954,612	533,820
-25,052	15,016	953,815	533,211
-24,038	15,047	953,142	532,913
-23,023	14,941	952,730	532,324
-22,009	15,039	952,026	532,222
-20,994	15,064	951,202	531,821
-19,979	15,014	950,715	531,365
-18,965	14,999	950,023	530,912
-17,950	15,027	949,366	530,612
-16,936	15,009	948,896	530,272
-15,921	14,984	948,073	529,711
-14,906	14,931	947,462	529,181
-13,892	14,930	946,799	528,783
-12,877	14,903	946,108	528,292
-11,863	14,898	945,403	527,862
-10,848	14,870	945,000	527,528
-9,833	14,983	944,399	527,530
-8,819	14,984	943,661	527,100
-7,804	14,972	943,069	526,709
-6,790	14,977	942,598	526,442
-5,775	15,002	941,972	526,151
-4,760	14,967	941,337	525,664
-3,746	14,913	940,711	525,122
-2,731	14,794	940,198	524,440
-1,717	14,754	939,378	523,835
-0,702	14,771	938,862	523,580
0,313	14,573	938,103	523,323
1,327	17,706	936,119	532,019
2,342	26,634	792,522	473,990
3,356	23,333	457,065	268,315
4,371	-3,357	312,906	155,491
5,386	-7,303	294,896	142,558
6,400	-9,088	288,770	137,824
7,415	-9,776	286,327	135,973
8,429	-9,865	284,798	135,147
9,444	-9,976	283,832	134,570
10,459	-9,823	283,208	134,410
11,473	-10,127	282,680	133,853
12,488	-10,027	282,188	133,705
13,502	-9,972	281,636	133,485
14,517	-9,873	280,954	133,244
15,531	-10,221	280,559	132,712
16,546	-10,072	280,132	132,640
17,561	-10,212	279,753	132,316
18,575	-10,056	279,283	132,230
19,590	-10,128	279,150	132,087
20,604	-10,239	278,748	131,780
21,619	-10,192	278,400	131,648
22,634	-10,157	278,019	131,488
23,648	-10,279	277,793	131,254
24,663	-10,278	277,546	131,127
25,677	-10,332	277,375	130,983
26,692	-10,264	277,051	130,883
27,707	-10,300	276,650	130,648
28,721	-10,377	276,455	130,472
29,736	-10,226	276,022	130,398
30,750	-10,390	275,861	130,156
31,765	-10,271	275,731	130,195
32,780	-10,264	275,421	130,043
33,794	-10,254	275,159	129,917
34,809	-10,115	274,797	129,865
35,823	-10,404	274,705	129,539
36,838	-10,251	274,381	129,519
37,853	-10,276	274,007	129,307
38,867	-10,288	273,823	129,197
39,882	-10,344	273,629	129,042
40,896	-10,214	273,472	129,078
41,911	-10,163	272,963	128,873
42,926	-10,445	273,028	128,630
43,940	-10,558	272,728	128,372
44,955	-10,396	272,285	128,303
45,969	-10,423	272,251	128,250
46,984	-10,334	272,023	128,213
47,999	-10,613	271,797	127,837
49,013	-10,759	271,538	127,569
50,028	-10,859	271,329	127,367
51,042	-10,761	270,989	127,287
52,057	-10,609	270,743	127,301
53,071	-10,660	270,374	127,068
54,086	-10,808	270,404	126,935
55,101	-10,600	270,139	126,991
56,115	-10,530	270,229	127,085
57,130	-10,124	269,768	127,230
58,144	-10,028	269,543	127,201
59,159	-10,053	269,405	127,102
60,174	-10,036	269,206	127,012
61,188	-10,130	269,029	126,831
62,203	-10,375	268,810	126,493
63,217	-10,164	268,669	126,608
64,232	-10,172	268,439	126,481
65,247	-9,995	268,194	126,515
66,261	-10,096	267,708	126,183
67,276	-10,209	267,583	126,010
68,290	-10,417	267,391	125,719
69,305	-10,387	267,133	125,614
70,320	-10,394	266,867	125,471
71,334	-10,138	266,674	125,601
72,349	-10,020	266,483	125,607
73,363	-9,939	266,338	125,601
74,378	-10,100	266,289	125,421
75,393	-10,069	265,957	125,282
76,407	-10,417	265,918	124,938
77,422	-10,149	265,467	124,956
78,436	-10,184	265,175	124,776
79,451	-10,147	264,903	124,670
80,466	-10,147	264,685	124,556
81,480	-10,423	264,499	124,210
82,495	-10,318	264,324	124,211
83,509	-10,214	264,123	124,198
84,524	-10,303	264,042	124,069
85,539	-10,331	263,734	123,888
86,553	-10,379	263,410	123,682
87,568	-10,369	263,216	123,590
88,582	-10,233	263,015	123,605
89,597	-10,218	262,864	123,537
90,611	-10,143	262,723	123,527
91,626	-10,330	262,659	123,319
92,641	-10,125	262,266	123,305
93,655	-10,109	262,131	123,245
94,670	-10,179	261,959	123,091
95,684	-10,278	261,664	122,854
96,699	-10,320	261,706	122,825
97,714	-10,011	261,294	122,894
98,728	-10,443	261,275	122,492
99,743	-10,388	260,865	122,338
100,757	-10,401	260,657	122,217
101,772	-10,417	260,516	122,127
102,787	-10,426	260,275	121,994
103,801	-10,230	260,140	122,093
104,816	-10,114	259,954	122,097
105,830	-9,929	259,845	122,198
106,845	-10,160	259,619	121,878
107,860	-10,082	259,453	121,858
108,874	-10,114	259,279	121,737
109,889	-10,132	259,158	121,653
110,903	-10,161	258,782	121,440
111,918	-9,968	258,564	121,496
112,933	-10,120	258,455	121,301
113,947	-10,091	258,222	121,206
114,962	-10,134	258,055	121,080
115,976	-10,290	257,906	120,863
116,991	-10,094	257,675	120,915
118,006	-10,247	257,566	120,719
119,020	-10,208	257,299	120,617
120,035	-9,946	257,246	120,810
121,049	-10,137	256,968	120,503
122,064	-10,046	256,891	120,535
123,079	-9,958	256,676	120,500
124,093	-9,988	256,408	120,337
125,108	-10,129	256,281	120,145
126,122	-10,463	255,816	119,626
127,137	-10,678	255,833	119,438
128,151	-10,495	255,626	119,489
129,166	-10,285	255,372	119,541
130,181	-10,374	255,168	119,358
131,195	-10,301	254,890	119,280
132,210	-10,230	254,915	119,342
133,224	-10,099	254,623	119,308
134,239	-10,153	254,481	119,184
135,254	-10,038	254,350	119,211
136,268	-9,977	253,928	119,055
137,283	-10,516	253,900	118,569
138,297	-10,474	253,727	118,513
139,312	-10,406	253,267	118,347
140,327	-10,279	253,197	118,412
141,341	-9,818	253,194	118,794
142,356	-10,086	253,169	118,542
143,370	-9,814	252,737	118,562
144,385	-9,840	252,566	118,449
145,400	-9,787	252,419	118,414
146,414	-9,942	252,336	118,233
147,429	-10,173	252,167	117,946
148,443	-9,802	251,836	118,096
149,458	-9,951	251,826	117,955
150,473	-9,755	251,527	117,970
151,487	-9,974	251,367	117,700
152,502	-10,030	251,356	117,636
153,516	-9,895	250,914	117,533
154,531	-9,860	250,866	117,529
155,546	-10,011	250,804	117,363
156,560	-10,020	250,462	117,184
157,575	-9,949	250,446	117,226
158,589	-9,851	250,150	117,160
159,604	-10,022	249,885	116,881
160,619	-10,059	249,856	116,826
161,633	-9,953	249,579	116,776
162,648	-10,185	249,526	116,545
163,662	-10,050	249,256	116,522
164,677	-9,769	249,051	116,652
165,692	-9,903	248,967	116,490
166,706	-9,963	248,858	116,378
167,721	-9,926	248,640	116,297
168,735	-10,074	248,535	116,113
169,750	-9,787	248,386	116,273
170,764	-9,801	248,193	116,160
171,779	-9,775	248,060	116,110
172,794	-9,794	247,874	115,996
173,808	-9,903	247,639	115,785
174,823	-10,148	247,413	115,465
175,837	-10,439	247,189	115,108
176,852	-9,960	247,037	115,425
177,867	-9,806	246,919	115,488
178,881	-9,927	246,835	115,338
179,896	-9,845	246,628	115,299
180,910	-9,911	246,630	115,235
181,925	-9,817	246,287	115,142
182,940	-9,803	246,107	115,059
183,954	-9,838	245,953	114,949
184,969	-9,829	245,842	114,893
185,983	-9,845	245,676	114,793
186,998	-9,900	245,570	114,688
188,013	-9,664	245,307	114,749
189,027	-9,677	245,215	114,684
190,042	-9,785	244,995	114,483
191,056	-9,618	244,754	114,498
192,071	-9,662	244,628	114,392
193,086	-9,744	244,482	114,246
194,100	-9,665	244,221	114,179
195,115	-9,617	244,090	114,147
196,129	-9,613	243,832	114,019
197,144	-9,901	243,813	113,764
198,159	-9,843	243,487	113,649
199,173	-9,526	243,350	113,835
200,188	-9,631	243,121	113,632
201,202	-9,999	242,952	113,242
202,217	-10,210	242,704	112,944
203,232	-10,384	242,520	112,707
204,246	-9,682	242,569	113,292
205,261	-9,037	242,498	113,773
206,275	-9,649	242,269	113,158
207,290	-7,801	242,892	114,945
208,304	-2,933	244,433	119,651
209,319	0,212	245,328	122,659
210,334	0,493	245,260	122,844
211,348	0,683	245,132	122,925
212,363	1,022	245,088	123,169
213,377	1,276	245,000	123,321
214,392	1,411	244,849	123,345
215,407	1,256	244,696	123,129
216,421	1,134	244,573	122,958
217,436	1,332	244,412	123,026
218,450	1,473	244,234	123,041
219,465	1,199	244,033	122,706
220,480	1,313	243,829	122,685
221,494	1,342	243,679	122,623
222,509	1,438	243,577	122,638
223,523	1,284	243,422	122,423
224,538	1,174	243,178	122,201
225,553	1,026	243,041	122,002
226,567	1,153	242,938	122,041
227,582	1,265	242,852	122,078
228,596	1,141	242,812	121,947
229,611	1,218	242,394	121,789
230,626	1,321	242,179	121,752
231,640	1,276	242,151	121,691
232,655	1,481	241,966	121,753
233,669	1,347	241,782	121,541
234,684	1,293	241,608	121,400
235,699	1,712	241,760	121,802
236,713	1,278	241,537	121,330
237,728	1,359	241,189	121,209
238,742	1,257	241,081	121,063
239,757	1,327	240,829	120,981
240,772	1,312	240,622	120,855
241,786	1,193	240,468	120,671
242,801	0,928	240,253	120,340
243,815	0,942	240,075	120,252
244,830	1,372	240,006	120,550
245,844	1,456	239,939	120,573
246,859	1,351	239,774	120,395
247,874	1,341	239,714	120,346
248,888	1,180	239,485	120,093
249,903	1,093	239,560	120,050
250,917	1,488	239,197	120,172
251,932	1,809	239,138	120,387
252,947	1,546	238,783	119,988
253,961	0,948	238,672	119,447
254,976	1,414	238,487	119,713
255,990	1,480	238,247	119,635
257,005	1,187	238,246	119,392
258,020	0,955	238,042	119,096
259,034	1,147	237,866	119,148
260,049	1,479	237,740	119,337
261,063	1,065	237,506	118,882
262,078	1,406	237,375	119,075
263,093	1,500	237,255	119,078
264,107	1,636	237,158	119,126
265,122	1,395	236,766	118,729
266,136	1,409	236,895	118,794
267,151	1,773	236,675	118,959
268,166	1,481	236,403	118,583
269,180	1,135	236,220	118,209
270,195	1,751	236,440	118,792
271,209	1,902	236,290	118,825
272,224	1,347	235,844	118,155
273,239	0,991	235,773	117,830
274,253	1,212	235,543	117,878
275,268	1,448	235,433	117,996
276,282	1,394	235,235	117,844
277,297	1,164	235,130	117,602
278,312	1,124	235,091	117,540
279,326	1,315	234,896	117,582
280,341	1,337	234,828	117,554
281,355	1,539	234,492	117,533
282,370	1,656	234,420	117,577
283,384	1,525	234,175	117,342
284,399	1,117	234,001	116,928
285,414	1,218	233,936	116,964
286,428	1,329	233,875	117,009
287,443	1,356	233,706	116,934
288,457	1,640	233,519	117,050
289,472	1,930	233,318	117,163
290,487	1,304	233,265	116,642
291,501	0,993	232,957	116,238
292,516	0,886	232,762	116,048
293,530	0,792	232,624	115,895
294,545	1,404	232,664	116,377
295,560	1,621	232,444	116,424
296,574	0,965	232,248	115,811
297,589	1,084	232,066	115,802
298,603	1,564	232,039	116,146
299,618	1,713	231,981	116,221
300,633	1,604	231,859	116,066
301,647	1,953	231,639	116,213
302,662	1,836	231,697	116,142
303,676	1,790	231,552	116,024
304,691	1,928	231,318	116,002
305,706	1,705	231,163	115,743
306,720	1,746	231,031	115,699
307,735	1,512	230,827	115,407
308,749	1,542	230,610	115,311
309,764	1,411	230,405	115,098
310,779	1,097	230,198	114,746
311,793	1,005	230,172	114,652
312,808	1,130	229,925	114,614
313,822	1,026	229,736	114,430
314,837	1,134	229,536	114,403
315,852	1,053	229,377	114,252
316,866	1,309	229,288	114,392
317,881	1,556	229,338	114,593
318,895	1,710	229,331	114,697
319,910	2,020	229,179	114,845
320,925	1,662	228,842	114,395
321,939	1,547	228,571	114,163
322,954	1,747	228,716	114,376
323,968	1,729	228,409	114,199
324,983	1,854	228,340	114,248
325,997	1,745	228,147	114,059
327,012	1,847	227,774	113,940
328,027	1,300	227,725	113,494
329,041	1,526	227,696	113,639
330,056	2,140	227,823	114,154
331,070	2,127	227,537	113,991
332,085	2,012	227,551	113,901
333,100	1,796	227,254	113,580
334,114	1,782	227,068	113,466
335,129	2,023	226,859	113,533
336,143	1,957	226,674	113,381
337,158	1,678	226,550	113,100
338,173	1,806	226,491	113,156
339,187	1,794	226,326	113,055
340,202	1,755	226,224	112,965
341,216	1,664	226,153	112,851
342,231	1,878	225,923	112,885
343,246	1,562	225,763	112,560
344,260	1,798	225,634	112,662
345,275	2,108	225,413	112,772
346,289	2,127	225,339	112,738
347,304	2,159	225,220	112,692
348,319	1,901	225,111	112,436
349,333	1,864	224,857	112,272
350,348	1,583	224,664	111,958
351,362	1,753	224,686	112,085
352,377	1,690	224,318	111,844
353,392	1,405	224,237	111,584
354,406	1,718	224,205	111,789
355,421	196,665	1320,364	1398,579
356,435	157,637	1453,901	1398,567
