DTS Sentinel unit serial number:	SN410029Multiplexer serial number:	ORYXHardware model number:	OX2-SRSoftware version number:	ORYX F/W v4,00 Oryx Data Collector v3.7.2.0data status	okinstallation	B5 Nyhavnadifferential loss correction	single-endedforward channel	channel 2reverse channel	N/Adate	2023/12/11time	22:57:13forward acquisition time	300,00reverse acquisition time	0,00gamma	499,1914k internal	0,3155k external	0,3155temperature offset calibration	1,0000default loss term (dB/km)	0,3820temperature slope calibration	1,0000multiplexer offset coefficient	1,0000multiplexer slope coefficient	1,0000fibre end	0,00T internal ref (°C)	16,30T ext. ref 1 (°C)	-0,01T ext. ref 2 (°C)	-0,26length (m)	temperature (°C)	Stokes	anti-Stokes-744,400	-37,299	-0,125	0,049
-743,385	-151,016	-0,232	-0,013
-742,371	800,000	0,041	-0,105
-741,356	-64,443	-0,318	0,095
-740,342	266,453	0,072	0,093
-739,327	-71,569	-0,311	0,085
-738,312	451,817	0,127	-0,208
-737,298	-96,699	-0,321	-0,062
-736,283	-46,900	0,127	0,046
-735,269	-131,227	-0,251	-0,024
-734,254	137,350	0,156	0,150
-733,239	-90,360	-0,333	-0,071
-732,225	243,831	0,129	0,160
-731,210	-200,000	-0,037	0,170
-730,196	-135,166	-0,127	0,011
-729,181	17,957	-0,055	-0,032
-728,167	-200,000	-0,006	-0,074
-727,152	-200,000	0,008	-0,082
-726,137	-200,000	0,000	0,067
-725,123	-123,569	-0,070	0,008
-724,108	340,847	-0,116	-0,167
-723,094	-32,932	-0,160	-0,065
-722,079	188,461	-0,132	-0,146
-721,064	-200,000	0,018	0,063
-720,050	-145,475	0,058	0,004
-719,035	-200,000	0,032	-0,145
-718,021	800,000	0,009	0,029
-717,006	-57,845	-0,196	0,063
-715,991	-124,611	-0,112	0,013
-714,977	-200,000	-0,013	0,068
-713,962	-141,353	-0,145	0,011
-712,948	-200,000	-0,024	0,139
-711,933	-200,000	-0,006	-0,062
-710,918	-200,000	-0,004	0,102
-709,904	98,712	-0,163	-0,139
-708,889	-41,459	-0,126	0,048
-707,875	800,000	0,008	-0,022
-706,860	-99,565	0,026	0,005
-705,845	-200,000	0,016	0,202
-704,831	-43,947	-0,079	0,029
-703,816	111,649	-0,045	-0,040
-702,802	34,335	0,007	-0,005
-701,787	800,000	-0,012	-0,035
-700,772	-134,686	-0,087	-0,008
-699,758	21,782	-0,027	-0,016
-698,743	-200,000	-0,012	0,076
-697,729	224,181	0,084	0,100
-696,714	800,000	-0,020	0,041
-695,699	800,000	-0,012	-0,025
-694,685	-200,000	-0,011	-0,043
-693,670	36,340	-0,081	-0,052
-692,656	259,423	0,060	0,076
-691,641	-173,028	0,106	-0,002
-690,627	800,000	0,018	0,046
-689,612	-22,926	0,131	0,058
-688,597	-200,000	-0,003	0,017
-687,583	-54,246	0,033	0,011
-686,568	-200,000	0,001	-0,172
-685,554	-200,000	0,045	-0,149
-684,539	-75,931	-0,067	-0,017
-683,524	-200,000	-0,011	0,057
-682,510	73,056	-0,035	0,027
-681,495	362,790	-0,020	-0,030
-680,481	-200,000	0,009	-0,068
-679,466	-195,253	-0,139	-0,001
-678,451	-200,000	-0,014	-0,073
-677,437	800,000	0,045	-0,120
-676,422	-200,000	-0,023	0,079
-675,408	-118,645	-0,048	0,006
-674,393	-60,237	-0,101	0,031
-673,378	-200,000	0,000	-0,137
-672,364	-148,404	-0,139	-0,008
-671,349	-123,680	-0,072	-0,008
-670,335	-200,000	0,002	0,044
-669,320	5,832	0,073	-0,040
-668,305	-200,000	0,007	0,033
-667,291	72,561	0,051	-0,039
-666,276	-63,505	0,014	0,004
-665,262	435,612	-0,057	-0,091
-664,247	-200,000	-0,029	-0,102
-663,232	-136,435	-0,159	-0,013
-662,218	292,268	-0,054	0,072
-661,203	-159,335	-0,045	-0,002
-660,189	-104,660	-0,051	-0,009
-659,174	16,445	0,028	-0,016
-658,159	264,476	-0,090	-0,116
-657,145	-160,986	0,111	-0,004
-656,130	-91,134	-0,101	-0,021
-655,116	193,853	-0,014	-0,016
-654,101	108,574	0,080	-0,070
-653,086	-200,000	-0,005	0,056
-652,072	28,319	-0,210	-0,130
-651,057	-98,881	-0,151	0,028
-650,043	-119,678	0,175	-0,022
-649,028	388,307	-0,007	-0,011
-648,014	-200,000	-0,018	-0,166
-646,999	41,102	0,076	0,050
-645,984	-200,000	-0,009	0,078
-644,970	800,000	-0,018	0,053
-643,955	337,031	0,019	0,027
-642,941	800,000	-0,046	-0,144
-641,926	800,000	-0,050	0,112
-640,911	-200,000	0,028	0,205
-639,897	-96,966	-0,024	0,005
-638,882	355,006	-0,023	-0,033
-637,868	382,094	0,038	0,058
-636,853	-200,000	-0,009	-0,112
-635,838	800,000	0,012	-0,038
-634,824	129,288	-0,043	0,041
-633,809	-23,055	0,050	-0,022
-632,795	-200,000	0,020	0,078
-631,780	800,000	-0,030	0,086
-630,765	800,000	0,033	-0,101
-629,751	-200,000	0,019	-0,115
-628,736	800,000	0,031	-0,092
-627,722	597,878	0,006	-0,011
-626,707	-54,386	-0,097	-0,032
-625,692	-200,000	-0,016	-0,093
-624,678	166,102	-0,054	0,056
-623,663	75,197	0,112	-0,087
-622,649	50,776	-0,064	-0,044
-621,634	800,000	0,006	0,020
-620,619	90,048	0,040	0,033
-619,605	-41,008	0,061	0,023
-618,590	-140,418	0,026	-0,002
-617,576	177,488	0,094	0,100
-616,561	800,000	-0,044	0,109
-615,546	555,709	-0,105	0,186
-614,532	450,818	-0,055	-0,089
-613,517	-52,044	-0,036	-0,012
-612,503	-200,000	0,009	0,101
-611,488	-65,988	0,136	-0,039
-610,474	105,922	-0,151	0,131
-609,459	-200,000	0,017	-0,062
-608,444	800,000	0,020	-0,043
-607,430	800,000	-0,094	-0,200
-606,415	167,236	0,049	-0,051
-605,401	-74,283	-0,096	0,025
-604,386	776,134	-0,051	-0,103
-603,371	-150,772	-0,048	-0,003
-602,357	148,738	0,117	-0,116
-601,342	-116,415	-0,141	0,019
-600,328	-200,000	-0,021	-0,095
-599,313	90,255	0,002	0,001
-598,298	56,483	-0,113	-0,081
-597,284	-61,419	0,104	0,032
-596,269	113,913	-0,028	0,025
-595,255	-200,000	-0,009	0,081
-594,240	-200,000	0,003	-0,134
-593,225	155,072	0,094	-0,095
-592,211	-200,000	0,022	-0,257
-591,196	187,936	-0,024	0,027
-590,182	545,144	-0,063	0,112
-589,167	561,898	0,017	-0,030
-588,152	-200,000	-0,006	-0,034
-587,138	5,186	-0,083	0,045
-586,123	800,000	-0,019	0,048
-585,109	31,355	-0,143	-0,090
-584,094	136,156	-0,056	-0,054
-583,079	768,971	0,063	0,127
-582,065	594,179	-0,070	0,128
-581,050	52,533	-0,068	-0,047
-580,036	46,819	0,062	-0,042
-579,021	-145,791	0,088	0,006
-578,006	97,439	-0,067	-0,056
-576,992	238,231	0,076	0,093
-575,977	60,263	-0,031	0,023
-574,963	640,240	-0,051	0,096
-573,948	607,964	-0,042	0,077
-572,934	109,998	0,019	0,017
-571,919	7,941	0,063	0,035
-570,904	-200,000	0,010	-0,070
-569,890	-87,837	-0,069	0,015
-568,875	260,191	-0,114	0,145
-567,861	-121,515	0,078	0,009
-566,846	585,636	0,065	0,118
-565,831	177,989	-0,059	0,063
-564,817	-200,000	-0,016	-0,065
-563,802	451,232	0,110	-0,178
-562,788	87,888	-0,074	0,060
-561,773	-72,665	0,027	0,007
-560,758	149,082	0,023	-0,022
-559,744	800,000	0,019	0,057
-558,729	-200,000	0,026	0,122
-557,715	-17,934	-0,010	-0,005
-556,700	-121,344	-0,071	-0,009
-555,685	-50,337	0,164	0,056
-554,671	108,963	-0,097	-0,085
-553,656	132,581	0,086	0,082
-552,642	-51,222	0,067	-0,023
-551,627	800,000	-0,051	0,104
-550,612	-124,543	0,077	0,009
-549,598	12,330	0,051	0,029
-548,583	-200,000	-0,012	-0,147
-547,569	800,000	-0,032	-0,069
-546,554	-200,000	0,003	-0,113
-545,539	-200,000	-0,003	0,112
-544,525	28,678	-0,136	0,084
-543,510	310,525	-0,029	0,040
-542,496	800,000	-0,055	0,169
-541,481	51,672	-0,031	0,022
-540,466	163,769	-0,048	0,049
-539,452	-200,000	-0,044	-0,191
-538,437	795,539	0,063	0,128
-537,423	-48,427	-0,064	0,022
-536,408	-200,000	-0,012	0,070
-535,393	400,175	-0,103	-0,159
-534,379	-166,740	0,075	-0,002
-533,364	194,729	-0,006	0,007
-532,350	-78,194	0,020	-0,005
-531,335	34,000	-0,044	-0,028
-530,321	-110,101	0,155	0,023
-529,306	-188,706	-0,134	-0,001
-528,291	598,031	-0,060	-0,110
-527,277	-137,187	-0,101	-0,008
-526,262	-92,976	-0,092	-0,019
-525,248	-200,000	0,019	-0,069
-524,233	76,166	0,117	0,090
-523,218	-49,533	0,118	0,041
-522,204	22,864	0,014	0,008
-521,189	-169,717	-0,066	-0,002
-520,175	-200,000	-0,004	0,053
-519,160	112,071	-0,116	-0,102
-518,145	-95,152	0,109	0,021
-517,131	120,606	0,084	-0,077
-516,116	594,741	-0,039	-0,071
-515,102	795,724	-0,020	-0,040
-514,087	-200,000	0,010	0,053
-513,072	800,000	0,050	-0,115
-512,058	61,154	-0,012	-0,009
-511,043	195,708	0,057	-0,063
-510,029	-200,000	0,011	0,039
-509,014	-200,000	-0,009	0,043
-507,999	800,000	-0,024	0,048
-506,985	163,642	-0,111	-0,114
-505,970	323,163	0,067	-0,094
-504,956	-63,497	-0,076	-0,023
-503,941	-72,760	0,054	0,015
-502,926	190,286	0,083	0,091
-501,912	93,246	0,092	-0,076
-500,897	366,201	-0,107	-0,158
-499,883	-200,000	0,005	-0,040
-498,868	319,805	-0,040	0,056
-497,853	100,190	-0,103	-0,088
-496,839	511,961	-0,014	0,024
-495,824	-66,824	0,151	-0,043
-494,810	131,043	0,040	0,038
-493,795	-24,388	0,290	0,126
-492,781	-47,418	0,052	0,018
-491,766	-72,642	-0,143	-0,038
-490,751	800,000	0,040	-0,094
-489,737	-151,645	0,154	-0,008
-488,722	-25,686	0,018	-0,008
-487,708	-116,653	0,124	0,016
-486,693	800,000	-0,032	-0,103
-485,678	314,366	-0,069	-0,095
-484,664	91,270	-0,079	0,065
-483,649	30,137	0,060	0,037
-482,635	559,711	0,029	-0,051
-481,620	800,000	0,057	0,134
-480,605	224,053	-0,078	-0,092
-479,591	0,648	-0,089	0,046
-478,576	-200,000	-0,018	-0,078
-477,562	-44,203	0,098	0,036
-476,547	-51,680	0,060	-0,020
-475,532	800,000	0,021	-0,047
-474,518	18,220	0,103	0,060
-473,503	800,000	-0,046	-0,108
-472,489	-157,782	-0,079	0,003
-471,474	116,342	-0,105	0,094
-470,459	-200,000	-0,016	-0,098
-469,445	-182,234	0,085	0,001
-468,430	-200,000	-0,007	-0,031
-467,416	374,540	0,029	-0,043
-466,401	788,741	-0,049	-0,100
-465,386	-200,000	-0,012	-0,042
-464,372	800,000	-0,011	-0,034
-463,357	-200,000	0,023	0,111
-462,343	-38,278	-0,117	-0,045
-461,328	-41,125	-0,064	0,024
-460,313	176,650	0,057	-0,060
-459,299	-75,395	0,073	0,019
-458,284	295,296	-0,137	0,183
-457,270	26,087	0,129	-0,078
-456,255	800,000	0,031	-0,071
-455,241	199,161	0,046	0,052
-454,226	800,000	-0,049	0,113
-453,211	-200,000	-0,008	0,105
-452,197	-200,000	-0,021	-0,172
-451,182	-200,000	-0,010	-0,075
-450,168	280,332	-0,084	0,110
-449,153	-200,000	-0,000	0,023
-448,138	800,000	-0,051	0,110
-447,124	-200,000	0,012	-0,143
-446,109	67,749	0,105	-0,078
-445,095	800,000	0,056	-0,114
-444,080	365,043	0,019	0,028
-443,065	442,927	0,016	-0,025
-442,051	-131,348	0,053	-0,005
-441,036	296,905	-0,044	0,059
-440,022	-200,000	-0,003	-0,136
-439,007	429,771	-0,039	0,061
-437,992	138,870	0,016	-0,016
-436,978	-200,000	0,008	-0,039
-435,963	31,051	-0,096	0,060
-434,949	800,000	-0,066	-0,172
-433,934	40,818	0,025	0,016
-432,919	800,000	-0,038	-0,103
-431,905	572,272	-0,029	-0,051
-430,890	248,266	0,078	-0,096
-429,876	-167,760	0,122	-0,003
-428,861	560,776	-0,007	0,012
-427,846	-113,468	0,196	-0,028
-426,832	-200,000	-0,029	-0,125
-425,817	800,000	0,044	-0,112
-424,803	800,000	0,040	0,102
-423,788	-106,641	-0,071	-0,011
-422,773	-200,000	-0,003	-0,103
-421,759	-200,000	0,033	0,163
-420,744	122,106	-0,059	-0,054
-419,730	128,065	-0,055	-0,051
-418,715	800,000	-0,051	-0,115
-417,701	350,778	0,019	0,028
-416,686	566,614	-0,066	-0,117
-415,671	552,664	-0,023	0,040
-414,657	541,201	-0,046	0,080
-413,642	-200,000	0,008	0,128
-412,628	-200,000	0,001	-0,109
-411,613	-200,000	0,001	-0,027
-410,598	465,850	0,075	-0,122
-409,584	-157,954	0,149	0,006
-408,569	-131,536	-0,093	0,009
-407,555	800,000	-0,041	0,105
-406,540	800,000	0,018	0,037
-405,525	91,175	-0,091	-0,074
-404,511	800,000	0,052	-0,158
-403,496	-200,000	0,001	-0,066
-402,482	-52,614	-0,109	0,037
-401,467	-132,289	0,084	0,008
-400,452	12,877	0,073	0,041
-399,438	404,930	-0,038	0,059
-398,423	177,655	0,070	0,074
-397,409	-72,160	0,075	-0,020
-396,394	6,857	0,037	0,020
-395,379	-89,193	-0,067	-0,014
-394,365	353,868	0,034	-0,049
-393,350	54,000	0,061	0,042
-392,336	118,500	0,147	0,132
-391,321	-63,301	0,045	0,014
-390,306	318,416	-0,017	-0,024
-389,292	-124,570	-0,029	-0,003
-388,277	-99,339	0,018	-0,003
-387,263	259,300	0,066	-0,082
-386,248	-200,000	0,029	0,120
-385,233	-200,000	0,004	0,041
-384,219	7,162	0,104	0,057
-383,204	89,249	-0,031	-0,025
-382,190	689,057	-0,053	-0,101
-381,175	297,063	0,049	-0,066
-380,160	156,951	0,074	-0,075
-379,146	471,263	-0,036	0,060
-378,131	145,743	0,060	-0,059
-377,117	-167,372	0,075	-0,002
-376,102	140,143	-0,030	-0,029
-375,088	-200,000	-0,011	0,052
-374,073	44,794	-0,056	0,037
-373,058	-55,320	0,119	0,039
-372,044	296,433	0,097	0,130
-371,029	-200,000	0,023	0,100
-370,015	74,118	-0,060	-0,046
-369,000	-200,000	-0,005	-0,211
-367,985	425,605	0,032	-0,050
-366,971	-200,000	-0,014	-0,105
-365,956	-200,000	0,005	-0,070
-364,942	73,744	0,105	0,080
-363,927	456,233	0,027	0,044
-362,912	800,000	-0,057	0,115
-361,898	-200,000	-0,016	-0,107
-360,883	0,298	-0,098	-0,051
-359,869	-200,000	0,004	0,013
-358,854	151,401	0,133	0,132
-357,839	112,762	-0,070	-0,061
-356,825	224,042	0,067	-0,079
-355,810	13,363	-0,149	-0,084
-354,796	41,030	0,053	0,035
-353,781	-148,434	-0,123	0,007
-352,766	-196,137	-0,042	-0,000
-351,752	477,388	-0,043	-0,071
-350,737	-37,797	0,086	-0,033
-349,723	800,000	-0,047	0,108
-348,708	-200,000	0,011	0,042
-347,693	-4,716	-0,081	0,040
-346,679	-158,917	-0,093	-0,004
-345,664	-120,150	-0,146	-0,018
-344,650	-105,007	-0,050	-0,008
-343,635	-200,000	0,003	-0,035
-342,620	-143,311	0,158	0,011
-341,606	271,939	0,031	0,039
-340,591	-200,000	0,010	0,180
-339,577	-200,000	0,000	0,048
-338,562	-28,453	-0,031	-0,013
-337,548	70,744	0,128	0,096
-336,533	800,000	0,036	0,091
-335,518	-108,069	0,112	-0,017
-334,504	321,503	0,027	-0,038
-333,489	-94,605	-0,123	-0,024
-332,475	408,933	-0,029	-0,045
-331,460	800,000	0,031	-0,099
-330,445	-200,000	0,006	0,039
-329,431	-69,024	0,086	0,024
-328,416	714,703	0,043	0,083
-327,402	800,000	0,006	-0,012
-326,387	395,279	-0,029	0,043
-325,372	-200,000	-0,018	0,100
-324,358	-45,347	0,040	-0,014
-323,343	-200,000	0,015	-0,084
-322,329	1,331	0,026	-0,013
-321,314	121,766	0,099	0,089
-320,299	800,000	-0,083	0,194
-319,285	127,445	-0,109	0,100
-318,270	-23,253	-0,039	0,017
-317,256	312,204	0,073	0,100
-316,241	183,112	-0,042	0,045
-315,226	722,937	-0,018	0,035
-314,212	-200,000	-0,016	-0,074
-313,197	-200,000	0,003	0,039
-312,183	193,931	0,097	0,107
-311,168	-97,543	-0,080	0,015
-310,153	-25,127	-0,082	-0,035
-309,139	8,753	-0,081	0,044
-308,124	-200,000	0,008	-0,050
-307,110	102,559	0,067	-0,057
-306,095	800,000	-0,040	0,121
-305,080	152,460	-0,063	-0,062
-304,066	366,101	-0,085	-0,124
-303,051	-51,999	-0,099	-0,033
-302,037	247,436	0,046	0,056
-301,022	-156,807	0,144	0,006
-300,008	549,856	0,074	0,130
-298,993	112,590	0,083	-0,073
-297,978	-59,474	0,074	0,023
-296,964	800,000	0,040	0,103
-295,949	489,221	-0,113	-0,189
-294,935	-74,048	-0,073	-0,019
-293,920	-150,396	-0,108	-0,006
-292,905	800,000	0,052	0,108
-291,891	-200,000	0,002	0,045
-290,876	-51,848	0,039	0,013
-289,862	-96,263	0,069	0,013
-288,847	384,519	-0,063	-0,094
-287,832	307,991	0,051	0,069
-286,818	128,356	-0,030	0,027
-285,803	-57,414	0,123	0,039
-284,789	-64,764	-0,066	-0,019
-283,774	288,674	-0,074	0,097
-282,759	148,603	0,062	-0,061
-281,745	28,054	-0,202	-0,123
-280,730	800,000	-0,038	0,080
-279,716	68,912	-0,040	-0,030
-278,701	19,858	-0,019	-0,011
-277,686	-200,000	0,013	-0,086
-276,672	-138,924	0,104	0,008
-275,657	-59,413	0,100	-0,031
-274,643	800,000	-0,036	-0,086
-273,628	-42,383	-0,017	0,006
-272,613	19,509	-0,061	-0,035
-271,599	-156,191	-0,091	-0,004
-270,584	-120,145	0,134	-0,016
-269,570	447,358	0,079	0,126
-268,555	-90,867	-0,005	-0,001
-267,540	-52,373	-0,126	-0,042
-266,526	-200,000	0,004	-0,072
-265,511	450,146	-0,053	0,085
-264,497	372,545	0,055	0,081
-263,482	66,034	-0,081	0,060
-262,467	206,895	0,063	0,072
-261,453	208,295	-0,074	-0,084
-260,438	-200,000	-0,015	0,060
-259,424	-128,937	-0,073	-0,007
-258,409	-89,482	-0,172	-0,036
-257,395	-89,763	0,150	0,032
-256,380	800,000	0,021	-0,046
-255,365	228,478	-0,022	0,026
-254,351	102,573	-0,044	0,038
-253,336	-200,000	0,014	0,190
-252,322	-142,862	-0,038	0,003
-251,307	174,315	-0,047	0,049
-250,292	800,000	-0,018	-0,048
-249,278	-200,000	0,010	-0,051
-248,263	-200,000	0,000	-0,016
-247,249	623,574	0,057	-0,104
-246,234	-200,000	-0,006	0,078
-245,219	146,608	-0,050	0,049
-244,205	80,345	-0,058	0,045
-243,190	-200,000	0,000	0,059
-242,176	-200,000	0,010	0,123
-241,161	-41,561	0,132	-0,049
-240,146	198,553	0,065	-0,072
-239,132	-130,468	-0,085	-0,008
-238,117	-64,249	0,074	-0,022
-237,103	800,000	0,040	-0,096
-236,088	184,579	-0,050	0,054
-235,073	-200,000	-0,034	0,133
-234,059	-200,000	-0,004	0,061
-233,044	41,812	0,073	-0,048
-232,030	-133,068	-0,100	-0,009
-231,015	252,854	-0,033	-0,041
-230,000	434,563	-0,083	-0,131
-228,986	-200,000	-0,005	0,053
-227,971	-200,000	-0,004	0,218
-226,957	125,235	-0,055	0,050
-225,942	223,303	0,033	0,038
-224,927	4,027	0,054	0,028
-223,913	800,000	0,045	-0,104
-222,898	28,319	0,144	0,088
-221,884	-200,000	0,022	0,092
-220,869	46,932	0,091	0,061
-219,855	427,834	0,058	0,090
-218,840	-200,000	-0,005	0,069
-217,825	-68,275	-0,047	0,013
-216,811	-200,000	-0,014	-0,064
-215,796	-72,935	-0,103	0,027
-214,782	47,102	-0,037	0,025
-213,767	54,303	0,059	0,041
-212,752	800,000	-0,025	0,058
-211,738	682,169	-0,049	0,093
-210,723	462,022	-0,047	-0,077
-209,709	-145,283	-0,075	-0,005
-208,694	5,991	0,094	-0,050
-207,679	75,748	-0,042	-0,032
-206,665	-200,000	-0,004	0,070
-205,650	-102,931	-0,097	0,016
-204,636	-200,000	-0,032	0,127
-203,621	-60,627	-0,038	0,012
-202,606	-200,000	-0,024	0,078
-201,592	-115,025	-0,102	-0,014
-200,577	-46,299	-0,147	-0,052
-199,563	-200,000	0,018	-0,148
-198,548	-142,316	0,051	-0,004
-197,533	586,181	0,071	0,127
-196,519	800,000	0,042	-0,131
-195,504	473,582	-0,012	0,020
-194,490	205,613	-0,052	0,058
-193,475	-200,000	0,037	-0,148
-192,460	-200,000	-0,013	0,096
-191,446	-200,000	0,014	-0,049
-190,431	-200,000	0,017	0,107
-189,417	-44,427	-0,078	0,028
-188,402	-88,508	-0,110	0,024
-187,387	-200,000	-0,020	0,090
-186,373	-92,015	-0,066	0,013
-185,358	51,096	0,045	-0,031
-184,344	329,234	-0,035	0,049
-183,329	-200,000	0,002	-0,035
-182,315	-101,148	0,079	0,014
-181,300	-19,253	-0,089	0,040
-180,285	444,504	-0,018	-0,028
-179,271	-82,288	-0,148	0,034
-178,256	222,306	0,084	-0,097
-177,242	562,375	0,099	0,173
-176,227	102,399	0,131	0,110
-175,212	146,902	-0,023	0,022
-174,198	-141,663	0,189	-0,013
-173,183	335,686	0,005	-0,007
-172,169	-78,702	-0,030	-0,007
-171,154	-200,000	-0,001	-0,093
-170,139	-120,536	0,214	0,026
-169,125	677,320	0,045	-0,084
-168,110	-130,740	0,105	0,010
-167,096	281,755	0,038	-0,050
-166,081	396,772	0,065	-0,098
-165,066	-200,000	0,010	-0,086
-164,052	-76,731	-0,091	0,023
-163,037	-66,981	-0,143	-0,041
-162,023	402,071	0,032	-0,049
-161,008	-119,646	-0,172	0,021
-159,993	166,404	-0,035	0,036
-158,979	3,659	0,085	0,045
-157,964	154,623	0,065	-0,065
-156,950	-200,000	-0,005	-0,097
-155,935	-165,553	0,067	0,002
-154,920	202,821	0,056	-0,063
-153,906	204,652	0,070	-0,078
-152,891	-99,627	-0,030	0,005
-151,877	35,130	0,022	0,014
-150,862	-74,077	-0,044	0,012
-149,847	-98,600	-0,014	0,002
-148,833	-200,000	-0,004	0,086
-147,818	734,185	0,061	0,118
-146,804	194,466	-0,097	0,106
-145,789	635,044	0,066	0,121
-144,775	-49,290	-0,121	-0,041
-143,760	196,216	0,084	0,093
-142,745	-23,382	-0,089	-0,038
-141,731	-200,000	-0,005	0,071
-140,716	-200,000	-0,003	0,011
-139,702	-200,000	0,006	0,121
-138,687	406,923	-0,089	-0,137
-137,672	-200,000	0,011	-0,047
-136,658	-24,739	-0,143	-0,061
-135,643	-148,324	0,089	-0,005
-134,629	800,000	-0,009	0,025
-133,614	-132,415	0,040	0,004
-132,599	-98,428	0,101	-0,018
-131,585	-58,612	-0,131	0,041
-130,570	800,000	0,033	0,069
-129,556	800,000	-0,015	0,040
-128,541	-200,000	-0,013	0,064
-127,526	-200,000	0,010	-0,042
-126,512	137,323	0,018	0,017
-125,497	-127,359	0,135	0,014
-124,483	-200,000	0,020	0,140
-123,468	-200,000	0,005	-0,139
-122,453	-200,000	0,004	0,027
-121,439	-200,000	0,016	-0,094
-120,424	160,191	0,075	-0,076
-119,410	-200,000	0,007	0,113
-118,395	47,759	0,058	-0,039
-117,380	445,525	-0,053	-0,084
-116,366	-92,346	-0,059	-0,012
-115,351	800,000	-0,050	-0,120
-114,337	-145,572	-0,147	-0,009
-113,322	-106,770	0,086	0,014
-112,307	135,901	-0,056	-0,053
-111,293	-200,000	0,001	-0,017
-110,278	187,727	-0,059	0,064
-109,264	30,647	0,030	-0,018
-108,249	-200,000	0,022	-0,074
-107,234	-50,991	-0,064	0,021
-106,220	-71,109	0,104	-0,028
-105,205	-46,667	0,094	0,033
-104,191	-133,823	0,045	-0,004
-103,176	-157,833	0,129	-0,005
-102,162	365,827	-0,089	0,130
-101,147	109,482	-0,051	0,044
-100,132	-8,926	-0,111	-0,054
-99,118	83,855	-0,088	-0,069
-98,103	-200,000	-0,015	-0,054
-97,089	155,935	0,072	0,072
-96,074	2,396	0,076	-0,040
-95,059	13,994	-0,057	-0,032
-94,045	800,000	-0,030	-0,068
-93,030	773,310	-0,046	0,091
-92,016	-200,000	0,021	-0,067
-91,001	-200,000	-0,020	0,077
-89,986	427,559	0,085	-0,132
-88,972	-96,210	-0,095	0,018
-87,957	193,102	0,057	-0,061
-86,943	324,773	-0,028	-0,039
-85,928	133,531	0,060	-0,056
-84,913	146,683	0,079	-0,076
-83,899	116,896	-0,127	-0,112
-82,884	-73,693	-0,117	0,030
-81,870	-59,361	0,098	0,030
-80,855	-200,000	0,006	0,020
-79,840	1,272	0,101	-0,052
-78,826	800,000	-0,029	0,090
-77,811	-70,911	-0,066	0,018
-76,797	59,465	0,039	-0,028
-75,782	150,843	-0,030	0,030
-74,767	-18,934	0,027	0,012
-73,753	24,322	0,111	0,066
-72,738	-35,211	-0,146	-0,057
-71,724	800,000	-0,073	-0,169
-70,709	254,522	-0,028	0,034
-69,694	101,541	-0,075	0,063
-68,680	-26,235	-0,032	0,014
-67,665	324,150	0,035	-0,048
-66,651	186,286	-0,043	-0,046
-65,636	124,741	0,045	-0,041
-64,622	-58,396	0,111	0,034
-63,607	282,016	0,032	0,041
-62,592	800,000	-0,023	0,068
-61,578	800,000	0,034	0,076
-60,563	66,263	0,023	0,017
-59,549	105,966	-0,035	-0,030
-58,534	-22,590	-1,825	-0,789
-57,519	800,000	-0,333	-0,903
-56,505	-200,000	-1,245	-4,798
-55,490	-15,444	0,808	0,369
-54,476	800,000	5,340	12,055
-53,461	-200,000	17,032	280,165
-52,446	800,000	720,118	2221,584
-51,432	545,217	1634,959	2816,632
-50,417	113,237	1630,153	1419,915
-49,403	76,785	1287,620	980,294
-48,388	33,434	1031,014	641,526
-47,373	20,447	992,515	574,633
-46,359	19,025	980,865	563,186
-45,344	16,595	976,961	552,941
-44,330	16,770	975,385	552,603
-43,315	16,374	973,564	550,250
-42,300	16,377	972,422	549,595
-41,286	16,313	971,443	548,811
-40,271	16,419	970,477	548,586
-39,257	16,374	969,553	547,899
-38,242	16,345	968,829	547,371
-37,227	16,330	967,923	546,790
-36,213	16,323	967,073	546,266
-35,198	16,291	966,309	545,709
-34,184	16,377	965,582	545,556
-33,169	16,293	964,444	544,617
-32,154	16,350	963,452	544,219
-31,140	16,322	962,546	543,598
-30,125	16,406	961,736	543,390
-29,111	16,367	960,912	542,775
-28,096	16,309	960,597	542,390
-27,082	16,292	959,716	541,814
-26,067	16,345	959,031	541,579
-25,052	16,338	958,281	541,109
-24,038	16,365	957,457	540,711
-23,023	16,322	956,781	540,169
-22,009	16,349	956,234	539,924
-20,994	16,340	955,702	539,574
-19,979	16,352	955,098	539,252
-18,965	16,330	954,394	538,761
-17,950	16,383	953,761	538,552
-16,936	16,349	953,068	538,032
-15,921	16,262	952,275	537,284
-14,906	16,150	951,896	536,690
-13,892	16,221	951,143	536,472
-12,877	16,189	950,374	535,914
-11,863	16,163	949,907	535,547
-10,848	16,161	949,407	535,235
-9,833	16,346	948,677	535,394
-8,819	16,298	947,885	534,774
-7,804	16,225	947,493	534,297
-6,790	16,178	946,965	533,829
-5,775	16,194	946,340	533,508
-4,760	16,245	945,616	533,238
-3,746	16,208	944,868	532,680
-2,731	16,070	944,453	531,987
-1,717	16,037	943,841	531,515
-0,702	16,055	943,087	531,128
0,313	15,877	942,352	530,950
1,327	19,145	940,431	540,150
2,342	28,389	797,547	482,662
3,356	25,144	461,137	274,067
4,371	-2,533	315,334	157,917
5,386	-6,523	296,844	144,597
6,400	-8,529	290,846	139,666
7,415	-8,916	288,365	138,081
8,429	-9,307	287,092	137,074
9,444	-9,139	286,070	136,738
10,459	-9,025	285,307	136,473
11,473	-9,012	284,723	136,194
12,488	-9,030	284,348	135,985
13,502	-9,133	283,787	135,604
14,517	-9,107	283,353	135,410
15,531	-9,107	282,713	135,093
16,546	-8,989	282,525	135,105
17,561	-9,135	282,121	134,759
18,575	-8,991	281,757	134,711
19,590	-9,195	281,443	134,353
20,604	-9,164	281,161	134,236
21,619	-9,066	280,634	134,066
22,634	-9,179	280,433	133,850
23,648	-9,056	279,990	133,745
24,663	-9,188	279,865	133,546
25,677	-9,027	279,601	133,563
26,692	-9,254	279,336	133,208
27,707	-9,254	279,098	133,082
28,721	-9,255	278,753	132,905
29,736	-9,269	278,499	132,758
30,750	-9,152	278,291	132,759
31,765	-9,300	278,080	132,505
32,780	-9,033	277,684	132,559
33,794	-9,147	277,452	132,327
34,809	-9,275	277,293	132,119
35,823	-9,224	276,998	132,015
36,838	-9,032	276,570	131,980
37,853	-9,254	276,441	131,698
38,867	-9,231	276,259	131,621
39,882	-9,156	275,910	131,513
40,896	-9,352	275,791	131,260
41,911	-9,205	275,442	131,221
42,926	-9,151	275,236	131,162
43,940	-9,268	274,910	130,885
44,955	-9,078	274,599	130,903
45,969	-9,335	274,550	130,628
46,984	-9,392	274,209	130,400
47,999	-9,616	273,982	130,071
49,013	-9,721	273,774	129,863
50,028	-9,774	273,498	129,671
51,042	-9,807	273,121	129,450
52,057	-9,980	272,892	129,169
53,071	-9,694	272,623	129,296
54,086	-9,632	272,592	129,327
55,101	-9,650	272,413	129,214
56,115	-9,426	272,240	129,328
57,130	-9,306	272,182	129,400
58,144	-9,062	271,905	129,484
59,159	-9,150	271,714	129,299
60,174	-9,065	271,531	129,280
61,188	-8,984	271,177	129,174
62,203	-9,314	271,172	128,855
63,217	-8,993	270,726	128,929
64,232	-8,953	270,521	128,856
65,247	-9,069	270,293	128,630
66,261	-9,026	270,133	128,581
67,276	-9,178	269,922	128,329
68,290	-9,418	269,678	127,981
69,305	-9,535	269,457	127,758
70,320	-9,382	269,303	127,814
71,334	-9,138	268,978	127,871
72,349	-9,081	268,867	127,859
73,363	-9,028	268,665	127,801
74,378	-9,069	268,482	127,665
75,393	-9,035	268,073	127,490
76,407	-9,080	268,183	127,490
77,422	-9,044	267,932	127,391
78,436	-9,049	267,629	127,231
79,451	-8,922	267,453	127,253
80,466	-9,017	267,204	127,037
81,480	-9,384	266,944	126,568
82,495	-9,134	266,609	126,625
83,509	-9,092	266,414	126,559
84,524	-9,174	266,276	126,408
85,539	-9,444	266,099	126,068
86,553	-9,454	265,954	125,978
87,568	-9,363	265,612	125,888
88,582	-9,310	265,449	125,848
89,597	-9,261	265,333	125,826
90,611	-9,219	265,081	125,733
91,626	-9,075	264,942	125,785
92,641	-8,984	264,731	125,755
93,655	-9,216	264,495	125,423
94,670	-9,150	264,148	125,307
95,684	-9,206	264,045	125,197
96,699	-9,231	263,867	125,078
97,714	-9,142	263,659	125,049
98,728	-9,267	263,429	124,817
99,743	-9,569	263,311	124,479
100,757	-9,430	262,933	124,414
101,772	-9,312	262,834	124,462
102,787	-9,174	262,593	124,459
103,801	-9,121	262,433	124,419
104,816	-9,267	262,372	124,250
105,830	-9,087	262,079	124,260
106,845	-9,075	261,860	124,155
107,860	-9,340	261,657	123,812
108,874	-9,001	261,455	124,007
109,889	-9,370	261,406	123,646
110,903	-9,322	261,133	123,547
111,918	-9,353	260,845	123,373
112,933	-9,163	260,637	123,432
113,947	-9,065	260,589	123,484
114,962	-8,921	260,347	123,486
115,976	-9,130	260,193	123,218
116,991	-9,147	260,081	123,139
118,006	-9,159	259,863	123,014
119,020	-9,366	259,745	122,765
120,035	-9,079	259,485	122,883
121,049	-9,226	259,445	122,724
122,064	-9,185	259,234	122,650
123,079	-9,252	259,040	122,488
124,093	-9,013	258,674	122,514
125,108	-9,267	258,469	122,183
126,122	-9,363	258,212	121,966
127,137	-9,558	258,002	121,686
128,151	-9,483	257,928	121,706
129,166	-9,472	257,638	121,567
130,181	-9,320	257,427	121,590
131,195	-9,267	257,078	121,460
132,210	-9,170	257,001	121,497
133,224	-9,139	256,940	121,485
134,239	-9,034	256,578	121,394
135,254	-9,203	256,345	121,126
136,268	-9,208	256,238	121,060
137,283	-9,530	256,044	120,679
138,297	-9,316	255,814	120,745
139,312	-9,544	255,517	120,396
140,327	-9,151	255,501	120,718
141,341	-9,014	255,472	120,812
142,356	-9,173	255,230	120,550
143,370	-8,962	254,993	120,609
144,385	-8,761	255,000	120,775
145,400	-8,985	254,922	120,535
146,414	-8,711	254,474	120,548
147,429	-8,970	254,323	120,242
148,443	-8,900	254,175	120,222
149,458	-9,045	254,001	120,004
150,473	-8,960	253,961	120,048
151,487	-9,114	253,672	119,769
152,502	-9,019	253,493	119,754
153,516	-8,932	253,111	119,638
154,531	-8,892	252,983	119,601
155,546	-9,010	252,896	119,448
156,560	-8,818	252,649	119,485
157,575	-9,254	252,510	119,036
158,589	-8,886	252,305	119,242
159,604	-8,982	252,141	119,073
160,619	-9,003	251,981	118,968
161,633	-9,028	251,772	118,838
162,648	-9,004	251,752	118,839
163,662	-8,962	251,504	118,747
164,677	-8,864	251,349	118,746
165,692	-8,909	251,108	118,584
166,706	-8,905	250,976	118,514
167,721	-8,726	250,938	118,637
168,735	-8,849	250,800	118,457
169,750	-8,840	250,589	118,355
170,764	-8,747	250,435	118,350
171,779	-8,827	250,144	118,134
172,794	-8,780	250,048	118,118
173,808	-8,977	249,877	117,861
174,823	-9,421	249,585	117,338
175,837	-9,568	249,282	117,062
176,852	-9,205	249,371	117,399
177,867	-8,956	249,264	117,547
178,881	-8,866	249,058	117,515
179,896	-8,980	248,885	117,328
180,910	-8,872	248,583	117,265
181,925	-8,893	248,551	117,222
182,940	-8,746	248,210	117,174
183,954	-8,860	248,108	117,020
184,969	-8,913	248,009	116,918
185,983	-8,707	247,746	116,956
186,998	-8,817	247,632	116,800
188,013	-8,817	247,523	116,738
189,027	-8,688	247,289	116,725
190,042	-8,893	247,127	116,467
191,056	-8,789	247,120	116,540
192,071	-8,696	246,739	116,428
193,086	-8,936	246,588	116,146
194,100	-8,861	246,469	116,143
195,115	-8,621	246,198	116,204
196,129	-8,806	246,000	115,946
197,144	-8,890	245,906	115,822
198,159	-8,997	245,830	115,687
199,173	-8,891	245,541	115,629
200,188	-8,810	245,286	115,565
201,202	-9,149	245,055	115,166
202,217	-9,409	244,750	114,798
203,232	-9,447	244,566	114,670
204,246	-9,135	244,697	114,979
205,261	-8,702	244,475	115,220
206,275	-9,544	244,103	114,343
207,290	-6,169	245,481	117,764
208,304	-0,117	247,317	123,654
209,319	2,104	247,810	125,731
210,334	2,419	247,722	125,936
211,348	2,810	247,727	126,251
212,363	2,846	247,602	126,206
213,377	3,377	247,472	126,567
214,392	3,186	247,402	126,362
215,407	3,063	247,212	126,152
216,421	2,996	247,129	126,043
217,436	3,218	247,020	126,160
218,450	3,334	246,717	126,089
219,465	3,116	246,546	125,811
220,480	2,836	246,411	125,502
221,494	3,142	246,111	125,588
222,509	3,019	246,074	125,457
223,523	3,024	245,866	125,344
224,538	2,685	245,484	124,861
225,553	2,615	245,439	124,769
226,567	2,647	245,439	124,784
227,582	3,042	245,178	124,964
228,596	2,905	245,064	124,783
229,611	2,607	244,760	124,373
230,626	2,479	244,548	124,150
231,640	2,649	244,481	124,243
232,655	2,737	244,403	124,264
233,669	2,667	244,253	124,120
234,684	2,622	243,958	123,923
235,699	3,062	243,939	124,260
236,713	3,048	243,907	124,221
237,728	2,977	243,581	123,986
238,742	2,666	243,423	123,642
239,757	2,789	243,119	123,577
240,772	2,773	243,064	123,525
241,786	2,826	242,942	123,494
242,801	2,520	242,602	123,063
243,815	2,501	242,632	123,052
244,830	2,713	242,505	123,148
245,844	2,885	242,317	123,180
246,859	2,876	242,207	123,106
247,874	2,783	241,935	122,882
248,888	2,836	241,748	122,818
249,903	2,839	241,658	122,764
250,917	3,060	241,669	122,937
251,932	3,105	241,597	122,925
252,947	3,099	241,279	122,748
253,961	2,656	241,099	122,290
254,976	2,757	240,902	122,260
255,990	3,003	240,896	122,443
257,005	2,765	240,645	122,114
258,020	2,540	240,399	121,799
259,034	2,869	240,226	121,963
260,049	2,970	240,088	121,962
261,063	2,653	239,901	121,604
262,078	2,680	239,694	121,509
263,093	2,964	239,623	121,689
264,107	2,849	239,611	121,580
265,122	2,636	239,369	121,278
266,136	2,896	239,296	121,437
267,151	3,244	239,102	121,603
268,166	2,812	238,880	121,137
269,180	2,457	238,640	120,723
270,195	3,180	238,692	121,312
271,209	3,392	238,478	121,361
272,224	2,810	238,143	120,718
273,239	2,505	238,055	120,422
274,253	2,811	237,942	120,596
275,268	2,808	237,877	120,549
276,282	2,802	237,618	120,403
277,297	2,761	237,428	120,264
278,312	2,720	237,395	120,204
279,326	2,978	237,247	120,322
280,341	2,864	237,013	120,102
281,355	2,995	236,874	120,125
282,370	3,215	236,743	120,220
283,384	3,016	236,547	119,954
284,399	2,738	236,332	119,615
285,414	2,591	236,317	119,482
286,428	2,725	236,168	119,501
287,443	2,812	236,001	119,475
288,457	3,140	235,947	119,693
289,472	3,101	235,846	119,601
290,487	3,029	235,479	119,348
291,501	2,792	235,337	119,080
292,516	2,482	235,072	118,693
293,530	2,595	234,975	118,722
294,545	2,618	234,858	118,670
295,560	2,788	234,932	118,830
296,574	2,580	234,558	118,468
297,589	2,551	234,354	118,332
298,603	3,082	234,360	118,737
299,618	3,039	234,268	118,647
300,633	2,976	234,193	118,549
301,647	2,948	234,086	118,462
302,662	3,255	234,053	118,673
303,676	3,358	233,783	118,606
304,691	3,151	233,599	118,342
305,706	3,344	233,449	118,404
306,720	3,228	233,290	118,223
307,735	3,024	233,212	118,016
308,749	2,833	232,865	117,682
309,764	2,648	232,778	117,485
310,779	2,767	232,522	117,437
311,793	2,437	232,372	117,096
312,808	2,642	232,177	117,146
313,822	2,400	232,012	116,867
314,837	2,439	231,836	116,797
315,852	2,487	231,707	116,758
316,866	2,970	231,709	117,119
317,881	3,021	231,653	117,120
318,895	3,358	231,485	117,282
319,910	3,380	231,345	117,218
320,925	2,968	231,056	116,746
321,939	2,681	230,977	116,477
322,954	2,879	230,859	116,558
323,968	2,954	230,584	116,466
324,983	2,831	230,353	116,245
325,997	3,005	230,392	116,387
327,012	2,782	230,114	116,066
328,027	2,863	230,034	116,077
329,041	3,262	230,180	116,444
330,056	3,739	230,179	116,796
331,070	3,604	229,925	116,554
332,085	3,160	229,472	115,977
333,100	3,149	229,107	115,775
334,114	2,944	229,276	115,694
335,129	3,389	229,039	115,901
336,143	3,055	229,085	115,661
337,158	3,454	228,779	115,798
338,173	3,320	228,731	115,662
339,187	3,089	228,545	115,383
340,202	3,131	228,393	115,328
341,216	3,062	228,329	115,234
342,231	3,089	228,162	115,160
343,246	3,105	227,914	115,036
344,260	3,128	227,948	115,060
345,275	3,222	227,849	115,071
346,289	3,180	227,702	114,955
347,304	3,469	227,441	115,030
348,319	3,317	227,335	114,851
349,333	3,018	227,157	114,527
350,348	3,012	226,885	114,375
351,362	3,181	226,867	114,482
352,377	3,027	226,717	114,281
353,392	3,013	226,366	114,084
354,406	2,986	226,319	114,030
355,421	195,927	1322,436	1401,405
356,435	157,072	1455,991	1401,418
