DTS Sentinel unit serial number:	SN410029Multiplexer serial number:	ORYXHardware model number:	OX2-SRSoftware version number:	ORYX F/W v4,00 Oryx Data Collector v3.7.2.0data status	okinstallation	B5 Nyhavnadifferential loss correction	single-endedforward channel	channel 2reverse channel	N/Adate	2023/12/12time	05:42:13forward acquisition time	300,00reverse acquisition time	0,00gamma	499,1914k internal	0,3157k external	0,3157temperature offset calibration	1,0000default loss term (dB/km)	0,3820temperature slope calibration	1,0000multiplexer offset coefficient	1,0000multiplexer slope coefficient	1,0000fibre end	0,00T internal ref (°C)	15,33T ext. ref 1 (°C)	-1,05T ext. ref 2 (°C)	-1,35length (m)	temperature (°C)	Stokes	anti-Stokes-744,400	-200,000	-0,010	-0,062
-743,385	-83,695	-0,170	0,040
-742,371	800,000	0,086	0,218
-741,356	-132,895	-0,250	0,023
-740,342	-148,295	0,112	0,007
-739,327	-190,350	-0,268	0,002
-738,312	-99,682	0,086	-0,016
-737,298	-87,043	-0,403	0,090
-736,283	-58,319	0,149	0,048
-735,269	-25,625	-0,160	0,069
-734,254	-200,000	0,002	0,038
-733,239	-156,468	-0,456	-0,021
-732,225	365,231	0,168	0,251
-731,210	-14,990	0,084	0,039
-730,196	-200,000	-0,034	-0,114
-729,181	-40,721	-0,045	0,017
-728,167	207,547	0,044	-0,051
-727,152	-18,776	0,008	-0,004
-726,137	238,304	0,035	-0,043
-725,123	-200,000	-0,003	-0,049
-724,108	423,697	0,034	0,053
-723,094	-110,864	0,092	-0,014
-722,079	8,070	-0,066	-0,036
-721,064	800,000	-0,032	0,084
-720,050	-49,784	0,088	-0,031
-719,035	-100,712	-0,101	0,018
-718,021	217,426	-0,102	-0,120
-717,006	800,000	-0,058	0,179
-715,991	339,877	-0,110	-0,158
-714,977	-58,963	-0,143	-0,045
-713,962	-70,798	-0,080	0,022
-712,948	689,610	0,038	0,074
-711,933	149,222	0,078	-0,078
-710,918	-200,000	0,014	0,064
-709,904	-57,968	-0,052	0,017
-708,889	-99,053	-0,110	-0,020
-707,875	800,000	-0,043	-0,096
-706,860	-109,088	-0,151	-0,023
-705,845	-200,000	-0,019	0,101
-704,831	69,191	-0,054	-0,041
-703,816	800,000	0,024	0,059
-702,802	209,067	-0,082	-0,094
-701,787	-73,529	0,068	-0,018
-700,772	277,453	-0,009	-0,012
-699,758	134,306	-0,065	0,062
-698,743	-5,901	0,092	0,046
-697,729	-124,273	-0,090	0,010
-696,714	-7,603	0,129	0,064
-695,699	25,860	-0,038	-0,023
-694,685	-200,000	0,008	-0,030
-693,670	505,262	-0,090	0,154
-692,656	-159,948	0,073	-0,003
-691,641	37,709	-0,125	0,081
-690,627	-15,383	-0,046	0,021
-689,612	-200,000	0,002	0,096
-688,597	-200,000	-0,023	0,107
-687,583	283,870	-0,111	-0,147
-686,568	305,498	-0,012	0,016
-685,554	-102,643	-0,096	-0,017
-684,539	-17,615	-0,057	0,026
-683,524	76,048	0,073	-0,057
-682,510	800,000	-0,049	-0,104
-681,495	-200,000	-0,015	-0,061
-680,481	-55,301	-0,139	-0,046
-679,466	800,000	-0,060	-0,154
-678,451	-40,103	0,049	0,019
-677,437	129,145	-0,094	-0,088
-676,422	733,453	-0,065	-0,129
-675,408	240,406	0,048	-0,059
-674,393	-104,784	0,217	0,036
-673,378	-122,337	-0,142	0,017
-672,364	800,000	0,036	-0,077
-671,349	-99,333	0,046	0,008
-670,335	201,488	0,097	0,110
-669,320	-200,000	-0,024	0,150
-668,305	800,000	-0,055	0,131
-667,291	61,018	0,088	0,064
-666,276	147,652	-0,036	-0,036
-665,262	-7,243	-0,133	-0,066
-664,247	0,021	-0,080	0,042
-663,232	298,818	-0,041	-0,056
-662,218	606,911	0,065	0,119
-661,203	-112,380	-0,078	0,011
-660,189	800,000	-0,023	-0,047
-659,174	-177,448	0,141	0,002
-658,159	-70,435	0,079	0,022
-657,145	800,000	0,021	-0,047
-656,130	-129,000	0,053	0,005
-655,116	-200,000	0,011	0,062
-654,101	8,521	0,082	0,045
-653,086	46,423	0,061	-0,041
-652,072	281,750	0,065	0,085
-651,057	53,275	-0,116	-0,082
-650,043	359,876	0,058	0,086
-649,028	116,237	-0,088	0,079
-648,014	-159,136	0,131	0,005
-646,999	800,000	-0,050	0,138
-645,984	-200,000	-0,013	-0,056
-644,970	12,793	-0,137	0,078
-643,955	800,000	-0,032	-0,095
-642,941	133,034	-0,106	-0,101
-641,926	42,581	0,210	-0,140
-640,911	7,833	-0,059	0,032
-639,897	390,582	0,065	0,099
-638,882	-101,780	-0,119	-0,021
-637,868	800,000	0,039	-0,112
-636,853	27,667	0,074	0,046
-635,838	-200,000	0,014	-0,148
-634,824	-200,000	-0,014	-0,141
-633,809	-200,000	-0,004	0,058
-632,795	510,467	-0,036	0,062
-631,780	-136,291	-0,166	-0,014
-630,765	-158,094	-0,112	0,005
-629,751	-65,117	0,134	-0,039
-628,736	-182,464	-0,213	0,003
-627,722	150,116	0,096	0,096
-626,707	19,858	0,138	0,081
-625,692	-39,985	-0,028	0,011
-624,678	237,238	-0,072	0,088
-623,663	-10,440	0,058	0,028
-622,649	-66,530	-0,120	0,035
-621,634	-200,000	-0,018	0,100
-620,619	19,419	-0,066	-0,039
-619,605	-200,000	-0,034	-0,148
-618,590	346,343	0,087	0,126
-617,576	-200,000	-0,010	0,114
-616,561	-200,000	-0,006	-0,101
-615,546	5,086	-0,101	-0,055
-614,532	-144,566	0,026	-0,002
-613,517	-200,000	0,025	-0,123
-612,503	215,118	-0,063	0,074
-611,488	-95,631	0,109	0,021
-610,474	-83,599	0,063	0,015
-609,459	2,875	-0,096	-0,051
-608,444	-33,264	-0,041	0,016
-607,430	-139,528	0,015	0,001
-606,415	-35,147	-0,136	0,054
-605,401	413,200	-0,028	0,044
-604,386	283,721	-0,070	0,093
-603,371	-200,000	-0,001	0,036
-602,357	617,048	0,033	-0,061
-601,342	800,000	-0,072	0,208
-600,328	-200,000	0,022	-0,098
-599,313	215,582	-0,047	-0,055
-598,298	25,874	0,015	0,009
-597,284	-42,736	0,058	-0,021
-596,269	60,650	-0,023	-0,017
-595,255	383,346	-0,072	-0,108
-594,240	-110,452	0,034	-0,005
-593,225	-70,093	-0,098	0,027
-592,211	800,000	-0,023	-0,059
-591,196	109,932	-0,062	-0,054
-590,182	-73,513	0,067	0,018
-589,167	-7,221	0,075	0,037
-588,152	733,811	-0,016	-0,032
-587,138	-87,318	-0,123	0,027
-586,123	800,000	0,086	-0,210
-585,109	-200,000	-0,022	-0,093
-584,094	-28,003	-0,017	0,007
-583,079	139,270	0,113	0,109
-582,065	800,000	-0,040	0,096
-581,050	-153,352	0,107	0,005
-580,036	-165,313	0,151	0,005
-579,021	158,098	-0,072	-0,073
-578,006	800,000	0,023	0,067
-576,992	257,317	-0,036	0,046
-575,977	-200,000	0,023	0,165
-574,963	-129,185	0,133	0,013
-573,948	47,374	0,140	0,096
-572,934	-200,000	0,000	-0,064
-571,919	800,000	-0,016	0,033
-570,904	-200,000	-0,006	-0,087
-569,890	-200,000	-0,009	-0,078
-568,875	-200,000	-0,008	0,087
-567,861	298,481	0,020	-0,027
-566,846	-200,000	-0,001	0,139
-565,831	138,724	-0,095	0,091
-564,817	-17,398	-0,132	0,060
-563,802	-200,000	0,012	-0,144
-562,788	-200,000	-0,007	0,076
-561,773	107,574	-0,050	0,043
-560,758	-78,027	0,030	0,008
-559,744	3,997	0,101	-0,054
-558,729	-107,015	-0,106	-0,017
-557,715	257,473	0,105	-0,133
-556,700	24,113	-0,093	-0,056
-555,685	-3,218	0,027	0,014
-554,671	123,498	0,066	-0,061
-553,656	28,524	0,042	0,026
-552,642	137,697	0,058	-0,055
-551,627	567,068	0,050	0,090
-550,612	725,985	-0,023	-0,045
-549,598	715,492	0,041	-0,079
-548,583	-200,000	0,004	-0,240
-547,569	183,438	-0,043	-0,046
-546,554	-27,175	0,071	0,030
-545,539	457,429	0,037	0,060
-544,525	80,414	0,049	0,038
-543,510	-47,770	-0,069	0,024
-542,496	-80,424	0,075	-0,018
-541,481	-200,000	0,017	-0,128
-540,466	800,000	-0,013	-0,032
-539,452	-5,938	0,084	-0,042
-538,437	245,216	0,069	-0,085
-537,423	-200,000	0,044	-0,147
-536,408	340,077	-0,064	-0,092
-535,393	-200,000	0,034	-0,136
-534,379	403,291	0,033	-0,050
-533,364	39,503	-0,134	-0,088
-532,350	14,152	-0,077	-0,044
-531,335	279,936	-0,059	-0,077
-530,321	-200,000	0,021	0,090
-529,306	-200,000	0,007	-0,101
-528,291	-62,700	-0,160	-0,048
-527,277	-88,365	-0,112	0,024
-526,262	-87,203	-0,163	0,036
-525,248	-38,153	-0,064	-0,025
-524,233	399,937	0,055	0,085
-523,218	349,587	0,058	0,083
-522,204	497,240	0,056	0,094
-521,189	17,995	-0,014	0,008
-520,175	152,255	0,063	-0,063
-519,160	-92,918	-0,076	0,015
-518,145	-88,146	0,111	0,024
-517,131	-20,868	-0,041	0,018
-516,116	-200,000	0,012	0,139
-515,102	-200,000	0,004	0,110
-514,087	-112,071	-0,054	-0,008
-513,072	800,000	-0,077	0,164
-512,058	-200,000	0,012	-0,043
-511,043	-56,331	0,033	0,011
-510,029	-185,001	0,168	0,002
-509,014	-11,255	-0,050	0,024
-507,999	164,602	0,062	-0,064
-506,985	800,000	-0,064	-0,176
-505,970	800,000	0,033	0,070
-504,956	362,665	-0,048	-0,070
-503,941	-200,000	-0,029	0,111
-502,926	-18,293	0,057	-0,026
-501,912	117,676	0,101	-0,091
-500,897	-87,695	-0,084	-0,018
-499,883	664,207	0,021	-0,039
-498,868	636,270	-0,026	0,049
-497,853	-200,000	-0,010	-0,049
-496,839	51,409	-0,080	0,056
-495,824	-29,885	-0,063	0,026
-494,810	640,043	-0,050	0,093
-493,795	-14,873	0,079	0,037
-492,781	-200,000	-0,013	-0,168
-491,766	670,028	0,042	-0,080
-490,751	800,000	-0,002	-0,005
-489,737	221,267	-0,082	-0,096
-488,722	-168,679	0,139	-0,004
-487,708	162,737	0,127	0,130
-486,693	114,606	0,077	-0,069
-485,678	3,279	0,097	0,051
-484,664	4,848	-0,106	-0,057
-483,649	167,176	0,119	0,123
-482,635	-200,000	0,026	-0,097
-481,620	577,535	-0,025	0,044
-480,605	-200,000	0,051	0,198
-479,591	800,000	-0,059	0,128
-478,576	673,361	0,010	-0,018
-477,562	-38,259	-0,029	-0,011
-476,547	-200,000	0,001	-0,102
-475,532	360,061	0,060	-0,089
-474,518	-95,838	-0,070	0,014
-473,503	-72,293	-0,157	-0,042
-472,489	7,472	0,086	-0,047
-471,474	-200,000	0,035	0,175
-470,459	-102,151	-0,094	-0,016
-469,445	193,146	0,047	-0,051
-468,430	-200,000	0,000	0,011
-467,416	800,000	-0,054	-0,146
-466,401	-122,202	0,068	-0,008
-465,386	84,220	0,117	0,093
-464,372	800,000	-0,047	-0,123
-463,357	656,290	-0,047	-0,089
-462,343	-11,741	-0,085	-0,041
-461,328	-43,905	-0,046	-0,017
-460,313	-88,219	0,036	-0,008
-459,299	426,520	0,062	0,097
-458,284	313,847	0,026	0,036
-457,270	316,346	-0,095	-0,131
-456,255	107,239	-0,025	-0,022
-455,241	721,452	0,116	0,225
-454,226	16,008	-0,131	0,075
-453,211	-95,568	0,085	0,016
-452,197	0,246	0,068	0,035
-451,182	-66,483	-0,020	0,006
-450,168	207,033	0,073	-0,083
-449,153	-126,240	-0,058	-0,006
-448,138	-200,000	-0,017	0,151
-447,124	635,607	-0,032	0,060
-446,109	800,000	0,026	0,076
-445,095	27,835	0,077	0,047
-444,080	242,072	-0,090	0,110
-443,065	277,466	0,017	-0,022
-442,051	800,000	-0,003	0,007
-441,036	-91,183	-0,113	-0,023
-440,022	239,986	-0,125	0,152
-439,007	800,000	0,021	-0,055
-437,992	200,031	0,049	0,055
-436,978	788,193	0,037	0,074
-435,963	-42,014	0,094	0,035
-434,949	-29,753	0,056	-0,023
-433,934	400,820	0,015	-0,023
-432,919	-95,388	-0,051	0,010
-431,905	283,190	-0,002	0,003
-430,890	800,000	-0,038	0,097
-429,876	49,205	0,188	0,129
-428,861	-72,022	-0,078	0,021
-427,846	332,547	0,079	0,111
-426,832	5,436	-0,229	-0,123
-425,817	75,080	-0,109	-0,084
-424,803	-200,000	0,019	0,069
-423,788	184,159	0,051	0,055
-422,773	800,000	-0,017	-0,049
-421,759	-118,805	0,194	-0,025
-420,744	624,907	0,059	0,108
-419,730	74,530	-0,082	-0,063
-418,715	179,560	0,019	-0,021
-417,701	-56,880	0,228	0,073
-416,686	163,175	-0,086	-0,088
-415,671	20,809	0,057	-0,033
-414,657	-200,000	-0,020	-0,127
-413,642	0,645	0,059	-0,031
-412,628	15,628	-0,131	-0,075
-411,613	-53,894	-0,044	-0,015
-410,598	60,343	-0,022	-0,016
-409,584	7,668	-0,140	-0,076
-408,569	800,000	0,016	-0,046
-407,555	478,937	-0,024	-0,040
-406,540	-153,481	-0,127	-0,006
-405,525	118,832	-0,135	-0,122
-404,511	696,885	-0,059	-0,113
-403,496	48,593	0,074	-0,050
-402,482	58,944	-0,064	-0,046
-401,467	294,393	0,034	0,046
-400,452	800,000	-0,037	0,076
-399,438	-200,000	-0,003	-0,038
-398,423	-179,386	-0,031	0,000
-397,409	673,011	0,076	-0,144
-396,394	-200,000	0,007	0,137
-395,379	288,791	-0,023	-0,031
-394,365	-119,697	-0,115	-0,014
-393,350	156,433	0,028	0,028
-392,336	-151,241	-0,140	0,008
-391,321	122,548	0,028	0,026
-390,306	-97,608	0,036	-0,007
-389,292	-200,000	-0,026	0,107
-388,277	-48,110	0,078	0,027
-387,263	-31,485	0,049	0,020
-386,248	-200,000	-0,005	0,054
-385,233	-39,208	-0,048	0,018
-384,219	-200,000	0,005	0,023
-383,204	133,062	-0,073	-0,069
-382,190	-181,092	-0,065	0,001
-381,175	800,000	0,024	-0,072
-380,160	12,477	0,060	0,033
-379,146	122,143	0,048	0,043
-378,131	-89,486	-0,089	-0,019
-377,117	55,450	-0,098	-0,069
-376,102	-200,000	0,005	0,015
-375,088	800,000	0,051	-0,119
-374,073	-200,000	0,011	-0,162
-373,058	129,006	-0,131	-0,122
-372,044	-139,340	0,210	0,016
-371,029	-200,000	-0,021	0,141
-370,015	-33,218	0,054	-0,022
-369,000	-200,000	-0,000	-0,069
-367,985	800,000	-0,035	-0,101
-366,971	-24,858	-0,084	0,036
-365,956	-143,308	-0,050	0,003
-364,942	-138,013	0,173	0,014
-363,927	99,400	0,076	0,064
-362,912	-101,536	-0,111	0,019
-361,898	-200,000	0,008	0,081
-360,883	-166,656	-0,146	-0,004
-359,869	171,632	-0,049	0,051
-358,854	-200,000	0,002	0,024
-357,839	-24,024	-0,176	0,076
-356,825	-200,000	0,010	0,054
-355,810	93,508	-0,069	0,056
-354,796	800,000	0,026	-0,057
-353,781	-101,812	-0,083	0,015
-352,766	-200,000	-0,005	-0,045
-351,752	45,507	0,084	0,056
-350,737	-48,757	0,052	0,018
-349,723	-200,000	0,004	0,025
-348,708	-200,000	-0,030	0,111
-347,693	56,290	-0,099	0,070
-346,679	240,282	-0,030	0,036
-345,664	-35,952	-0,045	-0,018
-344,650	800,000	-0,011	-0,030
-343,635	70,919	0,028	0,021
-342,620	-141,896	0,065	-0,005
-341,606	158,157	-0,059	-0,060
-340,591	486,249	0,046	-0,077
-339,577	800,000	-0,070	-0,181
-338,562	314,118	-0,052	0,071
-337,548	800,000	0,029	0,081
-336,533	-200,000	0,000	0,024
-335,518	31,749	0,122	-0,076
-334,504	494,012	-0,068	0,114
-333,489	206,082	-0,062	-0,070
-332,475	-200,000	0,007	-0,065
-331,460	675,302	-0,007	0,012
-330,445	-200,000	0,009	0,118
-329,431	337,507	0,065	0,092
-328,416	285,724	-0,024	-0,032
-327,402	-200,000	0,013	-0,078
-326,387	-200,000	0,002	0,032
-325,372	264,612	0,041	-0,052
-324,358	800,000	0,020	-0,054
-323,343	-97,037	0,091	-0,017
-322,329	-191,089	0,044	-0,000
-321,314	-185,288	0,094	0,001
-320,299	-200,000	0,001	0,095
-319,285	214,557	-0,044	0,051
-318,270	-38,465	0,022	-0,009
-317,256	488,334	-0,033	0,056
-316,241	431,624	-0,002	-0,004
-315,226	-200,000	-0,007	0,097
-314,212	-89,285	0,066	0,014
-313,197	616,179	0,031	0,056
-312,183	676,057	-0,088	0,167
-311,168	107,125	-0,055	0,048
-310,153	-121,992	-0,078	0,009
-309,139	-59,086	0,134	-0,042
-308,124	-83,589	-0,047	0,011
-307,110	-200,000	-0,003	0,026
-306,095	800,000	-0,029	0,069
-305,080	-200,000	0,032	-0,135
-304,066	7,158	-0,038	0,021
-303,051	-6,766	0,046	-0,023
-302,037	586,047	-0,017	-0,030
-301,022	148,135	0,055	0,054
-300,008	-31,008	0,195	-0,079
-298,993	95,485	-0,073	0,061
-297,978	800,000	-0,029	0,088
-296,964	3,551	0,037	0,020
-295,949	600,765	0,016	-0,028
-294,935	49,244	0,044	-0,030
-293,920	-77,446	0,112	0,028
-292,905	539,639	-0,071	-0,123
-291,891	-163,855	0,068	0,002
-290,876	-133,453	0,080	0,007
-289,862	35,133	0,185	-0,117
-288,847	-200,000	0,015	-0,158
-287,832	601,228	-0,015	0,027
-286,818	800,000	0,038	-0,107
-285,803	-102,136	0,048	-0,008
-284,789	70,022	0,036	-0,027
-283,774	-200,000	0,014	0,057
-282,759	269,315	-0,054	0,069
-281,745	-200,000	0,011	-0,147
-280,730	33,453	-0,017	0,011
-279,716	57,964	-0,077	0,055
-278,701	377,657	0,045	0,066
-277,686	-200,000	0,017	-0,083
-276,672	524,719	-0,042	0,072
-275,657	93,825	0,060	-0,049
-274,643	21,334	0,010	0,006
-273,628	176,325	-0,077	-0,081
-272,613	369,343	0,069	-0,101
-271,599	-200,000	-0,008	0,085
-270,584	800,000	-0,043	-0,113
-269,570	800,000	0,024	-0,076
-268,555	800,000	-0,044	0,095
-267,540	-115,097	0,033	-0,005
-266,526	150,504	0,040	-0,039
-265,511	-111,300	0,121	0,018
-264,497	55,613	0,031	0,021
-263,482	800,000	0,026	0,063
-262,467	94,555	0,023	-0,019
-261,453	800,000	0,003	0,006
-260,438	-3,312	-0,056	0,028
-259,424	-200,000	-0,006	-0,082
-258,409	800,000	-0,021	0,043
-257,395	38,249	-0,040	-0,026
-256,380	-200,000	0,047	0,212
-255,365	61,378	0,017	-0,012
-254,351	639,996	0,010	-0,018
-253,336	115,062	0,066	-0,059
-252,322	703,033	-0,058	-0,111
-251,307	-39,885	0,053	-0,020
-250,292	-200,000	-0,007	0,054
-249,278	95,349	0,124	0,102
-248,263	36,221	-0,102	0,065
-247,249	-51,586	0,022	0,007
-246,234	-39,404	0,056	-0,021
-245,219	800,000	0,034	-0,078
-244,205	-163,119	-0,062	0,002
-243,190	-111,622	0,161	0,023
-242,176	800,000	0,056	0,162
-241,161	-200,000	0,023	0,089
-240,146	542,149	-0,087	0,151
-239,132	-1,878	-0,070	0,036
-238,117	125,520	-0,053	-0,048
-237,103	535,480	-0,049	-0,084
-236,088	-105,893	-0,077	0,012
-235,073	-149,343	-0,084	0,005
-234,059	-20,544	0,134	-0,059
-233,044	223,372	0,039	0,045
-232,030	471,166	-0,004	-0,006
-231,015	-59,879	-0,024	-0,007
-230,000	539,697	-0,025	-0,043
-228,986	-47,825	-0,126	0,044
-227,971	-200,000	-0,001	0,075
-226,957	800,000	0,059	0,160
-225,942	-200,000	-0,010	-0,048
-224,927	715,420	-0,042	0,082
-223,913	-200,000	0,005	-0,071
-222,898	95,252	-0,145	-0,120
-221,884	-118,294	0,092	-0,012
-220,869	-200,000	0,025	0,103
-219,855	-200,000	-0,004	-0,040
-218,840	-165,500	0,095	0,003
-217,825	-200,000	0,015	0,134
-216,811	-200,000	0,014	-0,052
-215,796	-200,000	0,020	-0,079
-214,782	33,279	-0,108	0,067
-213,767	-200,000	-0,001	0,026
-212,752	800,000	0,041	-0,124
-211,738	35,705	0,075	0,048
-210,723	450,193	0,067	0,108
-209,709	-200,000	-0,023	-0,125
-208,694	34,107	0,063	-0,040
-207,679	-74,868	-0,067	-0,017
-206,665	-200,000	0,013	-0,061
-205,650	276,745	0,058	0,075
-204,636	-200,000	-0,007	0,069
-203,621	-200,000	0,000	-0,072
-202,606	-114,457	-0,046	0,006
-201,592	140,466	-0,104	-0,100
-200,577	-200,000	-0,004	-0,042
-199,563	800,000	0,029	0,070
-198,548	-29,581	0,198	0,081
-197,533	-104,216	0,072	0,012
-196,519	-34,189	-0,046	-0,018
-195,504	80,249	-0,046	-0,036
-194,490	19,732	-0,151	0,087
-193,475	85,421	0,118	0,093
-192,460	-200,000	0,053	0,177
-191,446	-124,829	0,043	-0,005
-190,431	-200,000	0,016	0,054
-189,417	-200,000	0,021	-0,077
-188,402	600,161	-0,022	0,039
-187,387	-18,732	-0,096	-0,043
-186,373	800,000	-0,083	-0,203
-185,358	308,463	-0,024	0,033
-184,344	-29,606	-0,017	0,007
-183,329	44,476	0,067	-0,045
-182,315	800,000	-0,046	-0,097
-181,300	800,000	-0,024	0,066
-180,285	-200,000	-0,034	-0,116
-179,271	29,902	0,058	-0,036
-178,256	-164,940	-0,089	-0,003
-177,242	800,000	0,030	0,082
-176,227	800,000	-0,027	0,064
-175,212	311,066	-0,038	-0,051
-174,198	-200,000	0,010	-0,117
-173,183	-200,000	-0,024	-0,123
-172,169	-15,680	-0,025	0,011
-171,154	368,477	-0,018	-0,026
-170,139	-8,025	0,103	0,050
-169,125	108,807	-0,105	0,090
-168,110	800,000	0,048	-0,097
-167,096	-200,000	0,028	0,123
-166,081	13,798	0,116	0,065
-165,066	800,000	-0,042	-0,108
-164,052	-13,300	0,024	-0,011
-163,037	800,000	0,046	0,107
-162,023	79,317	0,097	0,075
-161,008	621,243	-0,037	0,067
-159,993	387,061	0,059	0,088
-158,979	-18,367	-0,079	0,036
-157,964	-200,000	0,002	-0,157
-156,950	225,832	0,044	-0,052
-155,935	-71,563	0,117	-0,031
-154,920	-146,001	0,080	-0,005
-153,906	285,157	-0,093	-0,121
-152,891	179,941	0,006	0,006
-151,877	-77,481	-0,056	0,014
-150,862	462,738	0,025	-0,040
-149,847	496,221	-0,045	-0,074
-148,833	106,137	-0,055	0,047
-147,818	32,069	0,087	-0,054
-146,804	-141,761	-0,071	-0,005
-145,789	40,738	-0,068	-0,044
-144,775	272,946	-0,048	-0,062
-143,760	-149,050	-0,055	-0,003
-142,745	-178,966	-0,133	-0,002
-141,731	-17,831	-0,076	0,034
-140,716	-200,000	-0,002	-0,060
-139,702	35,549	-0,023	0,015
-138,687	675,815	0,013	0,024
-137,672	-116,396	-0,082	0,011
-136,658	800,000	-0,046	-0,091
-135,643	-200,000	-0,008	-0,082
-134,629	217,494	0,014	0,017
-133,614	55,268	0,031	0,021
-132,599	551,283	0,034	0,059
-131,585	-200,000	-0,023	0,130
-130,570	-200,000	-0,005	-0,042
-129,556	800,000	-0,040	-0,083
-128,541	800,000	-0,047	-0,104
-127,526	102,733	0,024	0,021
-126,512	280,259	0,048	-0,062
-125,497	-200,000	0,005	0,040
-124,483	-160,671	-0,093	0,004
-123,468	800,000	0,032	0,075
-122,453	52,764	0,065	-0,045
-121,439	21,599	-0,083	-0,049
-120,424	800,000	0,073	-0,149
-119,410	-27,997	-0,023	0,010
-118,395	-200,000	0,020	0,123
-117,380	-200,000	-0,002	-0,071
-116,366	-29,418	-0,103	0,042
-115,351	-108,536	-0,142	0,022
-114,337	44,436	-0,059	-0,039
-113,322	-200,000	-0,000	0,011
-112,307	270,973	0,026	-0,033
-111,293	3,319	0,052	0,027
-110,278	-200,000	-0,005	-0,015
-109,264	800,000	-0,034	0,074
-108,249	-97,177	-0,050	0,009
-107,234	-200,000	0,010	-0,107
-106,220	570,685	0,011	0,020
-105,205	-200,000	0,012	0,076
-104,191	-200,000	0,006	0,072
-103,176	-200,000	-0,005	-0,063
-102,162	4,407	-0,075	0,039
-101,147	297,135	0,040	0,052
-100,132	-200,000	0,042	-0,133
-99,118	-77,938	-0,160	0,039
-98,103	-170,830	0,047	0,001
-97,089	472,330	0,086	0,139
-96,074	-41,282	-0,113	0,042
-95,059	48,779	-0,086	0,058
-94,045	80,984	-0,065	-0,050
-93,030	-72,724	0,079	-0,021
-92,016	-45,477	-0,038	-0,013
-91,001	-46,038	0,045	-0,016
-89,986	5,024	0,105	0,055
-88,972	-200,000	-0,010	-0,052
-87,957	-78,623	-0,089	-0,022
-86,943	50,573	-0,061	0,042
-85,928	800,000	0,042	-0,128
-84,913	-91,579	-0,196	0,040
-83,899	-20,303	0,148	-0,065
-82,884	-83,310	0,085	-0,020
-81,870	-112,207	-0,018	0,003
-80,855	113,374	0,020	0,018
-79,840	-68,355	-0,071	-0,020
-78,826	149,163	0,075	-0,073
-77,811	144,649	-0,101	-0,097
-76,797	169,620	0,040	0,041
-75,782	800,000	-0,021	0,065
-74,767	-200,000	-0,019	0,108
-73,753	56,132	0,043	0,030
-72,738	-200,000	-0,032	0,114
-71,724	800,000	-0,037	0,105
-70,709	211,057	-0,135	-0,153
-69,694	105,647	-0,114	-0,097
-68,680	-114,731	0,120	0,016
-67,665	-199,417	0,103	0,000
-66,651	-200,000	-0,001	0,065
-65,636	29,739	-0,034	0,021
-64,622	473,494	-0,072	-0,117
-63,607	-200,000	0,008	-0,037
-62,592	59,378	-0,068	-0,048
-61,578	11,258	0,147	-0,080
-60,563	800,000	0,038	0,094
-59,549	-200,000	0,011	0,129
-58,534	-4,500	-1,978	-0,978
-57,519	-200,000	-0,254	-0,971
-56,505	-200,000	-1,201	-4,985
-55,490	30,951	0,679	0,417
-54,476	800,000	5,422	12,261
-53,461	-200,000	17,602	284,328
-52,446	800,000	727,974	2215,982
-51,432	534,707	1643,916	2808,236
-50,417	110,075	1634,018	1407,467
-49,403	75,740	1286,359	974,660
-48,388	32,124	1027,589	634,617
-47,373	20,218	989,636	571,913
-46,359	18,498	977,322	559,135
-45,344	15,664	973,385	547,584
-44,330	15,918	971,961	547,594
-43,315	15,417	970,175	544,929
-42,300	15,340	969,042	544,021
-41,286	15,299	968,066	543,317
-40,271	15,369	966,918	542,879
-39,257	15,383	966,098	542,444
-38,242	15,347	965,169	541,784
-37,227	15,353	964,504	541,408
-36,213	15,357	963,547	540,862
-35,198	15,371	962,503	540,300
-34,184	15,366	961,772	539,851
-33,169	15,320	960,877	539,181
-32,154	15,394	959,942	538,871
-31,140	15,453	958,926	538,470
-30,125	15,451	958,291	538,088
-29,111	15,391	957,583	537,475
-28,096	15,385	956,997	537,103
-27,082	15,384	956,317	536,700
-26,067	15,299	955,567	535,982
-25,052	15,350	954,656	535,614
-24,038	15,332	954,190	535,274
-23,023	15,416	953,370	535,061
-22,009	15,333	952,961	534,545
-20,994	15,400	952,072	534,241
-19,979	15,287	951,695	533,644
-18,965	15,325	951,130	533,430
-17,950	15,341	950,358	533,026
-16,936	15,330	949,559	532,520
-15,921	15,291	948,810	531,955
-14,906	15,261	948,185	531,487
-13,892	15,242	947,517	531,032
-12,877	15,223	946,751	530,522
-11,863	15,226	946,375	530,298
-10,848	15,248	945,738	529,990
-9,833	15,315	945,368	529,975
-8,819	15,393	944,541	529,740
-7,804	15,335	943,897	529,172
-6,790	15,207	943,649	528,608
-5,775	15,305	942,984	528,525
-4,760	15,300	942,129	528,008
-3,746	15,251	941,654	527,565
-2,731	15,200	940,886	526,953
-1,717	15,060	940,322	526,173
-0,702	15,070	939,695	525,832
0,313	14,936	939,019	525,825
1,327	18,046	936,856	534,366
2,342	26,859	794,130	476,309
3,356	23,497	459,509	270,436
4,371	-3,357	315,415	156,989
5,386	-7,357	297,090	143,795
6,400	-9,347	291,016	138,861
7,415	-9,806	288,609	137,247
8,429	-10,067	287,271	136,342
9,444	-10,059	286,188	135,823
10,459	-9,789	285,634	135,812
11,473	-10,006	285,046	135,309
12,488	-10,153	284,494	134,892
13,502	-10,092	284,073	134,740
14,517	-9,970	283,629	134,636
15,531	-9,840	283,072	134,485
16,546	-9,971	282,704	134,172
17,561	-10,159	282,427	133,846
18,575	-9,994	281,980	133,781
19,590	-10,073	281,835	133,625
20,604	-9,784	281,261	133,619
21,619	-10,043	281,076	133,270
22,634	-9,909	280,805	133,259
23,648	-10,122	280,328	132,816
24,663	-10,019	279,961	132,729
25,677	-9,824	279,777	132,817
26,692	-10,011	279,690	132,584
27,707	-9,922	279,203	132,427
28,721	-9,947	279,083	132,334
29,736	-9,988	278,695	132,099
30,750	-10,034	278,436	131,921
31,765	-9,923	278,064	131,839
32,780	-10,033	278,020	131,702
33,794	-9,915	277,642	131,622
34,809	-9,956	277,478	131,494
35,823	-10,121	277,151	131,171
36,838	-9,927	276,883	131,216
37,853	-10,132	276,676	130,913
38,867	-10,247	276,502	130,710
39,882	-10,051	276,198	130,739
40,896	-10,081	275,987	130,599
41,911	-9,990	275,777	130,574
42,926	-10,142	275,542	130,308
43,940	-10,186	275,083	130,038
44,955	-10,056	274,992	130,106
45,969	-10,179	274,701	129,841
46,984	-10,178	274,470	129,722
47,999	-10,442	274,329	129,396
49,013	-10,416	273,966	129,238
50,028	-10,504	273,687	129,013
51,042	-10,617	273,507	128,810
52,057	-10,642	273,196	128,630
53,071	-10,619	272,829	128,466
54,086	-10,579	272,819	128,488
55,101	-10,471	272,695	128,518
56,115	-10,208	272,425	128,623
57,130	-10,020	272,351	128,752
58,144	-9,988	272,130	128,665
59,159	-9,629	271,811	128,836
60,174	-9,906	271,777	128,552
61,188	-9,846	271,465	128,448
62,203	-9,840	271,229	128,331
63,217	-9,890	271,103	128,213
64,232	-9,766	270,702	128,127
65,247	-9,870	270,525	127,935
66,261	-9,938	270,329	127,769
67,276	-10,050	270,105	127,548
68,290	-10,192	269,866	127,294
69,305	-10,342	269,579	127,009
70,320	-10,064	269,391	127,164
71,334	-10,020	269,248	127,126
72,349	-9,863	269,080	127,179
73,363	-10,106	268,832	126,829
74,378	-9,935	268,580	126,854
75,393	-9,873	268,492	126,858
76,407	-9,767	268,161	126,787
77,422	-9,780	267,948	126,664
78,436	-10,003	267,760	126,360
79,451	-9,916	267,550	126,328
80,466	-10,095	267,287	126,030
81,480	-10,173	267,025	125,825
82,495	-10,111	266,823	125,775
83,509	-10,101	266,783	125,754
84,524	-10,156	266,431	125,527
85,539	-10,191	266,133	125,343
86,553	-10,109	265,942	125,317
87,568	-10,075	265,778	125,259
88,582	-10,170	265,527	125,043
89,597	-10,061	265,403	125,073
90,611	-10,011	265,219	125,020
91,626	-9,777	265,020	125,125
92,641	-9,856	264,845	124,960
93,655	-10,061	264,706	124,700
94,670	-9,925	264,307	124,623
95,684	-9,996	264,189	124,492
96,699	-9,835	263,969	124,521
97,714	-9,999	263,834	124,300
98,728	-10,001	263,585	124,170
99,743	-10,091	263,341	123,963
100,757	-10,309	263,184	123,684
101,772	-10,133	262,874	123,684
102,787	-10,086	262,761	123,662
103,801	-10,126	262,611	123,544
104,816	-10,145	262,461	123,446
105,830	-9,847	262,320	123,634
106,845	-9,883	262,025	123,452
107,860	-9,914	261,921	123,364
108,874	-9,922	261,735	123,258
109,889	-9,926	261,431	123,101
110,903	-9,969	261,294	122,987
111,918	-10,073	260,927	122,711
112,933	-9,969	260,652	122,663
113,947	-9,802	260,643	122,796
114,962	-10,053	260,560	122,524
115,976	-9,900	260,312	122,531
116,991	-9,864	260,116	122,459
118,006	-9,823	259,916	122,391
119,020	-9,926	259,890	122,277
120,035	-9,947	259,641	122,130
121,049	-10,030	259,530	121,994
122,064	-9,834	259,278	122,037
123,079	-9,767	258,943	121,927
124,093	-10,010	258,956	121,709
125,108	-10,113	258,665	121,472
126,122	-10,348	258,426	121,143
127,137	-10,158	258,096	121,143
128,151	-10,273	258,006	120,990
129,166	-10,139	257,805	121,002
130,181	-10,159	257,572	120,864
131,195	-10,149	257,271	120,721
132,210	-10,011	257,241	120,816
133,224	-9,770	257,054	120,927
134,239	-9,705	256,847	120,876
135,254	-10,005	256,747	120,557
136,268	-9,966	256,423	120,428
137,283	-10,267	256,164	120,035
138,297	-10,278	255,921	119,900
139,312	-10,262	255,885	119,887
140,327	-10,174	255,694	119,862
141,341	-9,651	255,540	120,232
142,356	-9,767	255,503	120,104
143,370	-9,789	255,193	119,929
144,385	-9,592	255,069	120,029
145,400	-9,571	254,876	119,946
146,414	-9,746	254,699	119,701
147,429	-9,668	254,392	119,613
148,443	-9,792	254,361	119,481
149,458	-9,790	254,121	119,360
150,473	-9,757	253,991	119,316
151,487	-9,851	253,700	119,088
152,502	-9,760	253,577	119,098
153,516	-9,660	253,409	119,094
154,531	-9,701	253,235	118,967
155,546	-9,714	253,126	118,894
156,560	-10,015	252,942	118,539
157,575	-9,756	252,606	118,593
158,589	-9,770	252,369	118,459
159,604	-9,630	252,216	118,496
160,619	-9,612	252,011	118,404
161,633	-9,745	252,001	118,276
162,648	-9,596	251,793	118,294
163,662	-9,729	251,649	118,103
164,677	-9,815	251,491	117,946
165,692	-9,691	251,287	117,944
166,706	-9,655	251,175	117,912
167,721	-9,874	251,096	117,678
168,735	-9,640	250,794	117,724
169,750	-9,630	250,757	117,705
170,764	-9,777	250,529	117,463
171,779	-9,522	250,286	117,554
172,794	-9,584	250,158	117,431
173,808	-9,663	249,905	117,235
174,823	-10,070	249,703	116,787
175,837	-10,187	249,425	116,549
176,852	-9,857	249,300	116,757
177,867	-9,732	249,352	116,876
178,881	-9,536	249,108	116,916
179,896	-9,481	248,884	116,847
180,910	-9,644	248,770	116,646
181,925	-9,524	248,619	116,665
182,940	-9,665	248,337	116,404
183,954	-9,707	248,243	116,315
184,969	-9,663	248,096	116,272
185,983	-9,757	248,001	116,139
186,998	-9,543	247,688	116,161
188,013	-9,512	247,701	116,182
189,027	-9,688	247,242	115,810
190,042	-9,791	247,306	115,744
191,056	-9,854	247,251	115,656
192,071	-9,599	246,824	115,658
193,086	-9,926	246,723	115,328
194,100	-9,866	246,558	115,291
195,115	-9,558	246,375	115,451
196,129	-9,591	246,160	115,312
197,144	-9,629	245,850	115,125
198,159	-9,663	245,775	115,051
199,173	-9,792	245,627	114,865
200,188	-9,650	245,550	114,936
201,202	-9,941	245,098	114,474
202,217	-10,133	244,969	114,245
203,232	-10,248	244,609	113,973
204,246	-9,708	244,576	114,392
205,261	-9,229	244,517	114,748
206,275	-10,471	244,158	113,549
207,290	-7,668	245,408	116,433
208,304	-0,445	247,619	123,470
209,319	3,377	248,662	127,156
210,334	3,758	248,597	127,427
211,348	3,998	248,511	127,571
212,363	4,016	248,393	127,514
213,377	4,341	248,284	127,716
214,392	4,164	248,058	127,441
215,407	3,920	248,031	127,215
216,421	4,101	247,644	127,154
217,436	4,099	247,834	127,238
218,450	4,220	247,570	127,192
219,465	4,028	247,288	126,877
220,480	3,778	247,052	126,539
221,494	3,677	246,855	126,344
222,509	3,740	246,801	126,356
223,523	3,766	246,516	126,221
224,538	3,339	246,265	125,730
225,553	3,476	246,159	125,778
226,567	3,764	245,955	125,898
227,582	3,761	245,870	125,841
228,596	3,678	245,767	125,709
229,611	3,446	245,433	125,337
230,626	3,430	245,287	125,239
231,640	3,649	245,047	125,284
232,655	3,592	245,174	125,290
233,669	3,520	244,809	125,034
234,684	3,418	244,578	124,822
235,699	3,669	244,763	125,110
236,713	4,016	244,472	125,233
237,728	3,661	244,320	124,855
238,742	3,528	243,981	124,562
239,757	3,217	243,893	124,254
240,772	3,709	243,574	124,479
241,786	3,651	243,721	124,496
242,801	3,501	243,387	124,193
243,815	3,340	243,336	124,025
244,830	3,687	243,084	124,166
245,844	3,611	242,967	124,034
246,859	3,424	242,721	123,747
247,874	3,375	242,710	123,690
248,888	3,556	242,488	123,712
249,903	3,547	242,421	123,660
250,917	3,646	242,241	123,637
251,932	3,758	242,246	123,719
252,947	3,831	241,899	123,589
253,961	3,430	241,720	123,164
254,976	3,571	241,550	123,180
255,990	3,916	241,401	123,369
257,005	3,749	241,014	123,027
258,020	3,272	241,004	122,629
259,034	3,403	240,902	122,671
260,049	3,631	240,855	122,819
261,063	3,408	240,578	122,488
262,078	3,543	240,460	122,525
263,093	3,722	240,318	122,584
264,107	3,702	240,209	122,503
265,122	3,545	239,899	122,208
266,136	3,561	239,820	122,170
267,151	3,617	239,907	122,248
268,166	3,564	239,470	121,972
269,180	3,314	239,458	121,756
270,195	3,969	239,397	122,235
271,209	4,297	239,195	122,381
272,224	3,682	238,896	121,729
273,239	3,376	238,664	121,358
274,253	3,281	238,670	121,276
275,268	3,614	238,479	121,431
276,282	3,592	238,392	121,359
277,297	3,378	238,133	121,047
278,312	3,495	237,982	121,051
279,326	3,477	237,882	120,976
280,341	3,649	237,718	121,017
281,355	3,682	237,410	120,876
282,370	3,625	237,425	120,827
283,384	3,662	237,269	120,766
284,399	3,546	236,962	120,509
285,414	3,497	236,843	120,399
286,428	3,515	236,694	120,326
287,443	3,545	236,556	120,268
288,457	3,571	236,539	120,270
289,472	3,669	236,390	120,260
290,487	3,533	236,147	120,019
291,501	3,512	235,960	119,898
292,516	3,123	235,781	119,492
293,530	3,232	235,760	119,556
294,545	3,502	235,594	119,672
295,560	3,696	235,467	119,748
296,574	3,296	235,145	119,261
297,589	3,320	235,136	119,265
298,603	3,715	235,063	119,525
299,618	3,968	234,929	119,642
300,633	3,801	234,717	119,395
301,647	3,844	234,751	119,435
302,662	4,113	234,485	119,497
303,676	3,952	234,406	119,321
304,691	3,825	234,291	119,154
305,706	4,152	233,978	119,237
306,720	4,096	233,776	119,080
307,735	3,973	233,685	118,928
308,749	3,547	233,589	118,539
309,764	3,535	233,300	118,373
310,779	3,538	233,039	118,233
311,793	3,233	232,946	117,939
312,808	3,233	232,729	117,819
313,822	3,235	232,617	117,754
314,837	3,383	232,556	117,826
315,852	3,291	232,409	117,671
316,866	3,728	232,423	118,003
317,881	3,830	232,315	118,016
318,895	3,792	232,206	117,920
319,910	3,985	232,040	117,974
320,925	3,425	231,766	117,395
321,939	3,649	231,560	117,452
322,954	3,590	231,358	117,294
323,968	3,507	231,243	117,162
324,983	3,225	231,042	116,834
325,997	3,809	230,987	117,241
327,012	3,836	231,093	117,305
328,027	3,679	230,691	116,971
329,041	3,765	230,665	117,013
330,056	4,056	230,711	117,248
331,070	4,196	230,362	117,166
332,085	3,901	230,360	116,930
333,100	3,932	230,107	116,815
334,114	3,955	229,719	116,625
335,129	3,792	229,720	116,492
336,143	3,816	229,712	116,496
337,158	3,702	229,584	116,334
338,173	4,016	229,358	116,447
339,187	3,953	229,163	116,290
340,202	4,096	229,009	116,309
341,216	4,062	228,927	116,231
342,231	3,642	228,699	115,788
343,246	3,594	228,624	115,704
344,260	3,883	228,493	115,845
345,275	4,160	228,510	116,052
346,289	4,263	228,298	116,011
347,304	3,959	228,113	115,678
348,319	4,119	227,861	115,661
349,333	3,832	227,840	115,424
350,348	3,623	227,558	115,114
351,362	3,795	227,224	115,064
352,377	3,676	227,327	115,017
353,392	3,534	227,055	114,762
354,406	3,594	226,907	114,722
355,421	195,083	1322,386	1397,949
356,435	156,381	1455,851	1397,956
