DTS Sentinel unit serial number:	SN410029Multiplexer serial number:	ORYXHardware model number:	OX2-SRSoftware version number:	ORYX F/W v4,00 Oryx Data Collector v3.7.2.0data status	okinstallation	B5 Nyhavnadifferential loss correction	single-endedforward channel	channel 2reverse channel	N/Adate	2023/12/14time	08:07:13forward acquisition time	300,00reverse acquisition time	0,00gamma	499,1914k internal	0,3159k external	0,3159temperature offset calibration	1,0000default loss term (dB/km)	0,3820temperature slope calibration	1,0000multiplexer offset coefficient	1,0000multiplexer slope coefficient	1,0000fibre end	0,00T internal ref (°C)	7,05T ext. ref 1 (°C)	-9,21T ext. ref 2 (°C)	-9,28length (m)	temperature (°C)	Stokes	anti-Stokes-744,400	800,000	0,056	0,139
-743,385	-151,744	-0,415	-0,022
-742,371	10,152	0,269	0,150
-741,356	-64,467	-0,444	-0,132
-740,342	-200,000	-0,000	0,220
-739,327	-20,709	-0,414	-0,186
-738,312	743,520	-0,024	0,048
-737,298	-20,810	-0,413	-0,186
-736,283	-61,247	0,300	0,093
-735,269	-38,239	-0,343	-0,133
-734,254	322,582	0,105	0,148
-733,239	-9,571	-0,501	-0,245
-732,225	-81,994	0,294	0,070
-731,210	-120,643	0,063	-0,008
-730,196	-109,914	0,086	-0,013
-729,181	-200,000	0,017	-0,084
-728,167	-1,997	0,054	0,028
-727,152	-60,021	0,072	0,023
-726,137	-92,919	-0,143	-0,029
-725,123	-200,000	0,001	-0,194
-724,108	800,000	-0,032	-0,080
-723,094	340,812	-0,076	0,110
-722,079	-24,852	-0,056	0,024
-721,064	72,392	0,063	0,048
-720,050	-67,472	-0,048	0,014
-719,035	47,614	-0,094	0,064
-718,021	-199,741	-0,099	-0,000
-717,006	-122,334	-0,108	0,013
-715,991	-76,277	-0,152	-0,039
-714,977	-200,000	-0,025	-0,130
-713,962	296,651	0,048	0,065
-712,948	800,000	-0,015	-0,039
-711,933	75,905	0,033	-0,025
-710,918	-200,000	0,010	0,037
-709,904	-112,042	-0,156	-0,023
-708,889	76,530	-0,028	-0,021
-707,875	-200,000	-0,005	-0,090
-706,860	159,723	0,129	-0,132
-705,845	-74,959	0,083	0,022
-704,831	-42,698	0,035	-0,013
-703,816	60,992	-0,121	-0,088
-702,802	-200,000	0,003	-0,054
-701,787	92,587	-0,166	-0,138
-700,772	146,449	-0,106	-0,105
-699,758	334,319	0,030	-0,043
-698,743	-200,000	-0,011	-0,049
-697,729	215,137	-0,016	0,018
-696,714	800,000	-0,046	0,117
-695,699	634,799	0,012	-0,022
-694,685	-200,000	-0,012	-0,106
-693,670	-200,000	-0,004	-0,104
-692,656	-9,700	-0,102	0,050
-691,641	612,304	-0,010	0,018
-690,627	2,070	0,047	-0,025
-689,612	41,813	0,095	0,063
-688,597	-169,765	0,029	-0,001
-687,583	-30,526	-0,096	0,040
-686,568	-59,769	-0,013	-0,004
-685,554	800,000	0,016	-0,036
-684,539	129,837	0,052	0,049
-683,524	-104,528	0,138	-0,023
-682,510	-167,507	-0,053	-0,002
-681,495	249,841	-0,048	-0,061
-680,481	800,000	-0,049	-0,142
-679,466	-40,712	-0,132	0,050
-678,451	-89,278	0,086	0,018
-677,437	148,479	-0,091	0,090
-676,422	-200,000	-0,003	-0,110
-675,408	-11,383	-0,062	-0,030
-674,393	800,000	0,017	0,049
-673,378	44,914	-0,034	-0,023
-672,364	-67,680	-0,026	0,007
-671,349	800,000	0,010	-0,021
-670,335	42,102	0,020	0,013
-669,320	779,024	0,014	0,029
-668,305	800,000	-0,085	0,186
-667,291	80,363	-0,141	-0,111
-666,276	-139,602	0,049	-0,004
-665,262	800,000	0,015	-0,038
-664,247	-200,000	0,016	-0,104
-663,232	136,834	-0,046	-0,044
-662,218	212,187	0,075	0,087
-661,203	11,713	-0,038	-0,021
-660,189	-40,828	-0,111	0,042
-659,174	376,187	0,041	0,061
-658,159	168,990	-0,006	-0,006
-657,145	-200,000	-0,021	-0,078
-656,130	402,674	-0,057	-0,089
-655,116	-25,551	-0,058	-0,025
-654,101	-131,279	0,031	-0,003
-653,086	-62,111	-0,089	-0,027
-652,072	-200,000	-0,025	-0,098
-651,057	638,294	0,040	-0,074
-650,043	-86,394	-0,109	-0,024
-649,028	800,000	0,037	-0,081
-648,014	-58,441	0,089	-0,028
-646,999	161,103	-0,074	0,076
-645,984	-200,000	-0,024	0,130
-644,970	-200,000	-0,013	-0,114
-643,955	-27,219	-0,143	0,061
-642,941	326,613	-0,052	0,073
-641,926	252,277	0,039	0,048
-640,911	205,482	-0,108	-0,123
-639,897	31,326	0,102	0,064
-638,882	-129,082	-0,022	-0,002
-637,868	-200,000	-0,010	0,043
-636,853	-95,504	-0,026	0,005
-635,838	572,995	0,043	-0,076
-634,824	-200,000	0,013	0,157
-633,809	800,000	0,043	0,117
-632,795	23,925	-0,027	-0,016
-631,780	-78,237	0,042	0,011
-630,765	-18,384	0,076	0,035
-629,751	2,890	-0,109	0,058
-628,736	253,486	0,082	-0,103
-627,722	499,466	0,036	0,061
-626,707	72,296	-0,112	-0,086
-625,692	-73,210	-0,027	0,007
-624,678	800,000	-0,051	0,145
-623,663	-160,948	0,037	0,001
-622,649	260,899	0,084	-0,107
-621,634	41,669	0,044	-0,029
-620,619	555,325	-0,053	-0,095
-619,605	-200,000	0,004	0,063
-618,590	-200,000	0,003	0,085
-617,576	800,000	0,043	-0,120
-616,561	270,425	-0,079	-0,102
-615,546	190,737	-0,078	-0,086
-614,532	297,252	-0,089	-0,120
-613,517	295,899	0,029	-0,039
-612,503	-107,046	0,016	-0,003
-611,488	464,770	0,074	0,122
-610,474	-200,000	0,000	0,012
-609,459	254,744	0,055	0,069
-608,444	800,000	-0,018	-0,053
-607,430	800,000	0,016	0,035
-606,415	-200,000	-0,001	-0,041
-605,401	-118,726	0,053	-0,007
-604,386	-181,118	0,101	-0,001
-603,371	371,419	-0,065	0,096
-602,357	422,878	-0,061	0,097
-601,342	-47,650	-0,097	0,034
-600,328	513,698	-0,040	0,068
-599,313	23,109	0,104	0,063
-598,298	176,846	-0,016	-0,017
-597,284	-200,000	-0,005	-0,021
-596,269	-200,000	0,049	0,225
-595,255	-44,529	0,048	-0,017
-594,240	-200,000	0,008	0,091
-593,225	278,936	-0,025	-0,032
-592,211	-200,000	0,003	0,019
-591,196	112,517	0,063	-0,056
-590,182	-175,751	-0,167	0,003
-589,167	86,049	-0,036	0,029
-588,152	800,000	0,014	-0,045
-587,138	-200,000	0,013	0,101
-586,123	-200,000	-0,008	-0,120
-585,109	-44,674	0,063	-0,023
-584,094	387,235	0,081	0,123
-583,079	-200,000	-0,001	0,022
-582,065	-53,825	0,096	0,032
-581,050	-37,493	-0,068	-0,026
-580,036	800,000	-0,042	-0,089
-579,021	650,061	-0,056	-0,105
-578,006	-131,980	-0,134	0,013
-576,992	-200,000	0,014	0,107
-575,977	-200,000	0,002	0,140
-574,963	-200,000	-0,001	0,046
-573,948	539,297	-0,065	0,114
-572,934	107,760	0,047	0,041
-571,919	-42,336	0,055	-0,020
-570,904	317,626	-0,037	-0,052
-569,890	265,448	0,089	-0,114
-568,875	187,291	0,125	-0,136
-567,861	-200,000	0,005	0,061
-566,846	77,527	0,015	-0,012
-565,831	800,000	0,015	0,041
-564,817	408,951	-0,090	-0,140
-563,802	303,223	0,066	-0,089
-562,788	-200,000	0,001	-0,138
-561,773	-49,690	-0,042	0,014
-560,758	100,550	-0,022	0,019
-559,744	99,164	-0,078	0,066
-558,729	-84,851	0,037	-0,009
-557,715	-200,000	0,013	-0,070
-556,700	460,556	-0,074	-0,121
-555,685	251,398	0,107	-0,134
-554,671	595,751	0,035	-0,063
-553,656	800,000	-0,052	0,117
-552,642	-200,000	0,024	0,144
-551,627	-78,516	-0,020	-0,005
-550,612	-200,000	0,029	0,104
-549,598	-112,471	-0,137	0,020
-548,583	800,000	-0,021	0,045
-547,569	-200,000	0,001	0,022
-546,554	-13,435	-0,093	0,044
-545,539	366,806	-0,061	-0,090
-544,525	-17,383	0,078	0,036
-543,510	97,312	0,040	-0,034
-542,496	-200,000	-0,009	0,049
-541,481	94,126	0,140	-0,116
-540,466	50,585	-0,032	0,022
-539,452	142,762	-0,014	0,014
-538,437	800,000	0,047	-0,112
-537,423	800,000	0,023	0,072
-536,408	-200,000	-0,020	-0,142
-535,393	-200,000	-0,021	-0,085
-534,379	3,712	0,041	0,022
-533,364	800,000	0,036	-0,090
-532,350	2,740	0,022	-0,011
-531,335	800,000	0,030	0,087
-530,321	-77,425	0,048	0,012
-529,306	-123,974	-0,042	0,005
-528,291	-110,346	0,073	-0,011
-527,277	-49,012	0,070	0,024
-526,262	58,286	0,130	0,093
-525,248	580,429	0,027	0,048
-524,233	31,611	0,017	0,010
-523,218	-28,197	0,075	0,031
-522,204	446,082	-0,017	0,028
-521,189	-200,000	0,001	-0,115
-520,175	16,926	0,017	0,010
-519,160	307,886	0,053	0,072
-518,145	34,739	0,020	0,013
-517,131	-200,000	0,011	-0,058
-516,116	-66,837	-0,034	-0,010
-515,102	70,094	0,094	0,071
-514,087	800,000	-0,019	-0,042
-513,072	-132,483	-0,064	-0,006
-512,058	56,925	-0,077	-0,055
-511,043	-128,017	0,136	0,014
-510,029	-89,432	0,146	-0,031
-509,014	88,769	-0,061	0,050
-507,999	62,346	0,101	-0,073
-506,985	72,284	-0,128	0,097
-505,970	118,351	-0,073	0,066
-504,956	-112,046	0,063	-0,009
-503,941	800,000	0,017	-0,038
-502,926	-153,829	0,152	-0,007
-501,912	308,422	-0,082	0,112
-500,897	158,030	-0,140	0,141
-499,883	-200,000	0,017	-0,071
-498,868	480,452	0,051	-0,085
-497,853	180,793	0,012	-0,013
-496,839	52,646	0,026	-0,018
-495,824	0,829	0,022	-0,011
-494,810	41,635	-0,099	-0,065
-493,795	-200,000	0,011	-0,060
-492,781	-24,506	0,030	0,013
-491,766	-122,819	-0,072	-0,008
-490,751	-136,039	-0,130	0,011
-489,737	-124,121	0,077	-0,009
-488,722	-43,507	0,038	-0,014
-487,708	-35,043	0,065	0,026
-486,693	286,272	-0,054	0,071
-485,678	800,000	0,040	-0,115
-484,664	-1,028	-0,140	-0,072
-483,649	147,979	-0,057	-0,056
-482,635	-200,000	-0,009	-0,095
-481,620	187,348	-0,070	-0,076
-480,605	-200,000	0,005	0,068
-479,591	800,000	0,035	0,101
-478,576	44,117	0,143	0,095
-477,562	-107,237	-0,064	0,010
-476,547	194,194	-0,047	-0,052
-475,532	450,090	0,044	-0,072
-474,518	238,127	-0,016	-0,019
-473,503	99,108	0,099	0,083
-472,489	800,000	-0,034	0,080
-471,474	124,788	-0,081	0,074
-470,459	-155,223	-0,151	-0,007
-469,445	67,269	0,112	-0,083
-468,430	239,480	-0,071	-0,086
-467,416	-150,810	0,167	-0,009
-466,401	-144,821	-0,067	0,004
-465,386	212,456	0,146	-0,168
-464,372	568,710	-0,022	-0,039
-463,357	628,190	0,038	0,071
-462,343	391,798	0,033	-0,051
-461,328	-200,000	-0,002	0,071
-460,313	800,000	0,055	0,117
-459,299	800,000	-0,035	0,075
-458,284	-15,698	0,065	-0,030
-457,270	-173,370	-0,190	-0,004
-456,255	303,611	0,025	-0,034
-455,241	12,463	0,077	0,043
-454,226	-200,000	0,002	0,043
-453,211	526,883	-0,055	-0,094
-452,197	800,000	-0,042	0,090
-451,182	208,215	0,081	0,092
-450,168	18,423	-0,084	-0,049
-449,153	-161,913	0,072	0,003
-448,138	345,370	0,072	-0,104
-447,124	214,353	-0,008	-0,009
-446,109	92,855	-0,149	-0,122
-445,095	800,000	0,028	0,071
-444,080	106,304	0,079	0,068
-443,065	109,883	0,061	0,053
-442,051	727,606	-0,049	-0,095
-441,036	-15,432	-0,020	0,009
-440,022	-200,000	0,076	-0,264
-439,007	-200,000	-0,005	0,082
-437,992	-66,471	0,101	-0,029
-436,978	-200,000	0,014	0,085
-435,963	-124,002	0,051	0,006
-434,949	348,635	-0,086	0,124
-433,934	36,245	0,010	-0,006
-432,919	687,048	-0,073	0,139
-431,905	-200,000	0,035	0,131
-430,890	-200,000	0,019	-0,077
-429,876	-123,274	0,038	-0,004
-428,861	-121,651	0,112	0,013
-427,846	354,297	-0,060	-0,088
-426,832	-81,886	-0,082	0,019
-425,817	-200,000	-0,016	0,071
-424,803	-200,000	-0,009	0,039
-423,788	-8,571	0,091	-0,045
-422,773	468,584	-0,047	0,077
-421,759	152,975	0,074	0,073
-420,744	492,984	0,007	0,012
-419,730	-200,000	0,002	-0,061
-418,715	209,892	-0,009	0,010
-417,701	-200,000	-0,001	-0,072
-416,686	-200,000	0,009	0,095
-415,671	23,433	0,050	0,030
-414,657	272,061	0,090	0,116
-413,642	68,828	-0,072	0,054
-412,628	148,116	0,034	-0,033
-411,613	-90,991	-0,027	0,006
-410,598	129,175	-0,105	-0,097
-409,584	-100,682	0,033	-0,006
-408,569	-86,925	0,105	-0,023
-407,555	-200,000	0,004	0,101
-406,540	-115,225	-0,125	0,017
-405,525	8,339	-0,072	-0,039
-404,511	-100,373	-0,056	-0,010
-403,496	485,260	0,043	-0,072
-402,482	526,594	0,040	-0,068
-401,467	800,000	0,054	0,150
-400,452	-95,725	-0,127	0,024
-399,438	-106,378	-0,049	-0,008
-398,423	800,000	0,055	0,116
-397,409	95,340	-0,059	0,049
-396,394	-200,000	0,021	0,076
-395,379	151,724	0,123	0,122
-394,365	726,817	0,051	0,099
-393,350	800,000	0,048	0,101
-392,336	135,703	0,092	0,087
-391,321	-200,000	0,023	0,081
-390,306	-102,166	-0,122	-0,021
-389,292	95,572	0,059	-0,049
-388,277	672,210	-0,045	0,085
-387,263	800,000	0,058	0,147
-386,248	-37,460	-0,187	-0,072
-385,233	397,691	0,072	-0,110
-384,219	-200,000	0,001	-0,110
-383,204	-200,000	-0,030	-0,120
-382,190	112,085	-0,160	-0,141
-381,175	800,000	0,037	-0,102
-380,160	-150,860	-0,142	-0,008
-379,146	800,000	0,036	-0,086
-378,131	249,834	-0,069	-0,085
-377,117	543,680	-0,065	-0,113
-376,102	-10,066	-0,131	-0,063
-375,088	800,000	-0,053	-0,110
-374,073	116,138	-0,080	-0,071
-373,058	-200,000	0,017	0,074
-372,044	473,912	0,125	0,205
-371,029	-128,830	-0,203	-0,020
-370,015	-200,000	0,000	-0,068
-369,000	800,000	-0,067	-0,145
-367,985	-200,000	-0,066	-0,244
-366,971	-200,000	0,005	0,023
-365,956	-55,282	0,133	-0,043
-364,942	-152,312	-0,092	0,005
-363,927	-119,194	-0,080	0,010
-362,912	-200,000	-0,003	-0,058
-361,898	-133,683	-0,132	-0,012
-360,883	339,652	-0,023	0,033
-359,869	319,537	-0,018	-0,025
-358,854	-200,000	0,001	0,031
-357,839	778,277	0,055	-0,109
-356,825	626,057	-0,018	0,032
-355,810	800,000	-0,058	0,140
-354,796	-56,158	-0,157	-0,051
-353,781	-200,000	0,004	-0,049
-352,766	-200,000	0,005	-0,072
-351,752	-72,530	-0,063	0,017
-350,737	125,098	-0,071	0,065
-349,723	800,000	0,039	-0,092
-348,708	351,238	0,073	-0,104
-347,693	800,000	0,010	0,029
-346,679	44,295	0,102	-0,068
-345,664	303,083	-0,110	-0,148
-344,650	-200,000	0,027	0,120
-343,635	75,548	-0,021	-0,016
-342,620	352,639	0,017	0,025
-341,606	-61,054	0,095	-0,029
-340,591	-200,000	-0,088	0,000
-339,577	-13,761	-0,135	-0,063
-338,562	-200,000	0,005	0,080
-337,548	-147,918	-0,149	0,009
-336,533	196,464	-0,035	0,039
-335,518	-78,428	0,159	0,039
-334,504	2,575	0,029	0,015
-333,489	-78,486	0,133	-0,033
-332,475	207,387	0,040	-0,046
-331,460	27,962	-0,070	0,043
-330,445	338,444	-0,049	0,069
-329,431	-200,000	-0,004	0,144
-328,416	144,337	0,035	-0,034
-327,402	800,000	-0,051	-0,106
-326,387	-200,000	-0,015	0,060
-325,372	-56,162	-0,029	-0,009
-324,358	168,108	0,039	-0,040
-323,343	-200,000	0,004	-0,130
-322,329	-200,000	-0,010	0,036
-321,314	450,067	-0,019	0,030
-320,299	318,926	-0,099	0,136
-319,285	-160,305	0,107	0,004
-318,270	159,665	0,096	-0,097
-317,256	800,000	0,024	0,049
-316,241	800,000	0,046	-0,136
-315,226	-119,250	-0,239	0,030
-314,212	-16,143	-0,018	0,008
-313,197	-104,650	-0,035	0,006
-312,183	593,116	0,043	0,076
-311,168	800,000	0,022	-0,046
-310,153	-127,725	-0,125	0,013
-309,139	-200,000	-0,005	0,050
-308,124	220,542	0,057	-0,067
-307,110	-80,095	0,068	0,016
-306,095	800,000	0,065	0,155
-305,080	800,000	-0,011	-0,024
-304,066	-200,000	0,025	-0,122
-303,051	45,867	-0,057	-0,038
-302,037	141,371	0,092	0,088
-301,022	214,786	0,045	0,052
-300,008	305,735	0,077	-0,104
-298,993	275,741	-0,088	0,113
-297,978	800,000	-0,039	0,105
-296,964	227,554	0,090	0,106
-295,949	800,000	-0,010	-0,024
-294,935	-200,000	0,001	-0,036
-293,920	389,980	0,069	0,104
-292,905	-93,173	-0,115	-0,023
-291,891	-39,384	0,132	-0,050
-290,876	137,930	-0,052	0,049
-289,862	176,717	0,088	-0,092
-288,847	-200,000	0,005	0,120
-287,832	-58,733	0,072	-0,022
-286,818	62,811	0,046	0,033
-285,803	30,848	-0,092	0,057
-284,789	800,000	-0,016	0,041
-283,774	-133,145	0,037	0,003
-282,759	112,548	-0,098	0,086
-281,745	-29,813	0,039	-0,016
-280,730	214,510	-0,033	0,038
-279,716	345,757	0,068	0,098
-278,701	-184,450	0,047	-0,001
-277,686	800,000	0,013	0,030
-276,672	283,901	0,021	-0,028
-275,657	4,662	-0,059	-0,031
-274,643	-23,976	0,008	-0,004
-273,628	221,305	-0,075	0,088
-272,613	800,000	-0,005	0,011
-271,599	800,000	0,024	-0,051
-270,584	-53,195	0,053	0,018
-269,570	-54,276	0,071	0,023
-268,555	131,457	-0,093	-0,086
-267,540	-200,000	-0,019	-0,063
-266,526	800,000	0,038	-0,118
-265,511	-200,000	-0,023	0,090
-264,497	-120,682	-0,041	0,005
-263,482	290,549	0,074	0,097
-262,467	800,000	0,032	-0,079
-261,453	18,229	-0,120	-0,069
-260,438	-200,000	0,008	-0,060
-259,424	-200,000	0,027	-0,132
-258,409	-11,954	0,013	0,006
-257,395	380,209	-0,052	-0,077
-256,380	69,079	0,119	-0,089
-255,365	193,133	-0,032	0,035
-254,351	-105,131	0,057	0,009
-253,336	-88,964	0,059	0,013
-252,322	800,000	-0,031	-0,074
-251,307	-200,000	0,009	-0,091
-250,292	-135,335	0,123	-0,010
-249,278	-112,665	0,038	-0,005
-248,263	800,000	0,021	-0,050
-247,249	800,000	-0,022	0,048
-246,234	-200,000	0,001	0,081
-245,219	-45,667	0,095	-0,034
-244,205	-87,330	-0,008	-0,002
-243,190	-200,000	-0,000	0,024
-242,176	-200,000	0,013	-0,082
-241,161	113,226	-0,064	0,056
-240,146	-26,589	0,097	0,041
-239,132	-62,678	-0,093	-0,028
-238,117	-200,000	-0,006	-0,084
-237,103	89,727	0,145	-0,117
-236,088	414,598	0,035	-0,054
-235,073	-200,000	0,033	-0,106
-234,059	-22,688	0,120	-0,052
-233,044	-200,000	0,002	0,146
-232,030	25,488	0,066	-0,040
-231,015	-69,086	-0,125	0,035
-230,000	-135,491	0,058	0,005
-228,986	356,781	0,027	0,039
-227,971	463,105	0,059	0,095
-226,957	-200,000	0,007	0,047
-225,942	120,795	0,032	0,029
-224,927	-200,000	0,031	0,148
-223,913	-150,272	-0,136	0,007
-222,898	800,000	0,012	0,028
-221,884	-200,000	-0,032	-0,167
-220,869	-200,000	0,004	0,070
-219,855	87,403	-0,054	-0,043
-218,840	11,608	0,113	-0,062
-217,825	45,977	0,079	0,052
-216,811	-95,481	0,070	0,013
-215,796	-70,927	-0,124	-0,033
-214,782	-200,000	0,025	0,088
-213,767	337,423	-0,008	0,011
-212,752	-50,183	0,065	0,022
-211,738	240,147	-0,091	0,110
-210,723	-200,000	-0,028	0,119
-209,709	-200,000	-0,012	-0,064
-208,694	-147,143	-0,106	0,006
-207,679	86,905	-0,049	-0,039
-206,665	433,149	-0,062	-0,098
-205,650	80,114	0,110	0,086
-204,636	602,250	0,017	0,030
-203,621	-200,000	-0,045	0,167
-202,606	-200,000	0,006	-0,120
-201,592	-200,000	-0,051	-0,182
-200,577	98,094	0,119	0,099
-199,563	-110,713	0,103	0,015
-198,548	136,006	0,127	-0,119
-197,533	-85,861	0,048	0,011
-196,519	800,000	0,066	0,155
-195,504	-200,000	0,002	0,073
-194,490	12,304	-0,137	-0,076
-193,475	-130,151	-0,077	-0,007
-192,460	-105,040	-0,070	-0,011
-191,446	-200,000	0,002	0,073
-190,431	319,829	0,024	0,033
-189,417	369,591	0,103	-0,151
-188,402	-59,998	0,064	0,020
-187,387	26,551	-0,137	-0,082
-186,373	617,581	-0,074	-0,134
-185,358	-200,000	0,004	-0,095
-184,344	-200,000	0,010	-0,078
-183,329	96,054	0,068	-0,056
-182,315	85,856	0,077	-0,061
-181,300	354,796	-0,059	0,084
-180,285	-200,000	-0,019	0,061
-179,271	800,000	-0,052	-0,139
-178,256	-157,940	-0,087	0,004
-177,242	-200,000	0,024	-0,093
-176,227	-102,186	0,161	0,028
-175,212	2,421	-0,042	0,022
-174,198	67,918	0,060	-0,044
-173,183	-68,174	-0,099	-0,028
-172,169	89,646	-0,158	0,127
-171,154	-118,096	0,115	-0,015
-170,139	-191,277	-0,161	0,001
-169,125	-5,277	0,180	0,089
-168,110	-108,962	-0,109	0,017
-167,096	499,236	-0,055	0,092
-166,081	-200,000	-0,018	-0,086
-165,066	800,000	-0,036	-0,093
-164,052	9,118	-0,061	-0,033
-163,037	6,438	-0,124	0,066
-162,023	171,606	-0,136	0,141
-161,008	-1,506	0,071	0,036
-159,993	-200,000	-0,003	0,072
-158,979	800,000	-0,041	0,098
-157,964	-200,000	-0,001	-0,083
-156,950	635,548	-0,052	0,096
-155,935	800,000	0,010	-0,027
-154,920	-200,000	-0,005	-0,102
-153,906	-88,959	0,114	0,024
-152,891	-200,000	-0,003	-0,056
-151,877	36,399	0,027	-0,017
-150,862	-200,000	-0,000	-0,049
-149,847	-200,000	0,027	-0,110
-148,833	2,338	-0,112	-0,058
-147,818	800,000	0,034	-0,084
-146,804	117,185	0,077	0,068
-145,789	-32,002	0,088	0,035
-144,775	800,000	-0,021	-0,041
-143,760	800,000	-0,034	-0,103
-142,745	156,715	0,058	0,058
-141,731	256,718	-0,059	-0,073
-140,716	-82,749	-0,130	0,030
-139,702	-200,000	-0,005	-0,036
-138,687	-35,499	-0,048	0,019
-137,672	204,625	-0,035	-0,039
-136,658	-200,000	0,032	-0,144
-135,643	-91,083	-0,064	-0,013
-134,629	-72,859	-0,126	-0,033
-133,614	-70,809	0,104	0,028
-132,599	742,789	-0,042	0,081
-131,585	43,828	-0,055	0,036
-130,570	13,382	-0,040	-0,022
-129,556	-32,917	0,052	-0,021
-128,541	179,467	-0,031	-0,033
-127,526	-87,091	-0,118	-0,026
-126,512	-130,315	0,121	-0,012
-125,497	-200,000	-0,018	-0,081
-124,483	97,982	0,059	0,048
-123,468	800,000	0,020	-0,061
-122,453	-98,297	-0,180	-0,033
-121,439	-200,000	0,001	0,048
-120,424	20,077	-0,125	-0,073
-119,410	800,000	-0,053	-0,114
-118,395	-200,000	0,009	-0,049
-117,380	800,000	0,023	0,058
-116,366	-56,770	0,032	-0,010
-115,351	178,234	-0,154	-0,162
-114,337	73,459	0,082	0,061
-113,322	614,763	0,049	0,089
-112,307	-15,067	-0,095	0,044
-111,293	-200,000	0,005	0,037
-110,278	-200,000	0,035	0,122
-109,264	151,701	0,067	-0,066
-108,249	-58,619	-0,089	-0,028
-107,234	-5,921	0,076	-0,037
-106,220	421,610	0,027	-0,041
-105,205	-40,433	-0,025	0,009
-104,191	-200,000	-0,019	-0,153
-103,176	-25,411	-0,129	0,055
-102,162	-200,000	0,012	-0,059
-101,147	-114,547	-0,038	-0,005
-100,132	-200,000	0,047	-0,179
-99,118	-33,952	-0,129	0,051
-98,103	152,242	0,044	-0,043
-97,089	-149,119	-0,144	0,008
-96,074	64,875	0,076	-0,055
-95,059	-116,052	-0,112	-0,015
-94,045	79,085	-0,146	0,112
-93,030	800,000	0,027	-0,084
-92,016	328,205	0,026	-0,036
-91,001	-200,000	0,007	-0,039
-89,986	248,417	-0,073	-0,089
-88,972	-28,893	-0,105	-0,043
-87,957	-25,097	0,132	0,056
-86,943	-122,461	-0,173	0,020
-85,928	-200,000	0,002	0,062
-84,913	224,996	-0,033	-0,038
-83,899	-200,000	0,009	0,040
-82,884	148,224	0,057	0,055
-81,870	182,836	-0,068	0,073
-80,855	353,770	0,093	0,133
-79,840	669,960	0,024	-0,044
-78,826	486,154	-0,039	0,064
-77,811	40,122	-0,164	-0,106
-76,797	633,179	0,036	-0,066
-75,782	-200,000	-0,004	0,041
-74,767	-136,405	0,027	-0,002
-73,753	-200,000	-0,015	0,098
-72,738	-200,000	0,007	0,125
-71,724	-45,917	-0,062	-0,022
-70,709	800,000	-0,019	0,045
-69,694	-200,000	-0,025	-0,080
-68,680	-52,379	-0,041	-0,014
-67,665	-50,197	0,028	-0,010
-66,651	-1,866	-0,137	0,069
-65,636	258,577	-0,032	0,040
-64,622	-66,297	-0,168	-0,048
-63,607	-200,000	-0,009	0,078
-62,592	-0,062	0,047	-0,024
-61,578	-85,695	-0,022	-0,005
-60,563	-149,365	0,120	-0,007
-59,549	-5,161	-0,087	-0,043
-58,534	104,883	-2,759	-2,334
-57,519	-38,348	0,437	-0,165
-56,505	800,000	-1,859	-5,571
-55,490	405,896	1,363	2,069
-54,476	800,000	5,301	11,067
-53,461	-200,000	23,129	350,302
-52,446	800,000	765,820	2267,010
-51,432	497,056	1644,080	2722,982
-50,417	93,317	1600,192	1297,689
-49,403	60,947	1255,465	892,215
-48,388	21,184	1007,517	585,109
-47,373	18,562	975,269	557,788
-46,359	11,859	962,180	528,575
-45,344	7,699	958,958	513,293
-44,330	8,097	956,763	513,386
-43,315	7,194	954,935	509,466
-42,300	7,175	953,700	508,724
-41,286	7,038	953,238	508,016
-40,271	7,104	951,658	507,367
-39,257	7,083	951,155	507,012
-38,242	7,073	950,174	506,434
-37,227	7,064	949,392	505,970
-36,213	7,083	948,614	505,594
-35,198	7,142	947,544	505,194
-34,184	7,172	947,012	504,985
-33,169	7,065	946,098	504,136
-32,154	7,181	945,101	503,957
-31,140	7,093	944,577	503,376
-30,125	7,148	943,617	503,019
-29,111	7,057	942,774	502,260
-28,096	7,141	942,357	502,285
-27,082	7,061	941,811	501,721
-26,067	7,134	940,735	501,359
-25,052	7,035	940,173	500,724
-24,038	7,109	939,262	500,456
-23,023	7,036	938,617	499,861
-22,009	7,076	938,103	499,694
-20,994	7,120	937,482	499,482
-19,979	7,071	936,943	499,019
-18,965	6,958	936,302	498,300
-17,950	7,116	935,615	498,416
-16,936	7,033	935,071	497,844
-15,921	7,007	934,423	497,395
-14,906	7,014	933,614	496,966
-13,892	6,979	933,105	496,567
-12,877	6,999	932,441	496,255
-11,863	6,958	931,937	495,839
-10,848	6,941	931,423	495,492
-9,833	7,067	930,858	495,568
-8,819	7,022	930,199	495,055
-7,804	6,980	929,386	494,471
-6,790	6,942	928,939	494,097
-5,775	6,981	928,446	493,935
-4,760	7,056	927,804	493,809
-3,746	7,019	927,225	493,367
-2,731	6,842	926,417	492,361
-1,717	6,811	925,817	491,925
-0,702	6,820	925,056	491,530
0,313	6,665	924,522	491,503
1,327	10,145	921,997	500,978
2,342	18,623	770,775	440,772
3,356	13,629	442,639	245,674
4,371	-12,276	309,818	144,647
5,386	-16,139	292,589	132,718
6,400	-18,087	286,382	127,978
7,415	-18,293	283,790	126,608
8,429	-19,050	282,234	125,171
9,444	-19,017	281,116	124,695
10,459	-19,008	280,546	124,440
11,473	-18,909	279,987	124,275
12,488	-18,845	279,559	124,136
13,502	-18,957	278,975	123,759
14,517	-18,913	278,661	123,651
15,531	-18,995	278,210	123,361
16,546	-18,909	277,836	123,267
17,561	-18,741	277,227	123,144
18,575	-18,550	276,942	123,188
19,590	-18,905	276,593	122,685
20,604	-18,734	276,402	122,752
21,619	-18,734	276,040	122,580
22,634	-18,751	275,561	122,340
23,648	-18,832	275,320	122,146
24,663	-18,781	275,111	122,091
25,677	-18,837	274,792	121,885
26,692	-18,677	274,581	121,931
27,707	-18,830	274,415	121,703
28,721	-18,653	273,940	121,648
29,736	-18,705	273,598	121,436
30,750	-18,643	273,519	121,448
31,765	-18,959	273,222	121,010
32,780	-18,824	272,995	121,025
33,794	-18,996	272,898	120,811
34,809	-18,877	272,461	120,717
35,823	-18,904	272,296	120,609
36,838	-18,859	272,047	120,529
37,853	-18,735	271,701	120,480
38,867	-18,808	271,383	120,261
39,882	-18,697	271,336	120,332
40,896	-18,606	271,136	120,317
41,911	-18,775	270,781	119,993
42,926	-18,819	270,615	119,868
43,940	-18,619	270,254	119,882
44,955	-18,894	270,075	119,538
45,969	-18,513	269,898	119,800
46,984	-18,725	269,764	119,534
47,999	-18,750	269,481	119,375
49,013	-18,619	269,274	119,393
50,028	-18,525	269,145	119,412
51,042	-18,532	268,690	119,193
52,057	-18,578	268,712	119,150
53,071	-18,600	268,484	119,018
54,086	-18,608	268,327	118,931
55,101	-18,564	267,918	118,779
56,115	-18,704	267,735	118,559
57,130	-18,475	267,375	118,598
58,144	-18,844	267,240	118,192
59,159	-18,807	266,814	118,026
60,174	-18,908	266,623	117,839
61,188	-18,838	266,549	117,860
62,203	-18,652	266,293	117,905
63,217	-18,623	266,025	117,802
64,232	-18,771	265,735	117,529
65,247	-18,892	265,514	117,311
66,261	-18,777	265,128	117,234
67,276	-18,738	265,001	117,203
68,290	-18,723	264,908	117,165
69,305	-18,654	264,576	117,070
70,320	-18,707	264,463	116,961
71,334	-18,736	264,133	116,778
72,349	-18,826	263,889	116,579
73,363	-18,866	263,698	116,449
74,378	-18,716	263,383	116,434
75,393	-18,768	263,303	116,342
76,407	-18,790	262,991	116,174
77,422	-18,877	263,004	116,091
78,436	-18,744	262,628	116,033
79,451	-18,750	262,346	115,893
80,466	-18,641	262,022	115,838
81,480	-18,664	261,992	115,793
82,495	-18,669	261,650	115,627
83,509	-18,689	261,463	115,517
84,524	-18,650	261,269	115,455
85,539	-18,659	261,181	115,398
86,553	-18,756	260,903	115,178
87,568	-18,719	260,553	115,047
88,582	-18,682	260,480	115,037
89,597	-18,637	260,334	115,002
90,611	-18,619	260,020	114,869
91,626	-18,646	259,903	114,784
92,641	-18,518	259,549	114,730
93,655	-18,478	259,524	114,744
94,670	-18,705	259,100	114,346
95,684	-18,708	258,810	114,205
96,699	-18,725	258,797	114,174
97,714	-18,478	258,536	114,267
98,728	-18,689	258,524	114,065
99,743	-18,448	258,265	114,152
100,757	-18,485	257,985	113,986
101,772	-18,581	257,806	113,813
102,787	-18,674	257,619	113,639
103,801	-18,759	257,422	113,467
104,816	-18,656	256,982	113,353
105,830	-18,476	256,839	113,437
106,845	-18,675	256,838	113,253
107,860	-18,498	256,599	113,292
108,874	-18,508	256,279	113,132
109,889	-18,633	256,187	112,972
110,903	-18,767	255,982	112,755
111,918	-18,671	255,874	112,781
112,933	-18,712	255,656	112,639
113,947	-18,562	255,360	112,629
114,962	-18,537	255,208	112,573
115,976	-18,647	254,987	112,371
116,991	-18,663	254,791	112,261
118,006	-18,773	254,756	112,140
119,020	-18,787	254,404	111,963
120,035	-18,659	254,272	112,005
121,049	-18,642	254,079	111,925
122,064	-18,580	253,768	111,831
123,079	-18,703	253,644	111,661
124,093	-18,539	253,520	111,737
125,108	-18,491	253,283	111,664
126,122	-18,409	253,091	111,640
127,137	-18,494	252,843	111,447
128,151	-18,557	252,780	111,356
129,166	-18,298	252,428	111,413
130,181	-18,343	252,257	111,289
131,195	-18,506	251,997	111,025
132,210	-18,569	251,865	110,903
133,224	-18,642	251,700	110,758
134,239	-18,639	251,391	110,615
135,254	-18,550	251,121	110,562
136,268	-18,728	251,074	110,380
137,283	-18,530	250,851	110,440
138,297	-18,677	250,717	110,246
139,312	-18,500	250,526	110,303
140,327	-18,592	250,070	110,015
141,341	-18,583	250,066	110,011
142,356	-18,513	249,853	109,967
143,370	-18,581	249,666	109,816
144,385	-18,548	249,548	109,783
145,400	-18,609	249,112	109,530
146,414	-18,435	248,952	109,596
147,429	-18,666	248,919	109,377
148,443	-18,445	248,745	109,477
149,458	-18,533	248,558	109,311
150,473	-18,584	248,411	109,194
151,487	-18,718	248,247	108,999
152,502	-18,440	247,865	109,055
153,516	-18,465	247,688	108,947
154,531	-18,552	247,612	108,830
155,546	-18,818	247,470	108,536
156,560	-18,387	247,237	108,784
157,575	-18,488	247,010	108,591
158,589	-18,345	246,762	108,591
159,604	-18,578	246,588	108,310
160,619	-18,417	246,451	108,375
161,633	-18,650	246,349	108,126
162,648	-18,672	246,156	108,013
163,662	-18,485	245,884	108,040
164,677	-18,574	245,838	107,936
165,692	-18,580	245,606	107,819
166,706	-18,627	245,481	107,716
167,721	-18,751	245,286	107,518
168,735	-18,524	245,145	107,635
169,750	-18,552	244,793	107,448
170,764	-18,526	244,835	107,478
171,779	-18,730	244,703	107,242
172,794	-18,607	244,546	107,265
173,808	-18,803	244,282	106,978
174,823	-18,433	244,123	107,204
175,837	-18,431	244,023	107,152
176,852	-18,499	243,696	106,943
177,867	-18,432	243,707	106,994
178,881	-18,654	243,543	106,729
179,896	-18,608	243,227	106,619
180,910	-18,541	243,124	106,619
181,925	-18,683	243,013	106,444
182,940	-18,527	242,688	106,421
183,954	-18,477	242,457	106,351
184,969	-18,543	242,304	106,220
185,983	-18,467	242,231	106,241
186,998	-18,538	242,058	106,098
188,013	-18,615	241,916	105,963
189,027	-18,398	241,707	106,039
190,042	-18,604	241,382	105,719
191,056	-18,461	241,420	105,843
192,071	-18,675	241,263	105,591
193,086	-18,601	241,087	105,564
194,100	-18,686	240,768	105,346
195,115	-18,594	240,588	105,333
196,129	-18,567	240,375	105,252
197,144	-18,584	240,117	105,116
198,159	-18,794	240,086	104,923
199,173	-18,688	239,914	104,924
200,188	-18,579	239,727	104,921
201,202	-18,358	239,565	105,019
202,217	-18,375	239,405	104,926
203,232	-18,402	239,221	104,814
204,246	-18,440	238,769	104,576
205,261	-18,575	238,879	104,507
206,275	-17,118	239,303	105,857
207,290	-12,382	240,957	110,421
208,304	-6,002	242,981	116,546
209,319	-2,305	243,929	120,014
210,334	-1,201	244,287	121,082
211,348	-0,429	244,346	121,730
212,363	0,163	244,347	122,204
213,377	0,240	244,242	122,204
214,392	0,571	244,177	122,430
215,407	0,899	244,065	122,630
216,421	1,173	243,805	122,712
217,436	1,117	243,802	122,654
218,450	1,071	243,565	122,486
219,465	1,129	243,498	122,489
220,480	1,296	243,355	122,542
221,494	1,023	243,277	122,270
222,509	0,587	242,974	121,753
223,523	0,642	242,717	121,657
224,538	0,541	242,618	121,516
225,553	0,382	242,388	121,261
226,567	0,136	242,158	120,936
227,582	0,351	241,997	121,019
228,596	0,392	241,842	120,963
229,611	0,343	241,734	120,859
230,626	0,420	241,541	120,813
231,640	0,403	241,305	120,672
232,655	0,392	241,254	120,626
233,669	0,278	240,983	120,388
234,684	0,296	240,924	120,362
235,699	0,497	240,767	120,435
236,713	0,375	240,657	120,271
237,728	0,531	240,433	120,274
238,742	0,482	240,279	120,146
239,757	0,291	240,067	119,877
240,772	0,396	239,951	119,892
241,786	0,458	239,817	119,865
242,801	0,288	239,673	119,645
243,815	0,613	239,357	119,736
244,830	0,482	239,273	119,579
245,844	0,543	239,030	119,496
246,859	0,421	238,996	119,371
247,874	0,450	238,884	119,328
248,888	0,384	238,641	119,143
249,903	0,479	238,578	119,177
250,917	0,360	238,458	119,011
251,932	0,497	238,240	119,000
252,947	0,533	238,012	118,905
253,961	0,773	237,694	118,926
254,976	0,425	237,588	118,586
255,990	0,434	237,677	118,627
257,005	0,565	237,506	118,635
258,020	0,637	237,331	118,594
259,034	0,635	237,089	118,460
260,049	0,506	236,959	118,283
261,063	0,499	236,677	118,126
262,078	0,466	236,680	118,092
263,093	0,661	236,423	118,106
264,107	0,479	236,341	117,911
265,122	0,565	236,110	117,853
266,136	0,518	236,052	117,777
267,151	0,361	235,975	117,605
268,166	0,555	235,710	117,615
269,180	0,456	235,621	117,482
270,195	0,682	235,375	117,526
271,209	0,377	235,456	117,317
272,224	0,579	235,181	117,327
273,239	0,369	235,026	117,076
274,253	0,542	234,693	117,034
275,268	0,578	234,727	117,069
276,282	0,464	234,597	116,905
277,297	0,456	234,344	116,762
278,312	0,442	234,309	116,723
279,326	0,399	234,066	116,558
280,341	0,464	233,953	116,542
281,355	0,572	233,823	116,551
282,370	0,450	233,690	116,379
283,384	0,477	233,518	116,304
284,399	0,382	233,293	116,108
285,414	0,608	233,228	116,241
286,428	0,442	233,158	116,067
287,443	0,844	232,908	116,242
288,457	0,410	232,838	115,862
289,472	0,486	232,680	115,832
290,487	0,481	232,463	115,709
291,501	0,517	232,242	115,617
292,516	0,601	232,121	115,611
293,530	0,442	232,065	115,451
294,545	0,541	231,875	115,422
295,560	0,546	231,715	115,336
296,574	0,656	231,505	115,306
297,589	0,430	231,459	115,099
298,603	0,614	231,241	115,121
299,618	0,495	231,228	115,014
300,633	0,692	230,982	115,031
301,647	0,845	230,786	115,040
302,662	0,852	230,736	115,011
303,676	0,619	230,675	114,792
304,691	0,718	230,427	114,734
305,706	0,618	230,292	114,580
306,720	0,812	229,988	114,567
307,735	0,874	229,919	114,569
308,749	0,766	229,758	114,397
309,764	0,723	229,658	114,304
310,779	0,773	229,407	114,207
311,793	0,757	229,350	114,156
312,808	0,796	229,102	114,052
313,822	0,624	229,034	113,878
314,837	0,800	228,896	113,932
315,852	0,679	228,902	113,833
316,866	0,822	228,689	113,826
317,881	0,804	228,512	113,714
318,895	0,788	228,417	113,644
319,910	0,768	228,118	113,470
320,925	0,808	228,124	113,493
321,939	0,903	227,897	113,442
322,954	0,830	227,730	113,294
323,968	0,826	227,720	113,276
324,983	0,978	227,563	113,302
325,997	0,760	227,362	113,027
327,012	0,643	227,257	112,877
328,027	0,716	227,119	112,853
329,041	0,644	227,037	112,748
330,056	0,864	226,733	112,753
331,070	1,048	226,618	112,823
332,085	0,736	226,576	112,558
333,100	1,069	226,288	112,655
334,114	0,832	226,191	112,419
335,129	0,888	225,885	112,298
336,143	0,698	225,798	112,103
337,158	1,028	225,624	112,253
338,173	0,897	225,638	112,153
339,187	0,841	225,666	112,115
340,202	1,076	225,271	112,083
341,216	0,947	225,155	111,920
342,231	0,735	225,023	111,687
343,246	0,960	224,865	111,765
344,260	0,745	224,884	111,605
345,275	0,975	224,593	111,621
346,289	1,067	224,392	111,579
347,304	1,040	224,211	111,460
348,319	0,945	224,262	111,405
349,333	1,125	223,949	111,372
350,348	0,957	223,838	111,183
351,362	1,126	223,714	111,236
352,377	1,336	223,557	111,303
353,392	1,110	223,569	111,133
354,406	1,076	223,346	110,986
355,421	192,147	1312,034	1376,714
356,435	153,846	1444,519	1376,540
