DTS Sentinel unit serial number:	SN410029Multiplexer serial number:	ORYXHardware model number:	OX2-SRSoftware version number:	ORYX F/W v4,00 Oryx Data Collector v3.7.2.0data status	okinstallation	B5 Nyhavnadifferential loss correction	single-endedforward channel	channel 2reverse channel	N/Adate	2023/12/13time	22:07:14forward acquisition time	300,00reverse acquisition time	0,00gamma	499,1914k internal	0,3154k external	0,3154temperature offset calibration	1,0000default loss term (dB/km)	0,3820temperature slope calibration	1,0000multiplexer offset coefficient	1,0000multiplexer slope coefficient	1,0000fibre end	0,00T internal ref (°C)	9,57T ext. ref 1 (°C)	-7,11T ext. ref 2 (°C)	-7,14length (m)	temperature (°C)	Stokes	anti-Stokes-744,400	20,877	0,156	0,093
-743,385	-118,229	-0,338	-0,044
-742,371	-82,957	0,336	0,079
-741,356	-121,757	-0,399	-0,048
-740,342	105,090	0,283	0,246
-739,327	-83,948	-0,433	-0,101
-738,312	-171,567	0,201	-0,005
-737,298	-159,100	-0,339	0,014
-736,283	167,587	0,113	0,119
-735,269	-91,732	-0,188	-0,039
-734,254	-93,114	0,161	0,033
-733,239	-34,232	-0,494	-0,199
-732,225	43,172	0,166	0,112
-731,210	24,269	-0,031	0,019
-730,196	-59,101	0,030	0,009
-729,181	122,972	-0,158	-0,146
-728,167	-200,000	0,004	-0,030
-727,152	-200,000	0,018	0,075
-726,137	524,606	-0,079	-0,138
-725,123	626,520	0,030	-0,056
-724,108	360,633	-0,035	0,052
-723,094	-200,000	-0,013	-0,102
-722,079	83,128	0,095	-0,076
-721,064	-117,752	0,202	-0,027
-720,050	542,555	-0,012	-0,021
-719,035	716,055	-0,009	0,018
-718,021	57,368	-0,266	-0,191
-717,006	-200,000	-0,032	0,106
-715,991	800,000	-0,049	-0,115
-714,977	140,672	-0,057	-0,055
-713,962	-105,602	-0,107	0,018
-712,948	82,831	0,065	0,052
-711,933	231,124	0,025	-0,031
-710,918	136,968	0,078	0,076
-709,904	-200,000	0,007	-0,062
-708,889	-200,000	0,007	0,046
-707,875	3,835	-0,060	-0,032
-706,860	800,000	0,047	-0,099
-705,845	-200,000	0,020	0,108
-704,831	93,841	0,032	0,027
-703,816	-57,761	0,136	-0,044
-702,802	-117,142	-0,071	-0,009
-701,787	725,579	-0,060	-0,119
-700,772	-200,000	-0,003	-0,020
-699,758	150,997	-0,029	0,029
-698,743	40,300	-0,052	0,034
-697,729	445,023	0,057	0,092
-696,714	28,075	0,122	0,076
-695,699	-156,523	-0,037	0,002
-694,685	191,649	-0,071	-0,079
-693,670	421,958	-0,053	0,084
-692,656	800,000	-0,062	0,153
-691,641	87,787	0,042	0,034
-690,627	3,854	-0,043	-0,023
-689,612	800,000	-0,043	-0,105
-688,597	54,856	0,072	0,051
-687,583	-200,000	-0,006	-0,053
-686,568	-66,707	-0,125	0,036
-685,554	144,971	0,071	-0,070
-684,539	-200,000	-0,015	0,092
-683,524	591,513	-0,070	0,128
-682,510	800,000	-0,035	0,092
-681,495	800,000	-0,030	0,094
-680,481	127,383	-0,064	-0,060
-679,466	800,000	0,052	-0,135
-678,451	-107,763	0,013	0,002
-677,437	9,202	0,108	0,060
-676,422	-98,006	-0,106	0,020
-675,408	-139,899	-0,025	-0,002
-674,393	-200,000	0,027	0,129
-673,378	51,746	0,045	0,031
-672,364	-200,000	0,018	-0,130
-671,349	311,214	-0,052	0,072
-670,335	-15,731	0,027	0,012
-669,320	252,154	-0,044	-0,055
-668,305	800,000	-0,057	-0,118
-667,291	800,000	0,024	-0,061
-666,276	-20,686	-0,076	0,034
-665,262	213,857	-0,126	0,146
-664,247	-200,000	0,004	-0,030
-663,232	7,473	0,046	-0,025
-662,218	85,933	0,055	-0,044
-661,203	-200,000	-0,006	-0,030
-660,189	371,335	0,024	-0,036
-659,174	-148,366	-0,157	0,009
-658,159	449,381	-0,023	-0,037
-657,145	-200,000	0,003	-0,223
-656,130	573,045	0,065	0,116
-655,116	346,545	0,058	-0,085
-654,101	237,647	0,061	-0,074
-653,086	-105,295	-0,059	0,010
-652,072	154,644	-0,035	-0,035
-651,057	-200,000	-0,002	0,145
-650,043	-200,000	0,000	-0,023
-649,028	-113,979	0,083	0,012
-648,014	62,036	-0,044	-0,032
-646,999	800,000	0,050	-0,139
-645,984	169,806	-0,028	0,029
-644,970	-93,473	-0,030	-0,006
-643,955	187,865	-0,030	-0,033
-642,941	800,000	0,021	-0,066
-641,926	-67,322	0,076	0,022
-640,911	-130,848	0,158	0,015
-639,897	167,158	0,076	0,080
-638,882	-200,000	0,014	0,064
-637,868	-37,209	0,100	0,039
-636,853	330,946	-0,130	-0,184
-635,838	-48,590	-0,065	-0,023
-634,824	304,372	-0,042	-0,057
-633,809	177,034	0,018	-0,019
-632,795	245,744	-0,143	-0,177
-631,780	69,137	-0,047	-0,035
-630,765	-200,000	0,023	-0,093
-629,751	-8,789	0,093	-0,046
-628,736	97,300	-0,076	-0,064
-627,722	462,802	-0,054	-0,089
-626,707	767,299	-0,029	0,058
-625,692	800,000	0,003	0,006
-624,678	116,415	0,024	-0,021
-623,663	350,979	0,067	0,098
-622,649	288,026	0,050	0,067
-621,634	-200,000	0,002	0,024
-620,619	150,361	0,097	0,096
-619,605	-111,243	-0,136	0,020
-618,590	37,015	0,092	0,060
-617,576	-111,772	0,076	0,011
-616,561	-200,000	-0,004	-0,157
-615,546	81,305	-0,056	-0,044
-614,532	192,727	-0,093	-0,103
-613,517	-200,000	-0,006	-0,063
-612,503	542,571	0,027	0,048
-611,488	800,000	-0,010	-0,022
-610,474	-200,000	0,024	-0,149
-609,459	20,583	0,030	-0,018
-608,444	-22,364	-0,062	-0,027
-607,430	232,631	0,048	-0,058
-606,415	-72,171	-0,118	0,032
-605,401	-200,000	0,041	0,169
-604,386	438,251	-0,089	0,143
-603,371	-200,000	-0,032	0,136
-602,357	-69,761	0,096	-0,027
-601,342	19,563	-0,107	0,063
-600,328	-160,013	0,178	-0,007
-599,313	800,000	0,036	0,107
-598,298	179,894	0,040	0,043
-597,284	-119,295	0,074	-0,009
-596,269	-200,000	0,004	0,043
-595,255	-141,162	0,105	-0,008
-594,240	16,452	-0,131	-0,076
-593,225	-77,564	-0,060	0,015
-592,211	-200,000	-0,023	0,086
-591,196	-159,561	-0,048	-0,002
-590,182	-84,380	0,104	0,024
-589,167	94,195	-0,041	0,034
-588,152	322,705	-0,019	0,026
-587,138	41,474	0,088	0,058
-586,123	-200,000	0,000	-0,007
-585,109	-1,446	0,128	-0,066
-584,094	-43,028	0,024	0,009
-583,079	-200,000	-0,046	0,175
-582,065	800,000	0,004	-0,010
-581,050	8,160	-0,115	0,063
-580,036	123,415	0,118	-0,108
-579,021	-200,000	0,043	-0,177
-578,006	-200,000	-0,020	-0,069
-576,992	18,021	-0,032	-0,019
-575,977	-128,330	-0,112	0,012
-574,963	-156,132	-0,075	-0,003
-573,948	-200,000	-0,031	-0,213
-572,934	93,072	0,066	-0,054
-571,919	328,285	-0,029	-0,041
-570,904	-100,921	-0,109	0,019
-569,890	-169,569	0,088	0,002
-568,875	-20,842	0,108	0,048
-567,861	-102,614	0,031	-0,005
-566,846	-30,868	-0,091	-0,038
-565,831	-10,737	-0,069	0,033
-564,817	149,778	0,063	0,063
-563,802	36,711	-0,083	0,053
-562,788	23,135	-0,117	-0,070
-561,773	-92,388	0,164	-0,033
-560,758	114,260	0,064	0,057
-559,744	-200,000	0,012	0,057
-558,729	57,281	0,112	-0,080
-557,715	41,472	-0,057	-0,038
-556,700	550,870	-0,076	-0,134
-555,685	52,896	-0,111	0,078
-554,671	-47,161	0,090	-0,032
-553,656	-26,005	0,036	-0,015
-552,642	21,333	-0,092	0,055
-551,627	800,000	0,010	-0,021
-550,612	-38,070	-0,145	0,056
-549,598	-200,000	0,014	0,064
-548,583	35,955	-0,120	-0,077
-547,569	295,529	-0,047	-0,063
-546,554	306,721	0,067	0,091
-545,539	551,755	-0,028	0,049
-544,525	-200,000	-0,014	0,057
-543,510	49,799	0,029	-0,020
-542,496	47,137	-0,054	-0,037
-541,481	-138,962	-0,171	0,013
-540,466	-77,383	0,106	0,027
-539,452	44,909	-0,072	-0,049
-538,437	252,111	0,078	-0,097
-537,423	-200,000	-0,004	0,013
-536,408	54,483	-0,119	-0,084
-535,393	800,000	-0,019	-0,052
-534,379	-200,000	-0,007	0,049
-533,364	-200,000	-0,017	-0,145
-532,350	39,496	-0,061	0,040
-531,335	-96,077	0,055	-0,011
-530,321	-200,000	0,019	0,129
-529,306	179,258	0,090	-0,097
-528,291	-200,000	-0,023	-0,092
-527,277	107,344	-0,088	-0,077
-526,262	-86,174	0,133	0,030
-525,248	-200,000	-0,010	0,081
-524,233	-138,722	-0,033	0,003
-523,218	-200,000	0,038	-0,148
-522,204	58,334	-0,080	0,057
-521,189	499,613	0,034	-0,058
-520,175	38,908	-0,157	-0,103
-519,160	800,000	-0,030	0,070
-518,145	-200,000	0,042	-0,180
-517,131	800,000	-0,017	-0,043
-516,116	35,943	0,029	-0,019
-515,102	791,125	-0,059	-0,120
-514,087	800,000	0,046	-0,100
-513,072	-200,000	-0,017	-0,107
-512,058	355,152	0,027	-0,039
-511,043	41,058	0,175	0,115
-510,029	-200,000	0,011	0,187
-509,014	-18,136	0,175	-0,080
-507,999	800,000	0,032	-0,079
-506,985	-68,250	-0,019	-0,005
-505,970	-200,000	-0,009	-0,112
-504,956	89,284	-0,062	-0,051
-503,941	119,084	-0,068	0,062
-502,926	-200,000	-0,005	0,096
-501,912	-200,000	-0,017	0,114
-500,897	-62,297	0,061	-0,019
-499,883	71,908	-0,216	-0,164
-498,868	-200,000	0,045	-0,298
-497,853	-200,000	-0,006	0,021
-496,839	-200,000	-0,006	-0,056
-495,824	336,932	-0,049	-0,070
-494,810	66,698	0,138	-0,102
-493,795	276,023	-0,080	0,104
-492,781	442,646	-0,130	0,208
-491,766	-200,000	-0,029	-0,124
-490,751	41,304	-0,037	0,024
-489,737	-200,000	-0,006	0,040
-488,722	800,000	0,063	0,145
-487,708	800,000	-0,065	0,142
-486,693	800,000	0,043	0,098
-485,678	-200,000	-0,000	0,036
-484,664	-49,434	-0,053	-0,018
-483,649	-200,000	-0,016	-0,110
-482,635	25,157	0,071	0,043
-481,620	-200,000	-0,007	0,089
-480,605	800,000	0,036	0,079
-479,591	20,363	0,019	0,011
-478,576	-200,000	-0,009	0,175
-477,562	425,790	0,054	-0,085
-476,547	-200,000	-0,013	-0,094
-475,532	483,441	-0,024	-0,039
-474,518	-200,000	0,009	0,071
-473,503	-53,695	0,060	-0,020
-472,489	800,000	-0,034	0,107
-471,474	23,162	-0,014	-0,008
-470,459	79,596	0,023	-0,018
-469,445	-9,075	0,015	-0,007
-468,430	-11,610	-0,060	-0,029
-467,416	-200,000	-0,036	0,122
-466,401	-200,000	-0,021	0,115
-465,386	-144,275	0,055	0,004
-464,372	363,514	-0,031	0,045
-463,357	160,099	-0,078	0,079
-462,343	-200,000	-0,012	0,089
-461,328	14,809	-0,097	-0,055
-460,313	-68,842	-0,021	-0,006
-459,299	-63,571	0,080	0,024
-458,284	114,709	-0,106	0,094
-457,270	800,000	0,024	0,076
-456,255	-200,000	0,001	0,105
-455,241	207,365	-0,055	-0,063
-454,226	-14,303	-0,071	-0,033
-453,211	-45,363	0,029	0,010
-452,197	44,417	0,054	0,036
-451,182	-28,831	-0,067	0,028
-450,168	-200,000	0,006	-0,048
-449,153	-149,714	-0,043	0,002
-448,138	-73,337	-0,041	-0,011
-447,124	766,394	-0,028	0,057
-446,109	-46,442	0,160	0,057
-445,095	-200,000	0,010	0,203
-444,080	-115,243	-0,017	0,002
-443,065	-200,000	0,046	-0,154
-442,051	-164,141	-0,201	-0,007
-441,036	-200,000	-0,012	-0,204
-440,022	-200,000	0,008	0,034
-439,007	-200,000	0,010	0,054
-437,992	342,139	0,065	0,094
-436,978	-10,920	-0,096	-0,046
-435,963	-102,429	-0,088	0,015
-434,949	264,773	0,082	-0,104
-433,934	392,750	-0,084	-0,128
-432,919	-200,000	-0,000	0,067
-431,905	242,297	0,057	-0,070
-430,890	36,043	0,033	0,021
-429,876	614,644	0,017	-0,031
-428,861	67,458	-0,154	-0,114
-427,846	-58,010	0,091	-0,029
-426,832	133,356	-0,065	0,062
-425,817	-200,000	0,007	-0,088
-424,803	121,778	0,024	0,022
-423,788	321,074	0,054	-0,076
-422,773	89,917	-0,103	-0,084
-421,759	761,193	-0,038	0,076
-420,744	575,592	0,063	0,113
-419,730	585,969	-0,008	0,015
-418,715	201,574	-0,022	0,025
-417,701	226,136	-0,117	-0,139
-416,686	-66,751	0,094	-0,027
-415,671	160,486	0,013	0,013
-414,657	-200,000	0,007	0,053
-413,642	-200,000	0,021	0,100
-412,628	102,823	-0,091	-0,078
-411,613	505,833	0,072	-0,122
-410,598	-200,000	-0,053	0,000
-409,584	-46,542	0,065	-0,023
-408,569	127,123	0,023	-0,021
-407,555	228,349	0,091	0,108
-406,540	-130,974	0,061	-0,006
-405,525	-200,000	-0,015	0,090
-404,511	307,243	-0,089	-0,121
-403,496	800,000	0,035	-0,095
-402,482	-116,172	0,072	-0,010
-401,467	-132,378	0,122	-0,011
-400,452	21,055	-0,048	0,028
-399,438	511,424	0,030	-0,051
-398,423	-149,595	-0,056	0,003
-397,409	158,588	0,021	-0,022
-396,394	-94,730	-0,060	0,012
-395,379	-32,771	0,040	-0,016
-394,365	-128,177	0,057	-0,006
-393,350	-1,796	0,108	0,055
-392,336	-32,873	0,197	0,079
-391,321	228,361	-0,043	0,051
-390,306	21,831	-0,110	-0,065
-389,292	-178,539	-0,127	0,002
-388,277	-200,000	0,004	-0,111
-387,263	529,195	-0,109	0,188
-386,248	218,047	0,084	0,098
-385,233	312,130	0,072	0,098
-384,219	640,602	-0,073	-0,135
-383,204	277,615	-0,058	-0,075
-382,190	-200,000	0,021	-0,141
-381,175	-8,854	0,145	0,070
-380,160	-200,000	0,034	-0,111
-379,146	767,794	0,020	-0,039
-378,131	-20,299	0,046	-0,020
-377,117	792,059	-0,021	0,042
-376,102	580,447	-0,020	0,036
-375,088	800,000	-0,043	-0,105
-374,073	-200,000	0,008	-0,137
-373,058	800,000	-0,032	0,080
-372,044	800,000	-0,043	-0,091
-371,029	800,000	0,036	0,099
-370,015	-200,000	-0,027	0,111
-369,000	-110,851	-0,126	-0,019
-367,985	314,160	0,019	-0,026
-366,971	800,000	0,031	-0,063
-365,956	-23,493	0,057	0,025
-364,942	-26,242	-0,092	0,039
-363,927	800,000	0,059	0,161
-362,912	674,939	-0,026	0,049
-361,898	-200,000	-0,033	0,145
-360,883	-5,760	-0,123	-0,061
-359,869	47,880	0,148	0,100
-358,854	-200,000	0,004	0,063
-357,839	406,083	0,079	0,121
-356,825	43,601	0,144	0,096
-355,810	-4,496	-0,105	-0,052
-354,796	-200,000	-0,008	0,070
-353,781	-23,946	-0,067	-0,029
-352,766	-46,349	-0,043	-0,015
-351,752	97,681	-0,111	-0,093
-350,737	800,000	0,024	0,071
-349,723	2,679	0,047	0,025
-348,708	-200,000	0,021	-0,110
-347,693	-76,112	-0,014	-0,004
-346,679	-200,000	-0,026	-0,127
-345,664	800,000	0,017	0,047
-344,650	-200,000	-0,042	-0,155
-343,635	40,478	0,121	0,079
-342,620	-33,511	-0,103	-0,041
-341,606	65,727	0,085	-0,062
-340,591	800,000	0,058	-0,127
-339,577	182,067	0,006	-0,006
-338,562	-200,000	-0,040	-0,128
-337,548	-200,000	0,008	0,060
-336,533	-14,529	0,096	0,045
-335,518	-200,000	-0,008	0,101
-334,504	-117,569	-0,016	-0,002
-333,489	112,803	0,120	-0,105
-332,475	-71,336	-0,057	-0,015
-331,460	800,000	0,018	0,044
-330,445	373,781	-0,045	-0,066
-329,431	800,000	0,081	-0,200
-328,416	-114,847	0,198	-0,027
-327,402	-7,487	-0,122	0,060
-326,387	25,035	0,086	-0,052
-325,372	800,000	-0,030	0,091
-324,358	-200,000	-0,031	-0,106
-323,343	162,166	-0,131	0,134
-322,329	90,641	0,052	0,042
-321,314	-200,000	0,016	0,127
-320,299	779,003	-0,037	0,074
-319,285	-200,000	-0,000	0,051
-318,270	227,732	-0,095	0,113
-317,256	-24,574	-0,087	-0,038
-316,241	-200,000	0,001	0,044
-315,226	93,179	-0,103	0,084
-314,212	-200,000	-0,008	-0,114
-313,197	281,100	0,018	-0,023
-312,183	-200,000	0,031	0,141
-311,168	-116,732	0,185	-0,024
-310,153	223,074	0,020	-0,023
-309,139	-61,360	-0,111	-0,034
-308,124	-50,181	-0,131	0,045
-307,110	32,765	0,042	-0,026
-306,095	-200,000	0,028	-0,094
-305,080	-200,000	0,007	-0,024
-304,066	-200,000	-0,023	0,091
-303,051	186,851	0,143	0,154
-302,037	164,469	-0,064	-0,065
-301,022	38,585	-0,114	0,074
-300,008	800,000	0,047	-0,129
-298,993	800,000	-0,019	-0,058
-297,978	-200,000	-0,020	-0,069
-296,964	32,858	0,107	0,067
-295,949	146,825	0,057	0,056
-294,935	-152,400	0,058	-0,003
-293,920	-37,144	0,087	-0,034
-292,905	552,050	-0,027	0,046
-291,891	-53,130	0,118	0,039
-290,876	208,688	0,065	0,073
-289,862	800,000	0,045	0,105
-288,847	470,985	-0,044	-0,072
-287,832	-111,064	-0,090	0,013
-286,818	-7,076	0,048	-0,024
-285,803	-65,263	0,068	0,020
-284,789	41,956	0,098	-0,065
-283,774	-6,862	0,025	-0,012
-282,759	-200,000	0,003	-0,112
-281,745	-129,313	-0,089	0,009
-280,730	-200,000	-0,003	-0,031
-279,716	-200,000	-0,001	-0,009
-278,701	107,261	0,094	0,081
-277,686	800,000	-0,078	0,173
-276,672	169,821	0,017	-0,018
-275,657	169,658	0,045	0,046
-274,643	386,460	-0,016	0,025
-273,628	-15,628	-0,039	0,018
-272,613	516,972	-0,058	0,099
-271,599	-200,000	0,004	0,116
-270,584	-200,000	0,008	-0,064
-269,570	78,737	0,160	-0,124
-268,555	-200,000	-0,024	0,172
-267,540	-72,650	0,034	0,009
-266,526	406,324	-0,057	-0,087
-265,511	374,392	0,015	-0,022
-264,497	-200,000	0,003	-0,036
-263,482	-200,000	0,003	0,172
-262,467	482,846	-0,069	0,114
-261,453	59,417	-0,141	0,101
-260,438	800,000	-0,033	-0,091
-259,424	-200,000	0,022	0,092
-258,409	-144,801	-0,015	0,001
-257,395	800,000	0,050	0,121
-256,380	-15,114	0,053	0,024
-255,365	800,000	0,040	0,094
-254,351	-200,000	0,037	-0,126
-253,336	246,981	0,034	-0,041
-252,322	366,812	-0,066	-0,096
-251,307	-30,209	0,048	0,020
-250,292	124,129	0,018	-0,017
-249,278	-45,020	0,101	-0,036
-248,263	-200,000	0,001	-0,051
-247,249	-93,537	-0,049	-0,010
-246,234	-200,000	0,001	-0,067
-245,219	-177,515	-0,059	0,001
-244,205	11,470	0,030	0,017
-243,190	193,822	-0,108	-0,118
-242,176	4,948	0,065	0,034
-241,161	119,905	0,067	-0,060
-240,146	114,379	-0,022	-0,020
-239,132	-200,000	0,010	-0,163
-238,117	-200,000	-0,011	-0,082
-237,103	-102,931	0,057	0,010
-236,088	11,366	-0,047	0,026
-235,073	-27,640	-0,060	-0,025
-234,059	800,000	-0,049	-0,110
-233,044	793,309	-0,020	0,040
-232,030	-32,514	0,146	-0,058
-231,015	-157,302	-0,092	-0,004
-230,000	-75,984	-0,105	-0,027
-228,986	-200,000	0,007	0,076
-227,971	294,719	0,060	0,079
-226,957	249,894	0,068	0,083
-225,942	-76,396	0,112	-0,028
-224,927	-200,000	0,002	0,073
-223,913	-32,173	0,023	-0,009
-222,898	-200,000	0,026	-0,134
-221,884	-90,969	0,137	0,028
-220,869	-200,000	0,002	-0,069
-219,855	800,000	0,034	0,109
-218,840	800,000	0,040	0,099
-217,825	-6,294	0,069	-0,034
-216,811	-54,126	-0,069	0,023
-215,796	-151,169	-0,092	-0,005
-214,782	-153,991	0,133	0,006
-213,767	-37,523	0,132	-0,050
-212,752	-200,000	0,010	0,122
-211,738	129,691	0,068	0,063
-210,723	800,000	-0,027	0,060
-209,709	-200,000	0,001	-0,109
-208,694	-146,598	0,002	0,000
-207,679	-200,000	0,007	-0,060
-206,665	800,000	-0,011	-0,026
-205,650	-58,356	0,039	-0,012
-204,636	12,404	0,038	0,021
-203,621	402,581	-0,015	-0,023
-202,606	-31,756	0,134	0,054
-201,592	152,835	-0,090	0,089
-200,577	162,032	0,025	0,026
-199,563	437,741	0,040	0,064
-198,548	-30,329	0,136	0,056
-197,533	-130,456	-0,146	0,014
-196,519	-200,000	0,035	0,195
-195,504	124,379	-0,085	0,077
-194,490	-200,000	-0,038	-0,168
-193,475	194,528	-0,060	0,066
-192,460	-89,516	0,059	0,012
-191,446	117,839	0,050	-0,045
-190,431	800,000	0,033	0,080
-189,417	-200,000	0,013	0,112
-188,402	140,425	-0,105	-0,100
-187,387	294,879	-0,041	-0,055
-186,373	-25,286	-0,072	0,031
-185,358	-200,000	0,009	0,122
-184,344	-23,148	-0,094	-0,041
-183,329	-128,712	0,247	-0,025
-182,315	800,000	-0,032	-0,087
-181,300	-123,671	0,100	-0,011
-180,285	-200,000	0,023	-0,074
-179,271	-200,000	-0,038	-0,145
-178,256	58,029	-0,121	-0,086
-177,242	800,000	0,007	0,023
-176,227	-200,000	0,008	0,102
-175,212	674,690	-0,036	0,067
-174,198	-93,318	-0,085	0,017
-173,183	-97,912	0,143	0,026
-172,169	-126,055	-0,118	-0,013
-171,154	-127,274	0,109	-0,011
-170,139	-200,000	0,006	0,096
-169,125	121,246	-0,013	0,011
-168,110	38,816	-0,081	0,052
-167,096	800,000	-0,043	0,101
-166,081	800,000	-0,031	0,080
-165,066	-128,862	-0,085	-0,008
-164,052	800,000	-0,083	-0,234
-163,037	703,811	-0,077	-0,148
-162,023	800,000	-0,073	0,162
-161,008	118,730	-0,094	0,084
-159,993	172,415	-0,019	0,019
-158,979	143,115	-0,064	-0,061
-157,964	465,616	0,051	0,083
-156,950	-107,572	0,080	0,013
-155,935	73,882	-0,102	0,077
-154,920	362,440	-0,019	-0,028
-153,906	-55,150	0,101	-0,033
-152,891	540,918	0,049	-0,085
-151,877	-200,000	0,003	-0,034
-150,862	-60,042	-0,130	-0,040
-149,847	800,000	0,062	0,154
-148,833	161,189	-0,064	0,065
-147,818	800,000	0,043	-0,107
-146,804	15,490	-0,071	-0,040
-145,789	54,482	0,137	-0,095
-144,775	67,944	-0,026	-0,019
-143,760	-200,000	-0,065	0,000
-142,745	-200,000	0,006	-0,036
-141,731	-200,000	0,000	0,105
-140,716	11,374	-0,002	-0,001
-139,702	-81,575	-0,127	0,030
-138,687	800,000	-0,035	0,105
-137,672	-58,286	0,090	0,028
-136,658	314,025	-0,071	-0,097
-135,643	477,559	0,057	-0,093
-134,629	18,318	-0,085	-0,049
-133,614	-165,843	0,065	0,002
-132,599	-76,605	0,072	0,018
-131,585	-127,765	0,048	-0,005
-130,570	-200,000	-0,001	0,039
-129,556	-62,739	-0,185	0,055
-128,541	-91,656	-0,143	0,029
-127,526	39,751	0,139	-0,090
-126,512	324,566	0,031	0,043
-125,497	-133,218	0,031	-0,003
-124,483	3,162	-0,068	-0,036
-123,468	800,000	-0,039	-0,087
-122,453	3,332	0,026	0,013
-121,439	-67,839	0,051	-0,014
-120,424	-200,000	-0,020	-0,098
-119,410	800,000	0,030	0,093
-118,395	153,584	0,036	-0,035
-117,380	120,361	-0,032	-0,028
-116,366	-72,926	-0,149	-0,039
-115,351	-200,000	-0,016	0,062
-114,337	-41,352	-0,066	-0,024
-113,322	30,247	-0,069	-0,043
-112,307	-200,000	-0,018	-0,093
-111,293	337,517	0,038	0,054
-110,278	800,000	0,054	0,144
-109,264	66,800	0,005	0,004
-108,249	-200,000	0,012	-0,079
-107,234	-113,834	0,018	-0,002
-106,220	-200,000	0,031	-0,119
-105,205	41,828	0,154	-0,100
-104,191	800,000	0,015	0,035
-103,176	146,878	0,068	0,066
-102,162	-21,359	0,175	0,077
-101,147	-200,000	0,006	-0,083
-100,132	-48,225	-0,162	0,056
-99,118	800,000	0,036	-0,078
-98,103	-164,607	-0,119	0,004
-97,089	204,526	-0,050	-0,055
-96,074	71,016	-0,112	0,083
-95,059	-54,317	-0,044	-0,014
-94,045	247,125	-0,083	-0,101
-93,030	-200,000	0,021	-0,081
-92,016	-200,000	0,008	0,030
-91,001	170,116	0,076	-0,079
-89,986	-190,354	0,094	-0,001
-88,972	81,857	-0,034	-0,026
-87,957	-110,928	-0,076	0,011
-86,943	75,825	-0,032	-0,024
-85,928	800,000	-0,025	-0,057
-84,913	56,449	-0,156	-0,109
-83,899	-200,000	0,003	0,030
-82,884	168,959	-0,039	0,040
-81,870	221,118	0,056	-0,064
-80,855	188,407	0,079	0,085
-79,840	3,466	-0,111	-0,058
-78,826	257,048	0,068	-0,084
-77,811	-200,000	-0,029	0,114
-76,797	66,970	0,095	-0,069
-75,782	80,239	0,034	-0,026
-74,767	281,059	0,028	-0,037
-73,753	-200,000	-0,006	-0,145
-72,738	-93,076	0,205	0,041
-71,724	149,202	-0,076	0,074
-70,709	-77,982	0,118	-0,029
-69,694	1,341	-0,109	-0,056
-68,680	-200,000	-0,023	0,077
-67,665	-11,660	0,132	0,062
-66,651	150,422	0,109	-0,107
-65,636	800,000	-0,083	0,204
-64,622	73,600	0,045	0,034
-63,607	-81,491	0,006	-0,001
-62,592	65,052	0,051	-0,037
-61,578	208,200	-0,006	-0,007
-60,563	414,544	0,064	0,098
-59,549	2,202	-0,054	0,028
-58,534	72,424	-2,491	-1,864
-57,519	80,368	0,309	-0,239
-56,505	-200,000	-1,635	-5,313
-55,490	383,382	0,989	1,466
-54,476	800,000	5,349	11,838
-53,461	-200,000	21,278	336,359
-52,446	800,000	762,575	2310,569
-51,432	517,432	1662,095	2803,557
-50,417	106,396	1628,044	1385,883
-49,403	76,152	1280,378	972,581
-48,388	26,755	1025,325	615,466
-47,373	19,080	990,547	569,135
-46,359	13,982	978,003	545,119
-45,344	10,199	974,600	530,737
-44,330	10,604	972,736	531,035
-43,315	9,667	970,741	526,844
-42,300	9,584	969,720	525,996
-41,286	9,596	968,534	525,371
-40,271	9,572	967,727	524,834
-39,257	9,598	966,691	524,336
-38,242	9,627	965,948	524,009
-37,227	9,513	965,232	523,228
-36,213	9,506	964,453	522,761
-35,198	9,546	963,474	522,339
-34,184	9,592	962,787	522,095
-33,169	9,536	961,793	521,354
-32,154	9,610	960,886	521,084
-31,140	9,585	960,000	520,500
-30,125	9,695	958,874	520,226
-29,111	9,589	958,320	519,560
-28,096	9,676	957,704	519,489
-27,082	9,656	956,871	518,952
-26,067	9,606	956,428	518,530
-25,052	9,658	955,334	518,085
-24,038	9,584	954,854	517,564
-23,023	9,628	954,195	517,328
-22,009	9,584	953,750	516,924
-20,994	9,600	953,022	516,561
-19,979	9,622	952,414	516,280
-18,965	9,589	951,898	515,875
-17,950	9,607	951,223	515,548
-16,936	9,590	950,514	515,086
-15,921	9,598	949,811	514,712
-14,906	9,457	949,202	513,909
-13,892	9,484	948,514	513,601
-12,877	9,511	947,706	513,229
-11,863	9,539	947,093	512,968
-10,848	9,515	946,446	512,520
-9,833	9,604	946,126	512,610
-8,819	9,583	945,451	512,159
-7,804	9,488	944,756	511,456
-6,790	9,482	944,319	511,181
-5,775	9,525	943,778	511,006
-4,760	9,530	942,903	510,528
-3,746	9,488	942,395	510,099
-2,731	9,418	941,520	509,381
-1,717	9,360	940,986	508,888
-0,702	9,370	940,329	508,546
0,313	9,161	940,015	508,478
1,327	12,639	937,565	518,138
2,342	21,392	786,503	457,773
3,356	16,590	452,310	255,945
4,371	-10,176	314,075	149,124
5,386	-14,227	296,396	136,600
6,400	-16,345	290,233	131,637
7,415	-16,438	287,761	130,412
8,429	-16,894	286,011	129,161
9,444	-16,841	285,117	128,798
10,459	-16,794	284,504	128,554
11,473	-16,824	283,934	128,257
12,488	-16,793	283,320	127,998
13,502	-16,994	282,968	127,632
14,517	-16,658	282,544	127,755
15,531	-16,534	282,232	127,723
16,546	-16,401	281,765	127,629
17,561	-16,571	281,424	127,298
18,575	-16,469	281,094	127,237
19,590	-16,417	280,679	127,087
20,604	-16,292	280,515	127,122
21,619	-16,306	279,863	126,802
22,634	-16,385	279,703	126,643
23,648	-16,307	279,369	126,554
24,663	-16,205	279,105	126,521
25,677	-16,285	278,762	126,278
26,692	-16,308	278,689	126,211
27,707	-16,359	278,334	125,991
28,721	-16,242	278,059	125,966
29,736	-16,502	277,793	125,588
30,750	-16,531	277,663	125,490
31,765	-16,411	277,367	125,458
32,780	-16,380	277,103	125,358
33,794	-16,300	276,732	125,255
34,809	-16,435	276,610	125,060
35,823	-16,545	276,318	124,813
36,838	-16,242	276,042	124,963
37,853	-16,267	275,572	124,716
38,867	-16,241	275,651	124,765
39,882	-16,225	275,320	124,619
40,896	-16,286	275,128	124,464
41,911	-16,273	274,825	124,328
42,926	-16,318	274,547	124,149
43,940	-16,298	274,251	124,022
44,955	-16,335	273,994	123,860
45,969	-16,415	273,850	123,710
46,984	-16,178	273,536	123,778
47,999	-16,328	273,526	123,623
49,013	-16,197	273,318	123,641
50,028	-16,157	273,105	123,570
51,042	-16,112	272,750	123,440
52,057	-16,173	272,657	123,331
53,071	-16,041	272,316	123,288
54,086	-16,409	272,322	122,937
55,101	-16,100	271,819	122,987
56,115	-16,254	271,709	122,782
57,130	-16,180	271,332	122,670
58,144	-16,417	271,005	122,292
59,159	-16,671	270,966	122,028
60,174	-16,259	270,543	122,208
61,188	-16,381	270,281	121,966
62,203	-16,397	270,301	121,948
63,217	-16,347	270,001	121,849
64,232	-16,380	269,898	121,761
65,247	-16,490	269,498	121,468
66,261	-16,368	269,236	121,452
67,276	-16,351	269,122	121,406
68,290	-16,424	268,934	121,242
69,305	-16,233	268,576	121,245
70,320	-16,339	268,449	121,080
71,334	-16,188	268,132	121,064
72,349	-16,386	268,000	120,813
73,363	-16,345	267,748	120,726
74,378	-16,287	267,389	120,607
75,393	-16,422	267,287	120,427
76,407	-16,109	267,096	120,615
77,422	-15,998	266,774	120,559
78,436	-16,293	266,474	120,145
79,451	-16,295	266,306	120,057
80,466	-16,293	266,213	120,006
81,480	-16,317	265,976	119,867
82,495	-16,229	265,712	119,817
83,509	-16,167	265,688	119,852
84,524	-16,164	265,318	119,677
85,539	-16,106	265,043	119,595
86,553	-16,150	264,773	119,422
87,568	-16,291	264,625	119,218
88,582	-16,234	264,471	119,190
89,597	-16,319	264,235	118,995
90,611	-16,123	264,017	119,063
91,626	-16,388	263,843	118,736
92,641	-16,221	263,637	118,782
93,655	-16,278	263,429	118,627
94,670	-16,290	263,321	118,557
95,684	-16,025	262,964	118,623
96,699	-16,373	263,009	118,320
97,714	-16,232	262,773	118,330
98,728	-16,201	262,515	118,232
99,743	-16,226	262,413	118,153
100,757	-16,132	261,945	118,015
101,772	-16,271	261,769	117,801
102,787	-16,168	261,591	117,802
103,801	-16,181	261,266	117,634
104,816	-16,387	261,255	117,435
105,830	-16,310	261,036	117,395
106,845	-16,478	260,807	117,132
107,860	-16,285	260,552	117,179
108,874	-16,273	260,249	117,043
109,889	-16,254	260,258	117,053
110,903	-16,545	259,890	116,620
111,918	-16,372	259,751	116,700
112,933	-16,248	259,549	116,708
113,947	-16,286	259,282	116,544
114,962	-16,269	259,062	116,450
115,976	-16,150	258,900	116,472
116,991	-16,354	258,808	116,240
118,006	-16,397	258,688	116,138
119,020	-16,115	258,374	116,235
120,035	-16,352	258,341	116,001
121,049	-16,198	258,087	116,011
122,064	-16,150	257,826	115,926
123,079	-16,341	257,654	115,671
124,093	-16,228	257,422	115,655
125,108	-16,282	257,304	115,545
126,122	-16,148	257,043	115,534
127,137	-15,990	256,841	115,572
128,151	-16,047	256,802	115,494
129,166	-16,167	256,404	115,200
130,181	-16,335	256,297	114,995
131,195	-16,366	256,046	114,846
132,210	-16,287	255,732	114,764
133,224	-16,166	255,641	114,817
134,239	-16,148	255,371	114,701
135,254	-16,292	255,285	114,527
136,268	-16,263	255,022	114,425
137,283	-16,225	254,881	114,384
138,297	-15,955	254,640	114,499
139,312	-16,123	254,377	114,225
140,327	-16,162	254,192	114,099
141,341	-16,300	253,911	113,843
142,356	-16,180	253,733	113,857
143,370	-16,335	253,547	113,629
144,385	-16,564	253,584	113,439
145,400	-16,299	253,246	113,506
146,414	-16,464	253,175	113,321
147,429	-16,406	252,860	113,221
148,443	-16,345	252,672	113,179
149,458	-16,152	252,593	113,299
150,473	-16,276	252,266	113,035
151,487	-16,251	252,149	112,994
152,502	-16,116	251,968	113,018
153,516	-16,374	251,868	112,743
154,531	-16,031	251,554	112,885
155,546	-16,370	251,374	112,505
156,560	-16,185	251,149	112,552
157,575	-16,221	251,009	112,449
158,589	-16,504	250,730	112,073
159,604	-16,533	250,638	111,998
160,619	-16,120	250,456	112,257
161,633	-16,048	250,220	112,202
162,648	-16,180	250,115	112,033
163,662	-16,196	249,903	111,915
164,677	-16,283	249,827	111,797
165,692	-16,039	249,568	111,877
166,706	-16,318	249,482	111,593
167,721	-16,105	249,117	111,599
168,735	-16,184	248,948	111,447
169,750	-15,996	248,833	111,544
170,764	-16,016	248,620	111,422
171,779	-16,332	248,638	111,154
172,794	-16,259	248,418	111,107
173,808	-16,053	248,085	111,121
174,823	-16,132	248,205	111,099
175,837	-16,193	248,001	110,946
176,852	-16,232	247,591	110,720
177,867	-16,158	247,638	110,793
178,881	-16,261	247,360	110,573
179,896	-16,133	247,175	110,588
180,910	-16,244	246,957	110,388
181,925	-16,222	246,703	110,283
182,940	-16,440	246,723	110,099
183,954	-16,221	246,468	110,158
184,969	-16,113	246,166	110,103
185,983	-16,169	246,090	110,013
186,998	-15,983	245,775	110,017
188,013	-16,171	245,768	109,848
189,027	-16,178	245,554	109,737
190,042	-16,289	245,436	109,582
191,056	-16,321	245,216	109,448
192,071	-16,333	244,929	109,300
193,086	-16,268	244,737	109,258
194,100	-16,488	244,628	109,018
195,115	-16,349	244,444	109,041
196,129	-16,151	244,269	109,117
197,144	-16,154	243,962	108,967
198,159	-16,275	243,760	108,768
199,173	-16,214	243,655	108,762
200,188	-16,418	243,554	108,538
201,202	-16,189	243,246	108,580
202,217	-16,092	243,037	108,557
203,232	-16,246	243,017	108,412
204,246	-16,418	242,708	108,124
205,261	-16,747	242,333	107,678
206,275	-16,008	242,551	108,369
207,290	-11,387	244,433	113,008
208,304	-4,490	246,567	119,703
209,319	-1,020	247,549	123,051
210,334	0,241	247,725	124,174
211,348	1,208	247,746	124,974
212,363	1,311	247,870	125,111
213,377	1,608	247,927	125,375
214,392	2,091	247,838	125,719
215,407	2,231	247,674	125,740
216,421	2,260	247,553	125,692
217,436	2,435	247,276	125,685
218,450	2,229	247,221	125,476
219,465	2,154	247,096	125,338
220,480	2,135	246,838	125,181
221,494	2,055	246,555	124,961
222,509	1,605	246,277	124,439
223,523	1,343	246,061	124,102
224,538	1,280	245,799	123,907
225,553	1,205	245,682	123,776
226,567	1,038	245,575	123,574
227,582	1,241	245,361	123,622
228,596	1,213	245,227	123,521
229,611	1,259	245,107	123,487
230,626	0,982	244,900	123,144
231,640	1,095	244,765	123,158
232,655	1,061	244,473	122,973
233,669	0,977	244,312	122,812
234,684	1,231	244,225	122,964
235,699	1,110	244,129	122,806
236,713	1,149	243,868	122,696
237,728	1,174	243,889	122,716
238,742	1,138	243,614	122,538
239,757	1,383	243,396	122,616
240,772	1,160	243,281	122,366
241,786	1,073	243,200	122,244
242,801	1,207	242,925	122,203
243,815	1,062	242,799	122,011
244,830	1,330	242,550	122,092
245,844	1,283	242,437	121,986
246,859	1,103	242,308	121,765
247,874	1,136	242,109	121,681
248,888	1,225	241,972	121,673
249,903	1,329	241,928	121,724
250,917	1,331	241,715	121,608
251,932	1,364	241,634	121,582
252,947	1,505	241,390	121,562
253,961	1,300	241,264	121,323
254,976	1,138	241,006	121,053
255,990	1,315	240,838	121,100
257,005	1,185	240,705	120,918
258,020	1,161	240,596	120,832
259,034	1,409	240,349	120,897
260,049	1,132	240,201	120,589
261,063	1,224	240,075	120,590
262,078	1,176	239,930	120,468
263,093	1,155	239,806	120,378
264,107	1,184	239,780	120,377
265,122	1,321	239,370	120,269
266,136	1,351	239,302	120,249
267,151	1,349	239,211	120,191
268,166	1,116	239,026	119,901
269,180	1,216	238,777	119,845
270,195	1,336	238,593	119,837
271,209	1,249	238,583	119,753
272,224	1,229	238,432	119,650
273,239	1,346	238,142	119,587
274,253	1,274	238,042	119,469
275,268	1,007	238,007	119,229
276,282	1,218	237,761	119,263
277,297	1,348	237,580	119,263
278,312	1,199	237,503	119,097
279,326	0,961	237,378	118,836
280,341	1,354	237,112	119,002
281,355	1,402	237,004	118,975
282,370	1,054	236,929	118,652
283,384	1,294	236,609	118,670
284,399	0,941	236,674	118,415
285,414	1,222	236,373	118,475
286,428	1,258	236,300	118,455
287,443	1,395	235,968	118,386
288,457	1,119	236,116	118,233
289,472	1,348	235,851	118,269
290,487	1,249	235,537	118,023
291,501	1,138	235,473	117,894
292,516	1,127	235,338	117,807
293,530	1,312	235,223	117,884
294,545	1,447	235,089	117,912
295,560	1,435	234,971	117,833
296,574	1,070	234,834	117,469
297,589	1,353	234,599	117,561
298,603	1,235	234,515	117,417
299,618	1,353	234,275	117,378
300,633	1,575	234,078	117,441
301,647	1,572	234,022	117,401
302,662	1,495	233,849	117,243
303,676	1,412	233,763	117,125
304,691	1,671	233,602	117,235
305,706	1,691	233,436	117,157
306,720	1,489	233,362	116,953
307,735	1,389	233,163	116,765
308,749	1,520	232,917	116,733
309,764	1,446	232,828	116,620
310,779	1,402	232,730	116,527
311,793	1,593	232,488	116,543
312,808	1,363	232,435	116,329
313,822	1,475	232,272	116,323
314,837	1,457	232,062	116,194
315,852	1,568	231,926	116,201
316,866	1,647	231,735	116,155
317,881	1,575	231,758	116,101
318,895	1,505	231,466	115,890
319,910	1,445	231,380	115,791
320,925	1,313	231,205	115,592
321,939	1,407	231,068	115,586
322,954	1,517	230,883	115,566
323,968	1,333	230,760	115,354
324,983	1,647	230,652	115,529
325,997	1,459	230,592	115,345
327,012	1,398	230,368	115,177
328,027	1,667	230,057	115,216
329,041	1,209	230,007	114,832
330,056	1,555	229,893	115,029
331,070	1,690	229,744	115,046
332,085	1,518	229,539	114,803
333,100	1,526	229,338	114,697
334,114	1,151	229,354	114,411
335,129	1,488	229,037	114,498
336,143	1,433	228,996	114,426
337,158	1,509	228,927	114,438
338,173	1,626	228,632	114,369
339,187	1,468	228,687	114,267
340,202	1,516	228,434	114,167
341,216	1,503	228,192	114,025
342,231	1,528	228,049	113,963
343,246	1,502	228,031	113,924
344,260	1,521	227,743	113,785
345,275	1,621	227,675	113,816
346,289	1,579	227,545	113,709
347,304	1,694	227,437	113,731
348,319	1,657	227,266	113,608
349,333	1,489	227,026	113,352
350,348	1,636	226,965	113,421
351,362	1,503	226,781	113,219
352,377	1,371	226,703	113,072
353,392	1,660	226,502	113,177
354,406	1,532	226,363	113,003
355,421	192,413	1313,116	1380,842
356,435	154,162	1445,389	1380,711
