DTS Sentinel unit serial number:	SN410029Multiplexer serial number:	ORYXHardware model number:	OX2-SRSoftware version number:	ORYX F/W v4,00 Oryx Data Collector v3.7.2.0data status	okinstallation	B5 Nyhavnadifferential loss correction	single-endedforward channel	channel 2reverse channel	N/Adate	2023/12/13time	07:07:13forward acquisition time	300,00reverse acquisition time	0,00gamma	499,1914k internal	0,3160k external	0,3160temperature offset calibration	1,0000default loss term (dB/km)	0,3820temperature slope calibration	1,0000multiplexer offset coefficient	1,0000multiplexer slope coefficient	1,0000fibre end	0,00T internal ref (°C)	13,73T ext. ref 1 (°C)	-2,71T ext. ref 2 (°C)	-3,03length (m)	temperature (°C)	Stokes	anti-Stokes-744,400	-151,965	0,070	0,004
-743,385	-129,501	-0,364	-0,037
-742,371	242,578	0,077	0,096
-741,356	-5,145	-0,308	0,155
-740,342	263,058	0,093	0,120
-739,327	-99,900	-0,329	-0,060
-738,312	3,918	0,083	0,044
-737,298	-149,981	-0,317	-0,018
-736,283	230,650	0,069	-0,084
-735,269	-112,312	-0,261	0,038
-734,254	-31,841	0,153	0,063
-733,239	-57,474	-0,398	-0,128
-732,225	-172,729	0,179	0,004
-731,210	246,514	0,031	0,039
-730,196	800,000	-0,047	-0,101
-729,181	-55,144	-0,171	-0,056
-728,167	-94,430	-0,164	0,033
-727,152	-200,000	-0,008	-0,065
-726,137	12,981	-0,067	-0,038
-725,123	39,780	-0,105	-0,069
-724,108	-200,000	-0,003	-0,059
-723,094	-32,340	0,049	-0,020
-722,079	-200,000	-0,020	-0,107
-721,064	92,211	0,114	-0,094
-720,050	-41,651	-0,043	-0,016
-719,035	800,000	-0,052	-0,137
-718,021	156,459	-0,026	0,027
-717,006	-200,000	-0,050	-0,210
-715,991	-48,770	-0,099	-0,035
-714,977	800,000	-0,049	-0,141
-713,962	-15,848	0,029	0,014
-712,948	-200,000	0,006	0,021
-711,933	-66,921	0,005	-0,001
-710,918	-200,000	-0,021	-0,148
-709,904	54,757	-0,034	0,024
-708,889	-200,000	0,010	-0,140
-707,875	-200,000	0,005	-0,088
-706,860	-200,000	0,017	-0,093
-705,845	278,495	-0,057	-0,075
-704,831	800,000	0,030	0,069
-703,816	-24,611	-0,028	-0,012
-702,802	-200,000	-0,042	0,000
-701,787	411,743	-0,042	-0,066
-700,772	-40,720	0,041	-0,016
-699,758	-200,000	0,001	-0,054
-698,743	203,776	0,031	-0,035
-697,729	-44,602	0,137	0,050
-696,714	8,860	-0,036	-0,020
-695,699	-4,344	0,051	-0,026
-694,685	-142,776	-0,150	-0,011
-693,670	-200,000	-0,002	0,012
-692,656	-200,000	-0,006	-0,024
-691,641	19,026	0,027	-0,016
-690,627	-83,683	0,107	-0,025
-689,612	571,837	-0,033	0,060
-688,597	-89,313	0,117	-0,025
-687,583	-53,036	0,109	-0,037
-686,568	-200,000	0,006	-0,150
-685,554	-20,931	0,061	0,027
-684,539	127,530	0,070	-0,066
-683,524	-59,680	0,076	-0,024
-682,510	-200,000	0,006	0,024
-681,495	370,667	0,035	-0,053
-680,481	17,052	0,090	-0,053
-679,466	800,000	0,053	-0,114
-678,451	678,730	-0,021	0,041
-677,437	-27,493	-0,038	0,016
-676,422	349,032	-0,080	0,116
-675,408	-200,000	0,007	0,103
-674,393	-32,981	0,090	0,037
-673,378	393,125	-0,037	-0,057
-672,364	77,640	-0,015	0,012
-671,349	-55,027	0,023	-0,008
-670,335	9,225	-0,071	0,039
-669,320	-122,872	0,004	0,000
-668,305	-127,187	0,042	-0,004
-667,291	80,578	0,043	-0,034
-666,276	-200,000	0,001	-0,089
-665,262	-62,649	-0,136	-0,041
-664,247	-200,000	0,013	-0,163
-663,232	461,721	0,094	-0,154
-662,218	11,629	0,029	-0,017
-661,203	264,103	0,073	0,094
-660,189	279,657	-0,079	-0,104
-659,174	-42,727	-0,109	-0,040
-658,159	-200,000	0,033	-0,146
-657,145	-200,000	-0,031	-0,155
-656,130	-29,166	-0,176	0,074
-655,116	34,874	0,069	0,044
-654,101	631,052	0,073	0,137
-653,086	-95,914	0,041	-0,008
-652,072	-74,712	-0,112	-0,029
-651,057	225,943	-0,044	-0,052
-650,043	800,000	-0,023	-0,067
-649,028	-200,000	0,038	-0,166
-648,014	28,099	0,118	-0,073
-646,999	-200,000	-0,006	-0,054
-645,984	353,307	-0,062	0,091
-644,970	-72,196	-0,175	-0,047
-643,955	207,645	-0,109	-0,125
-642,941	-200,000	-0,015	-0,064
-641,926	-76,216	0,049	-0,013
-640,911	154,768	0,094	0,095
-639,897	800,000	0,060	0,155
-638,882	-133,787	0,026	-0,002
-637,868	240,879	-0,084	0,103
-636,853	40,556	-0,165	-0,109
-635,838	-200,000	-0,010	-0,088
-634,824	214,838	0,104	-0,122
-633,809	342,433	-0,064	0,092
-632,795	-110,164	-0,045	-0,007
-631,780	-98,039	0,101	-0,019
-630,765	-200,000	0,002	0,020
-629,751	9,880	-0,044	-0,024
-628,736	-200,000	-0,013	-0,059
-627,722	400,335	-0,012	0,018
-626,707	-8,241	0,010	-0,005
-625,692	-148,167	-0,027	0,002
-624,678	-200,000	-0,002	0,067
-623,663	30,883	0,066	0,041
-622,649	-24,169	-0,150	0,065
-621,634	89,810	-0,042	-0,035
-620,619	-200,000	0,090	0,000
-619,605	-200,000	0,018	-0,080
-618,590	-200,000	-0,044	-0,165
-617,576	-27,396	0,085	-0,036
-616,561	112,523	-0,122	-0,108
-615,546	64,074	-0,113	-0,083
-614,532	167,728	-0,146	-0,152
-613,517	131,438	-0,119	0,112
-612,503	106,309	-0,053	0,046
-611,488	16,488	-0,034	0,020
-610,474	163,471	0,024	-0,025
-609,459	196,953	-0,051	0,057
-608,444	-200,000	-0,014	-0,065
-607,430	6,428	-0,055	-0,030
-606,415	44,940	-0,084	-0,057
-605,401	-94,148	0,079	-0,016
-604,386	-200,000	-0,021	-0,146
-603,371	139,179	0,078	0,075
-602,357	267,017	-0,017	-0,022
-601,342	800,000	-0,019	0,048
-600,328	7,166	-0,103	-0,056
-599,313	-200,000	-0,003	-0,059
-598,298	-153,666	-0,032	-0,002
-597,284	-191,969	0,174	0,001
-596,269	177,975	0,043	-0,046
-595,255	800,000	-0,017	0,054
-594,240	-190,262	0,022	-0,000
-593,225	254,712	-0,054	-0,067
-592,211	-200,000	0,046	-0,177
-591,196	82,834	-0,069	-0,055
-590,182	247,853	-0,054	-0,067
-589,167	42,664	-0,043	0,029
-588,152	-45,708	0,116	-0,042
-587,138	-39,318	-0,111	0,043
-586,123	229,364	-0,054	-0,065
-585,109	-113,862	0,045	-0,006
-584,094	98,418	-0,024	0,020
-583,079	95,190	0,059	-0,049
-582,065	-200,000	-0,011	-0,154
-581,050	323,875	-0,040	0,056
-580,036	-70,925	-0,068	0,019
-579,021	740,704	-0,070	-0,137
-578,006	-200,000	-0,019	-0,177
-576,992	-14,715	-0,166	0,078
-575,977	-88,753	0,103	0,022
-574,963	-200,000	-0,009	0,061
-573,948	800,000	0,022	0,057
-572,934	-200,000	0,015	0,065
-571,919	-200,000	0,010	-0,087
-570,904	800,000	0,013	0,041
-569,890	60,795	-0,012	-0,009
-568,875	-200,000	-0,031	-0,144
-567,861	-64,277	-0,130	0,039
-566,846	800,000	0,019	-0,052
-565,831	-200,000	-0,003	-0,067
-564,817	-200,000	0,027	-0,128
-563,802	260,393	0,015	0,019
-562,788	82,737	-0,100	-0,080
-561,773	-75,409	0,130	0,034
-560,758	-123,228	0,128	0,015
-559,744	-77,902	0,044	-0,011
-558,729	-129,749	-0,181	0,018
-557,715	669,046	0,034	0,064
-556,700	67,453	-0,115	-0,085
-555,685	-200,000	-0,041	-0,141
-554,671	315,660	-0,098	0,135
-553,656	585,097	-0,058	0,105
-552,642	495,026	0,091	0,153
-551,627	225,156	0,046	0,054
-550,612	-84,459	0,056	0,013
-549,598	-168,877	-0,246	0,007
-548,583	800,000	-0,053	0,109
-547,569	456,797	0,043	-0,070
-546,554	121,734	0,110	0,100
-545,539	35,608	0,011	0,007
-544,525	-1,929	-0,125	0,064
-543,510	-26,454	-0,128	0,055
-542,496	-6,939	-0,131	0,065
-541,481	177,111	0,033	-0,035
-540,466	109,744	0,026	-0,023
-539,452	-1,446	0,090	0,046
-538,437	800,000	0,040	0,096
-537,423	-9,489	-0,109	0,053
-536,408	206,473	0,085	-0,097
-535,393	-84,878	-0,090	-0,021
-534,379	800,000	-0,018	-0,056
-533,364	71,369	0,113	-0,086
-532,350	800,000	0,044	0,123
-531,335	-200,000	-0,040	0,186
-530,321	-136,356	0,113	-0,009
-529,306	-200,000	-0,044	0,186
-528,291	800,000	-0,086	-0,230
-527,277	433,864	-0,067	0,106
-526,262	-200,000	0,027	-0,099
-525,248	393,175	-0,048	0,072
-524,233	190,504	-0,033	-0,036
-523,218	800,000	0,109	-0,224
-522,204	-72,587	0,111	0,030
-521,189	-200,000	-0,017	0,113
-520,175	125,062	-0,073	-0,068
-519,160	92,756	-0,026	-0,021
-518,145	50,629	0,123	-0,085
-517,131	-200,000	0,007	-0,040
-516,116	48,926	0,009	-0,006
-515,102	-18,773	-0,034	-0,015
-514,087	88,477	-0,020	0,017
-513,072	493,165	-0,047	-0,079
-512,058	305,218	0,037	0,050
-511,043	-88,130	0,099	-0,022
-510,029	-2,414	0,025	-0,013
-509,014	-102,354	0,132	-0,023
-507,999	-47,458	-0,001	-0,000
-506,985	-200,000	-0,018	0,143
-505,970	-200,000	-0,033	0,134
-504,956	14,789	-0,101	0,057
-503,941	-39,597	0,139	-0,053
-502,926	376,840	-0,035	0,052
-501,912	-200,000	-0,002	-0,009
-500,897	-200,000	0,010	-0,044
-499,883	-200,000	0,016	-0,167
-498,868	-67,433	-0,145	-0,041
-497,853	34,945	-0,048	-0,031
-496,839	-200,000	0,009	-0,068
-495,824	433,091	0,004	0,006
-494,810	-200,000	0,015	-0,127
-493,795	49,503	-0,005	-0,004
-492,781	-200,000	0,007	0,086
-491,766	-200,000	-0,001	0,025
-490,751	-93,972	-0,083	0,016
-489,737	332,366	0,024	-0,034
-488,722	-124,877	0,044	0,005
-487,708	800,000	0,041	0,106
-486,693	-90,869	0,056	0,012
-485,678	37,741	-0,056	0,036
-484,664	190,686	-0,085	-0,094
-483,649	187,175	-0,019	-0,021
-482,635	634,787	0,041	-0,076
-481,620	-92,259	0,015	0,003
-480,605	86,677	-0,008	0,007
-479,591	-182,963	-0,052	0,001
-478,576	75,188	-0,064	0,049
-477,562	800,000	-0,009	-0,026
-476,547	-200,000	0,045	-0,161
-475,532	70,370	0,075	0,057
-474,518	270,542	0,110	0,141
-473,503	-200,000	0,001	0,044
-472,489	-13,805	0,073	-0,035
-471,474	486,042	0,054	-0,089
-470,459	-114,535	0,023	0,003
-469,445	-9,094	0,040	-0,019
-468,430	-106,754	-0,030	-0,005
-467,416	-70,744	0,095	0,026
-466,401	58,648	0,075	-0,053
-465,386	-107,816	0,055	0,009
-464,372	-200,000	-0,017	0,089
-463,357	-200,000	0,003	0,055
-462,343	-200,000	-0,011	-0,059
-461,328	800,000	-0,084	-0,178
-460,313	800,000	0,012	-0,027
-459,299	316,813	-0,057	-0,078
-458,284	-200,000	-0,015	-0,085
-457,270	-16,061	-0,030	-0,014
-456,255	-170,480	-0,098	-0,002
-455,241	128,152	0,082	-0,076
-454,226	-62,974	0,071	-0,021
-453,211	201,301	0,098	-0,110
-452,197	-82,025	0,253	0,060
-451,182	-200,000	0,007	-0,072
-450,168	251,743	0,048	-0,060
-449,153	-14,676	-0,041	0,019
-448,138	-79,107	-0,172	-0,042
-447,124	256,781	0,041	0,051
-446,109	-200,000	-0,016	0,061
-445,095	-150,008	0,081	-0,005
-444,080	395,118	0,056	0,085
-443,065	169,750	0,112	0,117
-442,051	-200,000	0,000	-0,078
-441,036	95,083	-0,112	-0,093
-440,022	244,703	-0,041	-0,050
-439,007	19,920	0,142	-0,083
-437,992	-200,000	0,000	-0,044
-436,978	-200,000	0,007	0,144
-435,963	-200,000	0,019	-0,067
-434,949	-168,248	-0,079	0,002
-433,934	-200,000	0,027	0,086
-432,919	452,648	-0,041	0,067
-431,905	703,523	0,053	0,103
-430,890	34,235	0,107	0,067
-429,876	1,886	0,028	0,015
-428,861	216,100	-0,056	0,065
-427,846	-85,799	-0,015	0,003
-426,832	-200,000	-0,013	-0,097
-425,817	643,075	0,013	-0,024
-424,803	800,000	-0,027	-0,055
-423,788	-200,000	0,003	0,051
-422,773	-200,000	-0,012	0,057
-421,759	234,880	0,048	0,058
-420,744	121,402	-0,101	-0,092
-419,730	-200,000	-0,004	0,039
-418,715	489,807	0,015	-0,025
-417,701	-200,000	0,001	-0,100
-416,686	-96,543	0,039	-0,007
-415,671	-106,928	0,065	0,010
-414,657	-5,699	0,061	0,030
-413,642	-81,067	-0,151	-0,036
-412,628	-200,000	0,004	0,044
-411,613	-47,843	-0,055	0,019
-410,598	-129,220	0,057	0,006
-409,584	-89,826	-0,091	0,019
-408,569	294,404	0,058	0,078
-407,555	800,000	0,060	-0,162
-406,540	-76,246	0,027	-0,007
-405,525	309,689	-0,020	0,028
-404,511	-200,000	-0,005	-0,030
-403,496	105,682	-0,131	-0,113
-402,482	-200,000	0,015	0,080
-401,467	38,210	-0,101	0,065
-400,452	129,550	0,029	-0,027
-399,438	417,230	-0,010	0,016
-398,423	2,353	-0,209	0,109
-397,409	-200,000	0,028	0,124
-396,394	171,413	0,068	-0,071
-395,379	166,256	0,046	0,047
-394,365	-25,998	-0,080	0,034
-393,350	-32,069	0,041	0,017
-392,336	-200,000	0,009	0,059
-391,321	-200,000	0,011	-0,118
-390,306	-200,000	-0,061	-0,214
-389,292	-113,398	-0,095	0,013
-388,277	800,000	0,027	-0,062
-387,263	-189,589	0,193	-0,002
-386,248	26,329	0,051	0,031
-385,233	208,074	0,050	0,057
-384,219	-126,007	-0,141	0,015
-383,204	-103,316	0,059	0,010
-382,190	-57,952	0,210	0,066
-381,175	70,498	-0,028	-0,021
-380,160	-5,847	-0,091	0,045
-379,146	-104,579	0,055	0,009
-378,131	-200,000	-0,012	0,097
-377,117	176,628	-0,025	0,026
-376,102	800,000	0,059	0,136
-375,088	-95,081	0,040	0,008
-374,073	800,000	-0,028	0,066
-373,058	-200,000	0,011	0,131
-372,044	-60,938	0,097	0,030
-371,029	488,368	0,058	0,097
-370,015	10,401	0,036	0,020
-369,000	441,172	-0,074	0,117
-367,985	-74,557	-0,038	-0,010
-366,971	-22,982	-0,093	-0,040
-365,956	-4,249	0,092	0,046
-364,942	-40,800	0,056	0,021
-363,927	253,381	0,105	-0,130
-362,912	40,522	0,087	0,057
-361,898	800,000	-0,046	0,097
-360,883	48,881	0,074	-0,050
-359,869	11,134	-0,087	-0,048
-358,854	-75,673	0,097	-0,025
-357,839	6,848	0,063	0,034
-356,825	-155,565	-0,126	-0,006
-355,810	-72,049	0,092	0,025
-354,796	-80,013	-0,080	0,019
-353,781	91,511	-0,047	-0,039
-352,766	-127,131	-0,203	0,021
-351,752	-2,398	0,081	0,041
-350,737	-200,000	0,006	0,129
-349,723	2,705	0,085	0,044
-348,708	71,812	-0,129	0,097
-347,693	101,789	0,027	0,022
-346,679	-105,571	-0,071	0,011
-345,664	-96,691	0,053	0,010
-344,650	800,000	0,006	-0,012
-343,635	-17,393	-0,097	0,044
-342,620	-109,496	0,085	0,013
-341,606	246,640	0,032	-0,039
-340,591	-58,924	0,042	-0,013
-339,577	-200,000	-0,019	-0,108
-338,562	-200,000	-0,030	-0,132
-337,548	-181,275	0,101	0,001
-336,533	24,048	0,054	-0,032
-335,518	-134,135	-0,028	-0,002
-334,504	282,781	0,089	0,116
-333,489	-5,653	-0,104	-0,052
-332,475	-59,977	-0,108	-0,033
-331,460	-82,919	-0,098	0,023
-330,445	3,714	0,101	-0,054
-329,431	-200,000	-0,013	0,078
-328,416	-114,170	0,046	0,006
-327,402	-37,947	0,049	-0,019
-326,387	-200,000	-0,002	0,020
-325,372	-56,954	-0,076	-0,024
-324,358	321,991	-0,034	0,047
-323,343	388,038	-0,069	-0,104
-322,329	-105,070	0,152	0,025
-321,314	402,190	-0,054	0,082
-320,299	-68,854	0,127	0,035
-319,285	191,438	-0,076	0,083
-318,270	800,000	0,012	0,029
-317,256	-145,674	0,025	-0,002
-316,241	-200,000	0,020	0,096
-315,226	-200,000	0,015	-0,120
-314,212	-200,000	-0,000	-0,051
-313,197	204,888	-0,093	-0,104
-312,183	-200,000	0,001	0,025
-311,168	-143,982	-0,071	-0,005
-310,153	12,037	-0,044	0,025
-309,139	-200,000	-0,015	-0,202
-308,124	-22,056	0,135	0,059
-307,110	-26,086	-0,113	-0,048
-306,095	-121,656	0,110	-0,013
-305,080	-200,000	0,001	0,047
-304,066	-200,000	-0,015	-0,070
-303,051	-200,000	0,001	-0,022
-302,037	-70,837	-0,095	0,026
-301,022	-200,000	0,001	-0,004
-300,008	-200,000	-0,019	0,063
-298,993	1,670	0,102	0,053
-297,978	-84,748	-0,151	-0,034
-296,964	310,640	0,017	0,023
-295,949	139,409	-0,087	-0,083
-294,935	-200,000	0,008	0,026
-293,920	107,458	-0,127	0,110
-292,905	-129,681	0,018	-0,002
-291,891	-34,742	0,156	-0,061
-290,876	-68,505	-0,147	0,041
-289,862	-8,665	-0,028	-0,013
-288,847	800,000	-0,032	0,097
-287,832	-104,315	-0,059	-0,010
-286,818	-15,223	0,099	-0,046
-285,803	68,165	-0,069	0,051
-284,789	-57,649	0,035	-0,011
-283,774	800,000	-0,025	0,063
-282,759	800,000	-0,028	-0,074
-281,745	528,971	-0,060	0,103
-280,730	99,531	0,065	-0,054
-279,716	-200,000	0,002	-0,017
-278,701	-43,522	0,018	0,007
-277,686	672,619	0,067	0,126
-276,672	107,179	0,035	0,030
-275,657	292,374	-0,023	-0,030
-274,643	176,448	-0,124	-0,131
-273,628	800,000	-0,025	-0,077
-272,613	310,052	-0,084	0,114
-271,599	-17,997	0,079	-0,036
-270,584	-104,167	0,094	0,016
-269,570	583,180	0,027	-0,047
-268,555	-200,000	0,004	-0,054
-267,540	88,196	-0,091	-0,073
-266,526	-41,817	-0,079	0,029
-265,511	60,210	0,030	0,022
-264,497	278,277	0,036	0,046
-263,482	-200,000	-0,001	0,064
-262,467	-4,119	-0,101	0,051
-261,453	780,582	0,025	0,049
-260,438	-200,000	-0,013	-0,078
-259,424	-12,286	-0,077	0,036
-258,409	800,000	-0,078	-0,199
-257,395	-200,000	-0,000	0,015
-256,380	292,032	0,069	0,091
-255,365	171,006	0,119	-0,124
-254,351	158,447	-0,036	0,036
-253,336	291,885	0,019	-0,025
-252,322	96,667	0,034	0,028
-251,307	-154,456	0,013	-0,001
-250,292	21,585	0,027	-0,016
-249,278	-121,627	0,103	-0,012
-248,263	188,926	0,038	0,041
-247,249	261,637	0,065	0,082
-246,234	-200,000	-0,016	0,096
-245,219	800,000	-0,020	0,046
-244,205	-138,352	0,039	0,003
-243,190	40,434	0,110	-0,072
-242,176	-48,297	-0,074	-0,025
-241,161	800,000	0,039	0,096
-240,146	238,879	0,027	-0,032
-239,132	-200,000	-0,001	0,053
-238,117	800,000	-0,031	-0,069
-237,103	-200,000	0,020	0,101
-236,088	-11,867	0,194	0,091
-235,073	374,848	0,040	0,060
-234,059	375,397	0,104	0,154
-233,044	-34,802	-0,163	0,064
-232,030	-92,483	-0,070	0,014
-231,015	649,744	0,031	-0,058
-230,000	236,398	-0,111	-0,133
-228,986	800,000	0,029	0,073
-227,971	-28,315	-0,062	0,026
-226,957	333,670	0,068	0,095
-225,942	725,198	0,078	0,150
-224,927	800,000	-0,043	0,091
-223,913	-132,593	-0,048	-0,004
-222,898	227,668	0,021	0,024
-221,884	271,084	-0,018	-0,023
-220,869	-91,062	0,096	0,020
-219,855	-165,392	0,149	-0,005
-218,840	-101,775	-0,087	0,015
-217,825	125,505	0,047	0,043
-216,811	800,000	-0,040	-0,087
-215,796	800,000	-0,050	-0,116
-214,782	-189,482	0,283	0,002
-213,767	800,000	0,035	-0,088
-212,752	-10,482	0,013	0,006
-211,738	198,573	0,016	0,018
-210,723	51,468	-0,142	-0,097
-209,709	-136,168	0,047	0,004
-208,694	94,313	0,114	-0,094
-207,679	132,418	-0,034	0,031
-206,665	210,784	0,023	0,026
-205,650	70,393	-0,016	0,012
-204,636	-200,000	0,003	-0,098
-203,621	-200,000	0,001	0,097
-202,606	-200,000	0,002	-0,127
-201,592	-19,151	0,035	0,016
-200,577	-125,438	0,028	-0,003
-199,563	99,723	-0,007	-0,005
-198,548	46,116	-0,057	-0,038
-197,533	800,000	-0,051	0,112
-196,519	716,394	0,044	0,085
-195,504	800,000	0,024	0,055
-194,490	-153,301	0,062	0,003
-193,475	-200,000	0,037	-0,118
-192,460	800,000	-0,029	0,087
-191,446	3,439	-0,031	0,016
-190,431	800,000	-0,051	0,146
-189,417	800,000	0,064	-0,169
-188,402	-83,121	0,210	0,048
-187,387	74,028	-0,052	0,039
-186,373	6,171	-0,089	0,048
-185,358	800,000	0,022	-0,070
-184,344	15,036	0,139	0,078
-183,329	157,019	0,035	0,035
-182,315	166,093	0,076	-0,078
-181,300	-200,000	-0,034	-0,119
-180,285	-55,955	-0,028	-0,009
-179,271	622,457	0,100	0,181
-178,256	-200,000	-0,003	0,085
-177,242	259,900	0,026	0,033
-176,227	-200,000	-0,031	0,152
-175,212	-200,000	0,014	-0,061
-174,198	-200,000	0,003	0,042
-173,183	12,307	-0,141	-0,078
-172,169	-60,665	-0,073	0,022
-171,154	-200,000	-0,021	-0,070
-170,139	-93,621	-0,011	-0,002
-169,125	-4,928	-0,075	0,037
-168,110	-144,391	0,060	0,004
-167,096	-200,000	0,005	-0,078
-166,081	-58,273	-0,085	-0,027
-165,066	-200,000	0,011	0,064
-164,052	-10,329	-0,054	-0,026
-163,037	-200,000	-0,006	0,085
-162,023	177,463	0,135	0,142
-161,008	800,000	0,019	0,043
-159,993	130,589	0,044	-0,040
-158,979	-138,002	-0,111	0,009
-157,964	-50,909	-0,058	0,019
-156,950	54,037	0,046	-0,032
-155,935	800,000	0,005	-0,014
-154,920	9,110	0,097	-0,052
-153,906	1,384	0,033	-0,017
-152,891	-200,000	-0,001	0,014
-151,877	-200,000	0,017	0,099
-150,862	91,001	-0,099	-0,080
-149,847	-200,000	-0,009	0,109
-148,833	363,978	-0,051	0,074
-147,818	251,201	-0,013	0,016
-146,804	800,000	-0,093	0,266
-145,789	69,602	0,147	0,109
-144,775	-200,000	0,001	-0,030
-143,760	800,000	0,036	-0,098
-142,745	492,503	0,047	0,078
-141,731	800,000	0,028	0,079
-140,716	-105,228	0,158	0,026
-139,702	96,442	0,092	0,075
-138,687	-44,963	-0,015	0,005
-137,672	800,000	-0,032	0,069
-136,658	700,864	0,076	-0,144
-135,643	-200,000	0,032	-0,162
-134,629	419,914	-0,104	-0,161
-133,614	32,516	0,144	0,089
-132,599	-88,590	-0,061	0,013
-131,585	800,000	0,005	0,009
-130,570	800,000	0,027	0,062
-129,556	193,665	0,019	-0,021
-128,541	339,643	0,038	-0,054
-127,526	15,260	0,119	0,067
-126,512	-122,409	0,140	0,016
-125,497	-189,628	-0,129	-0,001
-124,483	16,192	-0,059	-0,033
-123,468	331,741	0,098	0,136
-122,453	-200,000	-0,002	-0,078
-121,439	300,337	-0,060	-0,080
-120,424	-200,000	0,006	0,026
-119,410	-144,264	0,125	0,008
-118,395	-200,000	0,007	0,125
-117,380	-38,244	-0,061	0,023
-116,366	-200,000	-0,016	0,164
-115,351	-68,607	-0,072	0,020
-114,337	101,824	-0,119	-0,100
-113,322	800,000	-0,048	-0,101
-112,307	-200,000	-0,027	-0,104
-111,293	115,461	0,053	0,047
-110,278	485,692	0,012	-0,020
-109,264	-142,458	0,141	-0,010
-108,249	88,220	0,056	0,045
-107,234	276,320	0,034	0,043
-106,220	544,239	-0,071	-0,122
-105,205	67,396	-0,033	-0,024
-104,191	-19,937	0,031	0,014
-103,176	800,000	-0,034	-0,095
-102,162	-112,586	0,163	-0,023
-101,147	-182,962	0,083	-0,001
-100,132	15,253	0,130	0,073
-99,118	800,000	-0,019	0,057
-98,103	-15,297	0,144	-0,066
-97,089	800,000	0,054	0,118
-96,074	800,000	0,069	0,168
-95,059	-200,000	0,003	0,094
-94,045	58,185	0,101	0,071
-93,030	-33,150	-0,032	-0,013
-92,016	800,000	-0,035	0,089
-91,001	212,863	-0,061	0,069
-89,986	-108,608	0,062	0,009
-88,972	658,684	-0,037	0,068
-87,957	800,000	-0,030	-0,086
-86,943	230,184	-0,055	-0,064
-85,928	595,464	-0,016	0,028
-84,913	220,578	0,115	-0,133
-83,899	-200,000	0,027	-0,160
-82,884	100,110	-0,049	-0,041
-81,870	800,000	-0,042	-0,093
-80,855	256,552	0,066	0,082
-79,840	-200,000	-0,006	-0,106
-78,826	-79,248	0,013	0,003
-77,811	23,706	-0,072	-0,043
-76,797	193,621	0,041	-0,044
-75,782	-54,047	0,122	-0,040
-74,767	26,804	-0,030	0,018
-73,753	287,651	0,072	-0,094
-72,738	-200,000	-0,014	-0,049
-71,724	-62,664	-0,141	-0,042
-70,709	800,000	-0,044	-0,137
-69,694	299,140	0,066	-0,088
-68,680	-50,328	-0,036	0,012
-67,665	-200,000	0,016	0,116
-66,651	800,000	-0,045	-0,098
-65,636	56,784	0,060	0,042
-64,622	391,105	-0,026	-0,039
-63,607	-111,870	-0,152	-0,022
-62,592	-187,677	-0,101	-0,001
-61,578	23,977	0,138	0,081
-60,563	800,000	0,026	0,061
-59,549	800,000	0,098	0,246
-58,534	23,907	-2,059	-1,215
-57,519	-200,000	-0,110	-0,743
-56,505	-200,000	-1,281	-5,095
-55,490	135,354	0,754	0,704
-54,476	800,000	5,338	11,926
-53,461	-200,000	18,643	316,622
-52,446	800,000	741,406	2333,011
-51,432	559,012	1657,190	2879,529
-50,417	111,146	1641,006	1417,182
-49,403	75,473	1290,897	976,031
-48,388	30,416	1031,454	630,527
-47,373	19,912	994,296	573,000
-46,359	17,451	981,607	557,565
-45,344	14,110	977,931	544,467
-44,330	14,400	976,461	544,580
-43,315	13,773	974,483	541,399
-42,300	13,752	973,363	540,685
-41,286	13,755	972,600	540,249
-40,271	13,746	971,544	539,612
-39,257	13,738	970,679	539,085
-38,242	13,750	969,812	538,623
-37,227	13,796	968,872	538,229
-36,213	13,734	968,113	537,583
-35,198	13,737	967,087	537,003
-34,184	13,766	966,274	536,623
-33,169	13,706	965,423	535,934
-32,154	13,789	964,377	535,603
-31,140	13,779	963,618	535,127
-30,125	13,786	962,830	534,689
-29,111	13,736	962,017	534,056
-28,096	13,723	961,468	533,688
-27,082	13,743	960,697	533,304
-26,067	13,753	960,011	532,934
-25,052	13,761	959,214	532,495
-24,038	13,814	958,400	532,193
-23,023	13,750	957,973	531,730
-22,009	13,843	957,127	531,539
-20,994	13,770	956,718	531,055
-19,979	13,784	955,922	530,636
-18,965	13,761	955,463	530,289
-17,950	13,788	954,661	529,909
-16,936	13,687	954,219	529,317
-15,921	13,734	953,477	529,037
-14,906	13,662	952,708	528,357
-13,892	13,671	952,060	528,006
-12,877	13,706	951,285	527,666
-11,863	13,617	950,684	527,028
-10,848	13,671	950,158	526,887
-9,833	13,720	949,721	526,783
-8,819	13,690	948,924	526,221
-7,804	13,624	948,351	525,673
-6,790	13,639	947,870	525,432
-5,775	13,679	947,353	525,255
-4,760	13,669	946,551	524,757
-3,746	13,655	945,999	524,386
-2,731	13,543	945,319	523,632
-1,717	13,509	944,527	523,062
-0,702	13,469	943,936	522,587
0,313	13,328	943,452	522,661
1,327	16,576	941,167	531,635
2,342	25,622	795,949	473,640
3,356	21,892	460,980	268,555
4,371	-4,973	318,119	156,419
5,386	-8,832	299,872	143,482
6,400	-10,742	293,737	138,615
7,415	-11,233	291,474	137,046
8,429	-11,464	289,841	136,036
9,444	-11,414	288,799	135,584
10,459	-11,439	288,184	135,259
11,473	-11,444	287,701	135,016
12,488	-11,564	287,232	134,665
13,502	-11,455	286,637	134,482
14,517	-11,367	286,299	134,398
15,531	-11,276	285,751	134,217
16,546	-11,504	285,380	133,808
17,561	-11,254	284,862	133,797
18,575	-11,428	284,679	133,530
19,590	-11,509	284,293	133,257
20,604	-11,270	284,103	133,389
21,619	-11,569	283,765	132,928
22,634	-11,596	283,396	132,717
23,648	-11,484	282,848	132,558
24,663	-11,360	282,693	132,593
25,677	-11,513	282,234	132,218
26,692	-11,418	282,243	132,302
27,707	-11,364	281,801	132,135
28,721	-11,207	281,657	132,207
29,736	-11,354	281,199	131,839
30,750	-11,428	281,018	131,671
31,765	-11,396	280,774	131,576
32,780	-11,338	280,495	131,489
33,794	-11,389	280,280	131,327
34,809	-11,526	280,145	131,122
35,823	-11,518	279,755	130,935
36,838	-11,466	279,543	130,874
37,853	-11,612	279,297	130,608
38,867	-11,497	279,081	130,604
39,882	-11,428	278,744	130,501
40,896	-11,579	278,654	130,303
41,911	-11,489	278,312	130,217
42,926	-11,460	277,954	130,066
43,940	-11,627	277,732	129,792
44,955	-11,503	277,497	129,789
45,969	-11,565	277,245	129,599
46,984	-11,789	277,014	129,270
47,999	-11,718	276,587	129,125
49,013	-11,878	276,552	128,946
50,028	-11,979	276,120	128,638
51,042	-12,221	275,976	128,332
52,057	-12,200	275,610	128,170
53,071	-12,253	275,576	128,093
54,086	-12,049	275,427	128,204
55,101	-12,079	275,123	128,023
56,115	-11,632	274,936	128,343
57,130	-11,483	274,885	128,447
58,144	-11,299	274,565	128,459
59,159	-11,274	274,348	128,369
60,174	-11,384	274,162	128,168
61,188	-11,395	273,916	128,031
62,203	-11,199	273,760	128,129
63,217	-11,280	273,529	127,934
64,232	-11,380	273,231	127,691
65,247	-11,365	272,960	127,567
66,261	-11,237	272,714	127,559
67,276	-11,485	272,495	127,216
68,290	-11,576	272,185	126,975
69,305	-11,676	271,894	126,735
70,320	-11,696	271,870	126,694
71,334	-11,399	271,594	126,829
72,349	-11,288	271,421	126,840
73,363	-11,390	271,337	126,694
74,378	-11,475	270,938	126,418
75,393	-11,241	270,840	126,577
76,407	-11,319	270,545	126,356
77,422	-11,313	270,226	126,202
78,436	-11,314	270,103	126,132
79,451	-11,325	269,884	126,009
80,466	-11,550	269,710	125,710
81,480	-11,359	269,091	125,585
82,495	-11,692	269,259	125,347
83,509	-11,562	269,182	125,419
84,524	-11,495	268,803	125,293
85,539	-11,468	268,395	125,116
86,553	-11,434	268,218	125,053
87,568	-11,646	268,219	124,849
88,582	-11,714	267,878	124,617
89,597	-11,704	267,721	124,542
90,611	-11,357	267,487	124,738
91,626	-11,419	267,327	124,596
92,641	-11,333	267,053	124,535
93,655	-11,489	266,886	124,305
94,670	-11,505	266,763	124,221
95,684	-11,539	266,517	124,066
96,699	-11,438	266,307	124,048
97,714	-11,516	266,133	123,885
98,728	-11,460	265,913	123,822
99,743	-11,546	265,720	123,643
100,757	-11,508	265,335	123,488
101,772	-11,555	265,222	123,382
102,787	-11,560	265,137	123,326
103,801	-11,457	264,841	123,270
104,816	-11,384	264,698	123,258
105,830	-11,282	264,633	123,309
106,845	-11,389	264,355	123,072
107,860	-11,369	264,300	123,054
108,874	-11,340	263,913	122,889
109,889	-11,435	263,721	122,703
110,903	-11,328	263,421	122,649
111,918	-11,478	263,322	122,458
112,933	-11,484	263,042	122,310
113,947	-11,365	262,916	122,347
114,962	-11,403	262,698	122,201
115,976	-11,371	262,465	122,110
116,991	-11,270	262,380	122,150
118,006	-11,464	262,200	121,883
119,020	-11,363	261,996	121,867
120,035	-11,341	261,953	121,856
121,049	-11,203	261,611	121,808
122,064	-11,368	261,476	121,588
123,079	-11,455	261,254	121,397
124,093	-11,635	261,061	121,137
125,108	-11,558	260,791	121,069
126,122	-11,532	260,557	120,972
127,137	-11,854	260,263	120,541
128,151	-11,788	260,236	120,577
129,166	-11,531	259,827	120,602
130,181	-11,708	259,748	120,399
131,195	-11,685	259,609	120,344
132,210	-11,538	259,445	120,386
133,224	-11,444	259,183	120,337
134,239	-11,262	259,020	120,410
135,254	-11,166	258,756	120,360
136,268	-11,397	258,784	120,161
137,283	-11,780	258,432	119,651
138,297	-11,891	258,257	119,463
139,312	-11,832	257,858	119,319
140,327	-11,551	257,814	119,532
141,341	-11,381	257,736	119,634
142,356	-11,261	257,673	119,699
143,370	-11,246	257,305	119,531
144,385	-11,242	257,193	119,471
145,400	-11,244	256,915	119,330
146,414	-11,277	256,950	119,307
147,429	-11,361	256,609	119,065
148,443	-11,269	256,424	119,048
149,458	-11,080	256,367	119,175
150,473	-11,360	256,128	118,811
151,487	-11,373	255,970	118,715
152,502	-11,069	255,758	118,870
153,516	-11,173	255,594	118,693
154,531	-11,256	255,570	118,599
155,546	-11,204	255,193	118,459
156,560	-11,253	254,948	118,292
157,575	-11,281	254,723	118,154
158,589	-11,219	254,551	118,116
159,604	-11,232	254,418	118,033
160,619	-11,352	254,334	117,880
161,633	-11,183	254,058	117,887
162,648	-11,132	253,836	117,817
163,662	-11,244	253,901	117,741
164,677	-11,259	253,559	117,559
165,692	-11,169	253,573	117,632
166,706	-11,184	253,229	117,449
167,721	-11,248	253,155	117,349
168,735	-11,204	252,969	117,290
169,750	-11,233	252,718	117,138
170,764	-11,180	252,676	117,154
171,779	-11,152	252,454	117,064
172,794	-11,081	252,295	117,040
173,808	-11,116	252,063	116,892
174,823	-11,615	251,793	116,333
175,837	-11,682	251,599	116,176
176,852	-11,664	251,655	116,208
177,867	-11,271	251,485	116,451
178,881	-11,028	251,195	116,512
179,896	-11,112	251,060	116,369
180,910	-11,079	250,870	116,298
181,925	-11,031	250,573	116,190
182,940	-11,065	250,563	116,147
183,954	-11,057	250,297	116,020
184,969	-11,179	250,163	115,845
185,983	-11,233	250,018	115,722
186,998	-11,005	249,826	115,814
188,013	-11,112	249,648	115,632
189,027	-11,136	249,538	115,550
190,042	-11,257	249,223	115,293
191,056	-11,072	249,050	115,357
192,071	-11,183	248,829	115,151
193,086	-11,235	248,726	115,050
194,100	-11,102	248,544	115,067
195,115	-11,151	248,426	114,961
196,129	-10,965	248,113	114,961
197,144	-11,020	247,992	114,849
198,159	-11,136	247,800	114,654
199,173	-11,052	247,577	114,610
200,188	-11,095	247,412	114,487
201,202	-11,449	247,164	114,068
202,217	-11,579	246,945	113,849
203,232	-11,712	246,654	113,594
204,246	-11,256	246,737	114,001
205,261	-10,842	246,548	114,247
206,275	-11,936	246,002	113,078
207,290	-8,547	247,658	116,650
208,304	-0,222	250,447	124,940
209,319	4,193	251,634	129,229
210,334	4,850	251,509	129,704
211,348	5,025	251,431	129,799
212,363	5,120	251,492	129,898
213,377	4,998	251,292	129,681
214,392	4,987	251,002	129,510
215,407	4,842	250,838	129,293
216,421	4,989	250,709	129,338
217,436	5,194	250,430	129,354
218,450	5,347	250,312	129,408
219,465	4,922	250,171	128,970
220,480	4,768	249,965	128,725
221,494	4,798	249,689	128,596
222,509	4,656	249,623	128,432
223,523	4,794	249,428	128,436
224,538	4,364	249,063	127,879
225,553	4,600	249,082	128,074
226,567	4,600	248,972	128,005
227,582	4,585	248,782	127,884
228,596	4,562	248,628	127,774
229,611	4,409	248,373	127,505
230,626	4,201	248,203	127,235
231,640	4,300	248,035	127,219
232,655	4,495	247,919	127,309
233,669	4,403	247,728	127,124
234,684	4,264	247,325	126,792
235,699	4,397	247,478	126,968
236,713	4,806	247,301	127,202
237,728	4,530	247,067	126,844
238,742	4,397	246,842	126,608
239,757	4,089	246,763	126,303
240,772	4,297	246,416	126,285
241,786	4,309	246,520	126,337
242,801	4,475	246,116	126,254
243,815	4,262	246,211	126,117
244,830	4,616	245,942	126,258
245,844	4,579	245,900	126,195
246,859	4,316	245,569	125,799
247,874	4,439	245,471	125,838
248,888	4,314	245,281	125,627
249,903	4,478	245,086	125,650
250,917	4,578	245,120	125,738
251,932	4,611	244,937	125,659
252,947	4,568	244,648	125,465
253,961	4,447	244,541	125,300
254,976	4,496	244,387	125,250
255,990	4,537	244,199	125,176
257,005	4,487	244,044	125,045
258,020	4,409	243,909	124,901
259,034	4,539	243,723	124,900
260,049	4,468	243,624	124,781
261,063	4,103	243,507	124,414
262,078	4,198	243,370	124,411
263,093	4,457	243,255	124,549
264,107	4,792	242,918	124,636
265,122	4,456	242,756	124,271
266,136	4,621	242,719	124,374
267,151	4,780	242,612	124,436
268,166	4,500	242,268	124,024
269,180	4,466	242,170	123,935
270,195	5,005	242,245	124,395
271,209	5,126	242,031	124,371
272,224	4,602	241,727	123,784
273,239	3,973	241,425	123,115
274,253	4,207	241,256	123,205
275,268	4,523	241,161	123,398
276,282	4,536	240,997	123,313
277,297	4,373	240,735	123,039
278,312	4,400	240,674	123,018
279,326	4,411	240,629	122,993
280,341	4,649	240,455	123,082
281,355	4,441	240,419	122,887
282,370	4,398	240,272	122,767
283,384	4,453	239,986	122,653
284,399	4,253	239,891	122,435
285,414	4,209	239,610	122,246
286,428	4,623	239,476	122,494
287,443	4,542	239,250	122,304
288,457	4,619	239,292	122,376
289,472	4,750	239,113	122,377
290,487	4,686	238,941	122,228
291,501	4,137	238,889	121,756
292,516	4,198	238,468	121,579
293,530	4,058	238,417	121,431
294,545	4,503	238,504	121,815
295,560	4,212	238,312	121,478
296,574	4,177	237,981	121,271
297,589	4,293	237,870	121,294
298,603	4,642	237,873	121,559
299,618	4,661	237,547	121,397
300,633	4,442	237,663	121,273
301,647	4,751	237,547	121,446
302,662	4,861	237,356	121,424
303,676	4,625	237,223	121,160
304,691	4,606	237,070	121,057
305,706	4,760	236,866	121,062
306,720	4,747	236,683	120,947
307,735	4,567	236,502	120,703
308,749	4,501	236,173	120,473
309,764	4,211	236,139	120,219
310,779	4,245	235,840	120,082
311,793	4,249	235,606	119,956
312,808	4,157	235,431	119,784
313,822	4,246	235,380	119,817
314,837	4,367	235,171	119,794
315,852	4,004	235,077	119,453
316,866	4,205	234,892	119,505
317,881	4,384	234,732	119,551
318,895	4,721	234,803	119,838
319,910	5,122	234,739	120,105
320,925	4,624	234,387	119,529
321,939	4,272	234,221	119,162
322,954	4,483	234,241	119,325
323,968	4,385	234,168	119,201
324,983	4,550	233,895	119,178
325,997	4,698	233,884	119,276
327,012	4,767	233,577	119,162
328,027	4,672	233,470	119,024
329,041	4,765	233,453	119,077
330,056	5,221	233,426	119,403
331,070	5,242	233,120	119,251
332,085	4,809	233,143	118,921
333,100	4,561	232,706	118,497
334,114	4,474	232,564	118,347
335,129	4,882	232,503	118,618
336,143	5,013	232,347	118,628
337,158	4,887	232,253	118,473
338,173	4,604	232,041	118,138
339,187	4,466	232,025	118,014
340,202	4,551	231,610	117,858
341,216	4,570	231,547	117,829
342,231	4,619	231,220	117,690
343,246	4,679	231,101	117,665
344,260	4,621	231,043	117,580
345,275	4,938	231,052	117,815
346,289	5,007	230,913	117,786
347,304	4,653	230,777	117,438
348,319	4,790	230,588	117,435
349,333	4,672	230,369	117,223
350,348	4,457	230,207	116,968
351,362	4,415	230,101	116,872
352,377	4,330	229,871	116,680
353,392	4,011	229,806	116,395
354,406	4,376	229,458	116,485
355,421	196,609	1316,759	1395,405
356,435	157,773	1449,193	1395,369
