DTS Sentinel unit serial number:	SN410029Multiplexer serial number:	ORYXHardware model number:	OX2-SRSoftware version number:	ORYX F/W v4,00 Oryx Data Collector v3.7.2.0data status	okinstallation	B5 Nyhavnadifferential loss correction	single-endedforward channel	channel 2reverse channel	N/Adate	2023/12/14time	08:57:13forward acquisition time	300,00reverse acquisition time	0,00gamma	499,1914k internal	0,3160k external	0,3160temperature offset calibration	1,0000default loss term (dB/km)	0,3820temperature slope calibration	1,0000multiplexer offset coefficient	1,0000multiplexer slope coefficient	1,0000fibre end	0,00T internal ref (°C)	7,00T ext. ref 1 (°C)	-9,17T ext. ref 2 (°C)	-9,23length (m)	temperature (°C)	Stokes	anti-Stokes-744,400	-200,000	0,032	0,118
-743,385	-131,967	-0,329	-0,031
-742,371	-120,045	0,121	0,015
-741,356	5,412	-0,284	-0,154
-740,342	376,222	0,109	0,165
-739,327	-72,892	-0,411	-0,110
-738,312	54,397	0,081	0,057
-737,298	-110,405	-0,450	0,068
-736,283	136,377	0,091	0,088
-735,269	2,690	-0,217	-0,115
-734,254	800,000	0,017	0,045
-733,239	-66,207	-0,612	-0,178
-732,225	-1,515	0,181	0,094
-731,210	800,000	0,025	0,080
-730,196	800,000	0,037	-0,114
-729,181	800,000	-0,060	0,125
-728,167	-110,375	0,057	0,009
-727,152	800,000	-0,045	0,099
-726,137	800,000	-0,023	-0,064
-725,123	-67,881	-0,043	-0,012
-724,108	800,000	-0,039	0,120
-723,094	69,403	0,051	-0,039
-722,079	-53,674	-0,113	0,038
-721,064	800,000	0,005	0,012
-720,050	28,122	-0,074	0,046
-719,035	-42,584	0,061	-0,023
-718,021	176,389	-0,043	-0,046
-717,006	800,000	-0,038	-0,123
-715,991	-57,316	-0,173	-0,056
-714,977	800,000	-0,056	-0,134
-713,962	-200,000	-0,020	-0,073
-712,948	-200,000	-0,016	0,097
-711,933	800,000	-0,017	0,051
-710,918	692,659	0,023	0,045
-709,904	83,514	-0,134	-0,107
-708,889	-200,000	-0,003	-0,174
-707,875	-200,000	-0,015	0,065
-706,860	-39,464	-0,111	-0,042
-705,845	-41,589	0,046	0,017
-704,831	-138,704	0,043	-0,003
-703,816	51,923	0,131	0,092
-702,802	164,822	-0,053	0,055
-701,787	-200,000	0,014	-0,050
-700,772	-190,016	-0,137	0,001
-699,758	-200,000	0,000	-0,136
-698,743	2,480	-0,109	0,058
-697,729	-6,126	-0,010	0,005
-696,714	-38,312	0,020	-0,008
-695,699	-200,000	-0,035	0,118
-694,685	-200,000	-0,013	-0,119
-693,670	125,541	-0,105	-0,098
-692,656	164,618	0,043	-0,044
-691,641	-143,181	0,235	0,016
-690,627	89,202	-0,043	0,036
-689,612	-200,000	-0,014	-0,065
-688,597	208,620	-0,048	0,055
-687,583	459,600	-0,067	-0,110
-686,568	534,373	-0,041	-0,073
-685,554	800,000	0,020	-0,056
-684,539	-200,000	-0,026	0,093
-683,524	586,244	-0,002	0,004
-682,510	72,550	-0,095	0,073
-681,495	-179,808	0,082	0,001
-680,481	-151,319	-0,074	0,004
-679,466	271,563	0,100	-0,130
-678,451	-200,000	-0,003	-0,076
-677,437	171,627	-0,024	0,025
-676,422	205,709	0,108	0,123
-675,408	-200,000	-0,030	0,112
-674,393	-13,674	0,082	-0,039
-673,378	-200,000	-0,025	-0,095
-672,364	800,000	0,077	0,192
-671,349	146,517	0,104	-0,103
-670,335	95,702	-0,063	0,053
-669,320	79,072	0,087	-0,068
-668,305	800,000	0,035	-0,107
-667,291	-2,009	-0,045	0,023
-666,276	800,000	-0,082	-0,204
-665,262	273,601	-0,098	-0,128
-664,247	800,000	-0,018	-0,054
-663,232	27,503	-0,065	0,040
-662,218	800,000	-0,013	-0,031
-661,203	284,514	-0,041	0,055
-660,189	42,858	0,080	-0,053
-659,174	124,153	-0,102	-0,094
-658,159	-200,000	0,014	-0,079
-657,145	-65,070	-0,056	-0,016
-656,130	-20,175	-0,116	0,052
-655,116	405,287	-0,083	0,129
-654,101	487,553	0,076	0,127
-653,086	-114,847	-0,192	0,027
-652,072	85,189	-0,014	0,012
-651,057	212,754	-0,026	-0,030
-650,043	-7,032	-0,148	-0,073
-649,028	800,000	-0,019	0,047
-648,014	705,502	0,051	0,099
-646,999	668,414	0,066	0,125
-645,984	113,243	-0,086	0,076
-644,970	196,916	-0,072	0,081
-643,955	148,610	-0,080	0,080
-642,941	-200,000	0,002	-0,039
-641,926	431,034	0,074	0,118
-640,911	-56,666	0,144	-0,046
-639,897	20,514	0,189	-0,112
-638,882	800,000	-0,014	0,043
-637,868	-200,000	0,002	-0,009
-636,853	-33,358	-0,138	0,056
-635,838	267,081	-0,023	0,029
-634,824	491,989	-0,098	-0,165
-633,809	-200,000	0,026	-0,155
-632,795	-200,000	0,011	-0,185
-631,780	800,000	-0,020	0,045
-630,765	90,093	-0,077	-0,063
-629,751	-200,000	0,000	-0,065
-628,736	-200,000	-0,031	-0,110
-627,722	280,116	-0,079	-0,104
-626,707	-200,000	-0,018	0,077
-625,692	-200,000	-0,004	0,037
-624,678	-81,763	-0,174	0,042
-623,663	-200,000	0,001	0,054
-622,649	37,730	-0,055	-0,036
-621,634	17,657	0,014	-0,008
-620,619	-170,700	-0,147	0,004
-619,605	281,797	0,034	0,045
-618,590	-200,000	0,015	0,055
-617,576	398,818	-0,053	-0,082
-616,561	-200,000	0,019	-0,164
-615,546	-200,000	0,007	-0,067
-614,532	-200,000	-0,037	-0,144
-613,517	-65,707	-0,084	-0,025
-612,503	800,000	0,028	0,062
-611,488	-25,796	0,268	-0,115
-610,474	-122,723	-0,115	-0,014
-609,459	-200,000	-0,007	0,050
-608,444	319,169	0,052	-0,073
-607,430	37,901	-0,073	0,048
-606,415	-200,000	0,016	0,141
-605,401	-143,536	-0,179	-0,012
-604,386	800,000	0,022	0,051
-603,371	457,898	0,024	0,039
-602,357	170,610	-0,159	-0,167
-601,342	-29,952	-0,121	-0,050
-600,328	-57,564	-0,053	-0,017
-599,313	-200,000	-0,012	-0,085
-598,298	-200,000	0,003	0,037
-597,284	496,300	0,095	0,160
-596,269	-200,000	-0,003	0,093
-595,255	105,076	0,038	-0,033
-594,240	157,446	-0,030	-0,030
-593,225	84,256	0,092	-0,073
-592,211	-200,000	-0,043	-0,207
-591,196	-63,218	-0,075	-0,022
-590,182	-62,696	0,071	-0,022
-589,167	-200,000	0,012	0,043
-588,152	90,840	-0,103	-0,085
-587,138	-37,590	-0,036	0,014
-586,123	-200,000	0,014	-0,082
-585,109	18,124	0,074	-0,043
-584,094	-200,000	-0,017	-0,147
-583,079	-200,000	-0,021	0,107
-582,065	9,727	-0,030	-0,016
-581,050	-200,000	-0,002	0,114
-580,036	146,958	-0,086	-0,085
-579,021	-126,695	0,024	0,003
-578,006	-200,000	0,005	0,073
-576,992	800,000	0,041	-0,103
-575,977	234,908	0,022	0,026
-574,963	100,926	0,048	-0,041
-573,948	101,597	0,137	-0,117
-572,934	-79,309	0,062	0,015
-571,919	686,154	0,030	-0,057
-570,904	27,426	-0,104	0,064
-569,890	280,265	-0,032	0,042
-568,875	19,535	-0,128	-0,075
-567,861	526,372	0,036	0,063
-566,846	643,548	-0,033	0,061
-565,831	101,057	-0,130	-0,110
-564,817	471,195	-0,036	-0,060
-563,802	-10,887	-0,113	-0,054
-562,788	734,085	-0,031	-0,062
-561,773	178,980	0,047	-0,050
-560,758	-25,345	-0,089	0,038
-559,744	-1,401	0,115	0,059
-558,729	37,467	0,106	0,069
-557,715	229,024	0,010	0,012
-556,700	-200,000	-0,014	-0,045
-555,685	-200,000	0,012	-0,083
-554,671	-200,000	0,006	0,062
-553,656	681,254	0,067	0,128
-552,642	-200,000	0,007	-0,053
-551,627	-113,888	0,077	-0,011
-550,612	-153,881	0,090	0,004
-549,598	-75,592	-0,006	-0,002
-548,583	231,035	-0,046	-0,056
-547,569	294,786	0,017	-0,022
-546,554	357,372	-0,082	0,120
-545,539	-8,910	-0,057	-0,028
-544,525	89,030	-0,066	-0,054
-543,510	-35,455	0,062	-0,024
-542,496	800,000	0,036	-0,086
-541,481	-30,056	-0,116	0,048
-540,466	800,000	0,047	-0,123
-539,452	800,000	-0,039	0,120
-538,437	800,000	0,031	0,094
-537,423	-112,702	-0,031	0,005
-536,408	-64,229	0,031	-0,009
-535,393	-139,288	-0,049	-0,004
-534,379	-54,808	-0,084	0,028
-533,364	-200,000	-0,006	0,031
-532,350	800,000	-0,032	-0,085
-531,335	551,423	-0,022	0,038
-530,321	399,550	-0,078	0,120
-529,306	-64,389	-0,082	0,024
-528,291	40,929	0,085	-0,056
-527,277	-62,425	0,076	-0,023
-526,262	-200,000	-0,002	0,060
-525,248	800,000	0,016	-0,052
-524,233	-200,000	0,008	0,081
-523,218	201,942	0,115	0,130
-522,204	-200,000	0,039	-0,136
-521,189	800,000	-0,067	-0,203
-520,175	177,573	-0,142	-0,151
-519,160	-200,000	-0,011	-0,139
-518,145	800,000	0,035	0,106
-517,131	-200,000	-0,010	0,057
-516,116	-72,775	0,079	0,021
-515,102	-200,000	0,020	-0,128
-514,087	140,176	-0,100	0,097
-513,072	18,229	0,034	-0,020
-512,058	-200,000	-0,000	0,087
-511,043	0,427	0,120	0,062
-510,029	264,160	-0,039	-0,049
-509,014	320,211	0,035	0,049
-507,999	-200,000	-0,004	-0,117
-506,985	800,000	-0,024	-0,059
-505,970	-200,000	-0,042	-0,182
-504,956	136,121	-0,069	-0,066
-503,941	433,126	0,023	-0,037
-502,926	-113,368	-0,055	0,008
-501,912	414,027	0,062	0,097
-500,897	800,000	-0,009	0,023
-499,883	-52,875	0,033	-0,011
-498,868	362,184	-0,069	-0,101
-497,853	-200,000	-0,021	-0,135
-496,839	-200,000	0,001	-0,024
-495,824	800,000	-0,032	0,091
-494,810	105,788	-0,103	0,089
-493,795	800,000	0,030	-0,087
-492,781	761,006	0,009	-0,018
-491,766	695,474	-0,037	-0,072
-490,751	14,484	-0,040	-0,023
-489,737	800,000	0,046	0,132
-488,722	29,981	0,055	0,034
-487,708	-147,138	-0,155	0,010
-486,693	-200,000	0,006	-0,063
-485,678	-200,000	0,015	0,065
-484,664	253,598	-0,064	-0,079
-483,649	-10,935	0,032	-0,016
-482,635	-172,635	-0,011	-0,000
-481,620	246,718	0,018	-0,022
-480,605	-125,633	0,100	0,011
-479,591	1,059	0,106	-0,055
-478,576	-147,141	0,082	0,005
-477,562	110,208	-0,031	-0,027
-476,547	-19,339	-0,027	0,012
-475,532	180,939	0,053	0,057
-474,518	800,000	0,053	-0,133
-473,503	422,496	-0,048	0,075
-472,489	110,965	-0,072	-0,063
-471,474	-116,800	0,092	0,012
-470,459	800,000	-0,044	0,101
-469,445	-78,389	0,083	0,021
-468,430	242,774	-0,044	-0,054
-467,416	-200,000	-0,001	-0,068
-466,401	313,611	0,053	0,072
-465,386	6,791	0,050	0,027
-464,372	-161,483	-0,089	-0,003
-463,357	15,291	-0,183	-0,105
-462,343	127,180	0,058	-0,053
-461,328	-54,117	-0,150	0,049
-460,313	800,000	0,050	-0,118
-459,299	-200,000	0,062	0,239
-458,284	-70,313	0,067	-0,018
-457,270	69,845	-0,069	-0,052
-456,255	182,378	-0,078	-0,083
-455,241	16,386	-0,010	-0,006
-454,226	-99,179	-0,162	0,030
-453,211	800,000	-0,025	-0,053
-452,197	800,000	0,067	0,210
-451,182	-71,052	0,041	-0,011
-450,168	800,000	-0,048	0,147
-449,153	-4,999	-0,085	-0,042
-448,138	557,070	-0,092	-0,163
-447,124	-5,351	0,075	-0,037
-446,109	-143,950	-0,209	0,014
-445,095	-91,709	0,119	0,024
-444,080	240,613	-0,064	-0,078
-443,065	4,542	0,044	0,023
-442,051	-42,455	-0,162	-0,060
-441,036	800,000	-0,063	-0,144
-440,022	-200,000	0,020	0,105
-439,007	-49,626	0,161	0,055
-437,992	51,192	-0,106	0,073
-436,978	-77,190	0,013	0,003
-435,963	47,400	0,082	0,056
-434,949	-143,932	0,025	-0,002
-433,934	-162,167	-0,022	-0,001
-432,919	-200,000	0,004	-0,204
-431,905	82,906	0,010	-0,008
-430,890	121,362	0,045	0,041
-429,876	111,862	0,106	0,093
-428,861	70,046	-0,023	0,018
-427,846	35,165	-0,085	0,054
-426,832	-200,000	0,012	-0,055
-425,817	-200,000	-0,007	-0,046
-424,803	26,421	0,024	-0,015
-423,788	71,473	0,089	-0,068
-422,773	-200,000	0,042	0,136
-421,759	36,264	0,131	-0,084
-420,744	-200,000	-0,024	0,196
-419,730	-106,872	-0,224	-0,036
-418,715	-4,196	0,138	-0,069
-417,701	261,338	-0,023	-0,030
-416,686	800,000	0,017	-0,036
-415,671	181,617	0,120	0,128
-414,657	-200,000	-0,002	0,068
-413,642	510,773	-0,041	-0,070
-412,628	-200,000	0,012	0,065
-411,613	753,517	0,095	0,187
-410,598	58,103	-0,057	-0,040
-409,584	-200,000	-0,001	-0,077
-408,569	120,347	0,105	-0,095
-407,555	584,190	-0,071	0,127
-406,540	-200,000	-0,013	-0,056
-405,525	56,930	-0,179	-0,126
-404,511	-42,632	0,055	0,020
-403,496	74,975	0,020	-0,015
-402,482	-175,553	0,174	0,003
-401,467	293,622	-0,024	0,032
-400,452	-200,000	0,011	0,143
-399,438	-200,000	-0,012	0,040
-398,423	-33,853	-0,098	-0,039
-397,409	100,692	-0,042	-0,035
-396,394	17,006	-0,040	0,023
-395,379	-31,531	0,071	0,029
-394,365	800,000	-0,006	0,014
-393,350	613,463	0,093	0,171
-392,336	182,839	0,087	-0,093
-391,321	184,284	0,039	0,042
-390,306	-200,000	0,009	0,049
-389,292	175,090	-0,089	-0,094
-388,277	-200,000	0,005	-0,123
-387,263	-20,307	0,062	-0,028
-386,248	-122,384	-0,115	0,013
-385,233	42,784	-0,133	0,088
-384,219	86,749	-0,077	0,062
-383,204	-200,000	-0,016	0,089
-382,190	-200,000	0,019	-0,092
-381,175	114,096	-0,103	-0,091
-380,160	-200,000	0,008	0,125
-379,146	-11,901	-0,105	0,050
-378,131	-18,414	-0,150	0,068
-377,117	-200,000	0,026	0,105
-376,102	-200,000	-0,054	0,000
-375,088	632,507	-0,109	-0,201
-374,073	-200,000	-0,001	0,044
-373,058	-158,784	0,125	-0,005
-372,044	-200,000	0,004	0,097
-371,029	-200,000	-0,002	0,047
-370,015	800,000	-0,025	-0,066
-369,000	-170,955	0,150	0,004
-367,985	800,000	0,021	0,052
-366,971	-172,533	0,093	-0,002
-365,956	442,871	0,032	0,051
-364,942	-200,000	-0,023	-0,123
-363,927	-80,188	0,077	-0,019
-362,912	-200,000	0,015	0,084
-361,898	140,439	0,080	-0,077
-360,883	-117,715	-0,108	-0,014
-359,869	-200,000	-0,004	0,020
-358,854	-169,359	0,086	0,002
-357,839	295,789	0,101	0,135
-356,825	-200,000	0,024	0,090
-355,810	106,954	0,116	-0,100
-354,796	-142,082	-0,063	0,005
-353,781	-200,000	-0,004	0,021
-352,766	-200,000	-0,020	0,091
-351,752	270,722	0,063	-0,081
-350,737	-200,000	-0,017	0,105
-349,723	153,699	0,093	0,092
-348,708	-55,368	-0,078	0,025
-347,693	479,933	0,024	-0,039
-346,679	800,000	-0,023	0,055
-345,664	-78,268	0,071	-0,018
-344,650	-124,335	0,128	-0,014
-343,635	92,036	0,109	0,089
-342,620	-95,668	0,195	0,038
-341,606	21,977	-0,102	0,060
-340,591	390,485	-0,075	0,113
-339,577	-140,044	-0,036	-0,003
-338,562	800,000	-0,007	-0,019
-337,548	-92,950	-0,082	-0,017
-336,533	-88,385	0,215	-0,046
-335,518	-120,344	0,105	-0,013
-334,504	4,582	0,195	0,103
-333,489	-91,797	-0,098	0,020
-332,475	-200,000	0,014	-0,076
-331,460	380,113	-0,038	-0,057
-330,445	-57,624	0,132	-0,042
-329,431	-114,257	-0,105	0,014
-328,416	96,447	0,138	0,115
-327,402	-200,000	0,027	-0,139
-326,387	-200,000	0,027	0,148
-325,372	-81,261	-0,148	-0,035
-324,358	63,186	-0,062	-0,045
-323,343	-200,000	0,028	-0,125
-322,329	157,837	0,094	0,094
-321,314	-39,836	0,046	-0,017
-320,299	-90,877	-0,105	0,022
-319,285	248,990	0,027	0,034
-318,270	90,379	-0,087	-0,070
-317,256	-127,717	-0,037	0,004
-316,241	162,592	0,085	-0,087
-315,226	-109,165	0,076	-0,012
-314,212	79,104	0,130	-0,101
-313,197	60,307	-0,068	0,048
-312,183	-62,179	-0,079	-0,024
-311,168	-200,000	0,001	-0,038
-310,153	-65,937	-0,081	-0,023
-309,139	-200,000	0,003	-0,101
-308,124	800,000	0,069	-0,147
-307,110	429,747	0,049	0,077
-306,095	-65,608	0,026	0,008
-305,080	-0,365	-0,065	-0,033
-304,066	180,745	-0,074	-0,078
-303,051	-96,562	-0,127	0,024
-302,037	51,639	0,106	0,073
-301,022	-200,000	-0,014	-0,111
-300,008	-189,758	0,104	0,001
-298,993	-55,999	0,038	-0,012
-297,978	-133,720	-0,012	-0,001
-296,964	-200,000	0,036	-0,150
-295,949	-200,000	-0,028	-0,193
-294,935	-41,894	-0,036	-0,013
-293,920	-160,130	0,051	-0,002
-292,905	-40,825	0,135	-0,050
-291,891	35,974	-0,059	0,037
-290,876	272,251	-0,015	0,020
-289,862	-200,000	-0,007	0,204
-288,847	-9,020	-0,134	0,065
-287,832	-200,000	0,004	0,017
-286,818	-104,278	-0,041	-0,007
-285,803	800,000	-0,073	-0,160
-284,789	-80,384	0,090	0,022
-283,774	142,422	0,050	0,048
-282,759	-200,000	-0,015	0,176
-281,745	204,206	-0,054	-0,060
-280,730	-200,000	-0,001	-0,076
-279,716	-200,000	0,014	0,094
-278,701	57,193	0,165	0,116
-277,686	-11,048	0,029	-0,014
-276,672	679,188	-0,064	0,122
-275,657	800,000	-0,009	0,027
-274,643	-16,646	-0,080	-0,037
-273,628	53,608	-0,077	-0,053
-272,613	78,038	0,105	-0,081
-271,599	97,552	-0,086	0,071
-270,584	-82,564	0,083	0,019
-269,570	-200,000	-0,013	0,088
-268,555	-200,000	0,000	-0,100
-267,540	-146,804	-0,128	0,008
-266,526	739,886	-0,044	0,085
-265,511	-200,000	-0,016	-0,064
-264,497	245,056	0,132	-0,161
-263,482	-20,448	0,127	0,056
-262,467	240,476	-0,026	-0,032
-261,453	-84,099	-0,031	0,007
-260,438	104,505	-0,055	-0,047
-259,424	-93,526	0,095	0,019
-258,409	288,655	0,031	0,041
-257,395	220,105	0,021	-0,025
-256,380	800,000	-0,020	0,058
-255,365	800,000	0,048	0,104
-254,351	-10,385	0,081	-0,039
-253,336	609,942	0,070	0,126
-252,322	-200,000	0,005	0,060
-251,307	-99,916	-0,100	-0,018
-250,292	47,304	0,026	0,017
-249,278	-3,369	0,030	0,015
-248,263	164,714	0,044	0,045
-247,249	275,506	0,101	0,129
-246,234	-200,000	-0,082	0,000
-245,219	-200,000	0,001	-0,079
-244,205	-200,000	-0,003	-0,072
-243,190	-45,685	-0,176	-0,063
-242,176	800,000	-0,012	-0,026
-241,161	-106,778	0,093	-0,015
-240,146	-15,618	-0,099	0,045
-239,132	-69,970	-0,122	0,033
-238,117	40,390	-0,048	0,031
-237,103	348,091	0,061	0,087
-236,088	63,606	0,059	0,043
-235,073	-56,130	0,238	-0,076
-234,059	137,798	-0,034	0,032
-233,044	-27,726	-0,049	0,021
-232,030	193,945	-0,041	-0,044
-231,015	-54,843	0,110	-0,036
-230,000	-2,672	0,007	0,004
-228,986	511,875	0,054	0,092
-227,971	-200,000	-0,021	-0,097
-226,957	800,000	0,035	0,098
-225,942	528,304	-0,036	0,061
-224,927	800,000	-0,043	0,086
-223,913	-25,270	0,061	-0,026
-222,898	38,148	-0,142	-0,091
-221,884	106,053	-0,098	0,084
-220,869	213,235	0,062	0,071
-219,855	-14,734	-0,152	0,070
-218,840	-35,174	0,053	0,021
-217,825	24,916	0,161	0,096
-216,811	-54,101	-0,114	-0,037
-215,796	208,599	-0,030	0,034
-214,782	198,252	-0,029	-0,032
-213,767	659,345	0,073	0,137
-212,752	342,369	0,111	-0,157
-211,738	-200,000	-0,004	-0,124
-210,723	-135,104	0,104	-0,009
-209,709	-109,288	0,216	0,033
-208,694	7,561	0,059	-0,032
-207,679	588,558	-0,086	-0,154
-206,665	-29,180	0,157	0,065
-205,650	-108,591	-0,134	0,021
-204,636	13,949	0,165	0,092
-203,621	77,582	-0,076	0,058
-202,606	-200,000	-0,019	0,098
-201,592	-200,000	-0,025	-0,133
-200,577	-183,531	-0,100	-0,001
-199,563	-200,000	-0,053	0,247
-198,548	800,000	0,014	-0,034
-197,533	173,995	0,087	0,091
-196,519	547,252	0,043	0,074
-195,504	-36,599	-0,179	-0,069
-194,490	318,732	0,053	-0,072
-193,475	-200,000	-0,023	-0,102
-192,460	411,019	0,098	-0,150
-191,446	94,306	0,087	-0,071
-190,431	23,425	-0,059	-0,035
-189,417	-200,000	0,009	0,065
-188,402	-200,000	-0,051	0,179
-187,387	5,808	-0,081	-0,043
-186,373	800,000	0,011	-0,032
-185,358	-200,000	0,002	0,096
-184,344	146,548	0,046	-0,045
-183,329	-200,000	0,033	0,166
-182,315	507,582	0,068	0,114
-181,300	-52,392	0,091	0,030
-180,285	-200,000	0,009	0,059
-179,271	67,982	0,082	-0,060
-178,256	189,022	0,096	0,103
-177,242	339,243	-0,095	0,134
-176,227	14,915	-0,048	0,027
-175,212	46,227	-0,117	0,078
-174,198	14,276	-0,052	-0,029
-173,183	-200,000	-0,014	-0,215
-172,169	-33,190	-0,124	0,049
-171,154	-200,000	-0,005	-0,153
-170,139	-127,759	0,139	-0,014
-169,125	234,650	-0,032	0,039
-168,110	-13,622	0,037	-0,017
-167,096	-200,000	0,010	-0,067
-166,081	41,035	0,100	-0,065
-165,066	185,366	-0,095	-0,101
-164,052	800,000	-0,023	-0,055
-163,037	268,388	0,109	0,137
-162,023	619,484	-0,059	0,107
-161,008	488,922	-0,055	0,090
-159,993	-200,000	0,014	0,047
-158,979	-100,247	0,071	-0,013
-157,964	-63,048	0,097	-0,029
-156,950	377,174	-0,042	0,062
-155,935	149,073	0,101	0,099
-154,920	-11,366	-0,064	0,030
-153,906	-127,893	-0,072	0,007
-152,891	-200,000	-0,012	-0,071
-151,877	-200,000	0,010	-0,033
-150,862	25,891	-0,082	-0,049
-149,847	209,727	0,019	-0,021
-148,833	-200,000	0,015	0,208
-147,818	800,000	0,061	0,191
-146,804	21,778	0,108	-0,063
-145,789	42,930	-0,066	0,043
-144,775	800,000	0,017	-0,040
-143,760	-200,000	-0,012	-0,120
-142,745	-95,212	-0,140	-0,027
-141,731	-200,000	-0,007	0,096
-140,716	471,538	-0,039	-0,063
-139,702	215,006	0,015	-0,017
-138,687	-88,397	-0,035	-0,007
-137,672	800,000	-0,024	0,063
-136,658	565,221	0,088	-0,155
-135,643	478,024	-0,059	-0,097
-134,629	499,044	0,034	-0,057
-133,614	-200,000	0,006	-0,091
-132,599	84,786	0,062	0,049
-131,585	800,000	0,033	0,069
-130,570	-200,000	-0,001	0,173
-129,556	81,366	0,068	-0,053
-128,541	-200,000	-0,039	-0,232
-127,526	-116,218	0,112	-0,015
-126,512	-43,334	-0,071	0,026
-125,497	414,806	0,095	0,146
-124,483	-143,923	-0,039	0,003
-123,468	-200,000	0,024	0,160
-122,453	800,000	-0,012	0,034
-121,439	-200,000	0,034	-0,158
-120,424	69,011	-0,120	0,089
-119,410	157,901	0,048	-0,048
-118,395	-166,059	-0,154	-0,005
-117,380	800,000	0,040	0,095
-116,366	158,846	-0,156	0,156
-115,351	-78,904	-0,077	-0,019
-114,337	-52,556	0,072	-0,024
-113,322	-88,414	-0,179	0,038
-112,307	-44,705	-0,092	0,033
-111,293	-59,451	0,103	-0,032
-110,278	40,687	0,011	0,007
-109,264	-200,000	-0,041	0,163
-108,249	12,127	-0,079	0,044
-107,234	210,196	-0,077	-0,087
-106,220	-200,000	-0,019	-0,108
-105,205	-200,000	0,019	-0,099
-104,191	-69,812	-0,113	-0,031
-103,176	-200,000	-0,003	-0,017
-102,162	-75,970	-0,054	0,014
-101,147	800,000	0,033	-0,078
-100,132	-37,701	0,015	-0,006
-99,118	-200,000	-0,021	0,143
-98,103	-17,411	0,058	-0,026
-97,089	-96,377	-0,107	-0,020
-96,074	-200,000	0,021	-0,072
-95,059	236,628	0,056	0,067
-94,045	800,000	-0,035	-0,071
-93,030	-64,655	-0,110	0,032
-92,016	399,539	0,066	0,100
-91,001	-133,161	-0,056	0,005
-89,986	-129,108	0,039	0,004
-88,972	87,743	0,112	0,089
-87,957	-200,000	0,051	0,170
-86,943	-28,616	-0,039	0,016
-85,928	795,872	0,066	-0,131
-84,913	132,443	0,076	-0,071
-83,899	-200,000	-0,012	-0,099
-82,884	34,621	0,034	0,021
-81,870	30,449	-0,034	0,021
-80,855	-59,518	0,137	-0,042
-79,840	-170,823	0,058	-0,001
-78,826	400,021	0,031	-0,047
-77,811	800,000	0,040	0,081
-76,797	-103,012	-0,032	-0,005
-75,782	33,236	0,101	0,063
-74,767	229,178	0,097	0,114
-73,753	-200,000	0,041	0,241
-72,738	800,000	0,002	0,005
-71,724	-160,363	-0,134	0,005
-70,709	-200,000	-0,033	-0,165
-69,694	-200,000	0,020	-0,121
-68,680	800,000	0,036	-0,086
-67,665	143,316	-0,059	-0,056
-66,651	304,751	-0,016	0,021
-65,636	30,087	-0,090	0,055
-64,622	167,499	-0,077	0,079
-63,607	36,523	0,109	-0,069
-62,592	-111,271	-0,056	0,008
-61,578	-96,038	-0,071	-0,013
-60,563	-106,169	-0,071	0,011
-59,549	-200,000	0,026	0,145
-58,534	88,093	-2,802	-2,228
-57,519	-84,430	0,547	-0,123
-56,505	-200,000	-1,729	-5,523
-55,490	452,147	1,386	2,206
-54,476	800,000	5,178	11,275
-53,461	-200,000	23,055	347,863
-52,446	800,000	765,700	2263,109
-51,432	497,055	1642,797	2719,872
-50,417	93,040	1598,910	1294,847
-49,403	60,774	1253,900	890,091
-48,388	21,128	1006,163	583,920
-47,373	18,338	973,865	556,055
-46,359	11,771	960,556	527,207
-45,344	7,697	957,455	512,295
-44,330	7,968	955,494	512,104
-43,315	7,137	953,522	508,343
-42,300	7,073	952,357	507,495
-41,286	7,055	951,532	506,976
-40,271	7,049	950,556	506,418
-39,257	7,058	949,494	505,860
-38,242	7,033	948,880	505,434
-37,227	7,008	947,960	504,844
-36,213	7,067	947,038	504,521
-35,198	6,972	946,533	503,928
-34,184	7,045	945,580	503,634
-33,169	7,002	944,741	503,030
-32,154	7,049	943,999	502,766
-31,140	7,066	943,058	502,297
-30,125	7,079	942,341	501,938
-29,111	7,060	941,387	501,348
-28,096	7,091	940,875	501,154
-27,082	7,035	940,279	500,640
-26,067	6,979	939,659	500,111
-25,052	7,031	938,583	499,685
-24,038	6,999	938,148	499,331
-23,023	7,015	937,378	498,952
-22,009	7,006	936,691	498,539
-20,994	7,045	936,167	498,363
-19,979	7,071	935,507	498,075
-18,965	7,022	934,805	497,527
-17,950	7,033	934,275	497,259
-16,936	6,925	933,634	496,555
-15,921	7,010	932,955	496,444
-14,906	7,009	932,076	495,953
-13,892	6,929	931,797	495,532
-12,877	6,906	931,035	495,035
-11,863	6,984	930,466	494,960
-10,848	6,969	929,911	494,597
-9,833	7,022	929,430	494,487
-8,819	6,926	928,824	493,844
-7,804	6,941	927,992	493,429
-6,790	6,909	927,584	493,093
-5,775	6,961	926,868	492,857
-4,760	6,985	926,407	492,666
-3,746	6,971	925,821	492,291
-2,731	6,805	924,940	491,284
-1,717	6,790	924,474	490,970
-0,702	6,814	923,782	490,658
0,313	6,634	923,211	490,534
1,327	10,056	920,605	499,762
2,342	18,595	769,514	439,819
3,356	13,504	442,461	245,300
4,371	-12,364	309,953	144,564
5,386	-16,087	292,915	132,870
6,400	-18,239	286,907	128,017
7,415	-18,470	284,243	126,592
8,429	-19,093	282,279	125,103
9,444	-19,255	281,403	124,547
10,459	-19,086	280,855	124,457
11,473	-18,989	280,235	124,264
12,488	-19,009	279,836	124,057
13,502	-18,860	279,284	123,944
14,517	-18,890	278,863	123,717
15,531	-18,896	278,354	123,475
16,546	-18,717	278,047	123,498
17,561	-18,813	277,576	123,187
18,575	-18,826	277,398	123,084
19,590	-18,992	276,928	122,708
20,604	-18,818	276,713	122,765
21,619	-18,906	276,351	122,511
22,634	-18,918	275,892	122,285
23,648	-18,892	275,721	122,224
24,663	-18,885	275,539	122,138
25,677	-18,896	275,209	121,971
26,692	-18,682	274,985	122,061
27,707	-18,751	274,648	121,837
28,721	-18,908	274,399	121,568
29,736	-18,963	274,030	121,342
30,750	-18,747	273,676	121,376
31,765	-18,907	273,603	121,184
32,780	-19,006	273,342	120,965
33,794	-18,889	273,026	120,923
34,809	-18,847	272,765	120,836
35,823	-18,930	272,396	120,585
36,838	-18,867	272,296	120,588
37,853	-18,986	272,056	120,361
38,867	-18,727	271,733	120,448
39,882	-18,829	271,503	120,240
40,896	-18,868	271,413	120,153
41,911	-18,785	270,932	120,007
42,926	-18,710	270,696	119,961
43,940	-18,823	270,500	119,758
44,955	-18,661	270,354	119,833
45,969	-18,900	270,215	119,540
46,984	-18,880	270,013	119,458
47,999	-18,743	269,676	119,425
49,013	-18,627	269,625	119,498
50,028	-18,572	269,200	119,350
51,042	-18,659	269,116	119,222
52,057	-18,562	268,861	119,188
53,071	-18,647	268,570	118,970
54,086	-18,720	268,291	118,769
55,101	-18,698	268,273	118,770
56,115	-18,665	268,014	118,676
57,130	-18,740	267,611	118,418
58,144	-18,849	267,393	118,212
59,159	-18,997	267,161	117,963
60,174	-18,735	266,947	118,097
61,188	-18,907	266,730	117,834
62,203	-18,976	266,652	117,727
63,217	-18,652	266,127	117,778
64,232	-18,920	266,195	117,555
65,247	-18,716	265,602	117,466
66,261	-18,905	265,471	117,228
67,276	-18,872	265,331	117,184
68,290	-18,891	265,126	117,067
69,305	-18,836	264,960	117,033
70,320	-18,825	264,769	116,948
71,334	-18,922	264,555	116,756
72,349	-18,789	264,197	116,707
73,363	-18,833	263,947	116,547
74,378	-18,776	263,814	116,528
75,393	-18,811	263,573	116,380
76,407	-18,802	263,242	116,232
77,422	-18,705	263,155	116,270
78,436	-18,669	262,655	116,071
79,451	-18,700	262,586	116,002
80,466	-18,831	262,375	115,782
81,480	-18,844	262,276	115,716
82,495	-18,698	261,897	115,669
83,509	-18,622	261,698	115,638
84,524	-18,594	261,570	115,597
85,539	-18,655	261,292	115,409
86,553	-18,778	261,158	115,230
87,568	-18,805	260,914	115,088
88,582	-18,798	260,603	114,946
89,597	-18,563	260,489	115,095
90,611	-18,632	260,281	114,931
91,626	-18,719	260,121	114,773
92,641	-18,765	259,964	114,653
93,655	-18,825	259,587	114,424
94,670	-18,580	259,337	114,520
95,684	-18,681	259,256	114,384
96,699	-18,872	258,949	114,071
97,714	-18,698	258,926	114,203
98,728	-18,678	258,691	114,108
99,743	-18,659	258,452	114,008
100,757	-18,538	258,061	113,932
101,772	-18,681	258,085	113,807
102,787	-18,684	257,785	113,661
103,801	-18,691	257,566	113,549
104,816	-18,660	257,291	113,445
105,830	-18,661	257,229	113,407
106,845	-18,822	257,081	113,191
107,860	-18,725	256,914	113,191
108,874	-18,661	256,526	113,066
109,889	-18,719	256,298	112,905
110,903	-18,734	256,165	112,824
111,918	-18,756	256,012	112,727
112,933	-18,785	255,687	112,548
113,947	-18,640	255,580	112,618
114,962	-18,838	255,479	112,391
115,976	-18,592	255,066	112,412
116,991	-18,698	254,871	112,225
118,006	-18,574	254,851	112,313
119,020	-18,760	254,660	112,058
120,035	-18,619	254,309	112,016
121,049	-18,617	254,336	112,019
122,064	-18,760	254,032	111,751
123,079	-18,684	253,947	111,770
124,093	-18,561	253,711	111,762
125,108	-18,743	253,581	111,539
126,122	-18,558	253,261	111,547
127,137	-18,447	253,094	111,558
128,151	-18,518	252,950	111,424
129,166	-18,607	252,652	111,206
130,181	-18,501	252,539	111,238
131,195	-18,733	252,302	110,925
132,210	-18,595	252,034	110,915
133,224	-18,695	251,841	110,735
134,239	-18,717	251,592	110,596
135,254	-18,801	251,600	110,519
136,268	-18,605	251,305	110,546
137,283	-18,562	251,047	110,459
138,297	-18,528	250,928	110,427
139,312	-18,594	250,667	110,246
140,327	-18,694	250,566	110,107
141,341	-18,686	250,188	109,937
142,356	-18,898	250,231	109,766
143,370	-18,599	249,872	109,852
144,385	-18,643	249,748	109,751
145,400	-18,778	249,500	109,518
146,414	-18,677	249,287	109,500
147,429	-18,616	249,025	109,427
148,443	-18,637	248,932	109,358
149,458	-18,698	248,624	109,162
150,473	-18,615	248,638	109,228
151,487	-18,777	248,325	108,944
152,502	-18,497	248,293	109,156
153,516	-18,779	248,102	108,825
154,531	-18,804	247,834	108,677
155,546	-18,848	247,766	108,601
156,560	-18,589	247,490	108,687
157,575	-18,574	247,176	108,552
158,589	-18,745	247,111	108,372
159,604	-18,716	246,786	108,243
160,619	-18,606	246,638	108,260
161,633	-18,680	246,592	108,169
162,648	-18,655	246,345	108,071
163,662	-18,815	246,306	107,911
164,677	-18,616	246,162	108,004
165,692	-18,652	245,896	107,848
166,706	-18,584	245,670	107,796
167,721	-18,641	245,578	107,699
168,735	-18,686	245,296	107,528
169,750	-18,691	245,273	107,504
170,764	-18,599	245,033	107,466
171,779	-18,696	244,802	107,274
172,794	-18,682	244,759	107,258
173,808	-18,688	244,710	107,222
174,823	-18,554	244,372	107,175
175,837	-18,420	244,191	107,196
176,852	-18,597	244,111	107,006
177,867	-18,453	243,814	106,984
178,881	-18,694	243,632	106,697
179,896	-18,654	243,522	106,672
180,910	-18,569	243,257	106,616
181,925	-18,660	243,087	106,458
182,940	-18,619	242,936	106,415
183,954	-18,644	242,727	106,294
184,969	-18,557	242,623	106,310
185,983	-18,596	242,427	106,183
186,998	-18,553	242,372	106,184
188,013	-18,506	242,043	106,070
189,027	-18,654	241,894	105,874
190,042	-18,700	241,711	105,747
191,056	-18,687	241,486	105,650
192,071	-18,736	241,467	105,591
193,086	-18,619	241,201	105,561
194,100	-18,571	240,972	105,491
195,115	-18,553	240,700	105,377
196,129	-18,637	240,584	105,249
197,144	-18,590	240,413	105,202
198,159	-18,640	240,171	105,046
199,173	-18,474	239,976	105,086
200,188	-18,599	239,844	104,918
201,202	-18,303	239,724	105,095
202,217	-18,364	239,566	104,967
203,232	-18,267	239,288	104,914
204,246	-18,607	239,119	104,557
205,261	-18,821	239,065	104,352
206,275	-17,023	239,406	105,941
207,290	-12,549	241,265	110,387
208,304	-5,709	243,467	116,977
209,319	-2,169	244,162	120,196
210,334	-1,134	244,223	121,060
211,348	-0,404	244,583	121,825
212,363	0,135	244,392	122,160
213,377	0,313	244,467	122,331
214,392	0,412	244,466	122,401
215,407	0,647	244,398	122,547
216,421	0,834	244,147	122,563
217,436	0,982	244,031	122,614
218,450	0,850	243,940	122,451
219,465	0,997	243,727	122,452
220,480	0,970	243,428	122,269
221,494	1,109	243,430	122,372
222,509	0,824	243,012	121,919
223,523	0,562	242,980	121,681
224,538	0,483	242,702	121,466
225,553	0,239	242,590	121,202
226,567	0,290	242,302	121,089
227,582	0,271	242,289	121,057
228,596	0,426	242,015	121,033
229,611	0,331	241,923	120,900
230,626	0,355	241,699	120,797
231,640	0,450	241,509	120,768
232,655	0,543	241,231	120,693
233,669	0,521	241,232	120,665
234,684	0,550	240,998	120,561
235,699	0,494	240,909	120,460
236,713	0,422	240,850	120,361
237,728	0,241	240,810	120,185
238,742	0,388	240,406	120,091
239,757	0,275	240,169	119,872
240,772	0,377	240,152	119,934
241,786	0,551	239,994	119,984
242,801	0,361	239,811	119,729
243,815	0,203	239,750	119,562
244,830	0,333	239,561	119,561
245,844	0,306	239,415	119,456
246,859	0,443	239,210	119,452
247,874	0,313	239,013	119,240
248,888	0,387	238,981	119,272
249,903	0,470	238,766	119,220
250,917	0,494	238,652	119,172
251,932	0,448	238,471	119,035
252,947	0,567	238,255	119,010
253,961	0,589	238,122	118,951
254,976	0,445	237,699	118,614
255,990	0,458	237,789	118,660
257,005	0,454	237,557	118,530
258,020	0,330	237,522	118,404
259,034	0,225	237,376	118,237
260,049	0,418	237,168	118,276
261,063	0,451	237,006	118,210
262,078	0,585	236,619	118,112
263,093	0,338	236,669	117,932
264,107	0,450	236,619	117,985
265,122	0,402	236,262	117,758
266,136	0,371	236,178	117,682
267,151	0,364	236,056	117,605
268,166	0,299	235,941	117,486
269,180	0,381	235,732	117,436
270,195	0,344	235,569	117,315
271,209	0,331	235,463	117,242
272,224	0,446	235,267	117,224
273,239	0,530	235,106	117,199
274,253	0,213	235,155	116,965
275,268	0,361	234,861	116,924
276,282	0,416	234,701	116,877
277,297	0,558	234,475	116,864
278,312	0,472	234,346	116,723
279,326	0,277	234,322	116,548
280,341	0,425	234,196	116,590
281,355	0,466	234,051	116,539
282,370	0,783	233,781	116,641
283,384	0,400	233,708	116,297
284,399	0,306	233,567	116,144
285,414	0,370	233,422	116,111
286,428	0,281	233,341	115,991
287,443	0,472	233,147	116,032
288,457	0,710	232,901	116,083
289,472	0,539	232,756	115,868
290,487	0,505	232,636	115,772
291,501	0,403	232,453	115,592
292,516	0,418	232,287	115,510
293,530	0,662	232,219	115,655
294,545	0,472	232,102	115,440
295,560	0,600	231,925	115,440
296,574	0,625	231,777	115,376
297,589	0,550	231,482	115,161
298,603	0,452	231,527	115,098
299,618	0,569	231,361	115,095
300,633	0,751	231,129	115,108
301,647	0,699	231,191	115,089
302,662	0,555	231,029	114,888
303,676	0,666	230,765	114,831
304,691	0,882	230,507	114,857
305,706	0,596	230,463	114,607
306,720	0,739	230,280	114,615
307,735	0,680	230,170	114,504
308,749	0,625	230,061	114,399
309,764	0,604	229,835	114,260
310,779	0,748	229,591	114,238
311,793	0,686	229,525	114,148
312,808	0,859	229,523	114,268
313,822	0,746	229,256	114,039
314,837	0,951	229,112	114,113
315,852	1,056	228,894	114,073
316,866	0,865	228,805	113,875
317,881	0,769	228,741	113,760
318,895	0,959	228,467	113,757
319,910	0,835	228,399	113,620
320,925	0,768	228,067	113,394
321,939	0,582	228,143	113,280
322,954	0,703	228,094	113,337
323,968	0,709	227,839	113,206
324,983	0,858	227,814	113,295
325,997	0,807	227,564	113,122
327,012	0,907	227,379	113,095
328,027	0,838	227,178	112,934
329,041	0,934	227,074	112,943
330,056	0,817	226,917	112,768
331,070	0,850	226,803	112,726
332,085	0,813	226,580	112,578
333,100	0,674	226,529	112,438
334,114	0,862	226,213	112,412
335,129	0,609	226,271	112,241
336,143	0,682	226,097	112,199
337,158	0,715	225,962	112,147
338,173	1,099	225,829	112,358
339,187	0,778	225,717	112,053
340,202	0,725	225,680	111,985
341,216	0,957	225,404	112,011
342,231	0,793	225,265	111,809
343,246	0,677	225,094	111,628
344,260	0,958	224,980	111,770
345,275	0,814	224,909	111,618
346,289	1,022	224,693	111,655
347,304	0,829	224,624	111,468
348,319	1,127	224,244	111,490
349,333	1,102	224,139	111,409
350,348	1,162	223,918	111,334
351,362	0,925	223,994	111,187
352,377	0,997	223,810	111,139
353,392	0,831	223,833	111,017
354,406	0,981	223,561	110,983
355,421	193,154	1311,343	1378,681
356,435	154,704	1443,710	1378,501
