DTS Sentinel unit serial number:	SN410029Multiplexer serial number:	ORYXHardware model number:	OX2-SRSoftware version number:	ORYX F/W v4,00 Oryx Data Collector v3.7.2.0data status	okinstallation	B5 Nyhavnadifferential loss correction	single-endedforward channel	channel 2reverse channel	N/Adate	2023/12/14time	07:17:13forward acquisition time	300,00reverse acquisition time	0,00gamma	499,1914k internal	0,3159k external	0,3159temperature offset calibration	1,0000default loss term (dB/km)	0,3820temperature slope calibration	1,0000multiplexer offset coefficient	1,0000multiplexer slope coefficient	1,0000fibre end	0,00T internal ref (°C)	7,21T ext. ref 1 (°C)	-9,23T ext. ref 2 (°C)	-9,35length (m)	temperature (°C)	Stokes	anti-Stokes-744,400	-135,405	0,167	0,015
-743,385	-80,557	-0,262	-0,064
-742,371	-40,897	0,195	0,074
-741,356	-64,628	-0,365	-0,108
-740,342	266,602	0,103	0,133
-739,327	-128,925	-0,412	0,042
-738,312	20,067	0,221	0,131
-737,298	-53,469	-0,364	-0,122
-736,283	335,664	0,038	-0,054
-735,269	-22,013	-0,315	-0,141
-734,254	-29,381	0,117	0,049
-733,239	-38,547	-0,606	-0,235
-732,225	77,656	0,335	0,263
-731,210	107,731	0,044	0,038
-730,196	-200,000	-0,001	0,082
-729,181	310,670	-0,066	-0,092
-728,167	106,423	0,060	-0,052
-727,152	98,552	-0,079	0,067
-726,137	-115,666	-0,104	-0,014
-725,123	46,060	-0,220	-0,149
-724,108	-117,986	0,067	-0,009
-723,094	800,000	-0,033	-0,105
-722,079	444,944	-0,040	-0,066
-721,064	-104,566	0,044	-0,007
-720,050	-200,000	-0,010	0,036
-719,035	-200,000	-0,009	-0,090
-718,021	261,348	-0,042	0,054
-717,006	87,488	0,103	-0,084
-715,991	40,919	-0,136	-0,090
-714,977	6,673	-0,056	-0,031
-713,962	-200,000	0,034	0,136
-712,948	124,019	-0,065	-0,060
-711,933	800,000	0,042	0,101
-710,918	-200,000	0,021	0,077
-709,904	-92,685	-0,077	0,016
-708,889	-10,972	-0,214	-0,104
-707,875	-16,836	0,024	-0,011
-706,860	-200,000	0,011	-0,045
-705,845	295,274	0,035	0,048
-704,831	800,000	0,014	0,039
-703,816	-200,000	-0,001	0,028
-702,802	-56,997	-0,123	0,040
-701,787	80,727	-0,121	-0,096
-700,772	-17,679	-0,102	0,047
-699,758	624,873	0,046	0,086
-698,743	-75,471	0,023	-0,006
-697,729	205,615	-0,055	-0,063
-696,714	-11,498	0,058	0,028
-695,699	89,494	0,020	-0,016
-694,685	-200,000	0,008	-0,036
-693,670	800,000	-0,006	-0,018
-692,656	569,200	0,037	0,067
-691,641	-142,482	-0,095	-0,007
-690,627	-200,000	0,043	0,199
-689,612	214,599	-0,026	0,030
-688,597	13,983	-0,041	0,024
-687,583	152,800	-0,066	0,066
-686,568	495,117	0,036	-0,061
-685,554	-137,367	0,018	0,001
-684,539	191,882	0,098	-0,109
-683,524	-200,000	0,032	-0,159
-682,510	66,680	-0,063	0,047
-681,495	-74,233	-0,059	-0,016
-680,481	-124,856	-0,075	-0,008
-679,466	-200,000	-0,028	-0,106
-678,451	554,057	-0,071	-0,127
-677,437	-32,998	0,022	-0,009
-676,422	279,195	0,041	-0,054
-675,408	800,000	-0,004	0,011
-674,393	-200,000	-0,023	-0,163
-673,378	-101,783	-0,080	-0,014
-672,364	-22,858	-0,083	-0,037
-671,349	79,976	0,190	-0,150
-670,335	9,036	0,017	0,009
-669,320	-200,000	-0,026	0,107
-668,305	-200,000	-0,012	0,096
-667,291	-200,000	-0,044	0,213
-666,276	73,235	-0,101	-0,078
-665,262	-200,000	0,001	-0,036
-664,247	-200,000	-0,004	-0,067
-663,232	-195,127	0,029	-0,000
-662,218	-84,402	0,027	-0,006
-661,203	181,750	-0,061	-0,066
-660,189	-65,660	-0,084	0,025
-659,174	-200,000	-0,038	-0,207
-658,159	-91,282	-0,105	-0,022
-657,145	800,000	0,008	-0,018
-656,130	-200,000	-0,007	-0,064
-655,116	-4,480	-0,183	-0,092
-654,101	800,000	-0,038	-0,123
-653,086	800,000	0,048	0,135
-652,072	66,993	-0,025	0,018
-651,057	-200,000	0,023	-0,095
-650,043	800,000	0,017	-0,041
-649,028	800,000	0,028	0,058
-648,014	115,643	0,146	-0,131
-646,999	-6,809	0,047	-0,024
-645,984	-14,828	-0,076	-0,036
-644,970	272,665	0,019	-0,024
-643,955	-200,000	0,006	-0,045
-642,941	-18,438	-0,075	0,034
-641,926	800,000	-0,055	-0,154
-640,911	108,739	0,036	0,031
-639,897	-106,514	0,101	-0,016
-638,882	26,883	-0,077	0,047
-637,868	800,000	0,014	0,038
-636,853	800,000	-0,042	-0,124
-635,838	-200,000	-0,003	0,022
-634,824	170,472	-0,080	0,085
-633,809	-139,112	0,071	0,006
-632,795	64,170	0,053	-0,039
-631,780	66,224	0,146	0,109
-630,765	20,513	-0,095	0,056
-629,751	110,076	-0,114	-0,101
-628,736	467,889	0,070	-0,115
-627,722	-44,079	-0,062	-0,023
-626,707	52,357	-0,100	-0,070
-625,692	-156,866	0,123	-0,005
-624,678	-200,000	0,013	0,125
-623,663	0,315	-0,108	0,056
-622,649	-200,000	-0,013	0,080
-621,634	363,775	-0,059	-0,087
-620,619	800,000	-0,019	0,050
-619,605	144,098	0,068	-0,067
-618,590	-23,058	-0,035	0,015
-617,576	175,948	0,087	-0,092
-616,561	83,358	0,038	-0,030
-615,546	800,000	-0,047	-0,111
-614,532	800,000	-0,019	0,048
-613,517	-200,000	0,006	0,038
-612,503	437,234	0,067	0,107
-611,488	115,533	0,129	-0,116
-610,474	-200,000	0,010	-0,074
-609,459	800,000	0,010	0,020
-608,444	54,934	0,044	-0,031
-607,430	740,814	0,037	0,074
-606,415	252,248	0,035	0,043
-605,401	407,039	0,063	0,098
-604,386	75,902	-0,036	-0,028
-603,371	800,000	0,034	0,099
-602,357	-6,795	-0,081	0,040
-601,342	-200,000	-0,005	0,065
-600,328	-28,030	-0,205	0,087
-599,313	343,546	0,017	-0,025
-598,298	1,987	-0,099	0,052
-597,284	-13,704	0,126	-0,059
-596,269	511,198	0,068	-0,117
-595,255	800,000	-0,041	0,123
-594,240	-200,000	-0,012	-0,147
-593,225	87,141	0,060	-0,048
-592,211	143,410	-0,016	-0,016
-591,196	-76,536	-0,118	-0,030
-590,182	651,928	0,044	0,083
-589,167	350,752	0,048	0,069
-588,152	-98,069	0,044	-0,008
-587,138	-20,267	0,033	0,015
-586,123	111,042	-0,072	0,063
-585,109	32,234	-0,051	0,032
-584,094	11,844	0,030	-0,017
-583,079	16,804	0,066	-0,038
-582,065	292,924	0,021	-0,028
-581,050	651,533	-0,020	-0,038
-580,036	32,657	0,066	0,042
-579,021	-23,475	-0,198	-0,087
-578,006	58,794	0,077	-0,055
-576,992	478,543	-0,060	0,100
-575,977	27,820	-0,095	0,059
-574,963	122,329	0,011	-0,010
-573,948	-200,000	0,004	0,094
-572,934	-63,888	-0,082	-0,024
-571,919	-133,079	0,100	-0,009
-570,904	-200,000	0,031	0,102
-569,890	-200,000	0,009	-0,034
-568,875	-119,325	-0,050	0,006
-567,861	-0,035	0,049	-0,026
-566,846	-200,000	0,014	0,265
-565,831	347,825	0,051	-0,073
-564,817	181,079	0,034	0,037
-563,802	-200,000	0,002	-0,162
-562,788	-114,976	-0,140	0,019
-561,773	-200,000	-0,022	0,079
-560,758	-70,339	0,117	-0,032
-559,744	376,118	-0,098	-0,146
-558,729	349,615	0,060	-0,087
-557,715	-200,000	0,010	0,089
-556,700	-96,746	-0,139	0,026
-555,685	-200,000	-0,011	0,105
-554,671	-43,701	0,062	-0,023
-553,656	57,031	0,154	0,109
-552,642	-118,817	0,075	0,010
-551,627	228,234	-0,004	0,004
-550,612	-200,000	0,037	-0,121
-549,598	800,000	0,017	-0,040
-548,583	128,770	0,046	0,043
-547,569	73,380	-0,091	-0,070
-546,554	-200,000	0,007	-0,029
-545,539	146,730	0,023	0,022
-544,525	800,000	-0,019	-0,040
-543,510	800,000	-0,022	0,068
-542,496	386,675	-0,068	-0,103
-541,481	363,137	-0,079	-0,117
-540,466	-153,486	-0,051	0,003
-539,452	-99,930	0,094	0,017
-538,437	-40,657	0,033	0,012
-537,423	376,016	0,056	0,084
-536,408	146,305	0,074	-0,072
-535,393	-16,771	-0,091	-0,042
-534,379	-22,590	-0,049	0,021
-533,364	-200,000	0,029	-0,105
-532,350	-19,797	-0,065	-0,029
-531,335	-200,000	-0,004	-0,082
-530,321	800,000	0,062	0,147
-529,306	-71,666	-0,087	-0,024
-528,291	542,587	-0,038	-0,067
-527,277	378,654	0,015	0,023
-526,262	800,000	0,026	-0,082
-525,248	757,770	0,060	-0,120
-524,233	189,864	0,058	0,063
-523,218	57,347	0,068	0,049
-522,204	-136,658	0,034	-0,003
-521,189	-200,000	-0,035	0,153
-520,175	62,555	-0,047	0,035
-519,160	98,078	-0,038	0,032
-518,145	800,000	-0,035	0,075
-517,131	-91,021	0,128	-0,027
-516,116	-200,000	0,001	0,019
-515,102	8,245	0,043	-0,024
-514,087	490,862	0,022	-0,037
-513,072	800,000	-0,094	-0,275
-512,058	-200,000	0,005	-0,119
-511,043	-124,640	-0,158	-0,018
-510,029	800,000	-0,037	0,086
-509,014	-42,281	-0,125	0,046
-507,999	167,172	-0,102	-0,106
-506,985	-9,790	-0,052	0,025
-505,970	-68,339	-0,023	-0,007
-504,956	800,000	-0,026	-0,057
-503,941	-6,050	0,105	-0,052
-502,926	10,147	0,077	-0,042
-501,912	2,994	0,097	0,051
-500,897	-102,441	-0,071	-0,012
-499,883	-200,000	0,013	0,044
-498,868	-200,000	-0,001	-0,021
-497,853	-200,000	0,001	0,010
-496,839	-94,988	0,093	-0,018
-495,824	-9,597	-0,043	-0,021
-494,810	-105,990	0,150	-0,024
-493,795	-62,195	-0,057	-0,017
-492,781	351,876	0,045	-0,066
-491,766	-94,193	-0,130	0,026
-490,751	462,514	0,061	-0,099
-489,737	151,559	-0,076	0,075
-488,722	473,084	0,057	-0,095
-487,708	112,303	0,094	0,083
-486,693	239,265	-0,096	0,116
-485,678	623,934	-0,040	0,073
-484,664	-30,682	-0,024	-0,010
-483,649	233,639	-0,094	0,113
-482,635	800,000	0,041	0,086
-481,620	800,000	0,024	0,052
-480,605	-14,614	0,036	0,017
-479,591	-200,000	-0,039	0,172
-478,576	-9,330	0,030	-0,015
-477,562	-2,040	0,070	-0,036
-476,547	131,365	-0,032	-0,030
-475,532	191,298	-0,041	0,045
-474,518	636,642	0,038	-0,070
-473,503	419,799	-0,083	0,129
-472,489	-113,412	-0,066	-0,009
-471,474	-200,000	-0,014	-0,096
-470,459	108,816	-0,169	-0,148
-469,445	29,944	-0,107	-0,066
-468,430	-35,136	0,121	0,048
-467,416	-200,000	-0,021	0,068
-466,401	-111,892	-0,039	-0,006
-465,386	86,114	-0,028	0,023
-464,372	800,000	0,021	0,062
-463,357	800,000	-0,031	-0,092
-462,343	-200,000	0,042	-0,162
-461,328	256,975	0,100	-0,125
-460,313	-200,000	-0,005	-0,126
-459,299	-200,000	-0,014	-0,050
-458,284	-76,138	0,011	0,003
-457,270	71,421	-0,114	0,086
-456,255	-192,060	-0,199	0,001
-455,241	-200,000	0,006	-0,057
-454,226	-124,037	-0,071	0,008
-453,211	-144,680	-0,077	-0,005
-452,197	6,900	0,172	0,093
-451,182	-54,760	-0,107	0,035
-450,168	-77,416	0,163	-0,041
-449,153	-168,870	-0,148	0,004
-448,138	98,642	-0,047	-0,039
-447,124	207,514	0,032	-0,036
-446,109	34,593	0,143	-0,091
-445,095	-91,083	0,117	-0,024
-444,080	800,000	-0,038	0,085
-443,065	800,000	-0,079	0,230
-442,051	-139,006	0,012	0,001
-441,036	800,000	-0,034	-0,103
-440,022	-60,457	0,087	0,027
-439,007	359,978	0,033	0,048
-437,992	-63,571	-0,021	-0,006
-436,978	-129,184	-0,111	-0,011
-435,963	800,000	0,021	0,066
-434,949	-93,258	-0,085	-0,017
-433,934	295,392	-0,083	0,111
-432,919	800,000	-0,026	0,062
-431,905	-64,621	0,090	0,026
-430,890	-142,710	0,040	0,003
-429,876	-200,000	-0,022	0,083
-428,861	424,218	0,086	0,135
-427,846	510,018	0,026	0,044
-426,832	1,966	-0,087	-0,045
-425,817	-63,601	0,032	0,009
-424,803	-200,000	-0,020	-0,165
-423,788	55,584	0,160	0,113
-422,773	21,460	0,088	0,052
-421,759	800,000	-0,021	0,047
-420,744	115,528	-0,115	-0,102
-419,730	14,736	-0,050	-0,028
-418,715	-99,578	0,207	0,037
-417,701	-151,819	0,112	-0,006
-416,686	-18,635	0,121	-0,055
-415,671	-195,628	-0,117	0,001
-414,657	398,031	-0,010	-0,016
-413,642	-67,288	0,118	-0,034
-412,628	143,214	-0,030	0,029
-411,613	-200,000	0,046	-0,210
-410,598	-193,318	0,075	-0,000
-409,584	64,200	-0,013	0,009
-408,569	-200,000	0,013	0,185
-407,555	-126,383	-0,053	0,006
-406,540	800,000	0,039	0,079
-405,525	80,185	-0,038	-0,030
-404,511	-96,767	-0,224	-0,042
-403,496	-200,000	-0,001	0,009
-402,482	555,211	-0,073	-0,129
-401,467	-138,387	0,036	0,003
-400,452	226,969	0,065	0,077
-399,438	800,000	0,047	0,124
-398,423	80,247	-0,068	-0,053
-397,409	800,000	-0,042	0,092
-396,394	800,000	-0,053	-0,137
-395,379	22,812	-0,030	-0,018
-394,365	68,216	0,059	-0,044
-393,350	-200,000	-0,037	0,152
-392,336	800,000	0,039	0,087
-391,321	-39,664	-0,228	-0,086
-390,306	800,000	-0,018	0,044
-389,292	-200,000	0,009	-0,054
-388,277	-19,466	-0,101	-0,045
-387,263	-2,703	0,033	0,017
-386,248	-29,382	-0,055	-0,023
-385,233	178,909	0,150	0,160
-384,219	-0,045	-0,058	0,030
-383,204	-200,000	-0,024	-0,159
-382,190	342,779	-0,044	0,063
-381,175	-200,000	0,021	-0,143
-380,160	-117,689	-0,095	-0,012
-379,146	97,888	0,043	0,036
-378,131	272,487	0,023	0,030
-377,117	-21,918	-0,058	-0,025
-376,102	46,971	-0,020	0,013
-375,088	-200,000	0,006	0,051
-374,073	-105,443	0,147	-0,024
-373,058	48,806	0,132	0,090
-372,044	-200,000	0,001	0,051
-371,029	-155,948	0,094	-0,004
-370,015	-200,000	-0,033	0,146
-369,000	534,904	-0,094	-0,163
-367,985	800,000	-0,074	-0,158
-366,971	-48,636	0,020	0,007
-365,956	-71,235	-0,150	0,041
-364,942	-68,520	-0,104	-0,029
-363,927	-21,125	0,057	-0,025
-362,912	475,622	0,047	-0,077
-361,898	571,791	-0,016	-0,028
-360,883	192,562	0,029	0,032
-359,869	458,828	-0,039	0,064
-358,854	800,000	0,067	-0,143
-357,839	800,000	0,052	0,158
-356,825	112,694	-0,035	0,031
-355,810	607,354	-0,025	-0,046
-354,796	72,813	-0,029	-0,022
-353,781	767,694	-0,038	-0,075
-352,766	800,000	-0,037	0,107
-351,752	125,816	-0,030	-0,028
-350,737	39,254	0,103	0,067
-349,723	-200,000	0,048	0,187
-348,708	-186,778	-0,092	-0,001
-347,693	714,764	0,029	-0,056
-346,679	432,218	-0,049	0,078
-345,664	789,498	-0,085	-0,171
-344,650	800,000	-0,041	-0,085
-343,635	144,670	0,111	0,108
-342,620	348,200	0,043	-0,062
-341,606	369,196	0,054	0,079
-340,591	47,144	-0,035	-0,024
-339,577	739,796	0,051	0,100
-338,562	10,473	-0,048	0,026
-337,548	57,781	0,063	0,044
-336,533	-200,000	0,039	0,133
-335,518	85,780	-0,041	-0,032
-334,504	366,221	-0,014	0,021
-333,489	505,742	0,079	-0,133
-332,475	795,888	-0,037	0,073
-331,460	-200,000	-0,029	0,117
-330,445	325,186	-0,022	-0,030
-329,431	-115,929	0,104	-0,014
-328,416	405,692	0,056	-0,085
-327,402	-200,000	-0,002	0,018
-326,387	800,000	-0,019	-0,054
-325,372	-200,000	-0,005	-0,242
-324,358	-200,000	0,019	-0,143
-323,343	800,000	0,062	-0,166
-322,329	-145,008	0,034	-0,002
-321,314	-115,076	-0,095	-0,013
-320,299	44,548	0,107	-0,071
-319,285	697,429	-0,052	-0,100
-318,270	-167,332	-0,149	0,004
-317,256	-135,579	0,162	-0,014
-316,241	-148,859	-0,108	-0,006
-315,226	506,058	0,065	0,109
-314,212	-14,755	0,074	-0,034
-313,197	-156,718	-0,150	-0,007
-312,183	81,120	-0,064	0,050
-311,168	-200,000	0,001	0,075
-310,153	172,572	0,050	-0,052
-309,139	800,000	-0,049	-0,122
-308,124	-147,930	0,083	-0,005
-307,110	800,000	0,010	-0,028
-306,095	282,551	0,039	0,051
-305,080	-90,743	0,101	-0,021
-304,066	154,647	0,015	-0,015
-303,051	27,031	-0,145	-0,088
-302,037	249,945	-0,031	0,038
-301,022	-200,000	0,008	0,038
-300,008	184,201	0,112	0,120
-298,993	582,940	0,065	0,115
-297,978	-140,032	-0,032	0,002
-296,964	421,519	-0,046	0,072
-295,949	800,000	0,042	-0,090
-294,935	4,108	-0,115	-0,060
-293,920	319,489	-0,034	-0,047
-292,905	-135,643	0,165	0,014
-291,891	212,648	0,054	0,061
-290,876	-200,000	0,004	0,020
-289,862	-200,000	0,013	0,069
-288,847	-10,277	-0,136	-0,065
-287,832	-200,000	0,015	-0,059
-286,818	13,314	0,108	-0,060
-285,803	-200,000	0,006	0,178
-284,789	-200,000	-0,024	-0,116
-283,774	-200,000	0,003	-0,075
-282,759	-200,000	0,035	-0,156
-281,745	-64,538	-0,035	-0,010
-280,730	-131,951	0,041	0,004
-279,716	-200,000	0,004	0,067
-278,701	-200,000	-0,023	0,078
-277,686	122,708	-0,066	-0,060
-276,672	-200,000	-0,002	0,261
-275,657	-144,570	0,142	-0,009
-274,643	-159,052	0,003	-0,000
-273,628	-20,919	-0,116	-0,051
-272,613	-161,762	-0,053	0,002
-271,599	401,335	-0,036	0,055
-270,584	-20,563	0,123	0,054
-269,570	-29,245	0,114	0,047
-268,555	800,000	-0,008	0,017
-267,540	94,737	-0,085	0,070
-266,526	166,372	-0,033	-0,034
-265,511	193,981	0,170	-0,186
-264,497	93,062	-0,079	0,065
-263,482	222,103	0,043	-0,050
-262,467	88,784	0,140	0,112
-261,453	-128,388	-0,052	-0,005
-260,438	202,180	-0,080	-0,089
-259,424	-39,180	-0,058	0,022
-258,409	-5,042	-0,041	-0,020
-257,395	-200,000	0,026	-0,103
-256,380	555,434	-0,040	-0,070
-255,365	-200,000	-0,016	0,095
-254,351	800,000	0,025	0,067
-253,336	-32,069	-0,099	0,040
-252,322	-200,000	0,003	-0,085
-251,307	800,000	0,017	-0,037
-250,292	-109,519	0,029	-0,004
-249,278	70,305	0,090	0,067
-248,263	-200,000	-0,023	0,136
-247,249	-200,000	0,004	-0,098
-246,234	-12,192	0,087	0,041
-245,219	91,814	-0,098	-0,080
-244,205	800,000	0,019	-0,055
-243,190	64,886	0,055	-0,040
-242,176	-11,771	-0,085	-0,040
-241,161	-200,000	-0,038	0,236
-240,146	-121,676	0,072	-0,009
-239,132	-0,437	-0,093	-0,047
-238,117	-200,000	-0,015	-0,088
-237,103	99,929	0,046	-0,039
-236,088	564,699	-0,049	-0,086
-235,073	-122,096	0,114	-0,013
-234,059	-147,795	0,125	0,007
-233,044	800,000	-0,005	0,012
-232,030	-42,341	0,134	0,049
-231,015	-200,000	-0,001	-0,100
-230,000	-33,184	0,183	-0,073
-228,986	-105,408	-0,052	0,008
-227,971	46,010	0,048	0,032
-226,957	-200,000	-0,013	0,134
-225,942	717,059	-0,071	0,136
-224,927	397,788	0,039	0,059
-223,913	800,000	-0,023	0,046
-222,898	167,118	-0,089	0,092
-221,884	-200,000	0,010	-0,091
-220,869	280,274	-0,039	-0,050
-219,855	49,353	0,058	-0,040
-218,840	-132,432	-0,078	0,007
-217,825	15,179	0,064	0,036
-216,811	-97,761	-0,059	-0,011
-215,796	123,307	-0,039	0,036
-214,782	-200,000	0,005	-0,027
-213,767	77,932	0,051	0,039
-212,752	800,000	0,040	0,086
-211,738	800,000	0,044	0,134
-210,723	-200,000	0,002	-0,128
-209,709	800,000	-0,034	-0,099
-208,694	-59,645	-0,021	-0,006
-207,679	-25,766	-0,023	-0,010
-206,665	-19,992	0,055	0,025
-205,650	37,770	-0,108	0,069
-204,636	-77,178	0,092	0,023
-203,621	800,000	0,074	-0,151
-202,606	40,045	-0,020	-0,013
-201,592	800,000	0,044	-0,116
-200,577	-23,072	-0,130	0,056
-199,563	161,144	0,060	0,060
-198,548	-23,972	-0,110	0,047
-197,533	800,000	-0,001	-0,002
-196,519	-200,000	-0,009	-0,144
-195,504	-200,000	-0,002	-0,008
-194,490	-74,575	-0,089	-0,023
-193,475	4,172	0,057	-0,030
-192,460	-200,000	-0,010	-0,125
-191,446	375,433	0,042	-0,061
-190,431	-200,000	0,002	0,154
-189,417	409,023	-0,053	0,081
-188,402	-24,762	-0,069	-0,029
-187,387	41,913	0,027	-0,018
-186,373	53,840	0,075	-0,052
-185,358	70,387	0,073	0,055
-184,344	109,725	0,095	-0,082
-183,329	-200,000	-0,016	0,129
-182,315	-200,000	0,018	0,069
-181,300	-33,342	-0,063	-0,025
-180,285	101,260	0,082	-0,069
-179,271	732,119	0,067	-0,130
-178,256	13,805	-0,043	0,024
-177,242	78,349	-0,078	0,060
-176,227	49,053	0,037	0,025
-175,212	-6,122	-0,129	-0,063
-174,198	279,027	-0,011	-0,014
-173,183	-200,000	0,013	-0,043
-172,169	-200,000	0,002	-0,052
-171,154	388,470	-0,103	-0,154
-170,139	800,000	0,032	0,075
-169,125	58,561	0,055	0,039
-168,110	-60,416	0,057	0,017
-167,096	-200,000	0,007	0,022
-166,081	-200,000	0,039	0,232
-165,066	299,317	-0,018	0,024
-164,052	74,612	-0,055	-0,042
-163,037	-65,731	0,032	0,009
-162,023	372,163	-0,092	0,134
-161,008	83,525	0,097	0,076
-159,993	-122,647	-0,068	0,008
-158,979	151,220	-0,092	-0,090
-157,964	217,359	-0,104	0,119
-156,950	-33,239	0,099	0,039
-155,935	244,837	0,068	0,083
-154,920	253,112	-0,013	-0,017
-153,906	-200,000	0,001	0,154
-152,891	-32,064	0,074	0,030
-151,877	-200,000	-0,023	-0,159
-150,862	34,213	-0,192	-0,120
-149,847	-122,366	-0,073	-0,008
-148,833	397,923	-0,044	0,067
-147,818	-200,000	-0,051	-0,163
-146,804	283,523	-0,071	-0,092
-145,789	626,081	0,046	0,084
-144,775	-200,000	-0,015	-0,116
-143,760	800,000	-0,036	-0,099
-142,745	-200,000	-0,002	-0,263
-141,731	800,000	0,050	-0,137
-140,716	-62,874	0,124	0,037
-139,702	312,328	-0,002	-0,003
-138,687	800,000	-0,053	0,121
-137,672	-200,000	0,015	0,120
-136,658	194,462	-0,078	-0,085
-135,643	165,245	0,113	-0,115
-134,629	59,765	0,082	0,058
-133,614	800,000	-0,017	-0,037
-132,599	60,162	-0,107	-0,076
-131,585	-200,000	-0,020	0,069
-130,570	-72,254	0,066	0,018
-129,556	-200,000	-0,012	-0,109
-128,541	126,991	0,053	-0,049
-127,526	-200,000	0,004	-0,043
-126,512	543,379	0,021	-0,037
-125,497	800,000	0,063	-0,176
-124,483	43,491	-0,091	0,060
-123,468	98,228	0,080	-0,066
-122,453	25,823	0,038	-0,023
-121,439	283,491	-0,041	-0,054
-120,424	67,040	0,025	-0,018
-119,410	800,000	0,028	-0,067
-118,395	60,283	-0,090	-0,064
-117,380	-0,039	0,122	-0,062
-116,366	-74,591	0,064	-0,016
-115,351	96,677	-0,047	-0,039
-114,337	214,721	0,115	-0,131
-113,322	323,449	-0,107	0,147
-112,307	-200,000	0,055	0,193
-111,293	0,751	0,075	0,038
-110,278	-165,781	0,104	-0,003
-109,264	-81,059	-0,141	0,033
-108,249	-200,000	0,001	0,057
-107,234	239,610	0,091	-0,110
-106,220	-57,445	-0,030	0,009
-105,205	-200,000	-0,016	-0,078
-104,191	-58,988	-0,116	0,036
-103,176	-59,241	0,133	-0,041
-102,162	-69,410	-0,157	-0,043
-101,147	-200,000	0,016	-0,083
-100,132	25,086	-0,141	-0,084
-99,118	-142,658	-0,021	0,001
-98,103	-55,521	-0,061	0,019
-97,089	148,379	0,113	0,110
-96,074	161,774	-0,013	-0,013
-95,059	800,000	-0,044	-0,127
-94,045	-200,000	0,017	-0,080
-93,030	364,173	-0,038	-0,054
-92,016	-200,000	-0,021	-0,162
-91,001	-81,548	0,119	0,028
-89,986	-123,923	0,034	0,004
-88,972	-116,907	-0,078	0,010
-87,957	327,497	0,063	0,086
-86,943	-95,004	0,121	0,023
-85,928	-200,000	0,003	0,077
-84,913	-200,000	-0,017	-0,098
-83,899	-200,000	-0,017	-0,113
-82,884	257,145	-0,079	0,098
-81,870	-200,000	-0,035	0,158
-80,855	199,684	0,057	0,063
-79,840	361,363	-0,043	-0,062
-78,826	128,864	-0,075	-0,069
-77,811	800,000	-0,055	-0,126
-76,797	-200,000	-0,006	0,041
-75,782	-200,000	0,004	0,013
-74,767	-200,000	0,009	0,050
-73,753	-170,459	-0,078	0,002
-72,738	-74,196	-0,075	-0,019
-71,724	-3,681	0,059	0,030
-70,709	-200,000	-0,043	-0,138
-69,694	-200,000	0,001	0,028
-68,680	-118,418	0,039	0,005
-67,665	155,870	-0,062	0,061
-66,651	-47,634	0,109	0,038
-65,636	800,000	0,047	0,093
-64,622	-200,000	-0,012	-0,043
-63,607	6,365	-0,033	0,017
-62,592	-54,087	-0,125	-0,041
-61,578	-144,763	0,068	0,004
-60,563	220,990	-0,062	0,072
-59,549	326,433	-0,071	0,098
-58,534	80,736	-2,896	-2,239
-57,519	-17,990	0,678	-0,304
-56,505	-200,000	-1,668	-5,668
-55,490	452,863	1,306	2,080
-54,476	800,000	5,223	11,291
-53,461	-200,000	22,828	348,219
-52,446	800,000	764,499	2268,279
-51,432	499,313	1643,866	2728,431
-50,417	93,574	1601,507	1300,300
-49,403	61,414	1257,251	895,559
-48,388	21,399	1009,015	586,840
-47,373	18,584	976,635	558,773
-46,359	11,999	963,866	530,082
-45,344	7,865	960,565	514,814
-44,330	8,169	958,513	514,682
-43,315	7,326	956,502	510,848
-42,300	7,248	955,503	510,041
-41,286	7,294	954,516	509,645
-40,271	7,243	953,719	509,032
-39,257	7,217	952,717	508,396
-38,242	7,223	951,930	507,975
-37,227	7,262	950,928	507,544
-36,213	7,217	950,130	506,953
-35,198	7,231	949,334	506,553
-34,184	7,323	948,599	506,438
-33,169	7,222	947,660	505,590
-32,154	7,321	946,735	505,395
-31,140	7,275	945,969	504,820
-30,125	7,287	945,299	504,481
-29,111	7,279	944,341	503,923
-28,096	7,329	943,786	503,769
-27,082	7,272	943,210	503,257
-26,067	7,205	942,624	502,710
-25,052	7,220	941,536	502,158
-24,038	7,204	940,950	501,776
-23,023	7,160	940,410	501,327
-22,009	7,325	939,390	501,287
-20,994	7,260	938,939	500,821
-19,979	7,265	938,552	500,611
-18,965	7,225	937,979	500,159
-17,950	7,206	937,291	499,712
-16,936	7,204	936,550	499,289
-15,921	7,169	935,982	498,855
-14,906	7,168	935,100	498,363
-13,892	7,112	934,720	497,965
-12,877	7,176	933,962	497,742
-11,863	7,080	933,485	497,166
-10,848	7,069	932,843	496,768
-9,833	7,230	932,322	496,980
-8,819	7,170	931,647	496,412
-7,804	7,150	930,922	495,943
-6,790	7,153	930,572	495,746
-5,775	7,155	930,022	495,438
-4,760	7,222	929,339	495,266
-3,746	7,111	928,698	494,557
-2,731	6,995	928,090	493,848
-1,717	6,950	927,508	493,377
-0,702	6,926	926,973	492,996
0,313	6,812	926,082	492,910
1,327	10,235	923,722	502,314
2,342	18,724	772,280	441,997
3,356	13,721	443,117	246,134
4,371	-12,353	309,608	144,501
5,386	-16,149	292,252	132,586
6,400	-18,175	286,052	127,775
7,415	-18,233	283,406	126,525
8,429	-18,876	281,656	125,111
9,444	-19,057	280,875	124,579
10,459	-18,962	280,301	124,405
11,473	-18,861	279,722	124,233
12,488	-18,937	279,157	123,898
13,502	-19,007	278,728	123,630
14,517	-18,814	278,266	123,599
15,531	-18,663	277,794	123,522
16,546	-18,697	277,517	123,355
17,561	-18,767	277,142	123,111
18,575	-18,722	276,737	122,963
19,590	-18,880	276,484	122,690
20,604	-18,635	276,175	122,774
21,619	-18,781	275,752	122,437
22,634	-18,681	275,333	122,334
23,648	-18,672	275,064	122,212
24,663	-18,828	274,882	121,973
25,677	-18,848	274,696	121,862
26,692	-18,742	274,316	121,781
27,707	-18,627	274,014	121,744
28,721	-18,463	273,667	121,732
29,736	-18,645	273,559	121,503
30,750	-18,513	273,213	121,462
31,765	-18,742	273,079	121,178
32,780	-18,625	272,741	121,127
33,794	-18,596	272,493	121,033
34,809	-18,706	272,139	120,762
35,823	-18,712	271,983	120,677
36,838	-18,803	271,864	120,529
37,853	-18,852	271,439	120,283
38,867	-18,702	271,263	120,334
39,882	-18,607	271,018	120,303
40,896	-18,713	270,787	120,092
41,911	-18,587	270,433	120,040
42,926	-18,722	270,430	119,903
43,940	-18,725	270,023	119,710
44,955	-18,549	269,784	119,755
45,969	-18,773	269,611	119,461
46,984	-18,575	269,473	119,572
47,999	-18,453	269,139	119,525
49,013	-18,542	268,945	119,346
50,028	-18,522	268,786	119,284
51,042	-18,636	268,585	119,079
52,057	-18,360	268,246	119,171
53,071	-18,592	268,104	118,885
54,086	-18,397	267,803	118,919
55,101	-18,577	267,710	118,703
56,115	-18,708	267,379	118,426
57,130	-18,722	267,217	118,331
58,144	-18,619	266,841	118,247
59,159	-18,676	266,524	118,045
60,174	-18,528	266,346	118,090
61,188	-18,613	266,072	117,880
62,203	-18,724	265,900	117,693
63,217	-18,394	265,601	117,850
64,232	-18,680	265,554	117,559
65,247	-18,684	265,169	117,375
66,261	-18,687	265,056	117,311
67,276	-18,523	264,743	117,310
68,290	-18,575	264,770	117,265
69,305	-18,578	264,464	117,116
70,320	-18,486	264,129	117,040
71,334	-18,675	263,967	116,788
72,349	-18,750	263,722	116,602
73,363	-18,691	263,352	116,481
74,378	-18,775	263,160	116,309
75,393	-18,506	262,768	116,367
76,407	-18,534	262,820	116,355
77,422	-18,632	262,540	116,133
78,436	-18,682	262,341	115,990
79,451	-18,723	262,036	115,808
80,466	-18,606	261,790	115,794
81,480	-18,616	261,662	115,718
82,495	-18,502	261,308	115,652
83,509	-18,429	261,217	115,666
84,524	-18,505	261,086	115,530
85,539	-18,736	260,981	115,269
86,553	-18,386	260,643	115,419
87,568	-18,573	260,484	115,173
88,582	-18,530	260,122	115,041
89,597	-18,589	259,849	114,857
90,611	-18,620	259,858	114,824
91,626	-18,551	259,739	114,822
92,641	-18,472	259,365	114,716
93,655	-18,498	259,100	114,566
94,670	-18,497	258,901	114,469
95,684	-18,616	258,749	114,287
96,699	-18,551	258,500	114,223
97,714	-18,195	258,233	114,408
98,728	-18,503	258,139	114,086
99,743	-18,544	257,869	113,920
100,757	-18,511	257,749	113,886
101,772	-18,545	257,456	113,716
102,787	-18,322	257,208	113,792
103,801	-18,431	257,115	113,646
104,816	-18,478	257,029	113,556
105,830	-18,640	256,883	113,340
106,845	-18,537	256,559	113,277
107,860	-18,378	256,320	113,300
108,874	-18,739	256,070	112,865
109,889	-18,589	255,882	112,902
110,903	-18,628	255,668	112,764
111,918	-18,694	255,421	112,588
112,933	-18,559	255,418	112,694
113,947	-18,298	255,054	112,749
114,962	-18,594	254,935	112,430
115,976	-18,649	254,668	112,255
116,991	-18,727	254,470	112,090
118,006	-18,482	254,265	112,201
119,020	-18,482	254,026	112,085
120,035	-18,348	253,917	112,143
121,049	-18,510	253,887	111,980
122,064	-18,571	253,586	111,785
123,079	-18,550	253,533	111,770
124,093	-18,656	253,244	111,541
125,108	-18,489	252,974	111,556
126,122	-18,381	252,801	111,562
127,137	-18,335	252,704	111,549
128,151	-18,275	252,476	111,490
129,166	-18,496	252,262	111,197
130,181	-18,459	252,174	111,179
131,195	-18,479	251,614	110,905
132,210	-18,410	251,606	110,951
133,224	-18,400	251,268	110,800
134,239	-18,418	251,109	110,705
135,254	-18,565	251,101	110,567
136,268	-18,500	250,728	110,447
137,283	-18,408	250,527	110,427
138,297	-18,444	250,510	110,379
139,312	-18,374	250,252	110,315
140,327	-18,580	249,892	109,973
141,341	-18,464	249,715	109,983
142,356	-18,539	249,604	109,861
143,370	-18,547	249,264	109,694
144,385	-18,516	249,171	109,670
145,400	-18,445	248,999	109,645
146,414	-18,583	248,837	109,446
147,429	-18,591	248,647	109,347
148,443	-18,610	248,496	109,255
149,458	-18,207	248,132	109,424
150,473	-18,578	248,068	109,074
151,487	-18,390	247,705	109,062
152,502	-18,627	247,939	108,956
153,516	-18,321	247,459	108,992
154,531	-18,457	247,299	108,798
155,546	-18,394	247,083	108,746
156,560	-18,539	247,000	108,578
157,575	-18,455	246,732	108,521
158,589	-18,567	246,578	108,350
159,604	-18,592	246,358	108,223
160,619	-18,648	246,140	108,071
161,633	-18,660	246,188	108,073
162,648	-18,417	245,828	108,107
163,662	-18,498	245,664	107,958
164,677	-18,789	245,672	107,710
165,692	-18,510	245,424	107,823
166,706	-18,413	245,294	107,837
167,721	-18,537	244,922	107,562
168,735	-18,458	244,808	107,567
169,750	-18,430	244,592	107,486
170,764	-18,746	244,648	107,239
171,779	-18,392	244,381	107,405
172,794	-18,363	244,219	107,348
173,808	-18,561	244,080	107,115
174,823	-18,342	243,817	107,170
175,837	-18,253	243,708	107,185
176,852	-18,471	243,554	106,929
177,867	-18,529	243,343	106,779
178,881	-18,408	243,158	106,788
179,896	-18,417	242,981	106,694
180,910	-18,440	242,742	106,560
181,925	-18,611	242,678	106,382
182,940	-18,453	242,394	106,377
183,954	-18,487	242,286	106,293
184,969	-18,630	242,280	106,163
185,983	-18,619	242,004	106,043
186,998	-18,379	241,776	106,129
188,013	-18,349	241,542	106,041
189,027	-18,414	241,368	105,902
190,042	-18,631	241,229	105,655
191,056	-18,587	241,023	105,591
192,071	-18,679	240,822	105,419
193,086	-18,565	240,699	105,449
194,100	-18,554	240,379	105,308
195,115	-18,584	240,396	105,281
196,129	-18,641	240,130	105,109
197,144	-18,509	239,981	105,142
198,159	-18,560	239,710	104,972
199,173	-18,471	239,630	105,000
200,188	-18,564	239,276	104,760
201,202	-18,494	239,352	104,841
202,217	-18,383	238,998	104,765
203,232	-18,319	238,895	104,763
204,246	-18,444	238,649	104,545
205,261	-18,527	238,314	104,322
206,275	-16,949	238,949	105,861
207,290	-12,661	240,713	110,109
208,304	-5,992	242,671	116,434
209,319	-2,122	243,703	120,080
210,334	-0,984	243,891	121,091
211,348	-0,163	243,856	121,732
212,363	0,026	244,037	121,965
213,377	0,309	243,841	122,088
214,392	0,412	243,904	122,192
215,407	0,950	243,743	122,539
216,421	1,050	243,669	122,572
217,436	1,259	243,462	122,627
218,450	1,345	243,306	122,607
219,465	1,179	243,207	122,412
220,480	1,175	243,046	122,317
221,494	1,005	242,905	122,097
222,509	0,751	242,674	121,764
223,523	0,457	242,411	121,383
224,538	0,450	242,216	121,269
225,553	0,595	241,841	121,188
226,567	0,394	241,872	121,030
227,582	0,416	241,636	120,918
228,596	0,458	241,582	120,915
229,611	0,407	241,574	120,859
230,626	0,580	241,242	120,821
231,640	0,366	241,108	120,572
232,655	0,352	240,774	120,383
233,669	0,381	240,678	120,347
234,684	0,660	240,484	120,463
235,699	0,461	240,505	120,303
236,713	0,268	240,271	120,021
237,728	0,463	240,059	120,060
238,742	0,321	239,764	119,788
239,757	0,485	239,717	119,885
240,772	0,560	239,610	119,881
241,786	0,672	239,474	119,892
242,801	0,531	239,240	119,651
243,815	0,605	238,983	119,571
244,830	0,520	238,951	119,477
245,844	0,541	238,773	119,394
246,859	0,323	238,763	119,204
247,874	0,624	238,550	119,327
248,888	0,510	238,316	119,108
249,903	0,642	238,182	119,136
250,917	0,523	238,100	118,990
251,932	0,490	237,927	118,867
252,947	0,552	237,782	118,833
253,961	0,543	237,628	118,738
254,976	0,508	237,363	118,567
255,990	0,411	237,330	118,464
257,005	0,367	237,237	118,372
258,020	0,612	236,876	118,375
259,034	0,528	236,790	118,255
260,049	0,734	236,599	118,311
261,063	0,389	236,467	117,963
262,078	0,635	236,373	118,099
263,093	0,677	236,167	118,018
264,107	0,566	235,980	117,827
265,122	0,491	235,836	117,686
266,136	0,377	235,842	117,589
267,151	0,440	235,635	117,525
268,166	0,524	235,504	117,515
269,180	0,201	235,305	117,153
270,195	0,310	235,213	117,181
271,209	0,569	235,035	117,284
272,224	0,441	234,813	117,064
273,239	0,523	234,568	116,995
274,253	0,564	234,478	116,971
275,268	0,492	234,418	116,875
276,282	0,648	234,161	116,858
277,297	0,428	234,023	116,608
278,312	0,613	233,942	116,701
279,326	0,349	233,861	116,445
280,341	0,472	233,702	116,451
281,355	0,592	233,539	116,452
282,370	0,612	233,398	116,387
283,384	0,642	233,169	116,286
284,399	0,644	233,052	116,218
285,414	0,380	232,990	115,972
286,428	0,749	232,615	116,061
287,443	0,592	232,657	115,950
288,457	0,805	232,400	115,976
289,472	0,670	232,264	115,793
290,487	0,652	232,191	115,733
291,501	0,726	231,999	115,684
292,516	0,820	231,656	115,575
293,530	0,521	231,747	115,380
294,545	0,584	231,660	115,375
295,560	0,634	231,320	115,233
296,574	0,570	231,410	115,219
297,589	0,577	231,273	115,146
298,603	0,629	230,838	114,959
299,618	0,632	230,958	115,010
300,633	0,610	230,896	114,953
301,647	0,907	230,648	115,046
302,662	0,796	230,484	114,869
303,676	0,601	230,302	114,620
304,691	0,598	230,195	114,554
305,706	0,668	230,056	114,528
306,720	0,602	229,884	114,382
307,735	0,737	229,647	114,356
308,749	1,031	229,422	114,458
309,764	0,682	229,517	114,229
310,779	0,720	229,298	114,139
311,793	0,773	229,035	114,038
312,808	1,005	228,758	114,066
313,822	0,940	228,727	113,991
314,837	0,806	228,660	113,846
315,852	0,890	228,384	113,762
316,866	0,856	228,395	113,732
317,881	0,861	228,260	113,658
318,895	0,902	228,075	113,586
319,910	1,101	227,829	113,604
320,925	0,743	227,876	113,347
321,939	0,740	227,694	113,244
322,954	0,944	227,469	113,276
323,968	0,683	227,488	113,079
324,983	0,859	227,250	113,083
325,997	0,645	227,090	112,832
327,012	0,821	226,888	112,854
328,027	0,781	226,900	112,820
329,041	0,989	226,738	112,885
330,056	0,810	226,564	112,654
331,070	0,717	226,416	112,501
332,085	0,937	226,064	112,481
333,100	0,790	225,975	112,316
334,114	0,985	225,824	112,377
335,129	0,739	225,742	112,143
336,143	0,754	225,644	112,095
337,158	0,691	225,520	111,977
338,173	0,947	225,224	112,010
339,187	1,077	225,255	112,112
340,202	1,041	225,113	112,005
341,216	0,891	224,935	111,795
342,231	0,880	224,703	111,662
343,246	0,849	224,716	111,635
344,260	0,985	224,527	111,632
345,275	1,052	224,395	111,606
346,289	1,241	224,167	111,622
347,304	1,119	224,083	111,481
348,319	1,016	223,900	111,303
349,333	0,782	223,712	111,027
350,348	1,029	223,637	111,162
351,362	0,803	223,656	110,995
352,377	1,064	223,375	111,039
353,392	0,862	223,311	110,847
354,406	0,972	223,056	110,792
355,421	192,709	1311,605	1378,369
356,435	154,313	1444,067	1378,194
