DTS Sentinel unit serial number:	SN410029Multiplexer serial number:	ORYXHardware model number:	OX2-SRSoftware version number:	ORYX F/W v4,00 Oryx Data Collector v3.7.2.0data status	okinstallation	B5 Nyhavnadifferential loss correction	single-endedforward channel	channel 2reverse channel	N/Adate	2023/12/12time	09:47:13forward acquisition time	300,00reverse acquisition time	0,00gamma	499,1914k internal	0,3158k external	0,3158temperature offset calibration	1,0000default loss term (dB/km)	0,3820temperature slope calibration	1,0000multiplexer offset coefficient	1,0000multiplexer slope coefficient	1,0000fibre end	0,00T internal ref (°C)	15,00T ext. ref 1 (°C)	-1,29T ext. ref 2 (°C)	-1,60length (m)	temperature (°C)	Stokes	anti-Stokes-744,400	-200,000	0,014	0,054
-743,385	3,077	-0,180	0,096
-742,371	800,000	-0,023	0,052
-741,356	23,754	-0,217	-0,131
-740,342	417,209	0,066	-0,104
-739,327	-71,521	-0,272	-0,074
-738,312	-94,349	0,142	0,028
-737,298	-182,228	-0,340	0,005
-736,283	-29,789	0,178	0,074
-735,269	-104,363	-0,197	-0,033
-734,254	-69,623	-0,016	0,005
-733,239	-12,678	-0,616	-0,295
-732,225	250,264	0,138	0,173
-731,210	254,510	0,044	0,056
-730,196	-123,786	-0,107	0,012
-729,181	654,623	0,050	0,095
-728,167	105,460	-0,141	-0,122
-727,152	-57,945	-0,191	0,061
-726,137	642,527	-0,059	-0,112
-725,123	187,540	-0,028	-0,031
-724,108	311,656	0,051	-0,070
-723,094	278,323	-0,070	-0,092
-722,079	-21,371	-0,135	-0,060
-721,064	-200,000	-0,011	0,111
-720,050	-200,000	0,004	0,119
-719,035	-58,710	-0,071	-0,023
-718,021	253,674	0,131	-0,165
-717,006	800,000	-0,053	-0,157
-715,991	-200,000	-0,001	-0,014
-714,977	-42,519	-0,099	0,037
-713,962	83,493	0,032	0,026
-712,948	738,663	-0,092	0,183
-711,933	398,999	-0,059	0,091
-710,918	-28,138	0,088	-0,037
-709,904	800,000	-0,040	-0,127
-708,889	-30,470	0,100	-0,041
-707,875	490,571	-0,083	-0,141
-706,860	-90,157	-0,137	0,029
-705,845	369,238	-0,064	0,095
-704,831	360,374	0,069	0,101
-703,816	179,891	0,084	0,091
-702,802	-200,000	0,003	-0,011
-701,787	377,822	-0,030	0,045
-700,772	93,553	0,087	0,073
-699,758	-137,292	0,116	-0,010
-698,743	800,000	-0,028	0,061
-697,729	-82,690	-0,085	0,020
-696,714	-128,427	0,098	0,010
-695,699	40,761	0,041	0,027
-694,685	-200,000	-0,010	-0,086
-693,670	428,026	-0,083	0,133
-692,656	-83,767	-0,079	-0,018
-691,641	-36,695	0,031	-0,012
-690,627	-80,592	0,111	-0,027
-689,612	-200,000	-0,016	-0,061
-688,597	800,000	-0,022	-0,064
-687,583	440,195	-0,087	-0,140
-686,568	-200,000	-0,012	0,047
-685,554	117,501	-0,098	-0,088
-684,539	-112,052	0,050	-0,007
-683,524	-200,000	-0,022	0,129
-682,510	48,407	-0,021	-0,014
-681,495	-200,000	0,015	0,052
-680,481	-114,861	-0,087	0,012
-679,466	-200,000	0,006	-0,031
-678,451	-200,000	0,030	-0,106
-677,437	-200,000	0,016	-0,055
-676,422	96,577	-0,101	-0,085
-675,408	-200,000	0,024	-0,261
-674,393	192,638	0,014	0,016
-673,378	-189,833	-0,123	0,001
-672,364	-53,693	-0,098	0,033
-671,349	208,705	-0,047	0,054
-670,335	-200,000	0,009	0,153
-669,320	-173,678	-0,125	-0,003
-668,305	800,000	0,018	0,046
-667,291	-162,126	-0,033	0,001
-666,276	55,561	-0,034	0,024
-665,262	-133,232	-0,185	0,017
-664,247	-200,000	0,038	0,129
-663,232	39,885	-0,111	0,073
-662,218	-84,477	-0,130	-0,030
-661,203	-153,230	-0,015	0,001
-660,189	-5,715	0,124	-0,062
-659,174	-110,629	0,093	0,014
-658,159	800,000	-0,043	-0,133
-657,145	-29,483	-0,071	-0,030
-656,130	320,232	0,089	-0,124
-655,116	-74,506	0,075	0,020
-654,101	403,643	-0,077	0,119
-653,086	14,963	-0,034	0,019
-652,072	4,420	0,056	0,030
-651,057	-200,000	0,009	-0,039
-650,043	-39,304	-0,081	-0,031
-649,028	-200,000	-0,027	0,143
-648,014	-200,000	-0,038	0,158
-646,999	19,838	-0,097	-0,057
-645,984	-138,634	-0,108	0,009
-644,970	-200,000	0,004	-0,018
-643,955	-200,000	-0,012	-0,122
-642,941	-55,544	0,146	0,048
-641,926	51,579	-0,072	-0,050
-640,911	-109,053	0,020	0,003
-639,897	-74,173	0,109	-0,029
-638,882	-200,000	0,012	0,058
-637,868	-200,000	-0,005	-0,082
-636,853	-200,000	0,012	-0,115
-635,838	-16,881	0,027	-0,013
-634,824	800,000	-0,022	-0,048
-633,809	-96,509	0,114	0,022
-632,795	-105,703	0,040	0,007
-631,780	114,422	0,035	0,031
-630,765	800,000	-0,103	0,246
-629,751	141,851	-0,050	0,048
-628,736	-200,000	0,003	0,187
-627,722	-154,619	0,089	-0,004
-626,707	-200,000	-0,003	-0,048
-625,692	274,703	-0,097	0,126
-624,678	-200,000	-0,029	0,158
-623,663	-52,738	-0,066	-0,022
-622,649	695,824	-0,031	-0,060
-621,634	-200,000	0,024	-0,150
-620,619	800,000	-0,016	-0,040
-619,605	-64,364	0,034	0,010
-618,590	-118,112	0,131	-0,017
-617,576	194,659	0,044	0,049
-616,561	-9,436	0,088	0,043
-615,546	-97,899	0,076	-0,014
-614,532	-4,326	-0,065	-0,033
-613,517	-200,000	0,008	0,107
-612,503	-151,093	0,085	-0,005
-611,488	136,447	-0,037	-0,036
-610,474	187,236	0,077	-0,084
-609,459	187,568	0,065	0,071
-608,444	-200,000	0,003	-0,109
-607,430	425,600	-0,067	-0,107
-606,415	176,046	-0,138	-0,148
-605,401	-78,646	0,009	0,002
-604,386	-120,591	-0,063	-0,008
-603,371	15,250	0,129	-0,074
-602,357	105,799	0,115	-0,100
-601,342	9,595	-0,065	0,036
-600,328	-151,732	-0,046	-0,002
-599,313	92,497	-0,089	0,073
-598,298	39,353	0,026	-0,017
-597,284	800,000	0,042	0,104
-596,269	800,000	-0,020	-0,055
-595,255	-90,818	-0,030	-0,006
-594,240	-89,979	-0,011	0,002
-593,225	142,848	-0,095	0,092
-592,211	-28,867	-0,175	0,074
-591,196	-117,288	0,040	0,005
-590,182	-105,704	0,171	0,028
-589,167	-14,517	-0,122	0,057
-588,152	89,335	-0,063	0,051
-587,138	-200,000	-0,004	-0,076
-586,123	-200,000	-0,016	-0,092
-585,109	-200,000	0,015	0,078
-584,094	137,730	-0,048	-0,046
-583,079	-200,000	-0,032	-0,163
-582,065	-33,367	-0,088	0,035
-581,050	800,000	-0,013	0,037
-580,036	8,310	0,044	0,024
-579,021	-200,000	0,013	-0,103
-578,006	-25,575	-0,071	0,031
-576,992	-147,886	0,035	-0,002
-575,977	800,000	-0,027	0,077
-574,963	23,713	0,149	0,089
-573,948	138,122	0,100	-0,096
-572,934	-27,809	0,067	0,028
-571,919	-106,022	-0,048	0,008
-570,904	-113,189	-0,103	-0,015
-569,890	15,699	-0,060	-0,034
-568,875	345,978	0,062	0,090
-567,861	-64,566	0,124	0,037
-566,846	118,703	0,077	0,070
-565,831	145,911	-0,060	-0,059
-564,817	-32,796	-0,088	-0,036
-563,802	-200,000	-0,020	-0,075
-562,788	800,000	-0,071	-0,150
-561,773	360,655	0,070	0,103
-560,758	-45,818	0,016	-0,006
-559,744	524,960	0,157	0,271
-558,729	637,735	-0,025	0,047
-557,715	164,936	0,016	0,016
-556,700	194,562	0,051	-0,056
-555,685	-200,000	0,001	0,114
-554,671	9,786	0,053	0,029
-553,656	237,069	0,099	0,120
-552,642	-146,167	-0,087	0,006
-551,627	-68,282	0,092	-0,026
-550,612	213,601	-0,099	-0,115
-549,598	534,001	-0,079	-0,137
-548,583	-0,095	0,057	-0,029
-547,569	52,044	0,127	-0,088
-546,554	48,217	0,039	0,026
-545,539	-165,006	-0,104	-0,003
-544,525	800,000	0,008	0,018
-543,510	51,564	-0,131	0,091
-542,496	800,000	0,039	-0,106
-541,481	-200,000	0,026	-0,184
-540,466	71,705	0,022	-0,017
-539,452	11,712	-0,083	0,046
-538,437	800,000	0,029	0,074
-537,423	141,105	-0,102	0,099
-536,408	34,131	-0,126	0,080
-535,393	5,612	-0,099	-0,053
-534,379	46,532	-0,019	0,013
-533,364	-200,000	0,018	-0,097
-532,350	-200,000	-0,003	0,035
-531,335	353,639	0,083	-0,121
-530,321	800,000	-0,009	-0,023
-529,306	236,917	-0,039	-0,047
-528,291	800,000	-0,024	0,065
-527,277	800,000	0,022	0,049
-526,262	-200,000	-0,002	-0,060
-525,248	-200,000	-0,018	0,148
-524,233	-0,583	0,070	0,036
-523,218	-15,790	-0,086	0,040
-522,204	800,000	-0,032	0,065
-521,189	-200,000	-0,016	0,131
-520,175	-29,863	-0,038	-0,016
-519,160	445,039	-0,066	0,107
-518,145	-105,765	0,108	0,018
-517,131	29,923	-0,083	0,051
-516,116	800,000	0,014	0,036
-515,102	800,000	-0,009	0,022
-514,087	800,000	0,022	-0,055
-513,072	-8,908	0,078	-0,038
-512,058	-200,000	0,011	-0,094
-511,043	800,000	-0,023	-0,052
-510,029	-54,012	-0,075	0,025
-509,014	-79,959	0,113	0,027
-507,999	107,178	-0,080	0,070
-506,985	56,974	-0,120	-0,085
-505,970	-33,014	0,117	0,047
-504,956	97,351	-0,045	-0,037
-503,941	160,790	-0,046	0,047
-502,926	21,599	0,038	0,023
-501,912	548,997	0,093	0,163
-500,897	800,000	-0,060	-0,128
-499,883	-80,463	-0,103	-0,025
-498,868	-200,000	0,003	-0,088
-497,853	800,000	-0,063	-0,164
-496,839	132,850	-0,049	-0,046
-495,824	800,000	-0,022	-0,048
-494,810	9,956	-0,015	-0,008
-493,795	-200,000	0,001	0,031
-492,781	-200,000	0,001	-0,014
-491,766	154,606	-0,039	-0,040
-490,751	490,934	0,011	0,019
-489,737	-200,000	-0,010	-0,074
-488,722	474,912	0,090	0,148
-487,708	-200,000	-0,014	0,081
-486,693	-200,000	-0,023	-0,090
-485,678	-150,416	-0,113	-0,006
-484,664	-200,000	-0,024	-0,146
-483,649	800,000	-0,028	0,062
-482,635	-85,003	0,066	-0,015
-481,620	800,000	0,027	-0,060
-480,605	-61,404	0,057	-0,017
-479,591	-79,463	-0,029	-0,007
-478,576	50,416	0,021	-0,014
-477,562	-140,662	-0,044	0,003
-476,547	121,344	-0,050	-0,045
-475,532	250,024	0,087	0,107
-474,518	91,297	0,037	0,030
-473,503	168,828	-0,048	-0,050
-472,489	-200,000	0,035	0,120
-471,474	20,720	-0,145	0,086
-470,459	-200,000	-0,001	-0,035
-469,445	-135,456	-0,068	-0,006
-468,430	338,133	-0,044	-0,063
-467,416	-25,095	0,057	-0,025
-466,401	800,000	0,051	0,117
-465,386	329,910	-0,052	-0,073
-464,372	-130,084	-0,098	0,010
-463,357	800,000	-0,023	0,048
-462,343	-200,000	0,006	0,115
-461,328	193,307	-0,029	0,032
-460,313	-124,908	0,114	-0,013
-459,299	-156,183	-0,114	-0,005
-458,284	800,000	0,059	0,132
-457,270	-200,000	-0,014	-0,093
-456,255	284,730	0,041	0,054
-455,241	-37,457	0,090	0,035
-454,226	-26,795	0,098	0,041
-453,211	53,871	0,029	-0,020
-452,197	565,888	0,011	0,019
-451,182	-200,000	-0,016	0,060
-450,168	-2,205	0,057	-0,029
-449,153	-51,317	-0,109	0,037
-448,138	-20,979	-0,071	0,032
-447,124	-200,000	-0,014	-0,105
-446,109	800,000	0,020	0,046
-445,095	194,655	0,036	-0,039
-444,080	24,789	0,068	0,041
-443,065	53,154	0,039	-0,027
-442,051	233,308	-0,072	0,086
-441,036	-103,924	-0,136	-0,023
-440,022	382,562	-0,052	0,078
-439,007	-69,641	-0,169	0,047
-437,992	-32,804	0,060	-0,024
-436,978	-89,812	-0,046	-0,010
-435,963	-32,962	-0,119	-0,048
-434,949	-132,156	-0,106	0,010
-433,934	684,191	0,033	-0,063
-432,919	-102,974	-0,065	0,011
-431,905	-200,000	0,005	0,102
-430,890	-200,000	0,005	0,059
-429,876	110,245	0,059	0,051
-428,861	93,419	0,035	-0,029
-427,846	174,740	-0,063	-0,067
-426,832	51,556	-0,127	0,088
-425,817	414,993	-0,060	-0,093
-424,803	-200,000	0,011	0,077
-423,788	-200,000	-0,014	-0,117
-422,773	-87,118	0,085	-0,019
-421,759	-39,585	0,105	0,040
-420,744	-77,584	-0,038	-0,010
-419,730	418,348	0,045	-0,071
-418,715	-86,533	-0,123	0,027
-417,701	617,903	-0,052	-0,096
-416,686	-200,000	0,018	0,084
-415,671	-200,000	-0,008	0,073
-414,657	-29,570	-0,087	0,036
-413,642	-200,000	0,004	0,069
-412,628	-139,056	0,055	0,004
-411,613	551,956	0,032	-0,055
-410,598	229,182	0,014	-0,017
-409,584	-84,850	0,091	0,021
-408,569	485,973	0,067	-0,111
-407,555	135,053	0,086	-0,082
-406,540	-62,202	-0,039	-0,012
-405,525	800,000	0,016	-0,044
-404,511	-200,000	0,008	0,073
-403,496	575,269	-0,020	-0,036
-402,482	-200,000	-0,013	-0,048
-401,467	111,054	0,125	-0,109
-400,452	32,654	0,161	-0,101
-399,438	119,091	0,089	0,080
-398,423	-200,000	0,008	-0,081
-397,409	611,558	0,045	-0,083
-396,394	-20,614	0,027	-0,012
-395,379	22,647	-0,064	0,038
-394,365	74,339	-0,047	-0,036
-393,350	-107,041	0,097	0,015
-392,336	-43,444	0,093	0,034
-391,321	239,652	0,039	-0,048
-390,306	72,543	0,145	-0,110
-389,292	-77,650	-0,077	-0,019
-388,277	288,928	0,104	-0,138
-387,263	-200,000	0,001	-0,043
-386,248	17,305	0,080	-0,046
-385,233	800,000	0,029	0,064
-384,219	161,080	0,021	-0,022
-383,204	72,347	-0,084	-0,064
-382,190	681,083	0,083	0,159
-381,175	-23,828	0,038	-0,016
-380,160	800,000	-0,033	0,090
-379,146	-10,422	0,067	0,032
-378,131	-68,268	-0,102	0,029
-377,117	800,000	0,021	-0,047
-376,102	-200,000	0,009	0,030
-375,088	-124,658	-0,098	0,011
-374,073	758,876	0,011	-0,021
-373,058	800,000	0,034	0,083
-372,044	800,000	-0,036	0,075
-371,029	-200,000	0,032	0,118
-370,015	-200,000	0,015	0,057
-369,000	45,686	-0,042	0,028
-367,985	365,154	0,031	-0,046
-366,971	-200,000	0,028	-0,092
-365,956	-200,000	0,015	0,077
-364,942	-106,606	0,186	0,030
-363,927	800,000	-0,044	-0,099
-362,912	615,028	-0,042	-0,077
-361,898	-200,000	0,006	-0,022
-360,883	-28,285	-0,125	-0,052
-359,869	-170,476	0,077	-0,002
-358,854	800,000	-0,025	0,057
-357,839	155,698	-0,074	0,074
-356,825	74,263	-0,044	0,034
-355,810	-168,228	0,077	-0,002
-354,796	-169,499	-0,055	0,001
-353,781	85,703	-0,130	-0,103
-352,766	16,897	0,176	-0,101
-351,752	13,625	0,128	0,072
-350,737	391,882	0,089	0,134
-349,723	3,129	0,099	0,052
-348,708	-35,634	0,059	0,023
-347,693	-132,068	0,109	-0,010
-346,679	800,000	0,026	-0,080
-345,664	-139,341	-0,084	-0,006
-344,650	20,411	-0,037	-0,021
-343,635	800,000	0,039	0,107
-342,620	15,963	0,071	0,041
-341,606	-119,218	-0,050	-0,006
-340,591	-118,570	0,143	0,018
-339,577	-200,000	0,008	0,103
-338,562	-200,000	-0,038	0,000
-337,548	4,421	0,071	0,038
-336,533	-55,873	0,167	0,054
-335,518	26,695	0,040	-0,024
-334,504	-0,646	-0,020	0,010
-333,489	-147,994	0,076	-0,005
-332,475	-200,000	0,004	-0,072
-331,460	637,314	-0,022	-0,041
-330,445	76,988	-0,038	0,029
-329,431	-174,786	-0,115	0,002
-328,416	339,171	0,080	-0,114
-327,402	-50,006	0,058	-0,020
-326,387	189,188	-0,101	-0,110
-325,372	-200,000	0,012	-0,084
-324,358	254,025	-0,050	-0,062
-323,343	-23,884	-0,080	-0,034
-322,329	-200,000	0,007	0,058
-321,314	401,983	0,065	-0,099
-320,299	-176,712	0,136	-0,002
-319,285	-32,670	0,090	-0,036
-318,270	-200,000	-0,017	-0,171
-317,256	4,588	-0,072	-0,038
-316,241	-70,196	-0,024	0,007
-315,226	-200,000	-0,003	-0,015
-314,212	-16,206	-0,132	0,061
-313,197	76,928	-0,091	0,070
-312,183	276,778	0,079	0,102
-311,168	-15,241	-0,050	-0,023
-310,153	-200,000	-0,014	0,099
-309,139	-6,736	-0,063	0,031
-308,124	-83,868	0,093	0,021
-307,110	311,179	0,042	-0,057
-306,095	-200,000	-0,015	0,062
-305,080	800,000	0,049	0,106
-304,066	101,767	-0,085	0,072
-303,051	-200,000	-0,042	-0,190
-302,037	-200,000	0,013	0,138
-301,022	-51,727	-0,050	0,017
-300,008	40,123	-0,078	-0,051
-298,993	218,052	0,014	-0,016
-297,978	800,000	0,030	-0,078
-296,964	-200,000	-0,013	0,060
-295,949	-200,000	-0,004	0,050
-294,935	-107,014	0,132	-0,021
-293,920	800,000	-0,048	-0,136
-292,905	-160,613	0,051	-0,002
-291,891	-200,000	0,047	0,161
-290,876	129,760	0,086	-0,080
-289,862	-200,000	0,036	-0,141
-288,847	-200,000	0,019	-0,115
-287,832	193,376	-0,024	-0,026
-286,818	10,375	0,041	0,023
-285,803	800,000	-0,017	0,048
-284,789	-63,808	0,150	0,044
-283,774	-36,737	0,172	0,067
-282,759	211,153	0,147	0,167
-281,745	-0,232	-0,117	0,060
-280,730	-28,192	0,095	-0,040
-279,716	-39,594	0,038	0,014
-278,701	193,611	-0,117	-0,129
-277,686	-86,884	-0,036	-0,008
-276,672	-200,000	-0,002	-0,070
-275,657	81,432	-0,072	-0,056
-274,643	10,434	-0,061	-0,033
-273,628	58,503	0,028	-0,020
-272,613	9,386	-0,111	0,061
-271,599	-5,572	0,007	-0,003
-270,584	-148,138	0,139	-0,008
-269,570	341,944	-0,047	-0,067
-268,555	39,558	0,019	0,012
-267,540	-114,787	-0,045	-0,006
-266,526	-200,000	0,009	-0,092
-265,511	-176,932	-0,114	-0,002
-264,497	800,000	0,083	0,174
-263,482	7,093	0,047	-0,025
-262,467	15,566	0,142	0,081
-261,453	-6,372	-0,086	-0,042
-260,438	460,719	0,030	-0,049
-259,424	-200,000	-0,010	-0,156
-258,409	344,379	0,020	0,028
-257,395	-200,000	-0,011	0,063
-256,380	34,646	-0,070	-0,044
-255,365	-140,900	0,066	-0,005
-254,351	-200,000	-0,011	0,035
-253,336	-52,309	0,087	0,029
-252,322	-200,000	0,003	-0,052
-251,307	-200,000	0,024	-0,131
-250,292	457,346	-0,026	-0,042
-249,278	267,971	0,052	-0,066
-248,263	563,226	-0,090	0,158
-247,249	-200,000	-0,012	0,075
-246,234	-108,326	-0,031	0,005
-245,219	-200,000	0,006	-0,173
-244,205	-63,971	0,093	-0,027
-243,190	8,075	0,058	-0,032
-242,176	-33,493	0,046	-0,018
-241,161	615,799	0,044	-0,081
-240,146	-19,603	-0,059	-0,026
-239,132	-84,635	-0,044	-0,010
-238,117	17,271	0,043	0,025
-237,103	196,329	-0,038	-0,042
-236,088	260,627	-0,091	-0,114
-235,073	-200,000	-0,025	0,184
-234,059	800,000	0,042	0,097
-233,044	-36,532	-0,161	0,062
-232,030	197,933	0,040	-0,044
-231,015	-31,542	-0,102	0,041
-230,000	493,016	-0,032	-0,053
-228,986	-47,252	-0,013	0,004
-227,971	65,481	0,100	0,073
-226,957	330,099	-0,066	0,092
-225,942	-58,630	0,101	0,031
-224,927	-14,380	-0,114	0,053
-223,913	151,620	-0,144	0,142
-222,898	-70,868	-0,203	0,055
-221,884	143,057	-0,063	-0,061
-220,869	-134,168	0,048	0,004
-219,855	-127,346	0,148	-0,015
-218,840	424,577	-0,055	-0,086
-217,825	-20,248	0,119	0,053
-216,811	800,000	-0,026	-0,061
-215,796	-29,810	-0,091	-0,037
-214,782	-200,000	-0,014	-0,067
-213,767	-200,000	-0,078	-0,000
-212,752	-200,000	-0,008	-0,086
-211,738	39,052	0,139	0,089
-210,723	800,000	-0,052	0,119
-209,709	-26,877	0,043	-0,018
-208,694	-125,890	-0,012	-0,001
-207,679	-55,533	-0,097	0,031
-206,665	532,162	0,036	0,062
-205,650	-200,000	0,012	0,054
-204,636	800,000	-0,051	0,121
-203,621	-88,930	0,106	-0,022
-202,606	800,000	-0,049	-0,140
-201,592	-7,958	-0,091	0,044
-200,577	372,566	-0,049	-0,073
-199,563	-53,883	0,090	0,029
-198,548	800,000	0,047	0,144
-197,533	800,000	-0,015	-0,040
-196,519	63,769	-0,083	-0,060
-195,504	-171,426	0,091	-0,002
-194,490	194,342	-0,082	0,090
-193,475	137,630	-0,071	0,067
-192,460	1,444	0,133	-0,069
-191,446	-200,000	-0,004	0,024
-190,431	370,071	-0,075	-0,110
-189,417	-168,635	0,049	0,001
-188,402	164,803	0,149	0,152
-187,387	-15,115	-0,060	0,027
-186,373	800,000	0,034	-0,104
-185,358	-166,443	0,098	-0,003
-184,344	10,907	0,014	0,008
-183,329	800,000	-0,050	-0,131
-182,315	-55,753	-0,079	0,025
-181,300	-48,739	0,031	0,011
-180,285	751,334	-0,014	-0,027
-179,271	68,262	-0,108	-0,080
-178,256	106,317	0,143	0,122
-177,242	463,242	-0,057	0,092
-176,227	69,768	-0,109	0,081
-175,212	12,602	0,037	0,021
-174,198	-84,147	-0,146	-0,033
-173,183	800,000	0,066	-0,146
-172,169	80,747	0,055	0,042
-171,154	-200,000	0,001	-0,131
-170,139	-64,687	0,091	-0,026
-169,125	105,324	-0,141	0,120
-168,110	-85,912	0,080	-0,018
-167,096	800,000	-0,079	-0,197
-166,081	65,796	-0,016	-0,012
-165,066	276,472	-0,033	-0,042
-164,052	373,458	0,055	0,081
-163,037	67,484	0,035	0,026
-162,023	79,609	-0,085	-0,066
-161,008	800,000	-0,016	-0,038
-159,993	48,213	0,126	0,084
-158,979	-100,722	-0,060	0,011
-157,964	421,732	-0,089	-0,139
-156,950	96,910	-0,127	-0,105
-155,935	226,215	-0,039	-0,046
-154,920	63,139	0,057	0,041
-153,906	11,657	-0,057	-0,031
-152,891	800,000	-0,034	0,077
-151,877	-200,000	-0,006	-0,085
-150,862	-113,007	-0,284	-0,040
-149,847	-55,048	0,078	0,025
-148,833	-200,000	-0,002	0,056
-147,818	-80,311	0,139	-0,033
-146,804	451,068	0,030	0,049
-145,789	-12,530	0,058	0,027
-144,775	307,643	0,031	0,041
-143,760	-200,000	0,000	-0,047
-142,745	-139,172	-0,146	-0,011
-141,731	714,965	0,035	0,067
-140,716	-14,377	0,098	-0,045
-139,702	692,122	0,012	0,022
-138,687	105,540	-0,108	-0,092
-137,672	62,137	0,006	-0,005
-136,658	279,022	-0,028	-0,036
-135,643	-200,000	-0,005	-0,052
-134,629	-32,032	-0,051	0,021
-133,614	-200,000	-0,014	0,095
-132,599	490,739	-0,056	0,093
-131,585	327,433	0,042	-0,058
-130,570	-140,800	-0,059	-0,004
-129,556	643,512	0,021	-0,039
-128,541	176,478	-0,041	0,043
-127,526	-200,000	0,030	-0,128
-126,512	-97,814	-0,110	-0,020
-125,497	-125,266	0,046	0,005
-124,483	-64,426	0,084	0,024
-123,468	-17,548	-0,028	-0,012
-122,453	72,105	0,038	-0,028
-121,439	457,595	-0,036	0,057
-120,424	-26,079	-0,074	-0,031
-119,410	-107,775	0,102	0,016
-118,395	-79,400	0,049	0,012
-117,380	-91,385	0,067	-0,014
-116,366	348,645	-0,042	-0,060
-115,351	-200,000	0,005	0,038
-114,337	-29,424	0,081	-0,033
-113,322	50,525	0,032	0,022
-112,307	-200,000	-0,032	-0,172
-111,293	-29,337	-0,058	-0,024
-110,278	800,000	-0,028	0,074
-109,264	-98,036	-0,158	0,029
-108,249	-93,690	0,056	-0,011
-107,234	282,216	-0,051	-0,066
-106,220	-85,018	-0,061	-0,014
-105,205	-200,000	0,026	-0,097
-104,191	175,341	-0,080	0,083
-103,176	36,225	0,080	-0,050
-102,162	3,349	-0,062	-0,032
-101,147	681,804	0,049	-0,093
-100,132	-63,402	-0,024	0,007
-99,118	472,639	0,062	-0,101
-98,103	-200,000	0,021	-0,136
-97,089	5,563	-0,072	-0,038
-96,074	71,663	0,072	0,054
-95,059	-200,000	-0,003	0,020
-94,045	800,000	-0,015	-0,047
-93,030	312,253	0,094	-0,127
-92,016	800,000	-0,075	-0,153
-91,001	-110,519	0,059	0,009
-89,986	602,673	-0,021	0,038
-88,972	417,897	0,039	0,061
-87,957	-200,000	0,004	-0,060
-86,943	800,000	-0,036	0,108
-85,928	187,168	-0,055	0,059
-84,913	144,429	-0,050	0,048
-83,899	-189,801	0,031	0,000
-82,884	-127,398	0,072	-0,007
-81,870	-122,266	-0,034	0,004
-80,855	-15,718	0,042	0,019
-79,840	28,503	-0,034	0,021
-78,826	-146,613	-0,199	0,012
-77,811	65,303	-0,214	-0,155
-76,797	-14,659	0,089	-0,041
-75,782	253,452	-0,062	0,076
-74,767	278,243	0,055	0,070
-73,753	-158,972	0,158	-0,006
-72,738	-200,000	-0,020	-0,152
-71,724	-86,737	-0,215	-0,047
-70,709	-200,000	-0,005	-0,082
-69,694	568,211	-0,023	-0,040
-68,680	461,557	0,037	-0,059
-67,665	-37,368	-0,042	0,016
-66,651	-200,000	0,021	0,076
-65,636	121,967	0,038	0,034
-64,622	-200,000	0,016	0,083
-63,607	800,000	0,018	0,054
-62,592	800,000	-0,031	-0,064
-61,578	-200,000	0,042	0,172
-60,563	84,265	0,072	0,057
-59,549	-41,116	-0,084	0,031
-58,534	-0,971	-1,910	-0,967
-57,519	-200,000	-0,277	-0,911
-56,505	-200,000	-1,203	-5,095
-55,490	41,664	0,673	0,436
-54,476	800,000	5,377	12,143
-53,461	-200,000	17,770	288,921
-52,446	800,000	728,910	2232,315
-51,432	538,500	1645,351	2817,976
-50,417	109,581	1635,747	1406,169
-49,403	75,327	1287,372	973,483
-48,388	31,709	1027,436	632,922
-47,373	20,166	988,958	571,178
-46,359	18,378	976,756	558,250
-45,344	15,368	972,892	546,176
-44,330	15,574	971,180	545,866
-43,315	15,030	969,445	543,093
-42,300	14,968	968,369	542,267
-41,286	15,035	967,295	541,863
-40,271	15,017	966,465	541,317
-39,257	15,013	965,597	540,798
-38,242	15,044	964,495	540,259
-37,227	15,063	963,780	539,899
-36,213	14,985	962,940	539,155
-35,198	14,975	961,982	538,565
-34,184	15,107	961,021	538,432
-33,169	15,002	960,424	537,737
-32,154	15,048	959,396	537,288
-31,140	15,067	958,572	536,865
-30,125	15,028	957,910	536,349
-29,111	15,023	957,054	535,831
-28,096	15,020	956,452	535,466
-27,082	15,049	955,650	535,088
-26,067	15,082	954,921	534,763
-25,052	15,020	954,075	534,070
-24,038	14,983	953,540	533,629
-23,023	15,000	952,885	533,296
-22,009	15,045	952,228	533,054
-20,994	15,051	951,507	532,646
-19,979	15,073	950,832	532,318
-18,965	15,028	950,216	531,807
-17,950	15,005	949,769	531,463
-16,936	14,986	948,994	530,949
-15,921	15,003	948,197	530,535
-14,906	14,953	947,545	529,990
-13,892	14,965	946,868	529,630
-12,877	14,937	946,325	529,215
-11,863	14,859	945,644	528,566
-10,848	14,883	945,292	528,425
-9,833	15,081	944,493	528,586
-8,819	15,008	944,041	528,080
-7,804	14,922	943,443	527,450
-6,790	14,887	942,884	527,006
-5,775	14,967	942,112	526,808
-4,760	14,929	941,880	526,537
-3,746	14,916	940,927	525,941
-2,731	14,797	940,209	525,143
-1,717	14,731	939,617	524,584
-0,702	14,814	938,933	524,442
0,313	14,542	938,396	524,075
1,327	17,848	936,076	533,142
2,342	26,714	792,647	474,896
3,356	23,388	457,623	269,078
4,371	-3,601	313,700	155,827
5,386	-7,590	295,336	142,668
6,400	-9,577	289,319	137,783
7,415	-9,978	286,964	136,255
8,429	-10,204	285,289	135,227
9,444	-10,237	284,504	134,811
10,459	-10,254	283,908	134,500
11,473	-10,188	283,206	134,219
12,488	-10,174	282,711	133,987
13,502	-10,226	282,356	133,756
14,517	-10,117	281,775	133,574
15,531	-10,183	281,423	133,331
16,546	-10,263	281,045	133,064
17,561	-10,142	280,544	132,931
18,575	-10,168	280,392	132,821
19,590	-10,181	279,824	132,529
20,604	-10,273	279,597	132,322
21,619	-10,293	279,129	132,069
22,634	-10,092	278,811	132,099
23,648	-10,166	278,467	131,853
24,663	-10,151	278,231	131,744
25,677	-10,254	278,058	131,552
26,692	-10,275	277,831	131,414
27,707	-10,049	277,453	131,437
28,721	-10,220	277,325	131,203
29,736	-10,168	276,959	131,067
30,750	-10,360	276,711	130,756
31,765	-10,188	276,404	130,762
32,780	-10,281	276,204	130,568
33,794	-10,268	275,939	130,444
34,809	-10,118	275,673	130,447
35,823	-10,184	275,244	130,171
36,838	-10,237	275,207	130,092
37,853	-10,363	275,039	129,883
38,867	-10,077	274,578	129,921
39,882	-10,243	274,432	129,685
40,896	-10,332	274,256	129,507
41,911	-10,503	273,911	129,173
42,926	-10,282	273,728	129,281
43,940	-10,358	273,431	129,059
44,955	-10,256	273,187	129,027
45,969	-10,375	272,927	128,782
46,984	-10,558	272,680	128,483
47,999	-10,516	272,334	128,348
49,013	-10,913	272,206	127,907
50,028	-10,867	271,926	127,808
51,042	-10,961	271,820	127,659
52,057	-10,958	271,365	127,437
53,071	-10,985	271,265	127,353
54,086	-10,804	271,066	127,416
55,101	-10,586	270,894	127,525
56,115	-10,601	270,814	127,463
57,130	-10,363	270,690	127,612
58,144	-10,154	270,424	127,668
59,159	-10,019	270,179	127,665
60,174	-10,153	269,913	127,405
61,188	-10,147	269,894	127,390
62,203	-10,185	269,568	127,190
63,217	-10,182	269,241	127,027
64,232	-10,204	269,078	126,919
65,247	-9,945	268,750	126,989
66,261	-10,235	268,550	126,619
67,276	-10,322	268,251	126,387
68,290	-10,464	268,096	126,173
69,305	-10,503	267,855	126,013
70,320	-10,501	267,502	125,838
71,334	-10,324	267,495	125,983
72,349	-10,147	267,163	125,978
73,363	-9,976	266,960	126,025
74,378	-10,011	266,749	125,883
75,393	-10,050	266,553	125,744
76,407	-10,159	266,394	125,559
77,422	-9,951	266,199	125,644
78,436	-10,019	265,974	125,465
79,451	-10,122	265,674	125,220
80,466	-10,056	265,560	125,214
81,480	-10,240	265,143	124,840
82,495	-10,228	264,978	124,762
83,509	-10,151	264,821	124,747
84,524	-10,413	264,720	124,453
85,539	-10,462	264,301	124,200
86,553	-10,406	264,115	124,152
87,568	-10,392	263,977	124,089
88,582	-10,272	263,805	124,104
89,597	-10,473	263,627	123,829
90,611	-10,142	263,469	124,040
91,626	-10,212	263,395	123,932
92,641	-10,113	263,094	123,868
93,655	-10,214	262,958	123,703
94,670	-10,356	262,667	123,428
95,684	-10,134	262,432	123,504
96,699	-10,109	262,273	123,441
97,714	-10,258	262,014	123,176
98,728	-10,400	261,938	123,002
99,743	-10,482	261,697	122,805
100,757	-10,445	261,401	122,688
101,772	-10,318	261,251	122,720
102,787	-10,261	261,131	122,703
103,801	-10,325	260,887	122,520
104,816	-10,022	260,650	122,667
105,830	-10,103	260,475	122,501
106,845	-10,041	260,387	122,504
107,860	-10,157	260,046	122,230
108,874	-10,153	259,847	122,130
109,889	-10,338	259,734	121,902
110,903	-10,241	259,426	121,832
111,918	-10,432	259,353	121,619
112,933	-10,297	258,972	121,548
113,947	-10,151	258,943	121,652
114,962	-10,325	258,696	121,373
115,976	-10,228	258,466	121,339
116,991	-10,349	258,331	121,159
118,006	-10,137	257,997	121,176
119,020	-10,295	258,139	121,094
120,035	-10,143	257,925	121,116
121,049	-10,091	257,744	121,065
122,064	-10,128	257,514	120,914
123,079	-10,087	257,338	120,857
124,093	-10,310	257,136	120,556
125,108	-10,291	256,836	120,422
126,122	-10,517	256,538	120,075
127,137	-10,677	256,388	119,856
128,151	-10,361	256,195	120,028
129,166	-10,370	256,031	119,933
130,181	-10,347	255,875	119,869
131,195	-10,443	255,611	119,652
132,210	-10,268	255,538	119,758
133,224	-10,233	255,378	119,703
134,239	-10,163	255,169	119,655
135,254	-10,078	254,915	119,598
136,268	-10,192	254,767	119,420
137,283	-10,617	254,543	118,938
138,297	-10,511	254,139	118,830
139,312	-10,558	254,001	118,714
140,327	-10,193	254,043	119,037
141,341	-10,122	253,903	119,022
142,356	-10,295	253,717	118,775
143,370	-10,026	253,481	118,885
144,385	-10,092	253,488	118,821
145,400	-10,122	253,225	118,662
146,414	-10,068	252,986	118,585
147,429	-9,964	252,806	118,580
148,443	-10,191	252,601	118,278
149,458	-10,003	252,339	118,306
150,473	-9,834	252,267	118,405
151,487	-10,259	252,084	117,947
152,502	-9,979	251,901	118,089
153,516	-10,051	251,724	117,934
154,531	-10,090	251,422	117,749
155,546	-9,764	251,268	117,944
156,560	-10,061	251,146	117,624
157,575	-10,206	250,953	117,400
158,589	-10,081	250,729	117,390
159,604	-9,982	250,479	117,347
160,619	-10,086	250,403	117,212
161,633	-10,097	250,161	117,080
162,648	-9,932	250,197	117,225
163,662	-10,005	249,951	117,038
164,677	-9,887	249,805	117,059
165,692	-9,816	249,527	116,978
166,706	-10,024	249,405	116,735
167,721	-9,920	249,147	116,692
168,735	-10,167	249,191	116,494
169,750	-9,846	248,945	116,638
170,764	-9,886	248,785	116,519
171,779	-9,995	248,509	116,288
172,794	-9,858	248,580	116,425
173,808	-9,888	248,217	116,221
174,823	-10,378	247,905	115,655
175,837	-10,632	247,838	115,400
176,852	-10,178	247,690	115,701
177,867	-10,049	247,610	115,760
178,881	-9,821	247,350	115,819
179,896	-9,801	247,083	115,700
180,910	-9,945	247,093	115,574
181,925	-9,938	246,870	115,465
182,940	-9,955	246,762	115,391
183,954	-9,832	246,422	115,324
184,969	-9,931	246,399	115,220
185,983	-9,778	246,324	115,302
186,998	-9,998	246,127	115,017
188,013	-9,767	245,919	115,101
189,027	-9,874	245,845	114,967
190,042	-9,814	245,618	114,901
191,056	-9,855	245,462	114,784
192,071	-10,003	245,161	114,511
193,086	-9,963	245,032	114,473
194,100	-9,904	244,832	114,418
195,115	-9,650	244,564	114,492
196,129	-9,836	244,429	114,265
197,144	-9,952	244,265	114,083
198,159	-9,834	244,115	114,099
199,173	-10,047	244,001	113,861
200,188	-9,887	243,699	113,842
201,202	-10,304	243,553	113,421
202,217	-10,490	243,273	113,128
203,232	-10,478	243,037	113,018
204,246	-10,023	243,167	113,441
205,261	-9,675	242,825	113,556
206,275	-10,412	242,599	112,838
207,290	-5,670	244,573	117,643
208,304	1,661	246,656	124,690
209,319	3,898	247,340	126,872
210,334	4,052	247,082	126,855
211,348	4,192	247,105	126,971
212,363	4,055	246,866	126,725
213,377	4,164	246,854	126,797
214,392	4,238	246,614	126,723
215,407	3,954	246,500	126,420
216,421	4,385	246,168	126,592
217,436	4,271	246,029	126,416
218,450	4,382	245,897	126,427
219,465	4,050	245,680	126,033
220,480	3,743	245,573	125,715
221,494	3,649	245,324	125,500
222,509	3,872	245,194	125,605
223,523	4,000	245,138	125,669
224,538	3,904	244,813	125,413
225,553	3,572	244,611	125,028
226,567	3,646	244,331	124,934
227,582	3,574	244,419	124,909
228,596	3,906	244,143	125,027
229,611	3,661	244,065	124,776
230,626	3,774	243,693	124,666
231,640	3,894	243,559	124,684
232,655	3,900	243,542	124,670
233,669	3,434	243,427	124,222
234,684	3,514	243,165	124,142
235,699	3,739	243,112	124,286
236,713	3,745	242,977	124,211
237,728	3,458	242,819	123,887
238,742	3,641	242,531	123,877
239,757	3,676	242,274	123,762
240,772	3,511	242,389	123,677
241,786	3,560	242,211	123,614
242,801	3,862	241,894	123,685
243,815	3,669	241,859	123,501
244,830	3,857	241,593	123,505
245,844	3,880	241,516	123,473
246,859	3,810	241,311	123,301
247,874	3,774	241,047	123,127
248,888	3,870	240,955	123,145
249,903	3,801	240,972	123,087
250,917	3,874	240,711	123,002
251,932	3,835	240,587	122,896
252,947	3,934	240,459	122,899
253,961	3,759	240,182	122,607
254,976	3,739	240,062	122,518
255,990	3,664	240,008	122,421
257,005	3,776	239,659	122,320
258,020	3,678	239,515	122,158
259,034	3,710	239,405	122,117
260,049	3,742	239,266	122,060
261,063	3,771	239,186	122,032
262,078	3,590	239,067	121,816
263,093	3,715	238,908	121,824
264,107	3,734	238,741	121,743
265,122	3,673	238,583	121,603
266,136	3,802	238,396	121,599
267,151	3,924	238,281	121,626
268,166	3,843	238,135	121,476
269,180	3,556	238,016	121,178
270,195	4,084	237,838	121,493
271,209	3,936	237,622	121,256
272,224	3,634	237,519	120,955
273,239	3,610	237,353	120,840
274,253	3,827	236,956	120,797
275,268	3,883	236,930	120,818
276,282	3,734	236,831	120,640
277,297	3,643	236,680	120,480
278,312	3,664	236,687	120,490
279,326	3,697	236,385	120,351
280,341	3,660	236,310	120,273
281,355	3,669	236,065	120,145
282,370	3,663	235,934	120,062
283,384	3,535	235,717	119,841
284,399	3,538	235,661	119,805
285,414	3,490	235,495	119,672
286,428	3,615	235,394	119,707
287,443	3,932	235,065	119,777
288,457	3,757	235,044	119,619
289,472	3,703	234,884	119,485
290,487	3,687	234,661	119,348
291,501	3,552	234,459	119,130
292,516	3,460	234,397	119,016
293,530	3,682	234,348	119,153
294,545	3,800	234,224	119,171
295,560	3,938	234,050	119,179
296,574	3,760	233,908	118,958
297,589	3,834	233,743	118,921
298,603	3,857	233,630	118,871
299,618	4,095	233,435	118,944
300,633	3,766	233,387	118,655
301,647	3,669	233,244	118,497
302,662	4,049	233,245	118,781
303,676	3,895	232,887	118,469
304,691	3,939	232,785	118,440
305,706	4,062	232,451	118,354
306,720	3,645	232,484	118,040
307,735	3,546	232,288	117,854
308,749	3,404	231,987	117,582
309,764	3,556	231,945	117,666
310,779	3,589	231,711	117,563
311,793	3,486	231,510	117,372
312,808	3,701	231,392	117,465
313,822	3,696	231,182	117,344
314,837	3,631	231,013	117,199
315,852	3,812	231,056	117,348
316,866	3,822	231,076	117,356
317,881	3,929	230,839	117,307
318,895	3,953	230,499	117,141
319,910	3,844	230,355	116,975
320,925	3,795	230,211	116,855
321,939	3,758	230,194	116,807
322,954	4,145	230,132	117,060
323,968	3,683	230,008	116,635
324,983	3,884	229,838	116,691
325,997	4,124	229,650	116,767
327,012	3,922	229,455	116,504
328,027	3,792	229,259	116,296
329,041	4,187	229,383	116,647
330,056	4,181	229,239	116,560
331,070	4,246	228,964	116,458
332,085	3,997	228,774	116,163
333,100	3,981	228,489	115,996
334,114	3,844	228,541	115,909
335,129	4,187	228,346	116,058
336,143	4,029	228,368	115,940
337,158	3,961	228,095	115,740
338,173	3,943	227,929	115,631
339,187	3,969	227,835	115,593
340,202	3,894	227,634	115,424
341,216	3,948	227,510	115,392
342,231	4,129	227,253	115,387
343,246	3,754	227,206	115,072
344,260	3,825	227,139	115,081
345,275	3,999	226,897	115,078
346,289	4,104	226,705	115,049
347,304	4,046	226,659	114,972
348,319	3,639	226,446	114,550
349,333	3,648	226,290	114,468
350,348	3,438	225,995	114,152
351,362	3,612	225,901	114,223
352,377	3,303	225,706	113,885
353,392	3,313	225,454	113,755
354,406	2,932	225,259	113,364
355,421	196,083	1320,251	1398,452
356,435	157,184	1453,639	1398,442
