DTS Sentinel unit serial number:	SN410029Multiplexer serial number:	ORYXHardware model number:	OX2-SRSoftware version number:	ORYX F/W v4,00 Oryx Data Collector v3.7.2.0data status	okinstallation	B5 Nyhavnadifferential loss correction	single-endedforward channel	channel 2reverse channel	N/Adate	2023/12/14time	18:57:13forward acquisition time	300,00reverse acquisition time	0,00gamma	499,1914k internal	0,3156k external	0,3156temperature offset calibration	1,0000default loss term (dB/km)	0,3820temperature slope calibration	1,0000multiplexer offset coefficient	1,0000multiplexer slope coefficient	1,0000fibre end	0,00T internal ref (°C)	8,68T ext. ref 1 (°C)	-6,17T ext. ref 2 (°C)	-6,24length (m)	temperature (°C)	Stokes	anti-Stokes-744,400	800,000	0,043	0,124
-743,385	-64,449	-0,423	-0,126
-742,371	0,518	0,191	0,100
-741,356	-142,436	-0,357	-0,025
-740,342	92,289	0,150	0,124
-739,327	-96,332	-0,324	-0,063
-738,312	-147,917	0,283	-0,017
-737,298	-101,788	-0,500	-0,088
-736,283	-31,953	0,273	0,112
-735,269	-137,944	-0,399	-0,032
-734,254	800,000	0,041	0,127
-733,239	-38,210	-0,473	-0,184
-732,225	12,285	0,182	0,103
-731,210	800,000	-0,017	0,053
-730,196	800,000	-0,012	-0,029
-729,181	800,000	-0,002	0,007
-728,167	-200,000	-0,016	0,064
-727,152	9,469	0,023	-0,013
-726,137	3,972	0,109	-0,058
-725,123	-186,177	-0,124	-0,001
-724,108	398,660	-0,099	-0,153
-723,094	277,646	-0,098	-0,129
-722,079	-200,000	-0,013	-0,077
-721,064	-89,138	-0,108	0,023
-720,050	800,000	0,041	0,098
-719,035	-200,000	0,008	-0,051
-718,021	46,897	0,029	-0,020
-717,006	-67,552	-0,167	-0,048
-715,991	-200,000	0,018	-0,060
-714,977	-200,000	-0,024	-0,120
-713,962	-124,696	-0,101	-0,011
-712,948	532,653	0,093	0,162
-711,933	1,665	-0,121	-0,064
-710,918	-39,436	-0,160	0,062
-709,904	-56,276	-0,084	0,027
-708,889	-86,946	0,106	0,024
-707,875	-70,459	-0,085	0,024
-706,860	22,840	0,035	0,021
-705,845	90,621	-0,054	-0,045
-704,831	-42,830	-0,105	-0,039
-703,816	254,523	0,079	-0,100
-702,802	200,254	-0,033	-0,038
-701,787	-163,456	-0,050	0,002
-700,772	-200,000	0,013	-0,108
-699,758	155,062	-0,110	-0,111
-698,743	-49,626	0,122	0,042
-697,729	-200,000	-0,008	0,187
-696,714	249,401	-0,071	0,089
-695,699	722,815	-0,042	-0,083
-694,685	-116,315	0,066	-0,009
-693,670	-67,419	-0,118	0,034
-692,656	-200,000	-0,017	0,056
-691,641	-200,000	-0,010	0,066
-690,627	-20,968	0,118	-0,053
-689,612	-200,000	0,021	-0,078
-688,597	-14,230	0,059	0,028
-687,583	341,590	-0,082	-0,119
-686,568	3,016	-0,022	0,012
-685,554	-200,000	-0,004	-0,051
-684,539	-66,889	0,092	-0,027
-683,524	-200,000	0,004	0,036
-682,510	-154,949	-0,066	-0,003
-681,495	630,324	-0,050	-0,093
-680,481	-154,241	-0,133	0,006
-679,466	745,109	-0,074	-0,146
-678,451	-200,000	0,024	-0,089
-677,437	301,701	0,062	-0,084
-676,422	-111,242	-0,076	0,011
-675,408	225,666	-0,045	-0,054
-674,393	-200,000	-0,012	0,054
-673,378	49,094	-0,016	0,011
-672,364	-87,892	-0,182	-0,040
-671,349	22,138	0,086	0,051
-670,335	-200,000	0,014	0,053
-669,320	-200,000	0,014	0,078
-668,305	215,391	-0,058	0,068
-667,291	39,425	0,048	-0,031
-666,276	-200,000	-0,006	-0,045
-665,262	-77,080	-0,187	0,048
-664,247	-26,894	-0,035	0,015
-663,232	138,857	-0,076	-0,073
-662,218	-200,000	0,079	0,000
-661,203	633,106	0,045	-0,084
-660,189	800,000	-0,016	-0,040
-659,174	-83,608	-0,092	-0,022
-658,159	84,614	-0,078	-0,063
-657,145	-167,263	-0,185	0,005
-656,130	-200,000	-0,006	-0,190
-655,116	800,000	0,072	0,149
-654,101	180,667	-0,026	0,029
-653,086	160,507	0,018	0,018
-652,072	-200,000	-0,011	0,071
-651,057	38,853	0,035	-0,023
-650,043	772,327	-0,055	-0,110
-649,028	-200,000	-0,001	0,008
-648,014	434,503	0,007	0,011
-646,999	173,453	0,036	0,038
-645,984	150,532	0,058	-0,058
-644,970	-164,524	0,142	-0,005
-643,955	-43,733	-0,162	0,059
-642,941	550,975	0,044	-0,079
-641,926	800,000	-0,030	-0,083
-640,911	-82,066	0,090	0,021
-639,897	-137,600	0,183	0,015
-638,882	-200,000	0,005	-0,054
-637,868	-200,000	-0,012	-0,086
-636,853	-93,889	-0,041	-0,008
-635,838	166,376	0,045	-0,047
-634,824	34,176	0,073	-0,047
-633,809	16,533	0,051	-0,029
-632,795	-4,165	0,181	0,092
-631,780	105,841	-0,090	0,078
-630,765	5,184	-0,096	-0,052
-629,751	800,000	0,039	-0,111
-628,736	539,429	-0,037	-0,065
-627,722	-200,000	-0,022	0,116
-626,707	-46,750	0,029	-0,010
-625,692	-168,089	-0,065	0,002
-624,678	-67,403	0,099	-0,028
-623,663	-133,739	-0,251	-0,023
-622,649	165,269	0,024	0,025
-621,634	-200,000	0,012	-0,103
-620,619	-44,264	-0,086	-0,031
-619,605	241,775	0,092	-0,113
-618,590	100,909	-0,044	-0,038
-617,576	-163,927	-0,183	0,006
-616,561	-200,000	-0,032	0,121
-615,546	69,227	-0,189	-0,143
-614,532	-88,047	-0,096	-0,021
-613,517	800,000	0,025	0,058
-612,503	-64,459	0,051	0,015
-611,488	-145,157	-0,039	0,003
-610,474	-88,468	0,137	-0,030
-609,459	193,008	-0,058	0,065
-608,444	602,662	-0,081	-0,148
-607,430	-200,000	-0,010	-0,082
-606,415	-200,000	-0,007	-0,077
-605,401	-79,094	0,060	0,015
-604,386	-200,000	0,007	-0,076
-603,371	800,000	-0,039	-0,088
-602,357	-200,000	-0,016	0,206
-601,342	-200,000	0,019	0,161
-600,328	375,989	-0,087	-0,130
-599,313	82,015	-0,077	-0,061
-598,298	323,438	0,029	-0,040
-597,284	-200,000	0,019	-0,079
-596,269	-143,064	0,086	0,006
-595,255	-13,056	0,101	0,048
-594,240	-200,000	0,007	0,076
-593,225	7,212	0,038	0,021
-592,211	-23,603	0,068	-0,030
-591,196	528,200	0,051	0,088
-590,182	800,000	0,019	0,041
-589,167	207,293	-0,048	0,055
-588,152	-200,000	0,008	0,095
-587,138	-200,000	0,011	0,107
-586,123	3,664	0,065	-0,035
-585,109	28,350	-0,143	0,089
-584,094	14,754	0,107	0,061
-583,079	350,911	0,023	0,033
-582,065	800,000	0,053	0,132
-581,050	47,344	0,118	0,081
-580,036	84,310	-0,067	0,053
-579,021	156,767	-0,080	-0,081
-578,006	-71,167	0,059	0,016
-576,992	-30,457	-0,048	0,020
-575,977	-80,979	0,090	0,022
-574,963	-51,174	-0,061	0,021
-573,948	85,876	0,053	-0,043
-572,934	-62,342	-0,117	0,035
-571,919	-200,000	0,010	-0,036
-570,904	-46,945	0,115	-0,041
-569,890	-200,000	-0,012	-0,053
-568,875	800,000	-0,026	-0,083
-567,861	-200,000	0,018	0,099
-566,846	102,745	0,069	-0,059
-565,831	171,636	-0,047	0,050
-564,817	155,809	0,077	0,078
-563,802	178,502	-0,031	0,033
-562,788	-40,341	-0,054	-0,021
-561,773	800,000	-0,045	-0,118
-560,758	-200,000	0,003	0,036
-559,744	-119,190	-0,087	0,011
-558,729	6,781	0,090	0,049
-557,715	62,703	0,047	-0,034
-556,700	-52,359	-0,076	-0,026
-555,685	800,000	-0,035	-0,101
-554,671	542,806	0,076	0,133
-553,656	105,801	0,087	0,075
-552,642	-200,000	-0,003	-0,052
-551,627	-113,621	-0,034	0,005
-550,612	-200,000	0,003	-0,017
-549,598	-200,000	0,017	0,115
-548,583	800,000	0,048	-0,129
-547,569	184,606	0,029	-0,031
-546,554	147,656	-0,117	-0,115
-545,539	800,000	-0,028	-0,062
-544,525	157,085	0,045	-0,045
-543,510	800,000	0,052	0,124
-542,496	342,045	-0,027	0,039
-541,481	-10,910	0,053	-0,025
-540,466	-126,682	0,150	0,016
-539,452	111,834	0,089	0,078
-538,437	800,000	0,032	0,075
-537,423	19,767	0,043	0,025
-536,408	800,000	0,026	0,061
-535,393	800,000	0,033	-0,084
-534,379	-44,008	0,132	-0,048
-533,364	-35,786	-0,047	0,019
-532,350	328,192	-0,086	0,122
-531,335	-200,000	0,004	0,182
-530,321	242,210	0,070	-0,086
-529,306	-200,000	0,042	-0,157
-528,291	-140,761	0,010	-0,001
-527,277	-200,000	-0,002	-0,144
-526,262	82,220	0,075	-0,059
-525,248	173,560	-0,082	-0,086
-524,233	-67,552	0,067	0,019
-523,218	800,000	0,026	0,060
-522,204	169,195	-0,009	-0,010
-521,189	238,833	-0,021	0,025
-520,175	766,265	-0,059	0,119
-519,160	109,357	0,003	-0,002
-518,145	-50,613	0,068	-0,023
-517,131	-55,916	0,071	-0,023
-516,116	-14,565	0,013	0,006
-515,102	87,105	-0,092	-0,074
-514,087	89,214	-0,072	-0,058
-513,072	-200,000	0,037	-0,132
-512,058	-8,593	-0,129	-0,063
-511,043	501,190	-0,035	-0,060
-510,029	-102,402	0,057	-0,010
-509,014	767,816	-0,022	0,043
-507,999	-200,000	0,007	0,038
-506,985	133,239	-0,034	-0,032
-505,970	-51,029	0,181	-0,062
-504,956	-3,808	-0,094	-0,048
-503,941	690,772	0,059	-0,113
-502,926	800,000	-0,018	0,041
-501,912	800,000	-0,023	0,058
-500,897	-200,000	0,041	-0,152
-499,883	800,000	0,039	0,120
-498,868	406,843	0,044	0,068
-497,853	200,012	-0,028	-0,031
-496,839	21,675	0,052	0,031
-495,824	-163,574	0,089	0,003
-494,810	-200,000	-0,016	0,071
-493,795	-200,000	-0,000	-0,013
-492,781	167,796	0,122	-0,127
-491,766	361,264	-0,086	-0,126
-490,751	18,956	-0,040	-0,023
-489,737	-1,415	-0,075	-0,038
-488,722	454,980	0,019	0,031
-487,708	-59,601	0,067	0,021
-486,693	-78,043	-0,103	0,026
-485,678	59,768	-0,048	-0,034
-484,664	800,000	0,048	-0,105
-483,649	144,637	-0,091	-0,089
-482,635	-125,296	0,005	0,001
-481,620	-14,278	0,122	0,057
-480,605	-73,871	0,089	0,023
-479,591	21,879	0,126	0,075
-478,576	320,643	-0,017	0,024
-477,562	-112,190	0,040	-0,006
-476,547	-43,078	-0,070	-0,026
-475,532	595,092	-0,093	0,169
-474,518	-200,000	0,005	0,088
-473,503	800,000	0,024	0,051
-472,489	306,424	0,120	0,163
-471,474	326,757	0,031	-0,043
-470,459	280,755	-0,064	0,083
-469,445	256,182	-0,011	-0,014
-468,430	517,647	-0,063	0,108
-467,416	-72,921	0,100	-0,027
-466,401	800,000	0,028	0,076
-465,386	24,933	0,057	0,034
-464,372	601,134	0,037	0,068
-463,357	39,652	-0,129	0,084
-462,343	262,191	-0,095	-0,121
-461,328	396,478	-0,117	-0,178
-460,313	180,342	-0,010	-0,011
-459,299	35,426	-0,055	-0,035
-458,284	-200,000	0,040	-0,162
-457,270	-56,784	-0,031	-0,010
-456,255	-200,000	0,004	-0,014
-455,241	-200,000	-0,044	0,143
-454,226	39,110	-0,114	-0,074
-453,211	544,887	-0,051	-0,090
-452,197	-122,868	0,086	0,010
-451,182	-200,000	-0,000	0,106
-450,168	288,926	-0,028	-0,037
-449,153	-200,000	0,019	-0,070
-448,138	-193,124	-0,193	-0,001
-447,124	-60,419	0,008	0,003
-446,109	-200,000	0,017	-0,100
-445,095	-167,173	-0,019	-0,001
-444,080	77,449	0,096	0,074
-443,065	229,137	-0,075	0,089
-442,051	-138,010	0,050	0,004
-441,036	-200,000	0,018	-0,104
-440,022	800,000	0,046	-0,147
-439,007	-144,597	-0,113	-0,007
-437,992	143,823	0,047	-0,046
-436,978	-200,000	0,000	0,116
-435,963	12,282	-0,105	0,059
-434,949	57,686	0,133	0,095
-433,934	335,915	-0,073	-0,104
-432,919	-54,890	0,085	-0,028
-431,905	-36,384	-0,112	0,044
-430,890	800,000	0,019	0,052
-429,876	-200,000	0,025	0,092
-428,861	-196,056	-0,045	-0,000
-427,846	147,618	0,025	-0,025
-426,832	-62,822	0,058	0,017
-425,817	216,774	-0,110	-0,128
-424,803	443,101	-0,064	-0,103
-423,788	-39,485	0,065	0,025
-422,773	-98,282	0,103	-0,019
-421,759	172,460	-0,198	0,208
-420,744	-200,000	0,022	-0,109
-419,730	-158,525	-0,053	-0,002
-418,715	-72,299	-0,063	0,017
-417,701	101,617	-0,055	-0,047
-416,686	100,697	0,099	0,083
-415,671	-25,584	0,172	0,074
-414,657	135,067	0,080	0,076
-413,642	-62,639	-0,073	0,022
-412,628	-200,000	0,055	0,188
-411,613	43,486	-0,128	0,085
-410,598	95,579	0,077	-0,064
-409,584	-39,034	0,122	-0,047
-408,569	-111,904	0,094	-0,014
-407,555	-110,934	0,083	-0,012
-406,540	114,321	-0,048	-0,042
-405,525	93,108	0,046	-0,038
-404,511	26,098	0,027	0,016
-403,496	-1,685	0,045	0,023
-402,482	22,370	-0,026	0,016
-401,467	715,245	-0,036	0,070
-400,452	152,590	0,100	0,099
-399,438	-15,500	-0,146	-0,068
-398,423	-35,058	0,092	-0,036
-397,409	-200,000	0,003	-0,098
-396,394	800,000	0,015	-0,041
-395,379	-200,000	-0,001	-0,078
-394,365	201,781	0,101	0,114
-393,350	-200,000	-0,006	0,103
-392,336	-200,000	0,009	-0,139
-391,321	-186,378	-0,135	0,001
-390,306	87,094	0,020	-0,016
-389,292	-96,800	-0,062	-0,012
-388,277	-3,976	-0,092	0,046
-387,263	-200,000	0,015	-0,102
-386,248	70,890	0,010	-0,007
-385,233	749,643	-0,011	-0,022
-384,219	800,000	-0,046	0,113
-383,204	61,779	-0,102	-0,074
-382,190	692,987	0,012	0,023
-381,175	800,000	0,021	-0,059
-380,160	-133,372	0,050	-0,005
-379,146	-24,106	0,013	0,005
-378,131	-3,650	0,047	0,023
-377,117	25,214	-0,046	-0,028
-376,102	-200,000	-0,024	-0,118
-375,088	-200,000	-0,015	0,113
-374,073	-200,000	-0,039	0,156
-373,058	-200,000	0,015	0,117
-372,044	800,000	0,053	0,123
-371,029	366,903	0,043	0,063
-370,015	-150,604	-0,105	-0,006
-369,000	-179,445	-0,071	-0,001
-367,985	-129,611	-0,057	-0,006
-366,971	-200,000	0,027	-0,122
-365,956	44,225	0,024	0,016
-364,942	-200,000	-0,004	-0,028
-363,927	-88,503	0,077	0,017
-362,912	-51,265	-0,108	0,036
-361,898	166,606	0,053	-0,055
-360,883	136,049	0,069	0,065
-359,869	-59,537	-0,084	0,026
-358,854	-200,000	-0,011	0,082
-357,839	800,000	-0,011	0,033
-356,825	323,166	-0,057	0,079
-355,810	-50,727	-0,026	-0,009
-354,796	162,130	-0,041	0,042
-353,781	45,659	0,059	-0,040
-352,766	-94,648	0,133	0,026
-351,752	-200,000	-0,007	-0,073
-350,737	800,000	0,023	0,052
-349,723	-200,000	-0,006	0,075
-348,708	-200,000	0,002	-0,051
-347,693	116,956	0,022	-0,019
-346,679	-3,618	-0,083	-0,042
-345,664	-200,000	0,012	-0,091
-344,650	271,455	0,051	0,066
-343,635	192,950	0,030	0,033
-342,620	-200,000	0,005	0,016
-341,606	331,672	0,034	-0,048
-340,591	-200,000	-0,008	0,035
-339,577	-43,755	-0,167	-0,061
-338,562	-200,000	0,011	0,074
-337,548	-200,000	-0,016	0,052
-336,533	-200,000	0,028	0,150
-335,518	-6,651	0,140	-0,069
-334,504	-64,487	-0,073	0,021
-333,489	87,823	-0,081	0,065
-332,475	186,636	-0,018	-0,019
-331,460	-52,505	0,054	-0,018
-330,445	6,143	0,049	-0,026
-329,431	223,814	0,085	0,099
-328,416	378,349	0,069	-0,102
-327,402	189,258	-0,062	-0,067
-326,387	-102,476	-0,040	-0,007
-325,372	284,072	-0,027	0,036
-324,358	321,815	0,052	-0,072
-323,343	-200,000	0,018	-0,095
-322,329	800,000	-0,030	-0,061
-321,314	89,422	0,058	0,047
-320,299	211,573	0,059	-0,068
-319,285	30,493	-0,116	-0,072
-318,270	-200,000	0,003	0,039
-317,256	-52,539	-0,111	-0,037
-316,241	187,456	-0,014	0,016
-315,226	-149,464	-0,137	-0,008
-314,212	137,430	0,016	0,015
-313,197	105,200	-0,105	0,090
-312,183	-144,621	-0,072	0,005
-311,168	183,919	-0,019	-0,020
-310,153	-2,232	-0,097	0,049
-309,139	-148,380	-0,094	-0,006
-308,124	486,377	-0,019	0,031
-307,110	179,288	-0,114	-0,121
-306,095	-200,000	-0,000	-0,108
-305,080	241,995	0,098	-0,119
-304,066	555,695	0,042	0,073
-303,051	-200,000	-0,006	-0,074
-302,037	-19,666	-0,141	-0,063
-301,022	297,822	-0,071	0,095
-300,008	97,789	0,099	0,082
-298,993	-200,000	-0,034	0,224
-297,978	-11,994	0,058	0,028
-296,964	-51,222	-0,222	-0,075
-295,949	-200,000	0,009	0,104
-294,935	105,894	-0,007	0,006
-293,920	-46,211	-0,223	-0,079
-292,905	-200,000	0,020	0,085
-291,891	800,000	0,033	0,070
-290,876	800,000	-0,035	0,073
-289,862	-200,000	-0,020	0,104
-288,847	8,214	-0,053	-0,029
-287,832	475,483	-0,059	0,096
-286,818	800,000	-0,047	-0,119
-285,803	53,932	-0,070	0,049
-284,789	-15,334	0,077	0,035
-283,774	-133,669	-0,061	-0,005
-282,759	56,852	-0,087	-0,061
-281,745	-94,352	0,036	0,007
-280,730	800,000	0,067	-0,159
-279,716	-66,142	-0,114	0,033
-278,701	433,251	0,120	0,189
-277,686	-145,993	-0,103	-0,007
-276,672	93,840	0,069	0,057
-275,657	-200,000	-0,007	0,075
-274,643	-15,039	0,048	-0,022
-273,628	-165,479	-0,140	-0,004
-272,613	-200,000	-0,001	0,050
-271,599	800,000	-0,018	-0,055
-270,584	517,612	0,036	0,062
-269,570	-200,000	-0,016	-0,134
-268,555	-146,499	-0,056	-0,003
-267,540	-200,000	-0,034	-0,193
-266,526	-200,000	-0,032	-0,165
-265,511	-200,000	0,023	-0,076
-264,497	0,421	0,098	0,051
-263,482	-200,000	0,009	0,050
-262,467	-154,276	0,155	0,007
-261,453	89,723	0,018	0,015
-260,438	-200,000	-0,031	-0,140
-259,424	800,000	0,131	-0,266
-258,409	179,403	-0,135	0,143
-257,395	-200,000	0,001	0,012
-256,380	-126,256	0,090	0,010
-255,365	-91,429	-0,059	0,012
-254,351	-32,635	0,097	0,039
-253,336	-117,142	-0,025	0,003
-252,322	58,658	-0,090	-0,064
-251,307	800,000	-0,047	0,119
-250,292	187,815	-0,063	-0,068
-249,278	-200,000	0,007	0,072
-248,263	-100,983	0,114	0,020
-247,249	631,661	-0,070	0,129
-246,234	444,959	0,081	0,129
-245,219	589,568	-0,075	-0,135
-244,205	73,327	-0,040	0,030
-243,190	246,466	0,103	0,126
-242,176	311,766	0,031	-0,042
-241,161	7,859	-0,103	-0,055
-240,146	-122,331	-0,064	0,007
-239,132	800,000	-0,021	-0,049
-238,117	800,000	0,042	0,084
-237,103	-10,072	-0,137	0,066
-236,088	800,000	-0,040	-0,093
-235,073	-200,000	0,076	0,000
-234,059	-200,000	0,001	0,053
-233,044	119,257	0,059	-0,052
-232,030	-68,086	-0,134	-0,037
-231,015	488,692	0,083	0,137
-230,000	-200,000	0,010	-0,077
-228,986	273,859	0,018	0,023
-227,971	-200,000	-0,016	0,095
-226,957	-77,771	0,110	0,027
-225,942	-200,000	0,017	-0,093
-224,927	-200,000	0,019	0,000
-223,913	370,919	-0,073	-0,108
-222,898	545,379	0,003	-0,005
-221,884	800,000	0,045	-0,098
-220,869	-98,760	0,146	0,027
-219,855	13,248	-0,129	-0,072
-218,840	-200,000	-0,049	0,156
-217,825	-19,757	0,066	0,029
-216,811	-32,978	-0,087	0,035
-215,796	57,641	-0,041	-0,029
-214,782	-110,769	0,137	0,020
-213,767	-200,000	-0,028	0,106
-212,752	-200,000	-0,007	-0,029
-211,738	344,399	0,087	0,123
-210,723	199,790	-0,035	0,038
-209,709	-120,867	0,052	-0,006
-208,694	-200,000	-0,030	-0,112
-207,679	-78,754	0,048	-0,012
-206,665	131,501	-0,080	0,074
-205,650	453,127	-0,027	0,044
-204,636	-200,000	-0,052	0,173
-203,621	374,713	-0,026	0,039
-202,606	109,211	0,097	-0,084
-201,592	800,000	-0,058	-0,119
-200,577	503,385	-0,061	-0,103
-199,563	297,143	-0,077	0,102
-198,548	800,000	0,021	-0,045
-197,533	-94,891	0,191	0,037
-196,519	-125,972	0,082	0,009
-195,504	305,034	-0,089	-0,119
-194,490	800,000	-0,031	-0,097
-193,475	-200,000	-0,018	0,068
-192,460	-200,000	0,024	-0,145
-191,446	-119,415	0,195	-0,024
-190,431	66,391	-0,052	0,038
-189,417	-40,676	0,077	-0,029
-188,402	60,214	-0,116	-0,083
-187,387	-142,087	0,061	-0,004
-186,373	33,030	0,062	-0,039
-185,358	44,416	-0,083	0,055
-184,344	-23,240	0,138	0,060
-183,329	-200,000	0,007	0,040
-182,315	-152,136	0,116	-0,006
-181,300	-200,000	0,020	-0,071
-180,285	171,503	0,079	-0,082
-179,271	-94,449	0,060	0,012
-178,256	303,833	0,055	0,074
-177,242	69,629	-0,054	0,040
-176,227	3,031	0,122	0,064
-175,212	334,742	0,037	-0,052
-174,198	588,229	-0,065	-0,115
-173,183	800,000	0,012	-0,028
-172,169	153,631	-0,037	0,036
-171,154	800,000	-0,039	-0,117
-170,139	-200,000	0,013	0,129
-169,125	391,075	-0,091	0,136
-168,110	192,318	0,088	-0,096
-167,096	-122,017	-0,061	0,007
-166,081	678,446	0,090	-0,170
-165,066	-91,782	0,088	-0,018
-164,052	-200,000	0,034	-0,126
-163,037	117,971	0,094	-0,083
-162,023	342,377	-0,039	0,055
-161,008	-87,926	-0,093	0,020
-159,993	800,000	-0,005	0,011
-158,979	505,594	-0,003	-0,005
-157,964	-200,000	-0,006	0,042
-156,950	800,000	-0,040	-0,111
-155,935	-200,000	0,010	0,051
-154,920	-200,000	0,005	0,040
-153,906	-200,000	0,023	0,084
-152,891	88,489	-0,050	0,040
-151,877	307,776	0,109	-0,147
-150,862	-167,931	0,117	0,003
-149,847	800,000	-0,015	-0,037
-148,833	-100,902	0,104	-0,018
-147,818	257,936	-0,080	0,100
-146,804	-117,022	0,158	0,021
-145,789	76,303	-0,135	0,103
-144,775	55,516	-0,049	0,034
-143,760	-53,963	-0,067	0,022
-142,745	-103,643	-0,146	0,025
-141,731	133,260	-0,127	0,118
-140,716	261,848	0,127	-0,159
-139,702	-41,616	0,059	-0,022
-138,687	-200,000	-0,017	-0,191
-137,672	651,378	-0,032	-0,059
-136,658	-200,000	-0,005	-0,078
-135,643	106,403	0,030	-0,025
-134,629	-200,000	-0,022	-0,090
-133,614	-200,000	-0,004	0,051
-132,599	-104,224	0,117	0,019
-131,585	-146,615	0,027	-0,002
-130,570	618,213	-0,060	-0,109
-129,556	-200,000	-0,020	-0,160
-128,541	-200,000	-0,013	-0,114
-127,526	-140,394	-0,076	-0,006
-126,512	-27,198	0,088	-0,037
-125,497	314,313	-0,053	-0,073
-124,483	-200,000	0,007	0,040
-123,468	40,795	0,051	0,033
-122,453	98,601	-0,067	0,055
-121,439	-200,000	0,011	0,141
-120,424	46,738	-0,069	-0,046
-119,410	-200,000	0,003	0,070
-118,395	-200,000	0,010	0,134
-117,380	-27,731	0,190	0,079
-116,366	46,220	-0,102	0,068
-115,351	25,963	-0,092	0,055
-114,337	-200,000	0,028	-0,117
-113,322	-129,830	-0,141	-0,014
-112,307	-199,246	-0,031	-0,000
-111,293	80,883	-0,064	0,050
-110,278	30,796	0,127	0,078
-109,264	1,117	0,056	0,029
-108,249	-200,000	0,025	-0,118
-107,234	-145,917	-0,085	-0,005
-106,220	189,162	0,040	0,043
-105,205	176,837	-0,050	0,053
-104,191	640,579	-0,018	0,033
-103,176	-200,000	-0,018	0,062
-102,162	4,607	0,060	-0,032
-101,147	800,000	0,076	-0,208
-100,132	173,015	-0,060	-0,062
-99,118	15,812	-0,079	-0,044
-98,103	27,467	-0,069	0,041
-97,089	11,823	-0,118	-0,065
-96,074	340,321	0,028	0,040
-95,059	-135,285	0,068	-0,006
-94,045	-200,000	0,010	-0,141
-93,030	800,000	-0,083	-0,243
-92,016	-122,487	0,102	-0,012
-91,001	-31,626	0,120	-0,048
-89,986	-92,584	0,114	0,023
-88,972	470,608	0,062	0,101
-87,957	800,000	-0,070	0,179
-86,943	-29,860	0,102	0,042
-85,928	800,000	-0,036	0,072
-84,913	345,531	-0,025	-0,035
-83,899	-200,000	-0,022	-0,078
-82,884	139,360	0,112	0,106
-81,870	-68,659	0,075	0,021
-80,855	-28,277	-0,096	0,040
-79,840	800,000	0,064	-0,152
-78,826	800,000	0,031	0,063
-77,811	-143,159	-0,052	0,004
-76,797	195,488	0,100	0,109
-75,782	82,937	0,013	0,010
-74,767	-91,765	0,124	-0,025
-73,753	110,170	0,065	0,056
-72,738	37,780	-0,051	0,032
-71,724	469,689	-0,007	0,012
-70,709	-65,096	-0,098	0,028
-69,694	800,000	-0,011	-0,034
-68,680	800,000	-0,027	0,056
-67,665	-200,000	0,002	0,043
-66,651	251,098	-0,030	-0,037
-65,636	286,429	-0,061	-0,079
-64,622	-200,000	-0,020	-0,085
-63,607	-0,152	-0,131	-0,067
-62,592	-200,000	0,041	-0,149
-61,578	800,000	0,015	0,043
-60,563	-73,758	0,053	-0,014
-59,549	171,530	0,031	0,032
-58,534	96,333	-2,466	-2,025
-57,519	267,504	0,311	-0,392
-56,505	800,000	-1,679	-5,228
-55,490	639,874	1,109	2,035
-54,476	800,000	5,058	11,113
-53,461	-200,000	21,749	339,539
-52,446	800,000	762,037	2293,270
-51,432	510,973	1655,428	2776,197
-50,417	103,922	1620,338	1366,674
-49,403	74,267	1274,892	960,369
-48,388	25,569	1022,885	609,600
-47,373	19,166	988,736	568,047
-46,359	13,369	976,004	541,667
-45,344	9,350	972,774	526,638
-44,330	9,863	970,776	527,221
-43,315	8,819	968,799	522,701
-42,300	8,717	967,639	521,719
-41,286	8,736	966,690	521,249
-40,271	8,734	965,620	520,647
-39,257	8,685	964,851	520,050
-38,242	8,634	964,104	519,460
-37,227	8,720	963,288	519,280
-36,213	8,682	962,508	518,715
-35,198	8,717	961,486	518,259
-34,184	8,739	960,717	517,895
-33,169	8,654	959,894	517,155
-32,154	8,746	958,931	516,912
-31,140	8,714	958,096	516,338
-30,125	8,783	957,169	516,043
-29,111	8,741	956,300	515,418
-28,096	8,752	955,777	515,151
-27,082	8,739	955,046	514,693
-26,067	8,758	954,314	514,341
-25,052	8,697	953,517	513,695
-24,038	8,698	952,835	513,311
-23,023	8,706	952,107	512,922
-22,009	8,712	951,544	512,620
-20,994	8,709	951,167	512,386
-19,979	8,697	950,313	511,867
-18,965	8,688	949,821	511,552
-17,950	8,715	949,112	511,237
-16,936	8,668	948,455	510,712
-15,921	8,670	947,821	510,355
-14,906	8,599	947,075	509,707
-13,892	8,625	946,545	509,484
-12,877	8,578	945,908	508,971
-11,863	8,586	945,249	508,622
-10,848	8,576	944,787	508,321
-9,833	8,706	944,122	508,360
-8,819	8,678	943,409	507,866
-7,804	8,537	942,854	507,098
-6,790	8,608	942,150	506,923
-5,775	8,676	941,594	506,822
-4,760	8,664	941,014	506,449
-3,746	8,607	940,462	505,953
-2,731	8,420	939,805	504,985
-1,717	8,445	938,897	504,555
-0,702	8,455	938,204	504,193
0,313	8,254	937,820	504,111
1,327	11,779	935,653	514,061
2,342	20,697	784,391	454,450
3,356	16,148	451,400	254,609
4,371	-10,388	314,874	149,187
5,386	-13,808	297,208	137,321
6,400	-15,864	291,031	132,402
7,415	-16,611	288,388	130,450
8,429	-17,418	286,447	128,767
9,444	-17,633	285,586	128,157
10,459	-17,330	284,900	128,134
11,473	-17,583	284,312	127,612
12,488	-17,538	283,741	127,388
13,502	-17,454	283,235	127,231
14,517	-17,427	282,703	127,007
15,531	-17,673	282,297	126,575
16,546	-17,537	281,918	126,525
17,561	-17,875	281,629	126,058
18,575	-17,618	281,252	126,126
19,590	-17,648	280,800	125,882
20,604	-17,515	280,472	125,853
21,619	-17,568	280,100	125,624
22,634	-17,734	279,821	125,328
23,648	-17,468	279,404	125,384
24,663	-17,653	279,243	125,124
25,677	-17,625	278,854	124,966
26,692	-17,739	278,724	124,787
27,707	-17,649	278,552	124,785
28,721	-17,730	278,099	124,494
29,736	-17,638	277,808	124,440
30,750	-17,736	277,568	124,228
31,765	-17,648	277,294	124,178
32,780	-17,557	277,147	124,188
33,794	-17,543	276,818	124,042
34,809	-17,401	276,594	124,065
35,823	-17,764	276,345	123,599
36,838	-17,606	276,147	123,648
37,853	-17,697	275,915	123,449
38,867	-17,740	275,654	123,280
39,882	-17,504	275,310	123,337
40,896	-17,343	274,966	123,323
41,911	-17,524	274,763	123,051
42,926	-17,642	274,623	122,866
43,940	-17,551	274,221	122,761
44,955	-17,596	273,950	122,587
45,969	-17,649	273,933	122,519
46,984	-17,681	273,662	122,357
47,999	-17,490	273,591	122,492
49,013	-17,740	273,518	122,216
50,028	-17,521	272,967	122,162
51,042	-17,570	272,896	122,074
52,057	-17,649	272,662	121,885
53,071	-17,441	272,298	121,905
54,086	-17,523	272,249	121,796
55,101	-17,482	271,856	121,647
56,115	-17,648	271,777	121,447
57,130	-17,423	271,251	121,410
58,144	-17,614	271,172	121,187
59,159	-17,540	270,948	121,144
60,174	-17,496	270,753	121,087
61,188	-17,510	270,616	121,002
62,203	-17,543	270,340	120,837
63,217	-17,401	270,037	120,822
64,232	-17,566	269,820	120,562
65,247	-17,450	269,649	120,582
66,261	-17,599	269,401	120,323
67,276	-17,468	269,132	120,312
68,290	-17,483	268,757	120,121
69,305	-17,499	268,733	120,084
70,320	-17,433	268,495	120,028
71,334	-17,396	268,230	119,932
72,349	-17,446	267,935	119,744
73,363	-17,718	267,747	119,401
74,378	-17,608	267,520	119,389
75,393	-17,674	267,446	119,286
76,407	-17,432	266,971	119,283
77,422	-17,447	266,899	119,227
78,436	-17,698	266,685	118,893
79,451	-17,549	266,437	118,907
80,466	-17,657	266,164	118,676
81,480	-17,316	265,879	118,848
82,495	-17,727	265,797	118,428
83,509	-17,727	265,631	118,344
84,524	-17,407	265,236	118,446
85,539	-17,352	265,205	118,472
86,553	-17,511	265,008	118,229
87,568	-17,564	264,711	118,038
88,582	-17,673	264,504	117,837
89,597	-17,352	264,180	117,971
90,611	-17,399	264,236	117,944
91,626	-17,492	264,023	117,754
92,641	-17,527	263,774	117,602
93,655	-17,483	263,626	117,564
94,670	-17,450	263,201	117,394
95,684	-17,436	262,966	117,291
96,699	-17,461	262,921	117,239
97,714	-17,328	262,622	117,213
98,728	-17,334	262,429	117,112
99,743	-17,624	262,461	116,857
100,757	-17,424	262,056	116,844
101,772	-17,556	261,749	116,579
102,787	-17,523	261,585	116,525
103,801	-17,668	261,392	116,299
104,816	-17,418	261,244	116,446
105,830	-17,263	261,136	116,524
106,845	-17,589	260,928	116,132
107,860	-17,585	260,712	116,030
108,874	-17,347	260,348	116,068
109,889	-17,483	260,195	115,869
110,903	-17,478	260,018	115,784
111,918	-17,495	259,795	115,660
112,933	-17,460	259,502	115,549
113,947	-17,434	259,438	115,534
114,962	-17,507	259,178	115,343
115,976	-17,594	259,110	115,226
116,991	-17,291	258,893	115,386
118,006	-17,513	258,708	115,098
119,020	-17,447	258,674	115,131
120,035	-17,314	258,346	115,091
121,049	-17,537	258,112	114,781
122,064	-17,407	257,785	114,739
123,079	-17,441	257,719	114,670
124,093	-17,446	257,424	114,524
125,108	-17,411	257,069	114,386
126,122	-17,193	256,979	114,526
127,137	-17,370	256,823	114,292
128,151	-17,480	256,740	114,149
129,166	-17,357	256,434	114,110
130,181	-17,462	256,270	113,936
131,195	-17,309	256,035	113,954
132,210	-17,444	255,904	113,769
133,224	-17,476	255,727	113,652
134,239	-17,439	255,557	113,598
135,254	-17,601	255,391	113,374
136,268	-17,227	255,094	113,555
137,283	-17,523	254,934	113,218
138,297	-17,380	254,814	113,278
139,312	-17,307	254,387	113,141
140,327	-17,252	254,230	113,109
141,341	-17,308	254,203	113,038
142,356	-17,332	253,870	112,860
143,370	-17,298	253,654	112,783
144,385	-17,398	253,620	112,672
145,400	-17,332	253,251	112,555
146,414	-17,355	253,136	112,474
147,429	-17,334	252,848	112,354
148,443	-17,061	252,613	112,473
149,458	-17,214	252,544	112,301
150,473	-17,308	252,412	112,152
151,487	-17,350	252,130	111,981
152,502	-17,461	252,193	111,904
153,516	-17,473	251,861	111,736
154,531	-17,358	251,619	111,717
155,546	-17,398	251,427	111,588
156,560	-17,299	251,156	111,542
157,575	-17,540	251,082	111,294
158,589	-17,374	250,905	111,346
159,604	-17,171	250,726	111,430
160,619	-17,235	250,520	111,274
161,633	-17,447	250,372	111,019
162,648	-17,274	250,102	111,036
163,662	-17,346	250,005	110,922
164,677	-17,356	249,856	110,837
165,692	-17,298	249,706	110,810
166,706	-17,390	249,634	110,690
167,721	-17,304	249,464	110,677
168,735	-17,443	249,279	110,469
169,750	-17,225	249,060	110,545
170,764	-17,226	248,851	110,442
171,779	-17,393	248,731	110,238
172,794	-17,378	248,606	110,185
173,808	-17,198	248,440	110,253
174,823	-17,202	248,175	110,123
175,837	-17,346	247,901	109,871
176,852	-17,375	247,824	109,802
177,867	-17,434	247,594	109,642
178,881	-17,273	247,485	109,718
179,896	-17,161	247,299	109,719
180,910	-17,427	247,158	109,425
181,925	-17,325	246,968	109,416
182,940	-17,321	246,710	109,295
183,954	-17,275	246,417	109,194
184,969	-17,443	246,486	109,075
185,983	-17,113	246,272	109,245
186,998	-17,312	246,112	108,999
188,013	-17,136	245,863	109,025
189,027	-17,332	245,790	108,820
190,042	-17,345	245,448	108,648
191,056	-17,086	245,284	108,780
192,071	-17,292	245,204	108,565
193,086	-17,335	245,054	108,453
194,100	-17,079	244,758	108,524
195,115	-17,135	244,547	108,375
196,129	-17,178	244,426	108,276
197,144	-17,264	244,108	108,054
198,159	-17,361	243,951	107,895
199,173	-17,289	243,777	107,868
200,188	-17,249	243,722	107,867
201,202	-17,066	243,617	107,961
202,217	-17,115	243,361	107,798
203,232	-17,231	243,179	107,613
204,246	-17,228	242,939	107,499
205,261	-16,844	242,958	107,813
206,275	-15,289	243,461	109,302
207,290	-11,356	244,825	113,148
208,304	-5,992	246,614	118,413
209,319	-2,973	247,184	121,180
210,334	-2,316	247,264	121,753
211,348	-1,724	247,375	122,287
212,363	-1,292	247,342	122,618
213,377	-0,713	247,435	123,133
214,392	-0,194	247,504	123,586
215,407	0,106	247,448	123,794
216,421	0,269	247,219	123,804
217,436	0,315	247,088	123,766
218,450	0,190	247,033	123,624
219,465	0,339	246,833	123,635
220,480	0,336	246,675	123,543
221,494	0,284	246,649	123,475
222,509	0,078	246,372	123,157
223,523	-0,028	246,156	122,950
224,538	-0,013	245,918	122,833
225,553	0,016	245,683	122,728
226,567	0,216	245,506	122,793
227,582	-0,003	245,537	122,618
228,596	0,020	245,306	122,510
229,611	-0,075	245,168	122,352
230,626	-0,234	244,997	122,127
231,640	-0,080	244,848	122,167
232,655	-0,262	244,615	121,891
233,669	0,006	244,405	121,994
234,684	-0,064	244,258	121,853
235,699	-0,057	244,134	121,786
236,713	-0,015	243,991	121,738
237,728	0,005	243,844	121,670
238,742	0,026	243,533	121,522
239,757	-0,069	243,419	121,376
240,772	-0,078	243,259	121,279
241,786	-0,101	243,157	121,199
242,801	-0,007	242,949	121,160
243,815	0,003	242,822	121,094
244,830	-0,109	242,693	120,928
245,844	-0,018	242,507	120,898
246,859	-0,149	242,370	120,713
247,874	-0,166	242,282	120,645
248,888	-0,097	242,215	120,657
249,903	-0,068	241,880	120,502
250,917	-0,121	241,754	120,386
251,932	0,200	241,498	120,506
252,947	0,008	241,627	120,405
253,961	-0,106	241,360	120,170
254,976	-0,097	241,153	120,064
255,990	-0,086	241,014	119,992
257,005	-0,025	240,791	119,920
258,020	0,035	240,624	119,874
259,034	0,155	240,494	119,895
260,049	0,253	240,165	119,798
261,063	0,017	240,172	119,602
262,078	-0,052	239,947	119,424
263,093	-0,072	239,778	119,313
264,107	0,079	239,667	119,368
265,122	-0,091	239,685	119,230
266,136	0,084	239,374	119,205
267,151	0,117	239,210	119,138
268,166	0,032	239,131	119,021
269,180	-0,187	238,934	118,738
270,195	-0,147	238,738	118,663
271,209	0,001	238,633	118,717
272,224	-0,002	238,438	118,607
273,239	0,009	238,426	118,599
274,253	0,038	238,248	118,523
275,268	-0,052	237,921	118,279
276,282	-0,216	237,936	118,145
277,297	-0,083	237,556	118,051
278,312	-0,067	237,520	118,036
279,326	-0,054	237,343	117,947
280,341	0,234	237,226	118,106
281,355	-0,149	237,137	117,749
282,370	-0,012	237,090	117,823
283,384	-0,051	236,855	117,666
284,399	-0,120	236,797	117,571
285,414	0,021	236,561	117,554
286,428	0,192	236,348	117,573
287,443	0,124	236,144	117,408
288,457	0,055	236,148	117,345
289,472	0,043	236,075	117,289
290,487	0,077	235,802	117,169
291,501	-0,021	235,646	117,005
292,516	0,007	235,534	116,961
293,530	0,023	235,274	116,833
294,545	0,121	235,020	116,773
295,560	0,024	235,016	116,685
296,574	0,016	234,896	116,609
297,589	0,291	234,602	116,667
298,603	0,183	234,622	116,583
299,618	0,193	234,396	116,467
300,633	0,090	234,308	116,333
301,647	0,306	234,172	116,423
302,662	0,195	234,008	116,245
303,676	0,214	233,884	116,188
304,691	0,291	233,705	116,148
305,706	0,233	233,503	115,993
306,720	0,337	233,389	116,006
307,735	0,337	233,383	115,993
308,749	0,274	233,116	115,801
309,764	0,256	233,027	115,732
310,779	0,247	232,862	115,633
311,793	0,311	232,626	115,555
312,808	0,191	232,585	115,432
313,822	0,281	232,300	115,349
314,837	0,194	232,257	115,250
315,852	0,024	232,025	114,995
316,866	0,252	232,076	115,185
317,881	0,473	231,708	115,162
318,895	0,385	231,759	115,110
319,910	0,470	231,395	114,984
320,925	0,303	231,271	114,783
321,939	0,270	231,150	114,688
322,954	0,382	231,072	114,725
323,968	0,367	230,889	114,612
324,983	0,143	230,747	114,361
325,997	0,779	230,294	114,611
327,012	0,524	230,498	114,507
328,027	0,313	230,330	114,253
329,041	0,341	230,055	114,128
330,056	0,246	229,978	114,007
331,070	0,239	229,957	113,982
332,085	0,256	229,656	113,835
333,100	0,174	229,678	113,773
334,114	0,618	229,385	113,955
335,129	0,280	229,338	113,665
336,143	0,224	229,156	113,522
337,158	0,228	229,061	113,468
338,173	0,392	228,813	113,459
339,187	0,472	228,799	113,503
340,202	0,314	228,727	113,337
341,216	0,468	228,358	113,260
342,231	0,288	228,277	113,074
343,246	0,362	228,198	113,081
344,260	0,316	228,147	113,011
345,275	0,477	227,921	113,010
346,289	0,513	227,782	112,958
347,304	0,276	227,649	112,704
348,319	0,613	227,368	112,808
349,333	0,538	227,308	112,712
350,348	0,534	227,073	112,582
351,362	0,658	227,011	112,634
352,377	0,769	226,828	112,617
353,392	0,651	226,727	112,468
354,406	0,745	226,473	112,403
355,421	193,475	1311,513	1381,717
356,435	155,065	1443,577	1381,570
