DTS Sentinel unit serial number:	SN410029Multiplexer serial number:	ORYXHardware model number:	OX2-SRSoftware version number:	ORYX F/W v4,00 Oryx Data Collector v3.7.2.0data status	okinstallation	B5 Nyhavnadifferential loss correction	single-endedforward channel	channel 2reverse channel	N/Adate	2023/12/14time	12:47:13forward acquisition time	300,00reverse acquisition time	0,00gamma	499,1914k internal	0,3157k external	0,3157temperature offset calibration	1,0000default loss term (dB/km)	0,3820temperature slope calibration	1,0000multiplexer offset coefficient	1,0000multiplexer slope coefficient	1,0000fibre end	0,00T internal ref (°C)	7,93T ext. ref 1 (°C)	-7,54T ext. ref 2 (°C)	-7,57length (m)	temperature (°C)	Stokes	anti-Stokes-744,400	-23,085	0,169	0,075
-743,385	-108,376	-0,249	0,039
-742,371	40,169	0,287	0,190
-741,356	-90,574	-0,499	-0,105
-740,342	137,406	0,067	0,065
-739,327	150,863	-0,340	-0,341
-738,312	-89,673	0,161	0,035
-737,298	-60,107	-0,441	-0,138
-736,283	-44,023	0,139	0,051
-735,269	-118,053	-0,262	0,034
-734,254	-135,846	0,295	0,025
-733,239	-36,756	-0,555	-0,219
-732,225	-83,966	0,134	0,031
-731,210	-200,000	0,009	0,055
-730,196	-200,000	0,064	-0,277
-729,181	-200,000	0,020	-0,105
-728,167	800,000	0,023	0,071
-727,152	59,038	-0,073	-0,053
-726,137	30,909	-0,034	-0,021
-725,123	253,887	-0,057	0,072
-724,108	-200,000	0,021	-0,174
-723,094	-145,551	0,152	-0,010
-722,079	-117,949	-0,078	-0,010
-721,064	-56,281	-0,044	0,014
-720,050	724,287	-0,036	-0,072
-719,035	12,045	-0,166	0,094
-718,021	-43,988	-0,090	-0,033
-717,006	-128,923	-0,119	-0,012
-715,991	800,000	0,046	-0,103
-714,977	-16,238	-0,229	-0,107
-713,962	-200,000	0,008	-0,083
-712,948	800,000	0,018	0,043
-711,933	-110,555	-0,110	0,017
-710,918	357,033	-0,031	0,046
-709,904	-200,000	0,038	-0,151
-708,889	602,384	-0,047	0,087
-707,875	800,000	0,008	0,026
-706,860	66,708	0,153	-0,114
-705,845	-131,383	0,075	0,007
-704,831	-82,158	0,059	-0,014
-703,816	-200,000	0,044	-0,147
-702,802	-200,000	0,026	0,086
-701,787	-32,350	0,085	-0,035
-700,772	35,661	-0,141	-0,091
-699,758	602,497	-0,033	0,060
-698,743	-200,000	-0,033	0,134
-697,729	131,949	0,120	-0,113
-696,714	10,275	-0,045	-0,025
-695,699	-190,608	0,112	-0,001
-694,685	408,678	0,038	-0,059
-693,670	-200,000	0,006	0,124
-692,656	-144,468	-0,065	-0,004
-691,641	326,889	0,020	0,028
-690,627	-121,696	0,124	-0,015
-689,612	-87,110	-0,056	-0,013
-688,597	-114,845	-0,110	0,015
-687,583	402,011	-0,031	0,049
-686,568	369,230	-0,014	0,021
-685,554	57,509	0,050	0,036
-684,539	-37,526	0,098	0,038
-683,524	-200,000	0,027	0,102
-682,510	-50,699	-0,105	-0,036
-681,495	-96,597	0,094	-0,018
-680,481	474,929	-0,075	0,125
-679,466	342,848	-0,109	-0,157
-678,451	-200,000	0,012	-0,113
-677,437	-134,489	0,069	-0,006
-676,422	145,480	0,046	-0,046
-675,408	-200,000	0,004	-0,101
-674,393	-200,000	-0,004	-0,047
-673,378	-200,000	0,014	-0,154
-672,364	-10,740	0,089	0,043
-671,349	563,037	0,036	-0,064
-670,335	6,114	0,052	0,028
-669,320	762,876	-0,055	-0,110
-668,305	141,114	0,037	-0,036
-667,291	-100,871	-0,078	-0,014
-666,276	-200,000	0,001	-0,071
-665,262	-176,366	-0,133	-0,002
-664,247	-200,000	-0,003	-0,083
-663,232	800,000	0,012	0,027
-662,218	-200,000	0,008	0,055
-661,203	800,000	-0,026	0,056
-660,189	-176,678	-0,226	-0,004
-659,174	-92,604	-0,146	-0,030
-658,159	-199,959	0,078	0,000
-657,145	54,933	0,195	0,138
-656,130	4,383	-0,022	0,012
-655,116	190,143	-0,003	-0,003
-654,101	-200,000	-0,011	0,108
-653,086	203,449	0,036	0,041
-652,072	87,364	-0,064	0,052
-651,057	366,657	-0,047	-0,071
-650,043	672,034	-0,031	-0,060
-649,028	543,750	-0,033	0,058
-648,014	-91,974	0,026	-0,005
-646,999	-56,062	0,129	0,042
-645,984	-24,092	-0,042	-0,019
-644,970	-110,592	-0,158	-0,024
-643,955	687,609	-0,012	-0,024
-642,941	138,425	0,044	0,043
-641,926	-200,000	-0,008	-0,091
-640,911	119,062	-0,013	0,012
-639,897	-187,384	0,141	0,001
-638,882	688,910	-0,074	0,143
-637,868	800,000	0,011	-0,031
-636,853	-200,000	-0,010	-0,141
-635,838	713,599	0,029	-0,056
-634,824	343,146	-0,047	0,068
-633,809	191,245	0,057	0,063
-632,795	97,987	-0,096	-0,081
-631,780	453,277	-0,017	-0,028
-630,765	-200,000	0,007	0,048
-629,751	-200,000	-0,021	-0,070
-628,736	288,858	0,013	0,017
-627,722	-9,760	-0,064	-0,031
-626,707	171,054	0,039	0,041
-625,692	800,000	0,012	-0,034
-624,678	-62,050	0,105	-0,032
-623,663	671,207	0,011	-0,021
-622,649	-200,000	-0,016	-0,067
-621,634	-200,000	0,002	-0,069
-620,619	169,225	-0,015	0,016
-619,605	-131,755	-0,065	-0,006
-618,590	-98,978	0,189	-0,035
-617,576	187,087	-0,093	-0,102
-616,561	800,000	0,013	0,039
-615,546	800,000	0,011	-0,031
-614,532	-200,000	0,036	-0,127
-613,517	6,778	-0,066	-0,036
-612,503	317,055	0,068	-0,095
-611,488	128,895	-0,089	-0,083
-610,474	370,054	-0,065	0,096
-609,459	-114,454	0,075	0,010
-608,444	-200,000	-0,011	-0,056
-607,430	-181,971	-0,059	-0,001
-606,415	163,771	-0,094	0,098
-605,401	-98,295	0,165	0,031
-604,386	-200,000	-0,014	-0,081
-603,371	-56,815	0,076	-0,024
-602,357	-200,000	-0,002	0,106
-601,342	61,939	0,013	0,010
-600,328	250,985	-0,061	-0,077
-599,313	-63,061	-0,104	-0,031
-598,298	31,626	0,100	-0,063
-597,284	-183,071	0,158	0,002
-596,269	225,630	0,070	-0,083
-595,255	209,408	-0,114	-0,131
-594,240	-23,478	-0,047	0,021
-593,225	800,000	0,040	-0,089
-592,211	164,805	-0,156	-0,161
-591,196	245,210	-0,028	0,035
-590,182	778,356	0,062	0,125
-589,167	-82,450	0,133	0,031
-588,152	-118,586	-0,126	-0,016
-587,138	-200,000	0,017	0,091
-586,123	-200,000	-0,031	0,101
-585,109	677,742	-0,065	-0,125
-584,094	800,000	0,043	-0,140
-583,079	199,174	0,061	0,068
-582,065	-200,000	-0,005	-0,077
-581,050	-79,276	0,041	0,010
-580,036	7,098	-0,045	-0,025
-579,021	793,383	0,064	0,129
-578,006	-200,000	0,011	-0,050
-576,992	-37,689	-0,053	0,020
-575,977	348,653	0,112	0,162
-574,963	-24,492	0,066	0,028
-573,948	-200,000	-0,005	0,067
-572,934	-200,000	-0,010	0,054
-571,919	-115,627	-0,098	-0,013
-570,904	349,031	0,065	-0,094
-569,890	-200,000	0,000	0,048
-568,875	60,946	-0,151	0,109
-567,861	50,461	0,089	-0,062
-566,846	800,000	0,037	0,076
-565,831	87,070	-0,036	0,029
-564,817	-200,000	0,016	-0,182
-563,802	-110,623	-0,067	-0,010
-562,788	487,661	0,058	0,098
-561,773	351,847	-0,040	-0,058
-560,758	-200,000	0,003	-0,024
-559,744	-52,818	-0,105	0,035
-558,729	-200,000	-0,014	0,078
-557,715	31,992	0,119	0,075
-556,700	-99,565	-0,149	0,027
-555,685	300,747	0,029	-0,039
-554,671	800,000	-0,047	-0,101
-553,656	-200,000	-0,024	-0,093
-552,642	800,000	0,013	-0,043
-551,627	-200,000	-0,028	0,132
-550,612	14,173	-0,088	-0,050
-549,598	800,000	-0,058	-0,120
-548,583	420,065	-0,087	0,137
-547,569	-200,000	0,016	-0,076
-546,554	-71,326	0,049	0,013
-545,539	-200,000	0,010	0,112
-544,525	800,000	0,037	0,086
-543,510	-200,000	-0,005	-0,020
-542,496	334,329	-0,051	0,073
-541,481	-200,000	0,024	-0,134
-540,466	249,232	-0,088	-0,109
-539,452	-92,435	0,047	0,010
-538,437	-200,000	0,008	0,120
-537,423	391,095	0,058	0,088
-536,408	-200,000	0,017	0,061
-535,393	24,936	-0,082	-0,049
-534,379	158,808	0,050	-0,051
-533,364	622,826	-0,033	0,062
-532,350	-200,000	0,017	0,064
-531,335	183,059	-0,041	0,045
-530,321	-76,200	-0,119	-0,031
-529,306	3,179	-0,141	-0,075
-528,291	-87,366	0,121	0,027
-527,277	76,279	-0,118	-0,091
-526,262	800,000	-0,059	0,142
-525,248	800,000	0,036	0,110
-524,233	28,227	0,088	-0,054
-523,218	199,226	-0,044	-0,049
-522,204	-200,000	-0,015	0,096
-521,189	-200,000	-0,026	-0,174
-520,175	412,568	-0,080	-0,125
-519,160	-200,000	0,004	0,028
-518,145	635,456	-0,024	0,046
-517,131	-200,000	0,014	0,085
-516,116	185,777	0,100	0,109
-515,102	56,981	0,029	0,020
-514,087	-30,928	-0,039	-0,016
-513,072	-40,569	-0,030	-0,011
-512,058	800,000	0,039	-0,092
-511,043	800,000	0,038	-0,084
-510,029	-200,000	-0,011	-0,072
-509,014	76,347	0,115	0,089
-507,999	262,316	-0,027	0,034
-506,985	9,560	0,122	-0,067
-505,970	-200,000	0,008	-0,121
-504,956	800,000	-0,057	-0,129
-503,941	19,507	0,052	-0,030
-502,926	-26,342	0,140	-0,060
-501,912	327,347	0,097	0,136
-500,897	452,378	-0,022	-0,036
-499,883	-181,911	0,115	-0,002
-498,868	800,000	-0,062	-0,127
-497,853	546,333	0,068	-0,120
-496,839	800,000	0,011	0,031
-495,824	-153,882	0,043	0,002
-494,810	-19,626	0,189	0,085
-493,795	-134,560	-0,099	0,009
-492,781	30,559	0,094	0,059
-491,766	-168,090	-0,196	-0,005
-490,751	13,173	0,109	0,062
-489,737	140,709	0,053	-0,051
-488,722	-51,033	0,140	0,048
-487,708	248,258	0,073	0,091
-486,693	-145,859	0,081	0,005
-485,678	311,258	0,014	0,019
-484,664	-200,000	-0,001	0,072
-483,649	800,000	0,036	-0,081
-482,635	-123,819	-0,140	-0,016
-481,620	800,000	0,052	0,128
-480,605	-177,587	0,106	0,002
-479,591	146,251	-0,042	-0,042
-478,576	377,514	0,071	0,107
-477,562	-200,000	0,029	0,126
-476,547	208,124	-0,051	0,058
-475,532	-66,440	-0,156	0,045
-474,518	-200,000	-0,028	0,092
-473,503	-66,677	0,096	-0,028
-472,489	249,885	0,055	0,068
-471,474	-141,974	-0,051	0,004
-470,459	800,000	-0,039	0,085
-469,445	-80,510	0,062	-0,015
-468,430	-141,621	-0,037	0,003
-467,416	50,434	0,115	-0,079
-466,401	-200,000	-0,007	-0,049
-465,386	-143,261	0,046	-0,003
-464,372	459,701	0,018	0,030
-463,357	-175,962	0,094	0,002
-462,343	361,699	-0,046	0,068
-461,328	20,080	-0,108	0,063
-460,313	800,000	-0,031	-0,076
-459,299	-156,794	0,053	0,002
-458,284	194,142	0,072	-0,080
-457,270	599,246	-0,022	0,041
-456,255	800,000	-0,026	-0,071
-455,241	-14,085	-0,070	-0,033
-454,226	533,941	0,035	0,060
-453,211	-200,000	0,001	0,073
-452,197	-126,672	0,125	0,013
-451,182	-200,000	-0,003	0,128
-450,168	-59,389	-0,120	0,037
-449,153	130,318	-0,070	0,065
-448,138	800,000	-0,039	-0,091
-447,124	800,000	0,033	-0,104
-446,109	800,000	-0,029	-0,059
-445,095	-35,495	-0,075	-0,030
-444,080	-200,000	-0,015	-0,132
-443,065	542,671	0,009	0,016
-442,051	-31,175	-0,029	0,012
-441,036	-67,772	-0,179	0,051
-440,022	151,272	0,055	-0,054
-439,007	337,967	0,009	0,013
-437,992	-62,672	0,065	0,019
-436,978	96,936	0,080	0,067
-435,963	-101,179	-0,076	-0,013
-434,949	-200,000	-0,031	-0,125
-433,934	585,952	-0,123	-0,221
-432,919	-105,946	-0,107	0,017
-431,905	-101,301	-0,134	-0,024
-430,890	-200,000	0,002	0,048
-429,876	258,261	0,130	-0,164
-428,861	158,361	-0,040	-0,040
-427,846	-200,000	0,031	-0,117
-426,832	457,886	-0,026	-0,043
-425,817	-200,000	-0,003	-0,031
-424,803	214,539	-0,032	-0,037
-423,788	-50,388	0,129	-0,044
-422,773	118,651	-0,039	0,035
-421,759	-200,000	-0,002	-0,040
-420,744	-80,917	-0,135	-0,032
-419,730	-53,995	0,085	-0,028
-418,715	-79,259	0,034	0,008
-417,701	-200,000	0,001	-0,119
-416,686	258,949	0,073	-0,092
-415,671	642,934	-0,034	0,064
-414,657	389,311	0,008	0,013
-413,642	-200,000	-0,002	-0,084
-412,628	-105,867	-0,109	0,018
-411,613	-8,052	0,086	0,042
-410,598	616,144	-0,061	0,113
-409,584	-162,962	-0,091	0,003
-408,569	-106,207	-0,038	0,006
-407,555	-42,425	0,047	0,017
-406,540	798,314	0,008	0,015
-405,525	725,244	-0,043	0,083
-404,511	-47,648	0,119	-0,042
-403,496	50,494	-0,093	0,064
-402,482	77,804	0,076	-0,059
-401,467	119,095	0,138	0,124
-400,452	61,921	0,038	0,028
-399,438	-116,213	0,130	0,017
-398,423	-60,016	-0,053	-0,016
-397,409	-129,198	-0,078	-0,008
-396,394	176,302	-0,085	0,090
-395,379	-14,506	0,076	0,035
-394,365	-21,751	0,098	-0,043
-393,350	282,159	0,056	0,073
-392,336	79,557	-0,100	0,078
-391,321	-81,003	0,077	0,018
-390,306	-7,766	-0,079	-0,039
-389,292	14,030	-0,070	0,040
-388,277	800,000	-0,025	0,060
-387,263	10,327	0,095	-0,052
-386,248	-89,515	-0,027	-0,006
-385,233	-200,000	-0,022	0,128
-384,219	-136,028	-0,030	-0,003
-383,204	-200,000	-0,047	-0,151
-382,190	189,766	-0,099	-0,108
-381,175	-200,000	0,010	-0,063
-380,160	777,654	0,049	0,098
-379,146	504,659	0,046	0,078
-378,131	54,164	-0,061	0,043
-377,117	80,091	0,136	0,107
-376,102	-64,648	-0,127	-0,037
-375,088	-40,945	-0,109	0,041
-374,073	-6,139	0,071	-0,035
-373,058	-27,574	-0,039	0,017
-372,044	444,483	-0,092	0,147
-371,029	-13,509	0,059	0,028
-370,015	17,862	0,113	-0,065
-369,000	800,000	-0,031	-0,072
-367,985	24,592	-0,028	0,017
-366,971	448,692	-0,059	0,094
-365,956	246,296	0,028	-0,034
-364,942	8,285	0,074	-0,040
-363,927	-200,000	-0,002	0,120
-362,912	130,082	0,064	0,060
-361,898	634,190	-0,081	-0,150
-360,883	89,615	0,078	0,063
-359,869	-113,577	-0,175	0,025
-358,854	63,092	0,064	-0,047
-357,839	-3,639	0,038	-0,019
-356,825	-200,000	0,019	-0,087
-355,810	75,206	0,076	-0,058
-354,796	-200,000	-0,035	0,121
-353,781	-200,000	0,008	-0,161
-352,766	-40,213	0,051	-0,019
-351,752	16,070	-0,102	-0,058
-350,737	708,751	0,055	-0,106
-349,723	-200,000	-0,004	-0,027
-348,708	-200,000	0,005	0,084
-347,693	-94,786	-0,029	0,006
-346,679	-200,000	-0,000	-0,115
-345,664	-169,122	0,145	-0,004
-344,650	448,377	-0,064	0,102
-343,635	-200,000	-0,002	-0,085
-342,620	798,815	-0,043	0,086
-341,606	421,624	0,054	0,084
-340,591	766,200	0,028	0,055
-339,577	63,287	0,087	-0,064
-338,562	149,453	-0,086	-0,085
-337,548	-51,907	0,126	0,042
-336,533	800,000	0,028	0,064
-335,518	-151,072	0,063	-0,003
-334,504	300,326	-0,052	-0,070
-333,489	-65,172	0,059	-0,017
-332,475	-200,000	0,005	-0,107
-331,460	800,000	0,007	0,021
-330,445	18,350	0,067	-0,039
-329,431	-146,888	0,043	-0,003
-328,416	-200,000	-0,011	0,117
-327,402	-42,247	0,125	0,046
-326,387	182,994	0,108	-0,116
-325,372	191,698	-0,085	-0,093
-324,358	495,282	-0,048	-0,080
-323,343	112,548	-0,036	-0,032
-322,329	768,511	0,048	0,095
-321,314	-24,713	0,039	-0,017
-320,299	91,422	0,082	0,067
-319,285	27,907	-0,064	-0,039
-318,270	-200,000	-0,007	-0,133
-317,256	-200,000	-0,011	-0,071
-316,241	-29,345	-0,056	-0,023
-315,226	800,000	-0,039	0,089
-314,212	-122,109	-0,096	-0,011
-313,197	-200,000	0,006	0,039
-312,183	-135,831	0,045	-0,004
-311,168	-194,553	-0,086	-0,000
-310,153	-165,763	-0,215	-0,007
-309,139	48,461	-0,032	0,022
-308,124	-200,000	0,005	0,045
-307,110	800,000	0,017	0,053
-306,095	-200,000	0,007	0,077
-305,080	362,633	0,068	0,099
-304,066	234,093	-0,080	-0,095
-303,051	800,000	0,011	0,030
-302,037	-58,300	-0,123	-0,039
-301,022	310,739	-0,026	-0,036
-300,008	-200,000	-0,006	0,093
-298,993	38,300	0,236	0,152
-297,978	-30,683	-0,102	0,042
-296,964	-117,083	-0,068	-0,009
-295,949	-136,225	-0,110	-0,009
-294,935	21,620	-0,079	0,046
-293,920	375,951	-0,038	0,057
-292,905	498,114	0,051	0,086
-291,891	800,000	-0,058	0,118
-290,876	25,898	0,108	0,065
-289,862	-200,000	-0,006	0,068
-288,847	800,000	0,046	-0,145
-287,832	465,242	-0,033	-0,054
-286,818	800,000	-0,038	0,108
-285,803	71,437	-0,065	0,049
-284,789	-91,888	0,021	-0,004
-283,774	-172,190	-0,128	0,003
-282,759	77,901	-0,089	0,069
-281,745	-13,757	-0,180	-0,084
-280,730	-200,000	0,002	-0,028
-279,716	-41,549	-0,053	-0,020
-278,701	262,884	0,098	-0,123
-277,686	800,000	-0,022	0,055
-276,672	800,000	-0,038	-0,119
-275,657	311,466	0,043	-0,058
-274,643	24,118	-0,051	0,030
-273,628	517,605	0,079	-0,135
-272,613	7,861	-0,141	-0,076
-271,599	69,742	0,099	0,074
-270,584	800,000	-0,018	0,048
-269,570	-174,619	0,075	0,002
-268,555	800,000	-0,049	-0,101
-267,540	475,518	-0,091	-0,149
-266,526	-200,000	-0,024	-0,085
-265,511	65,491	0,025	0,018
-264,497	313,992	-0,033	0,045
-263,482	-25,273	0,114	-0,049
-262,467	800,000	-0,032	0,092
-261,453	-181,974	-0,065	0,001
-260,438	21,144	0,054	0,031
-259,424	-200,000	-0,015	-0,130
-258,409	-200,000	-0,002	-0,140
-257,395	174,566	-0,068	0,071
-256,380	-200,000	0,006	0,246
-255,365	800,000	0,032	0,091
-254,351	-36,473	0,009	-0,004
-253,336	-200,000	-0,001	0,076
-252,322	800,000	0,016	0,034
-251,307	68,473	-0,119	-0,088
-250,292	-68,561	0,091	0,025
-249,278	396,529	0,072	-0,110
-248,263	-185,036	0,170	-0,002
-247,249	-200,000	0,009	0,084
-246,234	800,000	-0,054	0,113
-245,219	-71,878	0,187	-0,050
-244,205	-70,213	0,096	-0,026
-243,190	-200,000	0,012	0,113
-242,176	131,404	0,113	0,105
-241,161	-79,698	-0,134	0,033
-240,146	-200,000	0,008	-0,064
-239,132	171,096	-0,114	0,119
-238,117	548,957	0,077	-0,135
-237,103	-56,355	-0,125	0,040
-236,088	800,000	-0,028	0,073
-235,073	118,187	-0,091	0,082
-234,059	-200,000	0,079	0,000
-233,044	-200,000	-0,008	-0,085
-232,030	-140,101	0,076	0,006
-231,015	800,000	-0,012	0,028
-230,000	-178,808	-0,017	0,000
-228,986	-200,000	-0,010	-0,083
-227,971	149,561	0,106	0,104
-226,957	-104,226	-0,230	0,038
-225,942	-90,019	-0,038	0,008
-224,927	-200,000	0,007	0,090
-223,913	-99,098	-0,045	-0,008
-222,898	-156,192	0,167	-0,007
-221,884	-41,435	0,050	-0,018
-220,869	-200,000	-0,011	0,072
-219,855	172,636	0,012	-0,013
-218,840	-112,038	0,053	0,008
-217,825	-200,000	0,000	0,062
-216,811	215,358	-0,111	0,127
-215,796	17,515	0,060	-0,034
-214,782	-58,736	-0,057	-0,018
-213,767	-27,265	0,091	-0,038
-212,752	149,423	0,054	0,053
-211,738	800,000	0,006	0,016
-210,723	-200,000	0,034	0,126
-209,709	-200,000	-0,012	-0,053
-208,694	35,925	-0,074	0,047
-207,679	-82,559	0,028	0,007
-206,665	-200,000	-0,047	0,166
-205,650	-200,000	0,032	0,162
-204,636	-200,000	0,009	0,160
-203,621	-146,877	-0,098	-0,006
-202,606	-143,625	-0,056	-0,004
-201,592	588,563	0,049	-0,087
-200,577	410,972	-0,135	-0,208
-199,563	-161,469	-0,096	0,004
-198,548	-37,078	0,183	0,070
-197,533	278,932	0,051	-0,065
-196,519	209,191	0,104	0,118
-195,504	-35,649	-0,041	0,016
-194,490	42,484	-0,092	0,061
-193,475	36,300	0,052	0,033
-192,460	-200,000	0,047	-0,155
-191,446	671,133	-0,063	0,118
-190,431	31,572	0,182	-0,113
-189,417	76,551	-0,066	-0,050
-188,402	-200,000	-0,014	0,140
-187,387	-200,000	0,012	0,089
-186,373	539,765	0,060	-0,104
-185,358	-129,377	-0,046	0,005
-184,344	-200,000	0,014	-0,102
-183,329	93,872	0,015	0,012
-182,315	800,000	0,019	-0,041
-181,300	-76,672	-0,067	-0,017
-180,285	-88,425	0,146	0,031
-179,271	-186,482	-0,112	-0,001
-178,256	135,094	0,043	-0,040
-177,242	-54,957	0,040	-0,013
-176,227	-40,999	0,045	0,017
-175,212	103,982	-0,081	-0,068
-174,198	335,433	0,069	-0,097
-173,183	646,416	-0,086	-0,159
-172,169	-200,000	-0,004	-0,016
-171,154	-200,000	0,007	-0,101
-170,139	55,597	0,105	-0,073
-169,125	-80,156	0,061	0,015
-168,110	572,899	-0,043	0,075
-167,096	800,000	-0,033	-0,100
-166,081	-200,000	-0,030	-0,143
-165,066	-53,064	-0,138	-0,045
-164,052	582,280	-0,075	0,133
-163,037	-200,000	0,030	0,111
-162,023	-44,902	0,112	0,040
-161,008	12,444	0,055	0,031
-159,993	-62,059	-0,120	0,036
-158,979	800,000	0,016	-0,038
-157,964	-200,000	-0,021	-0,128
-156,950	-200,000	-0,016	-0,077
-155,935	-73,598	0,094	0,025
-154,920	41,564	0,030	0,019
-153,906	-200,000	0,008	0,099
-152,891	204,248	0,015	0,017
-151,877	-200,000	-0,005	-0,037
-150,862	-20,346	0,053	0,023
-149,847	-200,000	0,129	-0,000
-148,833	-85,585	-0,124	-0,027
-147,818	-200,000	0,022	0,101
-146,804	-200,000	0,002	0,080
-145,789	-108,743	0,092	0,014
-144,775	-120,551	-0,103	0,012
-143,760	358,055	0,068	0,098
-142,745	-200,000	0,002	0,026
-141,731	-133,352	-0,074	-0,007
-140,716	-12,961	0,019	0,009
-139,702	346,995	-0,072	0,102
-138,687	800,000	0,064	0,144
-137,672	13,205	-0,063	-0,035
-136,658	-200,000	0,025	-0,108
-135,643	-145,281	-0,211	-0,013
-134,629	-13,086	0,030	0,014
-133,614	-200,000	0,016	0,080
-132,599	523,785	0,085	0,144
-131,585	-200,000	-0,026	0,203
-130,570	12,731	0,104	0,057
-129,556	-200,000	-0,027	0,166
-128,541	279,701	-0,044	-0,057
-127,526	316,242	0,095	0,130
-126,512	-200,000	-0,002	-0,007
-125,497	800,000	0,047	0,104
-124,483	94,843	0,074	0,060
-123,468	800,000	0,059	-0,138
-122,453	141,809	0,090	-0,086
-121,439	-127,079	0,004	-0,000
-120,424	-109,545	-0,037	-0,006
-119,410	105,342	0,085	-0,072
-118,395	196,037	0,086	-0,094
-117,380	514,153	0,043	0,073
-116,366	-7,923	0,045	0,022
-115,351	-79,354	-0,052	0,013
-114,337	433,814	-0,026	-0,040
-113,322	194,835	-0,031	-0,034
-112,307	-51,970	-0,120	-0,040
-111,293	209,134	0,062	-0,070
-110,278	392,139	0,041	-0,061
-109,264	270,437	0,005	0,006
-108,249	-48,428	0,045	0,016
-107,234	419,536	-0,161	-0,249
-106,220	249,419	0,093	-0,114
-105,205	-147,715	0,038	-0,002
-104,191	-156,676	0,068	0,003
-103,176	-200,000	0,019	-0,199
-102,162	800,000	0,036	0,112
-101,147	166,341	-0,032	-0,032
-100,132	-50,180	-0,093	-0,032
-99,118	347,548	-0,005	-0,006
-98,103	191,156	-0,056	-0,061
-97,089	61,196	0,051	0,037
-96,074	23,322	0,077	-0,045
-95,059	20,248	0,031	0,018
-94,045	12,051	-0,076	0,042
-93,030	-121,759	0,105	-0,012
-92,016	-105,167	-0,061	0,010
-91,001	291,815	0,096	0,126
-89,986	59,847	-0,029	0,021
-88,972	275,469	0,072	0,092
-87,957	-1,149	-0,175	-0,089
-86,943	800,000	0,085	-0,190
-85,928	-63,639	0,036	-0,011
-84,913	497,015	0,065	-0,108
-83,899	800,000	-0,052	0,122
-82,884	57,149	0,104	0,072
-81,870	-159,047	-0,088	-0,004
-80,855	263,247	-0,058	-0,073
-79,840	-200,000	-0,035	0,139
-78,826	800,000	0,010	0,029
-77,811	-63,861	0,141	-0,041
-76,797	-56,358	0,035	0,011
-75,782	86,504	-0,041	-0,032
-74,767	-200,000	0,007	-0,023
-73,753	-200,000	0,007	0,065
-72,738	301,755	-0,052	0,069
-71,724	-200,000	-0,001	0,119
-70,709	316,948	0,086	-0,117
-69,694	307,008	-0,074	-0,099
-68,680	140,379	0,033	0,031
-67,665	229,499	-0,045	0,053
-66,651	-200,000	-0,007	0,055
-65,636	40,857	-0,078	-0,050
-64,622	-23,312	0,168	-0,072
-63,607	3,809	0,025	0,013
-62,592	309,175	-0,058	-0,078
-61,578	521,835	0,070	-0,119
-60,563	436,055	0,089	-0,140
-59,549	20,344	-0,176	-0,102
-58,534	85,139	-2,546	-2,003
-57,519	44,184	0,405	-0,266
-56,505	-200,000	-1,702	-5,540
-55,490	584,530	1,190	2,107
-54,476	800,000	5,223	11,197
-53,461	-200,000	22,313	347,647
-52,446	800,000	760,412	2295,581
-51,432	513,685	1645,932	2765,317
-50,417	97,492	1609,265	1326,029
-49,403	65,334	1266,035	917,873
-48,388	23,048	1017,432	597,567
-47,373	19,396	984,692	566,276
-46,359	12,872	971,847	537,531
-45,344	8,605	968,501	521,686
-44,330	9,069	966,412	522,060
-43,315	8,075	964,709	517,871
-42,300	8,021	963,537	517,044
-41,286	8,092	962,613	516,759
-40,271	7,945	961,875	515,865
-39,257	7,954	960,785	515,290
-38,242	8,001	959,790	514,886
-37,227	7,939	959,209	514,355
-36,213	7,971	958,183	513,886
-35,198	7,984	957,386	513,481
-34,184	7,983	956,762	513,123
-33,169	7,950	955,636	512,392
-32,154	7,980	955,024	512,140
-31,140	8,051	953,933	511,766
-30,125	8,062	953,129	511,349
-29,111	7,992	952,374	510,696
-28,096	8,028	951,804	510,488
-27,082	7,995	951,065	509,966
-26,067	7,928	950,466	509,406
-25,052	7,948	949,478	508,923
-24,038	7,911	948,831	508,438
-23,023	7,960	948,019	508,137
-22,009	7,975	947,575	507,929
-20,994	7,981	947,058	507,649
-19,979	8,010	946,327	507,331
-18,965	7,930	945,613	506,672
-17,950	7,970	944,984	506,444
-16,936	7,963	944,309	506,040
-15,921	7,921	943,767	505,593
-14,906	7,855	942,999	504,951
-13,892	7,836	942,400	504,550
-12,877	7,827	941,785	504,172
-11,863	7,764	941,438	503,765
-10,848	7,882	940,588	503,668
-9,833	7,925	940,230	503,593
-8,819	7,900	939,512	503,109
-7,804	7,799	938,971	502,479
-6,790	7,889	938,373	502,423
-5,775	7,840	937,856	501,970
-4,760	7,855	937,253	501,676
-3,746	7,869	936,484	501,288
-2,731	7,709	935,762	500,377
-1,717	7,716	935,021	499,981
-0,702	7,709	934,443	499,630
0,313	7,512	934,043	499,548
1,327	10,982	931,634	509,157
2,342	19,646	780,053	449,024
3,356	14,706	448,293	250,588
4,371	-11,170	312,538	147,189
5,386	-14,865	295,157	135,253
6,400	-17,106	289,115	130,251
7,415	-17,208	286,190	128,821
8,429	-18,162	284,361	127,056
9,444	-18,146	283,450	126,654
10,459	-18,136	282,851	126,384
11,473	-18,106	282,222	126,121
12,488	-18,168	281,655	125,796
13,502	-18,173	281,394	125,663
14,517	-18,023	280,650	125,464
15,531	-18,269	280,291	125,057
16,546	-18,318	280,021	124,878
17,561	-18,198	279,428	124,717
18,575	-18,132	279,183	124,660
19,590	-18,224	278,850	124,412
20,604	-18,042	278,603	124,465
21,619	-18,325	278,290	124,043
22,634	-18,162	277,891	124,010
23,648	-18,152	277,451	123,812
24,663	-18,190	277,166	123,638
25,677	-18,385	277,052	123,391
26,692	-18,046	276,702	123,545
27,707	-18,443	276,592	123,109
28,721	-18,274	276,192	123,080
29,736	-18,217	275,860	122,975
30,750	-18,190	275,471	122,816
31,765	-18,311	275,574	122,737
32,780	-18,213	275,116	122,615
33,794	-18,261	274,835	122,433
34,809	-18,144	274,574	122,415
35,823	-18,031	274,226	122,355
36,838	-18,181	274,058	122,129
37,853	-18,199	273,745	121,962
38,867	-18,028	273,482	121,994
39,882	-18,248	273,211	121,656
40,896	-18,052	272,922	121,700
41,911	-18,007	272,755	121,656
42,926	-17,993	272,484	121,538
43,940	-18,082	272,175	121,307
44,955	-18,056	272,003	121,243
45,969	-18,185	271,771	121,009
46,984	-18,025	271,637	121,087
47,999	-18,081	271,505	120,966
49,013	-18,289	271,254	120,650
50,028	-18,152	271,051	120,676
51,042	-18,183	270,872	120,557
52,057	-18,160	270,597	120,445
53,071	-18,076	270,224	120,345
54,086	-18,224	270,084	120,136
55,101	-18,218	269,975	120,083
56,115	-18,006	269,584	120,093
57,130	-18,109	269,386	119,900
58,144	-18,184	269,132	119,707
59,159	-18,185	268,918	119,599
60,174	-18,106	268,684	119,557
61,188	-18,112	268,346	119,391
62,203	-18,156	268,161	119,258
63,217	-18,063	267,970	119,247
64,232	-17,876	267,648	119,264
65,247	-18,054	267,455	119,005
66,261	-18,113	267,134	118,798
67,276	-18,352	267,115	118,561
68,290	-18,097	266,968	118,717
69,305	-18,138	266,672	118,538
70,320	-18,014	266,383	118,512
71,334	-18,102	266,084	118,289
72,349	-17,914	265,875	118,355
73,363	-18,052	265,669	118,128
74,378	-17,933	265,289	118,056
75,393	-18,011	265,343	117,999
76,407	-18,091	264,909	117,723
77,422	-18,188	264,765	117,561
78,436	-18,184	264,547	117,457
79,451	-18,119	264,288	117,390
80,466	-17,998	264,059	117,388
81,480	-18,165	263,778	117,102
82,495	-17,989	263,641	117,189
83,509	-18,183	263,479	116,932
84,524	-18,021	263,297	116,986
85,539	-18,027	263,055	116,863
86,553	-18,142	262,784	116,629
87,568	-18,051	262,723	116,673
88,582	-18,224	262,300	116,320
89,597	-18,224	262,163	116,249
90,611	-18,143	262,027	116,251
91,626	-17,787	261,772	116,445
92,641	-17,857	261,560	116,278
93,655	-18,152	261,534	115,992
94,670	-18,051	261,164	115,908
95,684	-18,080	260,923	115,765
96,699	-18,228	260,859	115,595
97,714	-18,130	260,688	115,596
98,728	-18,102	260,446	115,504
99,743	-17,872	260,185	115,580
100,757	-17,975	259,767	115,293
101,772	-18,180	259,828	115,129
102,787	-18,223	259,592	114,976
103,801	-17,962	259,262	115,050
104,816	-18,133	259,168	114,847
105,830	-18,224	258,916	114,645
106,845	-17,960	258,816	114,823
107,860	-17,933	258,343	114,627
108,874	-18,026	258,343	114,536
109,889	-18,055	258,005	114,350
110,903	-18,073	257,842	114,251
111,918	-17,971	257,620	114,232
112,933	-18,095	257,489	114,055
113,947	-18,032	257,341	114,034
114,962	-18,075	257,079	113,871
115,976	-17,951	256,837	113,862
116,991	-17,972	256,575	113,717
118,006	-17,947	256,594	113,737
119,020	-18,053	256,269	113,491
120,035	-17,953	256,296	113,579
121,049	-18,029	256,020	113,381
122,064	-17,937	255,722	113,319
123,079	-17,937	255,478	113,201
124,093	-18,077	255,327	113,002
125,108	-17,958	255,094	112,992
126,122	-18,005	255,004	112,901
127,137	-17,988	254,870	112,847
128,151	-18,141	254,739	112,646
129,166	-18,004	254,381	112,596
130,181	-17,871	254,121	112,586
131,195	-17,897	253,870	112,443
132,210	-17,880	253,757	112,397
133,224	-18,100	253,548	112,105
134,239	-17,902	253,316	112,162
135,254	-17,887	253,197	112,113
136,268	-18,055	253,033	111,886
137,283	-18,041	252,718	111,749
138,297	-17,930	252,557	111,763
139,312	-17,805	252,278	111,736
140,327	-17,970	252,155	111,530
141,341	-17,996	251,919	111,394
142,356	-17,955	251,635	111,293
143,370	-18,011	251,625	111,231
144,385	-17,862	251,352	111,228
145,400	-17,968	251,261	111,087
146,414	-18,074	251,011	110,877
147,429	-17,926	250,617	110,819
148,443	-17,848	250,652	110,890
149,458	-17,881	250,373	110,729
150,473	-17,982	250,305	110,603
151,487	-17,718	250,006	110,685
152,502	-17,865	249,814	110,466
153,516	-17,947	249,644	110,311
154,531	-17,759	249,393	110,349
155,546	-17,922	249,330	110,174
156,560	-17,916	249,107	110,070
157,575	-17,973	248,889	109,917
158,589	-17,949	248,826	109,899
159,604	-17,790	248,452	109,858
160,619	-18,002	248,466	109,676
161,633	-17,981	248,190	109,562
162,648	-17,734	248,003	109,677
163,662	-17,836	247,818	109,500
164,677	-17,835	247,805	109,486
165,692	-17,897	247,540	109,306
166,706	-17,754	247,464	109,383
167,721	-17,878	247,096	109,107
168,735	-17,858	247,060	109,098
169,750	-17,929	246,955	108,983
170,764	-17,829	246,658	108,925
171,779	-17,979	246,561	108,748
172,794	-17,811	246,461	108,834
173,808	-17,555	246,342	108,984
174,823	-17,871	246,005	108,563
175,837	-17,891	245,906	108,493
176,852	-17,838	245,779	108,472
177,867	-17,965	245,627	108,289
178,881	-17,701	245,440	108,416
179,896	-17,675	245,265	108,351
180,910	-17,868	245,020	108,073
181,925	-17,814	244,759	107,993
182,940	-17,906	244,735	107,897
183,954	-17,998	244,482	107,699
184,969	-17,902	244,307	107,692
185,983	-17,869	244,213	107,668
186,998	-17,727	243,934	107,653
188,013	-17,758	243,719	107,523
189,027	-17,799	243,606	107,430
190,042	-17,729	243,472	107,418
191,056	-17,899	243,308	107,197
192,071	-17,533	242,964	107,336
193,086	-17,764	242,805	107,066
194,100	-17,936	242,881	106,949
195,115	-17,723	242,439	106,920
196,129	-17,547	242,133	106,919
197,144	-17,697	241,969	106,714
198,159	-17,758	241,972	106,656
199,173	-17,944	241,940	106,481
200,188	-17,782	241,616	106,461
201,202	-17,677	241,526	106,498
202,217	-17,689	241,264	106,362
203,232	-17,690	241,062	106,264
204,246	-17,937	240,929	105,995
205,261	-17,514	240,765	106,256
206,275	-15,893	241,303	107,803
207,290	-10,852	243,280	112,806
208,304	-4,954	244,900	118,400
209,319	-3,133	245,258	120,059
210,334	-2,603	245,431	120,569
211,348	-1,566	245,454	121,423
212,363	-0,949	245,767	122,074
213,377	-0,271	245,756	122,615
214,392	0,251	245,580	122,945
215,407	0,566	245,624	123,214
216,421	0,504	245,587	123,134
217,436	0,495	245,433	123,038
218,450	0,766	245,247	123,156
219,465	0,800	245,142	123,121
220,480	0,798	244,975	123,024
221,494	0,825	244,731	122,913
222,509	0,524	244,536	122,558
223,523	0,312	244,335	122,273
224,538	0,167	244,177	122,065
225,553	0,113	243,910	121,877
226,567	0,206	243,724	121,848
227,582	0,083	243,635	121,694
228,596	0,340	243,466	121,807
229,611	0,285	243,416	121,726
230,626	0,131	243,207	121,486
231,640	0,259	242,976	121,463
232,655	0,210	242,733	121,291
233,669	0,113	242,516	121,094
234,684	0,124	242,485	121,077
235,699	-0,118	242,426	120,840
236,713	0,230	242,111	120,954
237,728	0,252	242,092	120,951
238,742	0,299	241,811	120,838
239,757	-0,017	241,811	120,572
240,772	0,171	241,400	120,508
241,786	0,267	241,350	120,550
242,801	0,157	241,301	120,426
243,815	0,078	241,118	120,260
244,830	0,066	240,823	120,093
245,844	0,033	240,811	120,049
246,859	0,187	240,531	120,023
247,874	0,358	240,383	120,075
248,888	0,027	240,338	119,777
249,903	0,138	240,165	119,769
250,917	0,113	240,057	119,684
251,932	0,224	239,949	119,708
252,947	0,365	239,684	119,678
253,961	0,220	239,557	119,489
254,976	0,460	239,283	119,532
255,990	0,224	239,186	119,286
257,005	0,052	239,003	119,047
258,020	0,181	238,870	119,072
259,034	0,232	238,713	119,024
260,049	0,043	238,594	118,803
261,063	-0,063	238,443	118,633
262,078	0,001	238,255	118,580
263,093	0,155	238,136	118,633
264,107	0,101	237,907	118,466
265,122	0,379	237,814	118,628
266,136	0,089	237,764	118,364
267,151	0,492	237,484	118,532
268,166	0,235	237,357	118,255
269,180	0,093	237,237	118,073
270,195	0,179	237,000	118,012
271,209	0,275	236,900	118,027
272,224	0,021	236,776	117,755
273,239	0,193	236,484	117,735
274,253	0,322	236,399	117,784
275,268	0,263	236,209	117,631
276,282	0,201	236,088	117,512
277,297	0,195	235,923	117,415
278,312	0,095	235,723	117,226
279,326	0,310	235,691	117,369
280,341	0,210	235,589	117,229
281,355	0,404	235,354	117,253
282,370	0,366	235,310	117,191
283,384	0,272	234,986	116,946
284,399	0,258	234,938	116,901
285,414	0,229	234,685	116,742
286,428	0,194	234,653	116,688
287,443	0,360	234,514	116,738
288,457	0,385	234,372	116,676
289,472	0,181	234,189	116,416
290,487	0,108	234,062	116,286
291,501	0,215	233,897	116,277
292,516	0,449	233,685	116,342
293,530	0,230	233,743	116,191
294,545	0,488	233,421	116,220
295,560	0,341	233,285	116,028
296,574	0,291	233,146	115,911
297,589	0,419	232,774	115,814
298,603	0,509	232,858	115,915
299,618	0,169	232,693	115,561
300,633	0,475	232,596	115,738
301,647	0,472	232,447	115,651
302,662	0,456	232,292	115,551
303,676	0,427	232,233	115,489
304,691	0,239	231,928	115,183
305,706	0,434	231,756	115,237
306,720	0,392	231,730	115,181
307,735	0,490	231,600	115,181
308,749	0,374	231,508	115,036
309,764	0,401	231,374	114,980
310,779	0,483	231,160	114,927
311,793	0,405	230,836	114,696
312,808	0,448	230,737	114,670
313,822	0,563	230,568	114,663
314,837	0,428	230,611	114,571
315,852	0,470	230,220	114,398
316,866	0,645	230,135	114,479
317,881	0,592	229,945	114,334
318,895	0,326	230,091	114,194
319,910	0,573	229,614	114,134
320,925	0,474	229,657	114,071
321,939	0,382	229,544	113,934
322,954	0,606	229,246	113,946
323,968	0,639	229,294	113,985
324,983	0,649	229,077	113,875
325,997	0,495	228,902	113,661
327,012	0,397	228,714	113,484
328,027	0,540	228,660	113,555
329,041	0,566	228,405	113,437
330,056	0,624	228,445	113,491
331,070	0,509	228,199	113,272
332,085	0,649	228,036	113,286
333,100	0,480	227,822	113,043
334,114	0,522	227,559	112,934
335,129	0,715	227,490	113,035
336,143	0,755	227,228	112,924
337,158	0,660	227,376	112,917
338,173	0,606	227,328	112,842
339,187	0,528	227,134	112,677
340,202	0,701	226,937	112,699
341,216	0,909	226,758	112,756
342,231	0,555	226,685	112,444
343,246	0,366	226,597	112,249
344,260	0,659	226,379	112,350
345,275	0,717	226,086	112,238
346,289	0,729	226,039	112,214
347,304	0,793	225,929	112,197
348,319	0,659	225,688	111,968
349,333	0,624	225,700	111,937
350,348	0,621	225,473	111,812
351,362	0,775	225,323	111,842
352,377	0,498	225,157	111,545
353,392	0,680	225,012	111,598
354,406	0,859	224,911	111,671
355,421	192,270	1311,262	1377,122
356,435	154,005	1443,468	1376,971
