DTS Sentinel unit serial number:	SN410029Multiplexer serial number:	ORYXHardware model number:	OX2-SRSoftware version number:	ORYX F/W v4,00 Oryx Data Collector v3.7.2.0data status	okinstallation	B5 Nyhavnadifferential loss correction	single-endedforward channel	channel 2reverse channel	N/Adate	2023/12/13time	08:02:13forward acquisition time	300,00reverse acquisition time	0,00gamma	499,1914k internal	0,3160k external	0,3160temperature offset calibration	1,0000default loss term (dB/km)	0,3820temperature slope calibration	1,0000multiplexer offset coefficient	1,0000multiplexer slope coefficient	1,0000fibre end	0,00T internal ref (°C)	13,65T ext. ref 1 (°C)	-2,80T ext. ref 2 (°C)	-3,13length (m)	temperature (°C)	Stokes	anti-Stokes-744,400	-163,120	0,077	-0,003
-743,385	-127,902	-0,346	-0,036
-742,371	66,885	0,144	0,108
-741,356	-131,254	-0,325	0,031
-740,342	478,654	0,131	0,220
-739,327	-142,429	-0,356	0,025
-738,312	150,244	-0,050	-0,050
-737,298	-114,977	-0,279	0,039
-736,283	168,359	0,073	0,077
-735,269	-112,274	-0,187	0,027
-734,254	101,801	0,052	-0,045
-733,239	-63,507	-0,361	-0,108
-732,225	-18,012	0,146	-0,067
-731,210	800,000	0,028	0,064
-730,196	-173,798	0,066	-0,001
-729,181	52,838	-0,065	-0,046
-728,167	-200,000	-0,010	-0,148
-727,152	675,733	-0,033	-0,064
-726,137	-200,000	0,001	-0,081
-725,123	-200,000	-0,003	-0,073
-724,108	-154,612	0,164	-0,008
-723,094	-110,860	-0,121	0,018
-722,079	115,946	0,108	-0,098
-721,064	334,231	-0,078	-0,112
-720,050	-95,986	-0,081	-0,016
-719,035	164,017	0,103	-0,107
-718,021	800,000	-0,033	-0,078
-717,006	-2,029	-0,197	-0,102
-715,991	73,932	0,100	-0,077
-714,977	-200,000	0,027	-0,124
-713,962	-200,000	-0,017	-0,098
-712,948	-99,186	-0,090	0,017
-711,933	-200,000	0,002	0,071
-710,918	-79,528	-0,088	0,022
-709,904	800,000	-0,039	-0,090
-708,889	184,365	0,090	-0,098
-707,875	53,096	-0,117	-0,082
-706,860	-43,149	0,094	-0,035
-705,845	-200,000	0,031	0,110
-704,831	99,294	0,013	-0,011
-703,816	115,197	0,096	0,086
-702,802	185,061	0,065	-0,071
-701,787	-200,000	0,017	-0,137
-700,772	-200,000	-0,024	-0,125
-699,758	-16,089	-0,049	-0,023
-698,743	1,894	0,108	0,057
-697,729	40,152	-0,100	0,066
-696,714	30,864	0,067	0,042
-695,699	-42,231	-0,118	-0,044
-694,685	-200,000	0,004	0,149
-693,670	-187,611	-0,069	0,001
-692,656	-71,983	-0,107	-0,029
-691,641	42,557	-0,098	-0,066
-690,627	400,695	-0,051	-0,078
-689,612	-200,000	0,013	-0,108
-688,597	-78,328	-0,017	-0,004
-687,583	68,738	0,084	0,063
-686,568	-200,000	-0,022	-0,105
-685,554	-200,000	-0,011	-0,081
-684,539	74,296	-0,137	-0,105
-683,524	2,602	0,061	0,032
-682,510	-200,000	0,000	-0,037
-681,495	530,180	-0,095	-0,165
-680,481	-200,000	-0,000	0,043
-679,466	-35,388	0,074	-0,029
-678,451	81,159	0,076	-0,060
-677,437	-200,000	0,006	-0,052
-676,422	275,855	0,050	0,065
-675,408	-62,686	-0,027	0,008
-674,393	737,060	0,008	0,017
-673,378	200,374	-0,048	-0,054
-672,364	240,680	-0,092	0,113
-671,349	400,986	-0,084	0,129
-670,335	-200,000	-0,024	-0,085
-669,320	628,938	-0,097	0,180
-668,305	-200,000	0,029	-0,112
-667,291	-42,372	0,030	-0,011
-666,276	72,238	-0,195	0,149
-665,262	106,058	-0,073	-0,063
-664,247	694,007	0,025	-0,048
-663,232	800,000	-0,075	-0,203
-662,218	-27,021	0,070	0,030
-661,203	-200,000	-0,084	0,000
-660,189	-74,906	-0,059	0,016
-659,174	220,784	-0,043	0,051
-658,159	-157,409	-0,098	-0,004
-657,145	-136,627	-0,068	-0,006
-656,130	-104,786	-0,118	0,020
-655,116	-75,796	-0,074	-0,019
-654,101	421,070	-0,106	0,167
-653,086	-200,000	0,016	0,059
-652,072	-200,000	-0,009	-0,108
-651,057	-200,000	-0,004	-0,081
-650,043	-22,228	-0,189	0,084
-649,028	25,883	0,073	0,045
-648,014	0,918	0,129	-0,068
-646,999	-200,000	0,017	-0,058
-645,984	800,000	-0,049	0,118
-644,970	169,247	0,078	-0,081
-643,955	-57,128	0,111	0,036
-642,941	800,000	0,048	-0,127
-641,926	-101,061	0,074	0,013
-640,911	800,000	-0,050	0,106
-639,897	71,499	0,079	0,060
-638,882	-60,107	-0,066	0,021
-637,868	583,961	0,058	-0,105
-636,853	-200,000	-0,002	-0,078
-635,838	416,946	-0,045	0,071
-634,824	-200,000	0,002	0,013
-633,809	198,106	-0,018	0,020
-632,795	-150,730	0,140	-0,008
-631,780	800,000	-0,052	-0,107
-630,765	94,696	0,013	0,011
-629,751	-114,943	0,065	0,009
-628,736	800,000	-0,067	-0,186
-627,722	-131,953	-0,110	-0,010
-626,707	-200,000	0,001	-0,020
-625,692	-16,796	0,064	0,030
-624,678	376,362	0,059	-0,088
-623,663	360,163	0,037	-0,054
-622,649	469,708	-0,076	0,126
-621,634	-200,000	-0,020	0,103
-620,619	-23,739	0,165	-0,072
-619,605	-200,000	-0,029	-0,099
-618,590	-52,853	-0,031	-0,010
-617,576	-59,453	0,159	-0,050
-616,561	152,040	-0,039	0,039
-615,546	38,956	-0,067	0,044
-614,532	106,379	-0,164	-0,143
-613,517	800,000	0,040	-0,129
-612,503	800,000	0,010	-0,031
-611,488	147,296	0,076	0,075
-610,474	53,164	0,074	0,052
-609,459	-132,343	0,083	0,008
-608,444	46,578	-0,044	-0,030
-607,430	-200,000	-0,002	0,022
-606,415	800,000	-0,049	0,106
-605,401	800,000	0,071	-0,171
-604,386	12,838	0,177	0,100
-603,371	-132,871	0,142	-0,013
-602,357	49,896	-0,114	0,079
-601,342	-26,669	-0,076	-0,032
-600,328	194,266	-0,034	0,038
-599,313	163,616	-0,062	-0,064
-598,298	-200,000	-0,139	-0,000
-597,284	188,576	0,056	0,061
-596,269	-23,977	0,015	0,007
-595,255	800,000	-0,018	0,038
-594,240	800,000	-0,061	0,145
-593,225	800,000	-0,085	-0,199
-592,211	224,355	0,095	-0,112
-591,196	-115,335	-0,120	-0,016
-590,182	14,158	0,200	-0,114
-589,167	282,110	-0,059	0,078
-588,152	-200,000	0,004	-0,056
-587,138	29,753	-0,114	0,071
-586,123	-200,000	-0,046	0,169
-585,109	-71,402	-0,123	-0,033
-584,094	-200,000	-0,011	-0,083
-583,079	-200,000	0,013	0,078
-582,065	-36,322	0,227	0,089
-581,050	-125,103	-0,060	-0,007
-580,036	412,397	0,050	0,079
-579,021	-35,668	-0,072	-0,029
-578,006	-142,432	0,160	0,011
-576,992	131,266	-0,073	-0,068
-575,977	-200,000	0,030	-0,099
-574,963	-200,000	-0,011	0,067
-573,948	-42,090	0,144	-0,054
-572,934	-200,000	0,014	-0,208
-571,919	45,910	-0,056	0,038
-570,904	-95,384	-0,095	0,018
-569,890	-200,000	0,024	0,082
-568,875	-156,079	-0,085	0,004
-567,861	-200,000	0,015	0,094
-566,846	-101,832	0,179	0,031
-565,831	800,000	-0,007	-0,017
-564,817	-70,397	-0,038	0,011
-563,802	28,714	-0,131	-0,081
-562,788	-62,243	-0,209	0,063
-561,773	-200,000	-0,017	0,171
-560,758	190,200	-0,047	0,051
-559,744	800,000	-0,022	0,056
-558,729	-59,504	0,010	0,003
-557,715	800,000	-0,038	-0,090
-556,700	231,542	0,115	-0,139
-555,685	46,153	-0,050	0,034
-554,671	-200,000	0,012	-0,159
-553,656	-111,895	-0,116	0,017
-552,642	-79,552	0,092	-0,023
-551,627	-200,000	-0,021	-0,129
-550,612	-129,458	-0,120	-0,012
-549,598	-39,347	-0,089	-0,034
-548,583	-200,000	0,013	-0,121
-547,569	204,418	-0,071	0,081
-546,554	376,085	0,024	0,035
-545,539	-200,000	-0,027	0,123
-544,525	-108,743	-0,141	0,022
-543,510	32,036	-0,074	-0,046
-542,496	-200,000	0,017	-0,121
-541,481	-200,000	-0,025	-0,109
-540,466	217,920	0,085	-0,099
-539,452	422,180	-0,016	-0,026
-538,437	800,000	-0,062	0,139
-537,423	-200,000	-0,012	0,052
-536,408	800,000	-0,030	-0,077
-535,393	-152,643	0,105	-0,005
-534,379	559,827	-0,024	0,043
-533,364	-42,640	-0,125	0,046
-532,350	-200,000	0,003	0,013
-531,335	144,243	0,018	0,018
-530,321	-28,593	0,126	0,053
-529,306	-150,767	-0,135	0,007
-528,291	-37,065	0,007	0,003
-527,277	150,019	-0,061	-0,061
-526,262	-200,000	-0,013	0,104
-525,248	-200,000	-0,010	-0,039
-524,233	-200,000	-0,007	-0,026
-523,218	333,202	0,027	0,039
-522,204	-200,000	-0,038	0,133
-521,189	-200,000	-0,000	-0,129
-520,175	704,375	-0,049	-0,095
-519,160	-15,236	0,033	-0,015
-518,145	800,000	0,035	-0,085
-517,131	-200,000	-0,012	0,115
-516,116	592,246	-0,003	-0,006
-515,102	-200,000	0,004	-0,013
-514,087	140,188	-0,127	-0,123
-513,072	-16,226	-0,088	-0,040
-512,058	-96,425	0,061	0,012
-511,043	-200,000	0,000	0,012
-510,029	-200,000	0,014	0,173
-509,014	67,578	-0,115	0,086
-507,999	-82,299	0,061	0,014
-506,985	-18,162	-0,084	0,038
-505,970	129,944	-0,141	-0,132
-504,956	-118,000	0,101	-0,013
-503,941	-35,202	0,101	0,040
-502,926	-87,321	-0,044	-0,010
-501,912	292,702	-0,031	0,042
-500,897	-64,074	0,116	0,034
-499,883	16,538	-0,208	0,119
-498,868	-58,520	-0,089	0,028
-497,853	800,000	-0,051	-0,106
-496,839	-200,000	0,010	-0,058
-495,824	-200,000	0,009	-0,066
-494,810	16,969	0,029	0,017
-493,795	-13,984	-0,067	0,032
-492,781	800,000	-0,037	-0,109
-491,766	-108,432	0,155	0,024
-490,751	728,461	-0,051	0,101
-489,737	314,633	0,031	0,043
-488,722	434,007	-0,046	0,073
-487,708	104,057	-0,029	-0,025
-486,693	195,730	-0,074	-0,083
-485,678	-96,357	-0,132	0,025
-484,664	-35,667	-0,009	0,003
-483,649	-7,182	-0,095	-0,047
-482,635	405,405	-0,054	0,083
-481,620	496,309	0,006	0,010
-480,605	-38,102	0,095	0,037
-479,591	5,546	-0,083	-0,044
-478,576	220,342	-0,046	0,053
-477,562	337,790	0,059	0,083
-476,547	-92,158	-0,157	-0,032
-475,532	83,807	-0,072	-0,057
-474,518	-40,414	0,103	-0,039
-473,503	574,297	-0,065	0,116
-472,489	800,000	0,027	0,063
-471,474	16,789	-0,089	0,051
-470,459	-105,852	-0,117	-0,019
-469,445	-200,000	-0,011	-0,095
-468,430	378,988	-0,059	-0,089
-467,416	14,193	0,066	-0,037
-466,401	8,815	0,164	-0,090
-465,386	-200,000	-0,034	0,201
-464,372	-60,261	0,072	0,022
-463,357	126,543	0,006	-0,005
-462,343	65,429	0,019	0,014
-461,328	289,519	-0,033	0,044
-460,313	-200,000	0,006	-0,036
-459,299	699,309	0,020	0,038
-458,284	158,332	0,064	0,065
-457,270	434,544	0,029	0,046
-456,255	-56,277	-0,056	0,018
-455,241	455,885	0,071	-0,116
-454,226	800,000	-0,005	-0,012
-453,211	-200,000	0,002	-0,008
-452,197	250,637	0,078	0,096
-451,182	800,000	-0,046	0,096
-450,168	38,657	0,090	0,059
-449,153	-9,883	-0,071	-0,034
-448,138	800,000	0,031	-0,070
-447,124	44,842	-0,096	-0,064
-446,109	-51,151	0,040	-0,014
-445,095	-76,924	0,103	0,026
-444,080	-26,780	-0,071	-0,030
-443,065	-200,000	0,000	-0,056
-442,051	394,821	0,092	0,140
-441,036	-200,000	-0,020	-0,080
-440,022	-14,237	-0,151	0,071
-439,007	-200,000	0,002	0,114
-437,992	-9,622	0,040	0,019
-436,978	-143,670	-0,061	0,004
-435,963	31,600	0,044	-0,028
-434,949	203,020	-0,109	0,123
-433,934	-82,169	-0,068	-0,016
-432,919	556,744	-0,086	-0,151
-431,905	800,000	0,019	0,042
-430,890	-86,343	-0,090	0,020
-429,876	12,938	-0,042	-0,023
-428,861	119,925	0,097	0,088
-427,846	-57,661	-0,052	-0,017
-426,832	-42,554	-0,063	0,023
-425,817	55,400	-0,115	-0,081
-424,803	-200,000	-0,003	0,019
-423,788	200,289	-0,055	0,061
-422,773	148,117	-0,059	0,058
-421,759	371,896	0,037	0,054
-420,744	238,815	0,076	0,092
-419,730	-5,964	-0,037	-0,019
-418,715	71,165	-0,032	0,024
-417,701	-111,475	-0,204	-0,030
-416,686	-76,272	-0,037	0,009
-415,671	-108,592	0,139	0,021
-414,657	72,791	-0,074	-0,056
-413,642	-132,106	-0,019	0,002
-412,628	-200,000	0,033	-0,140
-411,613	800,000	0,038	-0,078
-410,598	-200,000	0,015	0,068
-409,584	-200,000	-0,010	0,106
-408,569	299,801	0,030	0,040
-407,555	134,024	0,036	0,034
-406,540	59,801	-0,166	0,119
-405,525	-200,000	-0,047	-0,171
-404,511	-200,000	0,033	0,127
-403,496	405,042	0,057	0,087
-402,482	-200,000	-0,017	0,089
-401,467	-200,000	0,009	0,077
-400,452	-6,122	-0,070	-0,035
-399,438	-200,000	0,014	0,080
-398,423	-189,337	0,070	-0,001
-397,409	-12,520	-0,085	-0,040
-396,394	-113,171	0,031	0,004
-395,379	-191,680	-0,092	-0,001
-394,365	2,748	0,079	-0,041
-393,350	-200,000	-0,014	0,111
-392,336	-67,764	0,137	0,039
-391,321	-86,851	-0,151	-0,033
-390,306	-97,658	-0,072	0,013
-389,292	-200,000	0,020	-0,072
-388,277	714,816	-0,026	-0,050
-387,263	-200,000	0,004	0,029
-386,248	138,540	-0,056	0,053
-385,233	-200,000	0,005	0,044
-384,219	-200,000	0,000	-0,096
-383,204	-200,000	0,005	-0,098
-382,190	-200,000	0,024	-0,157
-381,175	-60,298	0,054	0,017
-380,160	-41,023	-0,078	0,029
-379,146	64,111	0,139	-0,102
-378,131	1,273	0,130	-0,067
-377,117	0,612	-0,086	-0,044
-376,102	-113,093	0,179	-0,025
-375,088	-31,910	-0,081	-0,033
-374,073	-89,198	-0,110	0,023
-373,058	509,843	0,082	-0,139
-372,044	269,400	0,035	0,044
-371,029	107,904	-0,047	-0,041
-370,015	74,608	0,093	-0,071
-369,000	-30,550	-0,058	0,024
-367,985	25,573	-0,069	-0,042
-366,971	236,243	-0,022	0,027
-365,956	-112,803	0,147	0,021
-364,942	-150,851	-0,076	0,004
-363,927	-68,071	0,082	0,023
-362,912	-200,000	-0,001	-0,129
-361,898	800,000	0,021	-0,044
-360,883	241,158	-0,011	-0,013
-359,869	-140,487	-0,055	0,004
-358,854	63,358	0,060	0,044
-357,839	-121,709	0,078	0,009
-356,825	492,446	0,071	0,119
-355,810	800,000	-0,016	-0,033
-354,796	-24,944	-0,031	-0,013
-353,781	413,064	-0,054	0,084
-352,766	-4,039	0,123	-0,062
-351,752	23,937	0,075	-0,045
-350,737	-103,549	-0,062	0,010
-349,723	800,000	-0,001	-0,002
-348,708	-200,000	0,000	-0,072
-347,693	-1,342	0,068	-0,035
-346,679	-82,697	0,113	-0,026
-345,664	212,603	-0,124	-0,142
-344,650	59,745	0,049	-0,035
-343,635	-70,776	0,116	0,032
-342,620	-200,000	-0,008	0,060
-341,606	-149,262	0,117	0,007
-340,591	6,070	-0,056	-0,030
-339,577	-87,816	-0,052	-0,011
-338,562	46,782	-0,141	-0,095
-337,548	200,243	0,040	0,045
-336,533	48,277	0,072	-0,049
-335,518	76,950	0,069	0,053
-334,504	-87,097	0,071	0,016
-333,489	431,328	0,037	-0,058
-332,475	44,903	-0,054	0,036
-331,460	-200,000	0,000	-0,011
-330,445	119,945	0,081	-0,073
-329,431	-200,000	-0,000	-0,026
-328,416	-67,310	0,061	0,017
-327,402	335,937	-0,041	-0,058
-326,387	549,996	0,034	0,059
-325,372	361,114	-0,030	0,043
-324,358	797,923	-0,046	-0,091
-323,343	-3,030	0,068	-0,034
-322,329	-170,387	-0,170	0,004
-321,314	-60,347	0,051	0,016
-320,299	205,479	0,060	-0,068
-319,285	55,995	0,050	-0,035
-318,270	128,559	0,082	-0,076
-317,256	-200,000	0,010	0,136
-316,241	8,408	0,126	0,068
-315,226	-200,000	0,016	0,064
-314,212	-53,909	0,113	0,037
-313,197	-18,924	0,131	0,059
-312,183	16,147	-0,051	0,029
-311,168	187,905	-0,082	-0,089
-310,153	512,989	0,014	0,024
-309,139	-200,000	-0,001	0,099
-308,124	-200,000	0,016	0,056
-307,110	-150,138	0,183	0,010
-306,095	-28,353	-0,114	0,048
-305,080	-84,013	0,012	-0,003
-304,066	-43,792	-0,022	0,008
-303,051	-200,000	0,020	0,098
-302,037	435,958	-0,060	-0,095
-301,022	623,115	-0,055	-0,100
-300,008	-200,000	0,035	-0,114
-298,993	45,678	0,055	-0,037
-297,978	-200,000	0,004	0,030
-296,964	184,745	0,080	0,086
-295,949	-125,389	-0,066	0,007
-294,935	20,970	-0,006	0,004
-293,920	-200,000	-0,028	-0,100
-292,905	-200,000	0,000	0,094
-291,891	-88,234	-0,016	-0,003
-290,876	46,667	0,088	0,059
-289,862	-61,432	0,064	-0,019
-288,847	-200,000	-0,003	0,060
-287,832	152,676	-0,029	0,029
-286,818	509,451	-0,092	0,156
-285,803	-159,999	-0,036	0,001
-284,789	247,974	-0,062	0,076
-283,774	800,000	0,034	-0,082
-282,759	120,478	-0,097	0,087
-281,745	211,513	-0,063	0,072
-280,730	28,072	0,095	0,058
-279,716	-49,750	0,141	-0,048
-278,701	-200,000	-0,007	0,035
-277,686	312,770	0,129	0,175
-276,672	-80,500	-0,119	0,028
-275,657	35,589	-0,045	0,028
-274,643	-66,732	-0,111	-0,031
-273,628	133,508	0,039	-0,037
-272,613	-146,708	-0,053	-0,003
-271,599	-200,000	-0,006	-0,046
-270,584	496,566	0,035	0,058
-269,570	-92,689	0,049	0,010
-268,555	89,367	0,142	0,115
-267,540	-110,171	0,081	-0,012
-266,526	-200,000	0,010	0,112
-265,511	-146,200	-0,074	-0,005
-264,497	800,000	0,008	-0,020
-263,482	-200,000	-0,007	-0,091
-262,467	-200,000	-0,012	0,066
-261,453	-132,877	-0,042	-0,004
-260,438	800,000	0,033	-0,068
-259,424	398,863	-0,042	0,064
-258,409	-24,441	-0,130	-0,056
-257,395	800,000	0,022	-0,063
-256,380	755,100	0,089	0,175
-255,365	88,824	0,037	-0,030
-254,351	-200,000	0,026	-0,095
-253,336	584,882	-0,035	-0,062
-252,322	42,207	-0,097	-0,064
-251,307	-200,000	-0,002	-0,030
-250,292	-105,612	0,163	0,026
-249,278	554,265	0,046	0,081
-248,263	526,131	0,058	-0,099
-247,249	-200,000	-0,016	0,219
-246,234	-200,000	-0,019	-0,194
-245,219	-90,314	-0,063	0,013
-244,205	186,349	-0,068	-0,073
-243,190	-86,160	0,050	0,011
-242,176	-200,000	0,001	0,096
-241,161	492,222	0,054	0,089
-240,146	-126,664	0,118	-0,012
-239,132	46,321	0,014	0,009
-238,117	-105,392	-0,118	-0,019
-237,103	-200,000	-0,007	0,072
-236,088	126,480	0,101	-0,093
-235,073	-101,432	-0,017	0,003
-234,059	117,189	0,095	-0,085
-233,044	140,382	-0,083	0,079
-232,030	-74,570	0,070	-0,018
-231,015	241,098	-0,092	-0,111
-230,000	-200,000	0,060	-0,212
-228,986	157,245	0,040	0,040
-227,971	800,000	0,015	-0,047
-226,957	-82,065	0,133	-0,031
-225,942	119,203	-0,069	0,061
-224,927	255,638	-0,028	0,034
-223,913	184,287	-0,085	0,091
-222,898	-103,466	0,127	-0,021
-221,884	800,000	-0,055	-0,153
-220,869	-24,552	-0,080	-0,034
-219,855	578,972	-0,066	0,117
-218,840	-38,405	-0,022	-0,009
-217,825	-200,000	-0,005	-0,071
-216,811	-199,545	-0,059	-0,000
-215,796	-66,641	-0,063	0,018
-214,782	-200,000	0,013	-0,266
-213,767	-173,285	0,138	-0,003
-212,752	295,036	0,060	0,080
-211,738	40,901	-0,021	-0,013
-210,723	-200,000	0,025	0,192
-209,709	213,668	-0,061	-0,069
-208,694	-148,667	-0,078	-0,005
-207,679	113,970	0,076	-0,067
-206,665	800,000	-0,033	-0,071
-205,650	385,954	-0,050	0,074
-204,636	-200,000	0,014	-0,065
-203,621	-53,735	0,123	-0,040
-202,606	800,000	0,041	0,094
-201,592	-47,979	-0,063	-0,022
-200,577	-13,967	-0,134	-0,062
-199,563	706,088	0,023	-0,045
-198,548	-167,015	0,206	0,006
-197,533	-200,000	-0,008	0,096
-196,519	20,560	-0,066	0,038
-195,504	800,000	0,026	0,052
-194,490	800,000	0,047	-0,096
-193,475	-200,000	0,016	-0,068
-192,460	-100,852	-0,068	-0,012
-191,446	-200,000	0,014	0,158
-190,431	683,985	0,065	-0,123
-189,417	-132,749	-0,076	0,007
-188,402	-200,000	0,016	-0,055
-187,387	800,000	0,051	-0,116
-186,373	-200,000	-0,004	-0,135
-185,358	-97,539	-0,112	-0,021
-184,344	800,000	0,023	0,055
-183,329	-200,000	0,005	-0,114
-182,315	59,141	0,097	0,069
-181,300	498,902	-0,040	-0,067
-180,285	412,815	0,050	0,078
-179,271	58,820	-0,040	-0,028
-178,256	-134,135	0,043	0,004
-177,242	-44,497	0,092	0,033
-176,227	-113,711	-0,047	-0,007
-175,212	793,397	0,012	-0,023
-174,198	24,876	0,018	0,011
-173,183	499,933	0,022	0,037
-172,169	-200,000	-0,006	-0,101
-171,154	84,188	-0,032	-0,025
-170,139	-200,000	-0,004	0,036
-169,125	-134,042	0,170	0,015
-168,110	8,436	0,075	0,041
-167,096	800,000	0,020	-0,054
-166,081	-200,000	0,002	0,076
-165,066	129,143	0,043	0,039
-164,052	-200,000	-0,008	0,114
-163,037	193,747	-0,054	0,059
-162,023	-7,442	0,100	-0,048
-161,008	-70,909	-0,064	-0,017
-159,993	800,000	-0,044	0,135
-158,979	-39,916	0,104	0,039
-157,964	-200,000	-0,010	-0,083
-156,950	-44,256	0,034	-0,012
-155,935	-1,565	0,082	0,041
-154,920	5,985	0,117	0,062
-153,906	-200,000	-0,001	0,129
-152,891	-8,732	-0,190	0,092
-151,877	379,880	-0,047	-0,070
-150,862	298,891	-0,073	0,097
-149,847	-200,000	0,006	-0,037
-148,833	231,974	0,107	0,127
-147,818	13,831	-0,107	-0,060
-146,804	-113,416	0,018	-0,003
-145,789	-200,000	0,006	0,061
-144,775	-91,038	-0,103	0,021
-143,760	-200,000	-0,016	-0,108
-142,745	112,812	-0,063	-0,055
-141,731	-200,000	-0,014	-0,082
-140,716	-61,953	0,077	-0,023
-139,702	-200,000	0,014	-0,106
-138,687	-2,951	0,041	0,020
-137,672	75,431	0,089	-0,067
-136,658	134,699	-0,088	-0,083
-135,643	20,029	-0,065	-0,037
-134,629	45,897	-0,088	-0,058
-133,614	48,821	0,064	0,043
-132,599	133,013	0,063	0,058
-131,585	-100,789	-0,035	-0,006
-130,570	800,000	-0,018	-0,056
-129,556	-95,918	-0,131	-0,025
-128,541	0,324	-0,121	-0,062
-127,526	-49,106	0,048	-0,017
-126,512	198,648	-0,042	-0,047
-125,497	-132,768	0,079	0,007
-124,483	-200,000	0,012	-0,118
-123,468	94,883	-0,105	-0,086
-122,453	-200,000	-0,008	-0,054
-121,439	800,000	-0,078	-0,158
-120,424	339,414	0,023	0,033
-119,410	18,075	0,019	0,011
-118,395	-69,291	0,036	0,010
-117,380	624,673	0,028	-0,051
-116,366	237,883	0,055	0,066
-115,351	-200,000	0,022	-0,077
-114,337	-63,906	-0,121	-0,035
-113,322	-200,000	-0,027	-0,157
-112,307	-200,000	0,005	-0,105
-111,293	357,284	-0,039	-0,055
-110,278	800,000	0,030	-0,076
-109,264	171,822	0,109	-0,113
-108,249	514,918	-0,058	-0,098
-107,234	94,977	0,091	0,075
-106,220	-200,000	-0,044	0,198
-105,205	-200,000	-0,013	0,256
-104,191	-160,906	0,165	0,006
-103,176	-153,414	-0,042	-0,002
-102,162	-200,000	-0,004	0,064
-101,147	151,922	0,039	0,038
-100,132	800,000	0,022	-0,068
-99,118	42,975	-0,073	-0,048
-98,103	49,843	-0,069	-0,047
-97,089	39,834	0,054	-0,035
-96,074	-200,000	0,006	-0,069
-95,059	120,109	-0,079	-0,071
-94,045	-32,311	0,076	0,030
-93,030	25,102	-0,101	-0,060
-92,016	7,135	-0,008	0,004
-91,001	-200,000	-0,015	-0,188
-89,986	-86,413	0,067	-0,015
-88,972	-76,854	0,087	-0,022
-87,957	-17,513	0,020	-0,009
-86,943	-53,558	-0,046	0,015
-85,928	56,477	-0,026	-0,018
-84,913	-200,000	-0,005	-0,076
-83,899	232,350	0,056	-0,066
-82,884	98,456	-0,119	-0,099
-81,870	237,575	-0,025	-0,029
-80,855	800,000	0,039	0,112
-79,840	-200,000	0,005	-0,067
-78,826	433,569	-0,037	0,058
-77,811	17,277	-0,065	-0,037
-76,797	-75,740	-0,079	-0,020
-75,782	-200,000	-0,012	-0,080
-74,767	184,219	0,103	0,109
-73,753	115,661	-0,068	0,059
-72,738	800,000	0,037	0,095
-71,724	-200,000	-0,019	-0,110
-70,709	-200,000	-0,015	-0,084
-69,694	-19,647	-0,151	0,067
-68,680	-47,345	0,043	-0,015
-67,665	235,067	0,042	-0,050
-66,651	-153,840	-0,116	-0,006
-65,636	9,407	0,066	-0,035
-64,622	-200,000	-0,059	0,189
-63,607	554,298	0,032	-0,056
-62,592	-48,370	-0,077	0,026
-61,578	132,248	-0,106	0,098
-60,563	78,478	0,035	0,027
-59,549	-200,000	-0,052	0,227
-58,534	29,278	-2,182	-1,326
-57,519	-200,000	-0,146	-0,785
-56,505	-200,000	-1,330	-5,047
-55,490	131,255	0,839	0,773
-54,476	800,000	5,401	12,103
-53,461	-200,000	18,694	318,368
-52,446	800,000	741,785	2335,055
-51,432	558,099	1657,610	2878,632
-50,417	111,041	1641,200	1416,979
-49,403	75,412	1290,960	975,927
-48,388	30,233	1031,828	630,189
-47,373	19,920	994,327	573,100
-46,359	17,380	982,015	557,614
-45,344	14,047	978,110	544,410
-44,330	14,370	976,484	544,546
-43,315	13,729	974,707	541,431
-42,300	13,662	973,651	540,603
-41,286	13,670	972,796	540,132
-40,271	13,708	971,658	539,602
-39,257	13,657	971,013	539,057
-38,242	13,651	970,130	538,526
-37,227	13,627	969,320	537,975
-36,213	13,725	968,018	537,551
-35,198	13,627	967,404	536,868
-34,184	13,700	966,604	536,642
-33,169	13,653	965,586	535,903
-32,154	13,635	964,721	535,344
-31,140	13,677	963,735	534,912
-30,125	13,683	963,182	534,601
-29,111	13,673	962,229	534,021
-28,096	13,672	961,674	533,687
-27,082	13,729	960,806	533,369
-26,067	13,710	960,118	532,906
-25,052	13,710	959,402	532,486
-24,038	13,680	958,652	531,951
-23,023	13,633	958,146	531,498
-22,009	13,700	957,541	531,358
-20,994	13,643	956,828	530,758
-19,979	13,735	956,189	530,677
-18,965	13,654	955,581	530,057
-17,950	13,751	954,864	529,950
-16,936	13,650	954,429	529,365
-15,921	13,642	953,660	528,890
-14,906	13,601	952,923	528,329
-13,892	13,582	952,116	527,801
-12,877	13,564	951,496	527,378
-11,863	13,559	950,851	526,985
-10,848	13,572	950,334	526,717
-9,833	13,637	949,965	526,700
-8,819	13,663	949,212	526,347
-7,804	13,598	948,593	525,775
-6,790	13,544	948,170	525,345
-5,775	13,612	947,466	525,151
-4,760	13,631	946,793	524,818
-3,746	13,557	946,394	524,339
-2,731	13,473	945,433	523,520
-1,717	13,430	944,810	523,018
-0,702	13,422	944,315	522,697
0,313	13,226	943,400	522,357
1,327	16,576	941,082	531,637
2,342	25,608	795,709	473,504
3,356	21,983	460,110	268,213
4,371	-4,983	317,278	156,010
5,386	-8,735	298,952	143,154
6,400	-10,923	293,089	138,141
7,415	-11,242	290,409	136,549
8,429	-11,416	288,961	135,683
9,444	-11,611	287,898	134,980
10,459	-11,325	287,352	134,993
11,473	-11,719	286,860	134,364
12,488	-11,377	286,182	134,369
13,502	-11,451	285,586	134,004
14,517	-11,296	285,324	134,021
15,531	-11,545	284,985	133,607
16,546	-11,328	284,426	133,544
17,561	-11,288	283,920	133,334
18,575	-11,347	283,773	133,195
19,590	-11,328	283,240	132,951
20,604	-11,260	283,012	132,899
21,619	-11,802	282,778	132,254
22,634	-11,310	282,250	132,469
23,648	-11,545	282,127	132,173
24,663	-11,264	281,738	132,250
25,677	-11,467	281,629	131,992
26,692	-11,423	281,367	131,899
27,707	-11,513	281,098	131,674
28,721	-11,531	280,744	131,480
29,736	-11,396	280,257	131,370
30,750	-11,440	280,088	131,236
31,765	-11,453	279,913	131,130
32,780	-11,263	279,516	131,114
33,794	-11,420	279,282	130,843
34,809	-11,413	279,174	130,787
35,823	-11,412	278,961	130,677
36,838	-11,480	278,548	130,407
37,853	-11,523	278,453	130,310
38,867	-11,525	278,141	130,151
39,882	-11,535	277,872	130,003
40,896	-11,306	277,585	130,074
41,911	-11,573	277,532	129,785
42,926	-11,365	277,095	129,766
43,940	-11,391	276,967	129,670
44,955	-11,654	276,603	129,240
45,969	-11,577	276,361	129,188
46,984	-11,782	276,254	128,933
47,999	-11,988	275,911	128,567
49,013	-11,956	275,655	128,468
50,028	-11,997	275,358	128,279
51,042	-12,060	275,197	128,133
52,057	-12,338	274,864	127,706
53,071	-12,113	274,652	127,806
54,086	-11,910	274,409	127,872
55,101	-11,624	274,193	128,028
56,115	-11,730	274,234	127,937
57,130	-11,371	274,096	128,196
58,144	-11,444	273,702	127,932
59,159	-11,252	273,536	128,022
60,174	-11,290	273,318	127,873
61,188	-11,370	273,181	127,723
62,203	-11,373	272,923	127,588
63,217	-11,310	272,725	127,543
64,232	-11,470	272,505	127,280
65,247	-11,347	272,158	127,221
66,261	-11,281	271,881	127,141
67,276	-11,508	271,662	126,818
68,290	-11,631	271,377	126,559
69,305	-11,636	270,997	126,366
70,320	-11,711	271,032	126,302
71,334	-11,472	270,806	126,406
72,349	-11,600	270,877	126,310
73,363	-11,381	270,362	126,259
74,378	-11,451	270,137	126,079
75,393	-11,227	269,935	126,179
76,407	-11,245	269,680	126,033
77,422	-11,235	269,486	125,939
78,436	-11,299	269,302	125,783
79,451	-11,552	269,116	125,454
80,466	-11,431	268,774	125,394
81,480	-11,488	268,527	125,215
82,495	-11,427	268,303	125,155
83,509	-11,425	268,122	125,061
84,524	-11,363	267,798	124,956
85,539	-11,730	267,672	124,552
86,553	-11,631	267,388	124,499
87,568	-11,630	267,386	124,488
88,582	-11,514	267,031	124,416
89,597	-11,516	266,815	124,303
90,611	-11,576	266,737	124,201
91,626	-11,373	266,723	124,368
92,641	-11,460	266,430	124,141
93,655	-11,533	266,143	123,930
94,670	-11,556	265,960	123,813
95,684	-11,228	265,520	123,893
96,699	-11,609	265,564	123,559
97,714	-11,405	265,388	123,650
98,728	-11,548	265,150	123,399
99,743	-11,656	264,970	123,208
100,757	-11,646	264,584	123,025
101,772	-11,407	264,324	123,108
102,787	-11,498	264,326	123,017
103,801	-11,510	264,029	122,857
104,816	-11,410	263,859	122,857
105,830	-11,436	263,823	122,805
106,845	-11,359	263,598	122,758
107,860	-11,303	263,426	122,717
108,874	-11,429	263,018	122,404
109,889	-11,392	262,915	122,378
110,903	-11,479	262,773	122,224
111,918	-11,576	262,642	122,066
112,933	-11,392	262,303	122,061
113,947	-11,359	262,088	121,980
114,962	-11,349	261,936	121,906
115,976	-11,279	261,786	121,888
116,991	-11,449	261,626	121,652
118,006	-11,319	261,371	121,638
119,020	-11,355	261,361	121,590
120,035	-11,437	260,972	121,326
121,049	-11,435	260,935	121,299
122,064	-11,352	260,747	121,274
123,079	-11,328	260,517	121,178
124,093	-11,550	260,306	120,873
125,108	-11,512	260,081	120,791
126,122	-11,600	259,719	120,535
127,137	-11,955	259,586	120,150
128,151	-11,705	259,376	120,262
129,166	-11,670	259,304	120,249
130,181	-11,536	258,972	120,202
131,195	-11,652	258,718	119,972
132,210	-11,522	258,717	120,074
133,224	-11,470	258,329	119,929
134,239	-11,299	258,227	120,020
135,254	-11,469	258,118	119,810
136,268	-11,274	257,776	119,811
137,283	-11,603	257,560	119,413
138,297	-11,875	257,383	119,084
139,312	-11,843	257,207	119,019
140,327	-11,552	257,118	119,221
141,341	-11,386	256,967	119,284
142,356	-11,324	256,855	119,276
143,370	-11,367	256,510	119,067
144,385	-11,176	256,429	119,184
145,400	-11,206	256,240	119,060
146,414	-11,187	255,993	118,951
147,429	-11,288	255,833	118,779
148,443	-11,273	255,732	118,734
149,458	-11,194	255,438	118,655
150,473	-11,120	255,287	118,639
151,487	-11,388	255,121	118,320
152,502	-11,275	254,976	118,340
153,516	-11,194	254,667	118,255
154,531	-11,175	254,529	118,197
155,546	-11,172	254,345	118,104
156,560	-11,428	254,241	117,825
157,575	-11,212	253,985	117,881
158,589	-11,332	253,762	117,664
159,604	-11,038	253,718	117,885
160,619	-11,292	253,387	117,504
161,633	-11,302	253,208	117,402
162,648	-11,208	253,098	117,421
163,662	-11,251	252,959	117,309
164,677	-11,137	252,899	117,368
165,692	-11,128	252,615	117,233
166,706	-11,196	252,343	117,039
167,721	-11,174	252,171	116,967
168,735	-11,152	252,114	116,949
169,750	-11,240	252,047	116,833
170,764	-11,105	251,812	116,828
171,779	-10,894	251,643	116,918
172,794	-11,063	251,510	116,703
173,808	-11,229	251,249	116,430
174,823	-11,637	251,038	115,977
175,837	-11,708	250,695	115,748
176,852	-11,294	250,781	116,128
177,867	-11,244	250,642	116,095
178,881	-11,287	250,489	115,977
179,896	-11,240	250,385	115,959
180,910	-11,175	250,097	115,869
181,925	-11,240	250,024	115,771
182,940	-11,199	249,671	115,631
183,954	-11,107	249,601	115,666
184,969	-11,269	249,420	115,436
185,983	-11,225	249,214	115,367
186,998	-11,010	249,044	115,458
188,013	-10,995	248,908	115,398
189,027	-11,162	248,745	115,171
190,042	-11,122	248,571	115,115
191,056	-11,235	248,386	114,925
192,071	-11,039	248,034	114,915
193,086	-11,267	248,066	114,729
194,100	-11,203	247,745	114,623
195,115	-11,360	247,782	114,499
196,129	-11,079	247,363	114,530
197,144	-10,939	247,190	114,556
198,159	-11,049	247,195	114,456
199,173	-11,192	246,810	114,149
200,188	-11,216	246,643	114,041
201,202	-11,390	246,391	113,771
202,217	-11,517	246,060	113,502
203,232	-11,761	245,907	113,221
204,246	-11,373	245,981	113,565
205,261	-10,943	245,810	113,832
206,275	-11,604	245,525	113,144
207,290	-7,811	246,954	116,940
208,304	0,333	249,740	125,062
209,319	4,316	250,914	128,975
210,334	4,809	250,765	129,298
211,348	4,981	250,651	129,372
212,363	5,354	250,507	129,597
213,377	5,295	250,560	129,564
214,392	5,281	250,293	129,402
215,407	5,021	250,010	129,028
216,421	5,015	249,898	128,953
217,436	5,112	249,938	129,044
218,450	5,301	249,719	129,076
219,465	5,160	249,287	128,724
220,480	4,877	249,214	128,440
221,494	4,573	249,029	128,081
222,509	4,805	248,865	128,178
223,523	4,668	248,654	127,944
224,538	4,355	248,425	127,556
225,553	4,461	248,380	127,609
226,567	4,606	248,184	127,617
227,582	4,749	247,963	127,610
228,596	4,792	247,860	127,581
229,611	4,390	247,584	127,096
230,626	4,328	247,411	126,946
231,640	4,326	247,372	126,912
232,655	4,347	247,186	126,823
233,669	4,237	246,927	126,588
234,684	4,207	246,775	126,474
235,699	4,283	246,902	126,591
236,713	4,712	246,741	126,849
237,728	4,598	246,242	126,488
238,742	4,325	246,139	126,200
239,757	4,044	245,969	125,872
240,772	4,342	245,729	125,982
241,786	4,674	245,591	126,170
242,801	4,134	245,592	125,719
243,815	4,366	245,349	125,773
244,830	4,721	245,251	126,000
245,844	4,572	245,101	125,791
246,859	4,716	244,815	125,750
247,874	4,359	244,655	125,366
248,888	4,583	244,599	125,508
249,903	4,431	244,627	125,388
250,917	4,664	244,347	125,422
251,932	4,879	244,211	125,516
252,947	4,806	244,118	125,397
253,961	4,369	243,810	124,875
254,976	4,597	243,653	124,968
255,990	4,558	243,544	124,869
257,005	4,693	243,193	124,786
258,020	4,346	243,156	124,476
259,034	4,265	243,059	124,350
260,049	4,567	242,997	124,551
261,063	4,347	242,611	124,165
262,078	4,281	242,507	124,047
263,093	4,635	242,483	124,309
264,107	4,651	242,193	124,162
265,122	4,426	242,122	123,934
266,136	4,752	241,974	124,109
267,151	4,778	241,925	124,093
268,166	4,384	241,545	123,572
269,180	4,148	241,460	123,329
270,195	4,786	241,501	123,849
271,209	5,106	241,235	123,958
272,224	4,410	241,194	123,369
273,239	4,167	240,792	122,959
274,253	4,232	240,655	122,930
275,268	4,273	240,482	122,863
276,282	4,509	240,328	122,961
277,297	4,289	240,188	122,704
278,312	4,366	240,011	122,663
279,326	4,391	240,016	122,675
280,341	4,451	239,870	122,637
281,355	4,506	239,664	122,565
282,370	4,649	239,541	122,604
283,384	4,474	239,370	122,366
284,399	4,273	239,178	122,099
285,414	4,041	238,923	121,774
286,428	4,353	238,824	121,959
287,443	4,549	238,575	121,976
288,457	4,577	238,444	121,920
289,472	4,609	238,424	121,924
290,487	4,616	238,238	121,823
291,501	4,435	238,085	121,592
292,516	4,175	237,805	121,233
293,530	4,358	237,725	121,326
294,545	4,592	237,616	121,444
295,560	4,530	237,524	121,337
296,574	4,123	237,296	120,890
297,589	4,323	237,219	120,997
298,603	4,539	237,166	121,129
299,618	4,730	236,892	121,128
300,633	4,435	236,880	120,879
301,647	4,477	236,864	120,893
302,662	5,023	236,721	121,237
303,676	4,734	236,424	120,848
304,691	4,657	236,305	120,716
305,706	4,952	236,159	120,862
306,720	4,848	236,011	120,694
307,735	4,712	235,735	120,436
308,749	4,489	235,642	120,204
309,764	4,360	235,401	119,970
310,779	4,299	235,110	119,764
311,793	4,062	235,044	119,535
312,808	4,266	234,865	119,593
313,822	4,144	234,578	119,341
314,837	4,357	234,468	119,439
315,852	4,035	234,412	119,151
316,866	4,383	234,201	119,302
317,881	4,592	234,345	119,526
318,895	4,848	234,125	119,601
319,910	4,954	234,109	119,664
320,925	4,820	233,669	119,325
321,939	4,006	233,554	118,629
322,954	4,594	233,533	119,060
323,968	4,304	233,318	118,718
324,983	4,711	233,202	118,960
325,997	4,704	233,231	118,959
327,012	4,695	232,983	118,815
328,027	4,644	232,762	118,652
329,041	5,032	232,699	118,908
330,056	5,267	232,737	119,097
331,070	5,118	232,544	118,873
332,085	4,811	232,290	118,498
333,100	4,766	231,939	118,274
334,114	4,599	231,891	118,111
335,129	4,722	231,720	118,107
336,143	4,971	231,770	118,313
337,158	5,020	231,479	118,191
338,173	4,761	231,247	117,865
339,187	4,507	231,172	117,623
340,202	4,632	231,010	117,625
341,216	4,636	230,840	117,531
342,231	4,567	230,720	117,407
343,246	4,430	230,476	117,168
344,260	4,701	230,540	117,396
345,275	5,033	230,369	117,550
346,289	4,900	230,152	117,328
347,304	4,817	230,175	117,266
348,319	4,922	229,958	117,225
349,333	4,724	229,692	116,930
350,348	4,600	229,514	116,734
351,362	4,598	229,417	116,673
352,377	4,417	229,216	116,424
353,392	4,345	229,104	116,303
354,406	4,234	229,013	116,162
355,421	195,632	1317,561	1393,297
356,435	156,933	1450,139	1393,256
