DTS Sentinel unit serial number:	SN410029Multiplexer serial number:	ORYXHardware model number:	OX2-SRSoftware version number:	ORYX F/W v4,00 Oryx Data Collector v3.7.2.0data status	okinstallation	B5 Nyhavnadifferential loss correction	single-endedforward channel	channel 2reverse channel	N/Adate	2023/12/11time	17:07:13forward acquisition time	300,00reverse acquisition time	0,00gamma	499,1914k internal	0,3164k external	0,3164temperature offset calibration	1,0000default loss term (dB/km)	0,3820temperature slope calibration	1,0000multiplexer offset coefficient	1,0000multiplexer slope coefficient	1,0000fibre end	0,00T internal ref (°C)	14,49T ext. ref 1 (°C)	-0,67T ext. ref 2 (°C)	-0,89length (m)	temperature (°C)	Stokes	anti-Stokes-744,400	-200,000	-0,016	-0,073
-743,385	-190,707	-0,228	0,002
-742,371	-30,967	0,252	0,104
-741,356	23,665	-0,193	0,117
-740,342	13,060	0,143	0,081
-739,327	-91,261	-0,225	-0,047
-738,312	-20,005	0,160	-0,072
-737,298	-60,980	-0,250	-0,077
-736,283	-50,562	0,162	0,056
-735,269	-94,680	-0,271	-0,054
-734,254	53,116	0,102	0,072
-733,239	-55,437	-0,464	-0,152
-732,225	117,675	0,148	0,134
-731,210	314,326	0,086	0,119
-730,196	32,410	0,145	-0,092
-729,181	800,000	0,029	0,092
-728,167	-200,000	-0,011	0,083
-727,152	-46,414	-0,079	0,028
-726,137	800,000	0,022	-0,047
-725,123	356,248	-0,093	-0,137
-724,108	-39,136	-0,102	-0,039
-723,094	-200,000	-0,006	-0,107
-722,079	140,052	-0,073	-0,070
-721,064	317,839	0,010	0,014
-720,050	627,828	0,072	-0,134
-719,035	-85,155	-0,112	-0,026
-718,021	98,424	0,136	-0,115
-717,006	369,591	-0,074	-0,110
-715,991	800,000	0,078	-0,182
-714,977	-186,429	0,051	-0,001
-713,962	164,134	0,043	0,044
-712,948	0,321	-0,069	-0,036
-711,933	800,000	-0,037	-0,111
-710,918	664,945	0,019	0,037
-709,904	800,000	-0,041	-0,095
-708,889	-0,466	-0,113	-0,059
-707,875	-111,413	-0,161	-0,024
-706,860	-25,119	-0,012	0,005
-705,845	-56,357	0,081	0,026
-704,831	132,377	0,116	-0,110
-703,816	115,763	-0,076	-0,068
-702,802	185,667	-0,033	0,036
-701,787	344,799	-0,094	-0,136
-700,772	-200,000	0,024	-0,096
-699,758	-147,644	-0,124	0,008
-698,743	-169,356	0,032	-0,001
-697,729	169,814	0,169	0,177
-696,714	-128,779	0,068	-0,007
-695,699	497,241	0,071	-0,120
-694,685	-133,911	-0,133	0,012
-693,670	134,045	0,077	-0,073
-692,656	-65,959	-0,133	-0,039
-691,641	12,354	0,083	0,047
-690,627	198,005	-0,015	0,017
-689,612	-47,592	0,049	0,017
-688,597	-1,539	-0,014	-0,007
-687,583	-122,368	-0,096	-0,011
-686,568	123,017	0,056	-0,051
-685,554	-49,992	-0,047	0,016
-684,539	-27,791	-0,082	-0,035
-683,524	-200,000	0,003	-0,022
-682,510	-200,000	-0,004	0,024
-681,495	-119,745	-0,065	0,008
-680,481	800,000	0,043	-0,102
-679,466	-44,291	-0,138	0,051
-678,451	-105,466	0,054	0,009
-677,437	-200,000	0,008	-0,096
-676,422	-100,151	0,075	-0,013
-675,408	-33,776	0,042	-0,017
-674,393	-138,422	-0,132	0,010
-673,378	-200,000	0,014	0,047
-672,364	632,952	-0,046	-0,086
-671,349	-200,000	0,002	-0,032
-670,335	230,832	0,056	0,067
-669,320	800,000	0,017	-0,052
-668,305	800,000	-0,042	-0,109
-667,291	30,078	-0,130	-0,081
-666,276	800,000	-0,051	-0,127
-665,262	-200,000	0,066	-0,220
-664,247	-200,000	-0,095	0,000
-663,232	23,602	0,070	0,042
-662,218	800,000	-0,023	-0,067
-661,203	9,002	0,032	0,018
-660,189	-200,000	-0,005	0,055
-659,174	-135,578	-0,197	-0,017
-658,159	-70,847	-0,067	0,018
-657,145	297,882	0,007	0,009
-656,130	-200,000	0,003	0,079
-655,116	800,000	0,021	-0,054
-654,101	424,082	-0,062	0,098
-653,086	298,438	0,015	-0,020
-652,072	751,959	-0,073	-0,145
-651,057	-83,229	0,019	0,004
-650,043	-70,525	0,124	-0,034
-649,028	8,152	-0,127	0,070
-648,014	272,299	-0,046	-0,060
-646,999	176,098	-0,082	-0,088
-645,984	211,207	0,061	0,070
-644,970	26,678	-0,008	0,005
-643,955	-200,000	-0,000	-0,011
-642,941	224,242	0,061	0,072
-641,926	-88,056	0,041	-0,009
-640,911	174,013	0,049	0,052
-639,897	-200,000	0,023	0,148
-638,882	-200,000	-0,022	0,100
-637,868	-55,916	-0,060	-0,020
-636,853	121,137	-0,075	-0,069
-635,838	-5,969	0,018	0,009
-634,824	-56,592	-0,030	-0,010
-633,809	24,685	0,103	-0,063
-632,795	800,000	-0,007	0,023
-631,780	800,000	-0,053	0,143
-630,765	78,943	-0,198	0,155
-629,751	33,882	0,043	-0,027
-628,736	-200,000	0,004	-0,131
-627,722	-200,000	0,009	-0,071
-626,707	-77,555	0,050	0,013
-625,692	-131,755	-0,058	0,006
-624,678	-84,383	0,205	-0,047
-623,663	-101,036	-0,011	-0,002
-622,649	69,220	0,018	0,014
-621,634	-200,000	-0,012	-0,078
-620,619	583,994	-0,082	-0,149
-619,605	17,525	0,140	0,081
-618,590	-200,000	-0,026	0,122
-617,576	-200,000	0,010	-0,033
-616,561	-200,000	-0,010	-0,173
-615,546	319,039	-0,132	-0,184
-614,532	387,993	0,019	-0,030
-613,517	-38,975	-0,096	-0,037
-612,503	-35,294	0,128	-0,051
-611,488	800,000	0,047	-0,111
-610,474	800,000	0,073	0,189
-609,459	66,377	0,044	-0,033
-608,444	-20,666	-0,024	-0,011
-607,430	-99,733	-0,123	0,022
-606,415	45,470	-0,086	-0,058
-605,401	109,283	-0,056	-0,049
-604,386	265,639	-0,041	-0,052
-603,371	136,943	-0,096	0,091
-602,357	321,648	-0,045	0,062
-601,342	-157,743	-0,026	0,001
-600,328	-56,042	-0,095	0,031
-599,313	-200,000	0,012	-0,060
-598,298	-103,580	0,105	0,018
-597,284	-24,838	-0,119	-0,051
-596,269	-125,196	0,012	0,001
-595,255	-200,000	-0,010	0,035
-594,240	-154,479	-0,135	-0,007
-593,225	-200,000	-0,014	-0,048
-592,211	587,819	-0,031	0,056
-591,196	-63,537	-0,027	-0,008
-590,182	51,362	-0,074	0,051
-589,167	-106,439	0,119	-0,019
-588,152	128,529	-0,013	-0,012
-587,138	-200,000	-0,016	-0,132
-586,123	-52,123	-0,098	-0,033
-585,109	332,116	-0,119	-0,169
-584,094	-108,524	-0,047	0,007
-583,079	800,000	-0,036	0,113
-582,065	800,000	0,045	0,092
-581,050	317,145	0,035	0,049
-580,036	-148,390	-0,076	0,005
-579,021	-107,238	0,068	0,011
-578,006	-17,169	0,057	-0,026
-576,992	-200,000	0,008	-0,050
-575,977	101,368	-0,145	-0,124
-574,963	-43,344	-0,092	0,034
-573,948	35,527	0,096	0,061
-572,934	-200,000	-0,004	-0,054
-571,919	-84,609	0,127	0,029
-570,904	-39,672	0,117	-0,045
-569,890	74,098	-0,026	0,020
-568,875	12,084	0,120	0,067
-567,861	708,781	-0,058	-0,112
-566,846	-134,734	0,034	-0,003
-565,831	-200,000	-0,010	-0,062
-564,817	800,000	-0,039	-0,079
-563,802	94,857	-0,106	-0,088
-562,788	232,904	-0,036	-0,044
-561,773	211,911	0,092	-0,107
-560,758	-200,000	0,032	0,148
-559,744	399,403	-0,064	0,098
-558,729	203,823	-0,121	0,137
-557,715	417,711	-0,008	-0,013
-556,700	-90,073	-0,020	0,004
-555,685	613,044	0,031	-0,058
-554,671	160,125	-0,043	0,044
-553,656	-200,000	0,001	-0,085
-552,642	76,251	0,063	0,049
-551,627	-200,000	0,004	-0,052
-550,612	-36,586	-0,110	-0,043
-549,598	-200,000	-0,012	-0,132
-548,583	-200,000	-0,013	-0,148
-547,569	800,000	-0,046	-0,116
-546,554	-75,057	-0,057	0,015
-545,539	800,000	0,019	0,043
-544,525	800,000	0,068	-0,155
-543,510	-200,000	0,003	0,010
-542,496	-184,583	-0,048	0,001
-541,481	-9,202	-0,087	-0,042
-540,466	800,000	0,038	-0,078
-539,452	-200,000	0,001	-0,059
-538,437	43,692	0,135	0,090
-537,423	606,520	-0,055	-0,101
-536,408	0,347	0,121	-0,063
-535,393	800,000	0,023	0,050
-534,379	-17,756	0,050	0,023
-533,364	-141,887	0,045	-0,003
-532,350	-200,000	-0,021	-0,121
-531,335	800,000	-0,028	0,080
-530,321	-200,000	-0,016	0,057
-529,306	143,657	0,019	0,018
-528,291	295,415	-0,058	0,077
-527,277	168,284	-0,075	-0,078
-526,262	35,454	-0,012	0,007
-525,248	-200,000	0,028	0,119
-524,233	248,963	0,077	0,095
-523,218	119,645	0,102	0,092
-522,204	265,538	-0,050	-0,064
-521,189	41,465	0,165	-0,109
-520,175	126,135	0,135	-0,124
-519,160	10,702	0,104	0,058
-518,145	571,991	0,042	0,075
-517,131	-58,419	0,036	0,011
-516,116	37,867	0,073	-0,047
-515,102	251,041	-0,058	0,072
-514,087	-200,000	0,016	-0,096
-513,072	-104,309	-0,262	-0,044
-512,058	-41,497	0,032	0,012
-511,043	-24,490	-0,064	0,028
-510,029	19,167	0,156	0,091
-509,014	-44,688	0,110	-0,040
-507,999	800,000	-0,043	0,096
-506,985	-200,000	-0,023	-0,156
-505,970	600,635	-0,032	-0,057
-504,956	-1,033	-0,062	0,032
-503,941	-200,000	0,016	-0,133
-502,926	-200,000	0,037	0,157
-501,912	738,843	-0,047	0,092
-500,897	-40,383	0,077	0,029
-499,883	-78,050	0,086	-0,021
-498,868	530,910	-0,052	0,090
-497,853	-18,032	0,059	0,027
-496,839	92,225	-0,122	0,100
-495,824	800,000	0,066	0,169
-494,810	-113,552	0,106	0,015
-493,795	-200,000	0,023	-0,157
-492,781	466,528	0,084	0,137
-491,766	800,000	0,047	-0,121
-490,751	-100,181	0,062	-0,011
-489,737	-53,506	-0,111	-0,037
-488,722	-160,095	0,155	0,006
-487,708	97,786	0,092	0,077
-486,693	213,969	-0,029	-0,034
-485,678	800,000	-0,043	0,105
-484,664	-30,440	-0,092	-0,038
-483,649	-51,743	-0,161	-0,054
-482,635	705,308	-0,038	0,073
-481,620	5,220	0,101	0,054
-480,605	-160,756	-0,150	0,006
-479,591	-200,000	0,001	-0,022
-478,576	-200,000	-0,019	-0,119
-477,562	154,505	-0,055	-0,055
-476,547	-38,798	0,098	-0,038
-475,532	-200,000	-0,015	-0,142
-474,518	472,625	0,063	0,104
-473,503	-200,000	-0,020	0,065
-472,489	328,250	0,059	0,082
-471,474	14,877	0,094	-0,053
-470,459	-96,125	0,061	0,012
-469,445	-200,000	0,014	-0,054
-468,430	490,493	0,052	-0,086
-467,416	-81,227	0,105	-0,025
-466,401	-39,397	0,037	-0,014
-465,386	-7,673	0,015	-0,007
-464,372	-83,649	-0,088	0,020
-463,357	-148,275	-0,128	-0,008
-462,343	317,106	-0,051	-0,071
-461,328	-200,000	0,024	-0,082
-460,313	90,777	0,079	0,064
-459,299	-200,000	0,018	-0,076
-458,284	-200,000	0,012	0,058
-457,270	-155,350	-0,151	-0,007
-456,255	800,000	-0,016	0,052
-455,241	64,005	0,097	0,071
-454,226	154,909	0,038	0,038
-453,211	179,941	0,039	-0,042
-452,197	-29,605	-0,056	-0,023
-451,182	800,000	-0,022	-0,067
-450,168	407,329	0,018	0,028
-449,153	85,020	-0,098	-0,078
-448,138	-61,732	0,069	0,021
-447,124	-34,039	0,142	-0,056
-446,109	800,000	-0,045	-0,130
-445,095	-7,541	-0,027	-0,013
-444,080	116,383	0,029	0,025
-443,065	635,609	-0,063	0,116
-442,051	-137,467	0,076	0,006
-441,036	-109,731	0,051	-0,008
-440,022	761,078	-0,039	-0,077
-439,007	-163,968	0,098	0,003
-437,992	21,161	-0,070	0,041
-436,978	-44,368	0,119	-0,043
-435,963	30,232	0,060	0,037
-434,949	-60,646	-0,038	0,012
-433,934	-200,000	-0,032	-0,105
-432,919	334,004	0,051	0,072
-431,905	-200,000	-0,008	0,075
-430,890	-25,956	-0,024	0,010
-429,876	160,460	0,082	0,083
-428,861	270,887	-0,082	-0,106
-427,846	47,926	0,034	-0,023
-426,832	698,744	-0,026	-0,050
-425,817	439,752	0,052	-0,083
-424,803	-127,386	-0,095	-0,010
-423,788	67,661	0,066	0,049
-422,773	800,000	0,047	0,103
-421,759	-130,198	-0,086	0,008
-420,744	140,215	0,009	0,008
-419,730	148,845	-0,096	-0,094
-418,715	-200,000	0,004	-0,066
-417,701	-127,489	-0,091	0,009
-416,686	-200,000	0,017	0,098
-415,671	109,541	0,075	0,065
-414,657	601,370	-0,037	0,068
-413,642	800,000	0,011	-0,030
-412,628	228,849	0,029	-0,034
-411,613	312,475	0,026	-0,036
-410,598	105,845	-0,074	0,064
-409,584	242,021	-0,103	-0,125
-408,569	309,142	0,029	0,039
-407,555	800,000	0,038	0,113
-406,540	8,723	-0,094	-0,051
-405,525	-44,632	-0,113	-0,041
-404,511	-95,879	-0,159	0,031
-403,496	-200,000	0,025	-0,104
-402,482	-200,000	-0,017	-0,116
-401,467	263,392	0,016	-0,020
-400,452	669,699	-0,032	0,060
-399,438	-124,872	0,083	0,009
-398,423	-35,320	-0,106	-0,042
-397,409	-43,399	-0,117	0,043
-396,394	190,284	-0,082	-0,089
-395,379	800,000	0,027	-0,070
-394,365	-165,269	0,141	-0,004
-393,350	-64,160	0,069	-0,020
-392,336	370,236	0,058	0,086
-391,321	461,282	-0,020	-0,033
-390,306	387,737	0,010	0,014
-389,292	-200,000	-0,007	-0,088
-388,277	-200,000	0,018	-0,078
-387,263	-157,893	-0,065	-0,003
-386,248	-107,150	-0,102	0,016
-385,233	-81,674	0,103	-0,024
-384,219	522,375	-0,043	-0,073
-383,204	44,304	-0,159	-0,105
-382,190	-200,000	0,009	-0,241
-381,175	-200,000	-0,008	0,107
-380,160	156,013	-0,037	-0,037
-379,146	-200,000	-0,012	0,065
-378,131	-45,070	0,063	0,023
-377,117	746,821	-0,017	-0,033
-376,102	107,232	-0,073	0,063
-375,088	326,396	-0,031	-0,043
-374,073	800,000	-0,035	0,095
-373,058	141,671	-0,002	0,002
-372,044	475,697	-0,027	-0,045
-371,029	800,000	-0,041	-0,095
-370,015	-81,789	-0,063	0,015
-369,000	-200,000	0,016	-0,096
-367,985	800,000	-0,009	0,027
-366,971	-82,551	-0,058	-0,013
-365,956	-192,888	0,117	-0,001
-364,942	563,120	-0,081	0,143
-363,927	-200,000	-0,003	0,084
-362,912	-200,000	0,038	0,152
-361,898	374,561	0,038	-0,056
-360,883	49,980	0,062	-0,042
-359,869	206,616	-0,079	-0,089
-358,854	467,277	0,043	-0,070
-357,839	-200,000	0,005	0,081
-356,825	30,460	0,045	-0,028
-355,810	-155,460	-0,026	-0,001
-354,796	126,343	0,035	0,032
-353,781	-200,000	0,001	-0,072
-352,766	407,165	-0,042	-0,064
-351,752	-134,384	0,119	-0,010
-350,737	214,198	-0,089	0,102
-349,723	39,767	0,069	-0,045
-348,708	-200,000	-0,030	0,110
-347,693	164,947	0,067	0,069
-346,679	104,957	0,057	-0,048
-345,664	267,041	-0,031	-0,040
-344,650	79,464	0,059	0,046
-343,635	-200,000	-0,005	0,052
-342,620	86,275	0,034	-0,027
-341,606	-200,000	0,034	-0,120
-340,591	-200,000	-0,006	-0,045
-339,577	522,750	-0,079	-0,135
-338,562	-200,000	0,007	0,027
-337,548	-9,918	-0,066	0,032
-336,533	379,037	-0,017	0,025
-335,518	119,226	0,052	-0,047
-334,504	387,809	-0,045	-0,068
-333,489	145,830	0,028	-0,027
-332,475	578,705	0,082	-0,145
-331,460	-200,000	-0,028	-0,134
-330,445	-200,000	0,029	-0,110
-329,431	-200,000	0,023	0,087
-328,416	-108,279	0,063	0,010
-327,402	800,000	-0,007	0,014
-326,387	800,000	0,052	0,115
-325,372	97,541	-0,119	0,099
-324,358	342,963	-0,044	-0,063
-323,343	-46,451	0,005	0,002
-322,329	694,089	0,017	-0,033
-321,314	326,360	-0,062	0,086
-320,299	-200,000	0,002	0,190
-319,285	88,321	0,034	-0,027
-318,270	185,335	-0,060	0,065
-317,256	800,000	0,046	0,099
-316,241	-200,000	-0,012	-0,050
-315,226	-200,000	-0,009	0,079
-314,212	9,366	0,124	0,068
-313,197	102,268	-0,090	0,076
-312,183	293,437	-0,058	0,077
-311,168	149,406	0,067	0,066
-310,153	199,737	0,032	0,036
-309,139	-200,000	-0,008	-0,028
-308,124	220,911	0,098	0,114
-307,110	-78,637	0,115	0,028
-306,095	-200,000	0,007	-0,197
-305,080	85,861	0,097	0,077
-304,066	10,812	0,051	0,028
-303,051	-200,000	-0,032	0,114
-302,037	-87,190	-0,085	0,018
-301,022	-88,316	-0,094	-0,020
-300,008	155,241	-0,068	0,067
-298,993	-57,268	0,097	0,031
-297,978	800,000	-0,042	0,130
-296,964	23,252	-0,076	0,045
-295,949	800,000	-0,001	0,004
-294,935	-200,000	0,026	-0,115
-293,920	-41,951	0,062	0,023
-292,905	17,607	-0,131	0,075
-291,891	-101,694	0,015	-0,003
-290,876	365,984	0,123	-0,180
-289,862	196,344	-0,129	-0,142
-288,847	33,336	0,097	0,061
-287,832	359,144	0,068	-0,099
-286,818	-200,000	-0,010	0,037
-285,803	42,745	0,141	-0,093
-284,789	800,000	-0,040	0,108
-283,774	616,742	-0,031	-0,056
-282,759	401,421	0,024	0,037
-281,745	-88,529	0,117	-0,025
-280,730	471,858	-0,048	-0,078
-279,716	-142,002	-0,070	0,005
-278,701	-200,000	-0,009	-0,060
-277,686	269,336	-0,050	-0,064
-276,672	270,782	-0,007	0,009
-275,657	-200,000	0,026	0,178
-274,643	800,000	-0,084	-0,177
-273,628	-52,562	0,076	0,025
-272,613	800,000	0,023	0,051
-271,599	-200,000	-0,016	-0,083
-270,584	127,253	-0,042	-0,039
-269,570	173,537	0,012	-0,012
-268,555	-23,022	0,081	0,035
-267,540	333,336	0,065	0,092
-266,526	-2,235	-0,108	-0,055
-265,511	-200,000	0,005	0,018
-264,497	-76,364	0,179	-0,045
-263,482	-200,000	-0,016	-0,080
-262,467	447,309	0,019	0,030
-261,453	191,956	-0,065	0,071
-260,438	150,991	0,045	0,045
-259,424	-38,180	-0,113	0,043
-258,409	247,300	-0,063	-0,077
-257,395	68,527	-0,079	-0,058
-256,380	37,259	0,098	0,063
-255,365	81,848	0,134	0,105
-254,351	800,000	-0,044	0,128
-253,336	303,092	-0,054	0,073
-252,322	108,373	-0,039	0,033
-251,307	-200,000	-0,047	0,152
-250,292	327,075	0,019	-0,027
-249,278	-37,537	0,175	0,067
-248,263	800,000	-0,054	0,133
-247,249	105,116	0,034	0,029
-246,234	165,056	-0,057	0,058
-245,219	-200,000	-0,015	-0,051
-244,205	297,907	-0,035	0,046
-243,190	-9,364	0,051	0,025
-242,176	-40,135	0,132	0,049
-241,161	-200,000	-0,038	0,123
-240,146	301,453	0,034	0,045
-239,132	191,699	-0,059	0,064
-238,117	145,089	0,061	0,058
-237,103	23,771	-0,099	0,059
-236,088	-66,734	0,106	0,030
-235,073	-200,000	0,064	-0,219
-234,059	46,592	0,094	0,063
-233,044	404,079	-0,048	-0,072
-232,030	-4,382	0,113	0,056
-231,015	-90,923	-0,107	0,022
-230,000	206,325	0,093	-0,105
-228,986	37,955	0,025	0,016
-227,971	-35,273	0,107	0,042
-226,957	124,011	0,014	-0,013
-225,942	-63,033	0,153	0,045
-224,927	-193,976	-0,126	0,001
-223,913	173,511	-0,082	-0,086
-222,898	-29,680	0,063	-0,026
-221,884	486,838	-0,079	0,130
-220,869	-95,388	0,136	-0,026
-219,855	25,297	-0,057	-0,034
-218,840	-107,959	0,092	0,014
-217,825	-98,922	-0,258	0,047
-216,811	40,419	0,113	0,073
-215,796	-47,161	-0,203	-0,071
-214,782	800,000	0,041	0,097
-213,767	39,183	0,009	0,006
-212,752	473,660	-0,041	0,067
-211,738	-200,000	0,008	-0,050
-210,723	-130,056	-0,147	-0,014
-209,709	41,163	0,061	0,040
-208,694	9,325	-0,075	0,041
-207,679	93,602	0,069	-0,056
-206,665	-29,800	-0,130	-0,053
-205,650	-200,000	-0,016	0,073
-204,636	93,956	0,092	0,075
-203,621	800,000	-0,037	-0,082
-202,606	-120,440	0,160	0,019
-201,592	-31,458	-0,104	0,042
-200,577	296,359	-0,062	-0,082
-199,563	-143,992	-0,093	0,006
-198,548	-164,015	-0,040	-0,001
-197,533	-1,182	-0,019	0,010
-196,519	-27,249	-0,152	-0,064
-195,504	800,000	-0,027	0,076
-194,490	-69,499	0,119	0,032
-193,475	-55,871	-0,078	-0,025
-192,460	-200,000	-0,013	-0,148
-191,446	82,704	0,012	-0,009
-190,431	106,777	-0,061	0,052
-189,417	-200,000	-0,021	-0,131
-188,402	137,668	-0,034	0,032
-187,387	-200,000	-0,023	0,088
-186,373	-16,995	0,106	0,048
-185,358	800,000	-0,066	-0,160
-184,344	-200,000	0,027	0,125
-183,329	800,000	0,076	0,230
-182,315	573,335	0,060	-0,106
-181,300	424,131	-0,064	-0,099
-180,285	95,524	0,120	-0,098
-179,271	95,740	-0,049	0,040
-178,256	-21,227	0,058	0,026
-177,242	663,072	0,091	0,169
-176,227	-59,005	0,097	0,030
-175,212	630,262	-0,034	-0,061
-174,198	304,581	-0,118	-0,158
-173,183	-9,162	-0,076	-0,036
-172,169	-66,578	-0,093	0,026
-171,154	-200,000	0,016	-0,063
-170,139	49,050	0,088	-0,059
-169,125	-200,000	0,025	0,100
-168,110	-200,000	-0,013	-0,078
-167,096	800,000	-0,034	0,076
-166,081	800,000	0,006	-0,014
-165,066	72,974	-0,027	-0,020
-164,052	-4,972	0,042	0,021
-163,037	-29,457	0,088	-0,036
-162,023	-200,000	-0,037	0,158
-161,008	800,000	0,060	0,128
-159,993	-200,000	0,014	0,116
-158,979	527,256	0,064	0,108
-157,964	131,184	0,054	-0,050
-156,950	-200,000	-0,014	0,102
-155,935	49,281	0,046	-0,031
-154,920	27,792	0,051	0,031
-153,906	800,000	0,031	-0,074
-152,891	-200,000	0,012	0,140
-151,877	-200,000	-0,015	-0,075
-150,862	-36,362	-0,147	0,057
-149,847	36,265	0,089	-0,056
-148,833	-56,426	-0,090	0,028
-147,818	477,148	0,048	0,078
-146,804	85,109	-0,076	-0,060
-145,789	-75,766	0,145	-0,037
-144,775	-200,000	-0,015	-0,110
-143,760	-200,000	-0,010	-0,048
-142,745	-12,806	0,046	-0,021
-141,731	800,000	0,064	-0,142
-140,716	-9,212	0,131	-0,063
-139,702	42,333	0,085	0,056
-138,687	171,814	-0,119	0,122
-137,672	67,877	0,065	0,048
-136,658	638,884	-0,018	-0,033
-135,643	129,770	-0,026	0,024
-134,629	-120,712	0,055	-0,007
-133,614	331,180	-0,051	0,071
-132,599	-143,085	-0,114	0,008
-131,585	-66,080	-0,112	0,032
-130,570	22,136	0,114	0,067
-129,556	55,411	-0,115	-0,080
-128,541	800,000	0,013	0,037
-127,526	-22,183	0,098	0,043
-126,512	-54,330	-0,070	0,023
-125,497	-47,838	0,168	0,058
-124,483	800,000	0,018	0,051
-123,468	-200,000	0,014	0,053
-122,453	26,675	-0,075	-0,045
-121,439	-46,936	0,120	-0,042
-120,424	142,845	-0,063	0,061
-119,410	800,000	0,027	-0,075
-118,395	-200,000	-0,012	0,108
-117,380	793,562	0,053	0,106
-116,366	-185,774	-0,040	-0,000
-115,351	800,000	-0,035	-0,107
-114,337	-128,952	-0,125	0,012
-113,322	-62,433	0,164	0,049
-112,307	-200,000	-0,024	-0,082
-111,293	-89,238	0,116	0,024
-110,278	462,838	-0,064	-0,103
-109,264	-4,313	-0,116	0,057
-108,249	5,508	-0,104	0,055
-107,234	6,684	-0,062	-0,033
-106,220	-200,000	-0,010	-0,069
-105,205	800,000	-0,013	0,035
-104,191	-200,000	-0,005	0,097
-103,176	-4,861	0,061	-0,030
-102,162	-63,494	-0,177	0,052
-101,147	-66,208	0,047	0,013
-100,132	800,000	-0,072	-0,143
-99,118	-200,000	0,005	0,081
-98,103	192,959	-0,058	-0,063
-97,089	181,433	0,098	0,104
-96,074	-15,500	0,045	0,020
-95,059	231,755	-0,047	-0,055
-94,045	94,274	-0,065	-0,053
-93,030	-200,000	-0,037	-0,120
-92,016	291,198	-0,077	-0,100
-91,001	-97,772	0,046	0,009
-89,986	-200,000	-0,020	0,141
-88,972	472,731	0,058	-0,094
-87,957	-35,136	0,124	0,048
-86,943	-41,959	-0,036	0,013
-85,928	-106,207	-0,142	0,023
-84,913	-17,886	0,024	-0,011
-83,899	800,000	0,027	-0,063
-82,884	289,578	0,040	0,052
-81,870	188,552	0,083	0,089
-80,855	111,234	0,141	0,122
-79,840	-200,000	-0,014	0,094
-78,826	118,710	-0,084	-0,075
-77,811	-200,000	-0,024	-0,089
-76,797	247,152	-0,062	0,075
-75,782	-105,347	0,063	0,010
-74,767	-56,531	0,066	-0,021
-73,753	-200,000	0,004	0,032
-72,738	800,000	0,022	-0,066
-71,724	42,624	-0,057	-0,037
-70,709	-150,572	0,057	-0,003
-69,694	433,242	-0,079	-0,123
-68,680	800,000	-0,032	0,065
-67,665	-22,721	0,090	0,039
-66,651	-42,833	0,117	0,042
-65,636	705,864	-0,058	0,111
-64,622	-10,555	0,152	-0,072
-63,607	800,000	-0,058	-0,137
-62,592	-200,000	0,008	0,051
-61,578	800,000	-0,059	0,166
-60,563	-39,396	0,037	0,014
-59,549	-56,588	-0,049	0,015
-58,534	11,051	-1,989	-1,086
-57,519	-200,000	-0,242	-0,799
-56,505	-200,000	-1,293	-5,009
-55,490	98,303	0,725	0,598
-54,476	800,000	5,265	12,228
-53,461	-200,000	17,978	297,538
-52,446	800,000	733,403	2256,117
-51,432	539,257	1649,476	2821,276
-50,417	109,172	1637,276	1402,842
-49,403	73,542	1288,043	964,992
-48,388	30,884	1028,028	629,279
-47,373	19,974	989,985	570,046
-46,359	17,968	977,614	556,333
-45,344	14,828	973,726	543,835
-44,330	15,077	972,337	543,853
-43,315	14,532	970,308	540,919
-42,300	14,511	969,203	540,211
-41,286	14,548	968,310	539,813
-40,271	14,489	967,476	539,136
-39,257	14,476	966,586	538,574
-38,242	14,537	965,692	538,254
-37,227	14,551	964,600	537,669
-36,213	14,569	963,768	537,242
-35,198	14,448	962,949	536,372
-34,184	14,515	962,316	536,216
-33,169	14,491	961,266	535,532
-32,154	14,486	960,399	535,011
-31,140	14,509	959,577	534,607
-30,125	14,588	958,684	534,341
-29,111	14,530	957,928	533,713
-28,096	14,555	957,190	533,360
-27,082	14,568	956,410	532,946
-26,067	14,482	955,901	532,368
-25,052	14,582	954,948	532,134
-24,038	14,483	954,407	531,496
-23,023	14,517	953,710	531,196
-22,009	14,570	953,077	530,991
-20,994	14,560	952,366	530,540
-19,979	14,533	951,889	530,170
-18,965	14,519	951,242	529,742
-17,950	14,480	950,623	529,253
-16,936	14,467	949,859	528,765
-15,921	14,471	949,256	528,420
-14,906	14,444	948,460	527,870
-13,892	14,397	947,918	527,398
-12,877	14,432	947,254	527,119
-11,863	14,361	946,671	526,549
-10,848	14,390	946,073	526,286
-9,833	14,477	945,649	526,306
-8,819	14,437	945,026	525,811
-7,804	14,440	944,477	525,496
-6,790	14,389	943,872	524,976
-5,775	14,477	943,309	524,919
-4,760	14,441	942,728	524,463
-3,746	14,442	941,947	524,010
-2,731	14,329	941,292	523,267
-1,717	14,282	940,645	522,739
-0,702	14,290	939,962	522,364
0,313	14,058	939,300	522,053
1,327	17,327	937,226	531,142
2,342	26,443	793,220	473,621
3,356	23,076	458,516	268,614
4,371	-3,737	315,158	156,109
5,386	-7,585	297,049	143,227
6,400	-9,480	291,063	138,446
7,415	-10,023	288,606	136,729
8,429	-10,378	286,997	135,607
9,444	-10,448	286,023	135,067
10,459	-10,506	285,438	134,721
11,473	-10,355	284,704	134,510
12,488	-10,339	284,166	134,259
13,502	-10,672	283,914	133,806
14,517	-10,586	283,563	133,712
15,531	-10,716	282,862	133,244
16,546	-10,739	282,401	132,992
17,561	-10,711	281,989	132,813
18,575	-10,950	281,742	132,455
19,590	-10,737	281,407	132,491
20,604	-10,746	280,976	132,267
21,619	-10,915	280,672	131,950
22,634	-10,823	280,283	131,844
23,648	-10,966	280,009	131,566
24,663	-10,703	279,778	131,697
25,677	-10,869	279,485	131,390
26,692	-10,800	279,166	131,294
27,707	-10,730	278,898	131,222
28,721	-10,830	278,749	131,045
29,736	-10,752	278,213	130,855
30,750	-10,740	278,027	130,768
31,765	-10,752	277,826	130,650
32,780	-10,801	277,553	130,464
33,794	-10,947	277,456	130,268
34,809	-10,974	277,016	130,024
35,823	-10,905	276,824	129,989
36,838	-10,940	276,509	129,796
37,853	-10,840	276,303	129,782
38,867	-11,025	276,059	129,482
39,882	-11,004	275,918	129,423
40,896	-10,853	275,592	129,401
41,911	-10,781	275,338	129,338
42,926	-10,944	275,115	129,068
43,940	-11,099	274,845	128,785
44,955	-10,897	274,598	128,847
45,969	-10,841	274,336	128,765
46,984	-10,809	274,189	128,714
47,999	-11,049	273,903	128,344
49,013	-11,124	273,693	128,164
50,028	-11,202	273,483	127,982
51,042	-11,377	273,244	127,697
52,057	-11,396	272,965	127,537
53,071	-11,320	272,694	127,470
54,086	-11,199	272,645	127,547
55,101	-11,160	272,474	127,493
56,115	-11,114	272,149	127,371
57,130	-10,965	272,067	127,460
58,144	-10,562	271,734	127,665
59,159	-10,732	271,615	127,440
60,174	-10,352	271,293	127,629
61,188	-10,894	271,223	127,085
62,203	-10,605	270,983	127,227
63,217	-10,660	270,636	127,002
64,232	-10,763	270,443	126,805
65,247	-10,820	270,399	126,721
66,261	-10,689	269,965	126,627
67,276	-10,866	269,633	126,297
68,290	-10,927	269,642	126,235
69,305	-10,847	269,257	126,117
70,320	-10,677	268,949	126,116
71,334	-10,670	268,830	126,055
72,349	-10,648	268,671	125,990
73,363	-10,730	268,626	125,882
74,378	-10,622	268,092	125,719
75,393	-10,638	267,959	125,631
76,407	-10,660	267,787	125,519
77,422	-10,813	267,587	125,276
78,436	-10,658	267,380	125,308
79,451	-10,629	266,989	125,140
80,466	-10,821	266,824	124,878
81,480	-10,704	266,602	124,868
82,495	-10,813	266,455	124,690
83,509	-10,866	266,203	124,513
84,524	-10,801	265,992	124,462
85,539	-11,010	265,803	124,174
86,553	-10,870	265,657	124,220
87,568	-10,677	265,352	124,241
88,582	-10,634	265,043	124,124
89,597	-10,906	265,030	123,862
90,611	-10,835	264,903	123,855
91,626	-10,495	264,604	124,010
92,641	-10,650	264,435	123,780
93,655	-10,833	264,278	123,532
94,670	-10,815	264,016	123,415
95,684	-10,873	263,855	123,276
96,699	-10,652	263,647	123,366
97,714	-10,521	263,323	123,320
98,728	-10,900	263,287	122,954
99,743	-10,918	263,075	122,828
100,757	-10,733	262,794	122,851
101,772	-10,917	262,568	122,570
102,787	-10,769	262,513	122,665
103,801	-10,868	262,170	122,406
104,816	-10,766	262,071	122,439
105,830	-10,675	261,833	122,398
106,845	-10,687	261,727	122,327
107,860	-10,662	261,486	122,225
108,874	-10,645	261,325	122,154
109,889	-10,522	261,081	122,139
110,903	-10,628	260,890	121,945
111,918	-10,636	260,634	121,807
112,933	-10,647	260,470	121,710
113,947	-10,540	260,325	121,725
114,962	-10,558	260,196	121,638
115,976	-10,709	259,850	121,333
116,991	-10,817	259,722	121,167
118,006	-10,608	259,505	121,239
119,020	-10,679	259,500	121,163
120,035	-10,650	259,281	121,076
121,049	-10,722	259,043	120,891
122,064	-10,399	258,869	121,082
123,079	-10,571	258,663	120,823
124,093	-10,588	258,311	120,634
125,108	-10,814	258,104	120,329
126,122	-10,978	257,917	120,088
127,137	-10,773	257,716	120,163
128,151	-10,876	257,670	120,041
129,166	-10,727	257,540	120,100
130,181	-10,935	257,317	119,804
131,195	-10,807	257,003	119,758
132,210	-10,894	256,864	119,607
133,224	-10,559	256,530	119,731
134,239	-10,644	256,576	119,668
135,254	-10,682	256,309	119,500
136,268	-10,569	256,066	119,474
137,283	-10,905	255,765	119,032
138,297	-10,937	255,672	118,951
139,312	-10,980	255,478	118,813
140,327	-10,738	255,304	118,930
141,341	-10,647	255,093	118,900
142,356	-10,338	255,123	119,169
143,370	-10,335	254,858	119,037
144,385	-10,685	254,872	118,732
145,400	-10,565	254,506	118,655
146,414	-10,559	254,267	118,537
147,429	-10,682	254,063	118,326
148,443	-10,481	253,889	118,407
149,458	-10,767	253,744	118,084
150,473	-10,556	253,484	118,133
151,487	-10,499	253,239	118,057
152,502	-10,538	253,166	117,978
153,516	-10,678	252,918	117,734
154,531	-10,513	252,735	117,778
155,546	-10,495	252,626	117,732
156,560	-10,568	252,391	117,550
157,575	-10,450	252,113	117,511
158,589	-10,487	252,001	117,416
159,604	-10,477	251,846	117,342
160,619	-10,468	251,523	117,189
161,633	-10,376	251,457	117,225
162,648	-10,395	251,305	117,128
163,662	-10,471	251,262	117,033
164,677	-10,470	250,989	116,897
165,692	-10,461	250,820	116,815
166,706	-10,477	250,840	116,800
167,721	-10,417	250,545	116,704
168,735	-10,282	250,376	116,728
169,750	-10,431	250,353	116,581
170,764	-10,423	250,131	116,474
171,779	-10,277	249,974	116,514
172,794	-10,337	249,748	116,348
173,808	-10,307	249,395	116,198
174,823	-10,748	249,295	115,771
175,837	-10,860	249,117	115,584
176,852	-10,436	249,078	115,911
177,867	-10,255	248,856	115,949
178,881	-10,372	248,699	115,767
179,896	-10,247	248,506	115,772
180,910	-10,467	248,443	115,548
181,925	-10,332	248,167	115,522
182,940	-10,330	248,082	115,474
183,954	-10,242	247,919	115,461
184,969	-10,313	247,708	115,294
185,983	-10,251	247,522	115,248
186,998	-10,245	247,498	115,232
188,013	-10,380	247,130	114,938
189,027	-10,370	247,216	114,976
190,042	-10,485	246,965	114,753
191,056	-10,275	246,685	114,788
192,071	-10,120	246,519	114,829
193,086	-10,264	246,426	114,655
194,100	-10,258	246,231	114,559
195,115	-10,330	246,094	114,426
196,129	-10,202	245,825	114,396
197,144	-10,106	245,537	114,331
198,159	-10,318	245,461	114,111
199,173	-10,133	245,342	114,198
200,188	-10,304	245,175	113,970
201,202	-10,339	244,727	113,722
202,217	-10,659	244,543	113,364
203,232	-10,767	244,549	113,267
204,246	-10,255	244,379	113,599
205,261	-9,427	244,580	114,362
206,275	-9,806	244,336	113,927
207,290	-8,040	244,865	115,614
208,304	-3,934	246,223	119,632
209,319	-1,163	246,887	122,231
210,334	-1,043	246,795	122,274
211,348	-0,726	246,782	122,517
212,363	-0,223	246,632	122,846
213,377	0,442	246,702	123,417
214,392	0,478	246,596	123,383
215,407	0,302	246,395	123,127
216,421	0,201	246,326	122,999
217,436	0,612	246,052	123,188
218,450	0,558	245,863	123,038
219,465	0,254	245,850	122,771
220,480	0,292	245,643	122,688
221,494	0,537	245,585	122,849
222,509	0,665	245,353	122,826
223,523	0,236	245,236	122,406
224,538	0,149	245,002	122,207
225,553	0,302	244,667	122,154
226,567	0,207	244,758	122,111
227,582	0,320	244,684	122,156
228,596	0,518	244,362	122,145
229,611	0,377	244,211	121,944
230,626	0,350	243,832	121,723
231,640	0,411	243,943	121,816
232,655	0,574	243,789	121,861
233,669	0,341	243,416	121,475
234,684	0,224	243,435	121,378
235,699	0,660	243,329	121,668
236,713	0,621	243,223	121,572
237,728	0,425	242,827	121,205
238,742	0,559	242,735	121,257
239,757	0,401	242,607	121,055
240,772	0,207	242,421	120,795
241,786	0,443	242,210	120,868
242,801	0,221	241,897	120,523
243,815	0,078	241,814	120,356
244,830	0,362	241,869	120,601
245,844	0,489	241,780	120,648
246,859	0,316	241,410	120,314
247,874	0,630	241,220	120,460
248,888	0,332	241,189	120,195
249,903	0,635	240,932	120,299
250,917	0,745	240,945	120,383
251,932	0,821	240,864	120,392
252,947	0,381	240,439	119,818
253,961	0,118	240,228	119,492
254,976	0,325	240,130	119,597
255,990	0,398	240,057	119,609
257,005	0,192	239,793	119,302
258,020	0,285	239,504	119,222
259,034	0,247	239,543	119,200
260,049	0,448	239,499	119,328
261,063	0,259	239,216	119,026
262,078	0,124	239,186	118,894
263,093	0,524	238,909	119,062
264,107	0,612	238,863	119,099
265,122	0,317	238,730	118,787
266,136	0,519	238,558	118,852
267,151	0,681	238,473	118,927
268,166	0,467	238,086	118,555
269,180	0,530	237,847	118,475
270,195	0,795	238,001	118,750
271,209	1,001	237,835	118,820
272,224	0,337	237,534	118,135
273,239	0,454	237,332	118,116
274,253	0,357	237,348	118,037
275,268	0,372	237,179	117,954
276,282	0,379	236,933	117,827
277,297	0,332	236,671	117,649
278,312	0,314	236,660	117,619
279,326	0,371	236,611	117,629
280,341	0,418	236,397	117,549
281,355	0,574	236,285	117,605
282,370	0,574	236,070	117,487
283,384	0,494	235,988	117,374
284,399	0,207	235,704	116,997
285,414	0,250	235,588	116,963
286,428	0,309	235,582	116,995
287,443	0,570	235,389	117,093
288,457	0,815	235,341	117,250
289,472	0,929	235,146	117,231
290,487	0,688	234,844	116,883
291,501	0,477	234,642	116,607
292,516	0,146	234,394	116,217
293,530	-0,123	234,236	115,919
294,545	0,522	234,252	116,418
295,560	0,636	234,126	116,433
296,574	0,350	233,866	116,071
297,589	0,133	233,706	115,814
298,603	0,222	233,779	115,909
299,618	0,858	233,548	116,275
300,633	0,659	233,511	116,093
301,647	0,646	233,513	116,073
302,662	1,094	233,271	116,289
303,676	0,924	233,202	116,113
304,691	0,944	232,885	115,960
305,706	0,871	232,734	115,818
306,720	0,825	232,637	115,724
307,735	0,585	232,511	115,467
308,749	0,487	232,205	115,229
309,764	0,135	231,937	114,816
310,779	0,308	231,873	114,907
311,793	0,205	231,573	114,669
312,808	0,241	231,466	114,633
313,822	0,048	231,276	114,381
314,837	-0,109	231,275	114,251
315,852	0,287	231,119	114,466
316,866	0,587	230,921	114,587
317,881	0,613	230,860	114,566
318,895	0,976	230,868	114,836
319,910	1,135	230,706	114,868
320,925	0,556	230,445	114,286
321,939	0,514	230,300	114,172
322,954	1,001	230,272	114,518
323,968	0,981	230,065	114,390
324,983	0,728	229,957	114,134
325,997	0,706	229,801	114,029
327,012	0,737	229,619	113,953
328,027	0,479	229,339	113,609
329,041	0,830	229,305	113,847
330,056	1,233	229,300	114,140
331,070	1,380	229,052	114,117
332,085	0,966	228,959	113,747
333,100	0,906	228,801	113,613
334,114	0,921	228,641	113,536
335,129	1,153	228,550	113,655
336,143	1,083	228,402	113,518
337,158	0,831	228,322	113,279
338,173	0,744	228,116	113,101
339,187	0,892	227,931	113,110
340,202	0,758	227,879	112,974
341,216	0,866	227,661	112,937
342,231	0,788	227,544	112,810
343,246	0,893	227,331	112,773
344,260	0,833	227,334	112,719
345,275	1,100	227,131	112,809
346,289	0,999	227,010	112,663
347,304	1,266	226,962	112,829
348,319	1,388	226,714	112,787
349,333	1,114	226,526	112,479
350,348	1,041	226,290	112,297
351,362	1,090	226,181	112,270
352,377	0,796	225,966	111,934
353,392	0,667	225,760	111,726
354,406	0,853	225,709	111,829
355,421	197,947	1316,953	1398,174
356,435	158,781	1449,882	1398,157
