DTS Sentinel unit serial number:	SN410029Multiplexer serial number:	ORYXHardware model number:	OX2-SRSoftware version number:	ORYX F/W v4,00 Oryx Data Collector v3.7.2.0data status	okinstallation	B5 Nyhavnadifferential loss correction	single-endedforward channel	channel 2reverse channel	N/Adate	2023/12/12time	22:07:13forward acquisition time	300,00reverse acquisition time	0,00gamma	499,1914k internal	0,3158k external	0,3158temperature offset calibration	1,0000default loss term (dB/km)	0,3820temperature slope calibration	1,0000multiplexer offset coefficient	1,0000multiplexer slope coefficient	1,0000fibre end	0,00T internal ref (°C)	14,74T ext. ref 1 (°C)	-1,89T ext. ref 2 (°C)	-2,20length (m)	temperature (°C)	Stokes	anti-Stokes-744,400	800,000	-0,021	-0,054
-743,385	-169,702	-0,241	0,006
-742,371	-35,013	0,094	-0,038
-741,356	-92,136	-0,172	0,035
-740,342	-29,164	0,157	0,066
-739,327	-82,418	-0,298	0,071
-738,312	-200,000	-0,008	0,079
-737,298	-128,561	-0,248	0,026
-736,283	-200,000	-0,014	-0,178
-735,269	-98,175	-0,257	0,048
-734,254	800,000	0,048	-0,120
-733,239	-95,930	-0,503	-0,098
-732,225	-51,172	0,205	0,070
-731,210	-200,000	-0,020	0,090
-730,196	800,000	-0,017	-0,036
-729,181	123,441	-0,048	-0,044
-728,167	-6,223	-0,063	0,032
-727,152	249,910	-0,033	0,041
-726,137	62,345	-0,121	-0,089
-725,123	-34,754	0,093	0,037
-724,108	-71,928	-0,120	0,033
-723,094	-127,089	-0,164	-0,017
-722,079	-82,984	-0,049	0,012
-721,064	435,921	0,014	0,023
-720,050	39,392	0,032	-0,021
-719,035	-49,094	-0,156	0,055
-718,021	-30,747	-0,051	0,021
-717,006	554,188	0,071	-0,126
-715,991	800,000	0,016	-0,038
-714,977	301,296	-0,078	-0,106
-713,962	-152,835	-0,213	-0,011
-712,948	800,000	0,036	0,079
-711,933	-3,095	0,069	0,035
-710,918	-79,679	-0,116	0,029
-709,904	46,044	0,104	0,071
-708,889	-200,000	-0,014	-0,169
-707,875	194,940	-0,113	-0,126
-706,860	800,000	-0,050	-0,145
-705,845	-75,262	0,170	-0,044
-704,831	21,624	0,051	0,031
-703,816	-89,192	-0,059	0,013
-702,802	-84,175	-0,067	-0,015
-701,787	-102,378	0,145	-0,025
-700,772	557,503	-0,044	-0,079
-699,758	30,650	-0,062	-0,039
-698,743	13,270	-0,091	-0,051
-697,729	800,000	0,054	-0,121
-696,714	323,005	0,049	0,069
-695,699	253,143	0,026	0,033
-694,685	157,587	0,077	-0,079
-693,670	800,000	0,004	-0,013
-692,656	127,518	0,035	-0,032
-691,641	-200,000	0,047	-0,176
-690,627	220,213	-0,008	0,009
-689,612	-65,921	-0,064	-0,019
-688,597	800,000	0,038	0,116
-687,583	160,686	-0,029	-0,030
-686,568	20,434	0,043	-0,026
-685,554	-146,157	-0,121	-0,008
-684,539	-34,790	0,035	-0,014
-683,524	90,617	0,080	0,066
-682,510	-200,000	0,004	0,012
-681,495	-25,339	-0,092	0,040
-680,481	-92,492	-0,086	0,018
-679,466	90,359	-0,077	0,064
-678,451	474,737	0,027	0,044
-677,437	-52,948	-0,096	0,032
-676,422	-200,000	-0,024	0,126
-675,408	-56,599	-0,086	0,028
-674,393	-200,000	-0,011	0,082
-673,378	109,021	-0,031	0,027
-672,364	-77,930	-0,082	0,021
-671,349	-61,297	0,053	0,016
-670,335	476,913	-0,085	0,142
-669,320	-200,000	0,029	-0,129
-668,305	-93,349	0,059	-0,012
-667,291	800,000	-0,028	0,058
-666,276	-62,831	-0,132	-0,040
-665,262	42,293	-0,202	-0,135
-664,247	105,965	-0,076	0,066
-663,232	-96,798	-0,111	0,021
-662,218	-200,000	-0,010	0,191
-661,203	18,805	0,010	-0,006
-660,189	-129,991	-0,045	0,004
-659,174	-108,792	0,073	0,011
-658,159	-200,000	0,005	-0,042
-657,145	-43,361	0,095	0,035
-656,130	-34,940	0,062	0,025
-655,116	501,978	0,098	-0,167
-654,101	-200,000	0,001	0,151
-653,086	38,088	0,071	0,046
-652,072	-200,000	-0,015	-0,057
-651,057	151,955	-0,117	-0,117
-650,043	156,372	0,057	0,057
-649,028	-47,185	-0,160	0,057
-648,014	116,550	0,045	-0,040
-646,999	-50,002	0,052	-0,018
-645,984	-138,630	0,064	-0,005
-644,970	800,000	0,027	-0,066
-643,955	-112,064	-0,165	0,024
-642,941	-200,000	-0,007	0,135
-641,926	228,995	0,068	0,082
-640,911	241,898	0,098	0,120
-639,897	800,000	-0,048	0,123
-638,882	-127,793	0,128	-0,013
-637,868	-116,232	-0,073	0,010
-636,853	800,000	0,050	-0,111
-635,838	395,541	-0,068	-0,104
-634,824	57,240	-0,057	-0,041
-633,809	93,655	0,061	-0,050
-632,795	505,523	-0,068	-0,117
-631,780	-0,993	0,076	0,039
-630,765	-80,899	-0,136	-0,033
-629,751	53,435	-0,089	0,063
-628,736	-200,000	-0,038	-0,263
-627,722	800,000	0,025	-0,073
-626,707	414,599	-0,068	-0,106
-625,692	-31,375	0,106	-0,043
-624,678	123,301	0,059	-0,054
-623,663	408,443	-0,027	0,042
-622,649	-4,456	-0,115	0,058
-621,634	-53,056	-0,049	0,016
-620,619	-76,565	0,075	0,019
-619,605	-34,236	0,072	-0,029
-618,590	-200,000	0,005	0,076
-617,576	-200,000	0,000	-0,002
-616,561	320,208	0,044	-0,062
-615,546	-24,584	0,087	-0,038
-614,532	-31,143	-0,089	-0,037
-613,517	83,295	0,091	-0,073
-612,503	154,545	0,057	-0,058
-611,488	89,246	0,135	0,110
-610,474	800,000	0,058	0,122
-609,459	-115,244	-0,086	-0,012
-608,444	-200,000	0,031	0,152
-607,430	-7,794	-0,098	-0,048
-606,415	-200,000	-0,006	-0,040
-605,401	-95,898	-0,071	-0,014
-604,386	800,000	-0,053	0,118
-603,371	-200,000	0,002	-0,056
-602,357	-143,185	-0,078	-0,005
-601,342	-63,603	-0,107	-0,032
-600,328	66,301	0,083	-0,062
-599,313	800,000	-0,056	-0,129
-598,298	800,000	0,019	0,045
-597,284	800,000	0,026	-0,068
-596,269	13,446	-0,128	0,072
-595,255	-115,288	0,139	-0,019
-594,240	-6,502	-0,058	0,029
-593,225	393,607	-0,058	0,089
-592,211	343,892	-0,085	-0,122
-591,196	-200,000	0,012	0,046
-590,182	-200,000	0,027	0,100
-589,167	385,967	0,074	0,112
-588,152	-27,227	-0,168	-0,071
-587,138	-200,000	0,003	-0,036
-586,123	-23,402	-0,105	-0,046
-585,109	41,647	-0,072	-0,048
-584,094	-46,945	-0,099	-0,035
-583,079	-124,276	0,149	0,017
-582,065	-17,619	0,064	0,029
-581,050	-52,040	0,030	0,010
-580,036	-37,853	-0,027	0,010
-579,021	-73,700	-0,072	-0,019
-578,006	108,170	-0,175	-0,153
-576,992	800,000	-0,017	0,037
-575,977	-15,406	0,093	-0,044
-574,963	687,360	0,045	0,087
-573,948	367,171	0,107	0,158
-572,934	-200,000	-0,100	0,000
-571,919	-148,504	0,134	-0,008
-570,904	-95,127	-0,101	0,020
-569,890	-200,000	-0,018	-0,123
-568,875	159,208	0,140	0,143
-567,861	-165,888	-0,080	0,002
-566,846	249,417	-0,012	0,015
-565,831	40,764	0,034	-0,023
-564,817	-101,997	-0,067	0,012
-563,802	800,000	0,038	0,087
-562,788	261,177	-0,023	0,030
-561,773	800,000	0,044	-0,104
-560,758	-200,000	0,008	-0,072
-559,744	-90,243	-0,092	-0,019
-558,729	800,000	0,055	-0,125
-557,715	18,968	-0,126	-0,074
-556,700	-200,000	-0,019	-0,104
-555,685	-8,611	0,039	-0,019
-554,671	256,052	-0,024	0,030
-553,656	619,992	-0,026	0,048
-552,642	639,518	-0,063	0,118
-551,627	293,231	0,100	-0,134
-550,612	545,481	-0,053	-0,093
-549,598	666,308	-0,118	-0,224
-548,583	388,916	0,031	0,047
-547,569	800,000	0,037	-0,111
-546,554	65,310	0,025	0,018
-545,539	-122,828	0,089	0,010
-544,525	-200,000	0,008	0,144
-543,510	351,188	0,027	0,039
-542,496	32,946	-0,109	-0,069
-541,481	75,688	-0,093	0,072
-540,466	654,708	0,014	0,027
-539,452	-109,407	0,097	0,015
-538,437	800,000	0,048	0,123
-537,423	-200,000	0,019	0,102
-536,408	380,285	-0,036	-0,054
-535,393	-5,576	-0,056	-0,028
-534,379	-110,505	-0,149	0,022
-533,364	-0,891	-0,096	0,050
-532,350	-146,911	-0,036	-0,002
-531,335	93,549	-0,077	-0,064
-530,321	431,448	-0,082	0,130
-529,306	-200,000	0,020	0,101
-528,291	-16,593	-0,076	0,035
-527,277	-200,000	0,002	-0,077
-526,262	800,000	0,029	0,069
-525,248	-63,407	-0,102	-0,030
-524,233	605,724	-0,010	-0,018
-523,218	461,001	0,060	0,097
-522,204	626,885	-0,080	0,149
-521,189	146,640	-0,059	-0,058
-520,175	-168,414	0,117	-0,003
-519,160	800,000	-0,009	-0,018
-518,145	-56,566	-0,086	0,028
-517,131	79,086	0,094	-0,073
-516,116	-200,000	0,015	-0,137
-515,102	409,446	-0,044	0,068
-514,087	-200,000	0,000	0,057
-513,072	-25,998	-0,065	-0,028
-512,058	800,000	-0,021	0,047
-511,043	83,748	0,037	0,029
-510,029	-200,000	-0,030	0,114
-509,014	225,312	0,070	-0,083
-507,999	-30,543	0,106	-0,044
-506,985	800,000	-0,032	-0,090
-505,970	-200,000	0,005	-0,084
-504,956	73,676	-0,070	-0,053
-503,941	-41,285	-0,169	-0,063
-502,926	205,093	0,050	0,057
-501,912	800,000	-0,059	-0,133
-500,897	-84,005	0,038	-0,009
-499,883	116,435	-0,023	-0,021
-498,868	41,306	-0,060	0,040
-497,853	703,493	0,039	0,076
-496,839	61,630	-0,047	-0,034
-495,824	-23,846	-0,071	0,031
-494,810	242,699	-0,080	0,098
-493,795	157,357	0,055	0,056
-492,781	-29,105	-0,029	-0,012
-491,766	-69,830	-0,096	0,027
-490,751	43,898	-0,009	-0,006
-489,737	800,000	0,013	0,040
-488,722	95,604	0,067	-0,056
-487,708	72,274	-0,128	0,098
-486,693	421,524	0,056	0,088
-485,678	-200,000	0,014	0,059
-484,664	58,737	-0,049	0,035
-483,649	73,654	-0,021	0,016
-482,635	284,909	0,046	-0,060
-481,620	169,761	0,033	0,035
-480,605	-200,000	0,028	0,097
-479,591	547,492	0,072	0,126
-478,576	800,000	-0,047	0,112
-477,562	11,483	-0,052	-0,029
-476,547	800,000	-0,028	-0,072
-475,532	-200,000	0,006	0,028
-474,518	321,071	-0,044	0,061
-473,503	-93,141	0,122	-0,025
-472,489	-200,000	-0,003	-0,051
-471,474	17,169	-0,034	0,020
-470,459	717,906	0,046	-0,089
-469,445	-200,000	-0,045	-0,172
-468,430	800,000	-0,049	0,121
-467,416	-200,000	0,004	0,039
-466,401	-200,000	0,010	-0,068
-465,386	800,000	0,023	0,049
-464,372	-73,763	-0,023	-0,006
-463,357	399,562	-0,021	-0,032
-462,343	-51,089	-0,125	0,043
-461,328	-140,212	-0,022	-0,002
-460,313	-200,000	0,028	-0,127
-459,299	800,000	-0,028	-0,079
-458,284	39,588	0,081	0,053
-457,270	57,743	0,156	-0,111
-456,255	363,294	0,023	0,033
-455,241	116,675	0,083	0,074
-454,226	-92,060	0,066	-0,014
-453,211	120,128	0,079	-0,072
-452,197	-41,887	0,084	0,031
-451,182	800,000	-0,086	0,212
-450,168	133,817	0,049	0,046
-449,153	24,653	0,059	0,036
-448,138	55,517	0,039	-0,027
-447,124	-200,000	-0,037	-0,139
-446,109	390,448	-0,063	-0,096
-445,095	-78,960	-0,048	0,012
-444,080	-200,000	0,003	0,057
-443,065	-200,000	0,000	-0,045
-442,051	-84,824	-0,161	0,036
-441,036	-200,000	0,007	0,074
-440,022	-200,000	-0,022	0,106
-439,007	65,451	-0,159	0,117
-437,992	339,888	0,053	0,076
-436,978	-200,000	-0,008	-0,069
-435,963	-200,000	-0,006	0,033
-434,949	64,073	0,033	-0,024
-433,934	246,947	-0,034	0,042
-432,919	321,028	0,038	-0,052
-431,905	-122,350	0,086	0,010
-430,890	180,476	0,171	0,183
-429,876	134,324	-0,053	0,050
-428,861	-57,612	-0,070	0,022
-427,846	52,777	-0,095	-0,066
-426,832	301,316	0,060	-0,081
-425,817	125,961	-0,106	-0,098
-424,803	-106,293	-0,174	-0,028
-423,788	348,961	0,087	-0,125
-422,773	336,497	-0,067	-0,095
-421,759	9,216	0,048	-0,026
-420,744	175,370	-0,012	0,012
-419,730	-200,000	0,007	-0,041
-418,715	-27,883	-0,095	0,040
-417,701	-79,070	0,121	0,030
-416,686	330,598	0,031	0,044
-415,671	-103,914	0,111	-0,019
-414,657	-130,353	0,063	-0,006
-413,642	144,667	0,121	0,118
-412,628	180,880	-0,064	-0,068
-411,613	-200,000	-0,020	-0,117
-410,598	32,653	0,044	0,028
-409,584	800,000	-0,026	0,080
-408,569	-110,545	-0,059	0,009
-407,555	142,440	0,112	-0,108
-406,540	-137,416	0,008	0,001
-405,525	318,802	-0,076	-0,104
-404,511	106,770	-0,072	-0,062
-403,496	68,261	-0,054	-0,040
-402,482	448,927	0,131	-0,211
-401,467	-58,855	0,110	-0,034
-400,452	115,733	0,033	-0,030
-399,438	160,954	0,059	-0,060
-398,423	-90,810	-0,069	-0,014
-397,409	101,750	-0,048	0,040
-396,394	-104,224	-0,095	-0,016
-395,379	21,735	0,114	-0,068
-394,365	800,000	-0,012	0,027
-393,350	-200,000	0,006	0,026
-392,336	-20,196	-0,029	-0,013
-391,321	651,895	0,079	-0,148
-390,306	-200,000	0,001	0,036
-389,292	-62,352	0,057	0,017
-388,277	800,000	-0,040	-0,115
-387,263	121,862	-0,065	-0,059
-386,248	68,625	0,097	0,072
-385,233	782,536	0,018	-0,037
-384,219	-200,000	-0,016	-0,084
-383,204	-152,322	0,037	0,002
-382,190	338,264	-0,023	0,033
-381,175	491,692	0,151	0,252
-380,160	-200,000	0,021	0,092
-379,146	-73,585	0,028	0,007
-378,131	381,051	0,026	-0,038
-377,117	-200,000	-0,001	0,090
-376,102	-68,612	0,063	0,018
-375,088	199,902	0,061	0,068
-374,073	-107,649	-0,051	-0,008
-373,058	113,034	-0,067	-0,059
-372,044	61,541	-0,015	-0,011
-371,029	800,000	0,016	0,042
-370,015	99,094	0,017	-0,014
-369,000	246,620	-0,007	-0,009
-367,985	-18,051	-0,108	-0,049
-366,971	800,000	-0,066	0,145
-365,956	-200,000	0,022	0,076
-364,942	-200,000	0,007	0,030
-363,927	596,033	0,018	0,032
-362,912	-49,673	0,039	0,013
-361,898	800,000	0,029	-0,068
-360,883	-4,238	0,067	0,034
-359,869	-33,925	0,030	0,012
-358,854	-200,000	0,009	0,031
-357,839	-100,432	0,096	-0,017
-356,825	661,561	0,001	0,003
-355,810	-112,517	-0,085	-0,012
-354,796	-187,087	-0,081	-0,001
-353,781	-50,388	-0,027	-0,009
-352,766	263,530	0,052	0,066
-351,752	-39,119	0,085	-0,032
-350,737	87,074	0,086	0,069
-349,723	-163,995	0,079	0,003
-348,708	-3,278	-0,046	0,023
-347,693	-81,764	-0,134	0,032
-346,679	2,356	-0,059	-0,031
-345,664	506,294	-0,024	-0,040
-344,650	800,000	0,014	0,044
-343,635	638,166	0,046	0,085
-342,620	362,409	0,070	0,103
-341,606	800,000	0,029	0,062
-340,591	-200,000	0,019	-0,155
-339,577	-30,103	0,048	0,020
-338,562	800,000	0,017	0,051
-337,548	97,905	-0,032	-0,027
-336,533	147,499	-0,049	0,048
-335,518	800,000	-0,034	0,069
-334,504	120,722	-0,115	-0,104
-333,489	-200,000	0,029	0,123
-332,475	411,241	-0,052	-0,081
-331,460	-52,764	0,031	-0,010
-330,445	800,000	0,056	-0,114
-329,431	168,238	0,071	-0,073
-328,416	800,000	-0,082	0,192
-327,402	29,538	-0,081	0,050
-326,387	19,963	-0,054	0,032
-325,372	-200,000	-0,021	0,135
-324,358	-183,498	0,029	-0,000
-323,343	134,841	0,080	-0,075
-322,329	-103,730	0,036	0,006
-321,314	-55,796	-0,074	-0,024
-320,299	39,268	0,065	0,042
-319,285	-0,979	-0,123	-0,063
-318,270	323,902	0,083	-0,115
-317,256	-200,000	0,011	-0,116
-316,241	-13,903	-0,101	0,047
-315,226	81,645	0,081	0,063
-314,212	252,603	-0,053	0,066
-313,197	81,449	0,152	-0,119
-312,183	-200,000	0,005	-0,116
-311,168	249,387	-0,101	0,125
-310,153	800,000	0,037	-0,088
-309,139	387,116	-0,085	0,128
-308,124	-200,000	-0,033	0,106
-307,110	-169,106	0,089	-0,002
-306,095	-128,834	0,016	-0,002
-305,080	800,000	-0,009	-0,026
-304,066	-200,000	0,010	0,067
-303,051	3,247	0,122	0,064
-302,037	-200,000	0,034	-0,142
-301,022	-80,619	-0,059	-0,014
-300,008	39,124	0,062	0,040
-298,993	800,000	0,016	0,048
-297,978	-200,000	0,010	-0,041
-296,964	112,024	-0,062	0,054
-295,949	60,975	-0,082	0,059
-294,935	240,509	-0,059	-0,072
-293,920	-83,670	0,137	-0,031
-292,905	-13,802	0,070	0,033
-291,891	647,936	0,064	-0,119
-290,876	-75,710	0,225	-0,057
-289,862	-166,164	-0,069	-0,002
-288,847	-200,000	-0,005	-0,173
-287,832	276,231	-0,025	0,033
-286,818	-51,515	-0,085	-0,029
-285,803	420,547	-0,093	-0,145
-284,789	22,439	0,161	-0,095
-283,774	-144,988	0,064	-0,004
-282,759	-200,000	-0,002	-0,014
-281,745	404,865	-0,082	-0,126
-280,730	202,574	0,070	-0,078
-279,716	49,836	-0,103	0,070
-278,701	800,000	0,044	0,123
-277,686	45,599	0,074	0,050
-276,672	158,629	0,048	0,048
-275,657	-200,000	0,026	-0,102
-274,643	62,048	-0,081	0,058
-273,628	480,367	-0,053	-0,088
-272,613	800,000	0,041	0,096
-271,599	39,626	0,099	0,064
-270,584	35,053	0,173	0,110
-269,570	-200,000	0,013	0,129
-268,555	-103,382	0,028	-0,005
-267,540	-5,984	0,059	-0,029
-266,526	-200,000	-0,011	-0,041
-265,511	-124,626	-0,048	-0,005
-264,497	-97,934	0,041	-0,008
-263,482	800,000	0,002	0,004
-262,467	235,728	0,066	-0,078
-261,453	-116,338	-0,212	-0,028
-260,438	11,457	0,031	0,017
-259,424	-27,371	-0,036	-0,015
-258,409	-200,000	0,046	-0,176
-257,395	-120,350	-0,105	0,013
-256,380	1,381	0,233	0,121
-255,365	-75,880	0,080	0,020
-254,351	800,000	-0,027	-0,067
-253,336	-200,000	0,022	-0,090
-252,322	-200,000	0,017	-0,059
-251,307	217,018	0,023	-0,026
-250,292	800,000	0,035	-0,081
-249,278	-200,000	-0,010	0,071
-248,263	-2,192	0,061	-0,031
-247,249	-200,000	-0,002	-0,110
-246,234	46,990	0,089	0,060
-245,219	189,930	-0,150	-0,163
-244,205	147,328	0,070	-0,068
-243,190	35,007	0,066	-0,042
-242,176	800,000	-0,063	0,181
-241,161	-73,995	0,145	-0,038
-240,146	195,153	0,090	-0,099
-239,132	17,014	0,106	-0,060
-238,117	561,449	-0,058	-0,103
-237,103	337,482	0,043	-0,060
-236,088	-97,888	-0,080	0,015
-235,073	800,000	0,023	0,053
-234,059	70,238	-0,130	-0,097
-233,044	-200,000	-0,010	-0,057
-232,030	-200,000	-0,009	0,136
-231,015	375,053	0,028	0,042
-230,000	671,040	0,066	-0,123
-228,986	5,961	-0,040	0,021
-227,971	38,090	-0,097	-0,062
-226,957	70,969	0,056	0,042
-225,942	-157,412	0,089	0,004
-224,927	-79,103	-0,100	0,024
-223,913	-200,000	-0,007	-0,152
-222,898	-137,681	-0,128	0,010
-221,884	-200,000	0,001	-0,080
-220,869	139,934	0,201	0,191
-219,855	-117,493	-0,021	-0,003
-218,840	800,000	0,017	0,041
-217,825	800,000	0,033	-0,081
-216,811	-148,642	0,154	0,009
-215,796	800,000	0,015	-0,030
-214,782	-200,000	-0,045	0,178
-213,767	-200,000	-0,001	0,010
-212,752	242,430	0,076	0,092
-211,738	-98,624	-0,043	-0,008
-210,723	15,333	-0,068	0,038
-209,709	253,825	-0,034	-0,042
-208,694	-200,000	-0,010	-0,034
-207,679	89,762	0,057	0,046
-206,665	-40,091	-0,039	-0,015
-205,650	351,937	0,044	0,063
-204,636	-200,000	0,031	0,111
-203,621	106,319	0,057	0,049
-202,606	21,995	-0,125	0,074
-201,592	445,722	-0,031	0,049
-200,577	-66,308	-0,079	-0,023
-199,563	-45,552	-0,071	0,025
-198,548	775,040	0,065	0,128
-197,533	800,000	0,073	0,192
-196,519	629,605	-0,068	0,124
-195,504	-200,000	-0,032	-0,140
-194,490	-200,000	0,003	0,026
-193,475	-133,835	0,083	0,007
-192,460	121,299	-0,073	-0,066
-191,446	140,558	0,085	-0,081
-190,431	423,728	0,020	-0,032
-189,417	251,864	-0,058	0,071
-188,402	25,770	-0,108	0,065
-187,387	800,000	0,015	-0,043
-186,373	-97,147	0,114	0,021
-185,358	-164,946	-0,098	-0,003
-184,344	-179,677	0,146	0,002
-183,329	71,457	0,027	0,020
-182,315	-200,000	0,006	0,094
-181,300	10,108	-0,092	-0,050
-180,285	344,176	0,016	0,023
-179,271	-200,000	0,030	-0,118
-178,256	-200,000	-0,037	-0,223
-177,242	-200,000	0,019	-0,084
-176,227	42,750	0,137	0,090
-175,212	-200,000	0,021	0,141
-174,198	-99,067	-0,134	0,024
-173,183	-101,385	-0,111	0,019
-172,169	387,060	-0,038	-0,057
-171,154	-18,370	-0,134	0,060
-170,139	449,616	0,044	0,070
-169,125	287,352	0,089	0,116
-168,110	42,789	0,100	0,066
-167,096	-200,000	-0,000	0,098
-166,081	313,036	0,020	0,027
-165,066	2,189	-0,144	-0,075
-164,052	-200,000	0,002	0,072
-163,037	48,795	-0,072	-0,049
-162,023	466,554	-0,089	0,145
-161,008	800,000	-0,053	-0,124
-159,993	-67,803	0,071	-0,020
-158,979	81,648	-0,058	0,045
-157,964	-200,000	0,020	-0,075
-156,950	-56,431	0,090	-0,029
-155,935	506,661	0,046	-0,077
-154,920	-105,731	0,087	0,014
-153,906	-200,000	-0,023	0,095
-152,891	22,861	-0,069	-0,041
-151,877	167,711	0,104	-0,107
-150,862	800,000	-0,036	0,112
-149,847	-26,893	-0,047	-0,020
-148,833	42,401	0,021	0,014
-147,818	563,547	0,071	0,124
-146,804	800,000	0,035	0,093
-145,789	800,000	0,063	0,139
-144,775	53,971	0,028	0,020
-143,760	164,318	-0,072	-0,073
-142,745	-200,000	0,027	-0,124
-141,731	118,741	0,071	0,063
-140,716	415,632	-0,100	0,153
-139,702	-115,422	0,110	-0,015
-138,687	-200,000	0,007	0,196
-137,672	-99,099	0,085	-0,015
-136,658	800,000	-0,020	-0,059
-135,643	-200,000	0,017	-0,093
-134,629	-150,488	0,083	-0,005
-133,614	-200,000	0,002	-0,119
-132,599	708,233	-0,029	-0,055
-131,585	-200,000	-0,014	-0,077
-130,570	758,692	0,024	0,047
-129,556	178,397	-0,066	0,070
-128,541	-200,000	-0,017	-0,190
-127,526	162,561	-0,029	0,030
-126,512	85,471	0,046	-0,036
-125,497	49,952	-0,060	0,040
-124,483	-42,651	-0,022	0,008
-123,468	539,605	0,051	0,087
-122,453	117,554	-0,111	0,098
-121,439	166,181	-0,030	-0,030
-120,424	431,746	0,070	0,109
-119,410	-199,731	0,051	0,000
-118,395	279,541	-0,037	-0,047
-117,380	-116,580	0,066	-0,009
-116,366	23,682	-0,098	0,058
-115,351	267,799	-0,047	-0,059
-114,337	328,450	-0,083	0,115
-113,322	-49,287	0,070	-0,024
-112,307	754,627	0,047	0,092
-111,293	5,059	0,093	0,049
-110,278	-10,963	-0,037	0,018
-109,264	-200,000	-0,002	-0,038
-108,249	-38,561	-0,148	-0,056
-107,234	6,184	-0,030	-0,016
-106,220	15,530	-0,068	-0,039
-105,205	-200,000	-0,019	0,063
-104,191	800,000	-0,020	-0,058
-103,176	-153,027	0,099	0,005
-102,162	800,000	-0,050	0,105
-101,147	-200,000	0,028	0,100
-100,132	-200,000	0,011	0,077
-99,118	-200,000	-0,011	-0,084
-98,103	-64,139	0,045	-0,013
-97,089	-200,000	-0,015	0,267
-96,074	-147,361	0,080	0,005
-95,059	74,052	0,087	0,065
-94,045	110,171	0,021	0,018
-93,030	-50,730	-0,073	-0,025
-92,016	-200,000	-0,005	0,141
-91,001	579,258	-0,030	-0,053
-89,986	584,594	-0,012	0,022
-88,972	-129,409	0,113	0,011
-87,957	-124,450	-0,165	-0,018
-86,943	642,733	-0,073	0,135
-85,928	800,000	0,021	-0,043
-84,913	113,371	-0,067	-0,058
-83,899	518,302	0,029	0,049
-82,884	321,093	0,059	-0,080
-81,870	-200,000	-0,010	-0,049
-80,855	403,871	0,025	0,038
-79,840	800,000	-0,073	-0,173
-78,826	800,000	-0,012	0,025
-77,811	-200,000	0,051	-0,176
-76,797	101,696	0,093	-0,078
-75,782	-200,000	0,016	0,073
-74,767	800,000	-0,008	0,020
-73,753	800,000	-0,049	0,117
-72,738	-200,000	-0,028	0,110
-71,724	-170,878	-0,210	-0,005
-70,709	-200,000	0,031	-0,102
-69,694	-200,000	-0,015	-0,169
-68,680	800,000	0,031	-0,066
-67,665	125,394	-0,040	-0,036
-66,651	-68,975	-0,040	0,011
-65,636	221,158	0,051	-0,059
-64,622	-76,758	-0,063	0,016
-63,607	-69,410	0,044	-0,012
-62,592	259,639	-0,043	-0,053
-61,578	-200,000	-0,039	0,138
-60,563	80,769	-0,051	0,039
-59,549	800,000	0,064	0,163
-58,534	1,306	-1,932	-0,993
-57,519	800,000	-0,311	-0,976
-56,505	-200,000	-1,298	-4,934
-55,490	88,861	0,743	0,592
-54,476	800,000	5,208	11,923
-53,461	-200,000	18,092	295,312
-52,446	800,000	731,410	2252,335
-51,432	541,457	1648,045	2828,827
-50,417	109,150	1637,243	1405,352
-49,403	74,371	1287,704	969,882
-48,388	31,232	1027,738	631,472
-47,373	20,125	989,569	571,381
-46,359	18,157	977,456	557,911
-45,344	15,137	973,223	545,593
-44,330	15,350	971,905	545,527
-43,315	14,791	970,066	542,648
-42,300	14,831	968,753	542,024
-41,286	14,699	968,119	541,215
-40,271	14,772	967,036	540,827
-39,257	14,786	966,018	540,282
-38,242	14,690	965,294	539,543
-37,227	14,831	964,282	539,413
-36,213	14,712	963,529	538,585
-35,198	14,746	962,509	538,103
-34,184	14,815	961,862	537,943
-33,169	14,739	960,875	537,123
-32,154	14,784	959,965	536,741
-31,140	14,785	959,071	536,222
-30,125	14,843	958,396	536,012
-29,111	14,723	957,644	535,181
-28,096	14,770	956,811	534,848
-27,082	14,798	956,171	534,559
-26,067	14,806	955,354	534,107
-25,052	14,751	954,695	533,538
-24,038	14,740	954,133	533,168
-23,023	14,773	953,390	532,838
-22,009	14,804	952,731	532,547
-20,994	14,819	952,118	532,234
-19,979	14,809	951,332	531,740
-18,965	14,778	950,723	531,278
-17,950	14,747	950,205	530,871
-16,936	14,722	949,510	530,380
-15,921	14,747	948,770	530,026
-14,906	14,700	948,193	529,531
-13,892	14,655	947,511	528,987
-12,877	14,643	946,758	528,506
-11,863	14,638	946,310	528,221
-10,848	14,649	945,740	527,917
-9,833	14,750	945,359	528,005
-8,819	14,740	944,533	527,490
-7,804	14,685	944,013	527,005
-6,790	14,662	943,408	526,573
-5,775	14,697	942,847	526,350
-4,760	14,733	942,162	526,059
-3,746	14,667	941,662	525,552
-2,731	14,542	940,816	524,663
-1,717	14,506	940,122	524,141
-0,702	14,490	939,613	523,785
0,313	14,299	938,914	523,584
1,327	17,481	936,790	532,379
2,342	26,349	793,390	474,367
3,356	22,959	459,025	269,238
4,371	-3,963	315,613	156,385
5,386	-8,119	297,632	143,236
6,400	-10,271	291,500	138,125
7,415	-10,465	288,967	136,721
8,429	-10,516	287,485	135,957
9,444	-10,708	286,667	135,370
10,459	-10,606	285,918	135,104
11,473	-10,667	285,365	134,771
12,488	-10,645	284,846	134,536
13,502	-10,595	284,353	134,340
14,517	-10,834	283,981	133,920
15,531	-10,661	283,528	133,862
16,546	-10,541	282,985	133,710
17,561	-10,620	282,730	133,501
18,575	-10,706	282,497	133,296
19,590	-10,610	282,078	133,179
20,604	-10,585	281,676	133,002
21,619	-10,759	281,470	132,725
22,634	-10,532	281,029	132,723
23,648	-10,581	280,719	132,517
24,663	-10,643	280,511	132,349
25,677	-10,453	279,986	132,270
26,692	-10,606	280,010	132,124
27,707	-10,430	279,610	132,091
28,721	-10,612	279,259	131,740
29,736	-10,605	279,150	131,684
30,750	-10,567	278,778	131,532
31,765	-10,550	278,554	131,432
32,780	-10,627	278,397	131,272
33,794	-10,547	278,019	131,159
34,809	-10,485	277,840	131,121
35,823	-10,663	277,537	130,797
36,838	-10,742	277,276	130,588
37,853	-10,578	276,901	130,555
38,867	-10,524	276,696	130,498
39,882	-10,607	276,535	130,332
40,896	-10,625	276,343	130,212
41,911	-10,621	276,033	130,059
42,926	-10,589	275,725	129,932
43,940	-10,545	275,562	129,886
44,955	-10,629	275,186	129,618
45,969	-10,604	274,932	129,510
46,984	-10,544	274,865	129,523
47,999	-10,814	274,492	129,083
49,013	-11,045	274,346	128,787
50,028	-11,244	274,138	128,492
51,042	-11,277	273,626	128,209
52,057	-11,143	273,492	128,260
53,071	-11,117	273,287	128,177
54,086	-11,152	273,167	128,076
55,101	-11,118	273,061	128,047
56,115	-10,915	272,759	128,083
57,130	-10,551	272,767	128,414
58,144	-10,488	272,520	128,344
59,159	-10,481	272,261	128,217
60,174	-10,510	271,976	128,045
61,188	-10,500	271,947	128,029
62,203	-10,440	271,543	127,883
63,217	-10,240	271,241	127,914
64,232	-10,376	271,045	127,685
65,247	-10,566	270,899	127,429
66,261	-10,426	270,607	127,409
67,276	-10,667	270,404	127,080
68,290	-10,685	270,106	126,913
69,305	-10,913	269,870	126,580
70,320	-10,863	269,704	126,538
71,334	-10,668	269,558	126,636
72,349	-10,471	269,320	126,694
73,363	-10,394	269,078	126,639
74,378	-10,496	268,986	126,492
75,393	-10,522	268,572	126,262
76,407	-10,522	268,427	126,183
77,422	-10,466	268,267	126,147
78,436	-10,550	268,074	125,968
79,451	-10,674	267,796	125,714
80,466	-10,496	267,580	125,763
81,480	-10,502	267,125	125,533
82,495	-10,493	267,077	125,507
83,509	-10,552	266,855	125,338
84,524	-10,782	266,764	125,076
85,539	-10,614	266,563	125,122
86,553	-10,765	266,109	124,761
87,568	-10,568	266,062	124,906
88,582	-10,603	265,704	124,695
89,597	-10,719	265,644	124,551
90,611	-10,643	265,635	124,605
91,626	-10,581	265,405	124,542
92,641	-10,436	265,141	124,538
93,655	-10,503	264,867	124,337
94,670	-10,690	264,862	124,156
95,684	-10,570	264,524	124,094
96,699	-10,539	264,258	123,986
97,714	-10,615	264,129	123,846
98,728	-10,793	263,863	123,551
99,743	-10,741	263,539	123,435
100,757	-10,722	263,367	123,360
101,772	-10,894	263,249	123,140
102,787	-10,564	263,059	123,335
103,801	-10,433	262,817	123,328
104,816	-10,707	262,805	123,066
105,830	-10,390	262,534	123,211
106,845	-10,467	262,334	123,037
107,860	-10,506	262,226	122,941
108,874	-10,508	262,050	122,846
109,889	-10,643	261,695	122,548
110,903	-10,699	261,666	122,475
111,918	-10,550	261,312	122,430
112,933	-10,769	261,368	122,251
113,947	-10,413	260,877	122,325
114,962	-10,596	260,790	122,112
115,976	-10,768	260,581	121,851
116,991	-10,548	260,317	121,911
118,006	-10,510	260,214	121,885
119,020	-10,528	260,001	121,759
120,035	-10,416	259,968	121,831
121,049	-10,556	259,740	121,591
122,064	-10,563	259,473	121,449
123,079	-10,609	259,382	121,354
124,093	-10,675	259,277	121,237
125,108	-10,582	258,743	121,058
126,122	-10,607	258,650	120,982
127,137	-10,760	258,390	120,715
128,151	-10,742	258,159	120,612
129,166	-10,527	258,067	120,746
130,181	-10,717	257,769	120,430
131,195	-10,745	257,735	120,379
132,210	-10,529	257,431	120,415
133,224	-10,645	257,292	120,238
134,239	-10,568	257,221	120,262
135,254	-10,448	256,944	120,225
136,268	-10,491	256,606	120,019
137,283	-10,846	256,465	119,634
138,297	-10,962	256,322	119,457
139,312	-10,981	255,954	119,258
140,327	-10,514	255,953	119,651
141,341	-10,271	255,841	119,798
142,356	-10,373	255,737	119,651
143,370	-10,369	255,508	119,536
144,385	-10,351	255,429	119,504
145,400	-10,205	255,127	119,478
146,414	-10,333	254,899	119,250
147,429	-10,311	254,581	119,110
148,443	-10,456	254,684	119,022
149,458	-10,189	254,474	119,144
150,473	-10,177	254,283	119,054
151,487	-10,333	254,033	118,792
152,502	-10,371	253,871	118,673
153,516	-10,220	253,587	118,659
154,531	-10,368	253,640	118,547
155,546	-10,369	253,235	118,346
156,560	-10,403	253,101	118,244
157,575	-10,444	252,945	118,125
158,589	-10,427	252,682	118,007
159,604	-10,232	252,504	118,079
160,619	-10,481	252,358	117,788
161,633	-10,343	252,199	117,821
162,648	-10,429	252,053	117,669
163,662	-10,399	251,817	117,574
164,677	-10,443	251,631	117,439
165,692	-10,348	251,537	117,466
166,706	-10,298	251,515	117,487
167,721	-10,310	251,288	117,361
168,735	-10,284	251,029	117,251
169,750	-10,196	250,845	117,229
170,764	-10,375	250,882	117,085
171,779	-10,399	250,608	116,926
172,794	-10,237	250,416	116,963
173,808	-10,418	250,337	116,762
174,823	-10,520	249,822	116,426
175,837	-10,728	249,721	116,194
176,852	-10,497	249,653	116,346
177,867	-10,236	249,385	116,430
178,881	-10,270	249,267	116,336
179,896	-10,371	249,202	116,210
180,910	-10,271	248,929	116,156
181,925	-10,417	248,845	115,985
182,940	-10,229	248,684	116,056
183,954	-10,311	248,602	115,939
184,969	-10,417	248,455	115,772
185,983	-10,341	248,347	115,775
186,998	-10,229	248,000	115,697
188,013	-10,313	247,790	115,518
189,027	-10,356	247,556	115,362
190,042	-10,393	247,536	115,312
191,056	-10,442	247,231	115,119
192,071	-10,327	247,198	115,189
193,086	-10,368	246,958	115,034
194,100	-10,344	246,736	114,939
195,115	-10,323	246,531	114,851
196,129	-10,194	246,326	114,853
197,144	-10,327	246,217	114,681
198,159	-10,294	245,869	114,536
199,173	-10,268	245,818	114,524
200,188	-10,355	245,677	114,375
201,202	-10,659	245,325	113,951
202,217	-10,753	245,130	113,773
203,232	-11,001	245,018	113,506
204,246	-10,458	244,922	113,899
205,261	-10,040	244,733	114,145
206,275	-10,958	244,329	113,192
207,290	-6,523	246,121	117,680
208,304	1,017	248,581	125,125
209,319	3,916	249,339	127,909
210,334	4,367	249,338	128,272
211,348	4,728	249,148	128,463
212,363	4,947	249,116	128,617
213,377	4,966	249,042	128,583
214,392	4,835	248,892	128,385
215,407	4,734	248,658	128,169
216,421	4,920	248,418	128,189
217,436	5,071	248,289	128,235
218,450	5,065	248,368	128,260
219,465	4,834	248,008	127,871
220,480	4,740	247,693	127,620
221,494	4,514	247,527	127,337
222,509	4,567	247,523	127,367
223,523	4,420	247,279	127,109
224,538	4,058	247,012	126,663
225,553	4,151	246,803	126,621
226,567	4,463	246,643	126,784
227,582	4,499	246,504	126,731
228,596	4,543	246,446	126,726
229,611	4,043	246,256	126,207
230,626	4,095	246,077	126,146
231,640	4,217	245,777	126,081
232,655	4,515	245,767	126,308
233,669	4,328	245,465	125,989
234,684	4,034	245,424	125,717
235,699	4,414	245,348	125,976
236,713	4,690	245,187	126,108
237,728	4,293	245,017	125,686
238,742	4,000	244,631	125,238
239,757	3,950	244,490	125,114
240,772	4,142	244,369	125,197
241,786	4,435	244,227	125,351
242,801	4,122	244,032	124,986
243,815	4,151	243,910	124,936
244,830	4,162	243,921	124,939
245,844	4,418	243,697	125,021
246,859	4,151	243,545	124,716
247,874	4,270	243,160	124,603
248,888	4,065	243,142	124,417
249,903	4,347	243,181	124,654
250,917	4,426	243,014	124,621
251,932	4,674	242,834	124,718
252,947	4,356	242,696	124,380
253,961	4,224	242,405	124,113
254,976	4,540	242,223	124,263
255,990	4,788	242,138	124,408
257,005	4,292	241,895	123,873
258,020	3,922	241,751	123,492
259,034	4,277	241,506	123,640
260,049	4,311	241,371	123,587
261,063	4,129	241,232	123,359
262,078	4,054	241,179	123,261
263,093	4,388	241,071	123,462
264,107	4,317	240,988	123,351
265,122	4,253	240,752	123,169
266,136	4,242	240,675	123,110
267,151	4,610	240,426	123,265
268,166	4,316	240,214	122,911
269,180	4,010	240,074	122,585
270,195	4,662	240,084	123,098
271,209	4,942	239,961	123,247
272,224	4,437	239,617	122,658
273,239	3,796	239,341	121,997
274,253	3,997	239,053	121,998
275,268	4,191	239,208	122,221
276,282	4,268	238,999	122,164
277,297	4,050	238,829	121,893
278,312	4,180	238,546	121,841
279,326	4,108	238,689	121,846
280,341	4,266	238,467	121,847
281,355	4,176	238,208	121,632
282,370	4,520	238,148	121,863
283,384	4,348	237,888	121,583
284,399	4,023	237,735	121,238
285,414	3,836	237,528	120,974
286,428	4,034	237,447	121,078
287,443	4,191	237,332	121,132
288,457	4,455	237,078	121,199
289,472	4,357	237,169	121,158
290,487	4,125	236,966	120,861
291,501	3,968	236,761	120,623
292,516	3,896	236,461	120,403
293,530	3,985	236,308	120,384
294,545	4,146	236,519	120,607
295,560	4,328	236,110	120,529
296,574	4,095	235,884	120,221
297,589	4,026	235,827	120,128
298,603	4,410	235,750	120,377
299,618	4,435	235,617	120,318
300,633	4,426	235,479	120,231
301,647	4,472	235,382	120,206
302,662	4,708	235,418	120,397
303,676	4,629	235,105	120,165
304,691	4,602	234,908	120,033
305,706	4,803	234,616	120,029
306,720	4,583	234,693	119,887
307,735	4,445	234,465	119,653
308,749	4,496	234,282	119,588
309,764	4,171	233,957	119,160
310,779	4,040	233,792	118,964
311,793	3,908	233,536	118,722
312,808	3,890	233,533	118,695
313,822	3,694	233,310	118,421
314,837	3,695	233,055	118,281
315,852	4,254	232,880	118,612
316,866	4,649	233,099	119,016
317,881	4,772	232,971	119,035
318,895	4,396	232,777	118,637
319,910	4,557	232,651	118,686
320,925	4,052	232,407	118,163
321,939	4,002	232,190	118,004
322,954	4,364	232,274	118,314
323,968	4,570	232,026	118,334
324,983	4,399	231,971	118,165
325,997	4,511	231,758	118,132
327,012	4,443	231,678	118,028
328,027	4,133	231,368	117,623
329,041	4,451	231,381	117,862
330,056	4,969	231,395	118,255
331,070	5,092	231,241	118,259
332,085	4,744	230,824	117,770
333,100	4,466	230,681	117,475
334,114	4,610	230,559	117,512
335,129	4,694	230,503	117,537
336,143	4,726	230,437	117,517
337,158	4,608	230,184	117,288
338,173	4,400	229,996	117,024
339,187	4,167	229,937	116,806
340,202	4,528	229,690	116,945
341,216	4,564	229,552	116,890
342,231	4,072	229,431	116,447
343,246	4,326	229,152	116,486
344,260	4,568	229,171	116,669
345,275	4,699	229,019	116,680
346,289	4,850	228,848	116,696
347,304	4,847	228,664	116,589
348,319	4,536	228,642	116,334
349,333	4,627	228,356	116,246
350,348	3,967	228,303	115,713
351,362	4,186	228,181	115,805
352,377	4,193	227,688	115,550
353,392	3,870	227,555	115,229
354,406	4,185	227,547	115,452
355,421	195,778	1320,379	1397,582
356,435	156,996	1453,502	1397,568
