DTS Sentinel unit serial number:	SN410029Multiplexer serial number:	ORYXHardware model number:	OX2-SRSoftware version number:	ORYX F/W v4,00 Oryx Data Collector v3.7.2.0data status	okinstallation	B5 Nyhavnadifferential loss correction	single-endedforward channel	channel 2reverse channel	N/Adate	2023/12/12time	13:42:13forward acquisition time	300,00reverse acquisition time	0,00gamma	499,1914k internal	0,3157k external	0,3157temperature offset calibration	1,0000default loss term (dB/km)	0,3820temperature slope calibration	1,0000multiplexer offset coefficient	1,0000multiplexer slope coefficient	1,0000fibre end	0,00T internal ref (°C)	15,68T ext. ref 1 (°C)	-0,29T ext. ref 2 (°C)	-0,54length (m)	temperature (°C)	Stokes	anti-Stokes-744,400	715,045	-0,007	-0,014
-743,385	-87,549	-0,412	0,091
-742,371	-200,000	-0,015	0,132
-741,356	-175,008	-0,199	-0,004
-740,342	-37,327	0,071	0,028
-739,327	-61,421	-0,283	-0,087
-738,312	176,311	-0,019	0,020
-737,298	-30,823	-0,189	-0,078
-736,283	620,675	-0,018	-0,034
-735,269	91,686	-0,121	-0,100
-734,254	54,500	0,054	0,038
-733,239	10,551	-0,435	-0,243
-732,225	-6,014	0,115	0,058
-731,210	-1,447	-0,134	-0,070
-730,196	206,802	-0,040	-0,047
-729,181	-59,942	-0,103	0,032
-728,167	-200,000	0,004	-0,029
-727,152	-29,800	-0,049	0,021
-726,137	-162,471	-0,157	-0,006
-725,123	-26,127	-0,152	0,065
-724,108	-200,000	0,000	-0,007
-723,094	31,696	-0,132	-0,084
-722,079	627,562	0,028	-0,052
-721,064	10,866	0,080	-0,045
-720,050	800,000	0,036	0,103
-719,035	-200,000	0,002	-0,035
-718,021	-94,884	-0,040	0,008
-717,006	741,257	-0,042	-0,083
-715,991	-200,000	-0,060	-0,256
-714,977	-123,526	-0,136	-0,016
-713,962	-77,464	-0,109	-0,028
-712,948	-135,286	-0,191	0,017
-711,933	492,415	0,075	0,127
-710,918	-70,023	-0,048	-0,013
-709,904	-200,000	-0,056	-0,186
-708,889	-28,363	-0,052	-0,022
-707,875	-200,000	-0,027	-0,109
-706,860	307,597	-0,037	0,051
-705,845	167,765	0,085	0,089
-704,831	800,000	-0,046	-0,106
-703,816	143,529	-0,107	-0,105
-702,802	98,779	-0,073	-0,062
-701,787	1,958	-0,123	-0,065
-700,772	-200,000	-0,007	0,060
-699,758	744,256	-0,056	0,112
-698,743	-58,573	0,123	0,039
-697,729	26,122	-0,085	0,052
-696,714	261,633	-0,036	0,046
-695,699	-200,000	0,018	-0,182
-694,685	394,589	-0,094	-0,145
-693,670	800,000	-0,039	-0,105
-692,656	-200,000	-0,003	-0,072
-691,641	217,535	-0,024	0,029
-690,627	575,163	0,032	-0,058
-689,612	-200,000	0,006	-0,078
-688,597	-80,835	-0,083	0,020
-687,583	575,532	-0,055	-0,099
-686,568	34,832	0,052	0,033
-685,554	-200,000	-0,007	0,128
-684,539	-200,000	-0,009	-0,073
-683,524	116,020	-0,062	-0,056
-682,510	-140,024	-0,077	-0,006
-681,495	-67,326	0,094	-0,027
-680,481	94,569	-0,144	-0,121
-679,466	-16,020	-0,149	0,069
-678,451	800,000	-0,019	0,053
-677,437	35,149	0,044	0,028
-676,422	-34,392	0,060	0,024
-675,408	258,358	0,089	0,113
-674,393	-159,829	-0,049	0,002
-673,378	379,743	-0,051	-0,076
-672,364	-200,000	0,006	0,022
-671,349	136,840	0,057	-0,054
-670,335	800,000	-0,068	0,163
-669,320	-22,167	0,038	0,017
-668,305	210,344	0,025	-0,029
-667,291	-6,864	-0,159	-0,079
-666,276	-32,474	-0,191	-0,078
-665,262	413,549	-0,085	-0,133
-664,247	-200,000	0,005	-0,064
-663,232	800,000	-0,022	0,068
-662,218	800,000	0,030	0,070
-661,203	-200,000	0,012	-0,038
-660,189	648,449	-0,033	-0,063
-659,174	723,366	-0,024	-0,047
-658,159	-101,145	-0,121	-0,022
-657,145	-137,939	-0,080	-0,006
-656,130	527,591	0,083	-0,145
-655,116	-200,000	-0,002	-0,043
-654,101	-200,000	0,006	-0,102
-653,086	671,163	-0,046	-0,088
-652,072	-144,985	-0,122	0,008
-651,057	80,157	0,148	-0,117
-650,043	-30,619	-0,110	-0,045
-649,028	359,957	0,047	-0,070
-648,014	-41,612	0,169	-0,063
-646,999	-200,000	-0,010	-0,074
-645,984	91,937	-0,047	-0,039
-644,970	152,396	-0,068	-0,068
-643,955	800,000	0,011	-0,034
-642,941	800,000	-0,057	-0,150
-641,926	233,072	0,096	-0,116
-640,911	135,143	0,034	0,033
-639,897	68,678	-0,057	0,043
-638,882	-114,436	-0,038	0,005
-637,868	-200,000	0,005	0,018
-636,853	78,071	-0,081	-0,064
-635,838	608,872	0,018	0,033
-634,824	35,860	0,024	-0,016
-633,809	444,798	-0,005	-0,009
-632,795	284,857	0,092	-0,122
-631,780	215,836	-0,033	-0,039
-630,765	657,395	-0,011	-0,020
-629,751	-163,738	-0,058	-0,002
-628,736	706,774	-0,054	-0,106
-627,722	224,109	-0,147	-0,174
-626,707	35,576	-0,152	0,098
-625,692	57,682	0,185	0,132
-624,678	-184,537	0,066	0,001
-623,663	504,797	-0,018	0,031
-622,649	-15,373	-0,044	0,020
-621,634	-7,940	-0,150	-0,074
-620,619	113,262	0,066	0,059
-619,605	44,208	0,139	0,093
-618,590	-200,000	-0,004	0,132
-617,576	800,000	0,037	0,085
-616,561	-46,949	-0,088	0,031
-615,546	527,516	-0,019	0,033
-614,532	800,000	0,018	0,042
-613,517	86,663	-0,110	0,089
-612,503	-200,000	0,014	-0,082
-611,488	-35,949	0,074	-0,029
-610,474	133,266	-0,096	-0,091
-609,459	147,969	-0,039	-0,039
-608,444	-138,007	0,021	-0,002
-607,430	168,636	0,098	-0,102
-606,415	-94,438	-0,077	0,015
-605,401	800,000	0,025	-0,070
-604,386	-200,000	-0,006	-0,040
-603,371	406,820	-0,022	-0,034
-602,357	-200,000	-0,014	0,060
-601,342	-40,978	-0,021	0,008
-600,328	236,214	-0,065	0,079
-599,313	-200,000	0,002	-0,016
-598,298	-200,000	0,003	-0,096
-597,284	-200,000	0,001	-0,011
-596,269	610,837	0,057	0,104
-595,255	-200,000	0,043	0,149
-594,240	-200,000	0,004	0,087
-593,225	257,797	0,022	0,027
-592,211	35,434	-0,116	-0,075
-591,196	-100,521	0,113	-0,020
-590,182	-130,865	0,117	-0,011
-589,167	-200,000	0,023	-0,101
-588,152	-92,792	-0,132	-0,027
-587,138	-200,000	0,011	0,088
-586,123	-171,363	-0,198	-0,005
-585,109	-68,814	0,145	0,041
-584,094	-22,041	-0,017	0,007
-583,079	-113,852	-0,047	0,007
-582,065	755,621	0,021	0,042
-581,050	-200,000	0,007	0,081
-580,036	800,000	0,036	-0,077
-579,021	53,644	-0,096	-0,067
-578,006	222,260	-0,121	-0,143
-576,992	-200,000	0,014	-0,102
-575,977	66,380	-0,098	-0,073
-574,963	-200,000	0,059	0,215
-573,948	-200,000	0,006	-0,140
-572,934	58,495	-0,030	-0,022
-571,919	71,303	-0,113	-0,086
-570,904	-23,834	-0,077	-0,034
-569,890	142,860	0,039	-0,038
-568,875	-133,467	0,023	-0,002
-567,861	-85,422	0,115	0,026
-566,846	73,656	-0,107	0,082
-565,831	252,273	0,051	-0,063
-564,817	242,603	0,028	-0,034
-563,802	800,000	0,036	-0,105
-562,788	523,253	-0,012	0,021
-561,773	-200,000	0,037	0,121
-560,758	-200,000	-0,021	-0,099
-559,744	-200,000	0,000	-0,061
-558,729	800,000	0,046	-0,125
-557,715	609,860	0,019	-0,035
-556,700	151,456	0,016	0,016
-555,685	-45,374	-0,177	0,064
-554,671	-2,960	-0,009	-0,004
-553,656	52,859	-0,005	-0,003
-552,642	198,942	0,040	0,045
-551,627	-200,000	0,001	0,158
-550,612	358,085	-0,070	-0,103
-549,598	220,458	0,047	-0,055
-548,583	85,891	-0,114	0,092
-547,569	-68,642	0,104	-0,029
-546,554	171,142	0,077	-0,081
-545,539	-200,000	0,019	-0,073
-544,525	-124,347	-0,075	-0,008
-543,510	-32,900	-0,078	-0,032
-542,496	-68,231	-0,065	0,018
-541,481	800,000	-0,021	0,050
-540,466	-200,000	-0,003	0,146
-539,452	6,386	-0,108	0,059
-538,437	800,000	-0,015	-0,046
-537,423	28,623	0,007	-0,004
-536,408	-200,000	-0,004	0,027
-535,393	-200,000	-0,001	0,113
-534,379	-48,225	-0,095	0,033
-533,364	225,286	0,034	-0,040
-532,350	800,000	0,072	0,171
-531,335	12,749	-0,069	0,039
-530,321	800,000	-0,031	-0,068
-529,306	-10,958	0,087	-0,042
-528,291	-200,000	0,001	-0,068
-527,277	364,158	-0,020	-0,029
-526,262	51,706	0,055	0,038
-525,248	28,266	-0,042	0,026
-524,233	165,540	0,040	-0,042
-523,218	-172,642	0,120	-0,003
-522,204	-74,796	-0,153	-0,040
-521,189	67,079	0,016	-0,012
-520,175	198,703	0,084	-0,094
-519,160	102,827	0,087	-0,075
-518,145	-151,103	-0,132	-0,007
-517,131	-127,808	0,101	-0,010
-516,116	742,941	-0,029	0,056
-515,102	772,678	-0,088	0,176
-514,087	-200,000	0,006	-0,108
-513,072	221,090	0,077	-0,091
-512,058	-200,000	0,007	-0,069
-511,043	-82,334	0,110	0,026
-510,029	206,698	0,054	0,061
-509,014	0,020	-0,093	0,048
-507,999	334,636	0,044	0,062
-506,985	800,000	-0,087	-0,225
-505,970	124,873	-0,042	0,039
-504,956	800,000	-0,029	-0,077
-503,941	-2,868	0,015	0,008
-502,926	-28,063	-0,064	0,027
-501,912	-200,000	0,000	0,058
-500,897	244,806	0,070	-0,086
-499,883	-74,733	-0,143	-0,037
-498,868	-200,000	0,032	-0,128
-497,853	288,367	-0,106	-0,141
-496,839	704,018	0,044	-0,086
-495,824	800,000	0,049	-0,107
-494,810	-21,880	0,074	0,033
-493,795	207,952	-0,043	-0,049
-492,781	-8,806	-0,048	-0,024
-491,766	19,377	-0,085	0,050
-490,751	95,411	0,166	-0,138
-489,737	-39,821	0,072	0,027
-488,722	-200,000	-0,003	0,085
-487,708	-200,000	0,001	0,120
-486,693	229,918	0,046	0,055
-485,678	-200,000	-0,008	-0,106
-484,664	-76,550	-0,078	0,020
-483,649	-200,000	-0,037	-0,124
-482,635	-200,000	0,007	-0,057
-481,620	198,477	-0,111	-0,124
-480,605	455,648	0,016	-0,027
-479,591	-147,607	-0,057	0,003
-478,576	-50,127	0,059	0,020
-477,562	260,946	-0,090	-0,114
-476,547	143,063	-0,066	0,064
-475,532	-200,000	0,004	0,094
-474,518	-200,000	-0,012	-0,102
-473,503	-200,000	0,003	-0,017
-472,489	12,973	-0,016	0,009
-471,474	44,989	0,018	0,012
-470,459	164,367	0,032	0,033
-469,445	-27,810	-0,097	-0,041
-468,430	-182,704	-0,059	0,001
-467,416	-99,042	0,109	0,020
-466,401	-97,639	-0,149	0,028
-465,386	-56,879	0,201	-0,064
-464,372	-200,000	0,010	0,061
-463,357	800,000	-0,026	0,075
-462,343	14,685	-0,038	-0,022
-461,328	70,019	0,025	0,019
-460,313	-146,862	0,119	0,007
-459,299	-200,000	-0,038	0,138
-458,284	476,283	-0,031	0,052
-457,270	224,633	0,065	0,077
-456,255	81,031	-0,122	-0,096
-455,241	83,838	-0,161	-0,128
-454,226	84,652	0,057	-0,045
-453,211	227,358	0,037	-0,044
-452,197	-200,000	0,013	0,089
-451,182	800,000	-0,046	-0,115
-450,168	-200,000	-0,028	0,100
-449,153	800,000	0,078	-0,161
-448,138	211,032	0,087	-0,099
-447,124	800,000	-0,014	0,028
-446,109	204,401	-0,041	0,047
-445,095	554,361	0,016	-0,028
-444,080	240,976	-0,018	0,022
-443,065	-200,000	-0,024	0,112
-442,051	-200,000	-0,012	0,098
-441,036	77,224	-0,111	-0,086
-440,022	185,174	0,159	-0,172
-439,007	800,000	-0,025	-0,058
-437,992	-200,000	-0,015	0,056
-436,978	-86,276	0,128	0,028
-435,963	-99,080	-0,126	0,023
-434,949	-200,000	-0,011	0,097
-433,934	-200,000	-0,043	-0,149
-432,919	781,459	0,012	0,024
-431,905	362,396	-0,025	0,037
-430,890	-200,000	0,006	0,039
-429,876	-157,200	0,117	-0,005
-428,861	-200,000	0,019	-0,118
-427,846	-200,000	0,006	0,079
-426,832	-86,510	0,019	0,004
-425,817	-200,000	-0,008	-0,106
-424,803	345,477	-0,086	-0,123
-423,788	287,485	0,043	0,057
-422,773	238,950	0,089	0,108
-421,759	588,537	-0,040	0,072
-420,744	-89,242	-0,046	0,010
-419,730	105,767	0,059	-0,051
-418,715	-89,977	-0,186	-0,039
-417,701	139,497	0,016	0,016
-416,686	-168,707	-0,079	0,002
-415,671	397,206	-0,051	0,078
-414,657	306,508	-0,109	0,148
-413,642	143,339	0,058	0,056
-412,628	176,799	-0,058	-0,062
-411,613	48,055	0,031	-0,021
-410,598	-200,000	-0,020	-0,086
-409,584	800,000	-0,014	0,036
-408,569	-200,000	-0,000	0,003
-407,555	88,987	0,054	-0,043
-406,540	-200,000	0,038	-0,227
-405,525	168,527	-0,058	0,061
-404,511	269,263	-0,074	-0,095
-403,496	800,000	0,013	0,028
-402,482	-200,000	-0,001	-0,086
-401,467	-43,355	0,036	-0,013
-400,452	-41,326	-0,074	-0,028
-399,438	85,594	-0,022	-0,017
-398,423	47,412	-0,017	0,012
-397,409	-200,000	0,015	-0,136
-396,394	-200,000	-0,013	-0,178
-395,379	-85,300	0,061	-0,014
-394,365	64,797	-0,008	0,006
-393,350	24,565	0,017	0,010
-392,336	31,488	-0,031	-0,019
-391,321	-54,285	0,096	-0,032
-390,306	52,542	-0,098	-0,068
-389,292	800,000	-0,039	0,090
-388,277	293,673	-0,042	-0,055
-387,263	-20,456	-0,127	-0,057
-386,248	193,587	-0,068	0,075
-385,233	-161,642	-0,015	0,001
-384,219	4,725	-0,009	-0,005
-383,204	-200,000	-0,007	-0,060
-382,190	214,683	0,055	-0,064
-381,175	159,062	0,083	0,083
-380,160	-200,000	-0,036	0,145
-379,146	-200,000	0,004	-0,013
-378,131	394,449	-0,086	0,131
-377,117	167,961	0,030	0,031
-376,102	107,319	-0,044	-0,038
-375,088	-188,168	-0,085	0,001
-374,073	800,000	0,015	0,031
-373,058	234,920	0,036	0,043
-372,044	-200,000	0,015	0,209
-371,029	-200,000	-0,016	0,067
-370,015	-200,000	-0,006	0,088
-369,000	-19,021	-0,048	0,022
-367,985	800,000	-0,006	-0,014
-366,971	451,530	-0,049	0,079
-365,956	-200,000	0,009	0,072
-364,942	482,496	0,092	0,153
-363,927	512,240	0,013	0,022
-362,912	49,989	-0,080	-0,055
-361,898	-87,921	0,121	0,026
-360,883	25,607	0,088	-0,053
-359,869	800,000	-0,033	-0,072
-358,854	618,740	0,041	-0,074
-357,839	240,320	-0,025	0,031
-356,825	-200,000	0,031	0,113
-355,810	-110,079	-0,135	-0,020
-354,796	124,767	-0,058	0,053
-353,781	-33,618	0,101	-0,040
-352,766	792,712	-0,023	-0,047
-351,752	33,793	0,087	0,055
-350,737	-91,592	0,124	0,025
-349,723	-200,000	0,019	-0,066
-348,708	80,518	-0,114	0,089
-347,693	-183,956	0,071	0,001
-346,679	-10,650	0,052	-0,025
-345,664	-200,000	-0,007	-0,064
-344,650	28,738	0,039	-0,024
-343,635	800,000	0,044	0,139
-342,620	91,389	0,075	0,061
-341,606	-56,594	-0,064	-0,021
-340,591	-61,256	-0,053	0,016
-339,577	-200,000	-0,003	0,072
-338,562	-200,000	0,006	-0,055
-337,548	168,087	0,045	-0,046
-336,533	241,190	-0,071	-0,086
-335,518	29,749	-0,032	-0,020
-334,504	182,725	0,144	0,154
-333,489	-17,600	0,036	0,016
-332,475	-18,307	-0,129	-0,058
-331,460	-200,000	-0,003	-0,083
-330,445	800,000	0,016	-0,050
-329,431	730,753	-0,044	0,085
-328,416	800,000	0,057	-0,128
-327,402	-106,181	0,186	-0,030
-326,387	173,109	0,156	-0,164
-325,372	-74,968	0,065	-0,017
-324,358	148,323	-0,014	0,013
-323,343	-200,000	-0,001	-0,091
-322,329	-0,227	0,136	0,070
-321,314	-51,835	-0,087	-0,029
-320,299	800,000	0,056	0,126
-319,285	-162,579	-0,161	-0,006
-318,270	-94,589	-0,045	-0,009
-317,256	79,675	0,006	0,004
-316,241	561,335	0,059	-0,105
-315,226	406,602	-0,042	-0,064
-314,212	-165,631	0,067	0,002
-313,197	246,776	0,055	0,068
-312,183	278,899	0,030	-0,039
-311,168	9,885	-0,205	-0,113
-310,153	800,000	0,026	0,084
-309,139	-200,000	-0,001	-0,182
-308,124	274,399	0,077	-0,099
-307,110	-58,792	0,095	0,030
-306,095	-85,147	0,088	0,020
-305,080	-200,000	-0,003	-0,082
-304,066	-200,000	0,023	0,114
-303,051	-200,000	0,014	0,067
-302,037	800,000	0,014	-0,033
-301,022	650,562	0,062	0,116
-300,008	214,145	0,085	0,097
-298,993	619,482	-0,042	0,077
-297,978	537,361	-0,061	0,106
-296,964	-200,000	-0,016	0,053
-295,949	-200,000	0,022	0,134
-294,935	-200,000	0,010	-0,079
-293,920	-200,000	0,009	-0,053
-292,905	431,971	0,042	0,066
-291,891	-88,089	0,014	0,003
-290,876	-200,000	-0,013	0,080
-289,862	-156,070	-0,115	0,005
-288,847	49,851	-0,080	0,054
-287,832	-8,080	-0,083	-0,040
-286,818	-6,191	0,181	0,089
-285,803	-91,261	-0,034	0,007
-284,789	-79,911	-0,043	0,010
-283,774	38,752	-0,128	0,083
-282,759	250,377	0,115	0,141
-281,745	218,773	-0,065	-0,075
-280,730	312,345	0,029	-0,039
-279,716	-200,000	-0,038	0,127
-278,701	800,000	0,006	-0,012
-277,686	-93,343	0,045	0,009
-276,672	-44,771	0,056	0,020
-275,657	800,000	-0,030	-0,071
-274,643	800,000	0,043	0,112
-273,628	670,686	0,023	-0,043
-272,613	162,553	0,059	-0,060
-271,599	126,901	0,078	-0,072
-270,584	-200,000	0,003	0,103
-269,570	-6,379	0,038	-0,018
-268,555	-12,433	0,067	-0,032
-267,540	-11,584	-0,096	0,046
-266,526	439,151	-0,053	0,084
-265,511	-47,866	-0,127	0,044
-264,497	-89,370	0,097	-0,020
-263,482	-159,044	0,078	-0,003
-262,467	800,000	0,045	0,090
-261,453	58,576	0,123	0,087
-260,438	99,412	0,154	-0,129
-259,424	-120,725	-0,045	0,005
-258,409	160,490	0,031	-0,031
-257,395	-200,000	0,012	0,099
-256,380	-63,800	0,153	0,045
-255,365	-200,000	0,007	-0,080
-254,351	-200,000	-0,010	-0,060
-253,336	-200,000	0,010	-0,086
-252,322	-200,000	0,012	-0,055
-251,307	-200,000	0,021	0,110
-250,292	585,446	-0,012	0,021
-249,278	119,611	0,106	0,095
-248,263	152,233	0,100	0,099
-247,249	205,720	0,049	0,055
-246,234	-190,699	0,146	-0,001
-245,219	-175,843	0,039	-0,001
-244,205	-43,431	0,061	-0,022
-243,190	-44,859	0,130	0,047
-242,176	-103,569	-0,099	0,017
-241,161	501,722	-0,071	0,119
-240,146	630,415	0,119	0,218
-239,132	-50,158	-0,065	0,022
-238,117	-6,853	0,056	0,027
-237,103	124,388	-0,169	0,153
-236,088	800,000	0,023	0,063
-235,073	-39,621	0,141	-0,053
-234,059	347,828	0,015	-0,021
-233,044	519,643	0,023	-0,040
-232,030	224,745	0,064	-0,075
-231,015	-200,000	-0,012	-0,162
-230,000	-200,000	0,025	-0,129
-228,986	-68,795	-0,074	-0,021
-227,971	-174,056	0,173	-0,004
-226,957	198,698	0,053	0,059
-225,942	331,373	0,065	0,090
-224,927	52,430	-0,056	0,038
-223,913	-200,000	-0,008	0,027
-222,898	179,698	-0,091	-0,097
-221,884	-76,167	-0,093	0,024
-220,869	59,366	0,011	-0,008
-219,855	11,749	0,121	0,067
-218,840	-200,000	0,050	0,202
-217,825	-186,485	0,141	-0,001
-216,811	-111,994	-0,048	-0,007
-215,796	275,515	-0,085	-0,109
-214,782	5,434	0,080	-0,042
-213,767	256,867	-0,061	0,076
-212,752	131,491	-0,136	0,126
-211,738	-108,945	0,161	-0,025
-210,723	336,776	0,071	-0,100
-209,709	-24,178	0,042	0,018
-208,694	16,984	-0,125	-0,071
-207,679	50,205	-0,043	-0,029
-206,665	800,000	0,074	-0,156
-205,650	-200,000	0,026	0,155
-204,636	239,532	-0,030	-0,036
-203,621	-80,478	-0,123	-0,029
-202,606	800,000	-0,007	0,018
-201,592	-200,000	0,032	-0,113
-200,577	70,429	0,136	-0,101
-199,563	-200,000	0,010	0,119
-198,548	-36,963	-0,039	0,015
-197,533	800,000	-0,035	0,078
-196,519	-200,000	-0,036	0,197
-195,504	-200,000	-0,003	0,015
-194,490	40,679	-0,113	0,073
-193,475	-200,000	0,007	-0,041
-192,460	71,824	-0,047	0,035
-191,446	397,004	-0,127	0,192
-190,431	-200,000	0,009	0,107
-189,417	151,250	0,040	0,039
-188,402	-168,831	0,061	0,002
-187,387	-119,311	-0,186	-0,023
-186,373	-84,071	-0,073	-0,017
-185,358	64,924	0,063	0,046
-184,344	89,664	-0,055	-0,044
-183,329	-28,795	-0,042	-0,017
-182,315	393,841	0,078	0,117
-181,300	800,000	0,080	-0,204
-180,285	777,739	0,038	-0,076
-179,271	-111,513	0,013	-0,002
-178,256	208,773	0,009	0,010
-177,242	-53,258	-0,010	0,003
-176,227	10,398	0,027	0,015
-175,212	-43,160	-0,085	0,031
-174,198	160,834	-0,033	0,033
-173,183	-61,599	-0,162	-0,049
-172,169	-135,415	-0,083	0,007
-171,154	-164,829	0,074	0,002
-170,139	-79,296	0,093	0,022
-169,125	-57,059	-0,065	0,021
-168,110	-200,000	0,024	0,123
-167,096	80,513	-0,021	0,016
-166,081	800,000	-0,038	0,093
-165,066	42,213	0,145	-0,095
-164,052	-200,000	-0,032	-0,102
-163,037	8,379	-0,065	-0,035
-162,023	342,468	0,032	-0,046
-161,008	800,000	-0,017	0,049
-159,993	18,716	-0,066	0,038
-158,979	300,478	-0,063	0,083
-157,964	800,000	0,047	-0,127
-156,950	-56,601	-0,062	0,020
-155,935	28,508	0,038	-0,023
-154,920	800,000	-0,007	0,020
-153,906	372,251	-0,027	0,039
-152,891	564,236	0,046	0,080
-151,877	94,716	-0,188	0,154
-150,862	-129,809	-0,175	-0,017
-149,847	13,683	0,011	-0,006
-148,833	17,804	-0,093	-0,053
-147,818	52,024	0,110	-0,076
-146,804	800,000	0,036	0,093
-145,789	-12,280	0,102	0,048
-144,775	144,182	0,082	-0,079
-143,760	68,983	-0,092	-0,068
-142,745	-29,423	-0,092	-0,038
-141,731	76,578	0,085	0,065
-140,716	30,647	0,086	0,053
-139,702	-200,000	0,006	0,040
-138,687	-200,000	0,003	0,101
-137,672	-200,000	-0,007	0,036
-136,658	7,613	-0,011	0,006
-135,643	489,212	0,060	0,099
-134,629	800,000	0,044	0,126
-133,614	77,191	-0,074	0,057
-132,599	-70,571	-0,086	-0,023
-131,585	151,102	0,088	0,087
-130,570	800,000	-0,036	-0,077
-129,556	-63,649	-0,103	-0,030
-128,541	71,762	-0,008	-0,006
-127,526	-120,698	0,135	-0,016
-126,512	-87,786	-0,103	-0,022
-125,497	-72,752	0,069	0,018
-124,483	-200,000	0,013	-0,072
-123,468	28,263	0,149	-0,090
-122,453	81,006	-0,101	-0,079
-121,439	99,551	-0,111	0,093
-120,424	-200,000	0,011	-0,065
-119,410	-27,730	0,157	-0,065
-118,395	665,718	0,049	-0,091
-117,380	-137,862	0,102	0,008
-116,366	800,000	0,028	-0,073
-115,351	-200,000	0,018	0,162
-114,337	-200,000	-0,016	-0,081
-113,322	347,276	0,024	0,034
-112,307	-200,000	-0,005	-0,073
-111,293	18,380	-0,080	0,046
-110,278	-200,000	-0,015	0,076
-109,264	37,433	0,206	-0,131
-108,249	95,325	-0,096	-0,079
-107,234	106,555	0,082	0,070
-106,220	112,741	-0,092	0,080
-105,205	-200,000	-0,012	0,068
-104,191	-29,553	0,125	0,051
-103,176	69,457	0,142	-0,105
-102,162	122,049	0,113	-0,102
-101,147	800,000	-0,012	-0,032
-100,132	-77,811	-0,183	0,045
-99,118	-200,000	0,006	0,121
-98,103	-200,000	0,005	0,057
-97,089	-121,024	0,143	0,017
-96,074	121,630	-0,048	0,043
-95,059	-41,655	-0,038	0,014
-94,045	-200,000	-0,011	-0,044
-93,030	-79,158	0,144	-0,035
-92,016	-200,000	0,003	0,039
-91,001	800,000	-0,062	0,138
-89,986	-69,614	0,169	0,046
-88,972	-200,000	-0,003	0,026
-87,957	218,824	0,077	0,089
-86,943	-86,769	-0,060	0,013
-85,928	-122,476	-0,163	0,019
-84,913	492,242	-0,054	-0,089
-83,899	-200,000	-0,009	-0,104
-82,884	331,754	0,048	-0,067
-81,870	-70,812	0,115	-0,031
-80,855	757,376	0,092	0,180
-79,840	-6,430	-0,244	-0,119
-78,826	-149,187	-0,099	-0,006
-77,811	-100,103	0,138	0,024
-76,797	-173,463	0,071	-0,002
-75,782	24,349	0,095	0,056
-74,767	533,017	-0,031	-0,053
-73,753	800,000	-0,005	-0,013
-72,738	14,175	0,074	0,041
-71,724	-200,000	0,013	-0,079
-70,709	-17,491	-0,121	-0,054
-69,694	-200,000	-0,021	-0,089
-68,680	138,937	-0,095	-0,089
-67,665	-128,327	-0,108	-0,011
-66,651	793,835	0,044	0,087
-65,636	76,360	-0,035	0,026
-64,622	800,000	-0,064	-0,179
-63,607	19,166	-0,088	-0,050
-62,592	800,000	-0,046	-0,134
-61,578	206,813	0,081	0,091
-60,563	-200,000	0,000	0,107
-59,549	-200,000	0,006	0,078
-58,534	8,696	-1,801	-0,971
-57,519	800,000	-0,297	-0,925
-56,505	-200,000	-1,280	-4,835
-55,490	2,969	0,795	0,413
-54,476	800,000	5,212	12,052
-53,461	-200,000	17,277	284,862
-52,446	800,000	724,723	2225,620
-51,432	540,800	1640,207	2814,986
-50,417	111,244	1631,665	1411,065
-49,403	75,593	1286,121	973,924
-48,388	32,515	1027,936	636,182
-47,373	20,234	989,874	572,122
-46,359	18,636	978,018	560,005
-45,344	15,966	974,094	548,992
-44,330	16,230	972,567	548,974
-43,315	15,774	970,711	546,416
-42,300	15,681	969,764	545,559
-41,286	15,712	968,552	544,956
-40,271	15,695	967,657	544,373
-39,257	15,752	966,667	543,982
-38,242	15,628	966,037	543,204
-37,227	15,752	964,952	542,973
-36,213	15,729	964,109	542,404
-35,198	15,662	963,231	541,671
-34,184	15,750	962,759	541,669
-33,169	15,637	961,540	540,596
-32,154	15,760	960,698	540,498
-31,140	15,745	959,865	539,960
-30,125	15,747	959,071	539,497
-29,111	15,741	958,225	538,980
-28,096	15,732	957,778	538,679
-27,082	15,735	957,007	538,234
-26,067	15,736	956,225	537,778
-25,052	15,779	955,359	537,407
-24,038	15,698	954,754	536,784
-23,023	15,675	954,188	536,372
-22,009	15,707	953,513	536,074
-20,994	15,727	952,967	535,809
-19,979	15,746	952,191	535,411
-18,965	15,712	951,568	534,932
-17,950	15,676	951,066	534,512
-16,936	15,657	950,347	534,026
-15,921	15,701	949,682	533,774
-14,906	15,502	949,186	532,837
-13,892	15,615	948,459	532,769
-12,877	15,620	947,707	532,340
-11,863	15,558	947,074	531,768
-10,848	15,618	946,622	531,683
-9,833	15,647	946,074	531,447
-8,819	15,703	945,318	531,178
-7,804	15,684	944,709	530,756
-6,790	15,616	944,296	530,285
-5,775	15,665	943,528	529,988
-4,760	15,629	942,944	529,527
-3,746	15,583	942,470	529,092
-2,731	15,504	941,716	528,398
-1,717	15,401	941,030	527,666
-0,702	15,453	940,416	527,465
0,313	15,170	939,874	527,064
1,327	18,478	937,559	536,145
2,342	27,584	794,741	478,609
3,356	24,463	459,119	271,694
4,371	-2,603	313,987	157,092
5,386	-6,804	295,925	143,796
6,400	-8,506	289,842	139,140
7,415	-9,111	287,383	137,353
8,429	-9,408	285,934	136,357
9,444	-9,580	285,083	135,771
10,459	-9,227	284,324	135,741
11,473	-9,375	283,708	135,291
12,488	-9,264	283,224	135,156
13,502	-9,573	282,770	134,628
14,517	-9,340	282,263	134,600
15,531	-9,508	281,792	134,201
16,546	-9,407	281,476	134,136
17,561	-9,497	281,194	133,903
18,575	-9,383	280,614	133,724
19,590	-9,684	280,381	133,313
20,604	-9,409	280,191	133,475
21,619	-9,615	279,757	133,059
22,634	-9,610	279,388	132,876
23,648	-9,478	279,003	132,807
24,663	-9,382	278,599	132,694
25,677	-9,659	278,517	132,379
26,692	-9,598	278,303	132,324
27,707	-9,421	277,896	132,286
28,721	-9,479	277,700	132,127
29,736	-9,691	277,558	131,846
30,750	-9,601	277,083	131,694
31,765	-9,690	277,035	131,575
32,780	-9,610	276,825	131,539
33,794	-9,689	276,402	131,252
34,809	-9,692	276,120	131,104
35,823	-9,643	275,933	131,050
36,838	-9,558	275,529	130,926
37,853	-9,676	275,454	130,768
38,867	-9,668	275,186	130,636
39,882	-9,574	274,896	130,575
40,896	-9,546	274,720	130,506
41,911	-9,600	274,410	130,296
42,926	-9,749	274,344	130,115
43,940	-9,642	273,880	129,982
44,955	-9,724	273,860	129,884
45,969	-9,895	273,559	129,571
46,984	-9,765	273,295	129,556
47,999	-9,966	273,000	129,217
49,013	-10,033	272,822	129,059
50,028	-10,335	272,551	128,638
51,042	-10,353	272,006	128,353
52,057	-10,429	272,030	128,283
53,071	-10,425	271,815	128,173
54,086	-10,200	271,580	128,260
55,101	-9,835	271,232	128,422
56,115	-9,918	271,359	128,392
57,130	-9,543	271,116	128,613
58,144	-9,472	270,855	128,544
59,159	-9,397	270,789	128,570
60,174	-9,559	270,601	128,319
61,188	-9,383	270,331	128,342
62,203	-9,437	270,009	128,128
63,217	-9,389	269,923	128,120
64,232	-9,438	269,638	127,929
65,247	-9,346	269,564	127,966
66,261	-9,313	269,168	127,797
67,276	-9,667	268,881	127,326
68,290	-9,701	268,614	127,157
69,305	-9,956	268,462	126,840
70,320	-9,727	268,271	126,948
71,334	-9,556	268,057	126,992
72,349	-9,424	267,874	127,014
73,363	-9,332	267,690	126,999
74,378	-9,528	267,490	126,715
75,393	-9,301	267,138	126,742
76,407	-9,579	266,975	126,402
77,422	-9,493	266,938	126,450
78,436	-9,329	266,590	126,423
79,451	-9,431	266,350	126,206
80,466	-9,354	266,037	126,116
81,480	-9,534	265,998	125,923
82,495	-9,708	265,703	125,615
83,509	-9,628	265,502	125,581
84,524	-9,634	265,100	125,375
85,539	-9,770	264,967	125,178
86,553	-9,889	264,728	124,947
87,568	-9,783	264,714	125,025
88,582	-9,660	264,441	124,995
89,597	-9,648	264,170	124,867
90,611	-9,552	264,122	124,918
91,626	-9,509	264,067	124,920
92,641	-9,441	263,695	124,794
93,655	-9,567	263,537	124,595
94,670	-9,544	263,138	124,416
95,684	-9,585	263,160	124,379
96,699	-9,762	262,982	124,125
97,714	-9,669	262,723	124,075
98,728	-9,654	262,440	123,944
99,743	-9,624	262,236	123,863
100,757	-9,935	262,079	123,501
101,772	-9,663	261,850	123,624
102,787	-9,468	261,534	123,637
103,801	-9,497	261,525	123,596
104,816	-9,509	261,323	123,478
105,830	-9,427	261,073	123,422
106,845	-9,401	261,112	123,453
107,860	-9,234	260,761	123,424
108,874	-9,488	260,521	123,074
109,889	-9,467	260,269	122,963
110,903	-9,587	260,194	122,810
111,918	-9,545	260,009	122,749
112,933	-9,607	259,835	122,602
113,947	-9,492	259,661	122,610
114,962	-9,615	259,453	122,393
115,976	-9,320	259,129	122,488
116,991	-9,516	259,078	122,281
118,006	-9,372	258,789	122,259
119,020	-9,557	258,755	122,071
120,035	-9,390	258,671	122,167
121,049	-9,349	258,251	121,993
122,064	-9,499	258,176	121,816
123,079	-9,462	257,939	121,725
124,093	-9,594	257,772	121,520
125,108	-9,773	257,552	121,249
126,122	-9,678	257,324	121,214
127,137	-10,055	257,023	120,734
128,151	-9,759	256,835	120,892
129,166	-9,722	256,815	120,904
130,181	-9,769	256,586	120,744
131,195	-9,680	256,244	120,650
132,210	-9,684	256,269	120,648
133,224	-9,412	255,978	120,736
134,239	-9,389	255,881	120,699
135,254	-9,448	255,647	120,527
136,268	-9,474	255,394	120,375
137,283	-9,837	255,083	119,903
138,297	-9,964	254,808	119,654
139,312	-10,002	254,746	119,582
140,327	-9,752	254,727	119,777
141,341	-9,264	254,391	120,029
142,356	-9,300	254,475	120,027
143,370	-9,308	254,347	119,949
144,385	-9,184	254,058	119,908
145,400	-9,246	253,784	119,715
146,414	-9,044	253,637	119,808
147,429	-9,357	253,555	119,491
148,443	-9,197	253,198	119,449
149,458	-9,368	253,218	119,301
150,473	-9,295	253,117	119,305
151,487	-9,327	252,786	119,111
152,502	-9,308	252,613	119,035
153,516	-9,287	252,463	118,971
154,531	-9,328	252,284	118,842
155,546	-9,249	252,113	118,818
156,560	-9,256	251,818	118,662
157,575	-9,303	251,578	118,499
158,589	-9,329	251,423	118,394
159,604	-9,238	251,259	118,382
160,619	-9,432	251,179	118,170
161,633	-9,171	250,905	118,252
162,648	-9,346	250,948	118,112
163,662	-9,304	250,747	118,043
164,677	-9,232	250,537	117,995
165,692	-9,159	250,316	117,942
166,706	-9,266	250,213	117,792
167,721	-9,229	249,977	117,702
168,735	-9,265	249,766	117,562
169,750	-9,270	249,805	117,566
170,764	-9,177	249,565	117,520
171,779	-9,236	249,426	117,395
172,794	-9,134	249,188	117,358
173,808	-9,147	248,978	117,238
174,823	-9,602	248,675	116,703
175,837	-9,872	248,538	116,402
176,852	-9,387	248,444	116,754
177,867	-9,163	248,417	116,918
178,881	-9,188	248,283	116,824
179,896	-9,290	248,004	116,597
180,910	-9,174	247,841	116,607
181,925	-9,223	247,701	116,490
182,940	-8,975	247,447	116,567
183,954	-9,206	247,298	116,294
184,969	-9,413	247,312	116,117
185,983	-9,217	246,988	116,118
186,998	-9,268	246,887	116,018
188,013	-9,104	246,828	116,116
189,027	-9,142	246,576	115,955
190,042	-9,124	246,276	115,819
191,056	-8,901	246,080	115,901
192,071	-9,340	246,084	115,529
193,086	-9,190	245,859	115,537
194,100	-9,160	245,733	115,492
195,115	-9,029	245,497	115,480
196,129	-9,140	245,404	115,334
197,144	-9,069	245,205	115,289
198,159	-9,088	244,892	115,115
199,173	-9,123	244,862	115,062
200,188	-9,162	244,580	114,888
201,202	-9,397	244,305	114,555
202,217	-9,645	244,014	114,205
203,232	-9,876	243,878	113,941
204,246	-9,235	243,849	114,444
205,261	-8,615	243,889	114,961
206,275	-9,386	243,543	114,156
207,290	-6,021	244,894	117,548
208,304	0,531	246,964	123,954
209,319	3,529	247,642	126,764
210,334	4,035	247,704	127,203
211,348	4,153	247,643	127,258
212,363	4,611	247,498	127,550
213,377	4,519	247,337	127,380
214,392	4,309	247,103	127,075
215,407	4,407	246,917	127,048
216,421	4,355	246,873	126,971
217,436	4,494	246,773	127,023
218,450	4,652	246,706	127,107
219,465	4,350	246,436	126,709
220,480	4,082	246,057	126,283
221,494	4,162	245,902	126,258
222,509	4,082	245,805	126,131
223,523	4,214	245,466	126,054
224,538	3,777	245,312	125,607
225,553	3,953	245,150	125,656
226,567	4,071	244,975	125,652
227,582	3,905	244,964	125,499
228,596	4,050	244,827	125,536
229,611	3,741	244,624	125,169
230,626	3,775	244,373	125,057
231,640	3,732	244,344	124,996
232,655	3,734	244,068	124,845
233,669	4,062	243,867	124,997
234,684	3,608	243,686	124,526
235,699	4,135	243,679	124,939
236,713	4,224	243,613	124,965
237,728	3,690	243,273	124,348
238,742	3,773	243,115	124,323
239,757	3,517	243,019	124,055
240,772	3,910	242,804	124,252
241,786	3,740	242,699	124,051
242,801	3,859	242,419	123,992
243,815	3,717	242,359	123,836
244,830	3,890	242,325	123,946
245,844	4,189	242,072	124,048
246,859	4,002	241,774	123,733
247,874	3,950	241,664	123,624
248,888	4,070	241,554	123,653
249,903	3,921	241,381	123,434
250,917	3,896	241,261	123,341
251,932	4,173	241,376	123,611
252,947	4,029	241,021	123,303
253,961	3,850	240,784	123,028
254,976	3,945	240,750	123,075
255,990	4,144	240,619	123,156
257,005	3,955	240,295	122,829
258,020	3,771	240,081	122,562
259,034	3,579	240,036	122,374
260,049	3,844	240,074	122,595
261,063	3,813	239,641	122,337
262,078	3,861	239,545	122,316
263,093	3,966	239,432	122,331
264,107	4,075	239,344	122,362
265,122	4,020	239,180	122,223
266,136	3,928	239,041	122,068
267,151	4,383	238,829	122,310
268,166	3,715	238,621	121,663
269,180	3,566	238,452	121,448
270,195	4,114	238,650	121,973
271,209	4,625	238,305	122,189
272,224	3,881	237,968	121,418
273,239	3,336	237,884	120,935
274,253	3,668	237,636	121,059
275,268	3,838	237,615	121,172
276,282	3,990	237,312	121,126
277,297	3,498	237,201	120,671
278,312	3,695	237,258	120,844
279,326	3,721	237,009	120,727
280,341	3,925	236,783	120,762
281,355	3,942	236,715	120,730
282,370	4,161	236,659	120,862
283,384	3,826	236,371	120,442
284,399	3,621	236,222	120,195
285,414	3,602	236,045	120,079
286,428	3,800	235,989	120,195
287,443	3,992	235,691	120,183
288,457	3,963	235,539	120,072
289,472	4,086	235,459	120,116
290,487	3,780	235,359	119,815
291,501	3,804	235,050	119,666
292,516	3,378	234,886	119,240
293,530	3,606	234,731	119,328
294,545	3,990	234,824	119,664
295,560	3,936	234,656	119,525
296,574	3,511	234,473	119,091
297,589	3,784	234,250	119,180
298,603	4,104	234,135	119,359
299,618	4,059	233,980	119,234
300,633	4,017	233,871	119,135
301,647	4,240	233,726	119,223
302,662	4,464	233,784	119,416
303,676	4,180	233,519	119,050
304,691	4,191	233,355	118,965
305,706	4,258	233,219	118,936
306,720	4,386	232,976	118,900
307,735	4,226	232,690	118,621
308,749	3,985	232,619	118,388
309,764	3,607	232,516	118,034
310,779	3,728	232,249	117,982
311,793	3,628	231,978	117,757
312,808	3,687	231,916	117,760
313,822	3,431	231,826	117,508
314,837	3,556	231,716	117,537
315,852	3,440	231,513	117,335
316,866	3,771	231,352	117,496
317,881	4,095	231,323	117,718
318,895	3,955	231,154	117,515
319,910	3,854	231,087	117,393
320,925	4,120	230,850	117,465
321,939	3,910	230,798	117,268
322,954	4,133	230,658	117,356
323,968	3,801	230,495	117,010
324,983	3,822	230,256	116,894
325,997	3,633	230,080	116,651
327,012	3,808	230,159	116,814
328,027	4,089	229,847	116,858
329,041	4,590	229,797	117,203
330,056	4,500	229,999	117,227
331,070	4,579	229,672	117,109
332,085	4,456	229,262	116,797
333,100	3,959	229,169	116,363
334,114	4,122	228,997	116,389
335,129	4,275	228,929	116,459
336,143	4,507	228,808	116,562
337,158	4,450	228,643	116,425
338,173	4,081	228,563	116,096
339,187	4,137	228,258	115,972
340,202	4,273	228,106	115,988
341,216	4,244	228,039	115,921
342,231	3,865	227,902	115,556
343,246	3,897	227,796	115,516
344,260	4,161	227,708	115,660
345,275	4,378	227,558	115,736
346,289	4,318	227,518	115,660
347,304	4,455	227,174	115,577
348,319	4,213	227,107	115,352
349,333	4,048	226,928	115,127
350,348	4,112	226,652	115,025
351,362	4,123	226,568	114,980
352,377	3,883	226,376	114,694
353,392	3,738	226,186	114,479
354,406	3,864	226,216	114,578
355,421	195,362	1320,930	1397,345
356,435	156,600	1454,293	1397,334
