DTS Sentinel unit serial number:	SN410029Multiplexer serial number:	ORYXHardware model number:	OX2-SRSoftware version number:	ORYX F/W v4,00 Oryx Data Collector v3.7.2.0data status	okinstallation	B5 Nyhavnadifferential loss correction	single-endedforward channel	channel 2reverse channel	N/Adate	2023/12/14time	08:47:13forward acquisition time	300,00reverse acquisition time	0,00gamma	499,1914k internal	0,3160k external	0,3160temperature offset calibration	1,0000default loss term (dB/km)	0,3820temperature slope calibration	1,0000multiplexer offset coefficient	1,0000multiplexer slope coefficient	1,0000fibre end	0,00T internal ref (°C)	7,01T ext. ref 1 (°C)	-9,16T ext. ref 2 (°C)	-9,22length (m)	temperature (°C)	Stokes	anti-Stokes-744,400	-105,215	0,164	0,027
-743,385	-61,013	-0,409	-0,127
-742,371	800,000	0,051	0,140
-741,356	-162,165	-0,380	-0,014
-740,342	-44,670	0,175	0,064
-739,327	3,635	-0,308	-0,165
-738,312	-200,000	-0,034	0,129
-737,298	-149,626	-0,339	0,019
-736,283	98,579	0,174	0,148
-735,269	-53,371	-0,549	-0,184
-734,254	-141,819	0,216	0,016
-733,239	14,622	-0,484	-0,278
-732,225	60,351	0,191	0,139
-731,210	-33,852	-0,066	-0,027
-730,196	-192,592	-0,052	0,000
-729,181	334,448	0,073	-0,104
-728,167	800,000	0,016	-0,044
-727,152	-78,042	0,018	-0,004
-726,137	-200,000	-0,005	-0,051
-725,123	-150,460	0,052	-0,003
-724,108	56,590	-0,153	-0,109
-723,094	-158,626	-0,100	-0,004
-722,079	-200,000	-0,007	-0,109
-721,064	-40,712	-0,029	0,011
-720,050	467,275	0,027	0,044
-719,035	-77,195	-0,067	-0,017
-718,021	227,826	-0,094	0,113
-717,006	-125,856	-0,087	0,010
-715,991	-67,698	-0,106	0,030
-714,977	-48,105	-0,095	-0,034
-713,962	-195,718	-0,172	0,001
-712,948	345,094	0,055	-0,080
-711,933	169,568	-0,120	0,127
-710,918	-98,288	0,141	-0,026
-709,904	-63,949	-0,095	-0,028
-708,889	-111,304	0,095	-0,014
-707,875	69,402	-0,095	-0,072
-706,860	37,488	-0,025	0,016
-705,845	-19,017	0,043	-0,020
-704,831	-0,006	0,099	0,052
-703,816	324,307	-0,133	-0,187
-702,802	677,502	-0,017	-0,033
-701,787	-200,000	-0,014	-0,092
-700,772	-150,338	-0,111	0,006
-699,758	-200,000	0,008	0,105
-698,743	800,000	0,064	0,188
-697,729	107,765	0,138	0,121
-696,714	61,456	0,049	0,036
-695,699	187,679	-0,053	0,059
-694,685	343,097	0,047	-0,068
-693,670	233,609	-0,096	-0,117
-692,656	-200,000	0,003	0,030
-691,641	-104,741	0,131	0,022
-690,627	-200,000	0,012	0,066
-689,612	-169,105	-0,069	0,002
-688,597	-153,053	-0,056	0,003
-687,583	-106,449	-0,073	0,012
-686,568	116,450	-0,036	0,032
-685,554	-200,000	0,002	0,078
-684,539	-200,000	0,009	0,101
-683,524	-200,000	-0,020	0,066
-682,510	-23,242	0,114	0,050
-681,495	490,605	-0,030	-0,051
-680,481	-200,000	-0,016	-0,054
-679,466	199,842	-0,059	-0,067
-678,451	-196,870	-0,081	-0,000
-677,437	800,000	-0,052	0,149
-676,422	-200,000	0,002	0,029
-675,408	731,480	0,094	0,185
-674,393	22,768	-0,061	-0,036
-673,378	-200,000	0,009	0,063
-672,364	201,399	-0,103	-0,117
-671,349	28,663	0,024	0,015
-670,335	364,987	-0,030	-0,045
-669,320	619,825	-0,100	0,185
-668,305	416,265	-0,061	0,096
-667,291	695,573	-0,080	-0,155
-666,276	-200,000	-0,009	-0,070
-665,262	800,000	0,045	-0,105
-664,247	-200,000	0,007	-0,130
-663,232	-200,000	0,006	-0,054
-662,218	-200,000	0,088	0,000
-661,203	14,723	-0,025	0,015
-660,189	296,796	0,050	0,067
-659,174	17,056	0,047	0,027
-658,159	-93,073	-0,162	-0,033
-657,145	409,206	-0,064	-0,100
-656,130	-27,774	-0,082	-0,035
-655,116	26,955	-0,105	0,064
-654,101	800,000	0,028	-0,087
-653,086	-200,000	0,018	-0,072
-652,072	800,000	-0,055	-0,160
-651,057	331,953	-0,074	-0,105
-650,043	-141,484	-0,023	-0,002
-649,028	-200,000	-0,018	-0,116
-648,014	800,000	0,021	0,056
-646,999	66,502	0,084	-0,062
-645,984	-200,000	0,003	-0,109
-644,970	-21,820	-0,127	0,056
-643,955	-200,000	0,002	-0,057
-642,941	312,512	-0,037	0,050
-641,926	-200,000	-0,026	0,134
-640,911	617,700	0,046	0,085
-639,897	28,336	0,086	0,054
-638,882	-139,191	-0,056	-0,004
-637,868	-9,305	0,084	0,041
-636,853	551,095	-0,071	-0,126
-635,838	800,000	-0,037	-0,107
-634,824	-0,422	0,099	-0,052
-633,809	-87,036	-0,033	0,007
-632,795	544,824	0,033	0,059
-631,780	800,000	-0,038	0,111
-630,765	9,024	-0,037	-0,020
-629,751	-200,000	0,002	0,033
-628,736	800,000	-0,028	0,065
-627,722	315,920	-0,098	-0,136
-626,707	-68,945	0,023	-0,006
-625,692	225,300	-0,030	-0,036
-624,678	2,278	-0,076	-0,040
-623,663	-200,000	-0,003	0,143
-622,649	-32,639	-0,188	0,076
-621,634	145,417	-0,040	0,040
-620,619	50,332	-0,066	-0,046
-619,605	-200,000	0,006	-0,054
-618,590	-200,000	0,001	-0,126
-617,576	-200,000	0,013	0,102
-616,561	-200,000	-0,029	0,096
-615,546	-123,540	-0,098	-0,011
-614,532	-87,485	-0,192	0,042
-613,517	-79,204	-0,159	0,039
-612,503	-69,251	-0,072	-0,020
-611,488	-119,168	0,091	-0,012
-610,474	745,325	-0,080	0,158
-609,459	146,041	-0,037	0,036
-608,444	-200,000	-0,007	0,111
-607,430	-200,000	0,017	-0,079
-606,415	557,330	0,077	0,136
-605,401	-13,431	0,051	-0,024
-604,386	182,332	-0,105	0,114
-603,371	231,662	-0,043	0,052
-602,357	-44,625	-0,072	-0,026
-601,342	-17,894	0,047	-0,022
-600,328	-29,687	-0,103	0,043
-599,313	-93,713	0,194	0,039
-598,298	-63,238	-0,252	0,076
-597,284	-200,000	0,002	-0,053
-596,269	70,487	-0,024	-0,018
-595,255	-200,000	-0,026	0,098
-594,240	-110,693	0,053	0,008
-593,225	-32,381	0,009	-0,004
-592,211	-200,000	0,004	0,073
-591,196	-200,000	-0,006	-0,105
-590,182	-142,329	0,053	-0,004
-589,167	-32,902	0,056	0,023
-588,152	35,912	-0,107	0,069
-587,138	-200,000	-0,009	0,060
-586,123	-149,593	-0,155	-0,009
-585,109	378,166	-0,044	-0,065
-584,094	81,336	0,068	0,054
-583,079	72,424	-0,043	-0,033
-582,065	22,965	-0,071	-0,043
-581,050	-200,000	-0,001	-0,071
-580,036	-75,346	-0,060	-0,015
-579,021	-200,000	-0,019	-0,101
-578,006	-128,607	-0,135	-0,014
-576,992	8,997	-0,079	-0,044
-575,977	-200,000	0,008	-0,033
-574,963	247,208	-0,019	0,024
-573,948	700,393	0,014	0,028
-572,934	246,056	0,089	0,110
-571,919	-47,034	-0,117	0,042
-570,904	-115,300	0,069	-0,009
-569,890	-200,000	-0,010	0,074
-568,875	-21,249	0,093	-0,041
-567,861	-51,779	-0,068	-0,023
-566,846	71,792	0,044	0,033
-565,831	-200,000	0,014	-0,049
-564,817	800,000	0,035	-0,103
-563,802	-50,007	-0,076	0,026
-562,788	48,224	-0,092	-0,063
-561,773	-200,000	0,002	0,029
-560,758	-200,000	0,009	0,043
-559,744	-19,610	0,085	-0,038
-558,729	-53,452	-0,145	0,048
-557,715	-96,335	0,061	0,012
-556,700	221,134	-0,057	-0,067
-555,685	-44,582	0,104	-0,038
-554,671	176,935	0,090	-0,096
-553,656	-111,412	0,082	0,012
-552,642	701,763	0,034	-0,065
-551,627	182,201	0,029	-0,031
-550,612	800,000	-0,013	0,031
-549,598	29,982	-0,087	0,054
-548,583	777,560	-0,005	0,010
-547,569	272,915	0,031	-0,040
-546,554	51,714	0,032	0,022
-545,539	260,208	0,052	-0,066
-544,525	25,622	0,078	0,047
-543,510	-200,000	0,013	0,042
-542,496	800,000	0,044	-0,124
-541,481	-200,000	-0,002	-0,148
-540,466	-200,000	-0,016	-0,073
-539,452	800,000	0,030	-0,066
-538,437	254,161	-0,033	-0,042
-537,423	800,000	-0,077	0,245
-536,408	800,000	-0,040	0,096
-535,393	-200,000	0,024	0,167
-534,379	-49,051	0,029	0,010
-533,364	225,770	0,030	0,036
-532,350	800,000	0,048	0,101
-531,335	394,483	0,043	0,065
-530,321	-70,950	0,058	-0,016
-529,306	-2,268	-0,066	0,034
-528,291	-135,334	-0,087	0,008
-527,277	-131,948	0,079	0,007
-526,262	-27,512	0,074	-0,031
-525,248	-12,636	0,074	0,035
-524,233	184,082	0,054	0,059
-523,218	94,208	0,106	0,088
-522,204	-116,159	-0,049	-0,007
-521,189	-13,935	-0,077	-0,036
-520,175	243,829	0,103	-0,127
-519,160	58,981	0,037	-0,026
-518,145	-12,228	0,162	0,077
-517,131	395,889	0,020	0,031
-516,116	-109,810	-0,074	-0,011
-515,102	-200,000	0,016	0,063
-514,087	123,363	-0,049	-0,045
-513,072	-109,616	0,060	-0,009
-512,058	800,000	0,039	0,097
-511,043	-200,000	-0,007	-0,077
-510,029	494,456	-0,007	-0,012
-509,014	-200,000	0,009	0,031
-507,999	-128,197	-0,117	-0,012
-506,985	217,857	-0,153	0,179
-505,970	-194,498	0,182	-0,001
-504,956	-26,984	0,077	-0,033
-503,941	11,374	0,066	0,037
-502,926	151,593	0,036	0,035
-501,912	-164,688	-0,072	0,002
-500,897	-200,000	0,021	0,212
-499,883	154,569	-0,052	-0,053
-498,868	-24,243	-0,119	-0,052
-497,853	-95,522	-0,222	-0,043
-496,839	-74,517	0,045	-0,012
-495,824	-18,153	0,081	0,037
-494,810	800,000	-0,021	-0,061
-493,795	-200,000	-0,021	0,088
-492,781	-200,000	0,027	-0,167
-491,766	-98,059	-0,130	0,024
-490,751	-200,000	0,001	0,075
-489,737	-11,887	0,099	-0,047
-488,722	800,000	0,044	0,122
-487,708	-200,000	-0,021	0,085
-486,693	34,047	0,063	-0,040
-485,678	130,051	-0,030	-0,028
-484,664	-39,052	0,075	-0,029
-483,649	58,635	-0,117	-0,083
-482,635	4,219	0,053	-0,028
-481,620	188,567	0,101	0,111
-480,605	-40,138	0,101	-0,038
-479,591	135,742	0,018	0,017
-478,576	1,270	-0,047	0,025
-477,562	-35,882	-0,082	-0,032
-476,547	514,379	-0,065	-0,111
-475,532	-200,000	-0,008	0,070
-474,518	-200,000	-0,057	-0,206
-473,503	440,901	-0,020	0,032
-472,489	78,409	0,111	0,086
-471,474	114,664	-0,122	0,108
-470,459	-84,601	0,112	-0,026
-469,445	800,000	0,014	0,029
-468,430	170,928	0,039	0,040
-467,416	-158,112	0,084	0,004
-466,401	212,547	0,069	0,080
-465,386	69,922	0,005	0,003
-464,372	375,840	-0,035	-0,052
-463,357	-33,360	-0,057	0,023
-462,343	-32,718	0,063	0,026
-461,328	125,506	-0,108	-0,100
-460,313	95,910	-0,092	0,076
-459,299	-60,305	0,160	0,049
-458,284	-94,580	0,092	-0,018
-457,270	756,386	-0,066	-0,130
-456,255	402,082	0,072	0,111
-455,241	733,950	0,075	0,148
-454,226	269,944	-0,026	0,034
-453,211	-200,000	-0,028	-0,090
-452,197	42,143	0,007	0,004
-451,182	-110,728	-0,113	0,017
-450,168	-83,054	-0,072	0,017
-449,153	-38,889	0,101	0,039
-448,138	800,000	0,022	-0,055
-447,124	15,427	-0,035	0,020
-446,109	144,627	0,029	-0,028
-445,095	715,222	-0,012	-0,023
-444,080	179,166	-0,028	0,030
-443,065	800,000	-0,014	-0,039
-442,051	-69,943	-0,200	0,055
-441,036	-61,019	-0,055	0,017
-440,022	-200,000	-0,059	0,228
-439,007	76,661	0,119	-0,092
-437,992	-200,000	-0,002	-0,022
-436,978	800,000	0,031	0,072
-435,963	-138,851	0,080	0,006
-434,949	-53,195	-0,115	0,038
-433,934	598,541	0,026	-0,047
-432,919	-67,465	-0,093	-0,026
-431,905	379,603	0,051	-0,077
-430,890	-200,000	-0,008	-0,087
-429,876	800,000	-0,046	0,116
-428,861	88,720	0,083	0,067
-427,846	92,757	-0,114	-0,093
-426,832	-200,000	0,001	-0,105
-425,817	92,373	-0,061	0,050
-424,803	-34,438	0,086	-0,034
-423,788	-200,000	0,039	-0,209
-422,773	-77,177	0,090	-0,023
-421,759	123,893	-0,049	0,045
-420,744	220,706	0,027	-0,032
-419,730	96,274	-0,041	-0,034
-418,715	-200,000	0,020	-0,147
-417,701	-200,000	0,009	0,044
-416,686	68,451	-0,006	-0,005
-415,671	-200,000	0,014	0,133
-414,657	-27,317	0,023	0,010
-413,642	165,977	0,067	-0,069
-412,628	-200,000	-0,015	-0,061
-411,613	-200,000	-0,002	0,051
-410,598	-200,000	0,008	0,038
-409,584	138,041	0,085	0,081
-408,569	-35,905	0,129	0,050
-407,555	800,000	0,055	-0,148
-406,540	63,031	0,028	0,021
-405,525	-12,693	-0,071	-0,034
-404,511	362,371	-0,068	-0,100
-403,496	800,000	-0,039	0,103
-402,482	309,083	0,041	-0,056
-401,467	-13,139	0,043	0,020
-400,452	-101,318	-0,088	-0,015
-399,438	800,000	0,052	0,128
-398,423	-107,428	-0,108	0,017
-397,409	-200,000	-0,003	-0,020
-396,394	-110,136	-0,167	-0,025
-395,379	-60,356	0,149	-0,046
-394,365	282,783	-0,061	-0,079
-393,350	800,000	-0,025	0,068
-392,336	-152,096	0,034	-0,002
-391,321	562,728	0,033	-0,058
-390,306	-200,000	0,028	-0,101
-389,292	800,000	-0,023	-0,054
-388,277	-200,000	-0,006	-0,152
-387,263	255,799	-0,033	0,041
-386,248	-63,575	-0,110	0,032
-385,233	-13,970	0,026	0,012
-384,219	-58,827	0,069	-0,022
-383,204	-50,533	0,141	0,048
-382,190	140,060	-0,095	-0,091
-381,175	326,026	0,026	-0,036
-380,160	-28,780	0,107	-0,045
-379,146	22,360	0,051	-0,030
-378,131	800,000	0,042	0,087
-377,117	800,000	-0,046	-0,107
-376,102	-84,729	-0,044	-0,010
-375,088	631,685	-0,075	0,139
-374,073	183,894	0,011	0,012
-373,058	794,054	0,019	0,037
-372,044	-14,878	-0,003	0,001
-371,029	87,313	-0,077	0,062
-370,015	-96,262	-0,082	-0,016
-369,000	152,797	0,026	0,026
-367,985	157,124	-0,078	-0,079
-366,971	800,000	0,052	-0,111
-365,956	-61,826	0,067	-0,020
-364,942	-62,769	0,067	-0,020
-363,927	-46,283	-0,066	-0,023
-362,912	800,000	-0,030	0,081
-361,898	800,000	0,032	0,079
-360,883	-41,544	-0,051	0,019
-359,869	-200,000	0,011	-0,175
-358,854	212,032	-0,061	-0,070
-357,839	-200,000	0,030	0,132
-356,825	69,386	0,086	-0,064
-355,810	800,000	-0,022	0,068
-354,796	-200,000	-0,019	-0,105
-353,781	-53,924	-0,035	-0,012
-352,766	78,910	0,126	-0,098
-351,752	379,922	-0,027	-0,040
-350,737	116,098	0,081	-0,072
-349,723	-200,000	0,002	-0,018
-348,708	800,000	0,028	0,083
-347,693	27,016	0,066	-0,040
-346,679	-64,006	-0,109	-0,032
-345,664	290,829	-0,064	0,085
-344,650	34,673	0,089	0,056
-343,635	-75,827	0,073	0,019
-342,620	-200,000	0,021	-0,133
-341,606	-16,505	-0,146	-0,067
-340,591	800,000	-0,039	-0,083
-339,577	362,600	0,025	-0,037
-338,562	-88,994	-0,065	0,014
-337,548	153,697	-0,161	0,160
-336,533	463,303	-0,019	-0,032
-335,518	800,000	0,042	-0,096
-334,504	194,988	-0,073	0,080
-333,489	-115,713	-0,050	0,007
-332,475	-200,000	-0,054	-0,241
-331,460	-88,940	0,016	-0,003
-330,445	138,041	-0,035	0,033
-329,431	800,000	0,037	-0,076
-328,416	149,507	0,047	0,046
-327,402	-132,580	-0,143	0,013
-326,387	800,000	0,030	0,088
-325,372	704,301	-0,010	0,020
-324,358	25,761	-0,059	0,036
-323,343	-4,016	-0,138	0,069
-322,329	116,160	0,107	-0,095
-321,314	452,554	0,080	0,129
-320,299	800,000	-0,075	-0,170
-319,285	784,695	0,036	-0,071
-318,270	8,037	0,058	0,032
-317,256	-19,346	-0,077	0,035
-316,241	-200,000	0,001	0,077
-315,226	122,137	-0,095	0,086
-314,212	66,867	0,038	-0,028
-313,197	-200,000	-0,013	0,051
-312,183	-200,000	-0,007	-0,054
-311,168	175,438	-0,087	0,092
-310,153	254,813	0,080	-0,099
-309,139	-69,339	0,090	0,025
-308,124	-200,000	-0,017	0,135
-307,110	-200,000	-0,017	-0,105
-306,095	-116,524	0,214	-0,028
-305,080	-149,687	-0,013	-0,001
-304,066	646,995	-0,078	-0,146
-303,051	196,769	-0,041	0,046
-302,037	257,922	0,016	0,020
-301,022	-200,000	0,004	0,037
-300,008	-148,564	0,135	-0,008
-298,993	484,161	0,064	-0,106
-297,978	-99,674	-0,204	0,037
-296,964	-45,347	0,079	-0,028
-295,949	-200,000	0,004	0,035
-294,935	116,509	-0,097	0,086
-293,920	5,457	0,049	0,026
-292,905	521,948	0,031	0,053
-291,891	366,798	0,093	0,136
-290,876	132,487	-0,022	-0,021
-289,862	-0,023	-0,049	-0,025
-288,847	-200,000	-0,014	-0,081
-287,832	-200,000	0,008	0,094
-286,818	139,368	0,049	0,047
-285,803	51,231	0,026	-0,018
-284,789	800,000	-0,045	0,104
-283,774	474,807	0,039	-0,064
-282,759	166,074	0,041	-0,042
-281,745	40,649	0,076	-0,050
-280,730	-138,338	-0,057	-0,004
-279,716	-200,000	-0,014	-0,152
-278,701	-200,000	-0,094	-0,000
-277,686	325,556	0,011	0,015
-276,672	50,138	-0,109	-0,074
-275,657	-167,111	0,100	-0,003
-274,643	-200,000	-0,002	-0,087
-273,628	436,747	-0,116	-0,183
-272,613	-106,819	0,080	-0,013
-271,599	-200,000	0,000	0,026
-270,584	-57,615	0,117	-0,037
-269,570	-200,000	0,021	0,077
-268,555	-68,861	0,078	0,022
-267,540	256,950	-0,069	-0,086
-266,526	-147,225	-0,015	0,001
-265,511	419,284	-0,135	-0,209
-264,497	49,797	0,118	0,081
-263,482	34,383	-0,056	0,035
-262,467	233,856	0,053	-0,063
-261,453	-26,850	0,099	-0,042
-260,438	-200,000	0,013	-0,139
-259,424	4,522	-0,153	-0,081
-258,409	143,439	0,063	0,060
-257,395	-200,000	0,019	-0,067
-256,380	-108,307	-0,070	0,011
-255,365	-96,370	0,173	0,033
-254,351	800,000	-0,030	0,094
-253,336	92,859	-0,070	-0,057
-252,322	-200,000	-0,033	-0,146
-251,307	-200,000	-0,009	-0,042
-250,292	-200,000	-0,001	-0,034
-249,278	-16,508	0,046	0,021
-248,263	-2,585	0,129	0,065
-247,249	132,061	0,081	-0,076
-246,234	-82,296	0,087	0,020
-245,219	177,329	0,040	-0,043
-244,205	309,762	-0,057	-0,078
-243,190	80,514	-0,063	-0,049
-242,176	143,750	-0,069	0,067
-241,161	212,034	-0,051	-0,059
-240,146	34,562	0,075	-0,047
-239,132	44,631	-0,134	0,089
-238,117	-200,000	-0,000	0,007
-237,103	251,916	-0,064	-0,079
-236,088	446,833	0,033	-0,053
-235,073	-128,595	0,180	0,018
-234,059	-20,311	0,089	0,039
-233,044	-89,947	0,046	0,010
-232,030	-86,177	-0,022	-0,005
-231,015	-200,000	0,015	-0,103
-230,000	-20,710	0,008	-0,004
-228,986	-200,000	-0,004	0,020
-227,971	57,417	-0,047	0,033
-226,957	-53,648	0,022	0,007
-225,942	800,000	0,041	0,109
-224,927	60,111	-0,125	0,089
-223,913	-82,322	0,054	0,013
-222,898	-200,000	-0,002	-0,072
-221,884	-131,356	-0,013	-0,001
-220,869	800,000	0,060	0,130
-219,855	-200,000	0,024	0,141
-218,840	800,000	0,022	0,059
-217,825	20,854	-0,054	0,032
-216,811	-21,875	-0,156	0,068
-215,796	-155,227	-0,132	0,006
-214,782	-200,000	0,006	-0,118
-213,767	-200,000	0,015	-0,060
-212,752	1,395	0,216	0,112
-211,738	-200,000	0,012	-0,054
-210,723	-200,000	0,004	-0,213
-209,709	648,141	0,033	-0,060
-208,694	176,171	-0,086	-0,090
-207,679	119,911	0,084	-0,076
-206,665	133,315	0,130	0,121
-205,650	125,064	0,051	-0,046
-204,636	70,434	-0,041	0,031
-203,621	702,625	0,017	0,033
-202,606	-75,738	-0,087	-0,022
-201,592	18,675	0,195	0,112
-200,577	800,000	0,029	-0,083
-199,563	271,813	0,072	-0,092
-198,548	-200,000	0,027	0,104
-197,533	800,000	0,019	-0,052
-196,519	-200,000	0,046	0,000
-195,504	-145,833	-0,088	-0,006
-194,490	671,366	0,032	-0,061
-193,475	373,458	-0,040	0,058
-192,460	6,542	0,124	0,066
-191,446	800,000	-0,039	0,112
-190,431	286,226	0,059	0,077
-189,417	-200,000	0,004	0,146
-188,402	108,243	0,041	0,035
-187,387	-200,000	0,018	-0,108
-186,373	55,078	0,092	-0,064
-185,358	112,469	0,070	0,061
-184,344	76,481	-0,046	-0,035
-183,329	-200,000	-0,018	-0,058
-182,315	-10,195	-0,024	-0,012
-181,300	-45,566	-0,042	-0,015
-180,285	-112,131	-0,140	0,020
-179,271	800,000	0,025	0,054
-178,256	800,000	-0,038	-0,103
-177,242	118,532	0,091	0,081
-176,227	25,349	0,041	0,024
-175,212	268,110	0,056	-0,071
-174,198	800,000	-0,024	-0,056
-173,183	-52,212	0,045	0,015
-172,169	60,422	-0,147	-0,105
-171,154	800,000	-0,029	0,088
-170,139	467,447	0,024	0,038
-169,125	800,000	0,061	0,133
-168,110	-200,000	0,008	-0,111
-167,096	497,918	-0,106	0,177
-166,081	-153,808	0,058	0,003
-165,066	-200,000	-0,008	0,036
-164,052	-89,157	0,071	0,015
-163,037	800,000	0,042	-0,091
-162,023	-200,000	-0,008	0,148
-161,008	-200,000	-0,002	0,025
-159,993	800,000	-0,045	-0,098
-158,979	59,529	0,030	0,021
-157,964	800,000	0,043	0,104
-156,950	600,918	0,015	-0,027
-155,935	-5,021	0,111	-0,055
-154,920	-159,684	0,062	0,002
-153,906	-200,000	0,003	0,080
-152,891	-200,000	-0,021	0,119
-151,877	44,751	-0,031	-0,021
-150,862	-200,000	-0,002	0,134
-149,847	-200,000	0,033	-0,205
-148,833	431,994	0,018	-0,029
-147,818	-200,000	-0,001	0,113
-146,804	-200,000	0,009	0,174
-145,789	12,998	-0,159	0,088
-144,775	-70,200	-0,084	0,023
-143,760	800,000	-0,013	0,030
-142,745	-200,000	-0,004	-0,043
-141,731	205,831	0,041	0,045
-140,716	42,827	0,102	0,067
-139,702	-13,589	0,155	0,072
-138,687	207,018	0,027	-0,030
-137,672	800,000	0,045	-0,094
-136,658	-200,000	0,020	-0,106
-135,643	-49,984	-0,087	-0,030
-134,629	546,649	0,070	0,121
-133,614	800,000	0,032	0,087
-132,599	-139,119	0,150	-0,012
-131,585	-61,444	-0,097	0,029
-130,570	-200,000	0,004	0,023
-129,556	-200,000	-0,032	0,122
-128,541	-160,788	-0,077	0,003
-127,526	-110,995	0,142	0,021
-126,512	-200,000	-0,009	0,081
-125,497	183,447	0,145	0,155
-124,483	162,228	0,056	0,056
-123,468	77,589	-0,075	-0,058
-122,453	614,067	0,027	0,049
-121,439	64,094	-0,123	-0,089
-120,424	172,121	0,005	0,005
-119,410	-19,604	0,032	-0,014
-118,395	800,000	0,024	0,049
-117,380	210,341	-0,060	-0,068
-116,366	-179,400	0,073	-0,001
-115,351	6,424	0,113	0,060
-114,337	81,203	-0,125	-0,097
-113,322	635,978	-0,020	-0,036
-112,307	-200,000	0,020	0,151
-111,293	-104,305	0,096	0,016
-110,278	-127,304	-0,094	0,010
-109,264	800,000	-0,060	0,132
-108,249	800,000	0,006	-0,013
-107,234	800,000	0,008	0,017
-106,220	-200,000	-0,011	0,071
-105,205	-200,000	0,010	0,178
-104,191	313,012	0,021	0,028
-103,176	3,746	0,051	-0,027
-102,162	-10,552	0,129	0,061
-101,147	53,524	0,080	0,055
-100,132	-124,239	0,058	-0,006
-99,118	-173,192	-0,111	0,002
-98,103	-62,592	0,121	-0,036
-97,089	-200,000	0,009	0,032
-96,074	65,306	-0,062	0,045
-95,059	459,685	-0,009	-0,014
-94,045	-122,040	-0,067	-0,008
-93,030	-192,272	0,134	0,001
-92,016	-1,784	-0,153	-0,077
-91,001	800,000	0,010	-0,024
-89,986	161,593	0,122	0,123
-88,972	-200,000	-0,039	0,221
-87,957	151,660	0,095	0,093
-86,943	-200,000	-0,054	0,183
-85,928	-97,951	0,078	0,014
-84,913	65,106	-0,031	0,022
-83,899	800,000	-0,075	0,161
-82,884	800,000	0,055	0,134
-81,870	48,524	0,115	0,077
-80,855	-200,000	0,014	-0,051
-79,840	40,350	-0,056	-0,036
-78,826	108,666	-0,049	-0,042
-77,811	497,160	0,009	-0,014
-76,797	533,591	-0,072	0,123
-75,782	626,527	0,027	0,048
-74,767	137,987	-0,044	0,041
-73,753	-92,914	0,055	0,011
-72,738	-110,606	-0,081	-0,012
-71,724	209,631	-0,051	-0,057
-70,709	-50,537	-0,072	-0,024
-69,694	-200,000	-0,006	-0,159
-68,680	41,237	0,184	0,119
-67,665	-21,621	0,162	-0,071
-66,651	86,444	0,069	-0,055
-65,636	13,813	-0,055	-0,030
-64,622	-45,293	-0,032	0,011
-63,607	78,416	-0,036	-0,027
-62,592	-200,000	0,014	0,151
-61,578	800,000	-0,031	0,091
-60,563	-200,000	0,006	0,064
-59,549	-23,808	0,082	0,035
-58,534	97,961	-2,751	-2,270
-57,519	-28,118	0,479	-0,198
-56,505	800,000	-1,842	-5,671
-55,490	408,537	1,397	2,127
-54,476	800,000	5,090	11,212
-53,461	-200,000	23,001	347,293
-52,446	800,000	765,421	2262,661
-51,432	496,908	1643,135	2720,626
-50,417	93,048	1599,188	1295,361
-49,403	60,781	1254,075	890,414
-48,388	21,123	1006,349	584,127
-47,373	18,275	974,243	556,171
-46,359	11,773	960,990	527,553
-45,344	7,676	957,854	512,541
-44,330	8,070	955,447	512,509
-43,315	7,078	953,670	508,330
-42,300	7,040	952,774	507,712
-41,286	7,058	951,814	507,236
-40,271	7,025	950,748	506,543
-39,257	7,058	949,743	506,094
-38,242	7,038	948,982	505,603
-37,227	7,067	948,045	505,178
-36,213	6,991	947,346	504,540
-35,198	7,024	946,558	504,205
-34,184	7,032	945,897	503,861
-33,169	7,004	944,998	503,270
-32,154	7,036	944,174	502,915
-31,140	7,020	943,221	502,335
-30,125	7,062	942,506	502,070
-29,111	7,037	941,798	501,593
-28,096	7,155	940,886	501,464
-27,082	7,032	940,432	500,809
-26,067	7,069	939,693	500,515
-25,052	7,033	938,967	499,993
-24,038	7,044	938,047	499,519
-23,023	7,008	937,413	499,044
-22,009	7,073	936,871	498,945
-20,994	7,059	936,288	498,568
-19,979	7,077	935,661	498,271
-18,965	7,063	934,989	497,851
-17,950	7,080	934,192	497,460
-16,936	6,975	933,778	496,888
-15,921	7,020	933,139	496,671
-14,906	6,924	932,598	496,059
-13,892	6,960	931,738	495,697
-12,877	6,881	931,435	495,267
-11,863	6,864	930,854	494,884
-10,848	6,992	930,064	494,847
-9,833	7,035	929,673	494,755
-8,819	6,953	928,813	494,020
-7,804	6,950	928,410	493,776
-6,790	6,864	927,960	493,248
-5,775	6,986	927,155	493,184
-4,760	6,952	926,543	492,733
-3,746	6,919	925,801	492,213
-2,731	6,771	925,282	491,455
-1,717	6,806	924,764	491,271
-0,702	6,750	924,021	490,680
0,313	6,616	923,340	490,642
1,327	10,040	920,841	499,940
2,342	18,587	769,773	440,032
3,356	13,530	442,512	245,414
4,371	-12,469	309,845	144,430
5,386	-16,066	292,687	132,814
6,400	-18,216	286,651	127,950
7,415	-18,303	284,062	126,698
8,429	-19,069	282,163	125,100
9,444	-19,041	281,198	124,687
10,459	-18,999	280,659	124,478
11,473	-19,101	280,004	124,079
12,488	-18,822	279,588	124,151
13,502	-19,044	279,164	123,739
14,517	-18,779	278,768	123,805
15,531	-19,010	278,249	123,344
16,546	-18,972	278,094	123,300
17,561	-18,909	277,484	123,079
18,575	-18,843	277,115	122,966
19,590	-18,963	276,882	122,738
20,604	-18,738	276,478	122,762
21,619	-18,901	276,155	122,453
22,634	-18,666	275,758	122,488
23,648	-18,928	275,458	122,096
24,663	-18,966	275,305	121,982
25,677	-18,869	274,977	121,916
26,692	-18,814	274,700	121,835
27,707	-18,939	274,483	121,611
28,721	-18,908	274,244	121,523
29,736	-18,819	273,947	121,463
30,750	-18,872	273,670	121,280
31,765	-18,830	273,569	121,264
32,780	-18,892	273,185	121,025
33,794	-18,923	272,820	120,824
34,809	-18,726	272,548	120,876
35,823	-18,752	272,330	120,745
36,838	-18,869	272,121	120,532
37,853	-19,011	272,028	120,348
38,867	-18,899	271,799	120,340
39,882	-18,945	271,468	120,141
40,896	-18,775	271,080	120,115
41,911	-18,703	270,963	120,120
42,926	-18,909	270,781	119,838
43,940	-18,806	270,460	119,780
44,955	-18,890	270,047	119,509
45,969	-18,881	270,062	119,513
46,984	-18,870	269,885	119,435
47,999	-18,773	269,690	119,427
49,013	-18,663	269,473	119,421
50,028	-18,554	268,990	119,296
51,042	-18,466	268,926	119,338
52,057	-18,825	268,833	118,957
53,071	-18,603	268,547	119,024
54,086	-18,655	268,231	118,825
55,101	-18,657	268,063	118,738
56,115	-18,762	267,948	118,581
57,130	-18,748	267,481	118,377
58,144	-19,114	267,449	118,018
59,159	-18,965	267,057	117,970
60,174	-19,061	266,966	117,832
61,188	-18,877	266,562	117,810
62,203	-18,737	266,090	117,718
63,217	-18,782	266,197	117,714
64,232	-18,836	265,936	117,539
65,247	-18,703	265,558	117,482
66,261	-18,954	265,472	117,206
67,276	-18,824	265,234	117,208
68,290	-18,831	264,942	117,063
69,305	-18,659	264,868	117,175
70,320	-18,760	264,581	116,946
71,334	-18,534	264,223	116,981
72,349	-18,673	264,089	116,786
73,363	-18,957	263,918	116,445
74,378	-18,703	263,502	116,479
75,393	-18,783	263,482	116,388
76,407	-18,732	263,268	116,329
77,422	-18,569	262,867	116,287
78,436	-18,878	262,733	115,941
79,451	-18,742	262,505	115,952
80,466	-18,759	262,247	115,812
81,480	-18,756	261,888	115,646
82,495	-18,855	261,782	115,501
83,509	-18,750	261,666	115,533
84,524	-18,795	261,543	115,428
85,539	-18,717	261,268	115,366
86,553	-18,703	261,031	115,264
87,568	-18,534	260,722	115,267
88,582	-18,804	260,624	114,973
89,597	-18,827	260,312	114,805
90,611	-18,645	260,127	114,874
91,626	-18,781	260,020	114,697
92,641	-18,670	259,651	114,622
93,655	-18,892	259,605	114,395
94,670	-18,798	259,298	114,333
95,684	-18,902	259,183	114,180
96,699	-18,999	258,983	113,996
97,714	-18,650	258,748	114,190
98,728	-18,660	258,558	114,087
99,743	-18,615	258,270	113,989
100,757	-18,619	258,139	113,918
101,772	-18,646	257,852	113,757
102,787	-18,687	257,685	113,637
103,801	-18,839	257,434	113,384
104,816	-18,638	257,243	113,466
105,830	-18,596	257,113	113,435
106,845	-18,762	256,875	113,175
107,860	-18,675	256,619	113,128
108,874	-18,735	256,508	113,016
109,889	-18,632	256,141	112,934
110,903	-18,565	255,970	112,906
111,918	-18,570	255,743	112,792
112,933	-18,751	255,663	112,590
113,947	-18,713	255,458	112,522
114,962	-18,713	255,189	112,394
115,976	-18,635	254,995	112,365
116,991	-18,629	254,822	112,285
118,006	-18,781	254,627	112,057
119,020	-18,607	254,361	112,080
120,035	-18,855	254,276	111,818
121,049	-18,580	254,153	111,993
122,064	-18,800	254,010	111,729
123,079	-18,861	253,740	111,548
124,093	-18,606	253,455	111,632
125,108	-18,712	253,420	111,516
126,122	-18,663	253,337	111,511
127,137	-18,585	252,947	111,397
128,151	-18,462	252,627	111,351
129,166	-18,492	252,504	111,261
130,181	-18,485	252,405	111,214
131,195	-18,780	252,069	110,804
132,210	-18,694	251,916	110,800
133,224	-18,603	251,825	110,828
134,239	-18,526	251,432	110,710
135,254	-18,607	251,353	110,597
136,268	-18,663	251,136	110,444
137,283	-18,581	251,021	110,454
138,297	-18,533	250,758	110,368
139,312	-18,560	250,627	110,278
140,327	-18,781	250,450	110,003
141,341	-18,778	250,219	109,894
142,356	-18,635	249,986	109,903
143,370	-18,642	249,791	109,802
144,385	-18,603	249,617	109,748
145,400	-18,744	249,373	109,512
146,414	-18,844	249,241	109,360
147,429	-18,596	249,034	109,469
148,443	-18,515	248,882	109,460
149,458	-18,711	248,671	109,193
150,473	-18,601	248,503	109,202
151,487	-18,873	248,174	108,819
152,502	-18,664	248,059	108,934
153,516	-18,674	247,906	108,849
154,531	-18,737	247,618	108,660
155,546	-18,704	247,439	108,599
156,560	-18,530	247,306	108,677
157,575	-18,556	247,046	108,532
158,589	-18,681	246,930	108,366
159,604	-18,664	246,699	108,270
160,619	-18,775	246,632	108,138
161,633	-18,723	246,380	108,061
162,648	-18,711	246,182	107,974
163,662	-18,578	246,142	108,058
164,677	-18,568	245,865	107,935
165,692	-18,674	245,802	107,810
166,706	-18,717	245,651	107,698
167,721	-18,563	245,491	107,746
168,735	-18,680	245,152	107,491
169,750	-18,604	244,946	107,454
170,764	-18,521	244,950	107,515
171,779	-18,670	244,858	107,342
172,794	-18,682	244,534	107,180
173,808	-18,619	244,348	107,141
174,823	-18,629	244,243	107,077
175,837	-18,627	244,048	106,983
176,852	-18,502	243,789	106,964
177,867	-18,734	243,663	106,708
178,881	-18,684	243,595	106,710
179,896	-18,541	243,450	106,754
180,910	-18,597	243,086	106,539
181,925	-18,635	243,000	106,461
182,940	-18,730	242,949	106,351
183,954	-18,795	242,733	106,194
184,969	-18,515	242,567	106,341
185,983	-18,542	242,493	106,277
186,998	-18,695	242,194	106,011
188,013	-18,876	242,113	105,818
189,027	-18,639	241,775	105,854
190,042	-18,724	241,646	105,719
191,056	-18,452	241,399	105,824
192,071	-18,539	241,288	105,694
193,086	-18,404	241,053	105,692
194,100	-18,543	240,935	105,518
195,115	-18,493	240,548	105,379
196,129	-18,491	240,511	105,356
197,144	-18,600	240,316	105,172
198,159	-18,724	240,077	104,958
199,173	-18,623	239,884	104,946
200,188	-18,745	239,853	104,824
201,202	-18,537	239,662	104,900
202,217	-18,463	239,397	104,834
203,232	-18,486	239,383	104,800
204,246	-18,581	239,057	104,572
205,261	-18,728	238,972	104,406
206,275	-17,163	239,425	105,857
207,290	-12,247	240,974	110,519
208,304	-5,708	243,114	116,831
209,319	-2,185	244,086	120,169
210,334	-1,068	244,360	121,207
211,348	-0,410	244,448	121,777
212,363	0,129	244,422	122,193
213,377	0,358	244,276	122,296
214,392	0,580	244,176	122,416
215,407	0,917	244,220	122,703
216,421	0,846	244,025	122,536
217,436	1,097	243,870	122,651
218,450	0,787	243,831	122,368
219,465	0,940	243,588	122,360
220,480	0,920	243,558	122,317
221,494	0,907	243,312	122,172
222,509	0,830	243,006	121,946
223,523	0,418	242,780	121,487
224,538	0,299	242,486	121,233
225,553	0,391	242,387	121,247
226,567	0,348	242,226	121,121
227,582	0,389	242,154	121,108
228,596	0,478	241,980	121,082
229,611	0,411	241,843	120,948
230,626	0,560	241,671	120,971
231,640	0,424	241,536	120,784
232,655	0,320	241,337	120,590
233,669	0,427	241,166	120,580
234,684	0,193	241,015	120,305
235,699	0,313	240,669	120,218
236,713	0,326	240,645	120,205
237,728	0,540	240,504	120,296
238,742	0,481	240,394	120,183
239,757	0,350	240,209	119,975
240,772	0,388	239,905	119,843
241,786	0,503	239,631	119,787
242,801	0,361	239,618	119,657
243,815	0,333	239,601	119,615
244,830	0,251	239,419	119,448
245,844	0,405	239,237	119,470
246,859	0,184	239,209	119,269
247,874	0,554	238,903	119,400
248,888	0,429	238,745	119,211
249,903	0,301	238,789	119,121
250,917	0,498	238,424	119,084
251,932	0,496	238,197	118,959
252,947	0,522	238,077	118,909
253,961	0,378	237,993	118,742
254,976	0,504	237,790	118,730
255,990	0,372	237,568	118,504
257,005	0,277	237,554	118,412
258,020	0,244	237,435	118,315
259,034	0,502	237,321	118,452
260,049	0,406	237,110	118,260
261,063	0,303	236,853	118,041
262,078	0,422	236,657	118,026
263,093	0,465	236,597	118,019
264,107	0,412	236,380	117,859
265,122	0,507	236,255	117,861
266,136	0,504	236,084	117,762
267,151	0,524	235,947	117,699
268,166	0,501	235,785	117,590
269,180	0,390	235,528	117,364
270,195	0,316	235,646	117,355
271,209	0,312	235,379	117,208
272,224	0,295	235,214	117,102
273,239	0,199	235,107	116,963
274,253	0,550	234,724	117,037
275,268	0,398	234,746	116,919
276,282	0,371	234,724	116,876
277,297	0,463	234,441	116,796
278,312	0,349	234,341	116,647
279,326	0,418	234,157	116,599
280,341	0,418	234,004	116,513
281,355	0,461	233,887	116,477
282,370	0,633	233,647	116,480
283,384	0,580	233,579	116,395
284,399	0,254	233,404	116,045
285,414	0,461	233,243	116,115
286,428	0,536	233,052	116,067
287,443	0,738	232,819	116,097
288,457	0,533	232,868	115,953
289,472	0,637	232,630	115,905
290,487	0,647	232,439	115,806
291,501	0,495	232,369	115,644
292,516	0,513	232,184	115,556
293,530	0,715	232,038	115,628
294,545	0,367	231,949	115,306
295,560	0,309	231,795	115,174
296,574	0,565	231,568	115,248
297,589	0,562	231,551	115,227
298,603	0,562	231,267	115,075
299,618	0,571	231,273	115,075
300,633	0,650	231,167	115,073
301,647	0,760	231,084	115,105
302,662	0,594	230,894	114,873
303,676	0,452	230,597	114,607
304,691	0,633	230,492	114,683
305,706	0,472	230,288	114,448
306,720	0,787	230,096	114,582
307,735	0,620	230,047	114,420
308,749	0,789	229,885	114,458
309,764	0,847	229,687	114,394
310,779	0,797	229,651	114,328
311,793	0,658	229,459	114,116
312,808	0,860	229,200	114,131
313,822	0,798	229,183	114,065
314,837	0,871	228,891	113,965
315,852	0,672	228,952	113,834
316,866	0,938	228,759	113,929
317,881	0,987	228,651	113,902
318,895	0,876	228,500	113,733
319,910	0,828	228,230	113,552
320,925	0,836	228,062	113,464
321,939	0,693	228,045	113,338
322,954	0,526	228,032	113,196
323,968	0,838	227,696	113,253
324,983	0,801	227,629	113,182
325,997	1,004	227,394	113,208
327,012	0,869	227,319	113,059
328,027	0,857	227,076	112,919
329,041	0,744	226,980	112,777
330,056	0,772	226,830	112,713
331,070	0,867	226,820	112,769
332,085	0,734	226,623	112,561
333,100	0,927	226,378	112,574
334,114	0,672	226,251	112,310
335,129	0,775	226,164	112,334
336,143	0,816	225,933	112,240
337,158	0,770	225,938	112,198
338,173	1,011	225,682	112,241
339,187	0,904	225,597	112,109
340,202	0,821	225,426	111,952
341,216	0,886	225,280	111,918
342,231	0,892	225,057	111,801
343,246	0,782	225,006	111,685
344,260	1,068	224,712	111,741
345,275	0,888	224,754	111,618
346,289	0,974	224,627	111,609
347,304	0,939	224,361	111,440
348,319	0,809	224,433	111,370
349,333	0,902	224,194	111,310
350,348	0,886	223,913	111,149
351,362	0,940	223,871	111,158
352,377	0,876	223,772	111,052
353,392	0,952	223,593	111,010
354,406	0,996	223,508	110,990
355,421	193,781	1310,257	1379,788
356,435	155,232	1442,506	1379,604
