DTS Sentinel unit serial number:	SN410029Multiplexer serial number:	ORYXHardware model number:	OX2-SRSoftware version number:	ORYX F/W v4,00 Oryx Data Collector v3.7.2.0data status	okinstallation	B5 Nyhavnadifferential loss correction	single-endedforward channel	channel 2reverse channel	N/Adate	2023/12/12time	09:32:13forward acquisition time	300,00reverse acquisition time	0,00gamma	499,1914k internal	0,3158k external	0,3158temperature offset calibration	1,0000default loss term (dB/km)	0,3820temperature slope calibration	1,0000multiplexer offset coefficient	1,0000multiplexer slope coefficient	1,0000fibre end	0,00T internal ref (°C)	15,01T ext. ref 1 (°C)	-1,32T ext. ref 2 (°C)	-1,63length (m)	temperature (°C)	Stokes	anti-Stokes-744,400	-93,988	0,089	-0,018
-743,385	-85,777	-0,223	-0,050
-742,371	93,958	0,116	-0,097
-741,356	-17,606	-0,210	-0,097
-740,342	800,000	0,038	0,095
-739,327	-95,659	-0,383	0,075
-738,312	33,757	0,100	-0,064
-737,298	-90,309	-0,348	-0,074
-736,283	187,625	0,097	0,107
-735,269	-139,932	-0,393	0,030
-734,254	258,545	0,040	0,050
-733,239	-61,047	-0,614	-0,190
-732,225	-34,472	0,144	-0,058
-731,210	-200,000	-0,007	0,038
-730,196	67,136	0,107	-0,080
-729,181	-200,000	0,002	-0,069
-728,167	-200,000	0,006	-0,038
-727,152	800,000	0,027	0,061
-726,137	-41,791	-0,081	-0,030
-725,123	37,735	0,050	-0,033
-724,108	800,000	0,012	-0,034
-723,094	-200,000	-0,014	0,117
-722,079	290,403	-0,038	-0,051
-721,064	-121,911	0,065	-0,008
-720,050	-200,000	0,016	-0,059
-719,035	-152,737	0,100	0,005
-718,021	205,180	-0,064	0,073
-717,006	-110,783	-0,058	-0,009
-715,991	40,117	-0,153	-0,101
-714,977	-200,000	0,003	-0,130
-713,962	11,663	-0,038	-0,021
-712,948	-91,206	-0,021	0,004
-711,933	22,562	0,049	-0,029
-710,918	-200,000	-0,020	-0,066
-709,904	94,037	-0,213	-0,178
-708,889	-73,163	-0,121	-0,032
-707,875	-200,000	0,002	0,017
-706,860	-103,122	-0,042	-0,007
-705,845	800,000	-0,013	-0,030
-704,831	-200,000	0,002	-0,087
-703,816	-165,597	-0,022	-0,001
-702,802	800,000	-0,062	-0,180
-701,787	81,181	-0,121	-0,096
-700,772	23,189	-0,080	-0,049
-699,758	94,662	-0,072	-0,061
-698,743	82,589	0,149	-0,119
-697,729	-174,921	0,173	-0,003
-696,714	120,610	0,031	0,029
-695,699	117,602	0,102	-0,093
-694,685	259,772	-0,132	-0,169
-693,670	27,537	-0,052	-0,032
-692,656	-200,000	-0,005	-0,042
-691,641	-49,480	0,033	-0,012
-690,627	23,423	-0,140	0,085
-689,612	300,794	-0,063	-0,085
-688,597	175,436	0,094	-0,101
-687,583	637,214	-0,078	-0,147
-686,568	86,190	-0,121	-0,098
-685,554	800,000	0,028	-0,086
-684,539	202,387	0,065	-0,074
-683,524	355,817	-0,058	0,085
-682,510	110,228	-0,047	-0,042
-681,495	-2,742	0,038	-0,019
-680,481	-84,204	0,157	-0,036
-679,466	-200,000	-0,023	-0,092
-678,451	-200,000	-0,043	-0,260
-677,437	800,000	-0,040	-0,093
-676,422	-200,000	-0,009	0,047
-675,408	-50,754	-0,067	-0,023
-674,393	-13,470	-0,047	0,022
-673,378	-19,028	-0,140	-0,064
-672,364	212,431	0,029	-0,034
-671,349	-200,000	0,015	-0,080
-670,335	-200,000	-0,016	0,102
-669,320	735,199	-0,038	0,075
-668,305	-200,000	0,025	0,085
-667,291	-82,445	-0,102	-0,024
-666,276	-200,000	0,016	-0,066
-665,262	8,634	-0,120	-0,066
-664,247	-200,000	0,021	-0,107
-663,232	-8,946	-0,049	-0,024
-662,218	264,857	-0,015	0,020
-661,203	-200,000	0,000	-0,023
-660,189	-10,981	-0,044	-0,021
-659,174	260,302	0,042	-0,054
-658,159	280,944	-0,086	-0,113
-657,145	563,935	-0,064	-0,114
-656,130	-1,904	-0,066	-0,034
-655,116	800,000	0,063	-0,143
-654,101	-25,519	-0,059	-0,026
-653,086	-200,000	0,011	0,122
-652,072	47,483	-0,107	-0,073
-651,057	270,307	-0,035	-0,045
-650,043	302,858	0,042	0,057
-649,028	245,810	0,039	-0,049
-648,014	-113,864	-0,102	-0,014
-646,999	73,356	-0,072	0,055
-645,984	-200,000	0,009	0,109
-644,970	273,817	0,012	-0,015
-643,955	-37,553	0,029	0,011
-642,941	89,048	-0,157	0,128
-641,926	107,878	-0,015	0,013
-640,911	528,024	0,028	0,048
-639,897	-51,619	0,082	0,028
-638,882	350,012	-0,057	-0,084
-637,868	70,920	0,005	0,004
-636,853	800,000	-0,025	0,053
-635,838	-200,000	0,011	-0,061
-634,824	204,683	0,054	0,061
-633,809	54,283	0,086	0,061
-632,795	328,196	-0,084	0,118
-631,780	-180,363	-0,091	0,001
-630,765	800,000	-0,015	-0,038
-629,751	129,381	0,029	0,027
-628,736	-200,000	-0,013	-0,099
-627,722	-200,000	0,007	-0,128
-626,707	-30,728	-0,075	-0,031
-625,692	-200,000	0,020	0,152
-624,678	-200,000	0,020	-0,102
-623,663	-83,405	-0,212	-0,049
-622,649	343,702	-0,015	-0,022
-621,634	-55,586	-0,119	0,039
-620,619	-200,000	0,042	-0,190
-619,605	-200,000	0,014	-0,123
-618,590	-49,170	-0,056	-0,019
-617,576	-200,000	-0,027	0,119
-616,561	5,668	0,046	-0,025
-615,546	93,594	-0,080	-0,067
-614,532	590,667	-0,077	-0,141
-613,517	-51,699	-0,119	0,040
-612,503	-200,000	-0,005	-0,099
-611,488	-110,009	0,044	-0,007
-610,474	-200,000	0,001	0,026
-609,459	130,073	0,058	0,055
-608,444	397,176	0,007	0,011
-607,430	791,589	-0,007	-0,013
-606,415	109,561	-0,043	-0,038
-605,401	153,590	0,088	0,089
-604,386	-112,446	-0,117	0,017
-603,371	-29,604	-0,103	0,043
-602,357	-71,720	0,138	0,037
-601,342	-27,592	-0,084	0,035
-600,328	7,161	-0,131	0,072
-599,313	-76,993	-0,081	-0,021
-598,298	73,825	-0,056	0,043
-597,284	800,000	0,018	0,051
-596,269	-37,594	-0,073	0,028
-595,255	800,000	-0,085	0,173
-594,240	-182,281	0,051	-0,001
-593,225	4,285	0,061	0,033
-592,211	800,000	-0,025	-0,064
-591,196	-152,793	0,030	-0,002
-590,182	-54,607	0,103	-0,034
-589,167	12,225	0,134	0,076
-588,152	-86,337	-0,008	0,002
-587,138	-200,000	0,000	0,083
-586,123	76,095	-0,048	-0,037
-585,109	-51,431	0,144	0,049
-584,094	-200,000	-0,012	0,066
-583,079	50,288	0,156	-0,108
-582,065	-200,000	0,009	-0,033
-581,050	-52,850	-0,077	0,026
-580,036	311,091	0,044	-0,061
-579,021	450,547	0,047	-0,076
-578,006	-200,000	-0,017	-0,077
-576,992	253,779	-0,061	0,076
-575,977	359,639	0,085	-0,125
-574,963	493,378	0,037	0,063
-573,948	-5,110	-0,061	-0,031
-572,934	-54,754	-0,059	0,019
-571,919	158,634	-0,050	-0,051
-570,904	-33,421	0,030	0,012
-569,890	800,000	-0,062	-0,179
-568,875	331,171	-0,031	-0,045
-567,861	-14,092	0,131	0,062
-566,846	25,107	-0,016	-0,010
-565,831	123,868	0,112	-0,103
-564,817	450,197	-0,017	-0,028
-563,802	122,511	-0,041	-0,037
-562,788	75,063	-0,052	0,040
-561,773	136,727	-0,016	0,015
-560,758	9,292	0,202	0,111
-559,744	-56,808	0,088	-0,028
-558,729	-200,000	-0,010	-0,073
-557,715	-6,703	-0,080	-0,040
-556,700	162,315	-0,094	0,096
-555,685	226,562	-0,103	0,123
-554,671	800,000	-0,041	-0,086
-553,656	37,613	-0,051	0,033
-552,642	-104,884	0,127	0,021
-551,627	288,902	-0,056	0,074
-550,612	315,859	0,087	0,120
-549,598	8,556	-0,036	-0,020
-548,583	-200,000	0,003	0,012
-547,569	230,406	-0,099	0,119
-546,554	-121,110	0,036	0,004
-545,539	-200,000	-0,003	0,061
-544,525	-16,421	0,097	0,045
-543,510	800,000	-0,061	-0,129
-542,496	-6,586	-0,173	-0,086
-541,481	229,322	0,096	-0,115
-540,466	127,127	-0,115	0,106
-539,452	-43,158	-0,036	-0,013
-538,437	70,173	0,136	0,102
-537,423	239,005	-0,075	-0,092
-536,408	800,000	0,037	-0,105
-535,393	658,269	-0,119	-0,224
-534,379	133,466	-0,058	-0,055
-533,364	-200,000	-0,002	-0,101
-532,350	-82,227	-0,082	0,019
-531,335	205,365	-0,024	0,027
-530,321	103,542	-0,032	0,028
-529,306	-200,000	-0,002	0,074
-528,291	5,752	0,056	0,030
-527,277	86,402	-0,028	-0,023
-526,262	217,138	-0,013	-0,015
-525,248	-102,929	0,053	0,009
-524,233	-150,259	-0,080	-0,004
-523,218	800,000	-0,025	0,080
-522,204	-163,188	0,190	0,007
-521,189	66,678	0,121	-0,090
-520,175	62,371	-0,021	0,015
-519,160	118,398	-0,062	0,056
-518,145	136,714	0,046	-0,044
-517,131	-58,719	0,118	0,037
-516,116	-58,182	-0,035	-0,011
-515,102	-200,000	0,009	0,049
-514,087	706,299	0,029	-0,057
-513,072	70,448	-0,104	0,078
-512,058	86,470	0,072	-0,058
-511,043	-104,641	0,110	0,018
-510,029	273,273	0,085	0,109
-509,014	460,121	-0,073	-0,119
-507,999	316,412	-0,035	-0,049
-506,985	-2,317	0,107	-0,055
-505,970	-200,000	-0,019	-0,174
-504,956	450,236	0,057	-0,092
-503,941	-47,147	-0,100	0,035
-502,926	800,000	0,052	0,117
-501,912	-200,000	-0,005	0,209
-500,897	32,737	0,083	-0,052
-499,883	-61,348	0,088	0,027
-498,868	-62,597	-0,053	0,016
-497,853	800,000	-0,042	-0,090
-496,839	66,197	0,073	-0,054
-495,824	304,926	0,105	0,143
-494,810	26,267	0,095	-0,058
-493,795	-55,218	-0,113	-0,037
-492,781	-9,722	-0,125	0,060
-491,766	-15,002	-0,165	-0,077
-490,751	541,675	0,036	0,063
-489,737	-22,883	-0,005	0,002
-488,722	-12,170	0,068	0,032
-487,708	161,749	-0,049	0,050
-486,693	800,000	-0,044	-0,097
-485,678	420,489	0,014	-0,022
-484,664	296,494	0,072	0,096
-483,649	-200,000	0,008	-0,032
-482,635	-200,000	-0,043	-0,142
-481,620	-200,000	0,001	0,139
-480,605	-69,582	0,051	0,014
-479,591	224,651	-0,083	0,098
-478,576	800,000	-0,016	0,043
-477,562	-7,094	-0,090	0,044
-476,547	-163,140	-0,012	0,000
-475,532	0,975	-0,092	-0,048
-474,518	-120,126	-0,048	-0,006
-473,503	800,000	-0,023	0,067
-472,489	-83,858	-0,072	-0,017
-471,474	172,184	0,072	0,075
-470,459	-200,000	0,023	-0,218
-469,445	390,690	-0,065	-0,098
-468,430	588,329	0,008	-0,014
-467,416	199,646	0,041	-0,046
-466,401	81,401	0,068	0,053
-465,386	-200,000	-0,031	0,142
-464,372	-75,681	0,035	0,009
-463,357	-200,000	-0,011	-0,054
-462,343	800,000	0,028	0,086
-461,328	800,000	-0,070	-0,203
-460,313	228,081	-0,060	-0,071
-459,299	800,000	0,049	0,140
-458,284	-32,209	0,052	0,021
-457,270	-200,000	-0,043	0,210
-456,255	-137,361	-0,056	-0,005
-455,241	607,544	-0,060	-0,109
-454,226	800,000	0,013	0,033
-453,211	797,255	-0,034	0,069
-452,197	-19,713	-0,034	0,015
-451,182	152,700	-0,092	-0,092
-450,168	172,296	0,055	0,057
-449,153	-45,302	-0,138	-0,050
-448,138	-126,287	-0,171	0,018
-447,124	800,000	-0,030	0,063
-446,109	800,000	-0,099	-0,233
-445,095	147,751	0,117	0,115
-444,080	800,000	-0,045	0,109
-443,065	-60,809	-0,049	-0,015
-442,051	240,299	-0,016	-0,019
-441,036	-159,094	-0,137	-0,006
-440,022	-200,000	-0,003	0,043
-439,007	297,351	0,116	-0,155
-437,992	800,000	0,034	-0,078
-436,978	640,543	0,020	0,037
-435,963	558,372	0,070	0,124
-434,949	-158,777	-0,136	-0,006
-433,934	-200,000	0,011	-0,162
-432,919	-200,000	-0,002	-0,111
-431,905	-53,094	-0,062	0,021
-430,890	-200,000	-0,010	-0,041
-429,876	-193,704	0,048	0,000
-428,861	800,000	0,020	0,047
-427,846	99,408	-0,031	-0,026
-426,832	-82,310	-0,153	0,036
-425,817	421,948	0,039	0,061
-424,803	-41,300	0,028	0,011
-423,788	-110,089	0,113	0,017
-422,773	800,000	-0,067	-0,177
-421,759	461,524	-0,059	-0,095
-420,744	-40,813	-0,123	0,046
-419,730	229,374	0,077	0,092
-418,715	418,790	-0,027	0,042
-417,701	220,357	-0,080	0,094
-416,686	800,000	0,036	-0,109
-415,671	-200,000	-0,003	0,153
-414,657	800,000	0,088	-0,190
-413,642	228,980	-0,038	-0,046
-412,628	800,000	-0,023	-0,072
-411,613	92,546	-0,077	-0,063
-410,598	800,000	0,075	-0,154
-409,584	180,119	-0,075	0,081
-408,569	-66,263	0,041	-0,012
-407,555	-172,584	0,071	0,002
-406,540	7,622	0,136	-0,074
-405,525	800,000	-0,014	-0,031
-404,511	-93,277	0,069	0,014
-403,496	-0,376	-0,093	0,048
-402,482	-200,000	-0,009	0,094
-401,467	-99,917	0,048	0,009
-400,452	-146,366	0,103	0,006
-399,438	59,683	0,041	-0,029
-398,423	607,677	-0,072	-0,132
-397,409	95,975	-0,024	0,020
-396,394	-200,000	0,007	0,070
-395,379	-58,934	-0,035	-0,011
-394,365	56,865	-0,032	0,023
-393,350	-149,301	0,076	-0,004
-392,336	800,000	0,014	-0,041
-391,321	56,377	0,012	-0,009
-390,306	-200,000	0,002	-0,055
-389,292	297,785	-0,077	-0,104
-388,277	-200,000	0,013	-0,059
-387,263	-200,000	-0,024	0,111
-386,248	-200,000	0,010	0,167
-385,233	-200,000	-0,002	-0,039
-384,219	245,077	-0,074	-0,091
-383,204	800,000	-0,059	-0,180
-382,190	-0,932	-0,105	0,054
-381,175	-53,681	0,118	-0,039
-380,160	-66,522	0,023	-0,007
-379,146	-200,000	0,009	0,049
-378,131	-200,000	0,011	-0,056
-377,117	724,433	0,021	0,042
-376,102	421,974	-0,053	-0,083
-375,088	-61,506	-0,203	-0,062
-374,073	58,453	-0,030	-0,021
-373,058	-200,000	0,026	-0,087
-372,044	-6,963	0,054	0,027
-371,029	-101,287	0,066	-0,012
-370,015	347,129	-0,007	-0,010
-369,000	-77,833	-0,038	0,009
-367,985	720,351	0,060	-0,116
-366,971	344,369	0,042	-0,061
-365,956	201,470	0,025	-0,028
-364,942	75,106	0,086	0,066
-363,927	315,412	0,050	-0,069
-362,912	-64,519	0,100	0,029
-361,898	-40,331	0,123	0,046
-360,883	38,894	-0,036	0,024
-359,869	800,000	-0,012	-0,032
-358,854	171,537	0,059	0,062
-357,839	17,268	0,146	0,084
-356,825	-188,147	-0,104	0,001
-355,810	72,290	0,080	0,060
-354,796	36,376	-0,042	0,027
-353,781	-120,208	-0,087	-0,011
-352,766	366,424	0,072	-0,105
-351,752	800,000	0,045	0,115
-350,737	-49,303	0,135	0,047
-349,723	32,112	0,103	0,064
-348,708	800,000	0,029	0,088
-347,693	-200,000	-0,026	0,151
-346,679	309,261	-0,125	-0,169
-345,664	-200,000	-0,011	0,094
-344,650	41,806	0,038	0,025
-343,635	-69,565	0,143	-0,040
-342,620	-67,910	0,053	0,015
-341,606	-59,007	0,034	0,011
-340,591	36,464	0,068	-0,044
-339,577	800,000	0,035	-0,081
-338,562	138,083	0,079	-0,075
-337,548	97,687	-0,053	0,044
-336,533	264,992	0,046	0,058
-335,518	-103,725	0,062	-0,010
-334,504	-200,000	0,011	0,186
-333,489	47,071	0,075	-0,050
-332,475	-200,000	0,003	-0,024
-331,460	-200,000	-0,009	0,032
-330,445	-200,000	-0,004	-0,068
-329,431	-3,611	0,122	0,061
-328,416	506,565	0,049	0,082
-327,402	35,774	-0,070	0,044
-326,387	-78,703	-0,053	0,013
-325,372	800,000	-0,041	-0,101
-324,358	-200,000	0,013	-0,101
-323,343	-35,880	-0,033	0,013
-322,329	57,605	-0,033	-0,023
-321,314	9,718	0,081	0,045
-320,299	525,503	0,048	0,082
-319,285	78,711	0,076	-0,059
-318,270	-200,000	-0,017	-0,056
-317,256	-200,000	0,009	-0,118
-316,241	-200,000	-0,032	-0,126
-315,226	-41,718	0,051	-0,019
-314,212	-200,000	0,007	0,123
-313,197	-144,656	0,134	0,009
-312,183	-6,370	0,134	-0,066
-311,168	800,000	-0,092	-0,189
-310,153	-200,000	-0,004	0,125
-309,139	277,667	-0,070	0,090
-308,124	-200,000	-0,002	-0,047
-307,110	800,000	0,024	0,050
-306,095	-200,000	0,169	0,000
-305,080	-200,000	-0,028	-0,129
-304,066	278,231	-0,093	-0,120
-303,051	435,060	0,035	-0,056
-302,037	-38,865	0,072	-0,027
-301,022	-200,000	0,018	-0,184
-300,008	-200,000	0,005	0,069
-298,993	-42,058	0,118	-0,044
-297,978	-200,000	0,030	0,204
-296,964	-101,988	-0,125	-0,022
-295,949	800,000	-0,022	0,057
-294,935	165,758	-0,059	-0,061
-293,920	-169,163	0,110	0,003
-292,905	84,216	-0,086	-0,068
-291,891	174,372	0,067	0,070
-290,876	-200,000	0,016	0,079
-289,862	-200,000	0,032	0,116
-288,847	468,345	-0,070	0,115
-287,832	-112,569	-0,075	0,011
-286,818	-94,936	0,134	-0,026
-285,803	424,490	-0,061	0,096
-284,789	328,700	0,041	0,058
-283,774	800,000	-0,054	0,117
-282,759	-74,327	-0,118	-0,031
-281,745	-200,000	-0,003	-0,040
-280,730	-35,294	-0,059	-0,023
-279,716	-116,941	-0,072	0,009
-278,701	31,312	0,104	0,065
-277,686	-200,000	0,004	-0,015
-276,672	-200,000	0,001	0,088
-275,657	800,000	-0,014	0,044
-274,643	800,000	-0,033	-0,084
-273,628	57,725	0,039	-0,027
-272,613	-96,897	-0,035	0,007
-271,599	10,962	0,126	-0,069
-270,584	-44,917	-0,027	-0,010
-269,570	135,259	-0,087	0,082
-268,555	143,095	0,106	-0,102
-267,540	-137,592	0,078	0,006
-266,526	160,577	-0,122	-0,124
-265,511	23,108	0,181	-0,107
-264,497	-93,851	0,044	0,009
-263,482	800,000	-0,055	0,148
-262,467	-81,326	0,063	0,015
-261,453	35,842	0,085	0,054
-260,438	-35,930	-0,018	-0,007
-259,424	-157,162	-0,123	-0,005
-258,409	800,000	0,035	-0,109
-257,395	-200,000	-0,002	0,024
-256,380	568,831	0,013	0,023
-255,365	-200,000	-0,001	0,124
-254,351	-40,204	0,050	0,019
-253,336	-200,000	0,033	-0,114
-252,322	-27,538	0,065	0,027
-251,307	64,639	-0,053	-0,038
-250,292	-86,468	0,072	-0,016
-249,278	-200,000	-0,006	0,065
-248,263	-113,799	-0,066	0,009
-247,249	-68,692	0,170	-0,047
-246,234	-200,000	-0,004	-0,069
-245,219	-90,882	-0,164	0,034
-244,205	-178,469	0,090	0,001
-243,190	-200,000	-0,000	0,001
-242,176	537,050	0,049	-0,084
-241,161	60,375	0,018	-0,013
-240,146	0,457	-0,096	-0,050
-239,132	800,000	-0,023	-0,059
-238,117	-60,158	-0,063	-0,019
-237,103	252,124	0,024	-0,030
-236,088	-52,902	0,093	-0,031
-235,073	800,000	-0,034	-0,071
-234,059	-200,000	0,044	-0,000
-233,044	312,428	0,047	0,064
-232,030	99,352	-0,047	0,039
-231,015	-93,617	-0,106	0,021
-230,000	214,207	-0,102	0,117
-228,986	-22,193	-0,125	0,054
-227,971	-26,745	0,104	0,044
-226,957	-18,453	0,079	0,036
-225,942	-64,580	0,029	0,008
-224,927	800,000	0,054	0,116
-223,913	-200,000	0,008	0,038
-222,898	-200,000	-0,038	-0,136
-221,884	-63,501	0,053	-0,016
-220,869	800,000	-0,021	-0,051
-219,855	800,000	-0,028	-0,077
-218,840	-88,105	0,076	-0,016
-217,825	-200,000	0,006	-0,049
-216,811	84,626	-0,061	0,048
-215,796	56,699	-0,129	-0,091
-214,782	800,000	-0,012	-0,025
-213,767	-143,255	0,093	0,006
-212,752	-106,831	0,142	0,023
-211,738	800,000	0,039	-0,081
-210,723	33,397	0,095	0,059
-209,709	-135,155	-0,126	0,011
-208,694	10,931	-0,063	0,035
-207,679	-200,000	-0,030	-0,103
-206,665	-46,425	0,098	-0,034
-205,650	-25,048	0,110	-0,047
-204,636	-134,941	0,142	-0,012
-203,621	-200,000	-0,001	0,089
-202,606	-14,907	-0,024	-0,011
-201,592	259,653	-0,083	-0,104
-200,577	800,000	-0,034	0,072
-199,563	800,000	-0,028	0,059
-198,548	613,536	-0,035	0,064
-197,533	-200,000	-0,016	0,053
-196,519	-118,418	-0,021	0,003
-195,504	-200,000	-0,024	-0,122
-194,490	-157,448	0,084	-0,004
-193,475	-200,000	-0,026	-0,085
-192,460	-74,242	0,170	-0,044
-191,446	-200,000	-0,000	0,074
-190,431	-200,000	-0,007	0,056
-189,417	62,732	-0,046	0,033
-188,402	195,567	-0,067	0,073
-187,387	362,946	0,040	0,058
-186,373	29,859	-0,184	0,113
-185,358	-200,000	0,028	0,134
-184,344	56,090	-0,016	-0,011
-183,329	237,524	0,037	0,044
-182,315	75,317	0,041	0,031
-181,300	121,636	0,048	-0,044
-180,285	180,934	-0,098	-0,104
-179,271	630,720	-0,056	0,102
-178,256	-78,701	0,041	-0,010
-177,242	-200,000	-0,014	0,049
-176,227	-200,000	0,006	0,063
-175,212	800,000	0,036	0,082
-174,198	32,553	0,112	0,070
-173,183	-95,639	-0,132	-0,025
-172,169	106,044	-0,060	-0,051
-171,154	328,409	-0,107	0,148
-170,139	-200,000	-0,018	0,127
-169,125	25,307	0,062	-0,037
-168,110	444,417	-0,071	0,112
-167,096	380,920	-0,092	-0,137
-166,081	71,084	-0,042	0,032
-165,066	-100,146	-0,080	-0,014
-164,052	69,789	0,054	0,040
-163,037	800,000	-0,042	0,086
-162,023	-11,100	0,011	-0,005
-161,008	-42,562	0,125	0,046
-159,993	207,808	-0,059	0,067
-158,979	800,000	-0,017	-0,041
-157,964	-131,657	-0,075	-0,007
-156,950	-200,000	0,009	0,087
-155,935	185,954	-0,066	-0,071
-154,920	-185,603	0,197	-0,002
-153,906	31,065	0,098	0,060
-152,891	246,582	0,042	-0,051
-151,877	60,012	-0,045	0,032
-150,862	800,000	0,046	0,139
-149,847	239,578	-0,121	-0,145
-148,833	-200,000	0,003	-0,026
-147,818	-200,000	0,021	0,156
-146,804	-175,785	-0,025	-0,000
-145,789	536,687	0,018	-0,031
-144,775	-200,000	0,003	0,146
-143,760	-71,426	-0,070	-0,019
-142,745	52,320	-0,110	-0,075
-141,731	-200,000	0,022	-0,077
-140,716	125,273	-0,016	0,015
-139,702	-152,837	0,011	-0,001
-138,687	553,613	-0,023	-0,040
-137,672	-5,338	0,039	-0,019
-136,658	457,663	-0,048	-0,077
-135,643	-125,015	-0,050	-0,005
-134,629	-200,000	0,023	0,101
-133,614	-78,548	0,173	0,042
-132,599	689,861	0,026	0,049
-131,585	71,869	-0,076	-0,057
-130,570	-200,000	0,017	-0,095
-129,556	610,784	-0,097	0,175
-128,541	62,572	-0,048	-0,035
-127,526	800,000	-0,049	0,120
-126,512	-123,688	0,010	0,001
-125,497	285,556	0,077	0,100
-124,483	-200,000	0,008	0,051
-123,468	391,228	-0,044	0,066
-122,453	-200,000	0,003	0,044
-121,439	-200,000	-0,003	-0,012
-120,424	-200,000	0,005	-0,107
-119,410	25,841	0,057	-0,034
-118,395	-200,000	0,003	-0,036
-117,380	-50,402	0,084	0,028
-116,366	-31,221	-0,070	-0,028
-115,351	-200,000	0,013	-0,045
-114,337	-200,000	0,022	-0,072
-113,322	-200,000	-0,000	0,028
-112,307	-200,000	-0,001	-0,021
-111,293	60,196	0,107	0,076
-110,278	433,403	-0,036	0,056
-109,264	80,452	-0,080	-0,062
-108,249	800,000	0,045	0,128
-107,234	-200,000	-0,024	0,145
-106,220	8,691	-0,101	-0,055
-105,205	800,000	0,036	0,106
-104,191	800,000	0,009	0,025
-103,176	-200,000	0,004	0,093
-102,162	420,545	0,072	0,111
-101,147	-126,378	-0,093	0,010
-100,132	474,856	-0,050	0,081
-99,118	165,305	-0,040	-0,041
-98,103	-200,000	-0,014	0,052
-97,089	445,968	0,045	-0,071
-96,074	-36,390	-0,054	0,021
-95,059	-111,593	0,051	0,007
-94,045	33,282	-0,125	-0,078
-93,030	153,877	-0,113	-0,111
-92,016	351,860	-0,020	-0,028
-91,001	703,026	-0,047	0,090
-89,986	144,677	-0,068	0,065
-88,972	-160,544	0,142	0,005
-87,957	183,625	-0,040	0,042
-86,943	107,491	-0,056	-0,048
-85,928	221,436	-0,066	-0,076
-84,913	-200,000	0,012	-0,197
-83,899	-182,302	0,036	-0,000
-82,884	-200,000	-0,016	0,065
-81,870	-25,293	0,111	0,047
-80,855	236,896	-0,065	-0,077
-79,840	800,000	-0,047	0,098
-78,826	-177,741	-0,055	0,001
-77,811	361,685	-0,050	0,073
-76,797	-111,663	0,091	-0,013
-75,782	-29,569	-0,068	0,028
-74,767	-133,573	0,050	0,004
-73,753	211,429	-0,052	0,059
-72,738	-169,506	0,123	-0,003
-71,724	-109,092	-0,096	-0,015
-70,709	286,825	-0,087	-0,113
-69,694	678,291	0,009	-0,016
-68,680	578,768	0,042	0,074
-67,665	-200,000	0,018	0,070
-66,651	-176,984	0,108	0,002
-65,636	185,744	0,030	-0,032
-64,622	434,538	-0,018	-0,028
-63,607	404,632	0,054	0,082
-62,592	-63,915	0,142	0,041
-61,578	632,280	-0,054	-0,098
-60,563	215,916	0,116	0,133
-59,549	776,196	-0,088	0,173
-58,534	-17,358	-2,039	-0,918
-57,519	-200,000	-0,269	-0,906
-56,505	-200,000	-1,307	-4,933
-55,490	63,549	0,834	0,600
-54,476	800,000	5,305	12,303
-53,461	-200,000	17,790	288,710
-52,446	800,000	729,257	2231,671
-51,432	538,259	1645,626	2817,675
-50,417	109,573	1635,901	1406,138
-49,403	75,394	1287,412	973,695
-48,388	31,679	1027,565	632,842
-47,373	20,122	989,249	571,150
-46,359	18,317	977,028	558,157
-45,344	15,325	973,039	546,069
-44,330	15,521	971,576	545,867
-43,315	15,108	969,549	543,358
-42,300	14,989	968,440	542,327
-41,286	14,999	967,626	541,882
-40,271	15,033	966,587	541,388
-39,257	15,046	965,559	540,833
-38,242	14,978	964,737	540,131
-37,227	14,995	963,966	539,733
-36,213	15,038	962,956	539,286
-35,198	15,036	962,101	538,778
-34,184	15,107	961,327	538,554
-33,169	14,997	960,391	537,653
-32,154	15,108	959,362	537,412
-31,140	15,023	958,485	536,628
-30,125	15,002	958,154	536,354
-29,111	15,025	956,914	535,712
-28,096	15,060	956,451	535,543
-27,082	15,092	955,542	535,116
-26,067	15,103	954,895	534,769
-25,052	15,006	954,246	534,072
-24,038	15,044	953,599	533,811
-23,023	15,021	952,910	533,330
-22,009	15,025	952,592	533,144
-20,994	15,053	951,704	532,716
-19,979	15,070	950,927	532,312
-18,965	15,024	950,234	531,758
-17,950	15,074	949,764	531,634
-16,936	14,977	949,145	530,955
-15,921	14,980	948,435	530,547
-14,906	14,997	947,608	530,118
-13,892	14,987	946,881	529,658
-12,877	14,943	946,318	529,183
-11,863	14,934	945,837	528,862
-10,848	14,907	945,363	528,492
-9,833	15,040	944,775	528,565
-8,819	14,992	944,306	528,129
-7,804	14,990	943,418	527,604
-6,790	14,955	943,133	527,312
-5,775	14,954	942,367	526,859
-4,760	14,911	941,743	526,354
-3,746	14,964	941,025	526,100
-2,731	14,834	940,213	525,213
-1,717	14,774	939,769	524,758
-0,702	14,746	939,211	524,337
0,313	14,635	938,469	524,362
1,327	17,814	936,380	533,159
2,342	26,785	792,669	475,055
3,356	23,422	457,721	269,164
4,371	-3,739	313,860	155,745
5,386	-7,630	295,618	142,751
6,400	-9,640	289,407	137,750
7,415	-10,131	287,016	136,117
8,429	-10,332	285,490	135,185
9,444	-10,258	284,526	134,789
10,459	-10,322	283,975	134,453
11,473	-10,304	283,265	134,122
12,488	-10,183	282,823	134,018
13,502	-10,225	282,270	133,704
14,517	-10,281	281,863	133,446
15,531	-10,210	281,481	133,321
16,546	-10,334	281,241	133,076
17,561	-10,411	280,779	132,772
18,575	-10,325	280,408	132,667
19,590	-10,148	279,970	132,617
20,604	-10,085	279,646	132,512
21,619	-10,227	279,274	132,189
22,634	-10,031	278,837	132,157
23,648	-10,309	278,689	131,811
24,663	-10,294	278,326	131,641
25,677	-10,319	278,188	131,540
26,692	-10,188	277,901	131,517
27,707	-10,329	277,636	131,246
28,721	-10,363	277,443	131,111
29,736	-10,463	277,143	130,862
30,750	-10,286	276,786	130,849
31,765	-10,453	276,571	130,579
32,780	-10,397	276,154	130,423
33,794	-10,141	276,118	130,636
34,809	-10,178	275,673	130,379
35,823	-10,334	275,465	130,123
36,838	-10,278	275,321	130,095
37,853	-10,366	275,092	129,893
38,867	-10,412	274,894	129,745
39,882	-10,275	274,478	129,665
40,896	-10,283	274,384	129,601
41,911	-10,283	274,059	129,436
42,926	-10,241	273,685	129,287
43,940	-10,323	273,457	129,091
44,955	-10,359	273,474	129,055
45,969	-10,557	273,195	128,727
46,984	-10,466	272,816	128,622
47,999	-10,758	272,669	128,269
49,013	-10,834	272,339	128,032
50,028	-10,913	272,037	127,805
51,042	-10,958	271,874	127,675
52,057	-10,908	271,482	127,526
53,071	-10,957	271,353	127,409
54,086	-10,829	271,334	127,508
55,101	-10,626	271,048	127,549
56,115	-10,609	270,965	127,515
57,130	-10,459	270,796	127,562
58,144	-10,107	270,472	127,722
59,159	-10,136	270,187	127,549
60,174	-10,159	269,970	127,415
61,188	-10,115	269,816	127,371
62,203	-10,176	269,660	127,230
63,217	-10,064	269,291	127,147
64,232	-10,256	269,141	126,889
65,247	-10,022	268,877	126,967
66,261	-10,090	268,617	126,771
67,276	-10,317	268,442	126,470
68,290	-10,435	268,048	126,166
69,305	-10,581	267,921	125,961
70,320	-10,361	267,728	126,060
71,334	-10,222	267,423	126,031
72,349	-10,309	267,424	125,941
73,363	-10,127	267,086	125,936
74,378	-10,271	267,042	125,774
75,393	-10,061	266,660	125,773
76,407	-10,148	266,353	125,538
77,422	-10,108	266,226	125,503
78,436	-10,147	266,217	125,453
79,451	-10,203	265,837	125,212
80,466	-10,333	265,553	124,950
81,480	-10,353	265,379	124,838
82,495	-10,162	265,138	124,886
83,509	-10,328	264,958	124,640
84,524	-10,364	264,869	124,555
85,539	-10,310	264,416	124,380
86,553	-10,416	264,214	124,179
87,568	-10,475	264,060	124,042
88,582	-10,321	263,897	124,092
89,597	-10,233	263,608	124,024
90,611	-10,347	263,524	123,872
91,626	-10,131	263,425	124,007
92,641	-10,274	263,386	123,850
93,655	-10,219	262,853	123,637
94,670	-10,114	262,662	123,630
95,684	-10,100	262,465	123,538
96,699	-10,220	262,381	123,381
97,714	-10,326	262,167	123,175
98,728	-10,476	262,021	122,962
99,743	-10,615	261,780	122,715
100,757	-10,646	261,364	122,482
101,772	-10,259	261,046	122,664
102,787	-10,244	261,075	122,680
103,801	-10,113	260,752	122,633
104,816	-10,253	260,705	122,477
105,830	-9,989	260,633	122,665
106,845	-10,085	260,403	122,461
107,860	-10,167	260,172	122,269
108,874	-10,344	260,016	122,028
109,889	-10,225	259,719	121,984
110,903	-10,267	259,468	121,818
111,918	-10,193	259,493	121,884
112,933	-10,356	259,160	121,573
113,947	-10,286	259,101	121,597
114,962	-10,149	258,731	121,532
115,976	-10,021	258,657	121,599
116,991	-10,191	258,494	121,363
118,006	-10,231	258,319	121,235
119,020	-10,286	258,173	121,107
120,035	-10,173	258,068	121,145
121,049	-10,269	257,876	120,961
122,064	-10,181	257,655	120,922
123,079	-10,091	257,429	120,885
124,093	-10,327	257,275	120,596
125,108	-10,441	256,927	120,323
126,122	-10,624	256,821	120,103
127,137	-10,662	256,375	119,851
128,151	-10,440	256,400	120,045
129,166	-10,314	256,182	120,041
130,181	-10,219	255,796	119,932
131,195	-10,266	255,643	119,809
132,210	-10,004	255,528	119,971
133,224	-10,089	255,428	119,839
134,239	-10,141	255,127	119,643
135,254	-10,208	255,072	119,548
136,268	-10,429	254,946	119,288
137,283	-10,377	254,450	119,090
138,297	-10,409	254,314	118,988
139,312	-10,507	254,043	118,767
140,327	-10,298	254,044	118,936
141,341	-10,085	253,998	119,087
142,356	-10,147	253,871	118,964
143,370	-10,108	253,585	118,853
144,385	-10,091	253,511	118,821
145,400	-9,877	253,236	118,866
146,414	-10,130	253,113	118,581
147,429	-10,133	253,032	118,530
148,443	-10,050	252,703	118,436
149,458	-10,020	252,614	118,410
150,473	-9,964	252,302	118,300
151,487	-9,954	252,044	118,177
152,502	-10,039	251,881	118,018
153,516	-9,991	251,724	117,974
154,531	-10,049	251,565	117,840
155,546	-9,844	251,434	117,943
156,560	-10,008	251,267	117,714
157,575	-10,129	250,904	117,431
158,589	-10,254	250,784	117,259
159,604	-10,095	250,800	117,391
160,619	-10,106	250,484	117,223
161,633	-9,944	250,232	117,231
162,648	-9,997	250,076	117,103
163,662	-10,143	250,128	116,994
164,677	-10,099	249,973	116,948
165,692	-10,043	249,795	116,902
166,706	-9,844	249,533	116,936
167,721	-10,006	249,077	116,576
168,735	-9,976	248,945	116,529
169,750	-10,062	249,116	116,526
170,764	-9,933	248,856	116,503
171,779	-10,054	248,853	116,389
172,794	-9,900	248,495	116,340
173,808	-10,040	248,386	116,162
174,823	-10,164	247,891	115,816
175,837	-10,383	247,847	115,602
176,852	-10,209	247,716	115,676
177,867	-9,943	247,699	115,880
178,881	-10,007	247,555	115,748
179,896	-9,969	247,437	115,715
180,910	-9,875	247,173	115,659
181,925	-9,867	246,895	115,526
182,940	-9,891	246,672	115,391
183,954	-9,981	246,606	115,275
184,969	-9,965	246,562	115,258
185,983	-10,051	246,465	115,131
186,998	-9,996	246,249	115,066
188,013	-9,753	246,023	115,151
189,027	-9,756	245,766	115,018
190,042	-10,022	245,619	114,718
191,056	-10,099	245,403	114,544
192,071	-10,038	245,349	114,559
193,086	-9,963	245,110	114,499
194,100	-9,908	245,012	114,489
195,115	-9,960	244,758	114,317
196,129	-9,939	244,602	114,251
197,144	-10,211	244,299	113,875
198,159	-9,900	244,146	114,049
199,173	-10,040	243,976	113,845
200,188	-10,030	243,844	113,782
201,202	-10,313	243,699	113,471
202,217	-10,610	243,408	113,083
203,232	-10,500	243,054	112,998
204,246	-10,055	243,161	113,402
205,261	-9,718	243,037	113,609
206,275	-10,463	242,785	112,873
207,290	-5,714	244,552	117,587
208,304	1,660	246,642	124,671
209,319	3,662	247,137	126,562
210,334	4,042	247,128	126,859
211,348	4,212	247,228	127,039
212,363	4,117	246,969	126,817
213,377	4,294	246,719	126,822
214,392	4,042	246,703	126,595
215,407	4,118	246,586	126,587
216,421	4,335	246,367	126,642
217,436	4,199	246,309	126,488
218,450	4,337	245,962	126,413
219,465	4,051	245,902	126,136
220,480	3,817	245,554	125,755
221,494	4,003	245,429	125,832
222,509	3,846	245,180	125,565
223,523	3,831	245,000	125,448
224,538	3,726	244,744	125,221
225,553	4,001	244,726	125,425
226,567	3,698	244,609	125,107
227,582	3,775	244,431	125,067
228,596	3,684	244,287	124,908
229,611	3,632	243,997	124,707
230,626	3,572	243,851	124,572
231,640	3,768	243,634	124,609
232,655	3,756	243,658	124,600
233,669	3,723	243,462	124,462
234,684	3,606	243,205	124,225
235,699	3,865	243,100	124,370
236,713	3,940	242,987	124,362
237,728	3,445	242,756	123,833
238,742	3,564	242,327	123,699
239,757	3,509	242,606	123,786
240,772	3,717	242,275	123,774
241,786	3,771	242,072	123,702
242,801	3,477	241,949	123,392
243,815	3,704	241,871	123,524
244,830	3,976	241,616	123,601
245,844	3,849	241,515	123,437
246,859	3,513	241,415	123,104
247,874	3,791	241,107	123,159
248,888	3,878	241,029	123,178
249,903	3,967	240,986	123,217
250,917	4,071	240,750	123,168
251,932	4,101	240,678	123,144
252,947	3,867	240,569	122,890
253,961	3,924	240,298	122,787
254,976	3,778	240,087	122,551
255,990	3,733	239,956	122,438
257,005	3,394	239,793	122,073
258,020	3,588	239,605	122,122
259,034	3,757	239,355	122,117
260,049	3,694	239,314	122,035
261,063	3,803	239,131	122,018
262,078	3,607	239,026	121,798
263,093	3,911	238,852	121,940
264,107	4,037	238,746	121,974
265,122	3,573	238,665	121,555
266,136	3,784	238,590	121,672
267,151	3,947	238,199	121,591
268,166	3,589	238,126	121,261
269,180	3,881	237,916	121,373
270,195	4,058	237,839	121,462
271,209	3,921	237,671	121,258
272,224	3,665	237,481	120,949
273,239	3,358	237,212	120,559
274,253	3,805	237,254	120,921
275,268	3,685	237,042	120,709
276,282	3,504	236,933	120,500
277,297	3,568	236,661	120,401
278,312	3,656	236,614	120,435
279,326	3,861	236,622	120,589
280,341	3,619	236,350	120,250
281,355	3,830	236,224	120,341
282,370	3,686	236,122	120,165
283,384	3,844	235,754	120,090
284,399	3,684	235,655	119,905
285,414	3,654	235,415	119,748
286,428	3,589	235,324	119,641
287,443	3,725	235,186	119,666
288,457	4,065	235,205	119,930
289,472	3,869	234,968	119,645
290,487	3,728	234,749	119,414
291,501	3,436	234,578	119,089
292,516	3,420	234,456	119,005
293,530	3,409	234,306	118,909
294,545	3,526	234,221	118,946
295,560	3,577	234,162	118,945
296,574	3,545	233,919	118,786
297,589	3,649	233,772	118,781
298,603	3,864	233,710	118,906
299,618	3,925	233,554	118,863
300,633	3,980	233,450	118,842
301,647	3,946	233,313	118,735
302,662	4,269	233,248	118,941
303,676	4,082	233,119	118,721
304,691	4,168	232,812	118,619
305,706	4,271	232,669	118,616
306,720	4,190	232,409	118,410
307,735	3,787	232,369	118,070
308,749	3,878	232,123	118,004
309,764	3,719	232,045	117,832
310,779	3,589	231,744	117,569
311,793	3,413	231,540	117,320
312,808	3,558	231,472	117,386
313,822	3,516	231,353	117,283
314,837	3,706	231,134	117,307
315,852	3,604	231,082	117,192
316,866	3,767	231,051	117,291
317,881	3,963	230,909	117,357
318,895	3,776	230,681	117,088
319,910	3,949	230,413	117,074
320,925	3,587	230,226	116,692
321,939	3,849	230,054	116,794
322,954	3,712	230,314	116,812
323,968	3,963	229,963	116,814
324,983	3,888	229,864	116,696
325,997	3,562	229,671	116,341
327,012	3,572	229,651	116,328
328,027	3,730	229,344	116,281
329,041	4,334	229,355	116,734
330,056	4,501	229,308	116,826
331,070	4,304	229,129	116,575
332,085	3,976	228,893	116,197
333,100	3,918	228,760	116,076
334,114	3,844	228,515	115,886
335,129	4,303	228,498	116,212
336,143	4,494	228,298	116,244
337,158	4,048	228,213	115,854
338,173	4,079	227,881	115,699
339,187	3,956	227,792	115,551
340,202	4,024	227,645	115,517
341,216	3,830	227,394	115,234
342,231	3,932	227,375	115,291
343,246	3,732	227,233	115,058
344,260	4,055	227,027	115,186
345,275	4,133	227,038	115,240
346,289	4,086	226,895	115,121
347,304	4,204	226,791	115,146
348,319	4,062	226,643	114,955
349,333	3,926	226,358	114,699
350,348	4,022	226,126	114,643
351,362	3,981	225,952	114,514
352,377	3,755	225,894	114,306
353,392	3,572	225,753	114,088
354,406	3,474	225,636	113,946
355,421	196,327	1321,560	1400,485
356,435	157,392	1455,067	1400,475
