DTS Sentinel unit serial number:	SN410029Multiplexer serial number:	ORYXHardware model number:	OX2-SRSoftware version number:	ORYX F/W v4,00 Oryx Data Collector v3.7.2.0data status	okinstallation	B5 Nyhavnadifferential loss correction	single-endedforward channel	channel 2reverse channel	N/Adate	2023/12/14time	03:47:13forward acquisition time	300,00reverse acquisition time	0,00gamma	499,1914k internal	0,3156k external	0,3156temperature offset calibration	1,0000default loss term (dB/km)	0,3820temperature slope calibration	1,0000multiplexer offset coefficient	1,0000multiplexer slope coefficient	1,0000fibre end	0,00T internal ref (°C)	8,10T ext. ref 1 (°C)	-8,32T ext. ref 2 (°C)	-8,40length (m)	temperature (°C)	Stokes	anti-Stokes-744,400	13,036	0,159	0,091
-743,385	-140,590	-0,239	-0,018
-742,371	-159,954	0,214	-0,008
-741,356	-118,544	-0,387	-0,050
-740,342	-34,295	0,094	-0,038
-739,327	-112,669	-0,407	-0,059
-738,312	800,000	0,018	0,055
-737,298	-74,351	-0,358	-0,095
-736,283	-23,335	0,101	0,045
-735,269	3,050	-0,327	-0,175
-734,254	-200,000	0,058	0,263
-733,239	1,350	-0,513	-0,271
-732,225	-76,030	0,306	0,079
-731,210	-200,000	0,007	-0,053
-730,196	116,052	0,053	-0,048
-729,181	96,627	-0,083	0,070
-728,167	306,967	0,009	-0,013
-727,152	-133,865	-0,123	0,011
-726,137	10,841	-0,153	-0,086
-725,123	-85,334	-0,042	-0,010
-724,108	111,367	-0,127	-0,113
-723,094	-200,000	-0,014	-0,083
-722,079	189,332	0,099	-0,110
-721,064	10,141	-0,032	-0,018
-720,050	800,000	-0,049	0,102
-719,035	-72,408	0,023	-0,006
-718,021	97,665	0,043	0,037
-717,006	298,832	0,078	-0,106
-715,991	233,202	-0,029	0,035
-714,977	49,071	-0,061	-0,042
-713,962	662,518	-0,037	-0,070
-712,948	287,282	-0,134	-0,179
-711,933	800,000	-0,047	0,128
-710,918	-200,000	-0,011	-0,108
-709,904	27,796	0,157	-0,097
-708,889	-139,247	-0,112	-0,009
-707,875	-135,579	0,112	-0,010
-706,860	300,798	0,018	-0,025
-705,845	0,709	0,096	0,050
-704,831	800,000	0,043	-0,092
-703,816	-145,076	-0,167	-0,011
-702,802	501,225	-0,074	0,126
-701,787	-23,528	-0,125	0,055
-700,772	191,768	0,085	0,094
-699,758	-200,000	0,023	-0,123
-698,743	-39,567	0,255	-0,098
-697,729	-200,000	0,010	0,129
-696,714	42,920	0,076	0,051
-695,699	-200,000	-0,004	0,037
-694,685	-200,000	-0,006	-0,095
-693,670	800,000	-0,043	-0,124
-692,656	800,000	0,016	-0,042
-691,641	1,188	-0,154	0,081
-690,627	-200,000	0,023	0,084
-689,612	-134,515	0,165	0,015
-688,597	-119,549	-0,121	-0,015
-687,583	-106,425	0,121	-0,020
-686,568	-80,077	-0,190	-0,047
-685,554	-200,000	-0,009	-0,118
-684,539	372,122	-0,062	0,093
-683,524	392,707	0,024	0,037
-682,510	-18,236	0,097	0,044
-681,495	-34,125	0,115	-0,046
-680,481	-141,793	-0,137	0,010
-679,466	203,775	0,139	-0,159
-678,451	306,093	0,015	0,021
-677,437	116,216	-0,100	-0,090
-676,422	506,073	-0,022	0,038
-675,408	140,027	-0,042	-0,041
-674,393	800,000	-0,041	-0,119
-673,378	-66,576	-0,099	0,029
-672,364	800,000	0,054	-0,162
-671,349	800,000	0,029	-0,082
-670,335	-84,051	0,072	-0,017
-669,320	107,907	-0,092	-0,081
-668,305	249,431	0,043	0,054
-667,291	85,348	0,034	-0,027
-666,276	800,000	0,031	-0,078
-665,262	122,199	-0,081	0,074
-664,247	292,339	-0,060	0,080
-663,232	-140,315	0,065	0,005
-662,218	800,000	0,019	-0,059
-661,203	-200,000	0,006	-0,047
-660,189	-25,812	-0,126	-0,055
-659,174	800,000	-0,031	-0,100
-658,159	-62,104	0,050	-0,015
-657,145	78,791	-0,062	-0,049
-656,130	-200,000	-0,006	-0,021
-655,116	-115,496	0,157	0,021
-654,101	-71,263	0,168	-0,046
-653,086	5,109	-0,038	0,020
-652,072	212,757	-0,049	-0,056
-651,057	-200,000	-0,001	0,044
-650,043	-18,756	-0,043	0,019
-649,028	-200,000	0,011	-0,079
-648,014	275,461	0,073	-0,095
-646,999	97,236	0,048	-0,041
-645,984	800,000	-0,085	0,188
-644,970	800,000	-0,015	-0,036
-643,955	185,464	-0,068	0,074
-642,941	71,320	-0,048	0,036
-641,926	-200,000	-0,017	-0,054
-640,911	85,085	-0,052	-0,042
-639,897	46,834	0,111	-0,075
-638,882	-200,000	0,018	-0,084
-637,868	-200,000	0,003	0,020
-636,853	119,994	-0,085	0,078
-635,838	19,698	0,041	0,024
-634,824	-200,000	-0,014	0,154
-633,809	698,804	0,044	0,086
-632,795	-200,000	0,023	0,100
-631,780	-200,000	-0,019	-0,086
-630,765	-79,753	-0,038	-0,009
-629,751	472,719	-0,030	0,050
-628,736	-39,112	-0,124	-0,048
-627,722	409,071	-0,051	-0,079
-626,707	800,000	0,029	0,075
-625,692	276,130	0,073	0,095
-624,678	-200,000	-0,016	0,098
-623,663	216,985	-0,029	-0,034
-622,649	678,777	0,027	-0,051
-621,634	146,728	0,059	-0,058
-620,619	-200,000	0,019	-0,103
-619,605	-200,000	-0,017	-0,079
-618,590	100,833	-0,060	0,051
-617,576	-24,408	0,029	-0,013
-616,561	800,000	-0,019	0,046
-615,546	-200,000	0,010	-0,078
-614,532	501,694	0,051	-0,086
-613,517	239,054	0,053	0,064
-612,503	641,974	-0,047	0,088
-611,488	85,213	0,037	0,030
-610,474	800,000	0,087	0,251
-609,459	-150,656	-0,082	-0,005
-608,444	-94,169	-0,086	0,017
-607,430	-200,000	0,005	-0,057
-606,415	363,714	-0,039	0,058
-605,401	800,000	-0,046	0,121
-604,386	-200,000	0,010	0,131
-603,371	800,000	0,048	0,117
-602,357	800,000	0,030	0,068
-601,342	-89,939	0,074	-0,016
-600,328	232,118	-0,073	0,089
-599,313	791,165	-0,028	0,058
-598,298	-14,714	0,093	0,044
-597,284	356,971	0,027	-0,040
-596,269	138,071	0,140	0,135
-595,255	-1,006	-0,095	0,049
-594,240	-200,000	0,012	-0,054
-593,225	-109,845	-0,072	0,011
-592,211	166,717	0,038	0,040
-591,196	148,432	0,105	-0,104
-590,182	800,000	0,017	-0,052
-589,167	-40,659	0,108	0,041
-588,152	629,760	0,095	-0,177
-587,138	698,294	-0,065	-0,127
-586,123	5,657	-0,071	-0,038
-585,109	95,392	0,098	-0,082
-584,094	48,751	-0,066	-0,045
-583,079	229,590	-0,090	0,107
-582,065	312,359	-0,104	0,144
-581,050	65,646	0,116	0,086
-580,036	-99,162	0,048	-0,009
-579,021	194,770	0,056	-0,063
-578,006	-123,496	-0,118	-0,014
-576,992	301,675	-0,061	-0,083
-575,977	43,316	0,087	0,058
-574,963	-15,655	-0,017	-0,008
-573,948	1,339	-0,093	-0,049
-572,934	176,205	0,057	0,061
-571,919	441,430	-0,043	-0,069
-570,904	-40,922	-0,032	-0,012
-569,890	-200,000	-0,024	-0,120
-568,875	800,000	-0,043	-0,093
-567,861	13,499	0,080	-0,045
-566,846	-113,639	-0,041	-0,006
-565,831	-200,000	0,042	0,153
-564,817	-200,000	-0,171	-0,001
-563,802	67,698	0,033	0,024
-562,788	-200,000	-0,019	-0,136
-561,773	-85,278	-0,066	0,015
-560,758	-23,801	0,074	0,032
-559,744	-64,520	0,064	0,019
-558,729	259,488	-0,048	-0,060
-557,715	596,053	-0,024	-0,043
-556,700	-158,060	-0,035	-0,001
-555,685	800,000	0,021	0,059
-554,671	-200,000	0,019	0,115
-553,656	-88,584	0,110	-0,024
-552,642	-83,707	-0,002	0,000
-551,627	800,000	0,026	-0,076
-550,612	315,532	0,092	-0,127
-549,598	246,892	-0,072	-0,089
-548,583	800,000	-0,011	0,024
-547,569	-153,559	0,081	-0,004
-546,554	-187,084	-0,064	-0,001
-545,539	-78,452	0,069	-0,017
-544,525	-200,000	-0,006	-0,112
-543,510	-200,000	-0,026	0,143
-542,496	51,895	0,024	-0,017
-541,481	82,602	-0,066	-0,052
-540,466	440,370	-0,096	-0,153
-539,452	338,450	-0,052	-0,074
-538,437	-146,895	0,081	0,005
-537,423	177,489	0,068	0,073
-536,408	343,264	0,006	-0,009
-535,393	396,308	-0,015	0,023
-534,379	-200,000	-0,019	-0,097
-533,364	3,460	-0,120	-0,064
-532,350	439,782	0,093	0,149
-531,335	-200,000	0,006	0,068
-530,321	800,000	-0,020	-0,048
-529,306	-200,000	0,006	-0,021
-528,291	800,000	0,048	-0,133
-527,277	-200,000	-0,030	-0,113
-526,262	-64,327	-0,026	0,008
-525,248	-154,985	0,066	0,003
-524,233	-200,000	0,006	-0,028
-523,218	-101,258	-0,060	0,011
-522,204	446,361	-0,062	-0,101
-521,189	543,069	-0,070	-0,123
-520,175	749,910	-0,072	0,144
-519,160	-81,941	0,062	0,015
-518,145	-200,000	-0,017	-0,060
-517,131	-92,707	0,045	0,009
-516,116	213,717	-0,013	-0,016
-515,102	800,000	0,018	0,048
-514,087	245,244	0,046	0,056
-513,072	13,792	-0,091	-0,051
-512,058	-48,273	0,165	0,058
-511,043	800,000	0,010	0,032
-510,029	-200,000	-0,021	0,079
-509,014	43,041	-0,077	0,051
-507,999	-9,884	-0,055	0,027
-506,985	-200,000	-0,014	-0,192
-505,970	-12,377	0,067	-0,032
-504,956	459,822	0,049	-0,080
-503,941	-35,557	-0,030	0,012
-502,926	153,360	0,057	0,057
-501,912	-79,630	-0,051	0,013
-500,897	-200,000	-0,020	-0,132
-499,883	800,000	0,024	-0,053
-498,868	-200,000	-0,001	-0,101
-497,853	-15,865	-0,100	0,046
-496,839	-200,000	0,017	0,086
-495,824	256,069	-0,085	-0,106
-494,810	-131,621	0,181	0,017
-493,795	590,363	0,061	0,110
-492,781	279,310	-0,078	0,102
-491,766	307,019	0,053	0,073
-490,751	-200,000	-0,020	-0,149
-489,737	247,423	0,094	-0,116
-488,722	14,100	0,084	0,047
-487,708	-108,221	0,070	-0,011
-486,693	348,141	0,041	0,060
-485,678	-72,205	0,081	-0,022
-484,664	202,951	-0,084	-0,095
-483,649	-8,881	-0,038	0,018
-482,635	-200,000	-0,012	-0,104
-481,620	-200,000	0,008	-0,080
-480,605	771,528	-0,086	0,172
-479,591	-200,000	0,028	0,099
-478,576	-200,000	0,020	0,090
-477,562	11,773	-0,177	0,099
-476,547	-39,414	0,127	-0,048
-475,532	-124,217	-0,183	0,021
-474,518	-200,000	0,028	-0,177
-473,503	-47,715	0,067	0,024
-472,489	800,000	-0,061	0,181
-471,474	221,509	0,056	0,066
-470,459	800,000	-0,020	-0,050
-469,445	72,243	-0,054	-0,041
-468,430	-200,000	0,005	0,062
-467,416	-200,000	0,033	0,121
-466,401	800,000	0,025	0,073
-465,386	39,763	0,090	0,059
-464,372	800,000	-0,039	0,123
-463,357	800,000	-0,047	0,119
-462,343	-200,000	-0,036	0,118
-461,328	-121,617	0,082	-0,010
-460,313	-200,000	-0,067	0,336
-459,299	-200,000	0,054	0,212
-458,284	18,194	0,060	-0,035
-457,270	17,833	0,091	-0,053
-456,255	720,357	-0,027	0,053
-455,241	-86,874	-0,106	-0,023
-454,226	-200,000	-0,025	-0,082
-453,211	-15,306	0,186	0,087
-452,197	-200,000	-0,004	-0,014
-451,182	789,168	-0,033	0,067
-450,168	-84,636	-0,071	0,016
-449,153	800,000	0,028	-0,076
-448,138	7,719	0,051	0,028
-447,124	-200,000	-0,026	-0,147
-446,109	-200,000	0,002	0,083
-445,095	315,281	-0,027	-0,037
-444,080	-73,694	-0,038	0,010
-443,065	85,530	-0,024	0,019
-442,051	567,112	-0,061	-0,109
-441,036	21,503	-0,089	-0,053
-440,022	-200,000	0,023	-0,094
-439,007	309,031	-0,081	0,111
-437,992	-130,748	-0,106	0,010
-436,978	158,272	-0,088	-0,089
-435,963	-200,000	0,007	0,059
-434,949	284,058	-0,009	0,012
-433,934	-28,907	-0,031	0,013
-432,919	-85,097	-0,138	-0,031
-431,905	-200,000	-0,004	-0,053
-430,890	800,000	-0,025	0,079
-429,876	-200,000	-0,009	-0,039
-428,861	289,733	-0,009	0,012
-427,846	-14,809	-0,105	0,049
-426,832	122,558	0,089	-0,081
-425,817	-149,212	0,073	0,004
-424,803	187,671	-0,038	-0,042
-423,788	-88,908	0,046	0,010
-422,773	-156,916	0,027	-0,001
-421,759	-200,000	-0,007	0,094
-420,744	-200,000	0,014	0,100
-419,730	-123,221	0,120	-0,014
-418,715	301,076	-0,058	-0,078
-417,701	800,000	-0,039	-0,083
-416,686	207,564	-0,040	-0,046
-415,671	-49,768	-0,041	-0,014
-414,657	-66,350	-0,009	0,003
-413,642	-76,928	0,117	-0,030
-412,628	-200,000	-0,002	0,020
-411,613	-13,466	-0,153	-0,072
-410,598	142,411	-0,085	0,082
-409,584	-200,000	-0,012	0,048
-408,569	326,012	0,074	0,103
-407,555	800,000	0,013	0,039
-406,540	-127,514	-0,181	-0,019
-405,525	-108,684	-0,125	-0,019
-404,511	-200,000	-0,027	-0,123
-403,496	-37,381	0,057	-0,022
-402,482	-144,710	0,035	0,002
-401,467	800,000	-0,028	0,066
-400,452	-22,267	-0,106	0,046
-399,438	150,275	0,083	-0,082
-398,423	-200,000	-0,010	-0,159
-397,409	-118,404	0,053	0,007
-396,394	84,338	0,076	0,061
-395,379	-84,925	-0,116	-0,026
-394,365	203,857	0,073	-0,083
-393,350	321,777	-0,062	-0,086
-392,336	-200,000	0,014	0,166
-391,321	150,292	-0,086	-0,085
-390,306	303,212	0,102	-0,138
-389,292	796,392	-0,024	0,048
-388,277	800,000	0,033	-0,082
-387,263	375,913	-0,045	-0,067
-386,248	800,000	-0,050	0,114
-385,233	-200,000	0,043	0,156
-384,219	559,519	0,025	0,044
-383,204	92,988	-0,026	-0,021
-382,190	165,699	-0,097	-0,100
-381,175	99,684	0,073	-0,061
-380,160	-200,000	0,026	0,148
-379,146	687,671	-0,055	0,105
-378,131	200,240	-0,090	0,101
-377,117	341,896	-0,054	-0,078
-376,102	-200,000	0,002	0,026
-375,088	-12,088	-0,042	-0,020
-374,073	-81,150	0,083	-0,020
-373,058	-180,514	0,113	-0,002
-372,044	82,504	0,024	-0,019
-371,029	800,000	0,029	0,080
-370,015	199,902	-0,049	-0,055
-369,000	166,607	0,062	-0,064
-367,985	610,841	-0,018	0,033
-366,971	-200,000	-0,038	-0,152
-365,956	-200,000	0,002	0,060
-364,942	-200,000	0,000	0,098
-363,927	800,000	-0,043	0,096
-362,912	57,391	-0,060	0,043
-361,898	78,459	-0,131	0,102
-360,883	-26,326	0,080	0,034
-359,869	-30,834	0,045	-0,018
-358,854	800,000	0,039	-0,095
-357,839	274,246	0,051	0,066
-356,825	91,390	0,018	-0,014
-355,810	-17,323	0,105	0,048
-354,796	-122,073	-0,068	-0,008
-353,781	-119,800	-0,167	-0,021
-352,766	97,688	0,023	-0,020
-351,752	-38,790	0,060	0,023
-350,737	-53,847	0,045	0,015
-349,723	86,267	0,073	0,058
-348,708	179,296	-0,032	0,034
-347,693	509,682	-0,024	-0,040
-346,679	210,455	-0,026	-0,030
-345,664	-184,787	0,107	0,001
-344,650	58,194	0,013	-0,009
-343,635	-19,926	-0,070	0,031
-342,620	-14,324	0,030	-0,014
-341,606	-200,000	-0,017	0,063
-340,591	-20,850	0,087	0,039
-339,577	-200,000	-0,005	0,022
-338,562	372,007	0,058	-0,086
-337,548	-142,411	-0,092	0,007
-336,533	95,310	-0,028	-0,023
-335,518	800,000	-0,017	0,038
-334,504	48,469	-0,090	-0,061
-333,489	347,670	0,053	-0,076
-332,475	10,639	-0,092	-0,051
-331,460	-200,000	0,003	-0,022
-330,445	800,000	0,042	-0,091
-329,431	-135,550	-0,071	0,006
-328,416	214,195	0,055	0,063
-327,402	-99,261	0,043	0,008
-326,387	237,612	0,073	-0,088
-325,372	-122,631	-0,077	-0,009
-324,358	-200,000	0,000	-0,130
-323,343	103,264	-0,076	-0,065
-322,329	44,425	0,133	0,089
-321,314	-200,000	-0,004	0,021
-320,299	235,520	0,047	-0,057
-319,285	332,320	-0,027	-0,038
-318,270	233,521	0,056	-0,067
-317,256	-200,000	-0,010	-0,078
-316,241	69,780	0,013	-0,010
-315,226	144,520	-0,054	-0,052
-314,212	800,000	-0,020	-0,054
-313,197	-200,000	0,025	0,104
-312,183	-123,947	0,042	0,005
-311,168	-56,903	-0,151	-0,048
-310,153	-107,954	-0,099	-0,015
-309,139	439,649	0,069	-0,109
-308,124	-169,868	0,113	0,003
-307,110	-200,000	0,001	-0,081
-306,095	178,809	0,020	-0,021
-305,080	-121,073	-0,081	-0,010
-304,066	489,087	-0,098	-0,163
-303,051	121,277	-0,056	-0,051
-302,037	147,193	-0,086	0,084
-301,022	89,657	-0,051	0,041
-300,008	232,938	-0,028	-0,033
-298,993	178,211	0,061	0,065
-297,978	-52,938	0,134	0,044
-296,964	-200,000	-0,041	0,158
-295,949	-200,000	-0,015	0,146
-294,935	800,000	-0,017	-0,040
-293,920	-73,410	-0,117	0,031
-292,905	534,909	0,089	0,153
-291,891	112,423	-0,105	0,092
-290,876	-124,180	-0,044	0,005
-289,862	409,907	0,015	-0,022
-288,847	63,749	-0,084	0,061
-287,832	483,605	-0,040	0,066
-286,818	-200,000	-0,004	0,098
-285,803	-200,000	0,001	0,070
-284,789	138,002	0,010	0,009
-283,774	480,385	-0,078	0,128
-282,759	93,864	-0,040	0,033
-281,745	-200,000	0,006	-0,045
-280,730	-30,358	0,029	-0,012
-279,716	-200,000	0,008	0,042
-278,701	154,923	0,091	-0,091
-277,686	609,803	-0,025	-0,045
-276,672	-64,369	0,075	0,022
-275,657	800,000	-0,045	0,093
-274,643	501,948	-0,047	-0,079
-273,628	169,821	0,027	-0,028
-272,613	198,431	-0,099	-0,110
-271,599	-200,000	-0,008	0,033
-270,584	-200,000	0,002	-0,019
-269,570	800,000	0,028	-0,070
-268,555	-3,186	-0,056	0,028
-267,540	161,280	0,037	0,037
-266,526	-200,000	-0,015	-0,051
-265,511	-146,656	-0,127	0,008
-264,497	9,627	0,023	0,012
-263,482	-200,000	-0,022	0,220
-262,467	13,914	0,056	0,031
-261,453	-82,532	0,104	-0,024
-260,438	800,000	-0,024	-0,064
-259,424	-95,062	-0,132	-0,026
-258,409	519,059	0,103	-0,175
-257,395	17,818	0,049	-0,028
-256,380	-106,317	0,092	0,015
-255,365	-185,833	0,120	0,001
-254,351	800,000	0,037	0,077
-253,336	222,866	0,041	0,048
-252,322	-131,733	0,093	-0,009
-251,307	34,882	-0,076	-0,048
-250,292	-80,206	-0,089	-0,021
-249,278	403,945	0,052	-0,079
-248,263	307,870	-0,094	-0,127
-247,249	-200,000	-0,033	0,116
-246,234	800,000	0,020	0,050
-245,219	-72,650	0,066	0,018
-244,205	-200,000	0,009	-0,036
-243,190	-72,370	0,085	0,023
-242,176	-28,788	-0,088	-0,037
-241,161	-200,000	0,030	-0,114
-240,146	19,132	0,059	-0,034
-239,132	-200,000	0,107	-0,000
-238,117	297,639	-0,085	0,114
-237,103	-200,000	0,001	-0,021
-236,088	-138,116	0,075	-0,006
-235,073	-141,342	0,055	0,004
-234,059	-131,144	0,090	-0,009
-233,044	-200,000	-0,011	-0,090
-232,030	613,610	-0,030	0,055
-231,015	-2,378	-0,038	0,019
-230,000	-200,000	-0,020	0,117
-228,986	-20,862	0,069	-0,030
-227,971	-110,672	-0,023	0,003
-226,957	-91,576	0,099	0,020
-225,942	443,292	0,042	-0,067
-224,927	-32,961	0,033	0,013
-223,913	63,905	-0,067	-0,049
-222,898	270,602	0,038	0,048
-221,884	-200,000	-0,029	-0,101
-220,869	98,842	0,159	-0,132
-219,855	-84,489	0,033	0,007
-218,840	-200,000	0,018	0,066
-217,825	-25,654	-0,091	0,039
-216,811	-200,000	-0,011	-0,141
-215,796	128,677	-0,083	-0,076
-214,782	-89,502	-0,061	0,013
-213,767	-196,291	0,130	-0,001
-212,752	800,000	-0,040	0,098
-211,738	-127,756	0,107	0,011
-210,723	800,000	-0,021	-0,053
-209,709	350,985	-0,060	-0,086
-208,694	-42,488	-0,168	-0,062
-207,679	-200,000	0,015	-0,121
-206,665	12,484	0,118	0,066
-205,650	15,020	-0,151	0,085
-204,636	210,921	0,049	-0,056
-203,621	-200,000	0,038	-0,165
-202,606	800,000	0,006	0,018
-201,592	-99,960	0,048	-0,009
-200,577	-200,000	0,022	-0,101
-199,563	78,155	0,035	0,027
-198,548	120,771	0,044	0,039
-197,533	-99,644	0,047	0,008
-196,519	21,262	0,144	0,084
-195,504	-200,000	0,005	-0,052
-194,490	680,685	-0,033	-0,063
-193,475	375,127	0,044	-0,065
-192,460	19,234	-0,107	0,062
-191,446	-174,737	0,169	0,003
-190,431	-67,511	0,019	0,005
-189,417	-11,592	0,066	-0,031
-188,402	-86,388	0,118	0,026
-187,387	434,602	-0,032	-0,051
-186,373	606,464	-0,074	-0,134
-185,358	-191,763	0,082	0,001
-184,344	158,962	-0,016	-0,016
-183,329	175,963	0,023	0,024
-182,315	136,326	-0,064	-0,060
-181,300	-200,000	0,000	0,027
-180,285	194,254	-0,071	-0,078
-179,271	-200,000	-0,027	-0,126
-178,256	800,000	0,010	-0,032
-177,242	89,058	0,045	0,036
-176,227	-200,000	0,019	-0,108
-175,212	252,621	0,028	0,035
-174,198	-142,160	0,053	0,004
-173,183	-200,000	0,021	-0,129
-172,169	800,000	-0,022	-0,063
-171,154	-63,642	0,088	0,026
-170,139	-18,096	0,051	-0,023
-169,125	800,000	0,056	0,155
-168,110	-114,378	-0,123	-0,017
-167,096	800,000	0,042	0,111
-166,081	230,619	-0,021	0,024
-165,066	35,351	0,069	-0,044
-164,052	-110,368	0,071	-0,011
-163,037	463,390	0,089	0,143
-162,023	644,249	-0,063	0,116
-161,008	89,316	-0,043	-0,035
-159,993	-115,392	0,166	-0,022
-158,979	64,319	-0,075	0,054
-157,964	-89,372	-0,086	0,018
-156,950	335,753	0,077	0,108
-155,935	-70,719	-0,084	-0,023
-154,920	308,057	-0,014	-0,018
-153,906	800,000	0,033	0,086
-152,891	85,600	0,028	0,022
-151,877	554,061	0,043	-0,075
-150,862	-125,267	-0,095	-0,010
-149,847	-58,291	-0,031	0,010
-148,833	800,000	-0,011	-0,033
-147,818	800,000	0,027	-0,071
-146,804	-200,000	-0,027	0,098
-145,789	-92,153	0,078	-0,016
-144,775	79,787	-0,057	0,044
-143,760	-57,837	-0,034	-0,011
-142,745	-200,000	-0,008	-0,033
-141,731	-200,000	0,001	-0,005
-140,716	136,372	0,030	0,028
-139,702	-9,631	0,120	0,057
-138,687	-148,374	0,043	0,003
-137,672	18,903	-0,072	0,041
-136,658	328,074	0,082	0,113
-135,643	545,021	0,094	-0,162
-134,629	800,000	0,087	-0,216
-133,614	800,000	-0,048	-0,112
-132,599	-200,000	-0,008	0,112
-131,585	-137,728	0,032	0,003
-130,570	-187,573	-0,176	0,002
-129,556	-129,600	-0,106	-0,010
-128,541	-53,347	-0,137	-0,045
-127,526	-200,000	0,007	-0,034
-126,512	622,796	-0,006	-0,012
-125,497	587,738	0,022	-0,039
-124,483	-63,013	-0,093	-0,028
-123,468	-200,000	-0,010	0,235
-122,453	800,000	0,036	-0,094
-121,439	34,378	0,113	0,071
-120,424	-73,558	-0,020	-0,005
-119,410	6,751	-0,066	0,035
-118,395	200,256	-0,091	0,100
-117,380	-127,354	0,085	-0,009
-116,366	-48,535	-0,116	0,040
-115,351	-109,782	-0,100	0,015
-114,337	-43,528	0,038	0,014
-113,322	-200,000	-0,021	-0,095
-112,307	461,354	-0,030	-0,049
-111,293	-26,756	0,105	-0,044
-110,278	42,278	-0,136	0,089
-109,264	-200,000	0,006	-0,032
-108,249	-101,290	0,112	0,019
-107,234	-200,000	0,027	0,000
-106,220	-200,000	0,004	-0,020
-105,205	-100,008	0,212	-0,038
-104,191	-200,000	-0,015	0,061
-103,176	108,013	-0,237	0,203
-102,162	800,000	0,025	-0,051
-101,147	-68,257	-0,085	-0,024
-100,132	800,000	0,057	-0,137
-99,118	48,279	-0,024	0,016
-98,103	-200,000	0,005	0,095
-97,089	-200,000	-0,013	0,085
-96,074	-200,000	0,011	0,105
-95,059	-150,975	0,115	0,006
-94,045	352,712	-0,133	0,190
-93,030	800,000	0,044	-0,096
-92,016	-152,556	0,111	-0,006
-91,001	800,000	0,017	-0,045
-89,986	-58,336	-0,143	0,044
-88,972	325,880	-0,023	0,032
-87,957	-200,000	0,006	0,057
-86,943	-200,000	0,021	-0,112
-85,928	414,932	0,040	0,061
-84,913	-9,182	-0,104	0,050
-83,899	-10,663	0,122	-0,058
-82,884	725,866	0,091	0,175
-81,870	98,138	-0,030	-0,025
-80,855	800,000	0,025	-0,054
-79,840	800,000	-0,018	0,035
-78,826	378,163	-0,070	0,103
-77,811	-200,000	0,007	-0,037
-76,797	165,361	0,076	0,077
-75,782	-136,996	0,107	0,009
-74,767	558,827	-0,017	0,030
-73,753	207,110	0,174	-0,196
-72,738	74,085	-0,074	0,056
-71,724	-200,000	-0,008	0,176
-70,709	-98,553	-0,040	0,007
-69,694	-88,663	-0,114	-0,024
-68,680	800,000	0,019	-0,055
-67,665	800,000	0,066	0,175
-66,651	173,277	-0,078	-0,081
-65,636	-200,000	-0,001	0,033
-64,622	-200,000	0,002	0,122
-63,607	353,383	0,006	0,009
-62,592	181,204	0,014	0,015
-61,578	-152,252	-0,198	-0,010
-60,563	-200,000	-0,005	0,112
-59,549	623,390	-0,099	0,179
-58,534	81,706	-2,690	-2,089
-57,519	61,751	0,358	-0,256
-56,505	-200,000	-1,582	-5,480
-55,490	485,504	1,159	1,903
-54,476	800,000	5,256	11,181
-53,461	-200,000	22,215	347,240
-52,446	800,000	758,932	2298,640
-51,432	516,075	1644,643	2769,466
-50,417	97,926	1608,468	1327,937
-49,403	65,517	1265,946	918,870
-48,388	23,232	1017,537	598,470
-47,373	19,467	984,833	566,794
-46,359	13,056	971,856	538,333
-45,344	8,770	968,580	522,461
-44,330	9,172	966,622	522,700
-43,315	8,225	964,795	518,594
-42,300	8,212	963,391	517,777
-41,286	8,187	962,544	517,219
-40,271	8,138	961,711	516,591
-39,257	8,127	960,739	516,014
-38,242	8,089	960,070	515,511
-37,227	8,106	959,107	515,029
-36,213	8,099	958,371	514,588
-35,198	8,147	957,349	514,175
-34,184	8,142	956,703	513,791
-33,169	8,112	955,886	513,235
-32,154	8,241	954,650	512,968
-31,140	8,191	953,930	512,402
-30,125	8,220	953,079	512,015
-29,111	8,142	952,293	511,321
-28,096	8,163	951,750	511,078
-27,082	8,110	951,002	510,485
-26,067	8,116	950,305	510,110
-25,052	8,100	949,547	509,633
-24,038	8,131	948,667	509,240
-23,023	8,078	948,211	508,805
-22,009	8,136	947,583	508,632
-20,994	8,136	947,026	508,315
-19,979	8,164	946,313	508,000
-18,965	8,115	945,670	507,478
-17,950	8,122	945,089	507,168
-16,936	8,082	944,376	506,638
-15,921	8,123	943,632	506,349
-14,906	7,985	943,087	505,596
-13,892	8,061	942,353	505,424
-12,877	8,049	941,623	504,977
-11,863	8,041	941,073	504,634
-10,848	8,031	940,433	504,241
-9,833	8,042	940,114	504,083
-8,819	8,079	939,436	503,818
-7,804	8,025	938,734	503,249
-6,790	7,992	938,193	502,835
-5,775	8,050	937,887	502,836
-4,760	8,047	937,092	502,381
-3,746	8,119	936,252	502,137
-2,731	7,895	935,770	501,149
-1,717	7,910	935,182	500,863
-0,702	7,924	934,440	500,488
0,313	7,732	933,734	500,260
1,327	11,172	931,327	509,769
2,342	19,840	779,711	449,497
3,356	14,931	447,391	250,513
4,371	-11,664	311,897	146,412
5,386	-15,554	294,490	134,300
6,400	-17,678	288,396	129,408
7,415	-17,742	285,852	128,191
8,429	-18,275	283,887	126,780
9,444	-18,343	283,165	126,381
10,459	-18,298	282,524	126,127
11,473	-18,286	281,915	125,855
12,488	-18,184	281,402	125,713
13,502	-18,345	281,212	125,462
14,517	-17,928	280,465	125,519
15,531	-18,119	280,134	125,176
16,546	-17,980	279,736	125,120
17,561	-18,127	279,266	124,758
18,575	-17,966	279,242	124,890
19,590	-17,970	278,662	124,615
20,604	-17,788	278,452	124,685
21,619	-17,915	278,129	124,408
22,634	-17,860	277,733	124,271
23,648	-17,859	277,358	124,094
24,663	-17,940	277,126	123,902
25,677	-17,833	276,903	123,893
26,692	-17,999	276,765	123,662
27,707	-17,922	276,249	123,494
28,721	-17,818	276,014	123,477
29,736	-17,845	275,649	123,277
30,750	-17,839	275,391	123,156
31,765	-17,862	275,226	123,049
32,780	-17,975	275,046	122,852
33,794	-17,907	274,803	122,796
34,809	-17,811	274,475	122,728
35,823	-17,814	274,246	122,613
36,838	-17,838	273,993	122,466
37,853	-17,952	273,520	122,137
38,867	-17,953	273,610	122,165
39,882	-17,894	273,187	122,020
40,896	-18,011	273,128	121,874
41,911	-17,839	272,812	121,883
42,926	-17,765	272,525	121,813
43,940	-17,805	272,161	121,602
44,955	-17,753	272,025	121,579
45,969	-17,871	271,868	121,388
46,984	-17,827	271,710	121,348
47,999	-17,619	271,478	121,426
49,013	-17,714	271,336	121,264
50,028	-17,690	271,084	121,162
51,042	-17,505	270,755	121,176
52,057	-17,610	270,560	120,980
53,071	-17,579	270,329	120,895
54,086	-17,659	270,183	120,745
55,101	-17,787	269,921	120,499
56,115	-17,645	269,602	120,477
57,130	-17,698	269,217	120,245
58,144	-17,826	269,080	120,056
59,159	-17,809	268,738	119,908
60,174	-18,052	268,660	119,640
61,188	-17,937	268,585	119,701
62,203	-17,791	268,103	119,609
63,217	-17,639	267,890	119,643
64,232	-17,745	267,845	119,515
65,247	-17,993	267,533	119,138
66,261	-18,039	267,093	118,890
67,276	-17,874	267,159	119,059
68,290	-17,718	266,838	119,048
69,305	-17,866	266,714	118,847
70,320	-17,709	266,391	118,835
71,334	-17,505	266,032	118,850
72,349	-17,842	265,902	118,475
73,363	-17,774	265,743	118,456
74,378	-17,819	265,302	118,207
75,393	-17,929	265,235	118,068
76,407	-17,860	265,057	118,040
77,422	-17,892	264,870	117,918
78,436	-17,877	264,570	117,787
79,451	-17,971	264,288	117,566
80,466	-17,831	264,044	117,574
81,480	-17,832	263,796	117,451
82,495	-17,747	263,696	117,473
83,509	-17,846	263,504	117,288
84,524	-17,832	263,246	117,175
85,539	-17,672	263,056	117,224
86,553	-17,745	262,940	117,096
87,568	-17,884	262,726	116,866
88,582	-17,875	262,405	116,720
89,597	-17,879	262,171	116,603
90,611	-17,942	261,952	116,439
91,626	-17,606	261,931	116,719
92,641	-17,742	261,667	116,470
93,655	-17,708	261,397	116,369
94,670	-17,929	261,266	116,104
95,684	-17,740	260,965	116,128
96,699	-17,817	260,702	115,932
97,714	-17,647	260,445	115,958
98,728	-17,839	260,546	115,823
99,743	-17,867	260,298	115,677
100,757	-17,794	260,123	115,653
101,772	-17,643	259,842	115,652
102,787	-17,767	259,460	115,362
103,801	-17,839	259,315	115,224
104,816	-17,884	259,137	115,095
105,830	-17,835	258,925	115,033
106,845	-17,911	258,772	114,888
107,860	-17,628	258,465	114,991
108,874	-17,899	258,390	114,709
109,889	-17,734	257,960	114,652
110,903	-17,846	257,958	114,543
111,918	-17,818	257,626	114,411
112,933	-17,887	257,558	114,309
113,947	-17,761	257,359	114,321
114,962	-17,675	257,087	114,265
115,976	-17,934	256,916	113,952
116,991	-17,775	256,747	114,007
118,006	-17,866	256,544	113,827
119,020	-17,773	256,450	113,856
120,035	-17,595	256,207	113,893
121,049	-17,773	256,004	113,637
122,064	-17,915	255,788	113,408
123,079	-17,901	255,540	113,300
124,093	-17,582	255,278	113,450
125,108	-17,729	255,192	113,275
126,122	-17,590	254,969	113,286
127,137	-17,660	254,799	113,139
128,151	-17,690	254,456	112,951
129,166	-17,679	254,440	112,944
130,181	-17,803	254,363	112,792
131,195	-17,682	254,013	112,732
132,210	-17,686	253,748	112,601
133,224	-17,858	253,558	112,359
134,239	-17,773	253,353	112,331
135,254	-17,761	253,246	112,284
136,268	-17,694	253,093	112,263
137,283	-17,876	252,868	111,997
138,297	-17,752	252,648	111,996
139,312	-17,592	252,338	111,986
140,327	-17,674	252,043	111,775
141,341	-17,910	252,086	111,582
142,356	-17,741	251,743	111,565
143,370	-17,891	251,677	111,397
144,385	-17,705	251,201	111,335
145,400	-17,706	251,118	111,287
146,414	-17,655	251,087	111,307
147,429	-17,643	250,666	111,121
148,443	-17,775	250,619	110,978
149,458	-17,793	250,364	110,840
150,473	-17,582	250,278	110,971
151,487	-17,693	250,001	110,744
152,502	-17,516	249,728	110,763
153,516	-17,645	249,655	110,611
154,531	-17,722	249,512	110,473
155,546	-17,561	249,144	110,437
156,560	-17,863	249,178	110,187
157,575	-17,551	248,927	110,329
158,589	-17,777	248,792	110,069
159,604	-17,626	248,470	110,043
160,619	-17,609	248,377	110,007
161,633	-17,678	248,370	109,936
162,648	-17,658	247,964	109,764
163,662	-17,802	247,885	109,597
164,677	-17,701	247,674	109,579
165,692	-17,604	247,528	109,586
166,706	-17,636	247,269	109,435
167,721	-17,577	247,065	109,384
168,735	-17,604	246,974	109,312
169,750	-17,647	246,857	109,214
170,764	-17,510	246,740	109,266
171,779	-17,761	246,553	108,965
172,794	-17,723	246,339	108,892
173,808	-17,630	246,113	108,860
174,823	-17,606	246,023	108,831
175,837	-17,584	245,898	108,784
176,852	-17,658	245,738	108,642
177,867	-17,523	245,419	108,603
178,881	-17,614	245,245	108,441
179,896	-17,724	245,168	108,306
180,910	-17,694	244,991	108,244
181,925	-17,806	244,720	108,021
182,940	-17,808	244,639	107,974
183,954	-17,813	244,526	107,911
184,969	-17,710	244,176	107,831
185,983	-17,629	244,032	107,825
186,998	-17,527	243,840	107,815
188,013	-17,842	243,732	107,498
189,027	-17,636	243,536	107,571
190,042	-17,854	243,366	107,307
191,056	-17,818	243,072	107,198
192,071	-17,785	243,055	107,208
193,086	-17,639	242,734	107,177
194,100	-17,780	242,529	106,961
195,115	-17,567	242,311	107,030
196,129	-17,837	242,180	106,741
197,144	-17,813	242,036	106,688
198,159	-17,649	241,718	106,672
199,173	-17,558	241,550	106,663
200,188	-17,826	241,445	106,388
201,202	-17,611	241,223	106,456
202,217	-17,465	241,104	106,513
203,232	-17,555	241,004	106,386
204,246	-17,738	240,890	106,177
205,261	-18,001	240,381	105,730
206,275	-16,752	240,953	106,987
207,290	-12,022	242,621	111,585
208,304	-5,489	244,624	117,870
209,319	-2,380	245,304	120,745
210,334	-1,243	245,559	121,795
211,348	-0,423	245,853	122,605
212,363	0,371	245,990	123,315
213,377	0,606	245,936	123,471
214,392	0,894	245,933	123,695
215,407	1,213	245,684	123,821
216,421	1,203	245,623	123,771
217,436	1,378	245,512	123,847
218,450	1,397	245,337	123,764
219,465	1,472	245,326	123,808
220,480	1,425	245,123	123,656
221,494	1,269	244,801	123,356
222,509	0,781	244,641	122,865
223,523	0,822	244,287	122,709
224,538	0,532	244,090	122,363
225,553	0,515	243,910	122,249
226,567	0,554	243,733	122,181
227,582	0,508	243,564	122,048
228,596	0,555	243,513	122,050
229,611	0,569	243,398	121,992
230,626	0,506	243,189	121,826
231,640	0,662	242,883	121,787
232,655	0,576	242,717	121,624
233,669	0,516	242,523	121,467
234,684	0,551	242,601	121,524
235,699	0,543	242,439	121,425
236,713	0,633	242,134	121,335
237,728	0,615	241,911	121,197
238,742	0,813	241,749	121,265
239,757	0,497	241,656	120,953
240,772	0,613	241,556	120,985
241,786	0,462	241,333	120,741
242,801	0,411	241,167	120,606
243,815	0,330	241,070	120,482
244,830	0,593	240,817	120,556
245,844	0,504	240,777	120,454
246,859	0,605	240,467	120,369
247,874	0,547	240,466	120,312
248,888	0,530	240,125	120,117
249,903	0,623	240,117	120,176
250,917	0,598	240,041	120,107
251,932	0,809	239,861	120,176
252,947	0,719	239,738	120,031
253,961	0,586	239,577	119,834
254,976	0,655	239,274	119,726
255,990	0,548	239,153	119,570
257,005	0,504	239,043	119,469
258,020	0,571	239,013	119,497
259,034	0,613	238,929	119,477
260,049	0,574	238,509	119,226
261,063	0,800	238,321	119,301
262,078	0,618	238,300	119,135
263,093	0,631	238,107	119,038
264,107	0,616	237,832	118,879
265,122	0,724	237,800	118,938
266,136	0,600	237,620	118,739
267,151	0,514	237,505	118,603
268,166	0,790	237,171	118,643
269,180	0,464	237,136	118,358
270,195	0,582	236,954	118,349
271,209	0,671	236,858	118,361
272,224	0,526	236,740	118,177
273,239	0,480	236,478	118,000
274,253	0,668	236,334	118,065
275,268	0,767	236,140	118,035
276,282	0,586	236,175	117,900
277,297	0,508	235,964	117,723
278,312	0,416	235,812	117,565
279,326	0,506	235,570	117,504
280,341	0,532	235,544	117,501
281,355	0,852	235,431	117,684
282,370	0,731	235,211	117,470
283,384	0,780	234,908	117,346
284,399	0,637	234,862	117,201
285,414	0,444	234,723	116,971
286,428	0,465	234,727	116,978
287,443	0,676	234,370	116,954
288,457	0,775	234,271	116,972
289,472	0,647	234,185	116,819
290,487	0,568	234,110	116,710
291,501	0,480	233,939	116,546
292,516	0,644	233,706	116,546
293,530	0,586	233,630	116,453
294,545	0,645	233,464	116,405
295,560	0,834	233,248	116,434
296,574	0,817	233,068	116,321
297,589	0,647	232,961	116,125
298,603	0,877	232,807	116,216
299,618	0,701	232,676	116,004
300,633	0,773	232,520	115,972
301,647	0,689	232,426	115,849
302,662	0,736	232,203	115,764
303,676	0,874	232,079	115,798
304,691	0,879	231,987	115,746
305,706	0,769	231,792	115,554
306,720	0,869	231,835	115,642
307,735	0,848	231,654	115,525
308,749	0,870	231,402	115,406
309,764	0,981	231,267	115,413
310,779	0,725	231,064	115,106
311,793	0,753	230,898	115,034
312,808	0,806	230,671	114,951
313,822	0,904	230,541	114,951
314,837	0,750	230,465	114,785
315,852	0,992	230,376	114,916
316,866	1,030	230,259	114,876
317,881	1,042	230,025	114,759
318,895	0,892	229,879	114,562
319,910	0,977	229,668	114,510
320,925	0,809	229,572	114,325
321,939	0,871	229,442	114,297
322,954	0,864	229,423	114,272
323,968	0,818	229,239	114,135
324,983	0,867	229,092	114,089
325,997	0,868	228,863	113,965
327,012	0,929	228,710	113,926
328,027	0,822	228,588	113,773
329,041	0,970	228,432	113,798
330,056	0,958	228,191	113,658
331,070	0,750	228,203	113,497
332,085	1,084	227,918	113,597
333,100	1,074	227,741	113,491
334,114	0,898	227,720	113,338
335,129	0,898	227,424	113,181
336,143	0,884	227,297	113,097
337,158	1,036	227,236	113,171
338,173	1,274	227,094	113,268
339,187	1,002	226,955	112,985
340,202	1,009	226,907	112,956
341,216	0,843	226,732	112,735
342,231	0,887	226,596	112,690
343,246	1,070	226,367	112,703
344,260	0,841	226,284	112,480
345,275	1,190	226,157	112,668
346,289	1,035	225,948	112,438
347,304	1,151	225,748	112,415
348,319	1,083	225,671	112,315
349,333	1,163	225,464	112,262
350,348	0,870	225,441	112,022
351,362	0,864	225,356	111,966
352,377	1,127	225,089	112,019
353,392	1,077	225,026	111,940
354,406	1,033	224,923	111,846
355,421	191,232	1311,639	1374,716
356,435	153,128	1443,893	1374,565
