DTS Sentinel unit serial number:	SN410029Multiplexer serial number:	ORYXHardware model number:	OX2-SRSoftware version number:	ORYX F/W v4,00 Oryx Data Collector v3.7.2.0data status	okinstallation	B5 Nyhavnadifferential loss correction	single-endedforward channel	channel 2reverse channel	N/Adate	2023/12/14time	03:12:13forward acquisition time	300,00reverse acquisition time	0,00gamma	499,1914k internal	0,3155k external	0,3155temperature offset calibration	1,0000default loss term (dB/km)	0,3820temperature slope calibration	1,0000multiplexer offset coefficient	1,0000multiplexer slope coefficient	1,0000fibre end	0,00T internal ref (°C)	8,29T ext. ref 1 (°C)	-8,09T ext. ref 2 (°C)	-8,15length (m)	temperature (°C)	Stokes	anti-Stokes-744,400	43,383	0,121	0,081
-743,385	-23,183	-0,249	-0,110
-742,371	234,217	0,065	0,079
-741,356	-132,294	-0,398	-0,037
-740,342	27,292	0,093	0,058
-739,327	-57,163	-0,290	-0,094
-738,312	14,513	0,132	0,076
-737,298	2,159	-0,324	-0,172
-736,283	98,340	0,207	0,176
-735,269	-42,000	-0,346	-0,130
-734,254	12,509	0,192	0,109
-733,239	-2,060	-0,475	-0,245
-732,225	-100,698	0,136	0,025
-731,210	728,733	-0,047	0,093
-730,196	-200,000	0,096	0,000
-729,181	-200,000	-0,021	-0,124
-728,167	-151,527	-0,106	0,006
-727,152	98,901	0,024	0,020
-726,137	236,729	0,100	-0,122
-725,123	321,865	-0,073	-0,102
-724,108	-200,000	-0,010	-0,087
-723,094	-200,000	-0,044	-0,143
-722,079	-200,000	0,001	-0,100
-721,064	521,767	0,038	-0,066
-720,050	-15,925	-0,044	0,021
-719,035	-14,642	-0,125	0,059
-718,021	-129,092	0,026	0,003
-717,006	412,347	-0,027	-0,043
-715,991	78,431	-0,108	-0,085
-714,977	17,597	-0,070	0,041
-713,962	438,813	-0,038	-0,062
-712,948	526,206	-0,077	-0,134
-711,933	508,578	-0,015	0,027
-710,918	800,000	0,046	-0,112
-709,904	298,408	0,077	-0,105
-708,889	94,645	-0,025	-0,021
-707,875	234,222	0,045	0,055
-706,860	-200,000	0,001	0,087
-705,845	-200,000	-0,006	-0,024
-704,831	414,036	-0,010	0,016
-703,816	-165,853	-0,103	0,003
-702,802	133,043	-0,041	-0,039
-701,787	800,000	0,046	-0,100
-700,772	800,000	-0,031	-0,100
-699,758	-200,000	0,006	-0,059
-698,743	785,497	0,091	0,185
-697,729	75,709	0,043	0,033
-696,714	92,401	0,014	0,012
-695,699	-200,000	0,009	-0,101
-694,685	547,848	-0,024	0,043
-693,670	138,599	0,045	-0,044
-692,656	465,356	0,138	0,229
-691,641	800,000	-0,027	0,069
-690,627	125,913	0,112	0,104
-689,612	-106,548	-0,116	-0,019
-688,597	-200,000	-0,008	-0,036
-687,583	-91,685	-0,162	-0,034
-686,568	-37,011	-0,108	0,042
-685,554	-29,861	0,018	-0,008
-684,539	739,975	0,020	-0,040
-683,524	-200,000	-0,014	0,136
-682,510	36,712	-0,120	0,078
-681,495	-98,356	-0,148	-0,028
-680,481	-200,000	-0,007	-0,113
-679,466	-89,760	-0,123	0,026
-678,451	-115,911	0,016	0,002
-677,437	-200,000	-0,010	0,064
-676,422	-32,156	0,044	-0,018
-675,408	2,296	0,102	-0,054
-674,393	-200,000	0,000	-0,068
-673,378	-57,596	-0,029	0,009
-672,364	-200,000	0,014	-0,067
-671,349	-51,764	-0,129	0,044
-670,335	145,404	0,020	0,020
-669,320	-102,100	0,106	-0,019
-668,305	274,639	-0,061	0,080
-667,291	-17,650	-0,083	0,038
-666,276	-34,520	0,073	-0,029
-665,262	-200,000	0,007	-0,037
-664,247	517,599	-0,030	0,052
-663,232	-200,000	0,011	-0,148
-662,218	18,912	-0,092	0,054
-661,203	92,176	-0,091	0,076
-660,189	-150,277	0,121	0,007
-659,174	322,611	-0,041	-0,057
-658,159	556,375	-0,059	-0,105
-657,145	-149,029	0,149	0,009
-656,130	-16,551	-0,117	0,054
-655,116	-93,611	-0,045	0,009
-654,101	182,560	-0,023	0,025
-653,086	98,047	0,047	-0,040
-652,072	-67,539	0,084	-0,024
-651,057	-200,000	-0,005	-0,128
-650,043	-65,252	-0,093	-0,027
-649,028	-111,209	-0,103	0,015
-648,014	762,743	-0,026	-0,053
-646,999	666,573	0,041	0,078
-645,984	-99,357	-0,046	0,008
-644,970	71,885	-0,063	-0,048
-643,955	158,942	0,082	-0,084
-642,941	-89,835	-0,184	-0,039
-641,926	-200,000	0,017	-0,085
-640,911	2,541	0,067	0,035
-639,897	-171,990	-0,084	-0,002
-638,882	92,109	-0,042	0,035
-637,868	-76,659	-0,195	0,050
-636,853	372,068	0,071	-0,106
-635,838	-200,000	-0,033	-0,136
-634,824	186,813	-0,090	-0,098
-633,809	800,000	0,043	0,116
-632,795	800,000	-0,027	0,074
-631,780	800,000	0,025	-0,066
-630,765	57,602	-0,073	0,053
-629,751	800,000	-0,032	0,080
-628,736	65,057	0,020	-0,015
-627,722	321,329	0,004	-0,005
-626,707	193,863	0,037	0,042
-625,692	800,000	-0,012	0,037
-624,678	30,754	-0,057	-0,036
-623,663	-10,212	-0,042	0,020
-622,649	491,666	-0,107	-0,180
-621,634	85,966	-0,106	-0,085
-620,619	-74,992	-0,112	-0,029
-619,605	535,028	0,105	-0,183
-618,590	16,458	0,136	0,078
-617,576	36,399	0,127	0,082
-616,561	13,636	-0,065	0,037
-615,546	800,000	-0,054	-0,111
-614,532	105,896	0,075	-0,065
-613,517	800,000	0,065	-0,137
-612,503	8,368	-0,141	-0,077
-611,488	-36,661	-0,109	0,043
-610,474	-200,000	-0,004	0,064
-609,459	373,986	-0,005	0,008
-608,444	18,428	0,122	-0,071
-607,430	21,497	0,022	0,013
-606,415	-57,987	-0,115	-0,037
-605,401	800,000	-0,077	-0,176
-604,386	-145,698	-0,100	-0,006
-603,371	718,508	0,045	0,087
-602,357	-153,945	0,076	0,004
-601,342	-200,000	0,010	-0,052
-600,328	742,790	-0,074	-0,147
-599,313	-93,574	-0,057	-0,011
-598,298	-74,154	-0,066	0,017
-597,284	-200,000	-0,030	0,121
-596,269	-200,000	0,011	-0,064
-595,255	-200,000	0,008	0,098
-594,240	800,000	0,006	0,014
-593,225	177,765	0,036	-0,039
-592,211	454,505	-0,078	-0,127
-591,196	-8,698	-0,028	0,014
-590,182	-18,503	-0,043	0,019
-589,167	-29,597	0,021	0,009
-588,152	288,632	0,043	-0,057
-587,138	-200,000	-0,019	-0,079
-586,123	-41,237	0,071	-0,027
-585,109	-200,000	-0,015	-0,076
-584,094	-11,014	-0,070	-0,034
-583,079	548,565	0,072	0,127
-582,065	96,348	0,051	-0,042
-581,050	-200,000	-0,027	-0,132
-580,036	-200,000	-0,032	0,125
-579,021	-72,765	-0,074	-0,020
-578,006	-200,000	-0,020	-0,084
-576,992	800,000	-0,011	-0,027
-575,977	-158,158	0,047	-0,002
-574,963	-164,277	-0,009	0,000
-573,948	347,039	0,021	0,030
-572,934	122,163	-0,023	-0,021
-571,919	652,936	-0,109	-0,206
-570,904	31,176	0,015	0,010
-569,890	114,173	-0,041	-0,037
-568,875	239,365	-0,069	-0,084
-567,861	-38,726	-0,040	-0,015
-566,846	800,000	0,056	-0,126
-565,831	-53,862	-0,221	-0,073
-564,817	22,806	-0,070	-0,042
-563,802	354,563	-0,059	-0,085
-562,788	-200,000	0,005	0,112
-561,773	-67,964	0,035	-0,010
-560,758	228,150	-0,048	-0,057
-559,744	137,626	-0,132	0,126
-558,729	-53,626	0,124	-0,041
-557,715	257,944	-0,103	-0,130
-556,700	-69,356	-0,089	-0,025
-555,685	-32,371	-0,028	0,012
-554,671	-72,425	0,100	-0,027
-553,656	-117,243	-0,089	0,012
-552,642	98,055	0,193	-0,163
-551,627	794,476	0,039	-0,078
-550,612	-151,342	-0,032	0,002
-549,598	-200,000	0,008	0,079
-548,583	-170,132	-0,024	0,001
-547,569	-24,129	0,096	0,042
-546,554	62,610	0,016	-0,012
-545,539	-16,507	0,091	0,042
-544,525	-10,871	0,089	-0,043
-543,510	81,331	-0,113	-0,089
-542,496	461,018	-0,042	-0,069
-541,481	-200,000	0,026	-0,148
-540,466	241,781	-0,064	0,078
-539,452	-200,000	0,030	0,113
-538,437	800,000	0,022	0,064
-537,423	-200,000	0,017	-0,088
-536,408	509,817	0,106	0,181
-535,393	41,989	-0,100	-0,066
-534,379	-102,436	-0,088	-0,015
-533,364	-200,000	-0,004	0,113
-532,350	800,000	0,023	0,065
-531,335	-200,000	-0,011	-0,078
-530,321	338,139	0,042	0,060
-529,306	-70,783	-0,023	-0,006
-528,291	-177,390	-0,161	-0,003
-527,277	-200,000	-0,003	-0,018
-526,262	-80,327	-0,042	-0,010
-525,248	231,368	0,048	0,058
-524,233	506,611	-0,068	0,116
-523,218	310,003	0,090	-0,123
-522,204	-200,000	0,002	-0,093
-521,189	-138,193	-0,099	0,008
-520,175	-200,000	-0,022	0,099
-519,160	-34,181	-0,075	-0,030
-518,145	51,946	0,091	0,063
-517,131	-81,546	0,073	0,017
-516,116	-85,073	0,082	0,019
-515,102	499,291	0,080	0,135
-514,087	-173,309	0,076	-0,002
-513,072	-34,551	-0,078	-0,031
-512,058	-119,419	0,116	0,015
-511,043	-200,000	-0,014	-0,081
-510,029	-200,000	0,018	-0,138
-509,014	-122,901	0,130	0,015
-507,999	-200,000	-0,052	0,176
-506,985	332,359	0,066	0,093
-505,970	188,741	-0,096	-0,105
-504,956	54,003	-0,068	-0,048
-503,941	-44,549	0,084	-0,030
-502,926	747,438	0,024	0,047
-501,912	195,245	0,132	0,146
-500,897	-200,000	0,007	-0,065
-499,883	-136,742	-0,156	0,013
-498,868	-200,000	0,022	0,111
-497,853	-133,386	-0,136	-0,012
-496,839	103,619	0,101	-0,086
-495,824	-200,000	0,011	0,117
-494,810	-200,000	0,005	-0,149
-493,795	-200,000	0,012	0,147
-492,781	161,445	0,016	0,017
-491,766	-117,253	0,025	-0,003
-490,751	184,816	-0,072	-0,078
-489,737	-149,040	0,161	-0,009
-488,722	-200,000	0,007	-0,146
-487,708	-33,175	-0,046	-0,018
-486,693	87,426	-0,118	-0,095
-485,678	-200,000	-0,002	-0,054
-484,664	-200,000	0,015	0,067
-483,649	-135,356	-0,124	0,011
-482,635	64,580	-0,050	-0,037
-481,620	-200,000	-0,018	0,103
-480,605	58,339	0,099	0,071
-479,591	784,682	0,055	0,111
-478,576	-148,743	0,138	0,008
-477,562	-134,803	-0,128	0,011
-476,547	-200,000	-0,003	0,021
-475,532	800,000	-0,018	-0,055
-474,518	800,000	-0,048	0,099
-473,503	800,000	0,080	-0,247
-472,489	167,418	0,120	0,125
-471,474	-143,957	0,036	0,002
-470,459	-162,490	-0,114	-0,004
-469,445	-4,129	-0,067	-0,034
-468,430	-157,571	0,135	-0,006
-467,416	-79,808	-0,024	0,006
-466,401	-200,000	-0,012	0,092
-465,386	800,000	0,040	0,094
-464,372	-22,759	-0,087	-0,038
-463,357	689,901	-0,044	-0,084
-462,343	-1,440	-0,017	-0,008
-461,328	-200,000	0,023	-0,112
-460,313	800,000	-0,045	-0,120
-459,299	-200,000	-0,013	-0,069
-458,284	-135,696	-0,082	-0,007
-457,270	172,594	-0,097	0,102
-456,255	190,986	-0,085	0,093
-455,241	321,742	0,033	0,046
-454,226	153,852	-0,086	-0,086
-453,211	75,945	-0,114	-0,088
-452,197	-20,487	0,142	-0,063
-451,182	800,000	0,046	0,127
-450,168	-29,934	0,033	0,013
-449,153	91,103	0,092	0,076
-448,138	-200,000	-0,006	0,148
-447,124	800,000	-0,033	0,092
-446,109	113,500	-0,131	-0,116
-445,095	-200,000	0,022	-0,088
-444,080	-23,191	0,061	0,027
-443,065	-200,000	-0,002	-0,103
-442,051	-200,000	-0,021	-0,131
-441,036	-159,433	0,028	-0,001
-440,022	208,348	0,038	0,044
-439,007	-103,193	-0,094	-0,016
-437,992	702,390	0,043	0,082
-436,978	-83,977	-0,094	0,022
-435,963	800,000	0,017	0,037
-434,949	43,960	-0,116	-0,077
-433,934	36,165	-0,058	0,037
-432,919	73,308	-0,057	-0,044
-431,905	301,359	-0,002	-0,002
-430,890	235,648	0,063	0,077
-429,876	489,855	0,069	-0,115
-428,861	-156,534	0,064	-0,003
-427,846	800,000	-0,023	0,058
-426,832	-30,423	-0,076	0,031
-425,817	-46,904	-0,056	-0,020
-424,803	800,000	0,024	-0,066
-423,788	-145,543	0,034	0,002
-422,773	218,539	-0,059	0,069
-421,759	-200,000	0,012	0,127
-420,744	800,000	-0,005	-0,016
-419,730	-62,376	-0,116	-0,035
-418,715	-191,875	0,051	-0,000
-417,701	-112,258	0,085	-0,012
-416,686	-20,303	0,066	0,029
-415,671	-200,000	0,025	0,110
-414,657	-113,910	0,127	0,018
-413,642	131,069	-0,026	0,024
-412,628	800,000	0,033	0,074
-411,613	-28,771	-0,122	0,051
-410,598	-200,000	0,013	-0,073
-409,584	36,264	0,118	0,076
-408,569	149,751	-0,046	-0,046
-407,555	24,139	-0,036	-0,021
-406,540	-200,000	-0,016	-0,138
-405,525	613,520	0,022	0,041
-404,511	60,574	-0,096	-0,069
-403,496	800,000	-0,074	-0,182
-402,482	800,000	-0,031	0,080
-401,467	800,000	0,048	0,112
-400,452	-128,593	0,138	-0,014
-399,438	800,000	-0,036	0,101
-398,423	-142,406	0,133	-0,009
-397,409	98,457	0,085	0,071
-396,394	476,446	-0,040	-0,066
-395,379	81,606	0,049	0,038
-394,365	88,211	0,141	0,114
-393,350	448,157	-0,057	0,092
-392,336	30,145	0,059	-0,037
-391,321	800,000	0,005	-0,016
-390,306	306,588	-0,049	0,067
-389,292	-6,547	-0,090	-0,044
-388,277	-26,095	0,119	0,051
-387,263	183,188	-0,059	0,064
-386,248	-56,124	0,032	0,010
-385,233	800,000	-0,049	-0,135
-384,219	224,523	0,019	-0,023
-383,204	-13,240	-0,095	0,045
-382,190	-74,660	0,115	-0,030
-381,175	378,398	-0,043	0,064
-380,160	-69,580	0,146	0,040
-379,146	-200,000	0,018	-0,079
-378,131	-200,000	0,009	0,184
-377,117	72,184	-0,078	0,059
-376,102	-157,108	0,025	-0,001
-375,088	800,000	0,033	0,072
-374,073	-2,066	0,117	-0,060
-373,058	-200,000	-0,002	0,088
-372,044	174,301	0,076	-0,080
-371,029	378,238	-0,052	0,077
-370,015	464,239	0,015	-0,024
-369,000	270,886	-0,087	-0,112
-367,985	284,637	0,057	-0,075
-366,971	65,710	0,084	-0,062
-365,956	-124,773	0,169	-0,019
-364,942	493,583	0,099	0,166
-363,927	43,314	0,091	0,060
-362,912	423,954	0,041	-0,064
-361,898	800,000	0,007	0,023
-360,883	-200,000	-0,005	0,035
-359,869	98,097	-0,050	-0,042
-358,854	99,111	0,056	-0,047
-357,839	117,870	0,053	0,048
-356,825	-26,947	0,057	0,024
-355,810	800,000	-0,021	0,060
-354,796	-87,894	-0,042	0,009
-353,781	-200,000	-0,008	-0,075
-352,766	43,758	-0,085	0,057
-351,752	38,007	0,079	0,051
-350,737	6,021	0,118	-0,063
-349,723	-200,000	0,016	0,086
-348,708	-119,026	0,055	0,007
-347,693	110,087	-0,103	-0,090
-346,679	3,225	0,044	-0,023
-345,664	-180,616	0,020	0,000
-344,650	-200,000	-0,003	-0,179
-343,635	3,781	0,009	-0,005
-342,620	357,616	0,062	-0,090
-341,606	24,366	-0,083	0,050
-340,591	-200,000	0,008	-0,057
-339,577	-200,000	0,007	-0,120
-338,562	800,000	-0,033	-0,078
-337,548	-19,739	0,088	-0,039
-336,533	-8,933	-0,077	0,037
-335,518	-200,000	-0,010	0,165
-334,504	-200,000	0,002	0,071
-333,489	4,779	0,012	0,006
-332,475	12,361	-0,095	0,053
-331,460	253,669	-0,048	-0,060
-330,445	158,194	-0,037	0,037
-329,431	64,914	-0,048	0,035
-328,416	800,000	0,043	0,099
-327,402	-38,149	-0,087	-0,033
-326,387	-200,000	-0,006	-0,069
-325,372	104,287	-0,105	-0,090
-324,358	-200,000	0,006	-0,130
-323,343	-19,640	0,042	0,019
-322,329	-74,332	0,189	-0,049
-321,314	195,238	-0,097	0,107
-320,299	800,000	-0,013	0,039
-319,285	7,152	0,069	0,037
-318,270	47,429	-0,121	0,082
-317,256	194,927	0,021	0,024
-316,241	800,000	-0,001	0,004
-315,226	800,000	0,048	0,107
-314,212	-200,000	0,035	0,162
-313,197	-200,000	0,010	0,063
-312,183	76,416	0,014	-0,011
-311,168	532,873	-0,043	-0,074
-310,153	800,000	-0,014	-0,033
-309,139	374,945	0,046	-0,069
-308,124	-200,000	0,023	-0,096
-307,110	410,284	0,063	0,098
-306,095	679,740	-0,063	-0,120
-305,080	211,520	-0,058	0,066
-304,066	800,000	-0,053	0,117
-303,051	-200,000	-0,004	-0,070
-302,037	-200,000	-0,029	-0,110
-301,022	586,166	-0,026	-0,047
-300,008	14,091	0,076	0,043
-298,993	-98,594	0,152	0,028
-297,978	800,000	-0,046	0,099
-296,964	100,091	0,046	0,039
-295,949	198,623	-0,093	0,103
-294,935	45,097	0,049	0,032
-293,920	-200,000	0,004	-0,092
-292,905	141,442	0,089	0,085
-291,891	-71,057	0,054	-0,015
-290,876	800,000	-0,045	-0,109
-289,862	-200,000	0,014	0,090
-288,847	32,163	-0,199	-0,124
-287,832	528,635	-0,078	-0,135
-286,818	300,221	0,036	0,048
-285,803	-200,000	-0,004	-0,066
-284,789	430,680	-0,017	0,026
-283,774	74,594	0,046	0,035
-282,759	0,676	0,096	0,050
-281,745	-200,000	0,014	-0,057
-280,730	1,004	0,012	0,006
-279,716	44,851	-0,047	0,031
-278,701	800,000	0,001	0,004
-277,686	800,000	0,134	0,272
-276,672	-200,000	-0,010	0,037
-275,657	-200,000	0,010	0,075
-274,643	800,000	0,095	-0,233
-273,628	-55,147	-0,120	0,039
-272,613	800,000	-0,027	-0,079
-271,599	116,648	-0,058	-0,051
-270,584	-200,000	-0,028	0,117
-269,570	-102,953	0,141	0,024
-268,555	-200,000	-0,005	-0,084
-267,540	-200,000	-0,013	-0,174
-266,526	-95,373	-0,135	-0,026
-265,511	431,449	0,037	-0,058
-264,497	205,689	-0,018	0,020
-263,482	129,214	-0,038	0,035
-262,467	2,192	-0,072	-0,038
-261,453	531,073	0,075	-0,130
-260,438	-94,813	-0,035	0,007
-259,424	35,522	-0,047	0,030
-258,409	-35,997	-0,128	-0,050
-257,395	41,990	-0,060	0,039
-256,380	-200,000	-0,019	0,150
-255,365	-200,000	0,018	0,141
-254,351	12,600	-0,094	0,052
-253,336	54,040	-0,009	0,006
-252,322	-11,431	-0,032	-0,015
-251,307	800,000	-0,045	-0,117
-250,292	318,602	0,115	-0,158
-249,278	-200,000	-0,007	0,138
-248,263	-134,442	0,079	0,007
-247,249	-200,000	0,004	0,077
-246,234	-200,000	0,004	-0,114
-245,219	800,000	0,054	0,123
-244,205	-46,607	-0,043	-0,015
-243,190	218,248	0,041	0,047
-242,176	-200,000	0,001	0,135
-241,161	18,361	0,223	0,128
-240,146	-200,000	-0,011	0,080
-239,132	-34,301	0,026	-0,010
-238,117	601,295	-0,053	0,096
-237,103	186,594	-0,104	0,112
-236,088	437,103	0,027	0,042
-235,073	-101,049	0,086	-0,015
-234,059	-200,000	-0,012	0,090
-233,044	-200,000	-0,012	-0,078
-232,030	435,666	-0,057	0,090
-231,015	359,061	0,033	0,047
-230,000	-200,000	-0,006	-0,076
-228,986	-186,735	0,017	0,000
-227,971	60,498	0,114	-0,082
-226,957	-143,006	0,137	0,009
-225,942	800,000	0,018	-0,048
-224,927	26,281	0,107	0,065
-223,913	20,845	-0,086	-0,050
-222,898	-22,130	0,051	0,022
-221,884	497,023	0,032	-0,053
-220,869	-200,000	-0,004	0,130
-219,855	-200,000	-0,002	0,082
-218,840	150,954	0,090	-0,088
-217,825	-116,345	-0,144	-0,019
-216,811	-3,878	0,013	0,006
-215,796	-200,000	-0,003	-0,057
-214,782	-59,769	0,093	-0,029
-213,767	-60,349	-0,013	0,004
-212,752	405,826	0,049	0,074
-211,738	42,442	0,143	-0,094
-210,723	24,253	-0,097	0,058
-209,709	800,000	0,064	-0,146
-208,694	-47,956	-0,067	-0,023
-207,679	800,000	0,037	-0,076
-206,665	-200,000	0,008	0,055
-205,650	474,937	0,030	0,049
-204,636	-200,000	0,022	0,118
-203,621	9,056	-0,109	0,059
-202,606	800,000	0,058	0,146
-201,592	763,902	-0,031	0,061
-200,577	114,050	0,149	-0,131
-199,563	800,000	0,049	0,115
-198,548	171,163	0,071	0,074
-197,533	-127,709	-0,081	-0,008
-196,519	800,000	-0,021	0,060
-195,504	472,180	-0,034	0,055
-194,490	15,243	0,100	-0,056
-193,475	-155,536	-0,133	-0,006
-192,460	264,033	0,110	-0,139
-191,446	-25,972	-0,099	-0,042
-190,431	56,729	0,081	-0,057
-189,417	-129,115	-0,142	0,014
-188,402	-78,611	0,023	-0,006
-187,387	279,477	-0,087	0,113
-186,373	181,312	0,021	-0,023
-185,358	81,967	-0,064	-0,050
-184,344	-79,288	0,027	-0,007
-183,329	800,000	0,066	0,208
-182,315	-52,018	0,107	-0,036
-181,300	800,000	-0,031	0,087
-180,285	-12,211	0,038	0,018
-179,271	385,277	-0,025	0,037
-178,256	104,483	-0,031	-0,027
-177,242	-200,000	-0,014	-0,099
-176,227	-200,000	0,006	0,102
-175,212	-8,707	0,138	0,067
-174,198	-200,000	0,010	0,037
-173,183	-6,267	0,005	0,003
-172,169	6,318	-0,107	0,057
-171,154	-30,412	-0,032	-0,013
-170,139	57,316	0,155	-0,109
-169,125	29,608	0,042	0,026
-168,110	800,000	-0,035	0,070
-167,096	370,510	0,050	-0,073
-166,081	800,000	0,058	0,130
-165,066	-200,000	-0,006	0,146
-164,052	-31,340	0,055	0,022
-163,037	164,806	0,065	0,066
-162,023	-200,000	-0,013	-0,066
-161,008	646,478	0,065	-0,121
-159,993	-47,901	-0,032	-0,011
-158,979	237,875	-0,029	0,035
-157,964	273,570	-0,030	0,038
-156,950	57,145	-0,066	0,046
-155,935	-200,000	0,035	-0,187
-154,920	88,056	0,019	-0,015
-153,906	-75,535	0,046	-0,012
-152,891	800,000	-0,019	-0,039
-151,877	-80,886	0,066	0,016
-150,862	-102,389	-0,036	0,006
-149,847	-142,343	0,032	0,002
-148,833	142,425	-0,099	0,094
-147,818	-200,000	0,025	0,112
-146,804	2,265	0,047	0,024
-145,789	-200,000	0,004	0,015
-144,775	18,922	0,055	0,032
-143,760	-106,855	0,042	0,007
-142,745	220,563	-0,063	-0,073
-141,731	588,011	-0,016	-0,028
-140,716	45,135	-0,058	0,039
-139,702	-200,000	-0,020	0,092
-138,687	-200,000	0,013	0,068
-137,672	-200,000	0,007	-0,126
-136,658	-180,281	-0,072	0,001
-135,643	97,575	0,065	-0,054
-134,629	45,023	0,132	-0,088
-133,614	-173,254	-0,063	-0,001
-132,599	552,212	-0,057	0,100
-131,585	-13,970	0,002	0,001
-130,570	-186,381	-0,088	-0,001
-129,556	9,667	0,081	-0,044
-128,541	691,166	-0,116	-0,221
-127,526	25,569	-0,088	0,052
-126,512	-200,000	-0,017	0,056
-125,497	800,000	-0,046	0,093
-124,483	-200,000	0,035	-0,141
-123,468	428,493	0,065	-0,102
-122,453	194,678	0,126	-0,138
-121,439	-53,757	-0,029	0,009
-120,424	-200,000	-0,009	0,046
-119,410	-200,000	0,014	0,068
-118,395	180,561	-0,061	-0,064
-117,380	-35,904	0,117	-0,046
-116,366	164,792	0,050	-0,051
-115,351	107,525	0,035	-0,030
-114,337	353,014	-0,020	0,029
-113,322	119,655	0,010	-0,009
-112,307	134,624	0,111	0,104
-111,293	-200,000	-0,001	0,129
-110,278	173,223	-0,005	-0,005
-109,264	800,000	0,015	-0,035
-108,249	496,453	-0,034	-0,056
-107,234	106,707	0,020	-0,017
-106,220	-200,000	-0,031	-0,111
-105,205	111,690	0,083	0,072
-104,191	-200,000	0,017	0,139
-103,176	434,978	0,041	-0,065
-102,162	-105,058	-0,055	-0,009
-101,147	81,998	-0,091	-0,071
-100,132	646,635	-0,049	-0,091
-99,118	163,702	-0,095	0,096
-98,103	-200,000	-0,015	-0,103
-97,089	-8,721	0,034	-0,017
-96,074	168,732	0,101	-0,104
-95,059	572,989	-0,010	0,017
-94,045	-33,885	0,210	-0,083
-93,030	31,133	0,075	-0,046
-92,016	-34,949	-0,082	-0,032
-91,001	-200,000	-0,017	0,095
-89,986	-82,460	0,040	0,009
-88,972	-200,000	-0,008	0,066
-87,957	-200,000	-0,002	0,015
-86,943	-67,334	0,046	0,013
-85,928	-200,000	-0,020	-0,069
-84,913	800,000	-0,031	0,069
-83,899	-75,717	-0,093	-0,024
-82,884	-200,000	0,065	0,217
-81,870	-200,000	-0,020	0,131
-80,855	-200,000	-0,011	0,099
-79,840	26,477	0,044	-0,026
-78,826	262,064	-0,103	-0,128
-77,811	800,000	0,033	-0,091
-76,797	-73,348	0,106	0,028
-75,782	-200,000	0,062	-0,296
-74,767	-51,491	-0,037	-0,012
-73,753	-200,000	0,010	-0,161
-72,738	231,380	0,117	-0,138
-71,724	210,304	-0,056	-0,064
-70,709	-105,503	-0,103	-0,017
-69,694	81,970	-0,107	-0,083
-68,680	27,589	-0,153	0,092
-67,665	-110,419	-0,093	0,014
-66,651	142,426	0,075	0,071
-65,636	-147,516	0,042	-0,003
-64,622	308,683	-0,042	-0,056
-63,607	240,325	-0,079	-0,095
-62,592	-200,000	-0,036	-0,120
-61,578	800,000	0,053	-0,107
-60,563	800,000	-0,065	0,134
-59,549	245,955	0,073	0,088
-58,534	79,712	-2,673	-2,060
-57,519	215,502	0,390	-0,445
-56,505	-200,000	-1,631	-5,413
-55,490	485,239	1,157	1,899
-54,476	800,000	5,157	11,335
-53,461	-200,000	22,082	348,270
-52,446	800,000	759,748	2310,041
-51,432	519,216	1647,281	2781,870
-50,417	100,267	1611,319	1342,042
-49,403	68,506	1268,009	932,649
-48,388	24,028	1018,788	602,131
-47,373	19,310	985,724	566,991
-46,359	13,145	972,857	539,376
-45,344	8,925	969,564	523,686
-44,330	9,410	967,509	524,147
-43,315	8,403	965,744	519,873
-42,300	8,377	964,727	519,220
-41,286	8,352	963,613	518,521
-40,271	8,331	962,643	517,909
-39,257	8,302	961,690	517,280
-38,242	8,396	960,758	517,064
-37,227	8,316	960,158	516,460
-36,213	8,203	959,420	515,675
-35,198	8,273	958,326	515,294
-34,184	8,366	957,620	515,198
-33,169	8,315	956,649	514,490
-32,154	8,374	955,819	514,211
-31,140	8,324	954,965	513,572
-30,125	8,366	954,043	513,190
-29,111	8,327	953,352	512,672
-28,096	8,403	952,695	512,544
-27,082	8,367	951,926	511,996
-26,067	8,328	951,241	511,480
-25,052	8,254	950,287	510,710
-24,038	8,256	949,771	510,417
-23,023	8,259	949,116	510,054
-22,009	8,319	948,478	509,884
-20,994	8,341	947,886	509,615
-19,979	8,402	947,363	509,510
-18,965	8,317	946,571	508,793
-17,950	8,324	946,133	508,560
-16,936	8,278	945,328	507,957
-15,921	8,284	944,645	507,590
-14,906	8,196	943,921	506,901
-13,892	8,223	943,264	506,613
-12,877	8,199	942,632	506,176
-11,863	8,165	942,221	505,828
-10,848	8,202	941,742	505,668
-9,833	8,341	940,998	505,692
-8,819	8,282	940,524	505,228
-7,804	8,182	939,723	504,460
-6,790	8,178	939,254	504,177
-5,775	8,256	938,526	504,012
-4,760	8,268	937,819	503,651
-3,746	8,274	937,416	503,435
-2,731	8,107	936,660	502,479
-1,717	8,062	936,067	502,000
-0,702	8,098	935,350	501,707
0,313	7,926	934,651	501,544
1,327	11,323	932,440	511,038
2,342	19,838	781,024	450,410
3,356	14,961	448,134	251,065
4,371	-11,415	311,913	146,739
5,386	-15,258	294,584	134,690
6,400	-17,396	288,344	129,709
7,415	-17,442	285,835	128,524
8,429	-17,840	283,898	127,254
9,444	-18,062	282,973	126,613
10,459	-17,769	282,380	126,620
11,473	-18,086	281,716	126,005
12,488	-17,871	281,308	126,018
13,502	-17,892	280,944	125,824
14,517	-17,809	280,400	125,649
15,531	-17,870	280,109	125,449
16,546	-17,648	279,702	125,468
17,561	-17,557	279,222	125,329
18,575	-17,470	278,940	125,274
19,590	-17,669	278,629	124,933
20,604	-17,494	278,258	124,923
21,619	-17,607	277,826	124,610
22,634	-17,539	277,565	124,547
23,648	-17,664	277,283	124,290
24,663	-17,737	277,003	124,084
25,677	-17,765	276,776	123,945
26,692	-17,574	276,537	124,008
27,707	-17,561	276,067	123,799
28,721	-17,408	275,894	123,855
29,736	-17,626	275,693	123,547
30,750	-17,547	275,353	123,459
31,765	-17,714	275,160	123,204
32,780	-17,647	274,918	123,147
33,794	-17,555	274,643	123,099
34,809	-17,518	274,410	123,019
35,823	-17,705	274,285	122,776
36,838	-17,524	273,890	122,758
37,853	-17,539	273,654	122,628
38,867	-17,543	273,387	122,493
39,882	-17,528	273,287	122,452
40,896	-17,393	272,943	122,412
41,911	-17,743	272,697	121,965
42,926	-17,416	272,457	122,151
43,940	-17,384	272,028	121,978
44,955	-17,668	271,961	121,673
45,969	-17,586	271,732	121,636
46,984	-17,554	271,521	121,561
47,999	-17,341	271,253	121,627
49,013	-17,456	271,177	121,476
50,028	-17,374	270,871	121,404
51,042	-17,365	270,605	121,282
52,057	-17,459	270,446	121,112
53,071	-17,346	270,209	121,100
54,086	-17,480	269,983	120,864
55,101	-17,414	269,681	120,779
56,115	-17,460	269,541	120,663
57,130	-17,566	269,377	120,481
58,144	-17,606	268,965	120,250
59,159	-17,711	268,730	120,037
60,174	-17,540	268,530	120,095
61,188	-17,504	268,366	120,043
62,203	-17,576	268,182	119,884
63,217	-17,600	267,940	119,743
64,232	-17,414	267,560	119,733
65,247	-17,748	267,426	119,357
66,261	-17,441	267,003	119,438
67,276	-17,423	266,874	119,386
68,290	-17,425	266,693	119,292
69,305	-17,487	266,552	119,162
70,320	-17,516	266,201	118,969
71,334	-17,556	266,167	118,907
72,349	-17,609	265,900	118,728
73,363	-17,458	265,518	118,684
74,378	-17,625	265,304	118,427
75,393	-17,524	265,106	118,419
76,407	-17,417	264,909	118,417
77,422	-17,491	264,642	118,221
78,436	-17,509	264,531	118,144
79,451	-17,407	264,117	118,041
80,466	-17,608	264,019	117,806
81,480	-17,347	263,806	117,934
82,495	-17,534	263,502	117,620
83,509	-17,630	263,443	117,497
84,524	-17,340	263,094	117,591
85,539	-17,499	263,066	117,425
86,553	-17,343	262,725	117,402
87,568	-17,434	262,541	117,228
88,582	-17,452	262,361	117,121
89,597	-17,473	262,131	116,989
90,611	-17,568	261,940	116,809
91,626	-17,522	261,680	116,724
92,641	-17,383	261,498	116,756
93,655	-17,335	261,215	116,662
94,670	-17,484	260,944	116,398
95,684	-17,470	260,880	116,372
96,699	-17,526	260,743	116,250
97,714	-17,391	260,536	116,268
98,728	-17,410	260,343	116,155
99,743	-17,356	260,095	116,081
100,757	-17,359	259,789	115,931
101,772	-17,355	259,543	115,814
102,787	-17,515	259,508	115,647
103,801	-17,522	259,176	115,483
104,816	-17,742	259,217	115,297
105,830	-17,314	258,856	115,503
106,845	-17,478	258,715	115,286
107,860	-17,592	258,320	114,999
108,874	-17,466	258,222	115,056
109,889	-17,366	257,949	115,012
110,903	-17,532	257,733	114,760
111,918	-17,555	257,574	114,659
112,933	-17,332	257,442	114,785
113,947	-17,407	257,198	114,600
114,962	-17,413	257,020	114,505
115,976	-17,541	256,728	114,254
116,991	-17,444	256,550	114,248
118,006	-17,473	256,494	114,188
119,020	-17,634	256,417	114,003
120,035	-17,417	255,999	113,996
121,049	-17,647	255,982	113,778
122,064	-17,236	255,677	113,990
123,079	-17,483	255,539	113,704
124,093	-17,496	255,237	113,548
125,108	-17,353	255,107	113,603
126,122	-17,296	255,060	113,622
127,137	-17,258	254,771	113,516
128,151	-17,161	254,556	113,493
129,166	-17,333	254,353	113,245
130,181	-17,220	253,968	113,161
131,195	-17,333	253,812	112,984
132,210	-17,484	253,777	112,828
133,224	-17,362	253,491	112,795
134,239	-17,407	253,328	112,675
135,254	-17,394	253,091	112,570
136,268	-17,342	252,847	112,497
137,283	-17,506	252,592	112,232
138,297	-17,186	252,591	112,496
139,312	-17,336	252,272	112,216
140,327	-17,533	251,966	111,901
141,341	-17,448	251,820	111,898
142,356	-17,459	251,573	111,770
143,370	-17,366	251,482	111,798
144,385	-17,524	251,337	111,589
145,400	-17,360	251,101	111,614
146,414	-17,584	251,002	111,370
147,429	-17,223	250,569	111,474
148,443	-17,209	250,448	111,422
149,458	-17,449	250,350	111,165
150,473	-17,345	250,097	111,131
151,487	-17,196	249,898	111,159
152,502	-17,275	249,793	111,035
153,516	-17,511	249,618	110,748
154,531	-17,232	249,389	110,872
155,546	-17,433	249,222	110,618
156,560	-17,513	249,207	110,535
157,575	-17,405	248,903	110,481
158,589	-17,381	248,597	110,356
159,604	-17,291	248,355	110,314
160,619	-17,450	248,290	110,142
161,633	-17,482	248,083	110,013
162,648	-17,484	247,927	109,932
163,662	-17,226	247,865	110,111
164,677	-17,339	247,664	109,917
165,692	-17,527	247,433	109,648
166,706	-17,460	247,369	109,666
167,721	-17,487	247,086	109,508
168,735	-17,507	246,905	109,402
169,750	-17,354	246,690	109,424
170,764	-17,366	246,714	109,415
171,779	-17,583	246,510	109,133
172,794	-17,438	246,329	109,164
173,808	-17,350	246,038	109,099
174,823	-17,264	245,963	109,127
175,837	-17,453	245,817	108,896
176,852	-17,358	245,608	108,872
177,867	-17,405	245,466	108,761
178,881	-17,447	245,311	108,648
179,896	-17,458	245,136	108,551
180,910	-17,528	244,838	108,352
181,925	-17,528	244,651	108,259
182,940	-17,578	244,474	108,130
183,954	-17,447	244,385	108,189
184,969	-17,195	244,149	108,283
185,983	-17,518	243,974	107,929
186,998	-17,409	243,875	107,966
188,013	-17,258	243,621	107,969
189,027	-17,283	243,476	107,873
190,042	-17,481	243,183	107,571
191,056	-17,493	242,994	107,469
192,071	-17,463	242,899	107,442
193,086	-17,440	242,669	107,350
194,100	-17,495	242,434	107,190
195,115	-17,420	242,408	107,231
196,129	-17,360	242,186	107,173
197,144	-17,612	241,917	106,838
198,159	-17,458	241,688	106,853
199,173	-17,296	241,511	106,897
200,188	-17,395	241,331	106,728
201,202	-17,490	241,309	106,630
202,217	-17,294	241,063	106,672
203,232	-17,257	241,010	106,669
204,246	-17,500	240,672	106,313
205,261	-17,878	240,477	105,910
206,275	-16,423	240,782	107,217
207,290	-11,576	242,630	111,994
208,304	-5,204	244,580	118,125
209,319	-2,405	245,483	120,856
210,334	-1,274	245,579	121,823
211,348	0,008	245,716	122,935
212,363	0,499	245,835	123,388
213,377	0,798	245,786	123,597
214,392	1,016	245,595	123,670
215,407	1,334	245,710	123,978
216,421	1,487	245,450	123,961
217,436	1,420	245,406	123,873
218,450	1,494	245,146	123,791
219,465	1,646	244,967	123,814
220,480	1,650	244,857	123,751
221,494	1,398	244,729	123,469
222,509	1,172	244,429	123,122
223,523	0,932	244,081	122,740
224,538	0,766	243,961	122,534
225,553	0,714	243,821	122,410
226,567	0,570	243,703	122,222
227,582	0,570	243,559	122,139
228,596	0,890	243,384	122,301
229,611	0,798	243,289	122,167
230,626	0,693	243,038	121,945
231,640	0,906	242,873	122,024
232,655	0,860	242,555	121,817
233,669	0,606	242,426	121,535
234,684	0,717	242,275	121,538
235,699	0,804	242,214	121,567
236,713	0,757	242,028	121,425
237,728	0,790	241,897	121,375
238,742	0,620	241,732	121,145
239,757	0,787	241,490	121,147
240,772	0,798	241,399	121,099
241,786	0,624	241,464	120,981
242,801	0,642	241,151	120,828
243,815	0,699	240,876	120,725
244,830	0,583	240,839	120,603
245,844	0,919	240,510	120,696
246,859	0,780	240,462	120,551
247,874	0,849	240,280	120,503
248,888	0,728	240,072	120,292
249,903	0,675	240,014	120,209
250,917	0,631	239,787	120,050
251,932	0,968	239,820	120,325
252,947	0,829	239,503	120,044
253,961	0,950	239,203	119,980
254,976	0,923	239,120	119,906
255,990	0,846	239,123	119,835
257,005	0,826	238,926	119,710
258,020	0,894	238,749	119,665
259,034	0,717	238,601	119,439
260,049	0,862	238,438	119,462
261,063	0,709	238,313	119,267
262,078	0,761	237,981	119,132
263,093	0,652	237,945	119,017
264,107	0,861	237,685	119,042
265,122	0,751	237,647	118,925
266,136	0,742	237,663	118,915
267,151	0,640	237,366	118,675
268,166	0,632	237,266	118,609
269,180	0,651	237,053	118,506
270,195	0,828	236,890	118,554
271,209	0,673	236,812	118,382
272,224	0,885	236,430	118,348
273,239	0,676	236,368	118,141
274,253	0,648	236,279	118,064
275,268	0,672	236,219	118,043
276,282	0,728	235,893	117,914
277,297	0,612	235,869	117,800
278,312	0,809	235,573	117,796
279,326	0,880	235,544	117,827
280,341	0,830	235,465	117,737
281,355	0,792	235,220	117,575
282,370	0,925	235,081	117,598
283,384	0,816	234,936	117,431
284,399	0,687	234,915	117,308
285,414	1,004	234,536	117,356
286,428	0,825	234,460	117,168
287,443	0,710	234,411	117,044
288,457	0,888	234,114	117,023
289,472	0,960	233,950	116,987
290,487	0,832	233,825	116,815
291,501	0,724	233,743	116,679
292,516	0,911	233,683	116,784
293,530	0,954	233,361	116,646
294,545	0,527	233,466	116,357
295,560	1,018	233,213	116,601
296,574	1,183	232,957	116,590
297,589	0,776	232,881	116,227
298,603	0,708	232,835	116,140
299,618	0,983	232,542	116,197
300,633	0,712	232,414	115,913
301,647	0,979	232,366	116,085
302,662	1,056	232,169	116,036
303,676	0,968	231,898	115,822
304,691	1,057	231,853	115,858
305,706	0,887	231,674	115,627
306,720	0,972	231,515	115,603
307,735	1,208	231,418	115,725
308,749	1,123	231,157	115,519
309,764	0,925	231,172	115,365
310,779	1,007	230,994	115,328
311,793	1,054	230,810	115,262
312,808	1,125	230,578	115,190
313,822	0,770	230,628	114,934
314,837	1,196	230,223	115,047
315,852	1,004	230,213	114,885
316,866	0,954	230,154	114,807
317,881	0,907	229,932	114,650
318,895	1,016	229,866	114,691
319,910	0,944	229,743	114,564
320,925	0,982	229,431	114,427
321,939	1,092	229,334	114,452
322,954	1,154	229,100	114,372
323,968	1,013	229,066	114,237
324,983	1,005	228,903	114,140
325,997	0,965	228,672	113,985
327,012	1,155	228,618	114,091
328,027	0,956	228,523	113,883
329,041	0,958	228,376	113,801
330,056	0,901	228,182	113,651
331,070	1,233	227,998	113,800
332,085	1,080	227,805	113,578
333,100	0,978	227,758	113,468
334,114	1,080	227,462	113,387
335,129	1,058	227,332	113,296
336,143	1,022	227,250	113,218
337,158	1,169	227,201	113,294
338,173	1,149	226,914	113,125
339,187	1,171	226,889	113,119
340,202	1,256	226,679	113,069
341,216	1,101	226,633	112,919
342,231	0,994	226,473	112,749
343,246	1,350	226,260	112,899
344,260	1,286	226,112	112,768
345,275	1,187	226,137	112,696
346,289	1,112	225,891	112,508
347,304	1,329	225,653	112,540
348,319	1,149	225,483	112,311
349,333	1,108	225,336	112,198
350,348	1,136	225,324	112,203
351,362	1,252	224,998	112,117
352,377	1,112	224,897	111,952
353,392	1,209	224,832	111,982
354,406	1,198	224,739	111,918
355,421	193,219	1310,289	1380,100
356,435	154,797	1442,413	1379,937
