DTS Sentinel unit serial number:	SN410029Multiplexer serial number:	ORYXHardware model number:	OX2-SRSoftware version number:	ORYX F/W v4,00 Oryx Data Collector v3.7.2.0data status	okinstallation	B5 Nyhavnadifferential loss correction	single-endedforward channel	channel 2reverse channel	N/Adate	2023/12/11time	14:32:13forward acquisition time	300,00reverse acquisition time	0,00gamma	499,1914k internal	0,3167k external	0,3167temperature offset calibration	1,0000default loss term (dB/km)	0,3820temperature slope calibration	1,0000multiplexer offset coefficient	1,0000multiplexer slope coefficient	1,0000fibre end	0,00T internal ref (°C)	12,52T ext. ref 1 (°C)	-1,85T ext. ref 2 (°C)	-1,83length (m)	temperature (°C)	Stokes	anti-Stokes-744,400	100,018	0,090	-0,076
-743,385	-156,490	-0,343	0,015
-742,371	-49,961	0,237	0,082
-741,356	-86,370	-0,236	0,053
-740,342	-200,000	0,044	0,224
-739,327	-176,472	-0,333	-0,006
-738,312	-40,412	0,198	-0,075
-737,298	-165,261	-0,310	-0,010
-736,283	-200,000	-0,029	0,107
-735,269	-111,371	-0,247	0,037
-734,254	-136,234	0,025	-0,002
-733,239	-73,774	-0,483	-0,128
-732,225	-10,847	0,198	-0,096
-731,210	224,294	0,049	0,059
-730,196	54,853	-0,060	-0,042
-729,181	-72,495	-0,155	0,042
-728,167	484,678	0,031	-0,052
-727,152	-178,767	0,048	-0,001
-726,137	82,250	-0,102	-0,081
-725,123	60,437	-0,070	-0,051
-724,108	226,306	-0,024	-0,029
-723,094	572,784	-0,047	-0,084
-722,079	668,601	-0,100	-0,190
-721,064	26,465	0,054	-0,033
-720,050	46,246	-0,096	0,065
-719,035	-90,701	-0,125	-0,026
-718,021	-108,680	-0,062	-0,010
-717,006	-129,413	-0,082	0,008
-715,991	403,301	-0,115	-0,178
-714,977	-67,986	-0,193	-0,055
-713,962	-200,000	-0,029	0,137
-712,948	-10,064	-0,045	0,022
-711,933	-200,000	0,020	0,079
-710,918	-117,764	-0,110	-0,014
-709,904	180,698	-0,141	-0,153
-708,889	259,402	-0,085	0,108
-707,875	-61,125	0,015	0,005
-706,860	-200,000	0,007	-0,093
-705,845	-164,557	0,137	-0,004
-704,831	800,000	-0,092	0,242
-703,816	-200,000	-0,014	-0,052
-702,802	-138,432	-0,153	0,012
-701,787	-200,000	0,016	-0,133
-700,772	-23,825	-0,164	0,072
-699,758	-200,000	0,016	-0,114
-698,743	-8,566	-0,064	0,031
-697,729	-64,714	-0,042	-0,012
-696,714	800,000	0,064	0,143
-695,699	-38,615	-0,211	0,081
-694,685	748,599	-0,046	0,091
-693,670	-28,708	-0,182	0,077
-692,656	-122,277	0,039	0,005
-691,641	78,736	-0,070	-0,055
-690,627	-200,000	0,032	0,121
-689,612	-200,000	0,015	0,086
-688,597	800,000	-0,016	-0,045
-687,583	800,000	-0,073	-0,202
-686,568	-200,000	0,014	-0,108
-685,554	-43,950	-0,192	-0,070
-684,539	475,719	0,041	-0,069
-683,524	295,314	-0,036	-0,049
-682,510	-17,582	-0,116	0,053
-681,495	-9,223	-0,084	-0,041
-680,481	-77,587	-0,149	0,038
-679,466	84,024	-0,135	-0,108
-678,451	199,036	0,032	-0,036
-677,437	189,520	-0,024	0,026
-676,422	479,006	0,082	0,136
-675,408	-200,000	0,007	0,128
-674,393	294,583	-0,071	-0,096
-673,378	-53,180	-0,029	0,010
-672,364	-31,950	-0,217	0,089
-671,349	-200,000	0,030	-0,185
-670,335	171,182	-0,085	-0,089
-669,320	-200,000	-0,004	-0,031
-668,305	-39,485	-0,058	-0,022
-667,291	-200,000	0,011	0,056
-666,276	-200,000	0,006	-0,032
-665,262	191,151	-0,074	-0,082
-664,247	-121,522	-0,118	-0,014
-663,232	-1,364	0,093	0,048
-662,218	760,082	0,034	0,067
-661,203	-200,000	0,018	-0,095
-660,189	218,703	-0,100	-0,117
-659,174	-200,000	0,013	0,109
-658,159	104,916	-0,070	-0,060
-657,145	-200,000	0,034	-0,141
-656,130	485,784	0,044	0,074
-655,116	748,628	-0,027	-0,055
-654,101	277,165	-0,036	-0,047
-653,086	146,503	0,033	0,033
-652,072	163,243	-0,118	-0,121
-651,057	-200,000	-0,003	-0,219
-650,043	3,131	0,109	-0,058
-649,028	-200,000	0,009	0,036
-648,014	-51,087	-0,010	0,003
-646,999	149,527	-0,075	0,075
-645,984	-200,000	0,008	-0,086
-644,970	113,597	0,011	0,009
-643,955	-200,000	-0,006	-0,069
-642,941	-200,000	0,033	-0,117
-641,926	800,000	-0,015	-0,032
-640,911	-162,006	-0,064	0,002
-639,897	-17,913	0,047	0,022
-638,882	730,157	0,066	0,130
-637,868	200,685	0,065	0,073
-636,853	-9,979	-0,189	0,092
-635,838	483,236	-0,068	-0,113
-634,824	800,000	0,049	-0,134
-633,809	-194,311	0,042	-0,000
-632,795	38,140	0,198	-0,128
-631,780	81,541	-0,085	-0,067
-630,765	-111,624	0,148	-0,022
-629,751	24,179	-0,184	-0,111
-628,736	172,188	-0,020	-0,021
-627,722	-98,160	-0,086	0,016
-626,707	484,961	0,045	-0,076
-625,692	-114,974	0,156	0,021
-624,678	-39,937	-0,221	-0,084
-623,663	800,000	0,059	0,125
-622,649	-200,000	-0,001	-0,207
-621,634	-98,078	-0,060	0,011
-620,619	800,000	0,060	0,150
-619,605	56,158	0,053	0,038
-618,590	-112,251	0,072	0,010
-617,576	-88,680	0,123	0,027
-616,561	46,714	-0,190	0,129
-615,546	70,065	-0,057	-0,043
-614,532	-200,000	0,001	0,018
-613,517	-67,613	-0,020	-0,006
-612,503	800,000	-0,035	0,086
-611,488	-75,195	0,115	0,030
-610,474	284,278	0,119	-0,157
-609,459	409,630	-0,043	0,067
-608,444	-63,015	-0,112	0,034
-607,430	132,825	-0,075	-0,071
-606,415	-29,289	0,011	0,004
-605,401	264,250	-0,076	-0,097
-604,386	800,000	-0,012	-0,024
-603,371	281,748	0,060	0,079
-602,357	-1,008	-0,025	-0,013
-601,342	-50,780	0,051	0,017
-600,328	90,131	-0,020	0,016
-599,313	507,213	-0,061	-0,104
-598,298	-70,128	-0,024	0,007
-597,284	376,124	-0,006	0,010
-596,269	-61,614	-0,103	0,031
-595,255	27,500	-0,059	0,036
-594,240	-163,599	-0,164	0,006
-593,225	-200,000	-0,012	-0,091
-592,211	113,805	0,017	-0,015
-591,196	800,000	0,011	-0,033
-590,182	306,936	-0,044	-0,061
-589,167	125,298	-0,071	-0,066
-588,152	577,163	0,018	0,032
-587,138	-7,677	-0,072	0,035
-586,123	104,148	-0,098	-0,084
-585,109	800,000	-0,009	0,021
-584,094	145,123	-0,172	0,168
-583,079	-34,834	-0,044	-0,017
-582,065	-108,347	-0,147	0,023
-581,050	102,159	0,074	0,063
-580,036	289,463	-0,041	0,055
-579,021	-132,637	-0,096	-0,009
-578,006	-31,262	-0,081	-0,033
-576,992	31,862	-0,034	-0,022
-575,977	-25,634	-0,101	-0,043
-574,963	274,444	0,034	-0,044
-573,948	-200,000	-0,004	0,097
-572,934	23,820	-0,064	-0,039
-571,919	205,094	-0,114	-0,129
-570,904	-168,280	-0,009	-0,000
-569,890	5,135	-0,035	-0,019
-568,875	-36,204	-0,093	-0,036
-567,861	394,361	-0,078	-0,119
-566,846	-200,000	0,015	-0,063
-565,831	-0,077	-0,088	0,046
-564,817	115,619	-0,157	-0,140
-563,802	-50,105	-0,057	-0,020
-562,788	-140,312	0,020	0,001
-561,773	-110,436	0,051	-0,008
-560,758	-200,000	0,024	-0,158
-559,744	88,281	-0,038	-0,031
-558,729	-200,000	-0,012	0,108
-557,715	-200,000	0,035	-0,139
-556,700	698,877	0,009	0,018
-555,685	153,145	-0,029	-0,029
-554,671	143,908	0,125	-0,122
-553,656	264,716	0,036	0,046
-552,642	-200,000	0,012	-0,088
-551,627	89,229	-0,100	0,081
-550,612	76,141	-0,094	-0,072
-549,598	-200,000	-0,006	-0,042
-548,583	800,000	0,011	0,024
-547,569	800,000	0,048	0,099
-546,554	800,000	0,035	0,073
-545,539	266,232	0,155	0,197
-544,525	43,407	0,052	0,034
-543,510	800,000	-0,015	-0,048
-542,496	238,055	0,044	0,054
-541,481	800,000	-0,047	-0,119
-540,466	36,191	0,064	-0,041
-539,452	129,633	-0,005	0,005
-538,437	-124,828	0,086	0,010
-537,423	-39,731	-0,097	-0,037
-536,408	660,762	-0,099	-0,187
-535,393	239,652	-0,077	-0,093
-534,379	-37,695	-0,111	-0,043
-533,364	-200,000	0,023	0,096
-532,350	-200,000	-0,011	0,047
-531,335	61,706	0,139	0,101
-530,321	80,274	0,125	0,098
-529,306	205,518	0,088	-0,100
-528,291	800,000	0,007	0,017
-527,277	119,971	-0,073	0,066
-526,262	-82,253	-0,089	0,021
-525,248	-200,000	0,029	0,115
-524,233	-200,000	-0,002	0,033
-523,218	429,430	0,054	0,086
-522,204	-56,535	0,007	-0,002
-521,189	0,887	0,070	0,037
-520,175	-200,000	-0,067	-0,241
-519,160	-175,115	-0,074	0,001
-518,145	800,000	-0,036	-0,094
-517,131	-18,644	0,066	0,030
-516,116	-5,369	0,067	-0,033
-515,102	-200,000	0,000	-0,097
-514,087	-127,731	-0,148	0,015
-513,072	269,556	0,032	-0,041
-512,058	133,314	-0,038	0,035
-511,043	-200,000	-0,016	-0,057
-510,029	77,755	-0,036	-0,028
-509,014	-200,000	0,021	0,200
-507,999	800,000	0,058	0,149
-506,985	39,059	-0,074	-0,048
-505,970	800,000	-0,042	-0,112
-504,956	-9,394	-0,185	-0,090
-503,941	139,405	0,084	-0,080
-502,926	498,294	-0,042	-0,071
-501,912	-149,492	0,096	-0,005
-500,897	230,094	0,037	-0,044
-499,883	48,162	0,132	-0,089
-498,868	23,291	-0,103	-0,061
-497,853	316,295	0,089	-0,123
-496,839	-79,399	0,029	0,007
-495,824	-96,430	0,066	0,012
-494,810	573,552	0,077	0,137
-493,795	800,000	0,029	0,083
-492,781	179,373	0,052	-0,055
-491,766	-75,792	-0,135	-0,034
-490,751	-200,000	0,002	0,051
-489,737	-50,144	-0,049	-0,017
-488,722	-200,000	0,023	0,173
-487,708	92,916	0,087	0,071
-486,693	-200,000	0,000	0,017
-485,678	-7,795	-0,077	-0,037
-484,664	3,973	-0,115	-0,061
-483,649	-200,000	-0,008	-0,060
-482,635	203,183	0,091	-0,103
-481,620	-120,468	0,158	-0,019
-480,605	166,871	0,078	-0,081
-479,591	-200,000	-0,055	0,178
-478,576	-200,000	0,024	0,098
-477,562	28,757	0,032	0,020
-476,547	-200,000	-0,007	-0,075
-475,532	723,663	-0,034	-0,066
-474,518	81,866	-0,142	0,112
-473,503	159,420	-0,035	-0,036
-472,489	-113,081	0,082	-0,012
-471,474	-35,105	0,063	0,025
-470,459	334,958	0,055	0,077
-469,445	-98,746	0,125	0,023
-468,430	-200,000	0,001	-0,159
-467,416	12,613	-0,037	0,020
-466,401	-89,579	0,033	-0,007
-465,386	315,788	-0,041	0,056
-464,372	-200,000	-0,010	0,054
-463,357	84,137	0,057	-0,045
-462,343	-45,208	-0,208	0,075
-461,328	-51,444	-0,157	-0,053
-460,313	-58,111	-0,085	0,027
-459,299	-200,000	-0,017	0,086
-458,284	66,733	0,053	-0,039
-457,270	568,844	0,044	-0,079
-456,255	-98,036	-0,067	-0,012
-455,241	-200,000	0,013	0,062
-454,226	-200,000	-0,006	-0,024
-453,211	131,195	-0,080	0,075
-452,197	-200,000	-0,005	-0,101
-451,182	185,733	0,013	0,014
-450,168	800,000	0,047	0,132
-449,153	538,606	0,063	0,109
-448,138	800,000	-0,068	-0,182
-447,124	-200,000	-0,005	-0,020
-446,109	308,427	-0,052	-0,071
-445,095	-60,561	0,167	-0,051
-444,080	243,953	0,052	0,064
-443,065	-8,575	0,057	0,028
-442,051	-200,000	-0,004	-0,022
-441,036	-200,000	-0,010	0,096
-440,022	800,000	-0,048	-0,133
-439,007	800,000	-0,016	0,035
-437,992	107,507	-0,108	-0,094
-436,978	-200,000	-0,003	0,079
-435,963	800,000	0,051	0,148
-434,949	800,000	0,048	0,106
-433,934	235,048	-0,075	-0,090
-432,919	13,297	0,029	0,016
-431,905	-200,000	-0,002	0,098
-430,890	134,953	0,081	0,076
-429,876	216,619	0,064	-0,074
-428,861	-145,201	0,064	-0,004
-427,846	-29,937	-0,103	-0,042
-426,832	-84,349	0,095	0,022
-425,817	-200,000	0,003	0,032
-424,803	4,318	0,139	0,074
-423,788	-181,758	0,043	-0,001
-422,773	-200,000	0,031	0,136
-421,759	302,870	0,031	0,042
-420,744	97,316	-0,039	-0,032
-419,730	465,631	-0,027	-0,044
-418,715	117,030	-0,061	-0,054
-417,701	800,000	0,031	-0,082
-416,686	106,445	0,064	0,055
-415,671	-131,841	0,065	-0,006
-414,657	18,549	-0,078	-0,045
-413,642	462,285	-0,031	0,050
-412,628	-104,229	-0,140	-0,023
-411,613	-45,331	-0,080	0,029
-410,598	577,119	0,028	-0,049
-409,584	-88,647	0,138	0,030
-408,569	242,949	0,108	0,132
-407,555	-200,000	-0,015	-0,052
-406,540	27,640	-0,039	0,024
-405,525	106,520	0,160	0,138
-404,511	800,000	-0,028	0,059
-403,496	-139,469	-0,111	-0,008
-402,482	128,623	0,079	0,073
-401,467	72,983	0,155	0,117
-400,452	-200,000	-0,015	0,127
-399,438	201,871	-0,055	0,061
-398,423	-23,484	-0,023	-0,010
-397,409	592,344	0,018	-0,032
-396,394	800,000	0,029	-0,059
-395,379	313,532	0,065	-0,089
-394,365	496,009	0,058	-0,097
-393,350	362,232	-0,037	0,054
-392,336	152,985	0,039	-0,039
-391,321	166,813	-0,006	-0,007
-390,306	-30,542	-0,181	0,074
-389,292	-60,983	0,041	0,012
-388,277	-200,000	0,039	0,142
-387,263	12,344	0,120	0,067
-386,248	369,242	-0,012	-0,018
-385,233	490,077	0,007	-0,011
-384,219	187,021	0,065	-0,070
-383,204	-200,000	0,003	-0,031
-382,190	79,864	0,031	-0,024
-381,175	132,154	-0,079	0,073
-380,160	-200,000	-0,015	-0,058
-379,146	-44,979	0,100	0,036
-378,131	347,664	-0,038	0,054
-377,117	41,064	0,045	-0,029
-376,102	40,031	0,039	-0,026
-375,088	183,817	0,030	-0,032
-374,073	-112,213	-0,111	0,016
-373,058	-132,734	-0,069	0,006
-372,044	123,352	0,038	0,035
-371,029	-200,000	-0,015	0,134
-370,015	495,139	0,050	0,083
-369,000	-200,000	0,006	0,084
-367,985	800,000	-0,027	-0,072
-366,971	-2,731	0,082	-0,041
-365,956	496,717	0,042	-0,070
-364,942	-168,933	0,059	0,002
-363,927	-140,726	0,241	0,018
-362,912	404,423	-0,017	-0,026
-361,898	-146,337	0,101	-0,006
-360,883	407,284	0,085	-0,130
-359,869	-200,000	-0,007	-0,025
-358,854	2,586	0,057	-0,030
-357,839	452,464	0,045	0,073
-356,825	378,200	0,034	0,050
-355,810	-105,082	-0,043	0,007
-354,796	-6,895	0,025	-0,012
-353,781	119,481	-0,105	0,094
-352,766	127,021	-0,049	0,045
-351,752	-200,000	0,014	-0,107
-350,737	40,753	0,102	-0,066
-349,723	-2,116	0,020	0,010
-348,708	766,343	-0,070	0,139
-347,693	520,894	0,068	0,115
-346,679	-14,775	-0,178	-0,082
-345,664	515,230	0,049	-0,083
-344,650	66,058	-0,037	0,027
-343,635	-2,094	-0,061	0,031
-342,620	259,926	0,065	0,081
-341,606	148,358	-0,086	-0,084
-340,591	-89,813	0,112	0,024
-339,577	-13,252	0,133	-0,062
-338,562	418,462	0,097	-0,150
-337,548	-200,000	0,016	-0,189
-336,533	-94,816	0,165	0,032
-335,518	229,962	0,054	-0,064
-334,504	800,000	0,002	0,004
-333,489	239,586	0,071	0,086
-332,475	-97,456	0,038	-0,007
-331,460	239,682	0,061	-0,074
-330,445	-66,797	0,103	0,029
-329,431	-79,238	-0,053	-0,013
-328,416	57,780	-0,033	0,023
-327,402	-200,000	0,018	0,082
-326,387	-8,010	0,144	-0,070
-325,372	-200,000	-0,013	0,091
-324,358	156,685	-0,030	0,030
-323,343	-18,206	0,042	0,019
-322,329	800,000	0,046	0,100
-321,314	329,131	-0,054	0,075
-320,299	199,232	-0,057	0,063
-319,285	-200,000	0,016	0,057
-318,270	-200,000	-0,006	-0,068
-317,256	101,694	-0,124	0,104
-316,241	-100,926	0,102	-0,018
-315,226	424,262	-0,035	-0,055
-314,212	406,382	-0,130	0,199
-313,197	186,128	-0,037	-0,040
-312,183	800,000	0,037	-0,097
-311,168	418,519	-0,017	-0,027
-310,153	-29,072	-0,092	-0,038
-309,139	-200,000	-0,011	0,052
-308,124	47,394	-0,056	-0,038
-307,110	800,000	0,036	0,088
-306,095	-200,000	-0,007	0,067
-305,080	343,284	-0,064	0,091
-304,066	-200,000	0,018	0,101
-303,051	101,054	-0,064	0,054
-302,037	-135,830	0,106	-0,009
-301,022	-156,569	0,121	-0,005
-300,008	800,000	0,008	-0,019
-298,993	63,608	-0,013	0,009
-297,978	252,986	0,073	-0,090
-296,964	-200,000	-0,047	-0,162
-295,949	147,468	0,024	-0,023
-294,935	590,986	0,034	-0,061
-293,920	-64,698	0,210	-0,061
-292,905	-12,120	0,044	0,021
-291,891	-200,000	-0,034	-0,114
-290,876	273,774	-0,086	0,110
-289,862	19,224	0,042	-0,024
-288,847	-47,886	0,069	-0,024
-287,832	800,000	-0,066	-0,143
-286,818	-169,305	-0,055	-0,001
-285,803	-86,909	-0,051	-0,011
-284,789	384,689	0,102	0,152
-283,774	-10,164	0,108	-0,052
-282,759	141,100	0,058	-0,055
-281,745	-124,857	-0,039	0,004
-280,730	800,000	0,043	0,119
-279,716	-72,700	0,061	-0,016
-278,701	267,927	0,047	-0,060
-277,686	0,599	0,050	-0,026
-276,672	800,000	0,011	0,032
-275,657	-200,000	0,005	-0,049
-274,643	800,000	-0,036	-0,074
-273,628	14,684	-0,029	0,016
-272,613	-34,620	-0,099	-0,039
-271,599	716,906	0,065	-0,125
-270,584	-9,573	0,091	0,044
-269,570	415,500	-0,073	0,113
-268,555	-200,000	0,016	-0,056
-267,540	183,944	-0,051	-0,055
-266,526	-200,000	-0,026	-0,137
-265,511	691,019	0,059	0,111
-264,497	-15,172	-0,128	0,059
-263,482	-200,000	0,014	0,076
-262,467	53,594	0,069	0,048
-261,453	-200,000	0,016	0,109
-260,438	36,880	0,060	-0,038
-259,424	-56,904	-0,196	0,062
-258,409	-200,000	0,006	-0,134
-257,395	-141,224	-0,120	-0,009
-256,380	704,284	0,006	0,012
-255,365	68,130	0,083	-0,062
-254,351	800,000	-0,029	0,087
-253,336	-200,000	-0,003	0,016
-252,322	800,000	0,038	-0,078
-251,307	-200,000	-0,003	0,072
-250,292	-23,680	-0,019	0,008
-249,278	-157,126	-0,146	-0,006
-248,263	448,580	0,065	0,104
-247,249	-200,000	0,032	0,126
-246,234	800,000	-0,015	-0,035
-245,219	-200,000	-0,031	-0,110
-244,205	128,933	0,094	-0,086
-243,190	8,589	0,055	0,030
-242,176	169,706	0,065	0,067
-241,161	-79,754	-0,022	0,005
-240,146	88,551	-0,144	-0,115
-239,132	-200,000	0,029	0,136
-238,117	167,565	0,054	0,056
-237,103	-147,019	-0,107	-0,007
-236,088	-24,697	0,106	0,045
-235,073	168,483	0,083	0,085
-234,059	-200,000	-0,004	-0,039
-233,044	55,656	0,098	0,068
-232,030	290,342	0,094	0,123
-231,015	398,159	-0,035	0,053
-230,000	-24,436	-0,050	-0,021
-228,986	462,002	-0,074	-0,120
-227,971	-200,000	-0,003	0,131
-226,957	-200,000	-0,011	-0,041
-225,942	800,000	-0,030	-0,072
-224,927	-125,145	-0,026	0,003
-223,913	45,270	-0,162	-0,107
-222,898	-64,910	0,162	-0,047
-221,884	-200,000	-0,033	-0,189
-220,869	495,790	0,010	-0,017
-219,855	765,128	-0,068	0,134
-218,840	800,000	-0,051	0,103
-217,825	800,000	-0,032	-0,092
-216,811	100,402	-0,078	-0,065
-215,796	146,362	-0,024	0,023
-214,782	-18,081	-0,064	-0,029
-213,767	38,282	0,054	0,034
-212,752	-128,323	0,107	0,011
-211,738	12,047	0,100	0,055
-210,723	307,475	0,055	-0,074
-209,709	119,481	-0,087	-0,078
-208,694	-200,000	0,002	0,027
-207,679	118,444	-0,023	-0,020
-206,665	-200,000	0,011	-0,209
-205,650	19,566	0,092	0,053
-204,636	88,641	0,151	0,121
-203,621	-146,612	-0,225	-0,014
-202,606	-106,870	-0,043	-0,007
-201,592	-129,689	-0,108	-0,011
-200,577	67,893	0,235	-0,173
-199,563	-27,379	0,076	-0,032
-198,548	-36,379	0,064	0,025
-197,533	-96,831	-0,103	-0,019
-196,519	93,432	-0,109	0,089
-195,504	68,014	-0,088	-0,064
-194,490	-23,089	0,071	-0,031
-193,475	-200,000	0,012	0,044
-192,460	-75,080	0,044	0,011
-191,446	-47,492	-0,137	-0,048
-190,431	-200,000	-0,010	-0,034
-189,417	-63,916	-0,024	0,007
-188,402	71,447	-0,009	-0,007
-187,387	174,068	-0,094	-0,098
-186,373	800,000	0,027	0,066
-185,358	-192,929	-0,082	0,001
-184,344	512,172	0,012	0,020
-183,329	800,000	0,073	0,170
-182,315	60,253	0,044	0,031
-181,300	-51,361	-0,088	-0,029
-180,285	-200,000	0,014	-0,108
-179,271	-79,466	0,111	-0,027
-178,256	-200,000	-0,002	0,085
-177,242	-104,451	0,239	0,039
-176,227	34,452	0,051	-0,032
-175,212	101,741	-0,088	-0,074
-174,198	800,000	-0,028	0,064
-173,183	-53,896	-0,117	0,038
-172,169	-41,249	-0,110	-0,041
-171,154	311,822	-0,048	0,065
-170,139	800,000	0,003	-0,009
-169,125	29,573	0,164	-0,100
-168,110	143,774	0,008	-0,007
-167,096	0,094	-0,048	0,025
-166,081	-99,747	0,017	-0,003
-165,066	800,000	-0,020	-0,053
-164,052	88,541	-0,043	-0,034
-163,037	-200,000	-0,004	0,171
-162,023	67,188	-0,076	0,055
-161,008	-200,000	0,012	0,132
-159,993	159,247	0,057	-0,057
-158,979	101,843	-0,082	0,068
-157,964	-200,000	0,003	-0,042
-156,950	328,236	-0,043	0,059
-155,935	-200,000	-0,016	0,093
-154,920	-76,110	0,030	0,008
-153,906	-24,345	0,085	0,036
-152,891	-118,875	-0,161	0,020
-151,877	788,409	0,018	0,037
-150,862	-200,000	0,019	-0,153
-149,847	800,000	-0,026	0,069
-148,833	-200,000	0,012	-0,100
-147,818	261,284	-0,128	0,159
-146,804	-200,000	-0,008	0,188
-145,789	417,350	0,073	-0,113
-144,775	-200,000	0,018	-0,191
-143,760	-151,249	-0,108	0,006
-142,745	-47,133	0,085	0,030
-141,731	19,150	-0,124	-0,071
-140,716	-200,000	0,006	0,041
-139,702	19,632	0,123	0,071
-138,687	-200,000	0,006	0,042
-137,672	-200,000	-0,020	0,076
-136,658	365,829	0,023	-0,033
-135,643	800,000	-0,029	0,078
-134,629	800,000	-0,031	0,078
-133,614	800,000	0,021	0,064
-132,599	-5,386	0,121	0,059
-131,585	515,464	0,012	-0,021
-130,570	800,000	0,034	0,079
-129,556	185,781	0,013	0,014
-128,541	-27,482	-0,071	-0,029
-127,526	-78,109	-0,184	0,045
-126,512	-200,000	0,004	-0,097
-125,497	-200,000	0,024	0,097
-124,483	-80,155	0,085	-0,020
-123,468	-84,357	-0,085	0,019
-122,453	459,681	-0,070	-0,112
-121,439	34,467	-0,127	-0,079
-120,424	385,808	0,020	0,030
-119,410	85,218	-0,092	-0,072
-118,395	188,483	-0,056	0,061
-117,380	134,892	0,103	0,096
-116,366	-47,896	0,145	0,050
-115,351	115,764	-0,139	-0,122
-114,337	657,356	-0,007	-0,013
-113,322	22,918	-0,039	-0,023
-112,307	-183,126	0,042	0,001
-111,293	105,016	-0,069	-0,058
-110,278	295,668	0,043	0,056
-109,264	-117,315	0,193	-0,025
-108,249	800,000	-0,035	-0,095
-107,234	108,028	0,062	0,053
-106,220	-200,000	-0,017	0,130
-105,205	493,247	0,040	0,066
-104,191	-67,113	0,035	-0,010
-103,176	478,160	0,028	0,045
-102,162	474,901	0,021	-0,033
-101,147	-137,540	0,021	-0,002
-100,132	-57,871	-0,197	0,061
-99,118	-88,501	-0,118	-0,025
-98,103	80,117	0,029	-0,022
-97,089	200,839	-0,047	0,051
-96,074	800,000	0,014	0,045
-95,059	87,387	0,088	0,070
-94,045	800,000	0,061	-0,166
-93,030	800,000	-0,028	-0,083
-92,016	663,785	-0,044	-0,081
-91,001	126,407	0,121	-0,110
-89,986	275,064	0,081	-0,103
-88,972	107,643	0,029	0,025
-87,957	-200,000	0,023	0,091
-86,943	-64,085	-0,120	0,035
-85,928	552,127	-0,064	0,111
-84,913	-200,000	0,002	0,068
-83,899	245,536	-0,076	-0,092
-82,884	-200,000	-0,007	-0,129
-81,870	71,522	0,175	0,130
-80,855	800,000	-0,027	0,074
-79,840	75,607	0,037	0,028
-78,826	800,000	-0,043	-0,088
-77,811	458,224	0,046	-0,073
-76,797	316,856	0,035	-0,047
-75,782	494,395	0,057	0,093
-74,767	800,000	-0,064	0,152
-73,753	18,508	0,065	0,037
-72,738	386,068	-0,032	-0,047
-71,724	221,406	-0,193	-0,222
-70,709	104,522	-0,085	-0,072
-69,694	14,154	-0,108	0,060
-68,680	-127,764	0,050	0,005
-67,665	438,567	0,010	-0,016
-66,651	-111,295	-0,138	0,020
-65,636	34,504	-0,051	0,032
-64,622	-200,000	-0,011	-0,046
-63,607	800,000	-0,017	0,045
-62,592	-63,076	0,049	0,015
-61,578	-46,920	0,181	0,063
-60,563	395,357	0,029	-0,044
-59,549	-188,454	-0,077	-0,001
-58,534	13,121	-2,309	-1,276
-57,519	-200,000	-0,022	-0,726
-56,505	-200,000	-1,439	-5,253
-55,490	135,064	0,848	0,789
-54,476	800,000	5,442	12,332
-53,461	-200,000	19,243	322,201
-52,446	800,000	749,162	2315,224
-51,432	541,560	1660,898	2843,435
-50,417	114,070	1640,022	1427,435
-49,403	80,330	1288,114	991,298
-48,388	30,754	1027,854	628,220
-47,373	19,485	990,576	568,304
-46,359	16,351	978,261	550,946
-45,344	12,928	974,937	537,842
-44,330	13,356	973,179	538,251
-43,315	12,554	971,307	534,573
-42,300	12,614	970,130	534,100
-41,286	12,608	969,004	533,439
-40,271	12,588	968,250	532,938
-39,257	12,600	967,300	532,432
-38,242	12,519	966,646	531,789
-37,227	12,523	965,765	531,295
-36,213	12,561	964,785	530,860
-35,198	12,489	963,969	530,157
-34,184	12,591	963,099	529,988
-33,169	12,536	962,132	529,254
-32,154	12,541	961,503	528,906
-31,140	12,567	960,305	528,309
-30,125	12,653	959,606	528,180
-29,111	12,592	958,740	527,487
-28,096	12,541	958,105	526,952
-27,082	12,561	957,334	526,572
-26,067	12,530	956,556	526,023
-25,052	12,504	955,871	525,542
-24,038	12,575	955,285	525,428
-23,023	12,564	954,754	525,078
-22,009	12,634	954,110	524,929
-20,994	12,589	953,547	524,454
-19,979	12,541	952,887	523,917
-18,965	12,518	952,365	523,534
-17,950	12,610	951,554	523,361
-16,936	12,516	951,099	522,789
-15,921	12,529	950,257	522,349
-14,906	12,511	949,540	521,874
-13,892	12,465	948,846	521,328
-12,877	12,396	948,279	520,774
-11,863	12,420	947,649	520,485
-10,848	12,436	947,070	520,197
-9,833	12,447	946,697	520,005
-8,819	12,502	945,798	519,668
-7,804	12,439	945,336	519,191
-6,790	12,450	944,628	518,817
-5,775	12,549	944,130	518,837
-4,760	12,570	943,397	518,481
-3,746	12,482	942,919	517,919
-2,731	12,315	942,126	516,933
-1,717	12,295	941,459	516,485
-0,702	12,328	940,787	516,199
0,313	12,065	940,144	515,794
1,327	15,689	938,002	525,996
2,342	25,115	793,044	469,632
3,356	21,595	459,587	266,753
4,371	-5,398	318,273	155,723
5,386	-9,210	300,316	143,020
6,400	-10,920	294,314	138,431
7,415	-10,978	291,835	137,195
8,429	-10,994	290,342	136,465
9,444	-11,077	289,492	135,972
10,459	-10,865	288,646	135,772
11,473	-11,191	288,043	135,155
12,488	-11,413	287,477	134,659
13,502	-11,767	286,877	134,019
14,517	-11,613	286,444	133,956
15,531	-11,353	286,147	134,059
16,546	-11,291	285,747	133,921
17,561	-11,107	285,262	133,860
18,575	-11,154	285,108	133,731
19,590	-11,327	284,770	133,391
20,604	-11,110	284,474	133,452
21,619	-11,237	284,041	133,114
22,634	-11,168	283,590	132,957
23,648	-11,171	283,304	132,808
24,663	-11,351	283,137	132,545
25,677	-11,168	282,707	132,508
26,692	-11,194	282,650	132,444
27,707	-11,107	282,228	132,319
28,721	-11,393	282,121	131,981
29,736	-11,450	281,762	131,747
30,750	-11,260	281,564	131,825
31,765	-11,219	281,173	131,669
32,780	-11,165	280,943	131,601
33,794	-11,245	280,793	131,443
34,809	-11,339	280,458	131,184
35,823	-11,339	280,104	131,007
36,838	-11,346	279,744	130,821
37,853	-11,320	279,571	130,753
38,867	-11,408	279,445	130,599
39,882	-11,291	279,256	130,610
40,896	-11,386	278,877	130,330
41,911	-11,431	278,800	130,241
42,926	-11,463	278,499	130,058
43,940	-11,465	277,938	129,783
44,955	-11,412	277,990	129,845
45,969	-11,483	277,748	129,653
46,984	-11,391	277,461	129,595
47,999	-11,603	277,208	129,266
49,013	-11,539	277,087	129,257
50,028	-11,588	276,700	129,019
51,042	-11,541	276,417	128,920
52,057	-11,518	276,128	128,796
53,071	-11,810	276,007	128,453
54,086	-11,782	275,826	128,384
55,101	-11,700	275,646	128,366
56,115	-11,546	275,347	128,359
57,130	-11,351	275,201	128,461
58,144	-11,574	274,870	128,088
59,159	-11,369	274,698	128,187
60,174	-11,431	274,496	128,024
61,188	-11,317	274,207	127,984
62,203	-11,308	274,035	127,901
63,217	-11,413	273,909	127,733
64,232	-11,352	273,549	127,610
65,247	-11,374	273,342	127,482
66,261	-11,499	273,140	127,260
67,276	-11,344	272,847	127,256
68,290	-11,423	272,493	127,006
69,305	-11,535	272,321	126,811
70,320	-11,479	272,100	126,749
71,334	-11,356	271,932	126,773
72,349	-11,222	271,708	126,781
73,363	-11,407	271,493	126,499
74,378	-11,405	271,256	126,379
75,393	-11,406	270,974	126,236
76,407	-11,295	270,833	126,260
77,422	-11,279	270,626	126,168
78,436	-11,535	270,365	125,799
79,451	-11,346	270,116	125,846
80,466	-11,460	269,916	125,637
81,480	-11,678	269,712	125,331
82,495	-11,495	269,587	125,429
83,509	-11,401	269,285	125,363
84,524	-11,539	269,163	125,170
85,539	-11,546	269,009	125,080
86,553	-11,562	268,698	124,910
87,568	-11,430	268,399	124,880
88,582	-11,653	268,298	124,619
89,597	-11,622	267,971	124,484
90,611	-11,338	267,863	124,681
91,626	-11,390	267,635	124,516
92,641	-11,512	267,585	124,371
93,655	-11,464	267,249	124,248
94,670	-11,491	266,953	124,074
95,684	-11,529	266,785	123,950
96,699	-11,478	266,621	123,910
97,714	-11,600	266,307	123,643
98,728	-11,521	266,223	123,664
99,743	-11,378	265,928	123,644
100,757	-11,584	265,865	123,419
101,772	-11,668	265,579	123,200
102,787	-11,448	265,310	123,261
103,801	-11,294	264,988	123,239
104,816	-11,703	265,198	122,959
105,830	-11,619	264,778	122,828
106,845	-11,697	264,637	122,682
107,860	-11,520	264,350	122,697
108,874	-11,718	264,174	122,427
109,889	-11,598	263,953	122,421
110,903	-11,705	263,655	122,176
111,918	-11,636	263,477	122,143
112,933	-11,669	263,266	122,006
113,947	-11,404	263,143	122,174
114,962	-11,735	263,013	121,808
115,976	-11,537	262,709	121,832
116,991	-11,465	262,684	121,874
118,006	-11,531	262,486	121,713
119,020	-11,562	262,323	121,599
120,035	-11,501	262,154	121,563
121,049	-11,659	262,081	121,379
122,064	-11,347	261,694	121,465
123,079	-11,596	261,530	121,158
124,093	-11,634	261,380	121,044
125,108	-11,604	260,987	120,878
126,122	-11,529	260,855	120,872
127,137	-11,528	260,712	120,796
128,151	-11,511	260,505	120,704
129,166	-11,565	260,314	120,557
130,181	-11,723	260,135	120,325
131,195	-11,540	259,685	120,266
132,210	-11,620	259,650	120,169
133,224	-11,562	259,475	120,128
134,239	-11,564	259,261	120,017
135,254	-11,584	259,079	119,905
136,268	-11,719	258,862	119,675
137,283	-11,582	258,543	119,637
138,297	-11,811	258,516	119,414
139,312	-11,732	258,249	119,349
140,327	-11,319	258,024	119,593
141,341	-11,471	258,072	119,473
142,356	-11,329	257,831	119,474
143,370	-11,383	257,502	119,264
144,385	-11,212	257,439	119,373
145,400	-11,260	257,220	119,219
146,414	-11,248	257,106	119,166
147,429	-11,193	256,731	119,029
148,443	-11,582	256,735	118,684
149,458	-11,250	256,408	118,809
150,473	-11,533	256,230	118,471
151,487	-11,440	255,986	118,428
152,502	-11,341	255,894	118,460
153,516	-11,233	255,827	118,512
154,531	-11,373	255,421	118,193
155,546	-11,478	255,320	118,045
156,560	-11,420	255,180	118,020
157,575	-11,563	254,812	117,716
158,589	-11,597	254,902	117,718
159,604	-11,382	254,508	117,710
160,619	-11,175	254,559	117,901
161,633	-10,939	254,364	118,002
162,648	-11,112	254,245	117,788
163,662	-11,268	253,761	117,420
164,677	-11,204	253,643	117,410
165,692	-11,486	253,554	117,117
166,706	-11,243	253,411	117,248
167,721	-10,832	253,310	117,541
168,735	-11,010	253,265	117,358
169,750	-11,271	252,841	116,929
170,764	-11,211	252,666	116,889
171,779	-11,422	252,574	116,656
172,794	-11,343	252,522	116,689
173,808	-11,209	252,021	116,561
174,823	-11,605	252,013	116,211
175,837	-11,594	251,626	116,032
176,852	-11,566	251,736	116,096
177,867	-11,565	251,612	116,030
178,881	-11,418	251,461	116,073
179,896	-11,452	251,150	115,890
180,910	-11,380	251,005	115,874
181,925	-11,447	250,795	115,710
182,940	-11,366	250,701	115,725
183,954	-11,312	250,416	115,628
184,969	-11,284	250,443	115,654
185,983	-11,002	250,283	115,807
186,998	-10,791	250,031	115,858
188,013	-10,907	249,776	115,632
189,027	-11,214	249,540	115,255
190,042	-11,187	249,435	115,219
191,056	-11,375	249,323	114,999
192,071	-11,548	249,106	114,745
193,086	-11,622	248,758	114,512
194,100	-11,455	248,617	114,576
195,115	-11,298	248,515	114,650
196,129	-11,272	248,260	114,544
197,144	-11,243	248,163	114,513
198,159	-11,468	247,931	114,208
199,173	-11,478	247,728	114,097
200,188	-11,721	247,557	113,806
201,202	-11,926	247,295	113,505
202,217	-11,795	246,937	113,439
203,232	-12,051	246,852	113,178
204,246	-12,319	246,685	112,868
205,261	-12,046	246,369	112,940
206,275	-12,264	246,370	112,750
207,290	-11,335	246,449	113,544
208,304	-7,084	247,783	117,680
209,319	-3,885	248,741	120,787
210,334	-2,652	248,836	121,848
211,348	-1,695	249,225	122,824
212,363	-1,432	249,201	123,020
213,377	-1,145	249,234	123,264
214,392	-0,667	249,273	123,669
215,407	-0,304	249,115	123,881
216,421	-0,437	249,000	123,702
217,436	-0,436	248,686	123,537
218,450	-0,396	248,526	123,479
219,465	-0,592	248,262	123,175
220,480	-0,586	248,177	123,127
221,494	-0,576	247,935	123,004
222,509	-0,758	247,813	122,782
223,523	-0,676	247,739	122,802
224,538	-0,468	247,355	122,772
225,553	-0,596	247,341	122,649
226,567	-0,712	247,109	122,428
227,582	-0,740	246,982	122,330
228,596	-0,655	246,871	122,334
229,611	-0,629	246,729	122,275
230,626	-0,820	246,580	122,033
231,640	-0,906	246,390	121,858
232,655	-0,791	246,184	121,839
233,669	-0,807	245,977	121,713
234,684	-0,840	245,894	121,634
235,699	-0,737	245,731	121,626
236,713	-0,838	245,582	121,459
237,728	-0,737	245,358	121,421
238,742	-0,674	245,042	121,304
239,757	-0,711	244,996	121,241
240,772	-0,738	244,771	121,097
241,786	-0,856	244,675	120,942
242,801	-0,702	244,520	120,980
243,815	-0,781	244,285	120,788
244,830	-0,896	244,267	120,676
245,844	-0,818	244,050	120,621
246,859	-0,869	243,919	120,504
247,874	-0,659	243,617	120,515
248,888	-0,919	243,544	120,257
249,903	-0,782	243,439	120,305
250,917	-0,688	243,228	120,266
251,932	-0,673	243,109	120,209
252,947	-0,703	242,949	120,095
253,961	-0,635	242,706	120,019
254,976	-0,912	242,583	119,724
255,990	-0,608	242,320	119,829
257,005	-0,898	242,350	119,599
258,020	-0,830	242,166	119,552
259,034	-0,658	241,908	119,553
260,049	-0,714	241,773	119,430
261,063	-0,830	241,658	119,269
262,078	-0,678	241,422	119,264
263,093	-0,619	241,242	119,212
264,107	-0,640	241,121	119,125
265,122	-0,644	240,976	119,040
266,136	-0,752	240,802	118,857
267,151	-0,850	240,753	118,743
268,166	-0,741	240,563	118,726
269,180	-0,833	240,388	118,555
270,195	-0,751	240,195	118,515
271,209	-0,934	239,977	118,252
272,224	-0,764	239,843	118,310
273,239	-0,635	239,690	118,327
274,253	-0,656	239,639	118,274
275,268	-0,900	239,492	117,997
276,282	-0,515	239,226	118,161
277,297	-0,779	239,105	117,881
278,312	-0,600	238,876	117,900
279,326	-0,638	238,822	117,832
280,341	-0,623	238,656	117,752
281,355	-0,472	238,532	117,799
282,370	-0,532	238,217	117,587
283,384	-0,735	238,276	117,445
284,399	-0,485	238,034	117,512
285,414	-0,661	238,015	117,353
286,428	-0,625	237,739	117,235
287,443	-0,426	237,615	117,321
288,457	-0,747	237,583	117,041
289,472	-0,543	237,306	117,054
290,487	-0,489	237,117	116,994
291,501	-0,418	236,920	116,941
292,516	-0,740	237,049	116,742
293,530	-0,563	236,767	116,731
294,545	-0,651	236,577	116,559
295,560	-0,728	236,587	116,493
296,574	-0,483	236,256	116,511
297,589	-0,317	235,994	116,501
298,603	-0,598	236,071	116,309
299,618	-0,524	235,785	116,216
300,633	-0,359	235,757	116,321
301,647	-0,362	235,534	116,198
302,662	-0,322	235,428	116,166
303,676	-0,405	235,183	115,970
304,691	-0,453	235,034	115,849
305,706	-0,415	234,924	115,814
306,720	-0,289	234,741	115,811
307,735	-0,275	234,570	115,727
308,749	-0,695	234,736	115,473
309,764	-0,481	234,326	115,427
310,779	-0,295	234,156	115,477
311,793	-0,318	234,029	115,386
312,808	-0,341	233,805	115,248
313,822	-0,477	233,715	115,088
314,837	-0,220	233,528	115,184
315,852	-0,189	233,420	115,144
316,866	0,084	233,279	115,275
317,881	-0,164	233,240	115,054
318,895	-0,354	233,184	114,870
319,910	-0,320	232,822	114,708
320,925	-0,223	232,755	114,739
321,939	-0,300	232,615	114,601
322,954	-0,247	232,497	114,573
323,968	-0,160	232,268	114,517
324,983	-0,061	232,210	114,554
325,997	-0,161	232,115	114,420
327,012	-0,126	231,889	114,325
328,027	-0,133	231,737	114,235
329,041	-0,025	231,602	114,240
330,056	-0,062	231,376	114,090
331,070	-0,172	231,326	113,972
332,085	-0,062	231,083	113,926
333,100	-0,101	230,893	113,792
334,114	0,088	230,725	113,843
335,129	-0,090	230,639	113,655
336,143	0,078	230,630	113,768
337,158	-0,023	230,491	113,613
338,173	-0,071	230,315	113,479
339,187	0,193	230,087	113,557
340,202	0,237	229,916	113,497
341,216	0,016	229,941	113,331
342,231	0,117	229,634	113,246
343,246	-0,054	229,606	113,093
344,260	0,063	229,315	113,028
345,275	0,027	229,434	113,049
346,289	0,134	229,161	112,985
347,304	0,139	228,954	112,877
348,319	0,144	228,865	112,826
349,333	0,209	228,829	112,848
350,348	0,033	228,612	112,598
351,362	0,044	228,435	112,509
352,377	0,225	228,274	112,556
353,392	0,230	228,167	112,497
354,406	0,261	227,960	112,408
355,421	197,061	1317,139	1394,445
356,435	158,100	1449,795	1394,386
