DTS Sentinel unit serial number:	SN410029Multiplexer serial number:	ORYXHardware model number:	OX2-SRSoftware version number:	ORYX F/W v4,00 Oryx Data Collector v3.7.2.0data status	okinstallation	B5 Nyhavnadifferential loss correction	single-endedforward channel	channel 2reverse channel	N/Adate	2023/12/13time	02:57:13forward acquisition time	300,00reverse acquisition time	0,00gamma	499,1914k internal	0,3160k external	0,3160temperature offset calibration	1,0000default loss term (dB/km)	0,3820temperature slope calibration	1,0000multiplexer offset coefficient	1,0000multiplexer slope coefficient	1,0000fibre end	0,00T internal ref (°C)	13,98T ext. ref 1 (°C)	-2,48T ext. ref 2 (°C)	-2,79length (m)	temperature (°C)	Stokes	anti-Stokes-744,400	300,420	0,121	-0,165
-743,385	-160,708	-0,282	0,011
-742,371	82,962	0,059	0,047
-741,356	-102,312	-0,289	0,051
-740,342	-75,546	0,044	-0,011
-739,327	-37,211	-0,267	0,105
-738,312	-1,824	0,070	0,036
-737,298	-123,929	-0,437	-0,050
-736,283	447,976	0,045	0,073
-735,269	-63,533	-0,274	0,082
-734,254	-200,000	0,017	0,134
-733,239	-58,007	-0,571	-0,182
-732,225	36,223	0,142	0,092
-731,210	-200,000	0,017	0,085
-730,196	800,000	-0,016	0,039
-729,181	800,000	-0,032	0,071
-728,167	-20,335	0,113	-0,051
-727,152	-200,000	-0,018	0,170
-726,137	202,074	-0,052	-0,059
-725,123	55,988	0,064	-0,045
-724,108	49,935	-0,152	-0,106
-723,094	-128,176	-0,093	0,010
-722,079	-200,000	0,026	-0,135
-721,064	39,816	-0,042	-0,027
-720,050	800,000	0,021	0,064
-719,035	37,705	-0,109	-0,071
-718,021	82,862	-0,073	-0,058
-717,006	-19,704	-0,091	-0,041
-715,991	-200,000	0,005	-0,109
-714,977	-76,433	-0,196	-0,050
-713,962	45,081	0,074	0,050
-712,948	369,773	0,087	0,130
-711,933	-200,000	0,007	0,132
-710,918	70,028	-0,038	0,029
-709,904	-57,651	-0,141	-0,045
-708,889	9,576	-0,094	-0,052
-707,875	-97,847	-0,246	0,046
-706,860	411,714	0,043	-0,067
-705,845	24,584	-0,088	-0,054
-704,831	-200,000	-0,000	0,056
-703,816	602,513	-0,029	0,053
-702,802	-200,000	-0,001	0,060
-701,787	-200,000	0,018	-0,106
-700,772	-92,631	0,045	0,009
-699,758	688,774	0,035	-0,068
-698,743	92,964	0,045	0,037
-697,729	-200,000	0,015	-0,067
-696,714	-101,079	-0,118	0,021
-695,699	111,004	-0,104	-0,092
-694,685	800,000	0,018	0,040
-693,670	-200,000	0,018	-0,077
-692,656	172,242	0,078	-0,083
-691,641	-4,192	-0,033	-0,017
-690,627	-200,000	0,020	-0,075
-689,612	-8,990	0,083	0,041
-688,597	-200,000	0,010	0,046
-687,583	58,056	0,030	-0,022
-686,568	-200,000	0,016	0,199
-685,554	333,646	-0,083	-0,118
-684,539	-4,299	-0,062	0,031
-683,524	793,376	-0,077	0,156
-682,510	-179,826	0,107	0,002
-681,495	-69,020	-0,095	-0,027
-680,481	437,439	-0,058	-0,093
-679,466	-123,882	0,076	0,009
-678,451	54,870	-0,009	-0,007
-677,437	610,377	0,039	-0,072
-676,422	-200,000	0,005	0,054
-675,408	126,206	-0,087	-0,081
-674,393	166,749	0,083	0,086
-673,378	-142,869	0,023	0,002
-672,364	188,153	-0,025	-0,028
-671,349	-48,493	-0,088	-0,031
-670,335	-200,000	-0,005	0,180
-669,320	-87,438	-0,120	0,026
-668,305	192,480	-0,087	0,096
-667,291	-146,990	-0,162	0,010
-666,276	26,795	-0,065	0,040
-665,262	383,640	-0,082	-0,125
-664,247	729,768	-0,025	-0,050
-663,232	319,336	0,052	-0,073
-662,218	-89,430	0,105	0,022
-661,203	-200,000	0,018	0,102
-660,189	60,936	-0,042	0,031
-659,174	-151,342	-0,072	-0,004
-658,159	-50,045	-0,122	0,042
-657,145	-200,000	-0,056	-0,224
-656,130	-89,241	0,129	0,028
-655,116	265,853	0,080	-0,103
-654,101	181,000	0,047	0,051
-653,086	-0,558	-0,138	-0,072
-652,072	-148,967	0,032	0,002
-651,057	83,223	-0,101	0,080
-650,043	37,577	-0,112	-0,073
-649,028	-117,699	0,188	-0,025
-648,014	-35,682	-0,064	0,026
-646,999	-76,383	-0,045	0,011
-645,984	443,848	0,060	0,097
-644,970	800,000	0,016	-0,047
-643,955	104,386	-0,077	-0,066
-642,941	-200,000	-0,005	-0,185
-641,926	72,261	-0,055	0,042
-640,911	7,999	-0,081	0,045
-639,897	319,808	0,049	-0,069
-638,882	303,202	-0,045	-0,062
-637,868	-200,000	-0,020	-0,203
-636,853	-139,681	-0,126	-0,010
-635,838	800,000	-0,059	-0,155
-634,824	213,318	-0,036	0,042
-633,809	-200,000	0,021	0,136
-632,795	-109,678	0,042	-0,006
-631,780	-200,000	-0,008	-0,046
-630,765	47,265	-0,089	-0,061
-629,751	7,947	0,078	-0,043
-628,736	379,146	0,094	-0,141
-627,722	219,323	0,115	-0,136
-626,707	52,868	0,100	0,070
-625,692	450,957	0,024	-0,039
-624,678	-114,681	0,148	0,021
-623,663	-80,415	-0,066	0,016
-622,649	66,814	-0,134	0,100
-621,634	91,669	-0,026	-0,021
-620,619	-28,571	-0,059	-0,025
-619,605	0,954	0,043	-0,023
-618,590	-50,972	-0,130	-0,045
-617,576	-200,000	0,015	-0,059
-616,561	-119,864	-0,061	0,008
-615,546	800,000	-0,052	-0,158
-614,532	-200,000	-0,014	-0,068
-613,517	-120,360	-0,142	0,018
-612,503	800,000	-0,048	-0,118
-611,488	130,887	0,070	-0,066
-610,474	-5,462	0,058	-0,029
-609,459	-83,910	-0,088	0,020
-608,444	-82,497	-0,090	-0,021
-607,430	-200,000	0,015	-0,182
-606,415	-59,014	0,150	-0,047
-605,401	-118,414	-0,034	0,004
-604,386	-200,000	0,001	0,111
-603,371	406,278	0,015	0,024
-602,357	9,307	-0,145	0,080
-601,342	800,000	-0,012	0,026
-600,328	314,333	-0,017	-0,024
-599,313	125,534	0,103	-0,095
-598,298	800,000	0,038	-0,084
-597,284	-200,000	-0,007	0,049
-596,269	-200,000	-0,007	0,125
-595,255	-200,000	-0,021	-0,089
-594,240	-200,000	-0,017	-0,126
-593,225	-170,378	-0,102	-0,003
-592,211	800,000	-0,095	-0,202
-591,196	125,361	0,135	0,125
-590,182	182,075	-0,034	0,037
-589,167	127,426	0,077	0,072
-588,152	700,906	-0,050	-0,096
-587,138	47,370	-0,084	-0,057
-586,123	-200,000	-0,006	-0,047
-585,109	94,263	0,055	-0,046
-584,094	-200,000	0,008	-0,097
-583,079	724,039	-0,030	0,058
-582,065	-107,372	-0,080	0,013
-581,050	160,905	0,052	-0,054
-580,036	-119,781	0,120	0,015
-579,021	67,969	0,146	-0,109
-578,006	-200,000	0,005	-0,053
-576,992	77,952	-0,082	0,064
-575,977	-117,494	-0,101	-0,013
-574,963	669,834	-0,041	0,079
-573,948	-39,652	-0,122	-0,046
-572,934	-107,629	0,052	-0,008
-571,919	37,841	-0,084	-0,054
-570,904	107,138	-0,117	-0,101
-569,890	-16,989	-0,046	0,021
-568,875	-200,000	0,029	-0,118
-567,861	-82,064	-0,049	0,012
-566,846	157,139	0,068	0,069
-565,831	-200,000	0,008	-0,036
-564,817	101,762	-0,139	-0,119
-563,802	-129,856	0,021	-0,002
-562,788	327,699	-0,060	-0,085
-561,773	-69,081	0,091	0,025
-560,758	471,011	-0,146	0,240
-559,744	-200,000	-0,002	0,065
-558,729	244,434	-0,050	-0,061
-557,715	800,000	0,022	-0,045
-556,700	159,330	0,044	-0,044
-555,685	27,668	-0,064	0,039
-554,671	12,030	0,075	-0,042
-553,656	-200,000	-0,034	0,159
-552,642	73,324	0,033	-0,025
-551,627	800,000	-0,006	0,018
-550,612	590,201	0,011	0,020
-549,598	21,959	0,127	-0,076
-548,583	6,773	-0,100	0,054
-547,569	-141,804	-0,058	0,004
-546,554	722,624	0,032	0,063
-545,539	-200,000	0,017	0,061
-544,525	-200,000	-0,005	0,050
-543,510	-200,000	-0,017	0,133
-542,496	239,001	0,085	-0,104
-541,481	-88,891	-0,080	0,017
-540,466	453,327	-0,020	0,033
-539,452	800,000	0,011	0,031
-538,437	-200,000	-0,018	-0,138
-537,423	800,000	-0,059	0,157
-536,408	-172,568	-0,107	0,002
-535,393	16,358	-0,134	-0,077
-534,379	-200,000	0,006	-0,023
-533,364	-200,000	0,007	-0,051
-532,350	399,128	0,098	-0,151
-531,335	-200,000	-0,012	0,081
-530,321	167,825	-0,088	0,091
-529,306	800,000	0,020	-0,058
-528,291	-200,000	-0,006	-0,070
-527,277	800,000	-0,020	-0,056
-526,262	800,000	-0,025	-0,076
-525,248	-200,000	0,022	-0,080
-524,233	49,202	0,037	0,025
-523,218	-69,510	0,119	-0,033
-522,204	-160,579	-0,194	-0,007
-521,189	292,032	-0,101	0,135
-520,175	129,701	0,095	0,089
-519,160	469,501	0,058	0,096
-518,145	-200,000	-0,021	-0,129
-517,131	-156,798	0,237	-0,010
-516,116	28,748	0,051	0,032
-515,102	132,234	-0,065	0,061
-514,087	-90,370	0,119	-0,025
-513,072	30,391	0,102	-0,063
-512,058	244,457	0,037	-0,045
-511,043	0,743	0,107	-0,056
-510,029	231,587	0,096	-0,115
-509,014	395,154	0,037	-0,056
-507,999	143,883	-0,137	0,134
-506,985	750,565	0,036	0,072
-505,970	563,579	0,074	-0,132
-504,956	9,660	-0,161	0,089
-503,941	-200,000	0,018	-0,063
-502,926	-200,000	0,021	-0,083
-501,912	-67,668	0,072	0,020
-500,897	43,532	0,078	-0,052
-499,883	83,226	-0,055	-0,044
-498,868	-200,000	0,028	-0,122
-497,853	-44,294	-0,120	0,044
-496,839	800,000	-0,038	-0,079
-495,824	800,000	-0,035	0,079
-494,810	468,173	-0,036	0,059
-493,795	473,998	0,018	-0,030
-492,781	-200,000	0,004	-0,083
-491,766	230,521	-0,038	-0,045
-490,751	-175,817	0,125	0,002
-489,737	51,618	-0,065	-0,045
-488,722	273,610	-0,073	-0,094
-487,708	159,574	0,069	-0,070
-486,693	406,669	0,055	0,086
-485,678	-170,623	0,032	0,001
-484,664	-103,509	-0,031	-0,005
-483,649	10,735	-0,048	0,027
-482,635	261,083	-0,055	0,070
-481,620	153,897	0,090	-0,090
-480,605	245,613	-0,097	-0,119
-479,591	-158,380	0,099	0,004
-478,576	800,000	-0,034	-0,071
-477,562	307,859	-0,034	-0,046
-476,547	480,770	-0,020	-0,034
-475,532	-161,818	-0,060	0,002
-474,518	-127,185	-0,028	0,003
-473,503	34,282	0,017	0,011
-472,489	-19,959	-0,042	0,019
-471,474	-47,457	0,101	0,036
-470,459	-200,000	-0,009	-0,059
-469,445	800,000	0,015	-0,049
-468,430	20,641	0,115	-0,068
-467,416	609,839	0,062	0,113
-466,401	-200,000	-0,002	-0,068
-465,386	-200,000	0,003	0,032
-464,372	-63,362	-0,145	0,043
-463,357	-200,000	0,003	0,052
-462,343	9,506	-0,068	0,038
-461,328	800,000	-0,031	-0,082
-460,313	-200,000	-0,017	-0,127
-459,299	-200,000	0,013	0,079
-458,284	800,000	0,011	0,035
-457,270	-29,951	-0,052	0,021
-456,255	-3,180	0,073	-0,037
-455,241	265,211	-0,118	-0,151
-454,226	68,104	-0,051	-0,038
-453,211	136,396	0,059	0,056
-452,197	-200,000	0,024	0,134
-451,182	-114,482	-0,063	0,009
-450,168	116,102	-0,104	0,093
-449,153	43,853	-0,013	-0,009
-448,138	399,565	-0,103	0,158
-447,124	95,283	-0,145	0,121
-446,109	-200,000	0,031	-0,145
-445,095	-200,000	0,008	0,077
-444,080	-121,373	-0,126	-0,015
-443,065	297,453	0,099	0,133
-442,051	83,732	0,108	-0,086
-441,036	508,507	-0,050	0,084
-440,022	767,706	-0,022	-0,044
-439,007	-181,470	0,057	0,001
-437,992	110,067	-0,059	0,051
-436,978	43,411	0,024	0,016
-435,963	46,690	-0,070	0,047
-434,949	332,754	0,037	0,052
-433,934	-148,477	0,076	0,004
-432,919	800,000	-0,023	-0,046
-431,905	-200,000	-0,016	0,064
-430,890	-200,000	-0,002	-0,132
-429,876	72,814	-0,099	0,075
-428,861	-200,000	0,016	0,141
-427,846	-200,000	0,003	0,019
-426,832	-200,000	0,003	0,051
-425,817	-135,101	0,122	0,011
-424,803	28,055	-0,106	0,065
-423,788	-200,000	0,000	-0,094
-422,773	476,492	-0,089	0,146
-421,759	-200,000	0,010	0,139
-420,744	314,620	0,040	0,056
-419,730	233,617	-0,090	-0,108
-418,715	368,205	-0,077	-0,113
-417,701	308,063	0,072	-0,098
-416,686	-80,070	0,085	0,021
-415,671	165,053	0,118	0,121
-414,657	-23,442	0,091	0,040
-413,642	800,000	0,065	0,184
-412,628	-22,333	0,068	0,030
-411,613	-45,194	0,075	-0,027
-410,598	-200,000	-0,013	0,113
-409,584	-23,131	0,150	-0,065
-408,569	69,920	-0,052	-0,039
-407,555	800,000	-0,044	0,100
-406,540	-112,569	-0,122	-0,017
-405,525	-128,629	-0,082	-0,008
-404,511	270,881	-0,047	0,061
-403,496	224,196	0,048	-0,056
-402,482	108,738	0,046	-0,040
-401,467	-200,000	0,002	0,021
-400,452	800,000	0,055	-0,157
-399,438	116,874	-0,024	0,021
-398,423	-200,000	-0,010	0,037
-397,409	-103,278	0,114	-0,019
-396,394	217,089	-0,043	-0,050
-395,379	-200,000	0,010	-0,035
-394,365	800,000	0,044	0,111
-393,350	412,251	0,060	0,093
-392,336	-116,243	-0,062	0,008
-391,321	338,425	-0,031	-0,044
-390,306	800,000	0,025	0,069
-389,292	54,945	0,006	-0,004
-388,277	-26,489	-0,080	0,034
-387,263	-200,000	-0,015	0,072
-386,248	-30,812	0,060	0,025
-385,233	-173,910	-0,098	0,002
-384,219	45,399	0,072	0,048
-383,204	45,217	0,126	0,084
-382,190	-200,000	-0,028	-0,139
-381,175	-85,174	0,104	0,024
-380,160	-200,000	0,158	0,000
-379,146	76,713	-0,073	0,056
-378,131	-200,000	0,011	-0,138
-377,117	509,847	0,054	0,091
-376,102	700,226	-0,051	-0,098
-375,088	-151,336	-0,067	-0,004
-374,073	-200,000	0,026	0,109
-373,058	-24,308	-0,126	-0,054
-372,044	-180,812	0,163	-0,002
-371,029	-69,206	0,162	-0,045
-370,015	771,665	0,021	0,043
-369,000	394,992	-0,019	0,029
-367,985	755,786	0,042	0,083
-366,971	-25,304	0,067	-0,029
-365,956	-200,000	-0,002	0,109
-364,942	-200,000	0,026	0,136
-363,927	274,128	0,045	-0,058
-362,912	41,059	0,044	-0,029
-361,898	28,608	0,115	0,070
-360,883	-50,140	-0,139	-0,048
-359,869	-25,481	0,137	0,058
-358,854	273,603	0,077	0,099
-357,839	800,000	0,034	0,078
-356,825	-200,000	0,002	0,025
-355,810	800,000	0,050	-0,117
-354,796	-25,269	-0,078	-0,033
-353,781	185,513	-0,075	0,081
-352,766	-23,659	-0,072	0,031
-351,752	800,000	-0,063	0,167
-350,737	-200,000	0,012	-0,091
-349,723	-125,604	0,055	-0,006
-348,708	-200,000	-0,042	0,221
-347,693	100,507	-0,088	-0,074
-346,679	-127,312	-0,117	-0,012
-345,664	29,295	0,050	-0,031
-344,650	800,000	0,036	0,093
-343,635	52,415	0,119	0,082
-342,620	58,863	0,170	-0,121
-341,606	605,081	0,032	-0,058
-340,591	198,839	-0,088	0,098
-339,577	-0,064	-0,072	-0,037
-338,562	86,696	-0,180	-0,144
-337,548	226,369	0,165	-0,194
-336,533	-200,000	0,011	0,143
-335,518	623,671	0,068	0,125
-334,504	800,000	0,040	-0,127
-333,489	22,042	-0,045	-0,026
-332,475	285,421	-0,125	-0,164
-331,460	193,016	-0,039	0,042
-330,445	7,211	-0,068	0,036
-329,431	-135,056	-0,032	0,003
-328,416	674,469	0,027	0,052
-327,402	800,000	0,018	-0,048
-326,387	-200,000	0,008	-0,040
-325,372	89,029	-0,032	-0,026
-324,358	142,790	-0,085	-0,082
-323,343	286,670	0,111	-0,146
-322,329	101,101	0,101	0,085
-321,314	-117,576	0,041	0,005
-320,299	172,214	0,034	0,035
-319,285	-26,973	-0,096	-0,040
-318,270	753,780	0,027	0,053
-317,256	133,628	-0,089	0,084
-316,241	-135,414	-0,071	0,006
-315,226	89,803	0,086	0,070
-314,212	-25,623	-0,046	0,020
-313,197	-200,000	-0,002	0,035
-312,183	-200,000	-0,024	0,138
-311,168	167,216	0,096	-0,099
-310,153	37,202	0,120	-0,077
-309,139	310,142	-0,025	0,035
-308,124	-35,284	0,063	0,025
-307,110	304,419	0,057	0,077
-306,095	300,127	0,087	0,116
-305,080	-109,734	0,156	0,024
-304,066	173,331	-0,077	0,081
-303,051	-200,000	-0,012	-0,047
-302,037	-200,000	0,007	-0,082
-301,022	-39,809	-0,165	-0,062
-300,008	-82,336	-0,031	0,007
-298,993	-23,676	0,030	0,013
-297,978	800,000	0,021	-0,058
-296,964	-200,000	0,001	-0,005
-295,949	800,000	0,017	0,036
-294,935	-200,000	0,023	-0,084
-293,920	800,000	-0,024	-0,072
-292,905	800,000	-0,036	0,089
-291,891	-22,916	0,081	-0,035
-290,876	666,078	0,027	-0,050
-289,862	-200,000	0,012	-0,142
-288,847	-200,000	0,015	-0,140
-287,832	-98,160	0,097	0,018
-286,818	-76,421	-0,066	0,017
-285,803	-200,000	0,003	0,140
-284,789	232,514	-0,022	-0,026
-283,774	162,486	0,058	0,059
-282,759	-200,000	0,012	-0,055
-281,745	115,280	0,091	0,080
-280,730	-200,000	0,002	-0,009
-279,716	15,608	-0,124	0,070
-278,701	72,707	0,064	0,048
-277,686	-136,838	-0,037	0,003
-276,672	-34,893	-0,043	0,017
-275,657	625,898	0,065	0,120
-274,643	134,012	0,067	0,063
-273,628	800,000	-0,056	-0,166
-272,613	-72,638	-0,021	0,006
-271,599	-200,000	0,000	-0,027
-270,584	-34,444	-0,019	0,007
-269,570	800,000	-0,053	0,137
-268,555	433,748	-0,060	0,095
-267,540	-200,000	0,005	0,128
-266,526	-200,000	-0,007	-0,106
-265,511	-200,000	0,026	0,088
-264,497	23,105	-0,059	0,035
-263,482	373,961	0,017	0,025
-262,467	-92,229	-0,027	-0,005
-261,453	-104,725	-0,063	-0,010
-260,438	415,993	0,042	0,065
-259,424	-200,000	-0,001	0,046
-258,409	800,000	0,050	-0,113
-257,395	-57,425	0,153	-0,048
-256,380	-30,749	-0,071	0,029
-255,365	-5,769	-0,102	-0,051
-254,351	-200,000	-0,014	-0,078
-253,336	241,457	0,027	-0,032
-252,322	41,944	-0,114	0,075
-251,307	800,000	-0,043	0,128
-250,292	800,000	-0,015	0,035
-249,278	-145,882	0,079	0,005
-248,263	-200,000	0,002	0,093
-247,249	3,724	-0,124	-0,065
-246,234	43,290	0,136	0,089
-245,219	-200,000	-0,018	0,079
-244,205	800,000	-0,061	-0,152
-243,190	10,514	-0,174	-0,095
-242,176	54,650	0,098	0,068
-241,161	261,928	-0,042	0,052
-240,146	-200,000	-0,008	-0,036
-239,132	-27,407	0,127	0,053
-238,117	-200,000	0,003	0,030
-237,103	-200,000	0,025	0,093
-236,088	-68,769	0,150	-0,042
-235,073	-200,000	-0,010	-0,114
-234,059	450,256	-0,142	0,227
-233,044	218,776	0,039	0,045
-232,030	-200,000	-0,041	0,166
-231,015	148,687	-0,044	-0,043
-230,000	800,000	0,015	-0,037
-228,986	800,000	-0,032	0,068
-227,971	11,369	-0,033	-0,018
-226,957	-45,677	-0,030	-0,011
-225,942	44,109	0,206	0,136
-224,927	800,000	-0,012	-0,026
-223,913	-44,543	0,070	-0,025
-222,898	24,505	0,049	-0,029
-221,884	117,133	0,042	-0,037
-220,869	207,453	0,139	-0,156
-219,855	-200,000	-0,007	0,028
-218,840	24,104	0,071	-0,042
-217,825	737,981	-0,054	-0,106
-216,811	-50,798	0,064	0,022
-215,796	243,202	0,030	0,036
-214,782	-200,000	-0,025	0,102
-213,767	800,000	-0,020	0,049
-212,752	-200,000	0,026	0,141
-211,738	621,554	-0,040	0,074
-210,723	42,967	0,055	-0,036
-209,709	221,399	0,085	0,099
-208,694	467,131	-0,048	-0,079
-207,679	246,990	-0,029	-0,036
-206,665	6,853	0,028	0,015
-205,650	-200,000	-0,014	-0,062
-204,636	185,433	0,068	-0,073
-203,621	737,897	0,011	-0,022
-202,606	-89,172	-0,051	0,011
-201,592	-76,976	-0,125	-0,031
-200,577	124,174	-0,016	0,014
-199,563	-200,000	-0,006	0,074
-198,548	138,850	0,063	-0,060
-197,533	192,512	0,018	0,020
-196,519	215,108	0,058	-0,067
-195,504	-200,000	0,015	0,129
-194,490	-87,969	0,017	-0,004
-193,475	650,598	0,021	-0,039
-192,460	435,002	-0,056	0,088
-191,446	129,400	-0,113	0,104
-190,431	20,049	0,076	-0,044
-189,417	800,000	-0,063	0,173
-188,402	-200,000	0,016	0,092
-187,387	103,376	0,041	0,034
-186,373	249,298	0,044	-0,053
-185,358	179,817	-0,063	0,067
-184,344	151,825	0,068	-0,067
-183,329	-94,135	-0,082	0,016
-182,315	39,009	0,012	-0,008
-181,300	-37,422	0,075	-0,029
-180,285	-36,009	-0,169	-0,066
-179,271	-200,000	-0,002	0,024
-178,256	62,570	0,057	0,041
-177,242	25,129	-0,024	-0,015
-176,227	-200,000	0,002	-0,067
-175,212	-200,000	-0,007	-0,043
-174,198	-200,000	-0,001	-0,058
-173,183	-200,000	-0,022	-0,076
-172,169	168,455	0,065	0,067
-171,154	192,605	-0,031	-0,034
-170,139	-35,296	0,151	0,059
-169,125	3,016	0,062	-0,032
-168,110	57,331	0,055	0,038
-167,096	13,346	-0,021	0,012
-166,081	-163,104	-0,111	0,004
-165,066	-142,749	-0,152	0,011
-164,052	-200,000	0,063	-0,222
-163,037	171,370	0,086	-0,089
-162,023	-200,000	-0,018	-0,067
-161,008	585,894	-0,054	0,095
-159,993	16,583	0,063	-0,036
-158,979	32,420	-0,154	-0,095
-157,964	305,042	-0,071	0,096
-156,950	-30,895	-0,044	-0,018
-155,935	-112,233	0,117	-0,017
-154,920	-147,852	-0,040	-0,002
-153,906	394,660	0,055	0,083
-152,891	583,549	-0,079	0,141
-151,877	39,282	0,074	-0,047
-150,862	228,943	0,065	-0,076
-149,847	444,509	-0,059	-0,094
-148,833	-126,724	0,052	-0,005
-147,818	800,000	0,029	0,081
-146,804	-59,811	0,154	-0,047
-145,789	29,587	-0,105	0,064
-144,775	5,979	0,110	-0,058
-143,760	391,188	0,073	0,110
-142,745	784,581	-0,046	-0,092
-141,731	201,940	0,069	-0,077
-140,716	-200,000	0,033	0,124
-139,702	-112,538	-0,148	0,021
-138,687	287,440	-0,070	0,091
-137,672	800,000	0,014	-0,031
-136,658	800,000	0,040	-0,081
-135,643	800,000	-0,055	0,145
-134,629	-157,550	0,062	0,003
-133,614	800,000	0,020	-0,051
-132,599	99,167	0,054	0,045
-131,585	42,272	-0,137	0,090
-130,570	-200,000	0,040	-0,126
-129,556	64,047	0,078	0,057
-128,541	-131,111	-0,043	0,004
-127,526	302,804	0,122	0,163
-126,512	-89,477	0,213	-0,045
-125,497	-102,359	0,111	-0,019
-124,483	800,000	-0,039	0,096
-123,468	-58,354	0,121	-0,037
-122,453	-5,550	-0,071	0,035
-121,439	87,343	0,064	0,051
-120,424	-200,000	0,001	0,051
-119,410	458,695	0,057	0,091
-118,395	372,390	-0,041	0,060
-117,380	163,115	0,045	0,045
-116,366	546,520	0,042	-0,072
-115,351	31,931	-0,075	-0,046
-114,337	800,000	-0,023	-0,058
-113,322	80,668	0,106	-0,082
-112,307	104,886	0,049	0,041
-111,293	-23,591	-0,103	-0,044
-110,278	-200,000	-0,035	0,127
-109,264	800,000	0,095	0,193
-108,249	-200,000	0,007	0,055
-107,234	-200,000	0,016	-0,058
-106,220	-86,679	-0,091	0,020
-105,205	-200,000	0,052	0,199
-104,191	-185,919	0,086	0,001
-103,176	-114,977	0,019	-0,003
-102,162	-20,384	-0,020	0,009
-101,147	-126,705	0,106	0,011
-100,132	800,000	0,047	-0,113
-99,118	234,434	0,114	0,136
-98,103	541,107	0,040	0,069
-97,089	122,617	0,069	0,062
-96,074	800,000	0,042	-0,109
-95,059	-61,932	-0,053	-0,016
-94,045	29,249	0,029	0,018
-93,030	668,441	-0,034	-0,063
-92,016	-200,000	0,004	-0,028
-91,001	-20,678	-0,038	0,017
-89,986	158,583	0,080	-0,080
-88,972	640,447	-0,030	0,056
-87,957	-15,039	0,097	-0,045
-86,943	504,545	-0,045	0,075
-85,928	-120,495	-0,085	0,010
-84,913	-200,000	0,006	-0,117
-83,899	-18,821	0,130	0,058
-82,884	35,060	-0,040	0,025
-81,870	63,124	0,025	0,018
-80,855	-200,000	0,037	0,165
-79,840	83,921	0,049	-0,038
-78,826	-149,431	-0,067	0,004
-77,811	-25,463	0,010	0,004
-76,797	116,861	0,077	0,068
-75,782	-200,000	-0,015	0,066
-74,767	2,674	0,264	0,137
-73,753	800,000	-0,036	-0,099
-72,738	-200,000	-0,031	-0,144
-71,724	800,000	0,028	-0,081
-70,709	-200,000	-0,001	0,018
-69,694	197,985	0,089	-0,098
-68,680	796,234	0,088	0,176
-67,665	-200,000	0,009	0,157
-66,651	-102,886	0,161	0,027
-65,636	492,373	0,063	0,105
-64,622	-200,000	-0,041	-0,162
-63,607	-200,000	0,003	-0,075
-62,592	-200,000	0,043	-0,240
-61,578	148,896	-0,071	0,069
-60,563	210,757	-0,080	0,090
-59,549	-96,816	-0,078	-0,015
-58,534	17,814	-2,140	-1,219
-57,519	800,000	-0,284	-0,809
-56,505	-200,000	-1,352	-4,958
-55,490	91,005	0,693	0,557
-54,476	800,000	5,401	12,246
-53,461	-200,000	18,573	311,726
-52,446	800,000	740,002	2318,445
-51,432	556,535	1656,172	2873,089
-50,417	110,746	1640,126	1414,738
-49,403	75,031	1289,943	973,702
-48,388	30,544	1030,778	630,657
-47,373	20,022	993,245	572,858
-46,359	17,620	981,039	557,892
-45,344	14,336	977,191	544,890
-44,330	14,686	975,495	545,073
-43,315	14,068	973,661	542,001
-42,300	13,995	972,728	541,219
-41,286	13,961	971,782	540,562
-40,271	14,029	970,790	540,211
-39,257	13,946	969,950	539,448
-38,242	13,973	968,928	538,949
-37,227	14,028	968,148	538,673
-36,213	14,003	967,110	537,992
-35,198	13,976	966,306	537,435
-34,184	14,029	965,603	537,195
-33,169	14,001	964,496	536,468
-32,154	14,063	963,569	536,132
-31,140	13,955	962,760	535,310
-30,125	14,029	962,116	535,170
-29,111	14,073	961,190	534,775
-28,096	14,047	960,481	534,276
-27,082	13,995	959,946	533,789
-26,067	14,048	959,194	533,521
-25,052	14,055	958,472	533,120
-24,038	14,019	957,868	532,650
-23,023	14,001	957,074	532,127
-22,009	14,067	956,440	531,968
-20,994	13,989	955,834	531,357
-19,979	13,976	955,289	530,990
-18,965	14,000	954,549	530,637
-17,950	14,015	953,874	530,286
-16,936	13,957	953,478	529,862
-15,921	13,995	952,647	529,498
-14,906	13,914	951,873	528,790
-13,892	13,938	951,257	528,502
-12,877	13,894	950,479	527,909
-11,863	13,857	949,958	527,479
-10,848	13,918	949,295	527,285
-9,833	13,992	948,844	527,251
-8,819	13,965	948,160	526,765
-7,804	13,890	947,641	526,215
-6,790	13,972	947,012	526,106
-5,775	13,936	946,547	525,713
-4,760	13,918	945,951	525,304
-3,746	13,936	945,152	524,895
-2,731	13,761	944,669	524,050
-1,717	13,774	943,876	523,631
-0,702	13,764	943,181	523,192
0,313	13,551	942,574	522,971
1,327	16,840	940,319	532,076
2,342	25,831	795,462	473,982
3,356	22,138	460,250	268,553
4,371	-4,673	317,265	156,350
5,386	-8,553	299,038	143,392
6,400	-10,699	293,050	138,357
7,415	-11,022	290,449	136,796
8,429	-11,160	288,951	135,941
9,444	-11,263	287,994	135,378
10,459	-11,193	287,297	135,107
11,473	-11,183	286,726	134,837
12,488	-11,138	286,254	134,647
13,502	-11,178	285,700	134,335
14,517	-10,893	285,298	134,412
15,531	-11,195	284,900	133,918
16,546	-11,148	284,540	133,783
17,561	-11,275	284,105	133,443
18,575	-11,049	283,730	133,474
19,590	-11,132	283,322	133,189
20,604	-11,025	282,977	133,119
21,619	-11,113	282,783	132,931
22,634	-11,040	282,272	132,750
23,648	-11,114	282,012	132,544
24,663	-11,029	281,724	132,479
25,677	-11,100	281,494	132,291
26,692	-11,102	281,266	132,169
27,707	-11,148	281,010	131,993
28,721	-11,106	280,596	131,827
29,736	-11,343	280,327	131,462
30,750	-11,139	280,082	131,531
31,765	-11,221	279,877	131,345
32,780	-11,136	279,656	131,310
33,794	-11,242	279,346	131,052
34,809	-11,061	278,939	131,022
35,823	-11,017	278,773	130,974
36,838	-11,117	278,599	130,786
37,853	-11,207	278,437	130,612
38,867	-11,249	278,171	130,436
39,882	-11,211	277,957	130,360
40,896	-11,280	277,808	130,213
41,911	-11,256	277,465	130,064
42,926	-11,208	277,044	129,900
43,940	-11,272	276,811	129,718
44,955	-11,407	276,620	129,490
45,969	-11,397	276,524	129,443
46,984	-11,536	276,225	129,160
47,999	-11,549	275,867	128,970
49,013	-11,813	275,585	128,578
50,028	-11,798	275,295	128,446
51,042	-11,969	275,203	128,230
52,057	-11,911	274,752	128,064
53,071	-11,931	274,538	127,933
54,086	-11,745	274,426	128,044
55,101	-11,509	274,171	128,134
56,115	-11,383	274,001	128,160
57,130	-11,168	273,851	128,280
58,144	-11,266	273,818	128,161
59,159	-10,953	273,469	128,279
60,174	-11,038	273,271	128,094
61,188	-11,101	272,987	127,892
62,203	-11,147	272,775	127,738
63,217	-11,060	272,447	127,653
64,232	-11,124	272,453	127,585
65,247	-11,106	272,217	127,481
66,261	-11,148	271,854	127,261
67,276	-11,328	271,721	127,020
68,290	-11,360	271,340	126,801
69,305	-11,334	271,134	126,718
70,320	-11,460	270,889	126,476
71,334	-11,251	270,842	126,636
72,349	-10,856	270,513	126,834
73,363	-10,980	270,425	126,667
74,378	-11,135	270,219	126,417
75,393	-10,934	269,849	126,417
76,407	-11,201	269,758	126,118
77,422	-11,046	269,397	126,080
78,436	-10,920	269,256	126,118
79,451	-10,966	268,963	125,927
80,466	-11,176	268,731	125,616
81,480	-11,226	268,512	125,457
82,495	-11,218	268,284	125,347
83,509	-11,330	268,168	125,179
84,524	-11,278	267,945	125,111
85,539	-11,450	267,647	124,804
86,553	-11,432	267,485	124,734
87,568	-11,475	267,251	124,574
88,582	-11,421	267,100	124,542
89,597	-11,406	266,981	124,489
90,611	-11,214	266,684	124,514
91,626	-11,062	266,579	124,590
92,641	-11,372	266,458	124,243
93,655	-11,255	266,195	124,215
94,670	-11,245	265,834	124,044
95,684	-11,140	265,779	124,102
96,699	-11,211	265,471	123,883
97,714	-11,301	265,373	123,745
98,728	-11,405	265,005	123,469
99,743	-11,400	264,811	123,372
100,757	-11,476	264,599	123,195
101,772	-11,474	264,422	123,102
102,787	-11,224	264,133	123,182
103,801	-11,053	263,861	123,196
104,816	-11,086	263,858	123,154
105,830	-10,998	263,753	123,174
106,845	-10,913	263,513	123,127
107,860	-10,900	263,258	123,008
108,874	-10,929	262,949	122,826
109,889	-11,237	262,901	122,519
110,903	-11,138	262,643	122,476
111,918	-11,339	262,497	122,217
112,933	-11,140	262,260	122,273
113,947	-10,988	261,984	122,269
114,962	-11,028	261,838	122,154
115,976	-11,013	261,634	122,062
116,991	-11,180	261,502	121,841
118,006	-11,011	261,250	121,862
119,020	-10,995	261,186	121,836
120,035	-11,010	261,065	121,755
121,049	-11,260	260,890	121,442
122,064	-11,211	260,762	121,415
123,079	-10,966	260,320	121,414
124,093	-11,031	260,211	121,296
125,108	-11,179	259,966	121,040
126,122	-11,555	259,666	120,559
127,137	-11,518	259,456	120,483
128,151	-11,510	259,474	120,487
129,166	-11,361	259,217	120,488
130,181	-11,563	258,913	120,159
131,195	-11,286	258,727	120,305
132,210	-11,202	258,621	120,319
133,224	-11,041	258,481	120,384
134,239	-11,037	258,233	120,261
135,254	-11,205	258,098	120,040
136,268	-11,011	257,660	119,995
137,283	-11,351	257,706	119,709
138,297	-11,400	257,287	119,461
139,312	-11,531	257,262	119,325
140,327	-11,253	256,896	119,386
141,341	-10,851	256,980	119,764
142,356	-10,943	256,697	119,541
143,370	-10,914	256,639	119,529
144,385	-10,953	256,520	119,429
145,400	-10,931	256,167	119,273
146,414	-10,869	256,045	119,259
147,429	-11,022	255,911	119,054
148,443	-10,820	255,513	119,032
149,458	-10,948	255,441	118,878
150,473	-10,939	255,274	118,797
151,487	-10,938	254,947	118,636
152,502	-10,893	254,811	118,601
153,516	-10,965	254,603	118,431
154,531	-10,981	254,510	118,364
155,546	-11,002	254,352	118,262
156,560	-10,871	254,189	118,288
157,575	-11,009	253,810	117,982
158,589	-10,877	253,617	117,995
159,604	-10,952	253,451	117,843
160,619	-11,041	253,396	117,731
161,633	-10,903	253,149	117,724
162,648	-10,729	252,882	117,737
163,662	-10,990	253,045	117,580
164,677	-10,816	252,665	117,541
165,692	-10,834	252,516	117,446
166,706	-10,914	252,463	117,343
167,721	-10,798	252,213	117,315
168,735	-10,854	252,149	117,227
169,750	-10,881	251,934	117,094
170,764	-10,750	251,797	117,130
171,779	-10,728	251,762	117,123
172,794	-10,877	251,458	116,845
173,808	-11,119	251,214	116,515
174,823	-11,145	250,827	116,304
175,837	-11,415	250,806	116,055
176,852	-11,176	250,694	116,196
177,867	-10,918	250,576	116,348
178,881	-11,073	250,610	116,223
179,896	-10,845	250,174	116,202
180,910	-10,896	250,087	116,109
181,925	-10,893	249,926	116,026
182,940	-10,722	249,731	116,069
183,954	-10,744	249,472	115,920
184,969	-10,870	249,314	115,730
185,983	-11,055	249,202	115,513
186,998	-10,903	249,131	115,597
188,013	-10,716	248,755	115,569
189,027	-10,807	248,609	115,414
190,042	-10,803	248,457	115,337
191,056	-10,928	248,415	115,203
192,071	-10,812	248,039	115,115
193,086	-10,965	248,070	114,991
194,100	-10,790	247,882	115,040
195,115	-10,633	247,620	115,039
196,129	-10,798	247,400	114,789
197,144	-10,765	247,261	114,742
198,159	-10,681	247,031	114,694
199,173	-10,868	246,893	114,465
200,188	-10,886	246,745	114,371
201,202	-11,055	246,310	114,020
202,217	-11,446	246,101	113,589
203,232	-11,362	246,052	113,625
204,246	-11,069	245,982	113,825
205,261	-10,601	245,724	114,082
206,275	-11,465	245,275	113,151
207,290	-7,436	247,140	117,347
208,304	0,602	249,721	125,286
209,319	4,272	250,633	128,802
210,334	4,600	250,636	129,067
211,348	4,582	250,494	128,967
212,363	5,004	250,443	129,281
213,377	5,216	250,264	129,354
214,392	4,913	250,225	129,070
215,407	4,973	250,052	129,019
216,421	4,878	249,715	128,754
217,436	5,260	249,631	129,017
218,450	5,100	249,618	128,866
219,465	5,084	249,238	128,645
220,480	4,618	249,173	128,214
221,494	4,648	249,019	128,148
222,509	4,614	248,827	128,009
223,523	4,687	248,428	127,853
224,538	4,284	248,231	127,408
225,553	4,574	247,951	127,491
226,567	4,585	248,054	127,542
227,582	4,630	247,885	127,481
228,596	4,567	247,870	127,409
229,611	4,219	247,324	126,832
230,626	4,227	247,412	126,872
231,640	4,256	247,032	126,689
232,655	4,373	246,974	126,745
233,669	4,267	246,792	126,553
234,684	4,185	246,545	126,348
235,699	4,506	246,711	126,685
236,713	4,905	246,223	126,750
237,728	4,484	246,074	126,317
238,742	4,307	245,975	126,110
239,757	4,207	245,846	125,951
240,772	4,328	245,730	125,979
241,786	4,390	245,502	125,902
242,801	4,125	245,355	125,599
243,815	4,210	245,190	125,573
244,830	4,586	245,127	125,836
245,844	4,405	245,035	125,630
246,859	4,406	244,687	125,441
247,874	4,507	244,657	125,497
248,888	4,291	244,398	125,178
249,903	4,572	244,335	125,362
250,917	4,694	244,088	125,322
251,932	4,782	244,086	125,382
252,947	4,611	243,894	125,134
253,961	4,293	243,583	124,706
254,976	4,353	243,483	124,692
255,990	4,507	243,463	124,795
257,005	4,351	243,181	124,513
258,020	4,031	242,981	124,142
259,034	4,273	242,823	124,245
260,049	4,400	242,727	124,287
261,063	4,110	242,653	124,005
262,078	4,193	242,388	123,925
263,093	4,522	242,253	124,109
264,107	4,492	242,084	123,987
265,122	4,440	242,044	123,914
266,136	4,563	241,938	123,948
267,151	4,688	241,785	123,958
268,166	4,280	241,410	123,428
269,180	4,139	241,321	123,259
270,195	5,095	241,182	123,941
271,209	5,109	241,171	123,936
272,224	4,481	240,769	123,217
273,239	4,203	240,451	122,822
274,253	4,328	240,225	122,796
275,268	4,326	240,394	122,869
276,282	4,519	240,066	122,844
277,297	4,259	240,005	122,595
278,312	4,197	239,879	122,471
279,326	4,320	239,830	122,532
280,341	4,475	239,532	122,492
281,355	4,468	239,413	122,415
282,370	4,616	239,313	122,470
283,384	4,320	239,185	122,159
284,399	4,132	238,946	121,877
285,414	4,086	238,750	121,731
286,428	4,421	238,507	121,860
287,443	4,386	238,465	121,800
288,457	4,450	238,368	121,790
289,472	4,579	238,263	121,827
290,487	4,396	238,072	121,574
291,501	4,125	237,963	121,295
292,516	3,881	237,617	120,916
293,530	4,059	237,500	120,985
294,545	4,440	237,489	121,269
295,560	4,379	237,373	121,150
296,574	4,180	237,044	120,816
297,589	4,370	236,958	120,910
298,603	4,595	236,964	121,079
299,618	4,618	236,739	120,971
300,633	4,747	236,509	120,943
301,647	4,591	236,609	120,861
302,662	4,851	236,465	120,980
303,676	4,701	236,195	120,714
304,691	4,533	236,161	120,555
305,706	4,597	236,086	120,556
306,720	4,494	235,930	120,385
307,735	4,586	235,629	120,292
308,749	4,592	235,412	120,176
309,764	4,312	235,182	119,830
310,779	3,925	235,103	119,478
311,793	3,989	234,773	119,349
312,808	4,053	234,738	119,371
313,822	3,823	234,649	119,137
314,837	3,941	234,470	119,127
315,852	3,940	234,198	118,977
316,866	4,530	234,172	119,409
317,881	4,513	233,950	119,272
318,895	4,267	233,817	119,004
319,910	4,440	233,685	119,060
320,925	4,658	233,499	119,122
321,939	4,459	233,122	118,766
322,954	4,646	233,403	119,043
323,968	4,383	233,205	118,729
324,983	4,535	233,036	118,749
325,997	4,682	232,992	118,830
327,012	4,741	232,745	118,738
328,027	4,402	232,608	118,397
329,041	4,809	232,667	118,729
330,056	5,147	232,592	118,939
331,070	5,024	232,433	118,753
332,085	4,582	232,198	118,284
333,100	4,577	231,907	118,121
334,114	4,680	231,655	118,061
335,129	4,702	231,784	118,134
336,143	4,917	231,511	118,148
337,158	4,684	231,315	117,860
338,173	4,544	231,076	117,620
339,187	4,418	230,955	117,453
340,202	4,438	230,867	117,412
341,216	4,694	230,642	117,482
342,231	4,418	230,623	117,253
343,246	4,452	230,436	117,172
344,260	4,824	230,144	117,296
345,275	4,943	230,188	117,398
346,289	4,697	230,177	117,195
347,304	4,717	229,888	117,053
348,319	4,871	229,769	117,098
349,333	4,367	229,578	116,610
350,348	4,488	229,396	116,598
351,362	4,583	229,271	116,596
352,377	4,242	229,066	116,224
353,392	4,101	228,808	115,977
354,406	4,244	228,692	116,015
355,421	195,490	1318,728	1394,183
356,435	156,796	1451,504	1394,154
