DTS Sentinel unit serial number:	SN410029Multiplexer serial number:	ORYXHardware model number:	OX2-SRSoftware version number:	ORYX F/W v4,00 Oryx Data Collector v3.7.2.0data status	okinstallation	B5 Nyhavnadifferential loss correction	single-endedforward channel	channel 2reverse channel	N/Adate	2023/12/14time	01:17:13forward acquisition time	300,00reverse acquisition time	0,00gamma	499,1914k internal	0,3155k external	0,3155temperature offset calibration	1,0000default loss term (dB/km)	0,3820temperature slope calibration	1,0000multiplexer offset coefficient	1,0000multiplexer slope coefficient	1,0000fibre end	0,00T internal ref (°C)	8,69T ext. ref 1 (°C)	-7,16T ext. ref 2 (°C)	-7,16length (m)	temperature (°C)	Stokes	anti-Stokes-744,400	74,868	0,038	0,030
-743,385	-106,321	-0,274	-0,045
-742,371	88,957	0,249	0,204
-741,356	-45,939	-0,373	-0,135
-740,342	32,878	0,090	0,057
-739,327	-74,785	-0,465	0,122
-738,312	53,481	-0,058	-0,041
-737,298	-113,112	-0,320	-0,046
-736,283	-37,066	0,130	0,051
-735,269	50,234	-0,297	-0,206
-734,254	356,834	0,138	0,203
-733,239	-69,511	-0,544	-0,153
-732,225	-24,645	0,204	0,089
-731,210	249,553	0,107	0,134
-730,196	-200,000	0,035	0,191
-729,181	461,955	-0,031	0,051
-728,167	112,193	-0,010	-0,009
-727,152	-39,818	-0,026	0,010
-726,137	-88,105	-0,179	-0,039
-725,123	800,000	0,065	0,158
-724,108	-95,560	-0,109	-0,021
-723,094	-83,912	-0,039	0,009
-722,079	188,276	-0,083	-0,092
-721,064	-118,207	-0,097	0,013
-720,050	-127,932	0,086	0,009
-719,035	320,373	0,036	0,051
-718,021	90,520	-0,137	-0,113
-717,006	-123,783	-0,113	-0,013
-715,991	-131,261	-0,298	-0,029
-714,977	146,602	-0,114	-0,113
-713,962	-200,000	0,005	0,045
-712,948	-200,000	0,005	0,075
-711,933	-200,000	0,002	0,061
-710,918	-200,000	0,036	0,131
-709,904	164,652	-0,076	-0,079
-708,889	173,926	0,030	-0,032
-707,875	9,091	-0,030	0,017
-706,860	-172,888	0,050	-0,001
-705,845	-21,542	0,125	-0,056
-704,831	-25,083	0,178	-0,077
-703,816	-108,409	-0,092	-0,014
-702,802	-72,008	-0,160	-0,044
-701,787	-106,575	-0,106	0,017
-700,772	377,738	-0,020	-0,030
-699,758	-108,377	-0,092	-0,015
-698,743	184,007	0,063	0,069
-697,729	-77,222	0,105	0,027
-696,714	800,000	0,020	0,042
-695,699	800,000	-0,041	-0,105
-694,685	-23,791	0,068	0,030
-693,670	33,200	0,063	-0,040
-692,656	-200,000	0,003	-0,060
-691,641	115,664	-0,065	0,058
-690,627	-200,000	0,017	0,094
-689,612	-119,313	0,108	-0,014
-688,597	48,934	-0,025	0,017
-687,583	-200,000	-0,019	-0,109
-686,568	256,713	0,044	-0,056
-685,554	800,000	0,019	-0,040
-684,539	-200,000	-0,031	0,135
-683,524	800,000	0,016	0,035
-682,510	317,885	0,025	0,034
-681,495	343,541	0,012	-0,017
-680,481	119,516	-0,029	-0,026
-679,466	800,000	-0,035	-0,077
-678,451	-80,913	-0,131	0,032
-677,437	-200,000	0,021	0,097
-676,422	39,808	-0,029	-0,019
-675,408	800,000	0,014	0,043
-674,393	-200,000	-0,032	-0,108
-673,378	-16,617	-0,056	0,026
-672,364	263,578	-0,053	0,068
-671,349	-43,523	0,094	0,035
-670,335	620,247	-0,066	0,122
-669,320	800,000	-0,033	-0,087
-668,305	156,948	0,073	-0,075
-667,291	58,966	-0,040	0,029
-666,276	-200,000	-0,009	0,059
-665,262	-146,531	-0,071	-0,004
-664,247	-106,212	-0,067	0,011
-663,232	-110,364	-0,152	-0,023
-662,218	-200,000	-0,011	0,223
-661,203	-108,436	0,111	-0,017
-660,189	800,000	0,017	-0,044
-659,174	356,000	-0,047	-0,069
-658,159	-101,744	-0,040	-0,007
-657,145	46,313	-0,051	-0,035
-656,130	706,986	0,017	0,033
-655,116	-161,612	0,179	0,007
-654,101	-120,081	-0,152	-0,019
-653,086	-178,549	0,121	-0,002
-652,072	20,975	0,092	-0,055
-651,057	201,477	0,067	-0,076
-650,043	-128,226	0,094	-0,010
-649,028	800,000	0,019	-0,061
-648,014	138,417	-0,039	-0,038
-646,999	-160,320	0,118	-0,005
-645,984	-200,000	0,023	0,105
-644,970	-38,662	-0,117	0,045
-643,955	800,000	0,037	-0,090
-642,941	1,517	-0,099	-0,052
-641,926	800,000	-0,008	0,019
-640,911	800,000	-0,042	0,119
-639,897	-200,000	0,002	0,051
-638,882	-140,642	-0,191	0,014
-637,868	800,000	0,069	-0,154
-636,853	800,000	0,021	0,050
-635,838	10,637	0,065	0,037
-634,824	-80,861	-0,183	-0,044
-633,809	-138,183	0,139	0,011
-632,795	-200,000	-0,002	0,074
-631,780	-200,000	0,044	0,189
-630,765	106,638	0,092	0,080
-629,751	-200,000	0,000	0,048
-628,736	-186,727	-0,103	-0,001
-627,722	-200,000	0,003	-0,086
-626,707	-200,000	-0,005	-0,042
-625,692	-200,000	0,007	0,061
-624,678	758,214	-0,043	-0,086
-623,663	-130,274	-0,089	-0,009
-622,649	731,819	0,047	-0,092
-621,634	230,202	0,049	0,059
-620,619	166,579	0,057	0,060
-619,605	260,021	-0,116	-0,147
-618,590	-200,000	-0,008	-0,099
-617,576	11,729	0,103	-0,058
-616,561	504,116	-0,033	-0,056
-615,546	192,455	0,044	-0,049
-614,532	-58,033	-0,166	0,053
-613,517	-28,386	0,019	0,008
-612,503	-200,000	0,021	-0,189
-611,488	-200,000	0,012	0,099
-610,474	-154,771	-0,189	-0,009
-609,459	-12,897	0,040	0,019
-608,444	324,206	0,028	0,039
-607,430	-200,000	0,008	0,042
-606,415	30,750	0,070	-0,044
-605,401	800,000	0,030	0,095
-604,386	45,950	0,102	0,069
-603,371	-200,000	0,033	0,146
-602,357	38,657	-0,072	-0,047
-601,342	219,358	0,018	-0,022
-600,328	44,697	-0,062	0,042
-599,313	-200,000	0,006	0,043
-598,298	-12,588	-0,022	0,010
-597,284	-78,429	-0,060	0,015
-596,269	-200,000	0,002	0,064
-595,255	-200,000	0,018	0,133
-594,240	113,847	-0,079	0,071
-593,225	-200,000	-0,021	-0,084
-592,211	800,000	-0,059	-0,135
-591,196	222,389	0,027	0,032
-590,182	-45,600	0,045	-0,016
-589,167	763,529	0,039	0,078
-588,152	800,000	-0,031	0,077
-587,138	-34,571	-0,128	0,051
-586,123	-86,295	-0,096	0,021
-585,109	-200,000	0,016	-0,111
-584,094	78,584	-0,061	-0,048
-583,079	715,962	0,055	-0,108
-582,065	-63,956	0,153	0,046
-581,050	-200,000	-0,006	-0,033
-580,036	-50,919	-0,173	0,059
-579,021	-200,000	0,017	0,086
-578,006	-200,000	-0,001	-0,014
-576,992	130,692	-0,094	-0,088
-575,977	-118,401	0,140	0,018
-574,963	-109,427	-0,066	-0,010
-573,948	438,760	0,028	0,044
-572,934	-200,000	-0,004	0,055
-571,919	-200,000	-0,016	0,088
-570,904	-200,000	-0,023	0,165
-569,890	-193,295	-0,045	-0,000
-568,875	69,978	0,085	0,065
-567,861	-99,497	-0,041	0,007
-566,846	-102,152	0,062	-0,011
-565,831	-113,884	0,037	-0,005
-564,817	305,126	-0,067	-0,091
-563,802	84,408	0,021	-0,017
-562,788	-118,321	-0,117	-0,015
-561,773	9,449	0,060	0,033
-560,758	800,000	0,044	0,090
-559,744	6,399	-0,098	0,053
-558,729	-106,626	0,085	0,014
-557,715	-44,324	-0,049	0,018
-556,700	-39,063	-0,105	-0,040
-555,685	-200,000	0,020	-0,071
-554,671	76,993	0,017	-0,014
-553,656	800,000	0,052	-0,130
-552,642	-80,486	-0,011	0,003
-551,627	-109,126	-0,117	-0,018
-550,612	-2,991	0,064	-0,033
-549,598	-101,593	-0,071	-0,012
-548,583	506,313	-0,068	0,115
-547,569	-200,000	0,007	0,097
-546,554	203,960	-0,060	0,069
-545,539	44,033	0,065	0,043
-544,525	-17,119	0,132	-0,061
-543,510	800,000	0,049	-0,141
-542,496	-62,743	-0,218	0,066
-541,481	-200,000	-0,024	-0,091
-540,466	20,806	-0,127	-0,075
-539,452	159,361	-0,019	0,019
-538,437	365,446	-0,039	0,058
-537,423	-47,105	0,057	-0,020
-536,408	-200,000	0,002	0,015
-535,393	800,000	-0,021	-0,063
-534,379	-31,009	-0,050	0,020
-533,364	-79,027	-0,086	-0,021
-532,350	-118,722	0,043	-0,006
-531,335	80,653	0,066	0,052
-530,321	83,114	0,037	0,030
-529,306	160,199	-0,033	0,033
-528,291	-200,000	-0,002	-0,123
-527,277	-200,000	0,014	-0,130
-526,262	-200,000	0,040	-0,149
-525,248	800,000	-0,053	-0,139
-524,233	177,795	-0,013	0,013
-523,218	800,000	-0,009	-0,022
-522,204	766,153	-0,064	0,127
-521,189	-200,000	-0,006	-0,057
-520,175	-129,697	-0,154	0,015
-519,160	-157,175	-0,008	0,000
-518,145	-76,213	0,012	0,003
-517,131	69,004	0,271	0,203
-516,116	800,000	0,027	0,059
-515,102	85,455	0,016	-0,012
-514,087	800,000	0,047	0,118
-513,072	-97,500	0,063	0,012
-512,058	-121,246	0,066	-0,008
-511,043	-200,000	0,010	-0,142
-510,029	203,144	0,069	0,078
-509,014	-200,000	-0,008	-0,026
-507,999	-200,000	-0,008	-0,046
-506,985	-129,681	-0,067	0,007
-505,970	-200,000	-0,014	-0,068
-504,956	-8,299	0,104	-0,051
-503,941	-200,000	0,002	0,032
-502,926	-200,000	0,002	0,069
-501,912	111,989	0,074	0,066
-500,897	-19,928	-0,081	-0,036
-499,883	-115,121	-0,069	0,009
-498,868	-87,403	-0,113	0,025
-497,853	18,033	-0,086	-0,050
-496,839	800,000	0,018	0,050
-495,824	800,000	-0,015	0,047
-494,810	-114,370	0,194	-0,027
-493,795	706,295	-0,032	-0,063
-492,781	-4,723	-0,026	-0,013
-491,766	122,319	0,088	-0,080
-490,751	305,097	-0,079	-0,108
-489,737	501,867	0,090	-0,153
-488,722	117,653	0,089	0,080
-487,708	281,217	0,099	0,130
-486,693	-200,000	0,001	0,122
-485,678	-16,296	-0,045	0,021
-484,664	-200,000	0,002	-0,032
-483,649	-200,000	-0,041	-0,245
-482,635	78,409	0,078	-0,061
-481,620	2,755	0,102	0,054
-480,605	-74,646	0,155	-0,040
-479,591	-14,907	-0,062	-0,029
-478,576	-69,472	-0,161	0,045
-477,562	479,857	0,014	-0,024
-476,547	152,522	-0,092	0,092
-475,532	800,000	0,027	0,062
-474,518	-200,000	-0,012	-0,083
-473,503	50,269	-0,041	0,028
-472,489	-200,000	-0,008	0,129
-471,474	114,506	0,062	0,055
-470,459	180,848	-0,086	0,092
-469,445	-61,328	0,116	-0,036
-468,430	-200,000	-0,033	-0,123
-467,416	117,990	0,065	0,058
-466,401	445,023	0,053	-0,085
-465,386	-200,000	-0,009	0,070
-464,372	800,000	0,035	-0,095
-463,357	-200,000	0,003	0,025
-462,343	-200,000	0,015	-0,098
-461,328	-200,000	0,010	0,054
-460,313	45,044	-0,033	0,022
-459,299	749,664	0,020	-0,039
-458,284	-42,047	0,168	-0,062
-457,270	220,499	0,015	-0,018
-456,255	34,966	0,126	0,080
-455,241	367,243	0,058	-0,086
-454,226	247,099	-0,059	-0,073
-453,211	48,098	-0,048	-0,032
-452,197	-200,000	0,006	0,040
-451,182	-200,000	0,008	0,037
-450,168	-147,536	0,085	-0,005
-449,153	-64,912	-0,062	-0,018
-448,138	-25,798	0,124	-0,053
-447,124	-200,000	0,009	-0,111
-446,109	-200,000	0,019	0,069
-445,095	-34,480	-0,079	-0,032
-444,080	402,093	-0,076	0,116
-443,065	-60,739	-0,085	0,026
-442,051	-16,598	-0,013	-0,006
-441,036	313,204	0,040	-0,054
-440,022	254,045	0,021	-0,026
-439,007	163,430	-0,072	-0,073
-437,992	261,848	0,039	0,049
-436,978	800,000	0,099	0,212
-435,963	6,128	-0,103	-0,055
-434,949	-88,719	0,115	0,025
-433,934	800,000	0,030	-0,096
-432,919	286,385	0,045	-0,059
-431,905	484,699	0,039	0,065
-430,890	78,963	0,089	0,069
-429,876	-196,206	0,097	0,000
-428,861	-87,354	0,190	0,042
-427,846	-142,161	0,049	0,003
-426,832	-174,088	-0,076	0,002
-425,817	800,000	-0,041	0,090
-424,803	712,856	0,021	0,040
-423,788	95,325	0,014	-0,012
-422,773	796,473	-0,079	0,159
-421,759	-200,000	0,058	0,215
-420,744	800,000	-0,016	-0,039
-419,730	131,080	0,092	-0,086
-418,715	-63,032	-0,076	-0,023
-417,701	-200,000	0,013	-0,043
-416,686	434,801	0,030	-0,048
-415,671	666,898	0,029	0,056
-414,657	-200,000	-0,009	0,103
-413,642	-121,503	0,081	-0,010
-412,628	276,185	-0,025	-0,032
-411,613	-104,155	-0,025	0,004
-410,598	-127,882	-0,157	-0,016
-409,584	30,121	-0,091	0,057
-408,569	-200,000	0,002	-0,058
-407,555	-40,670	0,151	0,057
-406,540	-200,000	-0,003	-0,061
-405,525	-15,143	-0,074	-0,035
-404,511	-200,000	0,002	0,092
-403,496	253,085	-0,044	-0,055
-402,482	-200,000	0,028	-0,202
-401,467	800,000	0,037	-0,106
-400,452	-39,201	0,071	-0,027
-399,438	77,519	-0,051	0,039
-398,423	-200,000	0,027	-0,108
-397,409	87,043	-0,038	0,030
-396,394	43,957	0,024	-0,016
-395,379	-200,000	-0,007	-0,072
-394,365	159,141	0,084	-0,086
-393,350	80,880	0,120	-0,094
-392,336	-46,081	0,099	0,035
-391,321	131,010	0,006	-0,005
-390,306	-129,862	-0,155	0,015
-389,292	592,577	0,067	-0,122
-388,277	-200,000	0,010	-0,068
-387,263	-200,000	-0,001	0,089
-386,248	137,892	-0,066	0,063
-385,233	646,977	-0,052	0,097
-384,219	800,000	-0,015	-0,045
-383,204	-200,000	-0,012	-0,042
-382,190	359,182	-0,008	-0,011
-381,175	800,000	-0,068	-0,140
-380,160	16,228	-0,093	0,053
-379,146	146,157	-0,068	0,066
-378,131	-200,000	0,002	-0,028
-377,117	-29,074	-0,032	0,013
-376,102	-200,000	-0,032	-0,131
-375,088	85,218	0,101	-0,081
-374,073	24,349	0,102	0,061
-373,058	472,456	0,054	0,089
-372,044	73,038	0,079	-0,060
-371,029	-200,000	-0,026	0,136
-370,015	-170,151	-0,166	0,004
-369,000	800,000	0,046	-0,119
-367,985	175,194	-0,085	0,089
-366,971	-2,435	-0,114	0,058
-365,956	-69,789	0,095	0,026
-364,942	-65,582	0,052	0,015
-363,927	89,624	0,095	0,077
-362,912	183,575	0,008	0,008
-361,898	55,476	-0,065	-0,046
-360,883	-80,314	-0,099	0,024
-359,869	800,000	-0,048	-0,140
-358,854	99,465	-0,045	-0,038
-357,839	-21,820	-0,057	0,025
-356,825	-200,000	0,011	0,144
-355,810	-200,000	-0,002	-0,034
-354,796	-143,638	0,082	0,006
-353,781	800,000	0,024	0,068
-352,766	-126,487	-0,092	-0,010
-351,752	-56,474	0,104	0,033
-350,737	90,689	0,159	0,129
-349,723	379,550	0,033	0,049
-348,708	35,839	-0,112	0,071
-347,693	679,927	0,030	-0,058
-346,679	95,369	-0,078	-0,065
-345,664	137,408	-0,118	-0,112
-344,650	-200,000	-0,005	0,051
-343,635	800,000	-0,044	0,128
-342,620	26,955	0,036	-0,022
-341,606	270,188	0,054	-0,070
-340,591	55,212	0,024	-0,017
-339,577	26,564	0,067	0,041
-338,562	-10,640	-0,107	-0,051
-337,548	-200,000	0,034	0,112
-336,533	800,000	0,048	0,120
-335,518	800,000	0,026	-0,070
-334,504	-106,889	0,213	-0,034
-333,489	8,364	-0,087	-0,047
-332,475	800,000	0,012	-0,025
-331,460	-91,127	-0,101	-0,021
-330,445	27,777	0,136	-0,083
-329,431	-200,000	0,003	-0,098
-328,416	-200,000	-0,001	-0,070
-327,402	194,069	-0,053	0,058
-326,387	-108,810	0,120	0,019
-325,372	-82,681	-0,058	0,013
-324,358	-200,000	0,010	-0,065
-323,343	800,000	-0,062	-0,139
-322,329	359,397	0,054	0,079
-321,314	82,115	-0,082	0,064
-320,299	-121,893	0,121	-0,014
-319,285	-200,000	0,005	0,182
-318,270	-58,810	-0,157	-0,049
-317,256	323,783	0,102	-0,142
-316,241	-70,756	0,062	-0,017
-315,226	-62,475	-0,063	-0,019
-314,212	800,000	0,040	-0,081
-313,197	-200,000	-0,020	-0,106
-312,183	-4,827	0,045	0,022
-311,168	-200,000	0,017	-0,055
-310,153	-96,169	-0,130	0,025
-309,139	-39,364	0,028	-0,011
-308,124	-92,268	0,085	0,017
-307,110	-200,000	-0,011	0,052
-306,095	456,384	0,020	0,033
-305,080	-200,000	0,057	0,186
-304,066	677,078	-0,008	-0,014
-303,051	-200,000	-0,033	-0,140
-302,037	666,709	0,019	0,036
-301,022	73,203	0,033	-0,025
-300,008	476,808	0,021	-0,035
-298,993	107,558	-0,042	0,036
-297,978	385,627	0,047	0,070
-296,964	-74,669	-0,086	-0,022
-295,949	105,545	-0,126	-0,108
-294,935	370,841	-0,032	0,048
-293,920	-42,900	0,095	-0,035
-292,905	800,000	-0,016	0,043
-291,891	-200,000	0,002	0,067
-290,876	-200,000	-0,004	-0,016
-289,862	623,998	0,036	-0,067
-288,847	-71,991	0,075	0,020
-287,832	-200,000	0,009	0,036
-286,818	-200,000	0,009	0,059
-285,803	-200,000	0,013	-0,069
-284,789	-133,405	0,062	0,006
-283,774	-46,470	-0,104	0,037
-282,759	-200,000	-0,002	-0,099
-281,745	-200,000	0,015	0,087
-280,730	631,314	0,074	0,136
-279,716	145,094	-0,023	-0,022
-278,701	134,429	0,114	-0,107
-277,686	-36,336	0,134	0,052
-276,672	-87,824	-0,071	0,015
-275,657	731,824	-0,037	-0,073
-274,643	95,322	-0,079	-0,065
-273,628	800,000	0,023	-0,071
-272,613	743,664	0,018	-0,035
-271,599	414,593	-0,055	-0,086
-270,584	20,244	0,115	0,067
-269,570	-200,000	-0,027	0,087
-268,555	800,000	-0,029	0,090
-267,540	-200,000	-0,040	-0,174
-266,526	-200,000	-0,005	-0,044
-265,511	-153,907	-0,136	0,007
-264,497	185,331	0,081	0,087
-263,482	57,129	0,089	0,063
-262,467	557,549	-0,120	0,210
-261,453	-35,579	-0,097	-0,038
-260,438	-101,843	0,112	-0,019
-259,424	-200,000	-0,002	-0,094
-258,409	314,202	-0,062	-0,085
-257,395	502,981	0,055	0,093
-256,380	170,355	0,070	-0,072
-255,365	33,668	-0,067	0,042
-254,351	343,003	-0,045	-0,064
-253,336	139,545	0,068	-0,065
-252,322	-200,000	0,030	-0,101
-251,307	62,597	-0,055	0,040
-250,292	-200,000	-0,029	-0,125
-249,278	-93,023	-0,034	0,007
-248,263	-180,200	0,118	-0,002
-247,249	-200,000	-0,002	-0,049
-246,234	-128,792	-0,090	0,009
-245,219	-58,819	0,091	-0,028
-244,205	-53,007	-0,030	-0,010
-243,190	97,901	-0,040	-0,033
-242,176	141,252	0,052	0,050
-241,161	462,128	0,035	0,057
-240,146	224,843	0,099	0,116
-239,132	405,415	-0,070	-0,107
-238,117	-131,626	0,119	-0,011
-237,103	-200,000	-0,026	0,094
-236,088	-200,000	-0,034	-0,174
-235,073	-200,000	-0,003	0,080
-234,059	182,243	0,072	-0,077
-233,044	678,167	-0,036	-0,068
-232,030	589,284	0,061	-0,109
-231,015	416,402	-0,063	-0,097
-230,000	-200,000	0,002	0,098
-228,986	256,809	-0,052	0,064
-227,971	84,059	0,027	-0,021
-226,957	-64,291	0,066	-0,019
-225,942	-200,000	0,022	-0,080
-224,927	-24,124	-0,105	0,045
-223,913	800,000	0,017	0,045
-222,898	66,033	-0,101	0,074
-221,884	-118,112	0,170	0,022
-220,869	-136,112	0,113	-0,009
-219,855	800,000	0,006	-0,013
-218,840	-200,000	-0,008	0,066
-217,825	506,449	0,079	0,134
-216,811	60,879	-0,033	-0,024
-215,796	120,803	-0,062	-0,055
-214,782	13,642	-0,079	0,044
-213,767	-128,327	-0,046	-0,005
-212,752	325,396	0,101	0,140
-211,738	-77,031	-0,078	0,020
-210,723	-200,000	0,027	0,140
-209,709	-42,326	-0,085	-0,031
-208,694	-200,000	-0,030	-0,146
-207,679	52,992	-0,047	-0,032
-206,665	-34,084	0,089	0,035
-205,650	-200,000	0,029	-0,205
-204,636	207,657	-0,038	0,043
-203,621	-6,545	-0,088	0,043
-202,606	35,683	0,045	-0,028
-201,592	-200,000	0,022	-0,139
-200,577	800,000	0,007	-0,016
-199,563	422,796	0,056	-0,087
-198,548	800,000	-0,039	0,104
-197,533	-200,000	-0,006	0,040
-196,519	-200,000	-0,003	0,050
-195,504	58,261	-0,079	-0,056
-194,490	32,767	-0,090	-0,056
-193,475	-159,120	-0,131	0,005
-192,460	-120,579	0,075	-0,009
-191,446	90,973	0,063	0,051
-190,431	10,089	-0,061	0,034
-189,417	-200,000	-0,029	0,124
-188,402	116,010	-0,086	0,076
-187,387	-57,319	-0,126	-0,040
-186,373	-12,335	-0,060	0,028
-185,358	-200,000	-0,008	-0,038
-184,344	-200,000	-0,001	-0,076
-183,329	-12,925	0,133	0,062
-182,315	-75,075	-0,221	0,057
-181,300	-197,212	-0,114	0,001
-180,285	-200,000	0,001	-0,052
-179,271	-90,963	-0,159	0,033
-178,256	-182,419	0,088	-0,001
-177,242	-100,753	0,128	-0,023
-176,227	587,224	0,026	-0,046
-175,212	429,161	0,026	-0,040
-174,198	-123,872	0,065	-0,007
-173,183	38,926	-0,101	-0,065
-172,169	46,970	-0,030	-0,020
-171,154	-200,000	0,015	0,169
-170,139	800,000	0,078	0,206
-169,125	-152,492	0,164	-0,008
-168,110	24,618	0,116	-0,069
-167,096	-122,683	-0,107	-0,012
-166,081	-200,000	0,019	0,096
-165,066	-200,000	0,003	-0,019
-164,052	-148,750	-0,115	0,007
-163,037	45,711	-0,066	-0,044
-162,023	179,615	0,056	-0,059
-161,008	-200,000	0,022	0,070
-159,993	85,819	0,096	-0,076
-158,979	-178,111	-0,108	0,002
-157,964	-200,000	0,013	-0,084
-156,950	44,638	-0,135	0,089
-155,935	-200,000	0,035	0,179
-154,920	9,125	-0,081	0,044
-153,906	63,537	-0,010	0,007
-152,891	238,175	0,057	0,068
-151,877	157,416	-0,052	0,052
-150,862	-200,000	-0,012	-0,099
-149,847	-200,000	0,005	-0,043
-148,833	476,995	0,090	0,148
-147,818	-200,000	0,007	-0,105
-146,804	-12,845	-0,123	0,058
-145,789	-87,850	0,044	-0,009
-144,775	795,589	-0,078	-0,155
-143,760	226,099	-0,039	-0,046
-142,745	28,503	-0,041	-0,025
-141,731	46,301	0,120	0,080
-140,716	800,000	-0,036	-0,103
-139,702	-131,956	-0,078	-0,007
-138,687	800,000	0,042	0,111
-137,672	60,648	0,117	-0,084
-136,658	-82,826	-0,168	0,039
-135,643	730,519	0,042	-0,082
-134,629	143,074	0,152	-0,146
-133,614	195,952	-0,044	0,048
-132,599	-115,800	0,136	0,018
-131,585	-28,027	-0,118	0,049
-130,570	-97,345	0,070	-0,013
-129,556	15,787	0,023	0,013
-128,541	221,266	-0,077	0,089
-127,526	-63,481	0,033	-0,010
-126,512	42,730	0,142	0,093
-125,497	85,953	0,069	-0,054
-124,483	-150,886	-0,028	0,001
-123,468	-200,000	0,003	0,079
-122,453	-68,064	-0,116	-0,032
-121,439	800,000	0,030	-0,087
-120,424	-171,113	-0,092	-0,002
-119,410	-42,888	-0,027	-0,010
-118,395	96,565	-0,043	0,035
-117,380	117,366	0,067	0,059
-116,366	-85,945	-0,087	0,019
-115,351	338,361	-0,071	-0,099
-114,337	-200,000	-0,004	-0,089
-113,322	2,574	-0,095	-0,049
-112,307	107,300	0,078	-0,067
-111,293	-33,072	0,050	0,020
-110,278	800,000	-0,061	0,177
-109,264	-33,493	0,213	-0,084
-108,249	65,569	-0,040	-0,029
-107,234	-15,997	0,074	0,034
-106,220	151,266	-0,069	-0,068
-105,205	240,137	-0,037	-0,044
-104,191	-200,000	0,036	0,134
-103,176	800,000	-0,021	0,066
-102,162	-41,689	0,073	0,027
-101,147	313,585	0,053	0,072
-100,132	-144,301	-0,104	-0,007
-99,118	-34,963	-0,184	-0,072
-98,103	-200,000	-0,003	0,027
-97,089	268,275	0,021	0,027
-96,074	109,921	0,036	-0,031
-95,059	116,435	0,075	-0,067
-94,045	179,554	-0,084	-0,088
-93,030	-47,825	-0,174	0,060
-92,016	95,506	-0,052	0,042
-91,001	-200,000	0,011	-0,136
-89,986	-49,513	-0,122	0,042
-88,972	207,348	0,085	-0,096
-87,957	628,339	-0,046	0,085
-86,943	36,998	-0,044	0,028
-85,928	16,607	0,102	-0,058
-84,913	-8,523	-0,160	-0,077
-83,899	369,193	0,070	-0,102
-82,884	-78,846	0,073	0,018
-81,870	134,979	0,031	-0,029
-80,855	293,823	0,013	-0,017
-79,840	394,325	-0,019	-0,028
-78,826	-24,892	0,074	-0,031
-77,811	449,240	-0,028	0,045
-76,797	-200,000	-0,005	0,095
-75,782	-200,000	0,004	0,145
-74,767	-200,000	0,005	-0,070
-73,753	58,995	0,040	-0,028
-72,738	-200,000	-0,009	-0,039
-71,724	15,918	-0,058	-0,033
-70,709	-200,000	0,007	0,040
-69,694	-200,000	0,016	0,053
-68,680	-37,526	-0,153	0,058
-67,665	-39,617	0,185	0,069
-66,651	71,552	-0,021	0,016
-65,636	-64,932	0,062	-0,018
-64,622	88,517	-0,114	-0,091
-63,607	800,000	-0,018	-0,038
-62,592	-109,117	0,080	0,012
-61,578	800,000	-0,024	0,057
-60,563	-123,826	0,090	-0,010
-59,549	-74,438	-0,178	0,046
-58,534	73,106	-2,651	-1,989
-57,519	106,268	0,347	-0,295
-56,505	-200,000	-1,618	-5,376
-55,490	376,385	1,318	1,938
-54,476	800,000	5,243	11,407
-53,461	-200,000	21,840	343,646
-52,446	800,000	761,076	2308,874
-51,432	517,850	1653,056	2789,155
-50,417	103,872	1618,088	1365,293
-49,403	73,598	1273,459	957,168
-48,388	25,435	1021,958	608,928
-47,373	19,203	988,367	568,274
-46,359	13,420	975,668	541,951
-45,344	9,367	972,298	526,728
-44,330	9,903	970,064	527,258
-43,315	8,760	968,518	522,648
-42,300	8,723	967,306	521,850
-41,286	8,704	966,213	521,178
-40,271	8,720	965,277	520,704
-39,257	8,726	964,344	520,199
-38,242	8,700	963,556	519,670
-37,227	8,674	962,684	519,095
-36,213	8,660	961,943	518,628
-35,198	8,692	960,989	518,198
-34,184	8,730	960,302	517,930
-33,169	8,727	959,184	517,298
-32,154	8,778	958,462	517,051
-31,140	8,769	957,396	516,426
-30,125	8,800	956,672	516,117
-29,111	8,782	955,836	515,585
-28,096	8,724	955,293	515,084
-27,082	8,796	954,393	514,813
-26,067	8,705	953,854	514,208
-25,052	8,652	953,079	513,597
-24,038	8,662	952,452	513,272
-23,023	8,670	951,807	512,932
-22,009	8,709	951,076	512,642
-20,994	8,774	950,491	512,516
-19,979	8,700	949,952	511,964
-18,965	8,742	949,279	511,718
-17,950	8,701	948,825	511,320
-16,936	8,676	948,052	510,805
-15,921	8,666	947,215	510,302
-14,906	8,659	946,535	509,892
-13,892	8,620	945,831	509,368
-12,877	8,589	945,307	508,965
-11,863	8,606	944,722	508,685
-10,848	8,638	943,977	508,367
-9,833	8,765	943,567	508,531
-8,819	8,682	943,011	507,946
-7,804	8,617	942,240	507,304
-6,790	8,592	941,972	507,058
-5,775	8,634	941,300	506,810
-4,760	8,638	940,683	506,472
-3,746	8,609	939,828	505,898
-2,731	8,490	939,092	505,105
-1,717	8,474	938,628	504,785
-0,702	8,439	937,896	504,257
0,313	8,270	937,338	504,185
1,327	11,687	935,139	513,775
2,342	20,443	783,465	453,498
3,356	15,673	450,336	253,431
4,371	-10,648	313,274	148,233
5,386	-14,610	295,787	135,926
6,400	-16,510	289,810	131,278
7,415	-16,777	287,079	129,766
8,429	-17,321	285,015	128,288
9,444	-17,452	284,334	127,843
10,459	-17,300	283,686	127,688
11,473	-17,158	283,026	127,518
12,488	-17,293	282,600	127,184
13,502	-17,289	282,038	126,924
14,517	-17,328	281,691	126,718
15,531	-17,285	281,134	126,498
16,546	-17,290	280,817	126,339
17,561	-17,332	280,435	126,116
18,575	-17,125	280,006	126,111
19,590	-17,357	279,763	125,767
20,604	-17,191	279,432	125,766
21,619	-17,356	279,171	125,479
22,634	-17,173	278,640	125,405
23,648	-17,180	278,348	125,255
24,663	-17,058	277,991	125,199
25,677	-17,254	277,868	124,946
26,692	-17,116	277,584	124,939
27,707	-17,349	277,352	124,602
28,721	-17,216	277,125	124,615
29,736	-17,263	276,753	124,392
30,750	-17,354	276,508	124,185
31,765	-17,297	276,214	124,095
32,780	-17,224	276,123	124,113
33,794	-17,345	275,929	123,899
34,809	-17,222	275,441	123,786
35,823	-17,360	275,370	123,612
36,838	-17,153	274,857	123,566
37,853	-17,266	274,823	123,433
38,867	-17,207	274,356	123,268
39,882	-17,293	274,252	123,130
40,896	-17,142	273,935	123,118
41,911	-17,217	273,819	122,985
42,926	-17,206	273,618	122,894
43,940	-17,369	273,431	122,646
44,955	-17,266	272,886	122,487
45,969	-17,232	272,861	122,496
46,984	-17,158	272,687	122,476
47,999	-17,162	272,401	122,333
49,013	-17,247	272,323	122,208
50,028	-17,211	272,007	122,089
51,042	-17,217	271,858	122,006
52,057	-17,145	271,530	121,915
53,071	-17,168	271,334	121,795
54,086	-17,159	271,201	121,732
55,101	-17,007	270,918	121,735
56,115	-17,220	270,697	121,428
57,130	-17,313	270,408	121,201
58,144	-17,168	269,917	121,104
59,159	-17,272	269,769	120,931
60,174	-17,110	269,611	120,999
61,188	-17,181	269,334	120,798
62,203	-17,241	269,208	120,676
63,217	-16,950	268,853	120,773
64,232	-17,137	268,684	120,515
65,247	-17,063	268,442	120,464
66,261	-17,031	268,245	120,394
67,276	-17,242	268,056	120,104
68,290	-17,179	267,830	120,051
69,305	-17,135	267,720	120,031
70,320	-17,325	267,395	119,701
71,334	-17,006	267,116	119,856
72,349	-17,096	266,867	119,652
73,363	-17,226	266,650	119,426
74,378	-17,044	266,306	119,426
75,393	-16,993	266,235	119,430
76,407	-17,192	265,951	119,112
77,422	-17,110	265,703	119,064
78,436	-17,069	265,608	119,048
79,451	-17,083	265,320	118,895
80,466	-17,122	265,063	118,734
81,480	-17,023	264,946	118,761
82,495	-17,093	264,816	118,629
83,509	-17,132	264,404	118,399
84,524	-17,011	264,242	118,425
85,539	-17,141	264,036	118,205
86,553	-17,046	263,881	118,210
87,568	-17,190	263,694	117,986
88,582	-17,227	263,454	117,835
89,597	-17,353	263,261	117,625
90,611	-17,139	263,060	117,717
91,626	-16,971	262,803	117,742
92,641	-17,146	262,667	117,514
93,655	-16,898	262,387	117,600
94,670	-17,084	262,130	117,308
95,684	-17,231	261,964	117,092
96,699	-17,094	261,859	117,157
97,714	-17,147	261,546	116,959
98,728	-16,861	261,326	117,105
99,743	-17,012	261,300	116,949
100,757	-17,110	261,107	116,765
101,772	-17,028	260,801	116,690
102,787	-17,055	260,440	116,495
103,801	-17,068	260,278	116,400
104,816	-17,258	260,259	116,212
105,830	-17,128	260,142	116,265
106,845	-17,216	259,799	116,024
107,860	-17,185	259,571	115,939
108,874	-17,230	259,348	115,790
109,889	-17,007	259,118	115,873
110,903	-16,973	258,958	115,821
111,918	-17,061	258,817	115,671
112,933	-17,017	258,500	115,557
113,947	-17,138	258,340	115,369
114,962	-16,991	258,149	115,403
115,976	-16,975	258,024	115,350
116,991	-17,072	257,694	115,108
118,006	-17,064	257,454	114,997
119,020	-16,986	257,348	115,007
120,035	-17,081	257,307	114,896
121,049	-16,988	257,002	114,830
122,064	-17,094	256,951	114,705
123,079	-17,128	256,555	114,489
124,093	-17,113	256,367	114,407
125,108	-16,943	256,162	114,453
126,122	-17,058	256,009	114,275
127,137	-17,040	255,826	114,198
128,151	-17,021	255,720	114,157
129,166	-16,927	255,387	114,080
130,181	-16,952	255,185	113,959
131,195	-16,922	254,974	113,881
132,210	-16,912	254,876	113,835
133,224	-17,119	254,615	113,529
134,239	-17,129	254,466	113,444
135,254	-17,032	254,306	113,446
136,268	-17,083	254,145	113,321
137,283	-16,855	253,760	113,335
138,297	-16,984	253,602	113,143
139,312	-17,024	253,468	113,039
140,327	-17,090	253,194	112,850
141,341	-17,154	252,947	112,675
142,356	-17,084	252,916	112,711
143,370	-17,028	252,523	112,573
144,385	-16,993	252,501	112,584
145,400	-17,101	252,302	112,393
146,414	-16,878	252,045	112,459
147,429	-17,006	251,752	112,209
148,443	-16,955	251,654	112,199
149,458	-17,114	251,580	112,020
150,473	-16,913	251,391	112,097
151,487	-16,913	251,224	112,013
152,502	-16,969	251,050	111,877
153,516	-17,031	250,738	111,676
154,531	-17,092	250,552	111,531
155,546	-16,966	250,330	111,529
156,560	-17,053	250,298	111,431
157,575	-16,916	249,940	111,378
158,589	-16,807	249,701	111,354
159,604	-16,968	249,557	111,144
160,619	-17,003	249,348	111,011
161,633	-17,092	249,315	110,911
162,648	-16,958	249,203	110,965
163,662	-16,844	248,942	110,934
164,677	-17,019	248,825	110,725
165,692	-16,976	248,634	110,666
166,706	-17,101	248,438	110,464
167,721	-16,945	248,217	110,487
168,735	-17,028	248,128	110,368
169,750	-17,053	247,934	110,251
170,764	-16,915	247,898	110,341
171,779	-17,016	247,607	110,117
172,794	-16,885	247,201	110,036
173,808	-16,928	247,232	110,004
174,823	-16,952	247,068	109,901
175,837	-16,923	246,976	109,875
176,852	-16,947	246,730	109,736
177,867	-16,935	246,517	109,641
178,881	-17,025	246,516	109,555
179,896	-16,961	246,285	109,497
180,910	-17,091	246,055	109,276
181,925	-16,975	245,848	109,271
182,940	-17,101	245,741	109,109
183,954	-17,070	245,481	109,010
184,969	-16,899	245,359	109,088
185,983	-17,058	245,212	108,880
186,998	-16,938	245,012	108,881
188,013	-16,935	244,857	108,806
189,027	-16,942	244,520	108,641
190,042	-17,049	244,532	108,548
191,056	-16,709	244,101	108,627
192,071	-17,018	244,102	108,363
193,086	-17,170	243,935	108,153
194,100	-16,853	243,779	108,336
195,115	-16,761	243,492	108,275
196,129	-17,025	243,299	107,962
197,144	-17,077	243,073	107,810
198,159	-17,046	242,841	107,722
199,173	-16,971	242,843	107,776
200,188	-16,889	242,573	107,713
201,202	-16,814	242,479	107,723
202,217	-17,032	242,330	107,468
203,232	-16,750	241,950	107,520
204,246	-16,875	241,886	107,381
205,261	-17,299	241,756	106,968
206,275	-15,726	242,099	108,394
207,290	-10,909	243,911	113,156
208,304	-4,704	245,771	119,137
209,319	-2,196	246,459	121,533
210,334	-0,983	246,714	122,651
211,348	0,133	246,923	123,667
212,363	0,698	246,874	124,099
213,377	1,150	246,762	124,404
214,392	1,392	246,901	124,664
215,407	1,526	246,790	124,707
216,421	1,728	246,634	124,784
217,436	1,630	246,523	124,636
218,450	1,622	246,305	124,507
219,465	1,593	246,194	124,417
220,480	1,588	246,074	124,340
221,494	1,432	245,816	124,071
222,509	0,971	245,554	123,549
223,523	1,004	245,146	123,360
224,538	0,621	245,145	123,034
225,553	0,763	244,865	122,999
226,567	0,600	244,746	122,795
227,582	0,656	244,573	122,743
228,596	0,640	244,446	122,656
229,611	0,779	244,234	122,652
230,626	0,638	244,034	122,425
231,640	0,806	243,975	122,522
232,655	0,647	243,824	122,305
233,669	0,698	243,597	122,222
234,684	0,651	243,545	122,147
235,699	0,801	243,343	122,157
236,713	0,955	243,120	122,159
237,728	0,890	242,889	121,979
238,742	0,678	242,736	121,719
239,757	0,905	242,638	121,844
240,772	0,872	242,350	121,661
241,786	0,571	242,366	121,415
242,801	0,767	242,190	121,474
243,815	0,794	241,962	121,371
244,830	0,688	241,935	121,261
245,844	0,808	241,616	121,187
246,859	0,770	241,384	121,029
247,874	0,844	241,305	121,038
248,888	0,718	241,171	120,859
249,903	0,983	241,005	120,978
250,917	0,755	240,952	120,758
251,932	0,796	240,833	120,720
252,947	0,898	240,542	120,645
253,961	0,835	240,558	120,592
254,976	0,822	240,178	120,380
255,990	0,929	240,081	120,406
257,005	0,789	240,018	120,252
258,020	0,756	239,868	120,140
259,034	0,804	239,648	120,057
260,049	0,806	239,369	119,908
261,063	0,785	239,349	119,871
262,078	0,879	239,149	119,835
263,093	0,689	239,165	119,681
264,107	0,425	238,965	119,360
265,122	0,845	238,641	119,521
266,136	0,816	238,418	119,376
267,151	0,855	238,441	119,408
268,166	0,959	238,148	119,333
269,180	0,730	238,037	119,085
270,195	0,952	237,796	119,130
271,209	0,866	237,796	119,051
272,224	0,763	237,648	118,885
273,239	0,606	237,424	118,638
274,253	0,719	237,306	118,658
275,268	0,817	237,061	118,602
276,282	0,795	237,007	118,547
277,297	0,887	236,746	118,478
278,312	0,739	236,632	118,295
279,326	0,771	236,624	118,305
280,341	0,910	236,451	118,317
281,355	1,045	236,186	118,280
282,370	0,750	236,236	118,063
283,384	1,055	235,978	118,163
284,399	0,874	235,812	117,927
285,414	0,588	235,724	117,649
286,428	0,646	235,546	117,595
287,443	0,906	235,225	117,627
288,457	0,812	235,193	117,527
289,472	0,737	235,112	117,418
290,487	0,767	234,874	117,312
291,501	1,036	234,594	117,371
292,516	0,907	234,515	117,221
293,530	0,907	234,453	117,179
294,545	0,733	234,348	116,981
295,560	0,898	234,137	116,994
296,574	0,783	234,066	116,858
297,589	0,822	233,895	116,793
298,603	0,934	233,729	116,786
299,618	0,948	233,524	116,684
300,633	1,213	233,442	116,838
301,647	1,105	233,280	116,663
302,662	1,086	233,159	116,578
303,676	0,932	233,036	116,386
304,691	0,855	232,856	116,227
305,706	1,017	232,665	116,246
306,720	1,002	232,556	116,169
307,735	0,912	232,459	116,041
308,749	1,305	232,235	116,222
309,764	1,053	232,020	115,910
310,779	1,159	231,822	115,882
311,793	0,878	231,874	115,681
312,808	1,109	231,601	115,713
313,822	0,937	231,445	115,493
314,837	1,227	231,270	115,617
315,852	1,282	231,058	115,543
316,866	1,262	231,157	115,567
317,881	1,241	230,951	115,437
318,895	1,120	230,731	115,225
319,910	0,899	230,616	114,988
320,925	1,123	230,412	115,048
321,939	1,114	230,234	114,941
322,954	1,125	230,134	114,889
323,968	1,175	229,907	114,804
324,983	0,997	229,991	114,700
325,997	1,235	229,692	114,722
327,012	1,060	229,542	114,504
328,027	0,908	229,502	114,358
329,041	1,211	229,261	114,457
330,056	1,066	229,176	114,295
331,070	0,973	228,949	114,101
332,085	1,110	228,804	114,122
333,100	1,073	228,675	114,020
334,114	1,044	228,335	113,818
335,129	1,074	228,408	113,867
336,143	1,138	228,259	113,832
337,158	1,087	228,174	113,740
338,173	1,325	227,929	113,787
339,187	1,138	227,822	113,582
340,202	1,163	227,707	113,534
341,216	1,187	227,467	113,423
342,231	1,141	227,450	113,369
343,246	1,082	227,144	113,162
344,260	1,220	227,130	113,249
345,275	1,243	226,956	113,169
346,289	1,244	226,814	113,089
347,304	1,193	226,772	113,020
348,319	1,201	226,540	112,900
349,333	1,165	226,432	112,810
350,348	1,269	226,199	112,761
351,362	1,291	226,080	112,708
352,377	1,013	226,007	112,454
353,392	1,263	225,912	112,583
354,406	1,203	225,646	112,396
355,421	191,485	1312,588	1377,293
356,435	153,357	1444,889	1377,153
