DTS Sentinel unit serial number:	SN410029Multiplexer serial number:	ORYXHardware model number:	OX2-SRSoftware version number:	ORYX F/W v4,00 Oryx Data Collector v3.7.2.0data status	okinstallation	B5 Nyhavnadifferential loss correction	single-endedforward channel	channel 2reverse channel	N/Adate	2023/12/12time	14:42:13forward acquisition time	300,00reverse acquisition time	0,00gamma	499,1914k internal	0,3157k external	0,3157temperature offset calibration	1,0000default loss term (dB/km)	0,3820temperature slope calibration	1,0000multiplexer offset coefficient	1,0000multiplexer slope coefficient	1,0000fibre end	0,00T internal ref (°C)	15,88T ext. ref 1 (°C)	-0,34T ext. ref 2 (°C)	-0,60length (m)	temperature (°C)	Stokes	anti-Stokes-744,400	49,502	0,093	-0,064
-743,385	-157,714	-0,272	-0,012
-742,371	219,849	0,078	0,092
-741,356	-33,231	-0,271	-0,110
-740,342	562,930	-0,046	-0,082
-739,327	-118,887	-0,152	0,019
-738,312	-121,997	0,078	-0,009
-737,298	-137,236	-0,199	0,016
-736,283	291,299	0,026	-0,035
-735,269	-140,953	-0,180	0,013
-734,254	-22,811	0,104	0,046
-733,239	-54,482	-0,580	-0,192
-732,225	-0,220	0,214	0,112
-731,210	-200,000	-0,018	0,073
-730,196	103,873	-0,099	-0,086
-729,181	-200,000	-0,003	-0,065
-728,167	88,776	-0,064	0,052
-727,152	126,752	0,044	0,041
-726,137	-200,000	0,016	0,085
-725,123	88,028	-0,060	-0,049
-724,108	-200,000	-0,017	-0,091
-723,094	147,606	0,029	0,028
-722,079	-19,200	0,064	0,029
-721,064	-200,000	0,031	-0,172
-720,050	-200,000	-0,004	0,092
-719,035	92,136	-0,087	-0,072
-718,021	1,071	-0,048	0,025
-717,006	800,000	-0,073	-0,170
-715,991	-100,773	-0,068	0,012
-714,977	109,657	-0,055	-0,048
-713,962	-200,000	-0,027	0,152
-712,948	146,926	0,058	0,057
-711,933	50,313	-0,071	0,049
-710,918	-108,844	0,036	-0,006
-709,904	261,212	-0,031	-0,039
-708,889	282,285	-0,169	-0,224
-707,875	-65,463	-0,070	-0,020
-706,860	-200,000	-0,034	-0,172
-705,845	800,000	0,093	0,190
-704,831	726,741	0,050	-0,099
-703,816	-115,218	-0,050	-0,007
-702,802	-19,096	-0,041	0,019
-701,787	-200,000	-0,026	0,090
-700,772	-33,451	-0,078	0,031
-699,758	-200,000	0,004	0,024
-698,743	-200,000	0,009	-0,030
-697,729	123,070	0,073	0,068
-696,714	229,087	0,109	0,131
-695,699	-113,403	-0,202	-0,029
-694,685	-77,928	0,040	-0,010
-693,670	251,954	-0,054	0,068
-692,656	-106,228	0,148	0,024
-691,641	31,661	-0,064	0,041
-690,627	-2,669	0,088	-0,045
-689,612	-37,882	-0,059	0,023
-688,597	-200,000	0,011	-0,175
-687,583	800,000	-0,006	0,015
-686,568	-77,625	-0,047	0,012
-685,554	86,333	-0,099	-0,080
-684,539	244,658	0,059	-0,073
-683,524	-200,000	-0,007	-0,130
-682,510	439,562	-0,054	0,087
-681,495	800,000	-0,038	-0,120
-680,481	-200,000	-0,020	-0,068
-679,466	39,830	0,142	-0,094
-678,451	-49,123	0,088	-0,031
-677,437	534,939	-0,041	-0,071
-676,422	-200,000	0,016	0,079
-675,408	-21,496	-0,054	0,024
-674,393	720,168	0,027	0,053
-673,378	166,344	0,042	-0,044
-672,364	800,000	-0,095	-0,199
-671,349	-200,000	-0,000	0,001
-670,335	-57,167	0,026	0,008
-669,320	-200,000	0,008	0,107
-668,305	-200,000	0,116	0,000
-667,291	-123,147	-0,038	0,004
-666,276	559,372	-0,064	-0,114
-665,262	-200,000	0,012	-0,057
-664,247	43,833	-0,068	-0,045
-663,232	52,784	-0,125	0,088
-662,218	-200,000	-0,008	0,055
-661,203	-127,765	-0,075	-0,008
-660,189	321,848	-0,047	-0,066
-659,174	800,000	-0,039	-0,114
-658,159	-48,437	-0,120	-0,042
-657,145	63,965	-0,127	-0,094
-656,130	-164,072	0,040	0,001
-655,116	272,731	0,088	0,115
-654,101	-200,000	-0,002	0,092
-653,086	-44,366	-0,046	0,017
-652,072	-37,482	-0,050	0,019
-651,057	70,797	-0,052	-0,040
-650,043	800,000	-0,015	-0,047
-649,028	-200,000	-0,018	-0,133
-648,014	313,340	0,067	0,093
-646,999	289,274	0,076	0,101
-645,984	207,325	0,022	-0,026
-644,970	800,000	-0,045	0,117
-643,955	-130,822	0,053	-0,005
-642,941	-58,517	-0,134	-0,042
-641,926	-200,000	0,023	-0,096
-640,911	-1,187	0,092	0,047
-639,897	20,004	-0,113	-0,067
-638,882	575,291	0,099	-0,178
-637,868	299,694	-0,042	-0,057
-636,853	382,353	0,023	-0,035
-635,838	-173,724	-0,110	-0,002
-634,824	800,000	0,061	0,130
-633,809	800,000	-0,039	-0,123
-632,795	-200,000	0,003	0,054
-631,780	-200,000	-0,002	0,069
-630,765	-200,000	0,026	0,107
-629,751	-121,946	0,068	-0,008
-628,736	565,092	-0,058	-0,104
-627,722	407,994	-0,053	0,082
-626,707	-141,321	-0,152	0,011
-625,692	-128,483	-0,082	-0,008
-624,678	210,981	0,049	-0,057
-623,663	-78,670	-0,048	-0,012
-622,649	-60,247	-0,062	-0,019
-621,634	116,287	0,106	-0,095
-620,619	123,504	-0,154	-0,142
-619,605	-200,000	0,006	0,145
-618,590	-164,866	-0,095	-0,003
-617,576	-200,000	-0,021	0,083
-616,561	-200,000	0,002	-0,037
-615,546	-200,000	-0,018	0,131
-614,532	542,023	-0,036	0,063
-613,517	800,000	0,024	-0,048
-612,503	151,450	0,081	-0,081
-611,488	-65,535	-0,043	-0,013
-610,474	-47,663	0,115	0,041
-609,459	270,594	-0,060	0,077
-608,444	-71,434	0,109	0,030
-607,430	-200,000	-0,003	-0,124
-606,415	190,169	-0,092	-0,102
-605,401	800,000	-0,043	-0,127
-604,386	-12,380	-0,095	-0,045
-603,371	-27,047	0,080	0,034
-602,357	-20,534	0,113	0,051
-601,342	498,567	-0,056	-0,095
-600,328	-68,830	-0,095	0,027
-599,313	800,000	-0,010	-0,033
-598,298	324,510	0,049	-0,068
-597,284	-200,000	-0,013	0,242
-596,269	-16,747	0,081	-0,037
-595,255	153,090	-0,126	0,126
-594,240	-28,569	-0,016	0,007
-593,225	280,698	-0,025	0,033
-592,211	-200,000	-0,006	0,027
-591,196	-200,000	-0,013	0,054
-590,182	30,542	0,119	0,074
-589,167	-200,000	0,010	0,062
-588,152	-200,000	0,016	-0,087
-587,138	195,238	-0,051	-0,056
-586,123	-32,567	-0,194	-0,079
-585,109	-150,660	0,119	-0,007
-584,094	716,828	-0,036	0,071
-583,079	-54,580	-0,111	0,037
-582,065	-71,931	0,085	-0,023
-581,050	-200,000	-0,004	0,140
-580,036	-101,247	-0,062	0,011
-579,021	24,778	0,130	0,079
-578,006	-200,000	0,020	-0,121
-576,992	-200,000	0,010	-0,116
-575,977	800,000	0,071	-0,191
-574,963	17,059	0,131	0,076
-573,948	476,293	0,060	0,100
-572,934	-200,000	0,015	-0,118
-571,919	182,389	-0,036	0,039
-570,904	-200,000	0,016	-0,115
-569,890	-200,000	0,024	-0,081
-568,875	140,693	0,121	0,117
-567,861	6,409	-0,051	0,027
-566,846	2,604	0,053	0,028
-565,831	-95,331	0,137	-0,027
-564,817	-81,019	-0,138	0,033
-563,802	-200,000	0,045	-0,213
-562,788	129,990	0,036	0,034
-561,773	175,306	0,093	-0,099
-560,758	469,679	-0,060	-0,098
-559,744	139,352	-0,056	0,054
-558,729	-32,949	0,046	-0,018
-557,715	141,738	-0,143	-0,139
-556,700	209,655	0,003	-0,003
-555,685	265,940	-0,032	0,041
-554,671	-200,000	0,019	0,133
-553,656	300,923	0,071	-0,096
-552,642	736,084	-0,060	-0,119
-551,627	-162,922	-0,067	0,002
-550,612	157,465	0,056	0,057
-549,598	364,115	0,050	-0,074
-548,583	51,602	0,075	0,052
-547,569	-200,000	0,019	-0,065
-546,554	-103,220	0,187	0,032
-545,539	-137,235	0,191	-0,016
-544,525	-200,000	0,010	0,045
-543,510	-200,000	-0,008	0,061
-542,496	64,521	-0,142	0,104
-541,481	463,636	-0,007	-0,011
-540,466	46,089	0,023	-0,016
-539,452	-200,000	-0,005	0,155
-538,437	-19,857	0,122	-0,055
-537,423	-37,206	-0,077	0,030
-536,408	-25,439	-0,033	-0,014
-535,393	800,000	-0,016	-0,032
-534,379	-70,763	-0,138	0,038
-533,364	-200,000	-0,011	0,203
-532,350	-200,000	0,020	0,152
-531,335	-15,400	0,092	-0,043
-530,321	-200,000	0,009	0,092
-529,306	11,460	-0,070	-0,039
-528,291	114,493	0,032	0,029
-527,277	317,258	0,016	-0,022
-526,262	211,527	-0,010	-0,011
-525,248	241,846	0,127	0,155
-524,233	269,183	-0,040	0,051
-523,218	-102,249	-0,124	-0,022
-522,204	-27,652	-0,076	-0,032
-521,189	175,253	-0,088	-0,093
-520,175	652,911	0,041	-0,077
-519,160	500,546	0,064	-0,109
-518,145	-182,060	0,074	0,001
-517,131	-200,000	0,001	0,098
-516,116	800,000	0,017	-0,040
-515,102	-25,188	-0,141	0,061
-514,087	-34,509	-0,184	-0,073
-513,072	9,995	0,028	0,015
-512,058	431,200	-0,057	-0,091
-511,043	-49,316	0,125	0,043
-510,029	92,598	0,083	0,069
-509,014	220,657	0,028	-0,033
-507,999	-149,964	0,076	0,004
-506,985	-200,000	-0,002	0,076
-505,970	800,000	-0,057	-0,130
-504,956	68,585	-0,031	-0,023
-503,941	-63,539	0,048	0,014
-502,926	-5,243	-0,045	-0,022
-501,912	111,568	0,073	0,065
-500,897	-35,458	-0,157	0,062
-499,883	-5,231	-0,056	0,028
-498,868	-54,787	-0,021	-0,007
-497,853	611,739	0,033	-0,060
-496,839	-75,003	0,103	0,027
-495,824	-200,000	-0,007	-0,116
-494,810	735,187	-0,020	0,039
-493,795	-70,978	-0,180	0,049
-492,781	-106,404	-0,144	0,023
-491,766	-200,000	-0,022	-0,088
-490,751	400,493	0,063	-0,097
-489,737	-76,642	-0,096	-0,024
-488,722	-155,492	0,106	-0,005
-487,708	713,012	-0,022	0,043
-486,693	-200,000	0,018	0,130
-485,678	-0,303	-0,136	0,070
-484,664	128,639	-0,071	0,066
-483,649	-11,502	-0,071	-0,034
-482,635	-200,000	-0,007	0,029
-481,620	-16,931	-0,088	-0,041
-480,605	800,000	0,037	0,078
-479,591	62,784	-0,104	-0,076
-478,576	-42,595	-0,056	-0,021
-477,562	-47,475	0,174	-0,061
-476,547	-200,000	0,032	-0,145
-475,532	-75,753	-0,131	-0,034
-474,518	-115,015	0,137	0,019
-473,503	264,251	0,063	0,080
-472,489	-200,000	-0,021	0,128
-471,474	-200,000	-0,038	0,135
-470,459	-200,000	0,001	-0,047
-469,445	31,921	0,097	0,061
-468,430	800,000	0,008	-0,022
-467,416	522,335	0,025	-0,043
-466,401	36,011	0,114	0,073
-465,386	-8,292	-0,022	0,011
-464,372	-200,000	-0,012	-0,193
-463,357	50,586	-0,038	0,026
-462,343	-200,000	-0,016	-0,124
-461,328	421,055	-0,027	0,042
-460,313	-200,000	0,014	-0,046
-459,299	-200,000	0,022	0,087
-458,284	82,230	0,039	0,031
-457,270	59,793	-0,119	-0,086
-456,255	-131,343	-0,024	0,002
-455,241	-126,265	0,133	0,014
-454,226	239,912	0,086	0,105
-453,211	171,845	0,024	-0,025
-452,197	800,000	0,035	0,084
-451,182	10,961	0,178	0,099
-450,168	360,364	-0,063	0,092
-449,153	800,000	-0,038	0,086
-448,138	-200,000	-0,002	0,065
-447,124	-145,271	0,069	-0,005
-446,109	110,794	-0,109	-0,096
-445,095	114,285	0,129	0,115
-444,080	-200,000	0,052	0,193
-443,065	800,000	0,019	-0,044
-442,051	800,000	-0,029	0,086
-441,036	575,993	0,022	0,040
-440,022	17,217	0,064	-0,037
-439,007	-132,031	0,121	-0,011
-437,992	-200,000	-0,021	-0,104
-436,978	398,521	-0,038	-0,059
-435,963	60,095	0,058	-0,042
-434,949	174,633	0,089	0,093
-433,934	-200,000	0,004	0,023
-432,919	51,311	-0,042	-0,029
-431,905	291,045	-0,053	0,070
-430,890	249,036	0,020	0,025
-429,876	328,713	0,108	-0,151
-428,861	800,000	-0,019	0,047
-427,846	-200,000	-0,010	0,074
-426,832	93,048	0,054	0,045
-425,817	-90,497	-0,092	-0,019
-424,803	295,476	0,034	-0,045
-423,788	-73,131	0,003	0,001
-422,773	346,377	0,023	0,032
-421,759	229,077	0,047	0,056
-420,744	-3,711	0,058	0,029
-419,730	686,332	0,026	0,050
-418,715	800,000	-0,027	-0,066
-417,701	-76,761	0,019	-0,005
-416,686	607,984	-0,031	0,057
-415,671	140,469	-0,059	-0,057
-414,657	426,917	-0,008	-0,013
-413,642	-173,530	0,023	0,000
-412,628	800,000	0,037	-0,116
-411,613	-200,000	0,015	-0,211
-410,598	-200,000	0,006	0,020
-409,584	591,494	0,054	-0,098
-408,569	-200,000	0,002	-0,119
-407,555	184,521	0,089	0,096
-406,540	-200,000	0,015	-0,058
-405,525	-162,223	0,125	-0,004
-404,511	-104,391	-0,055	0,009
-403,496	-200,000	0,027	-0,096
-402,482	526,372	0,037	-0,064
-401,467	443,755	0,080	0,127
-400,452	800,000	-0,015	-0,039
-399,438	-200,000	0,040	-0,144
-398,423	-200,000	0,002	0,085
-397,409	65,645	0,032	0,023
-396,394	-7,161	-0,089	0,044
-395,379	800,000	0,021	-0,059
-394,365	-103,255	0,070	-0,012
-393,350	800,000	0,027	-0,087
-392,336	-51,742	0,146	0,049
-391,321	-200,000	0,009	0,104
-390,306	687,233	0,067	0,127
-389,292	38,620	0,064	-0,042
-388,277	-80,161	-0,101	-0,024
-387,263	243,200	0,019	-0,023
-386,248	299,010	-0,024	0,032
-385,233	112,536	-0,213	0,188
-384,219	170,387	-0,078	0,081
-383,204	-200,000	-0,054	0,191
-382,190	8,669	-0,068	0,037
-381,175	210,803	0,043	0,049
-380,160	800,000	-0,045	-0,094
-379,146	61,694	-0,034	0,024
-378,131	57,163	-0,104	-0,074
-377,117	800,000	0,060	0,134
-376,102	-80,706	-0,162	0,039
-375,088	-92,264	0,110	0,022
-374,073	473,613	0,039	-0,065
-373,058	800,000	0,021	0,060
-372,044	-74,577	-0,096	-0,025
-371,029	675,328	-0,065	0,123
-370,015	-70,569	0,124	0,034
-369,000	-200,000	0,014	-0,081
-367,985	55,228	-0,125	-0,087
-366,971	2,125	-0,008	-0,004
-365,956	61,439	0,125	-0,090
-364,942	-200,000	0,013	0,072
-363,927	800,000	-0,023	-0,048
-362,912	800,000	-0,034	-0,086
-361,898	-200,000	-0,020	-0,065
-360,883	800,000	0,023	-0,055
-359,869	222,965	0,084	-0,098
-358,854	302,519	-0,014	-0,019
-357,839	30,336	0,051	0,032
-356,825	800,000	-0,040	0,105
-355,810	54,356	0,026	-0,018
-354,796	800,000	-0,011	-0,031
-353,781	-56,995	0,033	-0,011
-352,766	32,197	-0,022	0,014
-351,752	-200,000	0,010	-0,058
-350,737	245,847	0,068	0,083
-349,723	800,000	0,064	0,171
-348,708	7,817	0,124	0,067
-347,693	19,235	0,029	-0,017
-346,679	800,000	-0,054	-0,137
-345,664	800,000	-0,016	-0,045
-344,650	-22,787	0,055	0,024
-343,635	800,000	0,042	0,117
-342,620	408,844	0,017	0,027
-341,606	-34,184	-0,137	0,054
-340,591	800,000	0,008	-0,019
-339,577	-22,512	-0,079	-0,035
-338,562	-200,000	-0,033	-0,139
-337,548	2,717	-0,112	-0,059
-336,533	73,417	0,065	0,049
-335,518	235,495	-0,087	0,104
-334,504	15,830	0,069	0,040
-333,489	-14,907	-0,083	-0,038
-332,475	368,927	-0,021	-0,030
-331,460	-58,911	-0,098	-0,031
-330,445	-200,000	0,019	-0,152
-329,431	-200,000	0,010	0,068
-328,416	-200,000	0,028	0,105
-327,402	-134,644	-0,065	-0,006
-326,387	119,590	0,084	-0,076
-325,372	256,796	0,049	0,061
-324,358	188,622	-0,036	-0,039
-323,343	-82,934	0,021	-0,005
-322,329	-12,075	-0,031	0,015
-321,314	87,658	-0,017	0,014
-320,299	468,605	0,135	0,220
-319,285	800,000	-0,032	-0,088
-318,270	800,000	0,019	0,053
-317,256	379,705	-0,038	-0,057
-316,241	-51,801	-0,138	0,046
-315,226	196,289	0,121	0,134
-314,212	192,183	0,061	0,067
-313,197	247,857	-0,066	0,081
-312,183	257,410	0,041	0,051
-311,168	-7,818	-0,180	-0,088
-310,153	-4,019	-0,079	-0,039
-309,139	140,492	-0,064	-0,062
-308,124	800,000	0,014	-0,037
-307,110	-157,971	0,169	-0,007
-306,095	-200,000	0,006	0,176
-305,080	-125,202	0,156	-0,017
-304,066	-200,000	0,003	0,135
-303,051	-200,000	0,044	-0,147
-302,037	-49,703	0,094	-0,032
-301,022	-41,484	-0,074	0,028
-300,008	-200,000	-0,003	-0,067
-298,993	269,011	0,054	-0,069
-297,978	-200,000	0,004	0,109
-296,964	34,426	0,025	-0,016
-295,949	537,102	-0,008	-0,013
-294,935	13,914	-0,019	0,011
-293,920	423,752	0,077	-0,120
-292,905	-75,871	0,045	0,012
-291,891	-200,000	-0,006	-0,046
-290,876	238,214	-0,116	0,140
-289,862	188,183	0,074	-0,080
-288,847	-132,765	-0,093	-0,009
-287,832	-179,775	-0,061	0,001
-286,818	800,000	-0,030	-0,086
-285,803	119,445	0,128	-0,115
-284,789	-101,279	0,062	-0,011
-283,774	32,467	-0,097	0,061
-282,759	-200,000	-0,016	-0,102
-281,745	-110,012	-0,095	0,014
-280,730	-200,000	0,015	0,113
-279,716	317,574	-0,056	0,077
-278,701	134,035	0,093	-0,088
-277,686	581,979	-0,034	0,061
-276,672	66,091	0,110	-0,081
-275,657	-200,000	0,016	-0,079
-274,643	20,739	-0,115	-0,067
-273,628	-115,030	-0,089	-0,012
-272,613	-120,524	-0,071	0,009
-271,599	151,820	0,036	-0,036
-270,584	-16,086	0,050	-0,023
-269,570	-90,297	-0,068	-0,014
-268,555	101,034	-0,148	-0,124
-267,540	-200,000	-0,023	-0,099
-266,526	800,000	0,028	0,070
-265,511	-26,192	-0,072	-0,031
-264,497	5,161	0,084	-0,045
-263,482	28,875	-0,071	0,044
-262,467	-70,223	0,093	0,025
-261,453	-82,053	-0,097	0,023
-260,438	800,000	0,059	-0,129
-259,424	-107,838	-0,108	0,017
-258,409	171,121	0,161	-0,167
-257,395	800,000	0,064	-0,185
-256,380	174,434	-0,026	0,027
-255,365	-8,167	-0,057	0,028
-254,351	-200,000	-0,008	0,057
-253,336	-200,000	0,004	-0,063
-252,322	-65,329	0,019	-0,005
-251,307	800,000	-0,039	-0,108
-250,292	-85,318	0,155	0,035
-249,278	588,306	0,151	0,270
-248,263	22,665	-0,148	-0,088
-247,249	800,000	-0,011	0,033
-246,234	149,850	-0,027	0,027
-245,219	133,315	0,060	-0,056
-244,205	513,975	-0,043	-0,073
-243,190	-200,000	0,024	-0,158
-242,176	113,394	-0,025	0,022
-241,161	575,737	-0,014	-0,024
-240,146	257,947	0,030	0,037
-239,132	192,875	-0,029	-0,031
-238,117	-200,000	0,009	-0,097
-237,103	-200,000	-0,028	0,123
-236,088	-200,000	0,014	-0,060
-235,073	800,000	-0,024	0,057
-234,059	163,236	0,088	-0,089
-233,044	-63,314	-0,131	-0,039
-232,030	-59,056	-0,041	-0,013
-231,015	131,152	0,086	-0,080
-230,000	-196,240	-0,050	0,000
-228,986	-122,422	-0,096	0,011
-227,971	487,192	0,077	-0,128
-226,957	-96,271	-0,079	0,015
-225,942	800,000	0,017	-0,035
-224,927	73,520	-0,072	0,054
-223,913	4,029	0,149	0,079
-222,898	-10,476	-0,060	-0,029
-221,884	-83,891	0,143	0,033
-220,869	800,000	-0,015	0,041
-219,855	-200,000	0,009	0,038
-218,840	-200,000	0,011	0,073
-217,825	-200,000	-0,008	-0,037
-216,811	245,024	0,057	-0,069
-215,796	-52,345	-0,060	0,020
-214,782	-200,000	0,003	-0,097
-213,767	-200,000	0,027	-0,093
-212,752	-171,060	0,133	0,003
-211,738	-180,317	0,027	-0,000
-210,723	251,432	-0,062	0,077
-209,709	665,985	0,032	0,061
-208,694	800,000	0,058	-0,116
-207,679	-200,000	0,002	0,011
-206,665	126,669	-0,070	0,064
-205,650	-200,000	-0,057	0,196
-204,636	-200,000	0,001	0,094
-203,621	800,000	0,026	-0,069
-202,606	-131,535	-0,099	-0,009
-201,592	-92,901	0,124	0,025
-200,577	-30,512	-0,021	0,008
-199,563	-200,000	-0,031	0,100
-198,548	800,000	0,027	-0,072
-197,533	-151,406	-0,036	-0,002
-196,519	586,660	-0,009	0,016
-195,504	-58,402	-0,117	-0,036
-194,490	800,000	-0,027	-0,072
-193,475	-200,000	-0,016	-0,091
-192,460	399,806	-0,063	0,096
-191,446	800,000	-0,066	0,197
-190,431	-200,000	-0,021	0,113
-189,417	63,316	-0,017	-0,012
-188,402	107,324	-0,080	-0,069
-187,387	-200,000	0,036	-0,126
-186,373	460,688	-0,042	-0,068
-185,358	-200,000	-0,023	-0,143
-184,344	800,000	-0,040	0,109
-183,329	33,576	0,055	0,034
-182,315	226,187	-0,063	0,074
-181,300	800,000	0,034	0,107
-180,285	371,219	-0,051	-0,075
-179,271	-200,000	-0,003	0,033
-178,256	800,000	0,040	-0,080
-177,242	-140,830	0,024	0,002
-176,227	-25,212	0,140	0,059
-175,212	-120,405	-0,033	-0,004
-174,198	-112,820	-0,191	0,027
-173,183	-200,000	0,015	0,060
-172,169	800,000	0,030	0,075
-171,154	-115,453	-0,065	-0,009
-170,139	256,825	0,089	-0,110
-169,125	-120,168	0,013	0,002
-168,110	-136,964	-0,055	-0,004
-167,096	349,734	0,046	0,066
-166,081	-22,653	-0,122	-0,053
-165,066	-52,534	-0,049	-0,016
-164,052	76,430	-0,166	0,127
-163,037	740,745	0,012	-0,024
-162,023	-200,000	0,018	-0,061
-161,008	393,797	0,023	-0,035
-159,993	800,000	0,007	-0,016
-158,979	-200,000	-0,003	0,074
-157,964	725,324	0,052	-0,101
-156,950	-32,727	-0,153	0,061
-155,935	-200,000	-0,023	0,082
-154,920	-80,370	0,124	0,030
-153,906	-167,276	0,142	-0,004
-152,891	-93,966	0,025	-0,005
-151,877	-144,386	0,060	-0,004
-150,862	-134,439	0,060	-0,005
-149,847	138,153	0,110	0,104
-148,833	-182,003	-0,071	-0,001
-147,818	-148,615	0,154	-0,009
-146,804	800,000	-0,036	0,098
-145,789	131,463	0,063	-0,059
-144,775	800,000	-0,047	0,125
-143,760	-66,121	-0,115	0,033
-142,745	-200,000	0,021	-0,126
-141,731	380,323	0,069	0,103
-140,716	-71,503	0,066	0,018
-139,702	-61,909	0,081	0,024
-138,687	-148,477	-0,160	-0,009
-137,672	-53,673	-0,010	0,003
-136,658	-79,595	0,064	-0,016
-135,643	400,285	-0,055	-0,084
-134,629	110,755	-0,112	-0,097
-133,614	800,000	0,012	0,033
-132,599	-155,756	-0,056	0,003
-131,585	-95,070	0,185	-0,036
-130,570	-41,708	-0,114	-0,042
-129,556	-200,000	0,013	-0,059
-128,541	33,940	-0,046	0,029
-127,526	339,405	-0,025	-0,035
-126,512	800,000	-0,048	-0,131
-125,497	800,000	0,045	0,089
-124,483	3,691	-0,090	0,047
-123,468	-14,798	-0,094	0,043
-122,453	-200,000	-0,027	-0,132
-121,439	166,492	0,041	0,042
-120,424	73,209	0,027	-0,020
-119,410	-200,000	-0,010	0,065
-118,395	170,997	0,126	0,130
-117,380	210,425	-0,035	0,040
-116,366	-200,000	-0,001	0,033
-115,351	-200,000	-0,009	0,114
-114,337	-52,782	0,110	-0,036
-113,322	-48,290	0,180	-0,062
-112,307	-200,000	-0,101	0,000
-111,293	-200,000	0,011	-0,072
-110,278	69,806	0,057	0,042
-109,264	64,736	0,068	-0,049
-108,249	165,405	0,096	-0,098
-107,234	-134,822	0,108	-0,009
-106,220	-200,000	-0,009	-0,056
-105,205	236,161	0,102	0,121
-104,191	800,000	0,027	-0,070
-103,176	483,913	0,104	0,171
-102,162	292,055	-0,089	0,117
-101,147	-177,469	-0,085	0,001
-100,132	281,740	-0,093	0,120
-99,118	731,139	-0,007	0,013
-98,103	71,814	0,071	-0,053
-97,089	-200,000	-0,005	-0,064
-96,074	139,986	-0,036	-0,034
-95,059	800,000	-0,014	-0,037
-94,045	-20,372	-0,099	0,043
-93,030	1,862	-0,025	0,013
-92,016	-36,434	0,064	0,025
-91,001	800,000	0,029	-0,062
-89,986	-133,768	0,131	0,012
-88,972	191,023	-0,076	0,082
-87,957	207,782	0,031	-0,035
-86,943	-200,000	-0,000	-0,023
-85,928	-200,000	-0,025	-0,093
-84,913	-92,329	-0,051	-0,010
-83,899	102,022	0,150	0,126
-82,884	-50,834	-0,072	0,024
-81,870	305,215	0,040	0,053
-80,855	-139,159	-0,071	-0,005
-79,840	-159,576	-0,158	0,006
-78,826	260,062	-0,063	0,078
-77,811	800,000	0,035	-0,109
-76,797	-200,000	0,017	0,089
-75,782	110,849	-0,044	-0,038
-74,767	800,000	-0,069	0,151
-73,753	124,618	-0,094	0,085
-72,738	-200,000	0,016	0,102
-71,724	74,591	0,078	0,059
-70,709	-200,000	-0,015	-0,074
-69,694	236,584	-0,089	0,107
-68,680	-45,746	0,051	0,018
-67,665	124,185	0,093	0,084
-66,651	-52,747	-0,078	0,026
-65,636	-118,778	0,038	-0,005
-64,622	42,243	-0,101	0,066
-63,607	-200,000	-0,001	-0,106
-62,592	57,939	-0,047	0,033
-61,578	-108,010	-0,175	0,027
-60,563	-200,000	0,008	0,029
-59,549	-200,000	-0,049	0,000
-58,534	-4,015	-1,898	-0,941
-57,519	800,000	-0,296	-0,912
-56,505	-200,000	-1,187	-4,869
-55,490	20,025	0,749	0,432
-54,476	800,000	5,403	12,055
-53,461	-200,000	17,280	285,037
-52,446	800,000	722,791	2230,877
-51,432	544,739	1638,661	2820,881
-50,417	112,200	1630,982	1415,145
-49,403	76,314	1286,386	977,087
-48,388	32,806	1028,839	637,785
-47,373	20,276	990,724	572,800
-46,359	18,758	978,966	560,995
-45,344	16,227	974,851	550,321
-44,330	16,363	973,490	549,976
-43,315	15,948	971,612	547,537
-42,300	15,944	970,486	546,868
-41,286	15,918	969,434	546,169
-40,271	15,857	968,588	545,471
-39,257	15,930	967,586	545,122
-38,242	15,966	966,758	544,752
-37,227	15,914	966,063	544,170
-36,213	15,918	965,076	543,606
-35,198	15,837	964,311	542,890
-34,184	15,949	963,541	542,797
-33,169	15,902	962,448	542,008
-32,154	15,937	961,689	541,673
-31,140	15,905	960,485	540,868
-30,125	15,916	959,929	540,571
-29,111	15,927	959,141	540,141
-28,096	15,877	958,727	539,726
-27,082	15,917	958,015	539,433
-26,067	15,900	957,212	538,903
-25,052	15,907	956,113	538,285
-24,038	15,926	955,695	538,090
-23,023	15,909	954,990	537,617
-22,009	15,948	954,336	537,354
-20,994	15,966	953,666	537,012
-19,979	15,943	953,259	536,687
-18,965	15,946	952,464	536,228
-17,950	15,935	951,863	535,833
-16,936	15,891	951,115	535,251
-15,921	15,826	950,596	534,729
-14,906	15,807	949,778	534,189
-13,892	15,795	949,274	533,846
-12,877	15,798	948,472	533,381
-11,863	15,712	948,099	532,876
-10,848	15,771	947,395	532,647
-9,833	15,897	946,803	532,694
-8,819	15,864	946,284	532,276
-7,804	15,829	945,710	531,823
-6,790	15,777	944,952	531,211
-5,775	15,879	944,265	531,124
-4,760	15,814	943,803	530,639
-3,746	15,848	943,026	530,289
-2,731	15,678	942,571	529,472
-1,717	15,689	941,792	529,048
-0,702	15,677	941,156	528,633
0,313	15,425	940,659	528,354
1,327	18,570	938,544	537,041
2,342	27,366	795,947	478,796
3,356	24,218	459,883	271,794
4,371	-2,448	314,214	157,384
5,386	-6,807	296,089	143,884
6,400	-8,728	290,055	139,033
7,415	-9,122	287,583	137,449
8,429	-9,475	286,047	136,356
9,444	-9,432	285,055	135,914
10,459	-9,372	284,522	135,705
11,473	-9,325	283,865	135,426
12,488	-9,153	283,243	135,284
13,502	-9,429	282,825	134,805
14,517	-9,336	282,423	134,691
15,531	-9,462	282,039	134,374
16,546	-9,320	281,502	134,243
17,561	-9,372	281,136	134,007
18,575	-9,355	280,993	133,943
19,590	-9,582	280,557	133,505
20,604	-9,301	280,096	133,543
21,619	-9,281	279,690	133,357
22,634	-9,451	279,573	133,126
23,648	-9,520	279,190	132,867
24,663	-9,498	278,938	132,756
25,677	-9,392	278,725	132,743
26,692	-9,374	278,498	132,640
27,707	-9,395	278,177	132,457
28,721	-9,318	277,923	132,396
29,736	-9,458	277,598	132,097
30,750	-9,559	277,414	131,902
31,765	-9,115	276,934	132,082
32,780	-9,247	276,898	131,928
33,794	-9,184	276,622	131,844
34,809	-9,430	276,381	131,485
35,823	-9,455	276,037	131,286
36,838	-9,641	275,922	131,045
37,853	-9,521	275,656	131,020
38,867	-9,447	275,315	130,916
39,882	-9,561	275,153	130,720
40,896	-9,465	274,880	130,669
41,911	-9,566	274,556	130,408
42,926	-9,463	274,319	130,381
43,940	-9,418	274,137	130,325
44,955	-9,691	273,989	129,987
45,969	-9,547	273,563	129,908
46,984	-9,748	273,409	129,636
47,999	-9,848	273,127	129,397
49,013	-10,049	272,814	129,051
50,028	-9,944	272,460	128,969
51,042	-10,077	272,190	128,706
52,057	-10,249	272,208	128,544
53,071	-10,045	271,770	128,514
54,086	-10,118	271,757	128,429
55,101	-9,752	271,549	128,659
56,115	-9,680	271,388	128,638
57,130	-9,358	271,336	128,899
58,144	-9,123	270,988	128,939
59,159	-9,229	270,809	128,745
60,174	-9,287	270,573	128,567
61,188	-9,536	270,570	128,325
62,203	-9,195	270,242	128,472
63,217	-9,258	270,021	128,298
64,232	-9,273	269,717	128,128
65,247	-9,429	269,653	127,943
66,261	-9,356	269,319	127,840
67,276	-9,529	268,916	127,479
68,290	-9,747	268,920	127,270
69,305	-9,728	268,496	127,075
70,320	-9,621	268,330	127,083
71,334	-9,501	268,231	127,135
72,349	-9,460	267,946	127,025
73,363	-9,328	267,947	127,135
74,378	-9,156	267,560	127,096
75,393	-9,277	267,312	126,857
76,407	-9,325	267,216	126,757
77,422	-9,396	267,026	126,591
78,436	-9,239	266,775	126,603
79,451	-9,134	266,415	126,517
80,466	-9,358	266,193	126,197
81,480	-9,501	265,995	125,961
82,495	-9,560	265,728	125,771
83,509	-9,416	265,638	125,847
84,524	-9,362	265,363	125,755
85,539	-9,422	265,148	125,588
86,553	-9,711	265,065	125,276
87,568	-9,484	264,665	125,280
88,582	-9,670	264,601	125,072
89,597	-9,401	264,387	125,201
90,611	-9,501	264,424	125,118
91,626	-9,270	264,034	125,129
92,641	-9,471	263,861	124,856
93,655	-9,338	263,567	124,824
94,670	-9,349	263,377	124,714
95,684	-9,383	263,306	124,639
96,699	-9,411	263,119	124,514
97,714	-9,303	262,792	124,445
98,728	-9,607	262,680	124,109
99,743	-9,672	262,375	123,896
100,757	-9,634	262,087	123,783
101,772	-9,546	262,043	123,829
102,787	-9,354	261,756	123,853
103,801	-9,331	261,628	123,802
104,816	-9,249	261,403	123,757
105,830	-9,436	261,353	123,556
106,845	-9,257	261,027	123,550
107,860	-9,143	260,849	123,556
108,874	-9,325	260,605	123,268
109,889	-9,306	260,449	123,200
110,903	-9,333	260,211	123,053
111,918	-9,356	260,009	122,926
112,933	-9,365	259,895	122,853
113,947	-9,300	259,657	122,787
114,962	-9,326	259,433	122,647
115,976	-9,250	259,248	122,616
116,991	-9,404	259,005	122,354
118,006	-9,347	258,879	122,334
119,020	-9,359	258,788	122,270
120,035	-9,075	258,624	122,430
121,049	-9,228	258,506	122,229
122,064	-9,349	258,330	122,029
123,079	-9,109	257,906	122,028
124,093	-9,350	257,856	121,782
125,108	-9,502	257,511	121,476
126,122	-9,738	257,324	121,172
127,137	-9,951	257,202	120,918
128,151	-9,612	257,101	121,155
129,166	-9,424	256,762	121,148
130,181	-9,533	256,447	120,894
131,195	-9,583	256,323	120,781
132,210	-9,333	256,227	120,942
133,224	-9,312	256,185	120,929
134,239	-9,269	255,940	120,840
135,254	-9,311	255,730	120,694
136,268	-9,434	255,450	120,445
137,283	-9,715	255,241	120,092
138,297	-9,821	255,059	119,905
139,312	-9,686	254,657	119,821
140,327	-9,355	254,612	120,074
141,341	-9,142	254,519	120,204
142,356	-9,336	254,539	120,035
143,370	-9,093	254,189	120,069
144,385	-9,135	254,094	119,977
145,400	-8,955	253,815	119,989
146,414	-9,199	253,690	119,710
147,429	-9,032	253,560	119,781
148,443	-8,982	253,395	119,735
149,458	-9,103	253,225	119,541
150,473	-9,100	252,905	119,382
151,487	-9,241	252,687	119,148
152,502	-9,268	252,796	119,166
153,516	-9,071	252,476	119,172
154,531	-9,021	252,184	119,066
155,546	-8,916	251,938	119,028
156,560	-9,145	252,039	118,871
157,575	-9,350	251,626	118,491
158,589	-9,242	251,483	118,505
159,604	-9,217	251,411	118,482
160,619	-9,125	251,119	118,412
161,633	-9,178	250,936	118,270
162,648	-9,090	250,958	118,344
163,662	-9,073	250,693	118,223
164,677	-9,034	250,498	118,153
165,692	-8,841	250,321	118,222
166,706	-9,132	250,243	117,929
167,721	-9,081	250,118	117,903
168,735	-9,172	249,919	117,722
169,750	-8,880	249,769	117,887
170,764	-9,057	249,724	117,706
171,779	-8,980	249,568	117,686
172,794	-9,206	249,426	117,419
173,808	-9,107	249,228	117,399
174,823	-9,327	248,686	116,948
175,837	-9,739	248,555	116,531
176,852	-9,188	248,505	116,959
177,867	-9,026	248,313	116,994
178,881	-9,111	248,353	116,931
179,896	-8,968	248,002	116,874
180,910	-9,028	247,840	116,738
181,925	-9,149	247,916	116,662
182,940	-9,072	247,605	116,570
183,954	-9,089	247,363	116,432
184,969	-9,045	247,301	116,428
185,983	-9,065	247,005	116,262
186,998	-8,996	246,943	116,280
188,013	-9,061	246,793	116,145
189,027	-9,031	246,498	116,021
190,042	-8,929	246,309	116,006
191,056	-9,058	246,165	115,821
192,071	-9,019	245,968	115,750
193,086	-9,165	245,786	115,533
194,100	-8,933	245,621	115,637
195,115	-8,881	245,455	115,591
196,129	-9,054	245,205	115,321
197,144	-8,990	245,172	115,347
198,159	-9,068	244,924	115,157
199,173	-9,094	244,889	115,109
200,188	-8,805	244,566	115,184
201,202	-9,464	244,314	114,514
202,217	-9,721	244,016	114,153
203,232	-9,474	243,723	114,208
204,246	-9,043	243,878	114,624
205,261	-8,662	243,693	114,839
206,275	-9,605	243,505	113,968
207,290	-6,056	244,844	117,505
208,304	0,820	246,961	124,202
209,319	3,583	247,764	126,882
210,334	4,039	247,651	127,190
211,348	4,314	247,558	127,358
212,363	4,647	247,382	127,530
213,377	4,650	247,368	127,514
214,392	4,462	247,200	127,261
215,407	4,264	247,088	127,029
216,421	4,614	246,740	127,127
217,436	4,605	246,792	127,135
218,450	4,624	246,694	127,089
219,465	4,277	246,391	126,636
220,480	4,259	246,182	126,503
221,494	4,128	246,017	126,299
222,509	4,404	245,742	126,373
223,523	4,269	245,577	126,166
224,538	3,724	245,357	125,596
225,553	4,017	245,205	125,747
226,567	4,101	245,107	125,754
227,582	4,089	244,989	125,673
228,596	4,381	244,612	125,706
229,611	3,984	244,492	125,309
230,626	3,751	244,337	125,029
231,640	3,857	244,252	125,061
232,655	4,028	244,169	125,146
233,669	4,023	243,809	124,946
234,684	3,804	243,756	124,730
235,699	4,283	243,779	125,119
236,713	4,274	243,701	125,061
237,728	3,830	243,454	124,564
238,742	3,721	243,136	124,301
239,757	3,772	242,970	124,247
240,772	3,685	242,747	124,051
241,786	3,994	242,754	124,294
242,801	3,742	242,536	123,968
243,815	3,889	242,294	123,951
244,830	4,003	242,257	124,013
245,844	4,141	242,073	124,020
246,859	3,942	241,850	123,734
247,874	3,935	241,593	123,586
248,888	3,885	241,633	123,555
249,903	4,197	241,396	123,673
250,917	4,096	241,387	123,576
251,932	4,204	241,217	123,564
252,947	4,089	241,182	123,443
253,961	4,134	240,794	123,270
254,976	4,141	240,645	123,188
255,990	3,950	240,536	122,969
257,005	3,781	240,454	122,781
258,020	3,794	240,154	122,628
259,034	3,694	240,133	122,525
260,049	3,918	239,973	122,612
261,063	3,856	239,844	122,486
262,078	3,763	239,560	122,256
263,093	4,169	239,442	122,508
264,107	3,972	239,359	122,298
265,122	3,990	239,179	122,209
266,136	3,898	239,091	122,080
267,151	4,115	238,924	122,156
268,166	4,016	238,595	121,898
269,180	3,736	238,477	121,606
270,195	4,305	238,454	122,033
271,209	4,479	238,465	122,166
272,224	3,999	237,988	121,531
273,239	3,603	237,844	121,134
274,253	3,922	237,550	121,226
275,268	4,055	237,672	121,382
276,282	4,071	237,417	121,254
277,297	3,738	237,180	120,859
278,312	3,971	237,049	120,965
279,326	3,916	236,947	120,859
280,341	3,920	236,880	120,817
281,355	3,967	236,726	120,764
282,370	4,076	236,542	120,746
283,384	4,013	236,315	120,570
284,399	3,802	236,236	120,354
285,414	3,736	236,000	120,171
286,428	3,760	235,961	120,159
287,443	4,006	235,784	120,250
288,457	3,826	235,727	120,070
289,472	4,228	235,548	120,282
290,487	4,142	235,295	120,075
291,501	3,716	234,959	119,561
292,516	3,604	234,971	119,469
293,530	3,569	234,782	119,336
294,545	4,068	234,782	119,713
295,560	3,947	234,651	119,541
296,574	3,755	234,445	119,276
297,589	4,049	234,269	119,405
298,603	4,130	234,260	119,452
299,618	4,457	233,998	119,561
300,633	4,095	233,882	119,211
301,647	4,068	233,731	119,103
302,662	4,421	233,809	119,405
303,676	4,343	233,518	119,186
304,691	4,371	233,412	119,142
305,706	4,470	233,214	119,107
306,720	4,294	233,177	118,941
307,735	4,271	232,951	118,797
308,749	4,094	232,699	118,523
309,764	3,876	232,455	118,220
310,779	3,772	232,367	118,085
311,793	3,768	232,086	117,928
312,808	3,577	231,913	117,684
313,822	3,590	231,817	117,635
314,837	3,905	231,592	117,751
315,852	3,719	231,573	117,588
316,866	3,743	231,527	117,573
317,881	4,038	231,262	117,653
318,895	3,983	231,074	117,505
319,910	4,132	231,108	117,625
320,925	4,073	231,037	117,534
321,939	4,077	230,778	117,395
322,954	4,143	230,772	117,431
323,968	3,984	230,525	117,175
324,983	3,880	230,214	116,927
325,997	4,170	230,140	117,099
327,012	4,322	230,132	117,200
328,027	4,219	229,926	117,006
329,041	4,389	229,939	117,132
330,056	4,635	229,884	117,280
331,070	4,900	229,711	117,383
332,085	4,540	229,336	116,908
333,100	4,082	229,221	116,492
334,114	4,212	229,052	116,495
335,129	4,561	228,946	116,694
336,143	4,696	228,854	116,738
337,158	4,543	228,640	116,503
338,173	3,998	228,615	116,069
339,187	4,360	228,329	116,186
340,202	4,296	228,284	116,104
341,216	4,149	228,137	115,909
342,231	4,007	227,946	115,695
343,246	4,213	227,753	115,742
344,260	4,032	227,654	115,545
345,275	4,448	227,486	115,761
346,289	4,609	227,411	115,834
347,304	4,370	227,328	115,601
348,319	4,299	227,209	115,478
349,333	4,109	226,907	115,172
350,348	4,077	226,651	115,008
351,362	4,122	226,649	115,030
352,377	3,815	226,473	114,702
353,392	3,698	226,229	114,481
354,406	3,913	226,073	114,551
355,421	195,101	1323,115	1398,937
356,435	156,363	1456,779	1398,938
