DTS Sentinel unit serial number:	SN410029Multiplexer serial number:	ORYXHardware model number:	OX2-SRSoftware version number:	ORYX F/W v4,00 Oryx Data Collector v3.7.2.0data status	okinstallation	B5 Nyhavnadifferential loss correction	single-endedforward channel	channel 2reverse channel	N/Adate	2023/12/12time	06:27:13forward acquisition time	300,00reverse acquisition time	0,00gamma	499,1914k internal	0,3157k external	0,3157temperature offset calibration	1,0000default loss term (dB/km)	0,3820temperature slope calibration	1,0000multiplexer offset coefficient	1,0000multiplexer slope coefficient	1,0000fibre end	0,00T internal ref (°C)	15,25T ext. ref 1 (°C)	-1,16T ext. ref 2 (°C)	-1,44length (m)	temperature (°C)	Stokes	anti-Stokes-744,400	72,852	0,155	0,119
-743,385	-75,038	-0,212	-0,056
-742,371	-200,000	-0,008	-0,111
-741,356	-128,397	-0,170	0,018
-740,342	460,338	-0,059	0,097
-739,327	-93,249	-0,205	0,042
-738,312	24,988	0,079	-0,048
-737,298	-151,593	-0,303	-0,016
-736,283	87,158	0,079	-0,064
-735,269	-82,395	-0,200	0,048
-734,254	486,503	0,055	0,094
-733,239	-54,655	-0,370	-0,123
-732,225	-122,831	0,200	0,023
-731,210	-112,803	-0,055	-0,008
-730,196	123,995	0,141	-0,130
-729,181	222,590	-0,112	-0,133
-728,167	106,190	-0,060	-0,052
-727,152	289,353	-0,041	0,055
-726,137	-45,459	-0,231	0,084
-725,123	101,831	0,040	-0,035
-724,108	770,570	-0,071	-0,144
-723,094	800,000	-0,056	-0,172
-722,079	-167,324	-0,047	-0,001
-721,064	-75,667	-0,079	-0,020
-720,050	800,000	-0,068	-0,157
-719,035	27,137	-0,066	0,041
-718,021	-3,332	-0,138	-0,071
-717,006	-200,000	0,001	-0,020
-715,991	402,713	-0,078	-0,122
-714,977	800,000	0,042	-0,133
-713,962	280,266	-0,020	-0,026
-712,948	98,239	0,111	0,094
-711,933	91,344	0,065	-0,054
-710,918	-11,359	0,108	0,052
-709,904	103,898	-0,179	-0,155
-708,889	-145,246	-0,115	-0,008
-707,875	-68,806	-0,121	-0,034
-706,860	800,000	0,044	-0,131
-705,845	70,078	-0,102	-0,077
-704,831	142,000	-0,052	0,051
-703,816	-1,365	0,096	-0,050
-702,802	117,637	0,108	0,098
-701,787	3,581	-0,120	0,064
-700,772	-134,212	-0,134	-0,012
-699,758	-155,723	-0,158	-0,007
-698,743	471,270	-0,040	0,066
-697,729	800,000	0,037	0,094
-696,714	287,027	-0,090	0,120
-695,699	-60,399	-0,049	-0,015
-694,685	-200,000	0,015	0,066
-693,670	111,080	-0,027	-0,024
-692,656	-39,052	0,031	-0,012
-691,641	-178,499	-0,145	0,002
-690,627	800,000	0,046	-0,098
-689,612	-200,000	0,012	0,093
-688,597	-200,000	0,013	0,053
-687,583	-200,000	-0,008	0,072
-686,568	800,000	-0,027	0,058
-685,554	209,961	0,047	-0,055
-684,539	770,449	0,020	-0,040
-683,524	-155,958	0,141	-0,006
-682,510	50,470	-0,122	0,085
-681,495	180,118	-0,068	-0,074
-680,481	443,840	0,052	-0,084
-679,466	800,000	-0,080	-0,173
-678,451	434,309	0,061	-0,098
-677,437	-200,000	0,004	0,049
-676,422	800,000	0,042	0,101
-675,408	800,000	0,027	0,078
-674,393	610,155	-0,075	-0,138
-673,378	-200,000	0,026	-0,184
-672,364	800,000	-0,033	-0,079
-671,349	338,279	-0,077	-0,111
-670,335	800,000	-0,007	0,019
-669,320	252,132	-0,102	0,129
-668,305	-200,000	0,012	0,051
-667,291	800,000	-0,026	-0,058
-666,276	504,371	-0,023	-0,039
-665,262	38,082	-0,103	0,067
-664,247	-55,263	0,072	0,024
-663,232	800,000	-0,052	0,154
-662,218	96,637	0,102	0,086
-661,203	800,000	-0,046	-0,122
-660,189	800,000	-0,016	0,038
-659,174	-200,000	-0,017	-0,087
-658,159	800,000	0,039	-0,081
-657,145	800,000	-0,065	-0,156
-656,130	-84,599	0,070	-0,016
-655,116	-40,123	-0,141	-0,054
-654,101	-100,644	0,146	-0,026
-653,086	95,644	0,057	-0,047
-652,072	800,000	0,016	0,047
-651,057	39,354	-0,128	-0,084
-650,043	800,000	-0,026	-0,066
-649,028	-1,312	-0,152	-0,079
-648,014	-85,701	0,049	-0,011
-646,999	401,512	0,041	-0,063
-645,984	-200,000	0,004	0,048
-644,970	18,903	-0,055	0,032
-643,955	-200,000	0,016	0,114
-642,941	171,554	0,078	-0,083
-641,926	-144,998	0,052	0,003
-640,911	192,560	-0,188	-0,208
-639,897	282,596	0,040	-0,052
-638,882	-22,063	0,049	0,022
-637,868	-200,000	0,002	-0,095
-636,853	99,502	-0,095	0,081
-635,838	59,545	-0,100	-0,072
-634,824	-56,265	0,022	-0,007
-633,809	555,313	0,019	-0,034
-632,795	-200,000	0,004	0,027
-631,780	78,065	-0,079	-0,062
-630,765	-91,453	0,095	-0,020
-629,751	-200,000	0,017	-0,096
-628,736	307,083	0,047	0,064
-627,722	-200,000	-0,006	-0,133
-626,707	129,590	0,167	0,156
-625,692	-200,000	0,029	-0,150
-624,678	-121,125	-0,095	-0,012
-623,663	-147,610	-0,112	0,007
-622,649	59,884	-0,102	-0,074
-621,634	183,367	-0,153	-0,166
-620,619	58,896	-0,044	0,032
-619,605	-200,000	-0,003	0,043
-618,590	-39,518	0,050	0,019
-617,576	-43,650	0,236	-0,087
-616,561	-133,189	0,057	0,005
-615,546	-133,399	-0,075	-0,007
-614,532	-200,000	-0,002	-0,018
-613,517	-8,718	-0,045	-0,022
-612,503	-67,916	-0,098	-0,028
-611,488	800,000	-0,029	-0,064
-610,474	-12,612	0,083	0,040
-609,459	351,097	-0,084	0,122
-608,444	81,200	-0,088	-0,070
-607,430	110,312	0,049	0,043
-606,415	-36,314	-0,027	-0,011
-605,401	417,880	0,062	-0,097
-604,386	326,237	-0,040	-0,056
-603,371	23,372	-0,065	0,039
-602,357	800,000	-0,026	-0,054
-601,342	410,829	-0,061	0,095
-600,328	410,260	-0,054	-0,084
-599,313	-46,460	0,025	0,009
-598,298	106,493	-0,018	0,016
-597,284	151,908	0,041	0,041
-596,269	60,521	0,105	0,076
-595,255	151,303	-0,076	-0,076
-594,240	-200,000	-0,007	-0,025
-593,225	-45,389	-0,066	0,024
-592,211	64,834	0,092	-0,068
-591,196	-198,830	0,085	-0,000
-590,182	168,388	-0,051	-0,054
-589,167	-38,640	0,151	-0,058
-588,152	17,674	-0,062	0,036
-587,138	414,518	-0,019	-0,030
-586,123	90,937	-0,041	0,034
-585,109	-90,533	0,119	-0,025
-584,094	-73,242	0,052	-0,014
-583,079	-200,000	0,002	0,097
-582,065	97,411	-0,043	0,036
-581,050	170,696	-0,066	0,069
-580,036	797,305	-0,042	0,086
-579,021	123,485	-0,113	-0,104
-578,006	-79,563	-0,114	0,028
-576,992	175,222	0,024	0,026
-575,977	-58,317	0,095	0,030
-574,963	67,381	0,136	0,101
-573,948	477,310	0,046	0,077
-572,934	154,384	-0,070	-0,070
-571,919	27,280	-0,132	0,081
-570,904	40,885	-0,047	-0,031
-569,890	-200,000	-0,007	-0,114
-568,875	272,287	0,057	-0,074
-567,861	-200,000	-0,004	0,109
-566,846	253,704	0,048	-0,060
-565,831	17,731	-0,045	0,026
-564,817	164,264	-0,066	-0,068
-563,802	-200,000	0,026	-0,089
-562,788	-200,000	0,013	-0,056
-561,773	237,792	-0,032	-0,039
-560,758	-200,000	-0,005	0,016
-559,744	-200,000	0,025	0,092
-558,729	398,112	0,017	-0,027
-557,715	800,000	0,009	-0,027
-556,700	-137,276	-0,034	-0,003
-555,685	27,304	0,151	-0,093
-554,671	58,774	0,083	0,060
-553,656	52,882	0,037	-0,026
-552,642	-200,000	0,006	-0,040
-551,627	-200,000	0,053	0,218
-550,612	586,090	-0,091	-0,165
-549,598	-67,308	-0,154	-0,044
-548,583	-200,000	0,020	-0,104
-547,569	121,901	0,112	0,102
-546,554	-200,000	0,013	0,093
-545,539	800,000	0,031	-0,101
-544,525	-174,970	-0,091	0,002
-543,510	-199,768	-0,099	0,000
-542,496	214,731	-0,031	-0,036
-541,481	-170,416	-0,079	0,002
-540,466	116,063	0,121	0,108
-539,452	718,413	-0,005	-0,010
-538,437	75,938	0,075	0,058
-537,423	146,371	-0,044	0,044
-536,408	800,000	0,036	-0,081
-535,393	173,726	-0,082	-0,087
-534,379	-95,855	-0,118	0,023
-533,364	20,002	-0,025	-0,015
-532,350	205,840	0,026	-0,029
-531,335	-181,985	0,253	-0,003
-530,321	-30,181	-0,079	-0,033
-529,306	164,055	-0,015	-0,016
-528,291	100,967	0,044	-0,038
-527,277	380,346	-0,171	-0,257
-526,262	800,000	0,053	-0,159
-525,248	800,000	0,019	0,057
-524,233	264,089	0,013	-0,017
-523,218	-38,817	0,030	0,011
-522,204	-108,461	0,139	0,022
-521,189	800,000	-0,112	-0,272
-520,175	-113,838	0,111	-0,016
-519,160	-57,982	0,055	0,017
-518,145	124,598	0,056	-0,052
-517,131	0,315	0,103	0,053
-516,116	170,962	0,107	-0,113
-515,102	-24,707	-0,105	0,045
-514,087	-27,407	-0,068	-0,029
-513,072	800,000	-0,034	0,086
-512,058	550,754	0,010	0,018
-511,043	44,957	0,058	-0,039
-510,029	366,167	-0,032	-0,047
-509,014	104,284	0,137	-0,117
-507,999	-69,029	0,054	0,015
-506,985	-200,000	-0,019	-0,088
-505,970	116,010	-0,010	0,009
-504,956	-14,395	0,048	0,022
-503,941	-150,121	-0,060	0,003
-502,926	-56,685	-0,080	0,026
-501,912	6,002	0,055	0,030
-500,897	-119,661	-0,121	0,015
-499,883	-200,000	-0,001	0,009
-498,868	353,278	0,041	-0,059
-497,853	30,986	0,067	0,042
-496,839	-200,000	-0,103	0,000
-495,824	56,427	0,043	0,030
-494,810	800,000	-0,041	-0,097
-493,795	46,097	0,059	-0,040
-492,781	-113,860	-0,027	-0,004
-491,766	-200,000	-0,005	0,128
-490,751	66,767	-0,113	-0,084
-489,737	-48,386	-0,051	-0,018
-488,722	-200,000	-0,040	0,130
-487,708	-200,000	0,046	0,158
-486,693	230,326	0,077	0,092
-485,678	-200,000	-0,006	-0,073
-484,664	363,374	0,013	0,019
-483,649	-45,533	-0,021	-0,007
-482,635	-33,758	-0,078	-0,031
-481,620	47,248	-0,065	0,044
-480,605	57,852	-0,045	0,032
-479,591	-200,000	-0,021	0,075
-478,576	25,136	0,103	-0,063
-477,562	80,116	0,073	-0,058
-476,547	800,000	-0,055	-0,139
-475,532	290,953	0,138	-0,183
-474,518	549,608	0,022	-0,039
-473,503	132,686	0,116	-0,109
-472,489	84,073	-0,043	-0,034
-471,474	168,238	-0,063	-0,065
-470,459	-200,000	-0,007	-0,054
-469,445	-200,000	-0,001	0,014
-468,430	205,690	0,091	-0,103
-467,416	728,967	-0,053	-0,104
-466,401	119,018	0,121	0,109
-465,386	600,021	-0,035	-0,063
-464,372	800,000	-0,071	0,178
-463,357	16,621	-0,060	-0,034
-462,343	800,000	-0,018	-0,057
-461,328	134,163	0,024	0,022
-460,313	49,680	-0,060	-0,041
-459,299	165,553	0,027	0,028
-458,284	-200,000	0,032	0,132
-457,270	-113,786	-0,072	-0,010
-456,255	193,935	0,093	-0,103
-455,241	800,000	-0,013	0,032
-454,226	800,000	0,066	-0,173
-453,211	-82,151	0,085	-0,020
-452,197	460,931	-0,020	0,033
-451,182	-169,716	0,151	-0,004
-450,168	800,000	0,024	-0,052
-449,153	800,000	-0,047	-0,106
-448,138	296,283	0,054	-0,073
-447,124	-57,292	-0,153	0,049
-446,109	-148,011	0,077	0,005
-445,095	560,715	-0,034	-0,060
-444,080	-54,571	0,180	-0,059
-443,065	-149,097	-0,047	-0,003
-442,051	-17,027	0,074	0,034
-441,036	153,083	-0,133	0,133
-440,022	159,554	0,045	-0,045
-439,007	231,376	-0,019	0,023
-437,992	-200,000	-0,016	0,124
-436,978	-110,878	0,119	0,018
-435,963	-135,813	0,105	-0,009
-434,949	-38,594	-0,049	0,019
-433,934	568,355	0,006	0,011
-432,919	102,953	0,021	0,017
-431,905	800,000	-0,028	0,063
-430,890	495,419	0,040	0,068
-429,876	-75,081	-0,099	0,026
-428,861	627,055	-0,063	0,117
-427,846	386,305	-0,053	0,080
-426,832	-147,772	-0,061	0,004
-425,817	-200,000	-0,006	0,089
-424,803	71,219	-0,055	0,041
-423,788	-200,000	0,020	0,127
-422,773	85,665	-0,016	0,013
-421,759	154,090	-0,028	0,028
-420,744	-13,019	0,114	-0,054
-419,730	-200,000	0,004	0,045
-418,715	353,927	-0,010	0,015
-417,701	800,000	-0,051	-0,104
-416,686	173,200	-0,047	0,049
-415,671	14,508	-0,095	-0,054
-414,657	-138,242	-0,069	-0,006
-413,642	-17,801	0,049	-0,022
-412,628	147,450	-0,107	-0,105
-411,613	-200,000	-0,018	-0,104
-410,598	238,274	0,073	-0,089
-409,584	800,000	0,029	-0,066
-408,569	88,390	0,084	0,068
-407,555	114,969	-0,012	-0,011
-406,540	173,688	0,024	-0,025
-405,525	-70,814	0,029	0,008
-404,511	567,260	-0,107	-0,190
-403,496	-200,000	0,011	-0,059
-402,482	-18,615	-0,090	0,041
-401,467	800,000	0,049	-0,108
-400,452	800,000	0,001	-0,003
-399,438	46,476	-0,122	0,082
-398,423	-200,000	0,003	0,013
-397,409	-22,908	0,049	-0,021
-396,394	-200,000	0,017	0,093
-395,379	430,912	-0,007	0,011
-394,365	-200,000	0,039	0,140
-393,350	0,123	0,160	-0,083
-392,336	82,861	0,052	0,041
-391,321	-141,648	0,105	0,008
-390,306	338,742	0,023	0,033
-389,292	235,649	-0,099	0,119
-388,277	48,252	-0,040	-0,027
-387,263	268,487	0,075	0,096
-386,248	-10,099	0,097	-0,047
-385,233	800,000	0,023	0,053
-384,219	-79,332	0,035	-0,009
-383,204	-200,000	0,014	-0,080
-382,190	-200,000	0,017	0,086
-381,175	-200,000	0,036	-0,174
-380,160	-144,819	-0,130	-0,009
-379,146	155,120	0,038	-0,038
-378,131	-11,707	0,049	0,023
-377,117	213,939	-0,108	0,125
-376,102	800,000	-0,014	-0,042
-375,088	800,000	0,019	0,048
-374,073	800,000	-0,053	-0,143
-373,058	278,880	0,077	0,100
-372,044	25,420	-0,061	0,037
-371,029	-104,232	-0,057	0,010
-370,015	-92,019	0,104	-0,021
-369,000	800,000	0,020	0,044
-367,985	-200,000	0,007	-0,026
-366,971	800,000	-0,077	-0,214
-365,956	800,000	-0,030	0,079
-364,942	63,433	0,103	0,075
-363,927	-62,919	0,125	0,037
-362,912	-116,048	-0,062	0,008
-361,898	480,163	0,064	-0,106
-360,883	772,497	-0,044	-0,087
-359,869	3,987	-0,126	0,067
-358,854	-200,000	-0,022	-0,097
-357,839	297,326	-0,086	0,114
-356,825	800,000	0,039	0,107
-355,810	-79,491	0,173	-0,042
-354,796	33,753	-0,073	0,046
-353,781	7,313	0,081	-0,044
-352,766	-200,000	0,002	-0,124
-351,752	92,743	-0,083	-0,068
-350,737	-17,855	-0,104	0,047
-349,723	-98,989	0,053	-0,010
-348,708	315,585	-0,085	0,117
-347,693	-136,847	-0,104	-0,009
-346,679	-99,157	0,085	-0,015
-345,664	114,553	-0,114	0,101
-344,650	-200,000	0,004	0,181
-343,635	-200,000	0,049	0,204
-342,620	-91,556	-0,144	0,030
-341,606	-72,548	-0,066	0,018
-340,591	-200,000	-0,006	0,079
-339,577	800,000	-0,019	-0,055
-338,562	149,535	0,061	0,060
-337,548	179,068	-0,078	-0,083
-336,533	-200,000	0,021	0,162
-335,518	-200,000	-0,009	0,067
-334,504	159,741	0,098	-0,099
-333,489	138,912	-0,071	-0,067
-332,475	800,000	0,046	0,118
-331,460	22,719	0,060	-0,035
-330,445	800,000	0,043	0,095
-329,431	588,644	-0,075	0,135
-328,416	74,767	0,077	0,058
-327,402	166,182	0,058	0,059
-326,387	-200,000	-0,018	-0,062
-325,372	572,893	-0,033	-0,059
-324,358	-200,000	0,002	-0,071
-323,343	13,393	0,038	-0,021
-322,329	800,000	-0,024	-0,074
-321,314	-66,443	0,057	0,016
-320,299	-166,507	0,034	0,001
-319,285	-200,000	0,007	-0,032
-318,270	472,897	-0,082	-0,134
-317,256	532,288	-0,080	-0,138
-316,241	-101,200	-0,052	-0,009
-315,226	800,000	0,036	0,075
-314,212	-200,000	-0,008	-0,134
-313,197	-200,000	0,024	0,106
-312,183	90,998	-0,056	-0,045
-311,168	204,667	0,044	-0,049
-310,153	-200,000	-0,003	0,064
-309,139	487,948	0,025	-0,041
-308,124	-200,000	0,037	-0,120
-307,110	431,787	0,048	0,075
-306,095	523,004	0,090	0,154
-305,080	200,856	0,059	0,066
-304,066	-200,000	-0,002	-0,077
-303,051	140,697	0,036	0,034
-302,037	800,000	-0,004	-0,010
-301,022	800,000	0,026	0,073
-300,008	88,589	-0,024	0,020
-298,993	7,650	0,182	0,098
-297,978	676,365	0,043	0,082
-296,964	-200,000	0,000	-0,104
-295,949	-144,489	-0,112	0,007
-294,935	-200,000	0,007	-0,025
-293,920	-106,651	-0,074	-0,012
-292,905	566,800	-0,053	0,094
-291,891	800,000	0,038	0,091
-290,876	-161,301	-0,134	0,005
-289,862	-200,000	-0,000	0,061
-288,847	-200,000	-0,010	-0,090
-287,832	453,210	-0,072	-0,115
-286,818	-56,787	0,085	-0,027
-285,803	103,877	0,042	0,036
-284,789	141,539	0,125	-0,119
-283,774	-42,878	0,065	-0,024
-282,759	-63,087	0,005	0,002
-281,745	-200,000	0,005	-0,021
-280,730	-36,223	-0,121	0,047
-279,716	296,898	0,031	0,042
-278,701	800,000	0,061	0,152
-277,686	-200,000	0,053	0,295
-276,672	-69,025	-0,062	-0,017
-275,657	-135,912	0,069	-0,006
-274,643	98,258	0,107	0,089
-273,628	126,189	-0,133	0,122
-272,613	-200,000	0,031	-0,120
-271,599	-121,258	0,089	0,011
-270,584	-200,000	0,009	0,194
-269,570	-96,510	0,191	0,036
-268,555	-121,560	0,079	-0,009
-267,540	-71,454	-0,193	-0,052
-266,526	125,807	0,127	-0,116
-265,511	386,687	0,010	0,015
-264,497	-175,560	0,136	-0,003
-263,482	260,369	0,073	0,092
-262,467	-200,000	-0,032	0,110
-261,453	-100,476	-0,073	0,013
-260,438	-200,000	0,001	0,099
-259,424	-200,000	-0,043	-0,145
-258,409	-200,000	0,038	0,121
-257,395	-111,119	0,018	-0,003
-256,380	34,767	-0,069	0,044
-255,365	-133,086	0,099	0,009
-254,351	-122,861	0,086	-0,010
-253,336	143,917	-0,033	-0,032
-252,322	15,015	0,072	-0,041
-251,307	111,166	-0,127	-0,111
-250,292	50,900	-0,144	0,099
-249,278	190,729	0,146	0,159
-248,263	320,631	-0,034	0,047
-247,249	113,722	0,022	-0,019
-246,234	290,595	0,039	0,051
-245,219	-167,673	-0,153	-0,004
-244,205	255,069	-0,039	0,048
-243,190	800,000	0,018	0,057
-242,176	171,304	-0,027	0,029
-241,161	-200,000	-0,016	-0,105
-240,146	119,316	-0,074	0,066
-239,132	429,569	-0,050	0,079
-238,117	-200,000	-0,024	-0,136
-237,103	800,000	0,000	-0,001
-236,088	89,752	-0,069	0,056
-235,073	83,323	0,087	-0,068
-234,059	641,740	-0,074	0,137
-233,044	-152,751	0,258	-0,013
-232,030	-46,407	-0,134	-0,047
-231,015	-200,000	-0,011	-0,049
-230,000	24,521	-0,037	-0,022
-228,986	-139,805	-0,040	0,003
-227,971	-50,980	0,103	-0,035
-226,957	184,766	0,062	0,067
-225,942	205,726	0,069	-0,077
-224,927	800,000	-0,024	-0,060
-223,913	-200,000	0,022	-0,115
-222,898	-33,647	-0,056	-0,022
-221,884	-99,541	-0,134	0,024
-220,869	667,900	0,066	-0,124
-219,855	-44,534	0,111	0,040
-218,840	-200,000	0,009	-0,044
-217,825	800,000	0,010	0,020
-216,811	-94,135	-0,162	-0,032
-215,796	-200,000	0,001	0,059
-214,782	800,000	-0,047	0,147
-213,767	-200,000	-0,020	0,078
-212,752	76,968	0,093	-0,071
-211,738	-142,450	0,059	0,004
-210,723	10,746	0,063	-0,035
-209,709	-177,822	-0,090	-0,002
-208,694	800,000	0,058	-0,121
-207,679	247,474	0,017	-0,021
-206,665	117,940	0,002	-0,002
-205,650	452,921	-0,054	-0,086
-204,636	-135,993	-0,067	0,006
-203,621	51,192	-0,054	-0,037
-202,606	438,702	0,067	0,107
-201,592	-92,539	-0,122	-0,025
-200,577	-200,000	0,012	-0,055
-199,563	-200,000	0,013	-0,163
-198,548	-43,891	0,041	-0,015
-197,533	800,000	0,027	0,056
-196,519	-101,924	0,081	-0,014
-195,504	119,896	0,019	0,017
-194,490	63,553	-0,094	0,068
-193,475	-200,000	0,007	0,060
-192,460	-135,681	0,007	0,001
-191,446	-37,535	-0,059	0,023
-190,431	43,187	0,078	-0,051
-189,417	-144,972	-0,168	-0,011
-188,402	-138,801	-0,080	-0,006
-187,387	665,153	0,022	0,040
-186,373	-111,194	0,113	0,016
-185,358	206,181	0,053	0,060
-184,344	-99,523	-0,100	0,018
-183,329	-15,573	-0,068	0,031
-182,315	86,378	-0,138	0,110
-181,300	216,349	0,116	-0,133
-180,285	29,001	-0,095	0,058
-179,271	142,821	-0,156	-0,149
-178,256	56,210	-0,070	0,049
-177,242	649,884	0,052	0,096
-176,227	800,000	0,081	0,198
-175,212	716,981	0,073	0,140
-174,198	-200,000	0,011	0,037
-173,183	-156,356	-0,075	0,003
-172,169	-49,090	-0,061	0,021
-171,154	733,473	-0,017	0,032
-170,139	-115,425	-0,015	0,002
-169,125	-25,617	0,129	0,055
-168,110	271,089	0,009	0,011
-167,096	20,802	0,053	0,031
-166,081	-200,000	-0,027	-0,092
-165,066	800,000	-0,024	0,053
-164,052	-130,333	0,035	-0,003
-163,037	800,000	-0,022	0,059
-162,023	-100,470	-0,052	-0,009
-161,008	800,000	-0,031	0,064
-159,993	659,451	-0,057	0,107
-158,979	-31,049	-0,069	0,028
-157,964	214,814	0,086	-0,098
-156,950	51,128	-0,090	0,061
-155,935	-74,189	0,120	-0,031
-154,920	-10,535	-0,059	-0,028
-153,906	-200,000	0,035	0,130
-152,891	800,000	-0,020	0,060
-151,877	-109,865	0,040	-0,006
-150,862	-37,357	-0,072	-0,028
-149,847	379,238	-0,069	-0,103
-148,833	800,000	-0,029	-0,076
-147,818	-40,826	-0,047	0,018
-146,804	-19,877	0,090	0,040
-145,789	-61,129	0,062	0,019
-144,775	800,000	-0,077	-0,177
-143,760	615,640	-0,077	-0,139
-142,745	792,908	-0,003	-0,006
-141,731	-200,000	-0,049	0,179
-140,716	447,582	0,053	0,085
-139,702	290,992	0,058	-0,077
-138,687	5,944	0,032	0,017
-137,672	374,337	-0,053	-0,078
-136,658	89,868	0,059	-0,048
-135,643	112,804	-0,034	-0,030
-134,629	-18,413	0,140	-0,063
-133,614	443,010	-0,012	0,019
-132,599	69,107	-0,073	-0,054
-131,585	135,955	-0,056	0,053
-130,570	35,698	0,046	-0,029
-129,556	95,049	-0,077	-0,063
-128,541	-81,446	-0,074	-0,017
-127,526	587,366	0,032	-0,058
-126,512	-200,000	-0,013	-0,059
-125,497	317,350	0,100	0,137
-124,483	-200,000	-0,012	0,064
-123,468	524,415	-0,077	-0,131
-122,453	-200,000	0,009	-0,056
-121,439	-200,000	0,004	-0,066
-120,424	429,098	0,008	-0,012
-119,410	-139,079	0,041	0,003
-118,395	31,768	0,162	0,100
-117,380	-200,000	-0,010	-0,049
-116,366	-200,000	-0,008	0,060
-115,351	238,433	-0,016	-0,019
-114,337	107,493	-0,154	-0,131
-113,322	257,516	-0,054	-0,067
-112,307	-200,000	0,029	-0,100
-111,293	-117,418	-0,055	-0,007
-110,278	-200,000	0,021	0,110
-109,264	-98,373	0,011	-0,002
-108,249	114,830	0,042	0,037
-107,234	8,640	0,070	-0,038
-106,220	488,671	0,002	-0,003
-105,205	208,654	0,015	-0,016
-104,191	403,814	-0,073	0,110
-103,176	-117,793	0,061	-0,008
-102,162	22,302	-0,091	0,054
-101,147	-160,575	0,121	0,005
-100,132	-200,000	-0,009	-0,044
-99,118	-112,683	-0,203	-0,029
-98,103	-35,731	0,210	-0,081
-97,089	318,015	0,133	-0,181
-96,074	-107,536	0,053	-0,008
-95,059	-65,511	-0,106	0,030
-94,045	-200,000	-0,008	-0,028
-93,030	-106,687	-0,045	-0,007
-92,016	459,056	-0,079	-0,127
-91,001	69,458	0,116	0,086
-89,986	185,614	-0,012	0,013
-88,972	-200,000	0,006	-0,029
-87,957	-200,000	0,018	-0,121
-86,943	-200,000	-0,007	-0,042
-85,928	-141,189	0,088	0,006
-84,913	95,253	-0,048	-0,039
-83,899	-130,920	-0,062	-0,006
-82,884	139,062	-0,112	0,106
-81,870	800,000	-0,015	-0,033
-80,855	-43,829	0,063	0,023
-79,840	800,000	-0,028	-0,071
-78,826	800,000	-0,031	-0,076
-77,811	0,639	-0,034	0,017
-76,797	800,000	-0,017	0,049
-75,782	106,295	0,089	0,076
-74,767	114,746	-0,041	0,036
-73,753	800,000	0,030	0,078
-72,738	-104,719	0,159	-0,026
-71,724	402,063	0,014	-0,022
-70,709	-130,629	-0,025	-0,002
-69,694	252,840	-0,037	0,046
-68,680	-200,000	-0,011	0,126
-67,665	800,000	0,034	0,078
-66,651	-16,972	0,040	0,018
-65,636	538,891	-0,026	0,045
-64,622	800,000	0,004	-0,008
-63,607	8,123	0,051	-0,027
-62,592	-200,000	0,004	0,117
-61,578	200,519	0,092	-0,102
-60,563	2,061	0,016	0,008
-59,549	-7,427	-0,084	0,041
-58,534	32,458	-1,922	-1,190
-57,519	800,000	-0,311	-0,869
-56,505	-200,000	-1,265	-4,971
-55,490	49,337	0,756	0,510
-54,476	800,000	5,377	12,280
-53,461	-200,000	17,835	285,802
-52,446	800,000	728,518	2219,576
-51,432	535,550	1644,187	2810,122
-50,417	110,087	1634,414	1407,670
-49,403	75,991	1286,411	975,567
-48,388	32,095	1027,474	634,362
-47,373	20,251	989,214	571,699
-46,359	18,493	977,091	558,909
-45,344	15,563	973,204	547,078
-44,330	15,793	971,752	546,993
-43,315	15,309	969,862	544,325
-42,300	15,285	968,777	543,618
-41,286	15,282	967,828	543,054
-40,271	15,278	966,854	542,473
-39,257	15,297	965,775	541,907
-38,242	15,281	964,884	541,335
-37,227	15,279	964,211	540,927
-36,213	15,300	963,302	540,464
-35,198	15,290	962,397	539,902
-34,184	15,280	961,703	539,460
-33,169	15,223	960,714	538,701
-32,154	15,305	959,772	538,414
-31,140	15,219	958,934	537,648
-30,125	15,277	958,195	537,397
-29,111	15,238	957,546	536,886
-28,096	15,341	956,790	536,772
-27,082	15,332	955,933	536,241
-26,067	15,292	955,271	535,721
-25,052	15,259	954,417	535,116
-24,038	15,268	953,842	534,801
-23,023	15,207	953,233	534,241
-22,009	15,342	952,543	534,267
-20,994	15,314	951,966	533,833
-19,979	15,305	951,299	533,407
-18,965	15,328	950,553	533,041
-17,950	15,276	950,182	532,645
-16,936	15,238	949,464	532,101
-15,921	15,212	948,670	531,554
-14,906	15,136	948,025	530,927
-13,892	15,129	947,312	530,486
-12,877	15,184	946,712	530,303
-11,863	15,191	946,066	529,944
-10,848	15,207	945,395	529,596
-9,833	15,260	945,055	529,552
-8,819	15,236	944,515	529,155
-7,804	15,160	943,845	528,517
-6,790	15,180	943,330	528,269
-5,775	15,274	942,658	528,172
-4,760	15,238	941,935	527,632
-3,746	15,189	941,410	527,162
-2,731	15,002	940,849	526,234
-1,717	15,071	940,024	525,969
-0,702	14,996	939,431	525,379
0,313	14,826	938,692	525,222
1,327	18,173	936,488	534,482
2,342	27,264	793,725	477,071
3,356	24,011	458,579	270,637
4,371	-3,317	314,279	156,445
5,386	-7,420	296,170	143,266
6,400	-9,512	290,084	138,234
7,415	-9,715	287,510	136,795
8,429	-9,919	286,099	135,912
9,444	-10,177	285,135	135,190
10,459	-10,094	284,695	135,050
11,473	-9,987	283,920	134,775
12,488	-10,017	283,487	134,528
13,502	-10,142	282,942	134,136
14,517	-10,021	282,349	133,960
15,531	-9,995	282,046	133,830
16,546	-9,983	281,618	133,626
17,561	-10,044	281,233	133,373
18,575	-10,068	280,984	133,220
19,590	-9,970	280,714	133,174
20,604	-10,088	280,375	132,888
21,619	-10,065	280,014	132,727
22,634	-10,174	279,565	132,398
23,648	-10,022	279,161	132,341
24,663	-9,997	279,015	132,284
25,677	-10,059	278,733	132,078
26,692	-9,963	278,360	131,981
27,707	-9,949	278,194	131,904
28,721	-9,879	277,963	131,850
29,736	-10,101	277,689	131,497
30,750	-10,044	277,426	131,414
31,765	-10,113	277,174	131,218
32,780	-10,085	276,899	131,103
33,794	-10,126	276,599	130,910
34,809	-10,019	276,433	130,922
35,823	-10,075	276,080	130,690
36,838	-10,081	275,652	130,470
37,853	-9,949	275,471	130,496
38,867	-10,120	275,513	130,344
39,882	-10,077	275,254	130,250
40,896	-10,058	275,027	130,149
41,911	-10,131	274,702	129,915
42,926	-10,257	274,449	129,666
43,940	-10,143	274,213	129,650
44,955	-10,105	274,040	129,592
45,969	-10,078	273,671	129,431
46,984	-10,466	273,594	129,021
47,999	-10,473	273,282	128,855
49,013	-10,466	272,909	128,674
50,028	-10,800	272,757	128,281
51,042	-10,698	272,446	128,218
52,057	-10,785	272,181	128,001
53,071	-10,699	271,920	127,947
54,086	-10,679	271,836	127,914
55,101	-10,421	271,578	128,020
56,115	-10,374	271,509	128,020
57,130	-9,867	271,286	128,372
58,144	-9,941	271,106	128,207
59,159	-9,985	270,854	128,036
60,174	-9,904	270,650	128,003
61,188	-9,989	270,478	127,831
62,203	-9,974	270,129	127,669
63,217	-9,944	270,098	127,671
64,232	-9,939	269,844	127,544
65,247	-9,932	269,504	127,378
66,261	-9,994	269,368	127,246
67,276	-10,089	269,058	127,001
68,290	-10,170	268,789	126,789
69,305	-10,348	268,402	126,432
70,320	-10,157	268,352	126,571
71,334	-9,942	268,212	126,691
72,349	-10,096	267,972	126,425
73,363	-10,106	267,759	126,305
74,378	-10,024	267,544	126,266
75,393	-9,968	267,488	126,280
76,407	-9,954	267,195	126,143
77,422	-9,941	266,834	125,973
78,436	-10,014	266,661	125,814
79,451	-9,971	266,510	125,770
80,466	-9,999	266,244	125,609
81,480	-10,140	266,022	125,365
82,495	-10,072	265,693	125,260
83,509	-9,947	265,628	125,331
84,524	-10,047	265,252	125,052
85,539	-10,329	265,036	124,685
86,553	-10,146	264,887	124,769
87,568	-10,155	264,694	124,659
88,582	-10,118	264,529	124,603
89,597	-10,125	264,280	124,469
90,611	-9,931	264,170	124,580
91,626	-9,871	263,937	124,513
92,641	-9,936	263,905	124,428
93,655	-10,025	263,626	124,206
94,670	-9,963	263,352	124,121
95,684	-9,925	263,023	123,989
96,699	-10,115	262,995	123,795
97,714	-10,131	262,765	123,661
98,728	-10,241	262,562	123,457
99,743	-10,236	262,305	123,329
100,757	-10,255	262,170	123,238
101,772	-10,302	261,839	123,030
102,787	-10,049	261,753	123,203
103,801	-9,869	261,492	123,229
104,816	-9,843	261,294	123,148
105,830	-9,980	261,323	123,028
106,845	-9,902	261,201	123,030
107,860	-9,969	260,740	122,742
108,874	-10,072	260,719	122,631
109,889	-9,972	260,360	122,539
110,903	-10,006	260,133	122,391
111,918	-10,037	259,903	122,244
112,933	-9,967	259,847	122,269
113,947	-10,004	259,781	122,195
114,962	-9,959	259,508	122,094
115,976	-9,971	259,301	121,976
116,991	-9,849	258,915	121,890
118,006	-9,906	258,811	121,781
119,020	-10,120	258,868	121,609
120,035	-10,069	258,797	121,610
121,049	-9,880	258,449	121,600
122,064	-9,892	258,056	121,395
123,079	-9,926	258,143	121,395
124,093	-9,908	257,667	121,176
125,108	-10,014	257,511	120,999
126,122	-10,088	257,263	120,807
127,137	-10,155	257,081	120,653
128,151	-10,338	256,923	120,409
129,166	-10,212	256,903	120,498
130,181	-10,182	256,446	120,299
131,195	-10,156	256,295	120,241
132,210	-10,096	256,197	120,236
133,224	-9,988	256,023	120,237
134,239	-10,062	255,921	120,114
135,254	-9,802	255,558	120,157
136,268	-9,875	255,349	119,985
137,283	-10,272	255,140	119,534
138,297	-10,420	254,945	119,305
139,312	-10,338	254,694	119,247
140,327	-10,110	254,569	119,374
141,341	-9,787	254,395	119,560
142,356	-9,772	254,322	119,528
143,370	-9,769	254,266	119,494
144,385	-9,738	253,970	119,370
145,400	-9,699	253,731	119,281
146,414	-9,798	253,717	119,178
147,429	-9,781	253,532	119,096
148,443	-9,797	253,351	118,986
149,458	-9,704	253,146	118,959
150,473	-9,761	252,909	118,788
151,487	-9,886	252,694	118,570
152,502	-9,853	252,566	118,528
153,516	-9,866	252,359	118,409
154,531	-9,787	252,201	118,391
155,546	-9,704	251,969	118,343
156,560	-9,863	251,869	118,150
157,575	-9,869	251,567	117,992
158,589	-9,903	251,533	117,937
159,604	-9,704	251,222	117,950
160,619	-9,768	251,124	117,838
161,633	-9,634	250,776	117,778
162,648	-9,766	250,744	117,641
163,662	-9,822	250,672	117,549
164,677	-9,776	250,568	117,529
165,692	-9,845	250,236	117,304
166,706	-9,794	250,140	117,292
167,721	-9,743	249,942	117,232
168,735	-9,813	249,808	117,100
169,750	-9,699	249,593	117,084
170,764	-9,702	249,452	117,005
171,779	-9,573	249,433	117,094
172,794	-9,685	249,159	116,861
173,808	-9,954	249,015	116,558
174,823	-10,168	248,633	116,189
175,837	-10,259	248,461	116,022
176,852	-9,884	248,375	116,286
177,867	-9,884	248,353	116,264
178,881	-9,819	248,174	116,225
179,896	-9,748	248,022	116,203
180,910	-9,799	247,683	115,991
181,925	-9,780	247,661	115,986
182,940	-9,740	247,379	115,877
183,954	-9,753	247,433	115,881
184,969	-9,749	247,064	115,701
185,983	-9,628	246,887	115,709
186,998	-9,475	246,622	115,701
188,013	-9,719	246,600	115,478
189,027	-9,681	246,401	115,406
190,042	-9,747	246,148	115,222
191,056	-9,568	246,034	115,307
192,071	-9,865	245,979	115,025
193,086	-9,869	245,634	114,851
194,100	-9,858	245,590	114,828
195,115	-9,786	245,418	114,797
196,129	-9,455	245,075	114,900
197,144	-9,835	245,024	114,552
198,159	-9,977	244,887	114,361
199,173	-9,764	244,693	114,435
200,188	-9,679	244,420	114,368
201,202	-9,979	244,216	114,015
202,217	-10,227	244,111	113,753
203,232	-10,340	243,727	113,471
204,246	-9,850	243,675	113,838
205,261	-9,463	243,700	114,157
206,275	-10,215	243,328	113,357
207,290	-7,229	244,553	116,372
208,304	-0,126	246,750	123,283
209,319	3,305	247,669	126,571
210,334	3,794	247,649	126,954
211,348	3,869	247,686	127,023
212,363	4,156	247,566	127,187
213,377	4,255	247,242	127,092
214,392	4,053	247,205	126,894
215,407	3,958	247,005	126,702
216,421	4,128	246,751	126,701
217,436	4,157	246,768	126,722
218,450	4,429	246,525	126,809
219,465	3,934	246,355	126,304
220,480	3,737	246,048	125,973
221,494	3,655	245,941	125,840
222,509	3,746	245,755	125,809
223,523	3,857	245,554	125,786
224,538	3,379	245,324	125,265
225,553	3,558	245,243	125,359
226,567	3,752	245,024	125,395
227,582	3,757	244,819	125,282
228,596	3,815	244,729	125,273
229,611	3,686	244,440	125,008
230,626	3,422	244,217	124,669
231,640	3,553	244,278	124,795
232,655	3,720	244,053	124,805
233,669	3,593	243,799	124,561
234,684	3,349	243,778	124,340
235,699	3,767	243,507	124,530
236,713	3,954	243,587	124,711
237,728	3,593	243,364	124,294
238,742	3,415	243,104	124,006
239,757	3,469	242,872	123,920
240,772	3,640	242,633	123,926
241,786	3,703	242,538	123,916
242,801	3,515	242,401	123,684
243,815	3,213	242,297	123,377
244,830	3,661	242,213	123,684
245,844	3,790	242,032	123,684
246,859	3,829	241,695	123,533
247,874	3,601	241,672	123,326
248,888	3,525	241,578	123,206
249,903	3,535	241,637	123,233
250,917	3,715	241,312	123,201
251,932	3,884	241,246	123,292
252,947	3,911	240,858	123,105
253,961	3,588	240,721	122,765
254,976	3,781	240,555	122,823
255,990	3,924	240,524	122,911
257,005	3,527	240,293	122,465
258,020	3,407	240,078	122,249
259,034	3,459	239,998	122,238
260,049	3,586	239,881	122,269
261,063	3,719	239,655	122,249
262,078	3,350	239,618	121,925
263,093	3,961	239,344	122,261
264,107	3,801	239,214	122,056
265,122	3,573	239,018	121,765
266,136	3,543	238,975	121,708
267,151	4,041	238,770	121,988
268,166	3,500	238,558	121,441
269,180	3,230	238,414	121,142
270,195	3,982	238,447	121,743
271,209	4,334	238,310	121,941
272,224	3,525	237,941	121,102
273,239	3,276	237,851	120,849
274,253	3,503	237,551	120,865
275,268	3,677	237,558	120,995
276,282	3,877	237,299	121,010
277,297	3,303	237,102	120,447
278,312	3,510	237,045	120,570
279,326	3,768	236,940	120,709
280,341	3,602	236,879	120,536
281,355	3,698	236,596	120,457
282,370	3,838	236,476	120,495
283,384	3,614	236,473	120,307
284,399	3,531	236,063	120,023
285,414	3,433	235,968	119,887
286,428	3,435	235,855	119,821
287,443	3,635	235,740	119,908
288,457	3,679	235,730	119,927
289,472	3,960	235,346	119,940
290,487	3,656	235,443	119,741
291,501	3,311	235,166	119,321
292,516	3,227	234,971	119,146
293,530	3,157	234,693	118,939
294,545	3,715	234,673	119,353
295,560	3,580	234,516	119,157
296,574	3,491	234,190	118,912
297,589	3,678	234,218	119,061
298,603	3,910	234,185	119,213
299,618	3,759	234,066	119,025
300,633	3,580	233,961	118,822
301,647	3,878	233,755	118,938
302,662	4,079	233,760	119,085
303,676	4,151	233,406	118,950
304,691	4,028	233,350	118,815
305,706	4,247	233,212	118,903
306,720	4,026	233,035	118,633
307,735	4,018	233,009	118,602
308,749	3,973	232,465	118,280
309,764	3,532	232,415	117,905
310,779	3,507	232,265	117,800
311,793	3,280	232,095	117,529
312,808	3,351	231,922	117,485
313,822	3,612	231,724	117,574
314,837	3,486	231,687	117,448
315,852	3,311	231,516	117,217
316,866	3,592	231,447	117,387
317,881	3,817	231,296	117,472
318,895	3,942	231,259	117,538
319,910	4,170	230,995	117,568
320,925	3,700	230,871	117,135
321,939	3,292	230,591	116,672
322,954	3,632	230,514	116,881
323,968	3,486	230,283	116,643
324,983	3,477	230,230	116,599
325,997	4,051	230,285	117,053
327,012	3,810	229,960	116,695
328,027	3,697	229,801	116,517
329,041	3,833	229,769	116,594
330,056	3,959	229,679	116,633
331,070	4,288	229,494	116,778
332,085	4,162	229,407	116,628
333,100	3,904	229,171	116,302
334,114	4,026	229,003	116,300
335,129	4,140	228,756	116,250
336,143	3,757	228,820	115,983
337,158	4,107	228,598	116,124
338,173	4,128	228,466	116,062
339,187	3,979	228,340	115,875
340,202	4,001	228,183	115,802
341,216	3,786	227,948	115,511
342,231	3,806	227,719	115,399
343,246	3,749	227,610	115,291
344,260	3,917	227,515	115,359
345,275	4,289	227,440	115,589
346,289	4,203	227,376	115,482
347,304	4,072	227,311	115,341
348,319	4,122	227,080	115,251
349,333	3,819	226,874	114,910
350,348	4,014	226,513	114,861
351,362	4,125	226,575	114,965
352,377	3,829	226,393	114,642
353,392	3,647	226,085	114,341
354,406	3,569	226,121	114,291
355,421	194,870	1321,826	1396,486
356,435	156,181	1455,314	1396,491
