DTS Sentinel unit serial number:	SN410029Multiplexer serial number:	ORYXHardware model number:	OX2-SRSoftware version number:	ORYX F/W v4,00 Oryx Data Collector v3.7.2.0data status	okinstallation	B5 Nyhavnadifferential loss correction	single-endedforward channel	channel 2reverse channel	N/Adate	2023/12/12time	04:42:13forward acquisition time	300,00reverse acquisition time	0,00gamma	499,1914k internal	0,3156k external	0,3156temperature offset calibration	1,0000default loss term (dB/km)	0,3820temperature slope calibration	1,0000multiplexer offset coefficient	1,0000multiplexer slope coefficient	1,0000fibre end	0,00T internal ref (°C)	15,45T ext. ref 1 (°C)	-1,02T ext. ref 2 (°C)	-1,31length (m)	temperature (°C)	Stokes	anti-Stokes-744,400	-80,829	0,170	-0,041
-743,385	-200,000	-0,324	-0,001
-742,371	570,569	0,091	0,164
-741,356	-63,525	-0,367	0,110
-740,342	-199,936	0,135	-0,000
-739,327	-15,178	-0,342	0,161
-738,312	-133,048	0,151	-0,014
-737,298	-46,437	-0,222	0,080
-736,283	-0,665	0,172	-0,090
-735,269	-69,964	-0,225	-0,063
-734,254	800,000	0,028	-0,058
-733,239	-85,983	-0,494	-0,112
-732,225	161,602	0,107	0,111
-731,210	800,000	-0,028	0,077
-730,196	-197,769	-0,188	0,001
-729,181	96,587	-0,065	-0,055
-728,167	-25,867	0,054	0,023
-727,152	165,738	-0,057	-0,059
-726,137	-9,277	-0,075	-0,037
-725,123	291,363	0,062	-0,084
-724,108	53,879	0,014	0,010
-723,094	-60,372	-0,182	-0,057
-722,079	146,030	-0,081	-0,080
-721,064	54,136	-0,062	-0,044
-720,050	-169,770	0,089	0,002
-719,035	-200,000	0,025	-0,085
-718,021	-86,555	-0,112	-0,025
-717,006	56,868	-0,077	-0,055
-715,991	554,434	-0,107	-0,191
-714,977	800,000	0,006	0,015
-713,962	160,745	0,027	0,027
-712,948	-200,000	-0,006	0,092
-711,933	800,000	-0,013	-0,042
-710,918	-75,653	-0,120	0,031
-709,904	60,768	-0,147	-0,107
-708,889	-59,460	0,089	-0,028
-707,875	-200,000	-0,017	-0,109
-706,860	800,000	0,052	-0,116
-705,845	-200,000	0,003	0,045
-704,831	800,000	0,041	-0,085
-703,816	-80,313	-0,032	-0,008
-702,802	-29,401	-0,066	-0,028
-701,787	187,388	0,089	0,098
-700,772	-200,000	-0,021	-0,070
-699,758	141,522	-0,080	0,078
-698,743	-108,639	-0,117	0,018
-697,729	800,000	-0,021	0,044
-696,714	-133,399	-0,076	0,007
-695,699	-48,556	-0,098	0,034
-694,685	800,000	0,031	-0,073
-693,670	-115,671	0,035	0,005
-692,656	-200,000	-0,034	-0,144
-691,641	23,049	0,059	0,036
-690,627	-133,341	0,124	0,011
-689,612	-60,558	-0,060	0,019
-688,597	800,000	0,034	0,088
-687,583	-79,769	0,086	0,021
-686,568	800,000	0,060	-0,141
-685,554	19,158	-0,080	-0,047
-684,539	-78,403	0,139	0,035
-683,524	30,813	0,057	-0,036
-682,510	-200,000	-0,005	0,079
-681,495	-40,034	-0,041	0,016
-680,481	266,875	-0,026	0,034
-679,466	-32,099	-0,085	0,035
-678,451	-200,000	0,027	-0,120
-677,437	-200,000	0,001	0,159
-676,422	248,563	0,023	-0,029
-675,408	-200,000	-0,019	0,134
-674,393	355,532	0,048	0,070
-673,378	324,899	-0,023	-0,033
-672,364	-200,000	-0,003	-0,141
-671,349	-141,945	-0,066	-0,005
-670,335	517,300	0,004	-0,007
-669,320	-200,000	-0,001	-0,088
-668,305	-64,137	0,199	0,059
-667,291	85,147	0,025	-0,020
-666,276	-123,083	-0,067	0,008
-665,262	-47,192	-0,166	-0,059
-664,247	659,747	0,047	0,088
-663,232	144,782	-0,105	-0,103
-662,218	190,702	0,065	0,072
-661,203	84,711	0,074	0,059
-660,189	-14,412	0,090	-0,042
-659,174	-138,939	0,023	0,002
-658,159	55,047	-0,125	-0,089
-657,145	-200,000	0,006	-0,047
-656,130	182,594	0,071	-0,077
-655,116	800,000	-0,113	0,233
-654,101	-22,824	-0,103	-0,045
-653,086	-22,748	0,109	-0,048
-652,072	-200,000	0,017	-0,194
-651,057	-145,928	0,061	-0,004
-650,043	385,173	-0,023	-0,034
-649,028	800,000	-0,031	0,098
-648,014	-200,000	0,004	0,047
-646,999	-124,516	0,156	0,018
-645,984	-200,000	0,003	0,047
-644,970	-56,708	-0,125	-0,041
-643,955	-6,210	-0,031	-0,016
-642,941	-200,000	-0,012	-0,084
-641,926	-113,895	-0,067	-0,010
-640,911	88,414	-0,074	0,060
-639,897	403,596	-0,079	-0,122
-638,882	800,000	-0,034	0,099
-637,868	-53,532	-0,166	0,056
-636,853	-65,862	-0,063	-0,018
-635,838	-29,266	-0,148	0,062
-634,824	-157,379	0,083	-0,004
-633,809	-129,462	0,101	-0,010
-632,795	800,000	-0,009	0,021
-631,780	-88,612	-0,090	0,020
-630,765	73,961	-0,109	0,084
-629,751	106,417	-0,066	-0,057
-628,736	-200,000	-0,003	-0,122
-627,722	-96,606	0,093	0,018
-626,707	126,301	-0,040	0,037
-625,692	90,595	0,057	-0,047
-624,678	-81,330	-0,071	-0,017
-623,663	0,317	-0,097	-0,050
-622,649	-45,611	-0,051	-0,018
-621,634	316,820	0,013	0,018
-620,619	-58,408	-0,129	-0,041
-619,605	257,610	0,115	-0,145
-618,590	-200,000	-0,013	-0,109
-617,576	-99,673	-0,203	0,037
-616,561	133,804	-0,057	-0,054
-615,546	-182,363	-0,097	0,001
-614,532	-125,040	0,077	-0,009
-613,517	752,870	0,070	-0,140
-612,503	712,651	-0,073	-0,142
-611,488	17,250	0,123	0,071
-610,474	213,040	-0,039	0,045
-609,459	248,614	0,054	0,067
-608,444	-200,000	-0,003	0,052
-607,430	800,000	0,025	-0,051
-606,415	392,882	0,067	-0,102
-605,401	-200,000	-0,038	0,144
-604,386	-82,469	0,040	0,009
-603,371	-32,672	-0,123	-0,050
-602,357	-200,000	0,028	0,106
-601,342	-200,000	0,003	-0,077
-600,328	-200,000	0,009	-0,086
-599,313	187,267	0,089	-0,098
-598,298	33,955	0,070	-0,045
-597,284	800,000	0,104	0,232
-596,269	800,000	-0,043	0,134
-595,255	-54,281	0,016	0,005
-594,240	-200,000	-0,002	-0,090
-593,225	-200,000	0,010	-0,089
-592,211	-200,000	-0,010	0,059
-591,196	-200,000	-0,031	-0,139
-590,182	-200,000	0,046	0,161
-589,167	270,464	0,023	0,030
-588,152	646,073	0,042	0,078
-587,138	-10,053	-0,052	-0,025
-586,123	76,457	-0,137	0,106
-585,109	-40,415	-0,083	-0,031
-584,094	29,911	0,032	0,020
-583,079	349,346	-0,037	-0,054
-582,065	110,643	-0,025	-0,022
-581,050	-17,684	0,071	-0,033
-580,036	312,268	-0,097	-0,133
-579,021	800,000	-0,059	-0,122
-578,006	-200,000	0,034	-0,122
-576,992	800,000	0,027	-0,063
-575,977	103,597	-0,086	0,074
-574,963	121,026	-0,068	0,062
-573,948	800,000	0,035	-0,091
-572,934	-173,956	0,061	0,001
-571,919	11,098	-0,071	0,040
-570,904	-24,832	0,078	0,034
-569,890	-97,481	-0,143	0,027
-568,875	-123,621	0,070	-0,008
-567,861	696,913	0,029	0,056
-566,846	-73,334	0,128	-0,034
-565,831	90,215	0,028	0,023
-564,817	-200,000	-0,027	0,149
-563,802	-200,000	0,001	-0,109
-562,788	-43,002	-0,164	-0,061
-561,773	-200,000	-0,014	-0,111
-560,758	61,071	0,076	0,055
-559,744	27,688	0,088	0,054
-558,729	-111,467	-0,106	0,016
-557,715	-55,482	0,111	0,036
-556,700	513,093	-0,026	-0,045
-555,685	800,000	-0,060	0,182
-554,671	-200,000	-0,000	-0,024
-553,656	-200,000	-0,001	0,024
-552,642	135,779	0,030	0,028
-551,627	-141,230	-0,081	-0,006
-550,612	240,554	0,041	0,050
-549,598	-38,201	-0,102	0,039
-548,583	-37,343	-0,074	0,029
-547,569	487,204	-0,075	-0,126
-546,554	263,509	-0,050	0,064
-545,539	-200,000	0,033	0,121
-544,525	428,124	-0,078	-0,124
-543,510	391,385	-0,066	-0,100
-542,496	-200,000	-0,008	-0,126
-541,481	-86,734	0,035	0,008
-540,466	-146,903	-0,090	0,006
-539,452	800,000	0,016	-0,032
-538,437	321,147	0,006	-0,008
-537,423	303,118	-0,016	-0,022
-536,408	108,727	-0,042	-0,037
-535,393	-146,810	0,044	0,003
-534,379	-18,528	0,090	-0,041
-533,364	106,453	0,039	0,034
-532,350	303,928	-0,018	-0,024
-531,335	394,577	-0,041	0,062
-530,321	-200,000	0,023	0,091
-529,306	24,773	0,123	0,074
-528,291	-200,000	-0,016	-0,093
-527,277	214,818	0,034	0,039
-526,262	179,624	0,065	-0,070
-525,248	-60,280	0,087	-0,027
-524,233	-200,000	-0,010	0,086
-523,218	27,143	-0,073	-0,045
-522,204	41,532	-0,160	-0,106
-521,189	-200,000	0,011	-0,242
-520,175	-200,000	-0,033	-0,127
-519,160	297,465	-0,104	-0,141
-518,145	6,057	0,075	-0,040
-517,131	478,140	0,070	-0,116
-516,116	-73,844	0,122	0,032
-515,102	101,961	-0,038	0,033
-514,087	-200,000	0,005	-0,021
-513,072	64,836	-0,142	0,105
-512,058	-29,649	-0,036	0,015
-511,043	16,818	0,149	0,086
-510,029	-200,000	0,011	0,069
-509,014	-200,000	-0,013	-0,106
-507,999	-147,154	0,041	-0,002
-506,985	6,378	-0,136	-0,074
-505,970	-200,000	-0,019	0,087
-504,956	-89,829	0,060	-0,013
-503,941	-200,000	0,117	0,000
-502,926	-200,000	-0,045	0,149
-501,912	-10,421	-0,051	0,025
-500,897	-23,187	0,155	-0,068
-499,883	800,000	0,027	-0,069
-498,868	-15,852	-0,060	0,028
-497,853	96,701	-0,128	0,107
-496,839	-75,911	-0,053	-0,014
-495,824	162,442	0,060	0,062
-494,810	25,611	-0,120	0,073
-493,795	-200,000	-0,003	0,075
-492,781	800,000	-0,068	-0,160
-491,766	152,867	-0,134	-0,134
-490,751	233,948	-0,053	-0,064
-489,737	-200,000	0,014	0,169
-488,722	800,000	0,036	0,083
-487,708	276,740	0,106	0,138
-486,693	-200,000	0,013	0,067
-485,678	786,650	-0,028	0,056
-484,664	-53,423	-0,042	0,014
-483,649	-200,000	0,006	-0,036
-482,635	800,000	-0,016	-0,043
-481,620	-186,417	0,147	0,001
-480,605	386,870	0,063	0,096
-479,591	-200,000	0,006	0,089
-478,576	-77,832	-0,197	0,049
-477,562	-116,859	-0,109	-0,014
-476,547	-32,692	-0,030	-0,012
-475,532	-92,667	0,060	0,012
-474,518	-82,858	-0,054	0,013
-473,503	-55,557	-0,051	-0,017
-472,489	800,000	-0,037	0,096
-471,474	-200,000	0,012	-0,144
-470,459	-40,017	-0,031	0,012
-469,445	8,444	-0,085	0,047
-468,430	-200,000	-0,002	-0,015
-467,416	-200,000	-0,004	0,084
-466,401	-173,703	-0,134	-0,003
-465,386	467,549	0,029	-0,048
-464,372	44,281	-0,101	-0,068
-463,357	34,763	-0,175	0,112
-462,343	-156,879	-0,100	0,004
-461,328	-112,383	0,073	-0,011
-460,313	-200,000	0,012	-0,058
-459,299	652,198	-0,008	-0,016
-458,284	-2,693	0,132	0,067
-457,270	428,462	0,055	-0,088
-456,255	-200,000	0,006	0,076
-455,241	-200,000	-0,011	0,063
-454,226	62,908	0,083	0,061
-453,211	800,000	0,029	0,071
-452,197	47,823	-0,047	0,032
-451,182	-200,000	-0,007	0,066
-450,168	-166,937	-0,061	-0,002
-449,153	64,677	0,078	0,057
-448,138	800,000	-0,071	-0,158
-447,124	-194,568	0,079	-0,000
-446,109	-200,000	0,002	0,021
-445,095	169,073	-0,015	0,015
-444,080	-200,000	0,007	-0,023
-443,065	-107,218	0,069	-0,011
-442,051	478,379	0,060	-0,099
-441,036	-65,430	0,112	-0,033
-440,022	-28,174	-0,114	-0,048
-439,007	97,997	-0,128	-0,108
-437,992	791,163	0,106	-0,213
-436,978	362,089	-0,042	0,062
-435,963	156,103	0,024	0,024
-434,949	-65,727	-0,071	0,021
-433,934	19,455	-0,085	-0,049
-432,919	474,195	-0,048	0,080
-431,905	-200,000	0,022	-0,135
-430,890	23,058	0,083	0,049
-429,876	567,047	0,023	0,041
-428,861	-200,000	-0,001	0,077
-427,846	-200,000	0,032	0,180
-426,832	-181,558	-0,149	-0,002
-425,817	221,648	-0,073	-0,086
-424,803	237,915	-0,071	-0,085
-423,788	-132,000	-0,041	0,004
-422,773	564,034	0,057	0,101
-421,759	-200,000	-0,020	-0,071
-420,744	655,315	0,049	0,093
-419,730	-58,701	-0,040	0,013
-418,715	-200,000	-0,015	0,089
-417,701	455,934	0,094	0,152
-416,686	91,401	0,106	0,087
-415,671	-152,945	0,127	0,006
-414,657	-200,000	-0,020	-0,107
-413,642	143,031	0,124	-0,120
-412,628	-200,000	-0,030	0,148
-411,613	800,000	-0,059	-0,143
-410,598	77,636	0,068	0,053
-409,584	-200,000	-0,005	0,072
-408,569	-200,000	-0,009	0,061
-407,555	-200,000	0,006	-0,048
-406,540	-200,000	0,005	0,038
-405,525	-125,209	0,161	-0,018
-404,511	142,920	0,097	-0,094
-403,496	581,753	-0,075	-0,135
-402,482	-85,127	-0,096	-0,022
-401,467	618,394	0,064	0,117
-400,452	-200,000	0,013	0,186
-399,438	-195,627	0,030	-0,000
-398,423	800,000	0,022	-0,064
-397,409	338,181	-0,085	-0,121
-396,394	250,295	0,085	-0,105
-395,379	800,000	-0,021	0,061
-394,365	477,528	0,049	0,081
-393,350	144,194	0,037	0,036
-392,336	-137,659	0,089	-0,007
-391,321	-42,332	-0,122	-0,045
-390,306	-200,000	0,016	-0,057
-389,292	45,172	0,089	-0,060
-388,277	-200,000	0,001	0,134
-387,263	-29,956	0,114	0,047
-386,248	-30,398	0,070	-0,029
-385,233	188,577	0,087	0,095
-384,219	276,900	0,032	0,041
-383,204	432,645	-0,020	0,032
-382,190	-33,976	-0,087	-0,035
-381,175	29,592	0,142	0,088
-380,160	84,993	0,097	-0,078
-379,146	-75,201	-0,057	0,015
-378,131	102,130	0,132	-0,112
-377,117	-200,000	-0,036	-0,134
-376,102	72,132	-0,160	-0,121
-375,088	-75,252	-0,037	0,010
-374,073	-200,000	-0,013	-0,069
-373,058	-100,024	0,015	0,003
-372,044	-129,497	0,043	-0,004
-371,029	296,309	-0,067	-0,090
-370,015	-200,000	0,002	0,020
-369,000	-66,828	0,114	-0,032
-367,985	-16,045	0,052	0,024
-366,971	124,189	0,022	0,020
-365,956	111,008	-0,033	0,029
-364,942	4,716	0,103	-0,055
-363,927	-62,015	-0,045	0,014
-362,912	210,808	-0,021	0,024
-361,898	-72,776	0,050	-0,013
-360,883	-200,000	-0,009	-0,104
-359,869	-200,000	0,000	0,015
-358,854	-73,012	0,114	0,030
-357,839	-66,918	-0,061	0,017
-356,825	-200,000	0,000	-0,036
-355,810	732,438	0,023	-0,046
-354,796	800,000	-0,021	-0,063
-353,781	147,316	-0,096	-0,094
-352,766	-200,000	-0,023	0,106
-351,752	-12,667	0,125	0,059
-350,737	87,604	0,101	0,081
-349,723	-41,134	0,127	0,047
-348,708	-200,000	0,025	0,119
-347,693	800,000	0,025	-0,053
-346,679	800,000	-0,042	0,100
-345,664	-200,000	0,000	-0,024
-344,650	594,640	0,045	-0,080
-343,635	-92,217	0,157	0,032
-342,620	800,000	-0,019	0,052
-341,606	800,000	-0,018	-0,051
-340,591	27,981	-0,050	-0,030
-339,577	-115,804	-0,107	-0,014
-338,562	83,902	0,090	0,071
-337,548	89,934	-0,054	0,044
-336,533	-200,000	0,002	0,053
-335,518	800,000	0,019	-0,042
-334,504	89,291	0,003	-0,002
-333,489	242,301	-0,036	0,043
-332,475	449,526	0,058	0,092
-331,460	-65,323	0,156	0,045
-330,445	-154,121	-0,041	0,002
-329,431	-197,005	0,068	0,000
-328,416	-105,901	0,083	-0,013
-327,402	509,878	-0,033	-0,056
-326,387	282,633	0,034	-0,044
-325,372	151,969	0,050	-0,050
-324,358	-200,000	-0,032	0,127
-323,343	731,982	-0,031	-0,060
-322,329	-37,465	0,177	0,068
-321,314	-156,025	0,071	0,003
-320,299	210,961	0,084	0,096
-319,285	764,167	-0,013	-0,025
-318,270	-56,284	-0,046	-0,015
-317,256	107,501	0,034	-0,029
-316,241	-33,198	0,143	-0,057
-315,226	66,017	-0,051	-0,037
-314,212	4,348	0,108	0,057
-313,197	388,685	-0,082	-0,123
-312,183	-200,000	0,005	0,024
-311,168	-200,000	0,021	-0,079
-310,153	73,740	-0,040	-0,030
-309,139	-184,834	-0,068	-0,001
-308,124	-44,481	0,077	-0,028
-307,110	294,206	0,050	0,066
-306,095	-37,308	0,157	0,060
-305,080	-200,000	-0,015	0,101
-304,066	-200,000	0,006	0,052
-303,051	31,296	-0,116	-0,072
-302,037	166,750	0,101	-0,104
-301,022	54,623	0,038	0,027
-300,008	186,753	-0,069	-0,075
-298,993	114,434	0,080	-0,070
-297,978	800,000	-0,016	0,048
-296,964	-42,294	-0,115	-0,042
-295,949	-45,311	0,130	-0,046
-294,935	350,251	-0,119	-0,171
-293,920	-95,700	0,172	0,033
-292,905	-200,000	-0,013	0,047
-291,891	800,000	0,050	-0,109
-290,876	-57,817	-0,029	0,009
-289,862	248,141	0,037	-0,046
-288,847	-200,000	0,018	0,076
-287,832	734,555	-0,027	0,053
-286,818	-100,743	0,073	-0,013
-285,803	217,611	-0,054	0,062
-284,789	-15,330	0,041	-0,019
-283,774	-103,767	-0,112	0,019
-282,759	-83,342	-0,044	-0,010
-281,745	-6,333	0,075	-0,037
-280,730	-3,503	-0,035	0,018
-279,716	800,000	0,026	-0,057
-278,701	-113,392	-0,150	-0,021
-277,686	462,440	-0,014	0,022
-276,672	98,882	0,023	-0,020
-275,657	800,000	-0,020	-0,046
-274,643	10,061	-0,067	0,037
-273,628	-59,661	0,030	0,009
-272,613	-200,000	-0,014	0,138
-271,599	220,232	0,028	0,033
-270,584	93,968	-0,054	0,045
-269,570	-100,455	0,045	-0,008
-268,555	628,736	-0,062	-0,114
-267,540	-37,419	0,102	0,039
-266,526	800,000	0,014	-0,041
-265,511	800,000	-0,034	-0,090
-264,497	28,930	-0,018	0,011
-263,482	629,708	0,045	0,082
-262,467	81,124	0,023	-0,018
-261,453	-200,000	0,029	0,160
-260,438	-122,645	-0,140	-0,016
-259,424	-27,229	-0,035	-0,015
-258,409	558,642	-0,020	-0,035
-257,395	-200,000	0,003	0,033
-256,380	151,638	0,005	-0,005
-255,365	156,455	-0,042	0,042
-254,351	73,605	-0,062	0,047
-253,336	53,410	0,106	-0,073
-252,322	659,986	0,067	-0,126
-251,307	-200,000	-0,008	-0,123
-250,292	-200,000	-0,013	0,049
-249,278	-200,000	-0,008	-0,067
-248,263	251,569	0,099	0,122
-247,249	-200,000	0,009	0,103
-246,234	183,968	-0,075	0,080
-245,219	492,207	-0,056	0,093
-244,205	53,688	-0,116	0,080
-243,190	-126,726	-0,069	0,007
-242,176	291,292	0,023	0,030
-241,161	-102,306	-0,103	-0,018
-240,146	-28,256	0,056	-0,023
-239,132	212,015	0,068	0,077
-238,117	224,528	-0,140	-0,164
-237,103	430,416	-0,071	-0,112
-236,088	60,207	0,085	-0,061
-235,073	636,796	-0,024	0,043
-234,059	-200,000	0,015	0,069
-233,044	800,000	0,040	0,091
-232,030	-200,000	0,014	0,114
-231,015	410,732	-0,054	0,082
-230,000	420,722	0,047	0,073
-228,986	-148,972	-0,025	-0,001
-227,971	94,437	0,046	0,038
-226,957	273,650	0,049	-0,063
-225,942	184,681	0,063	0,067
-224,927	-137,209	-0,078	0,006
-223,913	-200,000	0,022	-0,083
-222,898	1,179	-0,142	-0,073
-221,884	-110,428	-0,043	-0,006
-220,869	800,000	0,024	0,061
-219,855	195,149	-0,049	0,054
-218,840	342,558	0,045	0,063
-217,825	618,453	0,032	-0,058
-216,811	43,840	-0,034	0,022
-215,796	-38,938	0,064	0,024
-214,782	225,451	-0,049	-0,057
-213,767	-200,000	0,051	-0,173
-212,752	480,693	-0,019	-0,030
-211,738	132,413	-0,065	0,061
-210,723	-25,333	-0,050	-0,021
-209,709	-46,136	-0,032	0,011
-208,694	72,427	0,011	-0,008
-207,679	93,309	-0,041	-0,033
-206,665	665,837	0,010	-0,019
-205,650	183,308	0,081	0,086
-204,636	248,024	-0,082	0,100
-203,621	-200,000	-0,007	-0,035
-202,606	-200,000	-0,003	-0,055
-201,592	-200,000	-0,003	-0,117
-200,577	-159,443	-0,146	0,006
-199,563	-200,000	0,005	0,237
-198,548	160,187	0,091	0,092
-197,533	267,149	-0,032	-0,040
-196,519	-200,000	-0,010	0,091
-195,504	-92,292	0,096	0,019
-194,490	157,829	-0,087	-0,087
-193,475	348,315	0,113	0,161
-192,460	242,217	-0,057	-0,069
-191,446	-188,032	-0,046	0,000
-190,431	123,597	-0,056	-0,051
-189,417	-200,000	-0,005	0,086
-188,402	-133,350	-0,076	-0,007
-187,387	-94,984	0,115	-0,022
-186,373	15,854	-0,052	0,030
-185,358	163,525	-0,142	-0,145
-184,344	-102,553	0,067	-0,011
-183,329	-200,000	0,013	0,062
-182,315	359,191	0,081	-0,117
-181,300	-90,650	-0,107	0,022
-180,285	800,000	-0,037	-0,109
-179,271	-200,000	0,012	-0,153
-178,256	-64,999	-0,059	0,017
-177,242	-200,000	0,013	0,141
-176,227	7,367	0,177	-0,095
-175,212	-169,234	0,049	0,001
-174,198	-103,079	0,079	0,013
-173,183	127,295	0,123	-0,113
-172,169	-200,000	-0,005	0,072
-171,154	-4,426	-0,105	-0,052
-170,139	-31,773	0,139	-0,056
-169,125	676,894	0,028	0,053
-168,110	800,000	0,029	0,060
-167,096	-139,335	0,123	0,009
-166,081	-62,652	-0,056	-0,017
-165,066	44,789	-0,059	-0,039
-164,052	800,000	0,014	-0,030
-163,037	-152,431	0,172	-0,009
-162,023	159,526	0,058	0,058
-161,008	91,952	0,073	0,059
-159,993	92,782	-0,086	0,070
-158,979	-200,000	-0,027	0,089
-157,964	-31,412	0,057	-0,023
-156,950	-200,000	-0,001	-0,120
-155,935	777,904	-0,041	0,081
-154,920	479,392	0,035	-0,057
-153,906	146,294	0,083	0,081
-152,891	395,511	-0,041	-0,062
-151,877	-74,886	-0,070	-0,018
-150,862	-200,000	0,015	-0,065
-149,847	-168,487	-0,122	0,003
-148,833	-19,250	-0,084	-0,037
-147,818	-76,069	0,109	0,028
-146,804	331,689	-0,057	0,080
-145,789	800,000	0,031	-0,090
-144,775	181,014	-0,118	0,125
-143,760	72,303	-0,082	-0,061
-142,745	370,240	-0,044	0,064
-141,731	83,050	-0,027	-0,021
-140,716	271,083	0,074	-0,094
-139,702	-64,119	0,068	-0,020
-138,687	-200,000	-0,013	-0,108
-137,672	-94,523	-0,062	0,012
-136,658	539,519	-0,065	-0,111
-135,643	-200,000	0,021	-0,182
-134,629	80,675	-0,051	-0,040
-133,614	22,040	0,067	0,039
-132,599	-100,283	0,069	-0,012
-131,585	-200,000	-0,004	-0,052
-130,570	-200,000	0,006	-0,049
-129,556	800,000	0,042	-0,100
-128,541	-83,884	-0,103	-0,023
-127,526	-200,000	0,001	0,113
-126,512	-25,524	0,153	0,065
-125,497	49,568	0,071	0,048
-124,483	-37,668	0,145	-0,055
-123,468	103,211	0,024	0,020
-122,453	800,000	-0,016	0,034
-121,439	-200,000	-0,003	-0,158
-120,424	302,999	-0,052	-0,070
-119,410	-100,761	0,048	0,008
-118,395	81,329	-0,106	-0,082
-117,380	800,000	0,063	0,139
-116,366	-200,000	0,009	-0,190
-115,351	288,943	0,052	-0,069
-114,337	268,927	0,111	-0,140
-113,322	426,266	-0,070	-0,109
-112,307	119,869	-0,044	-0,039
-111,293	73,186	0,084	0,063
-110,278	121,843	-0,080	0,071
-109,264	-170,069	-0,071	0,002
-108,249	800,000	0,024	-0,062
-107,234	531,911	0,064	-0,110
-106,220	336,427	-0,060	0,084
-105,205	800,000	-0,077	-0,154
-104,191	-200,000	0,002	0,114
-103,176	250,647	0,060	0,073
-102,162	-148,863	0,121	-0,007
-101,147	17,001	0,053	0,030
-100,132	-200,000	0,005	0,019
-99,118	-99,805	0,027	-0,005
-98,103	800,000	-0,015	-0,037
-97,089	-200,000	0,005	0,028
-96,074	-9,015	0,101	0,048
-95,059	257,307	0,092	-0,114
-94,045	-10,078	-0,099	-0,047
-93,030	800,000	-0,055	-0,144
-92,016	-200,000	0,004	-0,083
-91,001	323,493	0,076	0,105
-89,986	800,000	0,023	-0,054
-88,972	-200,000	0,027	0,087
-87,957	9,674	0,055	-0,030
-86,943	29,269	-0,076	-0,046
-85,928	-200,000	0,056	-0,243
-84,913	-75,821	-0,095	-0,024
-83,899	-149,306	-0,052	-0,003
-82,884	-200,000	0,022	-0,075
-81,870	24,505	0,043	0,026
-80,855	-200,000	0,005	0,120
-79,840	40,905	0,043	-0,028
-78,826	-37,316	0,014	0,005
-77,811	533,007	-0,062	-0,105
-76,797	-116,372	0,106	0,014
-75,782	283,742	0,076	0,099
-74,767	17,107	0,120	0,068
-73,753	407,047	-0,073	0,111
-72,738	-200,000	-0,011	0,134
-71,724	-187,216	-0,089	0,001
-70,709	368,761	0,038	-0,055
-69,694	-200,000	-0,001	-0,078
-68,680	800,000	-0,024	0,063
-67,665	800,000	0,044	0,089
-66,651	675,119	-0,010	0,019
-65,636	-0,645	-0,066	0,033
-64,622	-138,942	0,030	0,002
-63,607	208,754	-0,070	-0,079
-62,592	-200,000	-0,003	-0,092
-61,578	448,012	-0,033	0,052
-60,563	64,984	0,060	0,043
-59,549	-149,712	-0,217	0,012
-58,534	-1,650	-1,967	-0,992
-57,519	-200,000	-0,201	-0,875
-56,505	-200,000	-1,169	-4,920
-55,490	-24,526	0,806	0,343
-54,476	800,000	5,281	12,232
-53,461	-200,000	17,530	282,573
-52,446	800,000	726,706	2213,833
-51,432	535,349	1642,773	2808,219
-50,417	110,070	1633,525	1407,298
-49,403	75,246	1286,531	973,007
-48,388	32,056	1027,829	634,659
-47,373	20,143	989,723	571,826
-46,359	18,491	977,909	559,559
-45,344	15,786	973,570	548,197
-44,330	15,956	972,256	547,992
-43,315	15,476	970,480	545,403
-42,300	15,520	969,196	544,804
-41,286	15,441	968,219	543,975
-40,271	15,456	967,115	543,382
-39,257	15,436	966,363	542,874
-38,242	15,501	965,439	542,542
-37,227	15,489	964,706	542,072
-36,213	15,468	963,644	541,385
-35,198	15,397	963,027	540,787
-34,184	15,582	962,156	540,873
-33,169	15,454	961,191	539,897
-32,154	15,491	960,383	539,539
-31,140	15,499	959,361	538,970
-30,125	15,506	958,803	538,658
-29,111	15,469	957,897	538,010
-28,096	15,458	957,200	537,560
-27,082	15,523	956,491	537,350
-26,067	15,463	955,795	536,745
-25,052	15,545	954,832	536,447
-24,038	15,473	954,358	535,926
-23,023	15,447	953,679	535,443
-22,009	15,531	953,157	535,396
-20,994	15,494	952,543	534,913
-19,979	15,498	951,816	534,494
-18,965	15,449	951,323	534,041
-17,950	15,459	950,604	533,648
-16,936	15,401	950,076	533,146
-15,921	15,446	949,239	532,798
-14,906	15,393	948,544	532,216
-13,892	15,368	947,967	531,794
-12,877	15,302	947,403	531,243
-11,863	15,352	946,485	530,868
-10,848	15,368	946,085	530,675
-9,833	15,455	945,556	530,632
-8,819	15,387	945,042	530,107
-7,804	15,420	944,396	529,829
-6,790	15,418	943,847	529,493
-5,775	15,395	943,383	529,138
-4,760	15,382	942,669	528,677
-3,746	15,394	941,952	528,290
-2,731	15,234	941,415	527,463
-1,717	15,216	940,657	526,961
-0,702	15,210	940,007	526,556
0,313	15,021	939,535	526,488
1,327	18,257	937,062	535,252
2,342	27,216	794,132	477,348
3,356	23,958	459,135	270,976
4,371	-3,203	314,655	156,808
5,386	-7,345	296,576	143,587
6,400	-9,383	290,414	138,566
7,415	-9,796	287,893	136,943
8,429	-9,976	286,586	136,133
9,444	-9,906	285,644	135,742
10,459	-9,792	285,054	135,561
11,473	-10,010	284,404	135,028
12,488	-9,767	283,895	135,010
13,502	-9,885	283,366	134,632
14,517	-9,948	283,066	134,416
15,531	-9,815	282,486	134,257
16,546	-9,875	282,198	134,050
17,561	-9,734	281,745	133,959
18,575	-9,870	281,342	133,625
19,590	-9,964	281,002	133,362
20,604	-9,749	280,701	133,413
21,619	-9,857	280,350	133,131
22,634	-9,865	280,098	132,992
23,648	-10,001	279,681	132,651
24,663	-10,055	279,605	132,552
25,677	-9,789	279,175	132,590
26,692	-9,865	279,005	132,425
27,707	-9,901	278,755	132,260
28,721	-9,700	278,329	132,238
29,736	-9,923	278,138	131,923
30,750	-9,822	277,795	131,845
31,765	-9,953	277,574	131,604
32,780	-9,857	277,470	131,633
33,794	-9,799	277,139	131,519
34,809	-9,780	276,839	131,383
35,823	-9,850	276,629	131,206
36,838	-9,996	276,406	130,951
37,853	-9,905	276,179	130,918
38,867	-10,024	275,922	130,672
39,882	-10,004	275,690	130,569
40,896	-9,658	275,292	130,694
41,911	-10,078	275,267	130,276
42,926	-10,085	275,142	130,199
43,940	-9,932	274,745	130,143
44,955	-9,982	274,440	129,940
45,969	-10,010	274,323	129,847
46,984	-10,152	273,912	129,508
47,999	-10,437	273,723	129,140
49,013	-10,448	273,500	129,013
50,028	-10,608	273,051	128,642
51,042	-10,541	272,884	128,613
52,057	-10,562	272,618	128,457
53,071	-10,556	272,483	128,388
54,086	-10,425	272,272	128,399
55,101	-10,357	272,073	128,356
56,115	-10,220	271,858	128,371
57,130	-10,003	271,749	128,509
58,144	-9,848	271,634	128,587
59,159	-9,797	271,405	128,514
60,174	-9,803	271,200	128,399
61,188	-9,973	271,057	128,163
62,203	-9,774	270,711	128,172
63,217	-9,677	270,500	128,150
64,232	-9,707	270,380	128,054
65,247	-9,784	270,014	127,799
66,261	-9,950	269,851	127,557
67,276	-10,049	269,653	127,361
68,290	-10,094	269,324	127,153
69,305	-10,154	268,908	126,891
70,320	-10,032	268,859	126,968
71,334	-10,043	268,700	126,871
72,349	-9,921	268,633	126,940
73,363	-9,735	268,398	126,988
74,378	-9,853	268,104	126,730
75,393	-9,848	267,887	126,620
76,407	-9,762	267,513	126,510
77,422	-9,875	267,425	126,354
78,436	-9,734	267,226	126,377
79,451	-9,780	266,901	126,171
80,466	-9,766	266,594	126,027
81,480	-10,044	266,492	125,716
82,495	-10,023	266,392	125,676
83,509	-10,030	266,133	125,537
84,524	-9,974	265,787	125,413
85,539	-10,071	265,634	125,242
86,553	-10,134	265,352	125,041
87,568	-10,015	265,331	125,127
88,582	-10,120	265,053	124,890
89,597	-9,993	264,617	124,788
90,611	-9,889	264,614	124,869
91,626	-9,813	264,531	124,887
92,641	-9,703	264,251	124,842
93,655	-9,815	264,029	124,626
94,670	-9,911	263,800	124,420
95,684	-9,994	263,684	124,280
96,699	-9,872	263,474	124,280
97,714	-9,989	263,305	124,084
98,728	-10,065	263,088	123,903
99,743	-10,103	262,809	123,726
100,757	-10,111	262,598	123,609
101,772	-10,084	262,395	123,526
102,787	-9,854	262,265	123,659
103,801	-9,917	262,008	123,471
104,816	-9,835	261,875	123,470
105,830	-9,737	261,675	123,452
106,845	-9,728	261,523	123,377
107,860	-9,967	261,324	123,060
108,874	-9,938	261,048	122,945
109,889	-9,874	260,955	122,947
110,903	-9,980	260,717	122,730
111,918	-9,844	260,468	122,722
112,933	-9,797	260,299	122,673
113,947	-9,851	260,141	122,540
114,962	-9,934	259,988	122,384
115,976	-9,769	259,750	122,406
116,991	-10,139	259,674	122,033
118,006	-9,781	259,453	122,234
119,020	-9,856	259,283	122,077
120,035	-10,038	259,280	121,905
121,049	-9,755	258,870	121,949
122,064	-9,881	258,722	121,759
123,079	-9,786	258,461	121,708
124,093	-9,883	258,290	121,531
125,108	-9,974	258,123	121,363
126,122	-10,189	257,831	121,027
127,137	-10,288	257,512	120,780
128,151	-10,144	257,423	120,853
129,166	-10,101	257,221	120,784
130,181	-10,146	257,210	120,729
131,195	-10,186	256,659	120,425
132,210	-10,017	256,658	120,561
133,224	-9,916	256,527	120,576
134,239	-9,919	256,308	120,460
135,254	-9,907	256,241	120,428
136,268	-9,825	255,819	120,290
137,283	-10,163	255,768	119,963
138,297	-10,140	255,351	119,777
139,312	-10,164	255,007	119,584
140,327	-9,969	255,011	119,743
141,341	-9,795	255,013	119,884
142,356	-9,846	254,820	119,738
143,370	-9,556	254,660	119,902
144,385	-9,721	254,555	119,700
145,400	-9,534	254,255	119,709
146,414	-9,854	254,064	119,334
147,429	-9,673	254,013	119,455
148,443	-9,462	253,787	119,519
149,458	-9,673	253,517	119,200
150,473	-9,754	253,602	119,160
151,487	-9,870	253,239	118,879
152,502	-9,550	252,961	119,011
153,516	-9,682	252,933	118,875
154,531	-9,716	252,691	118,722
155,546	-9,542	252,437	118,740
156,560	-9,739	252,289	118,492
157,575	-9,888	252,123	118,277
158,589	-9,731	251,912	118,301
159,604	-9,669	251,714	118,250
160,619	-9,694	251,578	118,154
161,633	-9,798	251,407	117,975
162,648	-9,746	251,214	117,918
163,662	-9,580	251,066	117,979
164,677	-9,623	250,930	117,868
165,692	-9,651	250,890	117,815
166,706	-9,743	250,687	117,632
167,721	-9,652	250,354	117,542
168,735	-9,479	250,164	117,588
169,750	-9,769	250,075	117,291
170,764	-9,627	250,080	117,403
171,779	-9,639	249,940	117,316
172,794	-9,531	249,719	117,293
173,808	-9,653	249,446	117,052
174,823	-10,097	249,206	116,555
175,837	-10,140	248,875	116,354
176,852	-9,813	248,928	116,643
177,867	-9,730	248,707	116,599
178,881	-9,672	248,709	116,638
179,896	-9,702	248,548	116,527
180,910	-9,537	248,277	116,527
181,925	-9,683	248,047	116,287
182,940	-9,703	247,843	116,164
183,954	-9,671	247,765	116,144
184,969	-9,636	247,592	116,082
185,983	-9,663	247,458	115,986
186,998	-9,550	247,205	115,952
188,013	-9,437	246,989	115,933
189,027	-9,552	246,897	115,785
190,042	-9,461	246,667	115,742
191,056	-9,596	246,448	115,517
192,071	-9,710	246,531	115,451
193,086	-9,598	246,196	115,377
194,100	-9,552	245,968	115,298
195,115	-9,492	245,792	115,254
196,129	-9,641	245,623	115,041
197,144	-9,626	245,470	114,972
198,159	-9,574	245,374	114,960
199,173	-9,723	245,133	114,714
200,188	-9,552	244,747	114,663
201,202	-9,999	244,571	114,203
202,217	-9,900	244,286	114,141
203,232	-10,299	244,248	113,785
204,246	-9,866	244,133	114,077
205,261	-9,416	244,034	114,390
206,275	-10,334	243,689	113,466
207,290	-7,440	244,863	116,385
208,304	-0,500	247,085	123,183
209,319	3,255	247,990	126,737
210,334	3,469	248,113	126,965
211,348	3,923	247,886	127,213
212,363	3,915	247,912	127,209
213,377	4,079	247,691	127,220
214,392	3,817	247,572	126,931
215,407	3,802	247,324	126,780
216,421	3,676	247,255	126,629
217,436	4,035	247,050	126,808
218,450	4,086	247,061	126,846
219,465	3,928	246,621	126,478
220,480	3,579	246,401	126,067
221,494	3,930	246,328	126,307
222,509	3,744	246,147	126,051
223,523	3,707	245,878	125,870
224,538	3,243	245,658	125,367
225,553	3,493	245,464	125,462
226,567	3,380	245,496	125,374
227,582	3,475	245,400	125,392
228,596	3,679	245,109	125,399
229,611	3,514	244,918	125,155
230,626	3,248	244,853	124,893
231,640	3,284	244,652	124,809
232,655	3,591	244,592	125,017
233,669	3,590	244,086	124,747
234,684	3,196	244,137	124,441
235,699	3,791	243,983	124,835
236,713	3,530	244,014	124,628
237,728	3,437	243,541	124,300
238,742	3,242	243,484	124,101
239,757	3,305	243,256	124,025
240,772	3,328	243,001	123,903
241,786	3,486	242,986	124,012
242,801	3,371	242,815	123,821
243,815	3,284	242,743	123,702
244,830	3,538	242,498	123,772
245,844	3,471	242,369	123,641
246,859	3,415	242,120	123,458
247,874	3,558	241,885	123,441
248,888	3,410	241,978	123,359
249,903	3,405	241,815	123,261
250,917	3,609	241,743	123,377
251,932	3,705	241,576	123,358
252,947	3,558	241,392	123,135
253,961	3,315	241,193	122,828
254,976	3,469	241,067	122,876
255,990	3,690	240,818	122,915
257,005	3,441	240,784	122,687
258,020	3,408	240,364	122,436
259,034	3,200	240,315	122,234
260,049	3,537	240,210	122,439
261,063	3,320	239,953	122,124
262,078	3,548	239,834	122,234
263,093	3,533	239,881	122,236
264,107	3,690	239,671	122,243
265,122	3,295	239,463	121,811
266,136	3,615	239,385	122,015
267,151	3,863	239,168	122,091
268,166	3,396	238,938	121,592
269,180	3,319	238,693	121,395
270,195	3,958	238,864	121,978
271,209	4,173	238,639	122,023
272,224	3,418	238,379	121,282
273,239	3,076	238,205	120,912
274,253	3,417	237,977	121,055
275,268	3,557	237,991	121,161
276,282	3,571	237,835	121,082
277,297	3,450	237,595	120,854
278,312	3,459	237,549	120,827
279,326	3,532	237,303	120,748
280,341	3,473	237,205	120,642
281,355	3,588	237,165	120,701
282,370	3,799	236,806	120,673
283,384	3,565	236,733	120,441
284,399	3,333	236,471	120,116
285,414	3,212	236,276	119,911
286,428	3,280	236,252	119,941
287,443	3,645	236,093	120,135
288,457	3,533	235,928	119,953
289,472	3,729	235,875	120,068
290,487	3,482	235,702	119,777
291,501	3,334	235,572	119,585
292,516	3,197	235,124	119,240
293,530	3,259	235,024	119,227
294,545	3,357	235,045	119,304
295,560	3,507	234,897	119,334
296,574	3,131	234,698	118,930
297,589	3,338	234,713	119,088
298,603	3,666	234,500	119,224
299,618	3,606	234,444	119,138
300,633	3,413	234,342	118,926
301,647	3,776	234,241	119,146
302,662	4,157	234,098	119,358
303,676	3,980	233,847	119,082
304,691	3,752	233,669	118,805
305,706	4,047	233,443	118,907
306,720	3,813	233,373	118,680
307,735	3,717	233,166	118,490
308,749	3,544	233,075	118,300
309,764	3,279	232,856	117,974
310,779	3,312	232,673	117,896
311,793	3,229	232,452	117,710
312,808	3,503	232,139	117,751
313,822	3,243	232,102	117,522
314,837	3,070	231,965	117,310
315,852	3,181	231,821	117,312
316,866	3,447	231,723	117,455
317,881	3,779	231,625	117,650
318,895	3,520	231,675	117,465
319,910	3,791	231,550	117,600
320,925	3,712	231,187	117,344
321,939	3,106	231,202	116,878
322,954	3,584	231,098	117,180
323,968	3,253	230,880	116,807
324,983	3,145	230,490	116,517
325,997	3,687	230,378	116,862
327,012	3,655	230,561	116,921
328,027	3,652	230,299	116,775
329,041	3,637	230,243	116,724
330,056	4,082	230,103	116,981
331,070	4,032	229,874	116,816
332,085	3,860	229,661	116,568
333,100	3,857	229,572	116,509
334,114	3,950	229,402	116,483
335,129	3,927	229,360	116,435
336,143	3,785	229,055	116,162
337,158	3,589	229,010	115,981
338,173	4,104	228,778	116,241
339,187	3,757	228,818	115,989
340,202	3,914	228,539	115,956
341,216	3,671	228,507	115,746
342,231	3,775	228,262	115,690
343,246	3,460	228,052	115,336
344,260	3,890	227,848	115,546
345,275	3,795	227,873	115,477
346,289	3,859	227,825	115,491
347,304	3,897	227,591	115,390
348,319	3,979	227,508	115,399
349,333	3,825	227,072	115,053
350,348	3,621	227,086	114,896
351,362	3,758	226,815	114,852
352,377	3,770	226,621	114,752
353,392	3,418	226,515	114,425
354,406	3,431	226,452	114,393
355,421	196,192	1321,410	1400,718
356,435	157,303	1454,807	1400,712
