DTS Sentinel unit serial number:	SN410029Multiplexer serial number:	ORYXHardware model number:	OX2-SRSoftware version number:	ORYX F/W v4,00 Oryx Data Collector v3.7.2.0data status	okinstallation	B5 Nyhavnadifferential loss correction	single-endedforward channel	channel 2reverse channel	N/Adate	2023/12/12time	22:22:13forward acquisition time	300,00reverse acquisition time	0,00gamma	499,1914k internal	0,3158k external	0,3158temperature offset calibration	1,0000default loss term (dB/km)	0,3820temperature slope calibration	1,0000multiplexer offset coefficient	1,0000multiplexer slope coefficient	1,0000fibre end	0,00T internal ref (°C)	14,68T ext. ref 1 (°C)	-1,90T ext. ref 2 (°C)	-2,20length (m)	temperature (°C)	Stokes	anti-Stokes-744,400	-0,660	0,068	-0,035
-743,385	-47,878	-0,281	0,100
-742,371	-200,000	0,052	0,237
-741,356	-171,886	-0,290	-0,007
-740,342	-181,334	0,187	0,003
-739,327	-135,181	-0,293	0,026
-738,312	57,839	0,169	0,122
-737,298	-65,879	-0,181	-0,053
-736,283	-5,153	-0,058	0,030
-735,269	-106,940	-0,197	0,032
-734,254	-200,000	0,011	0,054
-733,239	-42,230	-0,395	-0,148
-732,225	77,876	0,184	0,144
-731,210	129,026	-0,113	0,106
-730,196	335,262	0,015	-0,021
-729,181	800,000	-0,013	0,028
-728,167	8,443	-0,089	0,049
-727,152	-200,000	0,000	0,041
-726,137	-107,898	-0,177	0,028
-725,123	-132,426	-0,174	-0,016
-724,108	102,243	-0,012	-0,011
-723,094	7,748	-0,086	-0,047
-722,079	488,220	-0,151	-0,255
-721,064	-71,306	-0,139	0,038
-720,050	576,601	-0,095	0,172
-719,035	-92,407	-0,036	0,007
-718,021	57,584	-0,033	0,024
-717,006	-32,302	0,033	0,014
-715,991	257,767	-0,055	-0,070
-714,977	-40,077	-0,074	-0,028
-713,962	107,909	0,055	-0,049
-712,948	800,000	0,013	0,027
-711,933	-184,893	0,090	0,001
-710,918	28,780	-0,043	-0,026
-709,904	800,000	0,016	0,050
-708,889	-200,000	0,037	-0,139
-707,875	314,389	-0,132	0,183
-706,860	-200,000	0,018	0,134
-705,845	139,184	0,110	0,107
-704,831	532,262	0,056	0,098
-703,816	-116,802	-0,107	-0,014
-702,802	-150,719	-0,123	0,007
-701,787	301,408	0,084	0,114
-700,772	105,721	-0,107	-0,093
-699,758	-200,000	0,006	-0,059
-698,743	309,891	-0,033	-0,046
-697,729	192,358	-0,041	-0,045
-696,714	198,022	0,174	0,196
-695,699	-81,059	-0,049	-0,012
-694,685	-181,055	-0,114	-0,002
-693,670	526,459	0,015	0,026
-692,656	-132,418	0,008	-0,001
-691,641	333,303	-0,026	0,038
-690,627	64,083	0,042	-0,031
-689,612	800,000	0,023	0,059
-688,597	-92,277	0,020	0,004
-687,583	-200,000	-0,019	-0,072
-686,568	-200,000	-0,039	-0,151
-685,554	800,000	-0,012	-0,031
-684,539	750,345	0,045	-0,090
-683,524	-56,718	-0,033	0,011
-682,510	-120,591	-0,092	0,011
-681,495	-169,323	-0,112	-0,003
-680,481	185,819	-0,103	-0,113
-679,466	57,733	0,025	0,018
-678,451	-200,000	-0,039	-0,133
-677,437	590,290	0,043	-0,079
-676,422	-200,000	0,003	0,028
-675,408	204,620	-0,050	0,058
-674,393	64,057	-0,045	0,033
-673,378	-132,959	-0,051	0,005
-672,364	472,063	-0,020	0,032
-671,349	195,343	0,033	-0,037
-670,335	800,000	-0,036	-0,113
-669,320	39,192	-0,081	0,053
-668,305	11,941	0,126	0,071
-667,291	800,000	0,046	-0,119
-666,276	367,865	0,057	-0,085
-665,262	294,559	-0,110	-0,149
-664,247	800,000	-0,057	-0,130
-663,232	-7,873	-0,152	0,075
-662,218	105,453	0,074	-0,064
-661,203	-200,000	-0,023	-0,103
-660,189	58,968	-0,089	0,064
-659,174	-200,000	-0,025	-0,138
-658,159	59,781	0,059	0,043
-657,145	716,219	0,041	-0,080
-656,130	-200,000	0,008	0,044
-655,116	-82,079	0,077	0,018
-654,101	800,000	-0,028	-0,066
-653,086	-21,162	0,049	0,022
-652,072	-59,922	-0,229	0,072
-651,057	573,503	0,039	-0,071
-650,043	-129,869	-0,111	-0,011
-649,028	-78,005	0,081	-0,020
-648,014	-70,331	0,065	0,018
-646,999	225,619	-0,015	0,018
-645,984	-200,000	0,001	0,021
-644,970	-200,000	-0,001	-0,039
-643,955	-45,794	-0,170	-0,061
-642,941	21,065	-0,025	0,015
-641,926	-200,000	-0,019	-0,102
-640,911	-67,948	-0,154	-0,044
-639,897	-38,709	0,163	0,063
-638,882	-30,017	0,069	0,029
-637,868	-46,511	-0,067	-0,024
-636,853	516,274	-0,087	0,149
-635,838	-200,000	0,024	-0,110
-634,824	-101,456	-0,072	0,013
-633,809	-200,000	-0,001	-0,149
-632,795	146,498	-0,062	-0,061
-631,780	-18,419	0,080	-0,037
-630,765	-99,893	0,032	-0,006
-629,751	-46,496	-0,056	-0,020
-628,736	-85,244	0,046	0,011
-627,722	-171,813	0,077	0,002
-626,707	-200,000	0,013	-0,072
-625,692	-200,000	-0,001	0,190
-624,678	800,000	0,017	0,037
-623,663	306,043	-0,077	-0,105
-622,649	17,766	-0,128	-0,075
-621,634	-81,078	-0,101	-0,024
-620,619	-162,235	-0,038	-0,001
-619,605	800,000	-0,082	-0,170
-618,590	-126,905	0,048	-0,005
-617,576	495,699	-0,081	0,137
-616,561	-200,000	0,002	0,126
-615,546	800,000	-0,069	-0,150
-614,532	115,460	-0,071	0,063
-613,517	-94,874	-0,105	0,021
-612,503	-53,562	-0,097	-0,032
-611,488	-130,458	0,166	0,016
-610,474	-29,872	-0,074	-0,031
-609,459	564,290	-0,054	-0,097
-608,444	-48,008	-0,077	-0,027
-607,430	92,856	-0,061	-0,051
-606,415	800,000	-0,060	-0,184
-605,401	-162,149	0,062	0,002
-604,386	686,827	0,018	-0,035
-603,371	30,877	-0,113	0,071
-602,357	-52,255	0,031	0,010
-601,342	243,933	-0,032	-0,040
-600,328	-200,000	-0,023	-0,098
-599,313	407,961	-0,039	-0,061
-598,298	-200,000	0,014	-0,065
-597,284	-188,856	0,135	0,001
-596,269	-200,000	0,006	-0,163
-595,255	1,160	0,074	-0,039
-594,240	-95,627	-0,050	0,010
-593,225	-200,000	-0,002	-0,071
-592,211	-4,129	-0,097	0,049
-591,196	362,011	0,051	-0,075
-590,182	-163,330	0,061	-0,002
-589,167	64,695	-0,121	0,090
-588,152	13,088	0,102	-0,058
-587,138	-35,566	-0,046	0,018
-586,123	496,646	0,046	-0,078
-585,109	800,000	0,042	-0,119
-584,094	38,969	0,005	0,003
-583,079	800,000	0,026	0,059
-582,065	-200,000	-0,008	-0,029
-581,050	-67,954	0,088	0,025
-580,036	438,430	-0,034	0,055
-579,021	-89,000	-0,070	-0,015
-578,006	-200,000	-0,015	-0,093
-576,992	-200,000	-0,007	-0,140
-575,977	-200,000	0,029	0,101
-574,963	-200,000	-0,004	0,191
-573,948	-167,623	0,013	-0,000
-572,934	-119,006	-0,040	0,005
-571,919	-98,931	-0,084	-0,016
-570,904	-200,000	-0,004	0,062
-569,890	-200,000	-0,008	0,056
-568,875	266,885	0,131	-0,168
-567,861	-200,000	0,011	0,062
-566,846	2,469	-0,134	-0,071
-565,831	-200,000	0,018	-0,149
-564,817	75,890	-0,085	-0,066
-563,802	-200,000	-0,007	0,064
-562,788	-51,528	-0,059	-0,020
-561,773	-200,000	0,002	-0,098
-560,758	81,565	-0,100	0,079
-559,744	-200,000	-0,014	0,073
-558,729	258,763	-0,067	0,084
-557,715	13,964	-0,122	0,069
-556,700	205,667	-0,033	0,038
-555,685	-200,000	-0,036	-0,146
-554,671	-36,240	0,135	-0,053
-553,656	800,000	-0,022	-0,059
-552,642	3,175	-0,022	0,012
-551,627	-40,701	0,075	-0,028
-550,612	695,552	-0,058	-0,112
-549,598	-200,000	-0,029	0,115
-548,583	-15,008	-0,044	-0,020
-547,569	717,057	-0,027	0,053
-546,554	-200,000	0,007	-0,132
-545,539	44,887	0,127	-0,085
-544,525	130,783	0,090	0,084
-543,510	68,385	0,060	-0,045
-542,496	-200,000	0,021	-0,098
-541,481	-200,000	-0,025	0,092
-540,466	-7,315	-0,056	0,028
-539,452	682,817	0,043	-0,082
-538,437	104,841	0,068	-0,058
-537,423	-136,779	-0,080	0,007
-536,408	-98,642	0,096	0,018
-535,393	-200,000	0,011	0,071
-534,379	46,171	-0,043	0,029
-533,364	511,640	0,017	-0,028
-532,350	180,536	0,131	0,141
-531,335	800,000	-0,029	-0,070
-530,321	522,958	0,021	-0,037
-529,306	221,870	-0,063	-0,075
-528,291	-200,000	0,010	0,073
-527,277	92,664	-0,073	-0,060
-526,262	132,813	0,075	0,071
-525,248	-200,000	0,007	-0,047
-524,233	5,698	-0,036	0,019
-523,218	-200,000	-0,022	-0,139
-522,204	-200,000	0,015	0,062
-521,189	699,110	-0,041	0,079
-520,175	-58,642	-0,036	0,011
-519,160	-36,186	-0,104	0,041
-518,145	65,565	-0,081	0,060
-517,131	285,901	0,049	0,065
-516,116	-65,048	0,114	-0,033
-515,102	-51,134	-0,026	-0,009
-514,087	800,000	0,020	-0,047
-513,072	-200,000	0,029	-0,096
-512,058	-136,905	0,062	-0,005
-511,043	800,000	0,075	-0,197
-510,029	800,000	-0,037	-0,089
-509,014	123,421	-0,076	-0,069
-507,999	-79,140	0,114	0,028
-506,985	159,813	0,029	0,030
-505,970	49,876	-0,099	-0,068
-504,956	296,040	-0,062	0,084
-503,941	115,677	-0,097	0,087
-502,926	-36,176	0,027	-0,011
-501,912	-200,000	-0,001	0,185
-500,897	800,000	-0,032	0,071
-499,883	-126,405	0,073	0,008
-498,868	-138,290	0,096	0,008
-497,853	-55,015	-0,099	-0,032
-496,839	38,816	0,097	0,063
-495,824	308,996	0,101	0,139
-494,810	-70,790	0,076	-0,021
-493,795	-200,000	0,006	0,106
-492,781	247,251	-0,045	0,055
-491,766	800,000	0,008	-0,018
-490,751	46,136	-0,079	-0,053
-489,737	-43,333	0,029	-0,011
-488,722	-200,000	-0,030	-0,128
-487,708	-25,224	0,138	0,059
-486,693	800,000	0,024	0,050
-485,678	-37,222	-0,056	-0,022
-484,664	157,227	-0,034	-0,034
-483,649	-200,000	0,065	-0,000
-482,635	84,422	-0,054	0,043
-481,620	-106,059	-0,033	-0,005
-480,605	-200,000	-0,007	0,048
-479,591	-200,000	0,007	0,130
-478,576	170,391	-0,122	-0,128
-477,562	519,158	0,052	-0,089
-476,547	-200,000	0,007	0,107
-475,532	-34,963	0,076	-0,030
-474,518	113,598	-0,050	0,044
-473,503	169,676	-0,089	0,093
-472,489	44,555	0,105	0,070
-471,474	-200,000	0,014	-0,052
-470,459	-200,000	-0,012	-0,077
-469,445	422,267	-0,030	0,047
-468,430	800,000	0,045	-0,106
-467,416	-54,693	0,136	0,045
-466,401	-200,000	-0,009	0,066
-465,386	-11,183	0,108	0,052
-464,372	-105,276	-0,150	0,025
-463,357	125,786	-0,011	0,010
-462,343	800,000	0,033	0,105
-461,328	2,720	0,097	0,051
-460,313	-71,028	0,051	-0,014
-459,299	107,801	-0,134	0,116
-458,284	185,140	-0,030	-0,033
-457,270	54,956	0,021	0,015
-456,255	-42,189	-0,009	-0,003
-455,241	-200,000	0,004	0,035
-454,226	10,006	0,055	-0,031
-453,211	-200,000	-0,007	0,119
-452,197	-129,858	0,108	-0,011
-451,182	100,852	0,068	-0,058
-450,168	-200,000	-0,008	0,034
-449,153	-200,000	-0,000	-0,017
-448,138	425,979	-0,038	-0,060
-447,124	354,868	-0,095	-0,138
-446,109	-145,933	-0,076	-0,005
-445,095	572,941	0,046	0,083
-444,080	-200,000	0,030	0,121
-443,065	-76,899	0,052	0,013
-442,051	800,000	-0,044	-0,096
-441,036	-200,000	-0,065	0,270
-440,022	-200,000	-0,011	0,097
-439,007	42,372	-0,138	-0,091
-437,992	540,551	0,038	-0,067
-436,978	326,376	0,064	-0,090
-435,963	-200,000	-0,003	-0,044
-434,949	-56,272	-0,130	-0,042
-433,934	-200,000	0,007	0,033
-432,919	326,805	-0,043	-0,061
-431,905	97,316	0,063	-0,053
-430,890	491,853	0,048	0,080
-429,876	-200,000	-0,002	-0,029
-428,861	800,000	-0,056	0,134
-427,846	668,977	-0,022	-0,042
-426,832	207,239	0,029	-0,033
-425,817	800,000	-0,045	0,112
-424,803	-145,236	-0,127	-0,008
-423,788	-29,869	0,107	-0,044
-422,773	3,781	-0,167	0,089
-421,759	83,871	0,058	0,046
-420,744	-200,000	0,017	0,150
-419,730	-51,377	-0,036	0,012
-418,715	-75,074	0,125	0,032
-417,701	-200,000	-0,005	0,044
-416,686	-200,000	-0,008	0,094
-415,671	800,000	0,042	0,108
-414,657	181,138	0,059	0,064
-413,642	-29,557	-0,067	-0,028
-412,628	800,000	0,033	-0,069
-411,613	800,000	-0,021	-0,053
-410,598	307,527	0,149	0,203
-409,584	427,204	0,076	0,119
-408,569	800,000	0,037	-0,099
-407,555	-150,951	-0,035	-0,002
-406,540	26,693	0,081	-0,049
-405,525	614,326	-0,073	0,133
-404,511	-154,459	0,102	-0,005
-403,496	-46,260	0,061	0,022
-402,482	695,096	0,049	0,093
-401,467	34,097	-0,034	0,022
-400,452	-11,284	0,098	0,047
-399,438	-200,000	-0,020	-0,110
-398,423	800,000	-0,045	-0,111
-397,409	-110,498	0,063	0,009
-396,394	217,492	-0,047	-0,055
-395,379	175,397	0,049	0,051
-394,365	83,879	-0,014	0,011
-393,350	-98,342	0,127	-0,023
-392,336	79,711	-0,063	-0,049
-391,321	741,913	-0,024	0,047
-390,306	-200,000	0,008	-0,031
-389,292	-200,000	0,026	-0,108
-388,277	466,984	0,026	0,043
-387,263	-200,000	-0,019	0,072
-386,248	-200,000	0,011	0,043
-385,233	78,620	0,087	-0,068
-384,219	663,717	-0,063	-0,119
-383,204	121,374	0,060	0,054
-382,190	-150,312	-0,008	-0,000
-381,175	-96,144	0,030	0,006
-380,160	-59,727	0,141	0,044
-379,146	-200,000	0,032	0,128
-378,131	625,457	0,100	0,184
-377,117	511,841	-0,089	0,150
-376,102	35,130	-0,063	-0,040
-375,088	310,550	-0,035	-0,048
-374,073	638,897	-0,138	0,256
-373,058	-200,000	-0,013	0,133
-372,044	800,000	0,020	0,058
-371,029	-200,000	-0,054	0,225
-370,015	272,675	-0,035	0,045
-369,000	-27,232	-0,111	0,047
-367,985	-12,863	-0,113	0,053
-366,971	39,186	0,061	-0,040
-365,956	800,000	0,022	-0,053
-364,942	-200,000	0,009	0,039
-363,927	421,633	-0,053	0,083
-362,912	-177,869	-0,047	0,001
-361,898	-135,868	0,029	0,002
-360,883	800,000	-0,061	0,172
-359,869	800,000	0,022	0,068
-358,854	800,000	-0,012	-0,038
-357,839	2,214	0,032	0,017
-356,825	-200,000	0,010	0,059
-355,810	-200,000	0,008	-0,132
-354,796	-200,000	-0,021	-0,185
-353,781	383,329	-0,023	0,035
-352,766	68,567	-0,091	-0,067
-351,752	231,110	0,003	0,004
-350,737	800,000	-0,027	0,084
-349,723	132,142	-0,065	0,061
-348,708	399,945	-0,014	-0,022
-347,693	800,000	0,029	-0,078
-346,679	800,000	-0,058	-0,143
-345,664	-143,050	0,125	-0,009
-344,650	-133,304	-0,047	0,004
-343,635	-200,000	0,033	-0,117
-342,620	-101,506	0,105	-0,018
-341,606	-115,438	0,009	0,001
-340,591	184,869	0,050	-0,054
-339,577	190,195	-0,079	-0,086
-338,562	-96,766	0,168	0,032
-337,548	-29,299	0,035	-0,015
-336,533	31,141	0,095	-0,059
-335,518	800,000	-0,049	0,118
-334,504	-200,000	0,004	-0,029
-333,489	208,431	0,093	-0,106
-332,475	790,065	0,092	-0,184
-331,460	800,000	0,027	0,084
-330,445	-200,000	0,000	0,040
-329,431	220,015	0,019	-0,022
-328,416	-106,401	0,204	-0,033
-327,402	-200,000	-0,030	0,104
-326,387	800,000	-0,022	-0,046
-325,372	-40,847	-0,072	-0,027
-324,358	-69,073	0,082	-0,023
-323,343	-200,000	-0,003	0,055
-322,329	237,720	0,072	0,087
-321,314	-200,000	0,002	-0,009
-320,299	-179,786	-0,124	-0,002
-319,285	129,976	0,034	-0,032
-318,270	-200,000	-0,031	-0,255
-317,256	800,000	-0,053	-0,135
-316,241	123,311	-0,057	0,051
-315,226	-85,756	0,137	-0,031
-314,212	-200,000	0,003	0,127
-313,197	72,891	0,015	0,011
-312,183	-28,386	0,091	0,038
-311,168	-14,809	0,058	0,027
-310,153	120,358	0,055	-0,050
-309,139	22,407	0,093	0,055
-308,124	-178,857	-0,131	-0,002
-307,110	-142,000	0,184	-0,013
-306,095	91,229	0,057	-0,046
-305,080	78,342	-0,084	0,065
-304,066	-200,000	0,020	-0,113
-303,051	719,984	0,011	-0,021
-302,037	1,834	-0,061	0,032
-301,022	-200,000	0,000	-0,080
-300,008	-174,219	0,076	-0,002
-298,993	-200,000	-0,001	-0,030
-297,978	94,594	-0,013	-0,011
-296,964	18,875	-0,135	0,078
-295,949	800,000	-0,051	-0,140
-294,935	-191,398	0,079	-0,001
-293,920	-63,495	-0,120	0,036
-292,905	59,141	0,057	0,041
-291,891	800,000	0,018	-0,051
-290,876	11,785	0,104	-0,058
-289,862	800,000	-0,043	-0,115
-288,847	800,000	-0,044	-0,126
-287,832	-66,766	0,028	0,008
-286,818	-200,000	-0,004	-0,049
-285,803	41,923	0,165	0,108
-284,789	277,217	-0,066	0,085
-283,774	154,423	0,062	-0,062
-282,759	0,941	-0,092	-0,047
-281,745	-53,758	0,052	-0,017
-280,730	34,340	0,086	0,054
-279,716	800,000	-0,008	0,021
-278,701	662,575	0,032	-0,061
-277,686	304,721	0,034	0,045
-276,672	800,000	0,025	0,078
-275,657	-170,418	0,033	-0,001
-274,643	662,211	-0,061	-0,114
-273,628	477,409	-0,032	-0,053
-272,613	54,265	0,062	-0,043
-271,599	103,279	-0,065	-0,055
-270,584	800,000	0,020	-0,045
-269,570	74,489	0,055	-0,041
-268,555	-200,000	-0,009	-0,053
-267,540	-200,000	0,023	-0,188
-266,526	187,785	-0,076	-0,082
-265,511	585,116	0,027	-0,048
-264,497	-200,000	0,011	-0,094
-263,482	-157,890	-0,158	-0,007
-262,467	-200,000	0,004	0,066
-261,453	39,972	-0,030	0,020
-260,438	208,807	0,019	0,022
-259,424	-200,000	0,002	0,051
-258,409	-36,457	-0,094	-0,036
-257,395	-172,891	0,042	0,001
-256,380	-65,646	0,030	-0,009
-255,365	-104,615	-0,073	-0,012
-254,351	135,216	-0,093	0,087
-253,336	480,317	-0,020	-0,032
-252,322	233,428	0,090	0,107
-251,307	-89,506	0,057	-0,012
-250,292	800,000	0,035	-0,090
-249,278	556,904	0,030	0,053
-248,263	-200,000	0,017	0,111
-247,249	329,675	0,052	0,072
-246,234	800,000	-0,056	-0,121
-245,219	-200,000	0,011	-0,061
-244,205	-33,044	-0,248	-0,099
-243,190	236,922	0,052	0,062
-242,176	335,450	0,032	-0,044
-241,161	-104,271	0,043	-0,007
-240,146	-200,000	-0,003	0,147
-239,132	393,661	-0,039	0,060
-238,117	-122,554	-0,135	-0,016
-237,103	800,000	0,038	-0,100
-236,088	234,430	0,108	-0,129
-235,073	282,483	0,061	0,080
-234,059	95,718	0,077	-0,063
-233,044	299,035	-0,037	0,049
-232,030	800,000	-0,023	-0,053
-231,015	-82,871	-0,101	0,023
-230,000	20,489	0,043	-0,025
-228,986	-59,708	0,058	0,018
-227,971	-144,894	-0,086	0,006
-226,957	81,891	-0,056	0,044
-225,942	482,964	0,047	0,077
-224,927	-200,000	0,008	-0,059
-223,913	-200,000	0,008	-0,045
-222,898	-14,445	-0,125	0,058
-221,884	177,770	-0,036	-0,038
-220,869	0,488	0,098	0,051
-219,855	-106,507	0,077	-0,012
-218,840	-0,377	-0,084	-0,043
-217,825	-150,481	0,103	0,006
-216,811	10,115	0,165	0,090
-215,796	-30,208	-0,191	-0,078
-214,782	129,705	0,081	0,074
-213,767	-136,200	0,072	-0,006
-212,752	-200,000	0,009	0,136
-211,738	-200,000	-0,023	0,074
-210,723	-85,510	-0,158	0,035
-209,709	-11,368	-0,075	-0,035
-208,694	69,527	-0,081	0,060
-207,679	293,661	0,026	-0,035
-206,665	38,947	0,073	-0,047
-205,650	11,944	0,059	0,032
-204,636	800,000	-0,046	0,119
-203,621	469,011	0,048	0,078
-202,606	238,032	-0,105	0,126
-201,592	-40,089	-0,045	-0,017
-200,577	43,108	-0,120	0,079
-199,563	-200,000	0,001	0,021
-198,548	345,855	0,035	0,049
-197,533	516,921	0,011	-0,018
-196,519	800,000	-0,025	0,072
-195,504	3,613	-0,080	0,042
-194,490	800,000	-0,066	-0,135
-193,475	-200,000	-0,034	-0,137
-192,460	378,907	0,031	-0,046
-191,446	71,764	0,060	-0,045
-190,431	317,102	0,058	0,080
-189,417	-95,910	-0,100	0,019
-188,402	-200,000	0,010	-0,045
-187,387	-174,165	-0,020	0,000
-186,373	93,985	-0,086	-0,071
-185,358	4,537	0,107	-0,056
-184,344	-150,973	0,098	-0,005
-183,329	289,640	0,033	0,044
-182,315	-49,998	0,151	0,051
-181,300	-8,269	-0,042	-0,020
-180,285	146,689	-0,063	0,061
-179,271	-200,000	0,021	0,067
-178,256	62,572	0,135	0,097
-177,242	-67,178	0,162	-0,046
-176,227	148,252	-0,020	-0,019
-175,212	-189,342	0,102	0,001
-174,198	-200,000	-0,005	0,034
-173,183	-158,341	-0,194	0,008
-172,169	44,064	0,082	0,054
-171,154	531,566	0,084	-0,143
-170,139	-200,000	-0,005	-0,084
-169,125	153,500	-0,055	0,054
-168,110	504,243	0,095	0,159
-167,096	-200,000	-0,006	-0,037
-166,081	168,646	-0,066	-0,068
-165,066	-12,753	-0,087	-0,041
-164,052	-93,634	0,119	0,023
-163,037	-149,556	-0,115	0,006
-162,023	153,487	0,112	0,111
-161,008	40,369	0,047	0,031
-159,993	750,213	0,034	-0,066
-158,979	670,769	-0,051	-0,095
-157,964	106,923	-0,047	-0,040
-156,950	214,574	-0,172	0,197
-155,935	-200,000	0,004	0,038
-154,920	-139,928	-0,085	-0,006
-153,906	-39,148	-0,017	-0,006
-152,891	800,000	0,055	-0,119
-151,877	380,580	0,024	0,035
-150,862	-200,000	0,029	-0,093
-149,847	191,315	0,062	-0,067
-148,833	-50,080	0,150	-0,051
-147,818	61,183	0,085	-0,061
-146,804	-200,000	-0,008	-0,026
-145,789	98,427	0,078	-0,065
-144,775	7,824	-0,099	0,053
-143,760	525,833	-0,035	0,060
-142,745	153,145	0,096	-0,094
-141,731	-200,000	-0,008	0,062
-140,716	-93,047	0,035	0,007
-139,702	178,195	0,136	-0,143
-138,687	-200,000	-0,008	-0,072
-137,672	337,199	-0,068	0,095
-136,658	572,727	-0,022	0,039
-135,643	-200,000	0,001	-0,003
-134,629	-200,000	0,023	0,104
-133,614	179,460	0,033	-0,035
-132,599	48,826	0,094	0,063
-131,585	-61,283	0,035	0,011
-130,570	-169,663	-0,039	-0,001
-129,556	800,000	-0,032	-0,070
-128,541	-22,946	-0,137	-0,059
-127,526	-42,949	0,096	0,035
-126,512	249,077	0,018	-0,022
-125,497	800,000	0,060	0,147
-124,483	-68,684	0,060	0,017
-123,468	67,552	-0,075	-0,055
-122,453	70,549	0,044	-0,033
-121,439	-48,865	-0,060	-0,021
-120,424	-200,000	-0,018	-0,069
-119,410	615,754	-0,012	-0,022
-118,395	245,666	0,027	0,032
-117,380	800,000	0,059	0,166
-116,366	-67,987	0,110	0,031
-115,351	4,449	-0,043	0,023
-114,337	-163,199	-0,130	0,004
-113,322	-76,181	-0,216	-0,054
-112,307	-200,000	-0,011	-0,045
-111,293	482,295	0,084	0,138
-110,278	-139,105	0,038	-0,003
-109,264	291,540	0,036	-0,048
-108,249	-22,320	0,035	0,015
-107,234	-143,102	0,015	0,001
-106,220	270,211	-0,046	0,059
-105,205	-200,000	0,026	-0,155
-104,191	-200,000	-0,008	-0,071
-103,176	800,000	-0,024	-0,065
-102,162	-128,605	0,109	-0,011
-101,147	-32,577	-0,016	-0,006
-100,132	-86,538	-0,047	0,010
-99,118	-20,384	0,056	-0,025
-98,103	795,036	0,038	0,076
-97,089	-51,730	-0,091	0,030
-96,074	800,000	0,034	-0,094
-95,059	-120,408	0,092	-0,011
-94,045	800,000	-0,031	-0,078
-93,030	-95,006	0,082	0,016
-92,016	800,000	0,059	0,133
-91,001	-200,000	0,046	0,189
-89,986	-58,453	0,063	0,020
-88,972	219,807	-0,101	0,117
-87,957	-200,000	-0,016	0,065
-86,943	-200,000	0,002	0,119
-85,928	131,649	-0,025	-0,024
-84,913	-130,281	0,068	0,007
-83,899	800,000	0,026	-0,063
-82,884	479,213	0,025	0,040
-81,870	-200,000	0,011	0,060
-80,855	17,904	-0,081	0,046
-79,840	271,366	-0,031	-0,039
-78,826	-200,000	0,002	-0,049
-77,811	69,464	-0,108	-0,080
-76,797	-200,000	0,001	0,059
-75,782	-111,060	-0,071	-0,010
-74,767	-122,338	0,133	0,015
-73,753	800,000	0,037	-0,094
-72,738	-159,232	0,102	0,004
-71,724	-111,333	0,098	-0,014
-70,709	-200,000	0,010	-0,069
-69,694	-140,267	-0,103	0,008
-68,680	-200,000	-0,002	-0,018
-67,665	800,000	0,038	0,092
-66,651	346,155	0,045	-0,063
-65,636	-200,000	-0,000	-0,069
-64,622	-200,000	0,013	-0,079
-63,607	-8,429	-0,168	-0,081
-62,592	82,933	-0,075	0,058
-61,578	-200,000	0,020	-0,142
-60,563	800,000	0,015	-0,047
-59,549	800,000	0,032	0,081
-58,534	1,134	-1,991	-1,022
-57,519	-200,000	-0,233	-0,789
-56,505	-200,000	-1,282	-4,940
-55,490	64,083	0,819	0,590
-54,476	800,000	5,182	12,061
-53,461	-200,000	17,968	296,367
-52,446	800,000	731,769	2255,613
-51,432	541,958	1648,657	2830,678
-50,417	109,261	1637,484	1405,959
-49,403	74,370	1288,024	970,029
-48,388	31,229	1028,005	631,567
-47,373	20,100	989,955	571,467
-46,359	18,114	977,740	557,880
-45,344	15,020	973,629	545,385
-44,330	15,272	972,074	545,317
-43,315	14,767	970,174	542,580
-42,300	14,704	969,068	541,732
-41,286	14,656	968,390	541,175
-40,271	14,716	967,209	540,689
-39,257	14,742	966,239	540,210
-38,242	14,740	965,263	539,636
-37,227	14,710	964,602	539,151
-36,213	14,706	963,827	538,682
-35,198	14,659	962,903	537,992
-34,184	14,758	962,168	537,880
-33,169	14,681	961,099	537,013
-32,154	14,684	960,294	536,550
-31,140	14,701	959,393	536,080
-30,125	14,698	958,703	535,665
-29,111	14,715	957,836	535,214
-28,096	14,727	957,110	534,826
-27,082	14,759	956,371	534,493
-26,067	14,724	955,669	533,968
-25,052	14,624	955,161	533,340
-24,038	14,687	954,372	533,084
-23,023	14,706	953,637	532,711
-22,009	14,722	953,085	532,434
-20,994	14,757	952,271	532,071
-19,979	14,735	951,630	531,620
-18,965	14,711	951,135	531,246
-17,950	14,711	950,430	530,831
-16,936	14,603	949,824	530,127
-15,921	14,639	949,217	529,881
-14,906	14,583	948,481	529,271
-13,892	14,615	947,813	528,977
-12,877	14,626	947,003	528,541
-11,863	14,576	946,469	528,061
-10,848	14,575	946,057	527,810
-9,833	14,699	945,434	527,833
-8,819	14,701	944,803	527,467
-7,804	14,608	944,204	526,816
-6,790	14,616	943,750	526,567
-5,775	14,702	942,941	526,368
-4,760	14,691	942,337	525,976
-3,746	14,614	941,744	525,379
-2,731	14,498	941,098	524,632
-1,717	14,472	940,378	524,128
-0,702	14,509	939,719	523,856
0,313	14,286	939,077	523,584
1,327	17,461	936,963	532,365
2,342	26,305	793,468	474,253
3,356	22,723	459,087	268,889
4,371	-4,153	315,341	156,031
5,386	-7,982	297,040	143,076
6,400	-9,998	290,990	138,143
7,415	-10,547	288,630	136,468
8,429	-10,663	287,274	135,701
9,444	-10,686	286,297	135,205
10,459	-10,580	285,708	135,018
11,473	-10,746	285,017	134,518
12,488	-10,733	284,548	134,297
13,502	-10,612	284,004	134,145
14,517	-10,475	283,649	134,099
15,531	-10,591	283,242	133,783
16,546	-10,500	282,791	133,645
17,561	-10,320	282,214	133,534
18,575	-10,446	282,093	133,344
19,590	-10,591	281,744	133,027
20,604	-10,329	281,313	133,064
21,619	-10,564	281,113	132,732
22,634	-10,449	280,823	132,694
23,648	-10,591	280,469	132,378
24,663	-10,721	280,132	132,082
25,677	-10,433	279,903	132,239
26,692	-10,556	279,612	131,971
27,707	-10,519	279,171	131,787
28,721	-10,341	279,021	131,874
29,736	-10,515	278,769	131,577
30,750	-10,632	278,483	131,319
31,765	-10,654	278,256	131,180
32,780	-10,576	277,957	131,102
33,794	-10,596	277,880	131,035
34,809	-10,505	277,409	130,887
35,823	-10,652	277,177	130,626
36,838	-10,650	277,127	130,593
37,853	-10,611	276,758	130,444
38,867	-10,449	276,392	130,413
39,882	-10,500	276,214	130,269
40,896	-10,382	275,929	130,234
41,911	-10,473	275,646	130,004
42,926	-10,540	275,657	129,934
43,940	-10,790	275,340	129,538
44,955	-10,590	274,978	129,544
45,969	-10,797	274,824	129,266
46,984	-10,716	274,587	129,218
47,999	-10,832	274,151	128,894
49,013	-11,086	274,062	128,603
50,028	-11,074	273,662	128,415
51,042	-11,277	273,532	128,154
52,057	-11,310	273,138	127,926
53,071	-11,351	273,133	127,875
54,086	-11,200	272,912	127,900
55,101	-10,974	272,688	127,994
56,115	-10,781	272,500	128,073
57,130	-10,522	272,342	128,228
58,144	-10,521	272,251	128,175
59,159	-10,615	271,939	127,930
60,174	-10,525	271,648	127,864
61,188	-10,483	271,534	127,838
62,203	-10,561	271,344	127,665
63,217	-10,668	271,004	127,395
64,232	-10,447	270,882	127,530
65,247	-10,379	270,472	127,388
66,261	-10,505	270,416	127,235
67,276	-10,578	270,131	127,022
68,290	-10,709	269,804	126,737
69,305	-10,817	269,510	126,489
70,320	-10,876	269,489	126,413
71,334	-10,502	269,186	126,603
72,349	-10,400	269,083	126,636
73,363	-10,464	268,795	126,431
74,378	-10,562	268,674	126,273
75,393	-10,454	268,368	126,216
76,407	-10,536	268,134	126,020
77,422	-10,429	267,880	125,987
78,436	-10,649	267,831	125,752
79,451	-10,388	267,485	125,816
80,466	-10,371	267,088	125,633
81,480	-10,535	266,862	125,367
82,495	-10,574	266,764	125,275
83,509	-10,582	266,669	125,212
84,524	-10,616	266,384	125,036
85,539	-10,865	266,147	124,688
86,553	-10,718	265,955	124,720
87,568	-10,530	265,759	124,786
88,582	-10,721	265,487	124,476
89,597	-10,686	265,424	124,467
90,611	-10,597	265,150	124,407
91,626	-10,480	265,014	124,437
92,641	-10,516	264,860	124,322
93,655	-10,622	264,606	124,096
94,670	-10,496	264,415	124,109
95,684	-10,521	264,236	123,991
96,699	-10,372	263,788	123,904
97,714	-10,577	263,755	123,693
98,728	-10,650	263,592	123,541
99,743	-10,713	263,323	123,347
100,757	-10,730	263,072	123,203
101,772	-10,687	262,834	123,120
102,787	-10,822	262,836	122,988
103,801	-10,556	262,619	123,113
104,816	-10,446	262,335	123,067
105,830	-10,389	262,284	123,083
106,845	-10,469	262,034	122,883
107,860	-10,462	261,783	122,761
108,874	-10,494	261,500	122,589
109,889	-10,580	261,300	122,408
110,903	-10,379	261,097	122,480
111,918	-10,411	261,012	122,401
112,933	-10,417	260,800	122,286
113,947	-10,468	260,616	122,143
114,962	-10,450	260,368	122,032
115,976	-10,421	260,213	121,974
116,991	-10,579	260,056	121,750
118,006	-10,445	259,870	121,770
119,020	-10,550	259,580	121,531
120,035	-10,244	259,655	121,824
121,049	-10,409	259,412	121,555
122,064	-10,461	259,189	121,393
123,079	-10,450	258,938	121,275
124,093	-10,525	258,701	121,088
125,108	-10,614	258,472	120,892
126,122	-10,690	258,251	120,711
127,137	-10,892	257,984	120,399
128,151	-10,640	257,830	120,536
129,166	-10,482	257,642	120,576
130,181	-10,631	257,539	120,386
131,195	-10,795	257,321	120,131
132,210	-10,677	257,118	120,128
133,224	-10,544	257,048	120,200
134,239	-10,365	256,692	120,179
135,254	-10,605	256,508	119,874
136,268	-10,452	256,258	119,879
137,283	-10,776	256,055	119,492
138,297	-10,749	255,709	119,344
139,312	-10,884	255,755	119,237
140,327	-10,614	255,540	119,360
141,341	-10,487	255,482	119,432
142,356	-10,288	255,185	119,454
143,370	-10,171	255,065	119,489
144,385	-10,231	255,139	119,461
145,400	-10,197	254,950	119,391
146,414	-10,311	254,621	119,128
147,429	-10,412	254,453	118,952
148,443	-10,281	254,335	118,999
149,458	-10,334	253,986	118,779
150,473	-10,376	253,968	118,724
151,487	-10,515	253,525	118,388
152,502	-10,346	253,344	118,437
153,516	-10,342	253,344	118,430
154,531	-10,149	253,106	118,474
155,546	-10,034	252,832	118,433
156,560	-10,271	252,837	118,222
157,575	-10,440	252,548	117,932
158,589	-10,336	252,220	117,857
159,604	-10,330	252,097	117,794
160,619	-10,339	252,015	117,738
161,633	-10,518	251,982	117,560
162,648	-10,128	251,636	117,719
163,662	-10,413	251,556	117,429
164,677	-10,218	251,416	117,518
165,692	-10,184	251,214	117,442
166,706	-10,084	250,966	117,401
167,721	-10,323	250,932	117,173
168,735	-10,391	250,617	116,957
169,750	-10,514	250,594	116,832
170,764	-10,232	250,334	116,939
171,779	-10,184	250,165	116,889
172,794	-10,248	250,084	116,787
173,808	-10,364	249,857	116,573
174,823	-10,735	249,605	116,133
175,837	-10,904	249,313	115,844
176,852	-10,578	249,409	116,153
177,867	-10,311	249,125	116,235
178,881	-10,251	249,045	116,238
179,896	-10,319	248,949	116,126
180,910	-10,375	248,663	115,935
181,925	-10,378	248,515	115,853
182,940	-10,289	248,370	115,850
183,954	-10,233	248,160	115,788
184,969	-10,351	248,155	115,677
185,983	-10,248	247,852	115,610
186,998	-10,263	247,756	115,543
188,013	-10,105	247,396	115,497
189,027	-10,140	247,280	115,403
190,042	-10,285	247,134	115,204
191,056	-10,472	246,915	114,936
192,071	-10,255	246,774	115,041
193,086	-10,446	246,670	114,823
194,100	-10,233	246,402	114,865
195,115	-10,189	246,070	114,737
196,129	-10,314	246,031	114,605
197,144	-10,292	245,871	114,538
198,159	-10,426	245,577	114,280
199,173	-10,149	245,410	114,421
200,188	-10,501	245,259	114,049
201,202	-10,627	245,100	113,862
202,217	-10,826	244,835	113,565
203,232	-10,872	244,644	113,428
204,246	-10,478	244,605	113,724
205,261	-10,102	244,448	113,950
206,275	-11,135	243,969	112,869
207,290	-6,614	245,917	117,496
208,304	1,155	248,311	125,092
209,319	3,958	249,072	127,796
210,334	4,668	248,805	128,236
211,348	4,874	248,828	128,407
212,363	4,877	248,781	128,374
213,377	4,952	248,610	128,337
214,392	5,018	248,522	128,334
215,407	4,882	248,313	128,103
216,421	4,944	248,052	128,007
217,436	4,914	248,077	127,984
218,450	5,035	248,049	128,058
219,465	4,720	247,733	127,624
220,480	4,707	247,340	127,399
221,494	4,728	247,186	127,325
222,509	4,310	247,255	127,006
223,523	4,757	246,709	127,082
224,538	4,330	246,659	126,694
225,553	4,167	246,497	126,465
226,567	4,494	246,351	126,647
227,582	4,385	246,287	126,514
228,596	4,644	246,021	126,578
229,611	4,211	245,829	126,114
230,626	4,058	245,677	125,899
231,640	4,295	245,489	125,985
232,655	4,515	245,373	126,094
233,669	4,492	245,138	125,943
234,684	4,234	244,974	125,637
235,699	4,556	245,006	125,905
236,713	4,580	244,948	125,883
237,728	4,306	244,610	125,476
238,742	4,278	244,457	125,364
239,757	4,249	244,132	125,162
240,772	4,141	244,060	125,026
241,786	4,348	243,842	125,071
242,801	4,220	243,901	124,986
243,815	4,235	243,665	124,867
244,830	4,577	243,500	125,048
245,844	4,432	243,234	124,782
246,859	4,413	243,032	124,652
247,874	4,250	243,003	124,495
248,888	4,230	242,864	124,396
249,903	4,331	242,749	124,408
250,917	4,520	242,534	124,439
251,932	4,662	242,422	124,485
252,947	4,572	242,378	124,378
253,961	4,523	241,996	124,133
254,976	4,282	242,045	123,953
255,990	4,447	241,735	123,915
257,005	4,282	241,501	123,652
258,020	4,031	241,343	123,359
259,034	4,406	241,327	123,640
260,049	4,422	241,209	123,581
261,063	4,177	240,944	123,239
262,078	4,285	240,614	123,145
263,093	4,517	240,610	123,317
264,107	4,622	240,589	123,379
265,122	4,350	240,337	123,022
266,136	4,538	240,210	123,096
267,151	4,740	240,224	123,253
268,166	4,223	240,001	122,716
269,180	4,263	239,652	122,559
270,195	4,738	239,709	122,955
271,209	4,773	239,835	123,036
272,224	4,334	239,259	122,381
273,239	4,038	239,029	122,018
274,253	4,221	238,843	122,057
275,268	4,318	238,883	122,143
276,282	4,610	238,491	122,163
277,297	4,165	238,342	121,725
278,312	4,225	238,344	121,762
279,326	4,286	238,248	121,750
280,341	4,606	238,035	121,883
281,355	4,474	237,838	121,667
282,370	4,481	237,817	121,651
283,384	4,336	237,579	121,405
284,399	4,054	237,390	121,076
285,414	4,098	237,121	120,962
286,428	4,229	237,063	121,024
287,443	4,255	236,962	120,982
288,457	4,377	236,864	121,017
289,472	4,462	236,705	120,992
290,487	4,391	236,583	120,863
291,501	4,241	236,411	120,647
292,516	3,965	236,274	120,350
293,530	4,221	236,038	120,420
294,545	4,408	235,972	120,521
295,560	4,370	235,826	120,406
296,574	4,084	235,481	119,996
297,589	4,175	235,614	120,124
298,603	4,505	235,455	120,290
299,618	4,759	235,120	120,306
300,633	4,460	235,090	120,047
301,647	4,514	235,138	120,103
302,662	4,799	234,950	120,217
303,676	4,746	234,694	120,035
304,691	4,633	234,579	119,877
305,706	4,834	234,471	119,967
306,720	4,751	234,364	119,837
307,735	4,599	233,962	119,503
308,749	4,397	233,940	119,326
309,764	4,217	233,646	119,026
310,779	4,116	233,559	118,893
311,793	4,262	233,242	118,833
312,808	3,879	233,083	118,447
313,822	3,748	232,806	118,195
314,837	3,853	232,760	118,241
315,852	4,088	232,879	118,472
316,866	4,663	232,688	118,806
317,881	4,859	232,479	118,840
318,895	4,625	232,430	118,625
319,910	4,633	232,253	118,530
320,925	4,177	232,028	118,055
321,939	4,091	231,803	117,864
322,954	4,377	231,926	118,135
323,968	4,450	231,729	118,080
324,983	4,552	231,637	118,101
325,997	4,681	231,517	118,128
327,012	4,522	231,274	117,872
328,027	4,337	231,119	117,641
329,041	4,793	231,061	117,949
330,056	5,112	231,010	118,155
331,070	5,167	230,879	118,119
332,085	4,646	230,625	117,583
333,100	4,384	230,446	117,282
334,114	4,462	230,255	117,234
335,129	4,569	230,237	117,295
336,143	4,933	230,012	117,446
337,158	4,659	229,852	117,146
338,173	4,578	229,705	117,000
339,187	4,299	229,546	116,697
340,202	4,357	229,309	116,610
341,216	4,544	229,098	116,633
342,231	4,316	229,000	116,401
343,246	4,618	228,777	116,505
344,260	4,435	228,777	116,357
345,275	4,581	228,828	116,483
346,289	4,803	228,585	116,515
347,304	4,585	228,398	116,246
348,319	4,720	228,239	116,256
349,333	4,549	227,950	115,970
350,348	4,318	227,805	115,712
351,362	4,429	227,713	115,739
352,377	4,350	227,364	115,492
353,392	3,745	227,177	114,934
354,406	4,077	227,197	115,182
355,421	194,586	1321,687	1395,047
356,435	155,974	1455,014	1395,029
