DTS Sentinel unit serial number:	SN410029Multiplexer serial number:	ORYXHardware model number:	OX2-SRSoftware version number:	ORYX F/W v4,00 Oryx Data Collector v3.7.2.0data status	okinstallation	B5 Nyhavnadifferential loss correction	single-endedforward channel	channel 2reverse channel	N/Adate	2023/12/12time	09:37:13forward acquisition time	300,00reverse acquisition time	0,00gamma	499,1914k internal	0,3158k external	0,3158temperature offset calibration	1,0000default loss term (dB/km)	0,3820temperature slope calibration	1,0000multiplexer offset coefficient	1,0000multiplexer slope coefficient	1,0000fibre end	0,00T internal ref (°C)	15,00T ext. ref 1 (°C)	-1,33T ext. ref 2 (°C)	-1,64length (m)	temperature (°C)	Stokes	anti-Stokes-744,400	800,000	0,018	0,052
-743,385	-101,300	-0,292	0,052
-742,371	-120,995	0,074	0,009
-741,356	-104,574	-0,222	0,037
-740,342	-200,000	0,021	0,183
-739,327	-40,529	-0,220	0,084
-738,312	-56,148	0,072	0,023
-737,298	-183,241	-0,399	-0,005
-736,283	-108,640	0,112	-0,017
-735,269	-53,171	-0,199	0,067
-734,254	-112,677	0,053	0,008
-733,239	1,763	-0,417	-0,221
-732,225	-143,620	0,205	-0,014
-731,210	-200,000	0,002	0,021
-730,196	-166,803	-0,061	-0,002
-729,181	89,987	-0,101	-0,083
-728,167	-8,298	0,076	0,038
-727,152	581,204	-0,057	0,104
-726,137	-200,000	-0,039	0,152
-725,123	138,673	-0,119	0,115
-724,108	-120,485	-0,086	-0,011
-723,094	-200,000	-0,030	-0,190
-722,079	402,119	0,071	-0,110
-721,064	136,993	-0,068	0,066
-720,050	-70,127	-0,051	-0,014
-719,035	611,438	-0,067	-0,123
-718,021	-200,000	-0,012	-0,203
-717,006	-124,468	-0,053	-0,006
-715,991	313,456	-0,110	-0,153
-714,977	12,661	-0,160	-0,091
-713,962	-81,816	0,119	0,029
-712,948	-129,788	0,040	0,004
-711,933	375,758	-0,024	-0,036
-710,918	-200,000	-0,013	0,059
-709,904	-200,000	0,006	-0,145
-708,889	175,889	-0,049	0,053
-707,875	426,003	0,018	-0,028
-706,860	57,915	-0,030	-0,021
-705,845	-200,000	-0,001	0,048
-704,831	800,000	0,010	-0,027
-703,816	800,000	-0,051	-0,148
-702,802	5,650	0,059	-0,032
-701,787	687,475	-0,053	-0,102
-700,772	-200,000	-0,042	-0,177
-699,758	-200,000	0,053	-0,195
-698,743	-50,389	0,072	-0,025
-697,729	105,761	-0,056	0,049
-696,714	-44,794	-0,118	0,043
-695,699	291,362	-0,064	0,086
-694,685	648,421	-0,048	-0,091
-693,670	790,584	-0,065	-0,132
-692,656	-200,000	-0,001	-0,227
-691,641	800,000	-0,028	-0,081
-690,627	-81,149	0,067	-0,016
-689,612	-49,068	-0,037	-0,013
-688,597	262,266	-0,099	-0,127
-687,583	-200,000	0,008	-0,163
-686,568	392,206	-0,160	-0,245
-685,554	-200,000	0,012	-0,083
-684,539	-200,000	0,016	-0,173
-683,524	-35,905	0,069	0,027
-682,510	267,632	0,017	-0,022
-681,495	-18,282	-0,066	-0,030
-680,481	-200,000	-0,009	-0,101
-679,466	-200,000	-0,005	0,092
-678,451	388,151	-0,018	0,027
-677,437	776,642	0,008	-0,016
-676,422	-57,724	0,055	-0,017
-675,408	13,208	-0,046	-0,026
-674,393	145,248	-0,122	0,120
-673,378	-200,000	0,001	0,024
-672,364	166,391	0,095	-0,099
-671,349	636,606	0,073	-0,137
-670,335	85,835	-0,015	-0,012
-669,320	31,049	0,265	0,167
-668,305	-67,068	-0,264	-0,076
-667,291	-9,618	0,066	0,032
-666,276	255,062	-0,075	0,095
-665,262	487,588	-0,030	0,050
-664,247	800,000	-0,047	0,097
-663,232	-200,000	-0,015	0,079
-662,218	800,000	0,010	-0,022
-661,203	-66,103	-0,077	-0,023
-660,189	-37,351	-0,041	0,016
-659,174	-112,840	0,049	-0,007
-658,159	-200,000	0,007	-0,029
-657,145	135,688	-0,161	-0,154
-656,130	-132,945	0,061	0,006
-655,116	-200,000	-0,019	0,066
-654,101	628,335	0,006	-0,010
-653,086	-139,347	-0,049	0,004
-652,072	-200,000	0,002	-0,019
-651,057	62,707	-0,070	0,051
-650,043	800,000	0,064	-0,138
-649,028	-113,227	-0,196	0,028
-648,014	800,000	0,044	0,106
-646,999	-200,000	-0,014	0,075
-645,984	0,938	-0,054	0,029
-644,970	-200,000	0,000	-0,040
-643,955	-81,510	0,026	0,006
-642,941	800,000	0,036	-0,112
-641,926	-200,000	0,006	-0,037
-640,911	131,235	0,047	0,044
-639,897	800,000	-0,008	-0,018
-638,882	-200,000	0,025	-0,108
-637,868	559,158	-0,073	-0,130
-636,853	16,816	0,138	-0,080
-635,838	-53,839	-0,193	-0,064
-634,824	90,536	-0,031	-0,026
-633,809	-13,707	0,080	0,038
-632,795	236,135	0,035	-0,043
-631,780	398,077	-0,023	-0,035
-630,765	800,000	0,024	-0,055
-629,751	255,462	-0,065	-0,082
-628,736	-18,671	-0,104	-0,048
-627,722	434,738	0,072	0,114
-626,707	-161,447	0,107	-0,004
-625,692	710,720	-0,057	-0,110
-624,678	180,010	0,012	0,013
-623,663	42,377	-0,071	-0,047
-622,649	483,344	-0,049	-0,083
-621,634	11,457	0,043	-0,024
-620,619	59,372	-0,036	0,026
-619,605	172,786	0,086	0,091
-618,590	-87,060	-0,108	-0,024
-617,576	127,654	0,129	0,120
-616,561	800,000	-0,028	0,089
-615,546	-50,993	-0,073	-0,025
-614,532	49,647	-0,070	0,048
-613,517	-200,000	0,011	-0,038
-612,503	33,561	-0,066	-0,042
-611,488	-200,000	0,044	-0,189
-610,474	65,715	0,059	-0,044
-609,459	113,998	0,050	-0,044
-608,444	526,861	-0,082	-0,143
-607,430	280,849	0,040	-0,052
-606,415	449,560	-0,026	0,042
-605,401	403,097	0,042	0,064
-604,386	503,345	-0,067	0,114
-603,371	69,733	0,040	0,030
-602,357	-104,802	-0,147	0,025
-601,342	-65,388	-0,035	-0,010
-600,328	-154,487	-0,044	-0,002
-599,313	-68,035	-0,182	0,052
-598,298	-65,386	-0,073	0,021
-597,284	61,290	0,131	0,095
-596,269	-200,000	0,018	0,089
-595,255	-39,003	0,060	0,023
-594,240	22,315	0,043	-0,026
-593,225	800,000	-0,066	-0,138
-592,211	-35,452	-0,042	-0,017
-591,196	47,960	0,056	0,038
-590,182	-46,401	-0,046	0,016
-589,167	-28,623	-0,009	0,004
-588,152	-62,360	-0,063	-0,019
-587,138	-147,940	0,053	-0,003
-586,123	19,395	-0,091	-0,054
-585,109	-35,334	-0,056	-0,022
-584,094	122,795	0,062	0,057
-583,079	55,113	0,092	0,065
-582,065	151,614	-0,125	-0,125
-581,050	-200,000	-0,012	-0,084
-580,036	-144,574	0,065	-0,004
-579,021	127,468	-0,184	-0,172
-578,006	-200,000	0,041	-0,227
-576,992	800,000	-0,047	-0,151
-575,977	-144,288	0,146	0,010
-574,963	-80,798	-0,147	-0,035
-573,948	800,000	0,079	0,162
-572,934	342,639	-0,096	0,139
-571,919	-144,288	0,081	0,005
-570,904	-200,000	0,016	-0,063
-569,890	-200,000	0,017	-0,194
-568,875	800,000	0,016	0,045
-567,861	-200,000	-0,007	-0,119
-566,846	-200,000	-0,008	0,044
-565,831	207,429	-0,058	-0,066
-564,817	800,000	0,051	0,158
-563,802	-101,457	-0,116	-0,020
-562,788	-119,310	-0,052	-0,007
-561,773	221,340	-0,068	0,080
-560,758	-41,476	0,171	-0,064
-559,744	-200,000	0,007	0,078
-558,729	-200,000	-0,004	-0,021
-557,715	-79,897	-0,110	-0,027
-556,700	-90,940	-0,187	-0,039
-555,685	800,000	-0,036	0,087
-554,671	-56,446	-0,044	0,014
-553,656	129,594	-0,044	-0,041
-552,642	15,262	0,049	0,028
-551,627	-97,874	-0,201	0,038
-550,612	-10,817	-0,072	-0,035
-549,598	800,000	-0,033	-0,081
-548,583	-200,000	0,018	0,110
-547,569	58,161	-0,107	0,077
-546,554	800,000	-0,008	-0,025
-545,539	-200,000	0,000	-0,053
-544,525	234,636	0,062	-0,075
-543,510	800,000	-0,017	-0,037
-542,496	-120,007	0,108	0,013
-541,481	341,859	-0,083	-0,119
-540,466	282,800	0,101	0,133
-539,452	-200,000	0,054	0,183
-538,437	13,936	-0,105	-0,060
-537,423	-123,784	0,135	-0,015
-536,408	28,505	-0,039	-0,024
-535,393	-99,409	0,009	-0,002
-534,379	5,827	-0,069	-0,037
-533,364	-200,000	-0,004	-0,033
-532,350	-152,338	0,086	0,004
-531,335	460,540	0,072	0,117
-530,321	-52,306	0,124	-0,042
-529,306	-96,393	0,062	0,012
-528,291	-200,000	-0,009	-0,085
-527,277	-200,000	-0,019	0,162
-526,262	-4,870	-0,068	-0,034
-525,248	-120,425	-0,043	0,005
-524,233	-37,322	-0,055	0,021
-523,218	30,150	-0,062	0,038
-522,204	-92,323	0,095	0,019
-521,189	-177,981	-0,109	0,002
-520,175	-200,000	0,012	-0,223
-519,160	492,128	0,084	-0,141
-518,145	464,649	0,044	-0,073
-517,131	155,178	0,091	-0,092
-516,116	156,563	-0,029	0,029
-515,102	-200,000	-0,030	0,111
-514,087	-200,000	-0,005	-0,107
-513,072	224,565	-0,083	-0,099
-512,058	-69,294	0,083	0,023
-511,043	-200,000	0,002	-0,093
-510,029	-80,476	0,082	0,020
-509,014	-128,837	0,110	0,011
-507,999	800,000	0,070	0,188
-506,985	-68,707	0,017	-0,005
-505,970	800,000	-0,062	-0,149
-504,956	141,792	0,163	0,158
-503,941	234,374	0,060	0,072
-502,926	303,273	0,004	-0,005
-501,912	-200,000	0,014	-0,052
-500,897	-200,000	0,002	-0,045
-499,883	-81,225	0,034	-0,008
-498,868	-135,190	-0,056	-0,005
-497,853	-200,000	-0,004	0,073
-496,839	-200,000	-0,017	0,058
-495,824	662,741	0,070	0,132
-494,810	-30,536	0,096	-0,039
-493,795	-66,783	0,014	-0,004
-492,781	714,926	-0,017	-0,033
-491,766	-200,000	-0,008	-0,109
-490,751	-200,000	-0,010	-0,045
-489,737	-39,738	-0,047	-0,018
-488,722	-200,000	-0,007	0,085
-487,708	-200,000	0,002	0,074
-486,693	-200,000	-0,036	0,125
-485,678	19,819	0,072	-0,043
-484,664	-87,646	-0,036	-0,008
-483,649	-172,182	-0,003	0,000
-482,635	-95,098	0,049	0,010
-481,620	-200,000	0,006	0,048
-480,605	54,077	-0,064	0,045
-479,591	183,921	-0,068	0,073
-478,576	-142,936	-0,038	-0,003
-477,562	25,975	-0,038	0,023
-476,547	84,482	0,087	0,069
-475,532	-200,000	-0,024	-0,096
-474,518	-133,299	0,099	-0,009
-473,503	647,439	-0,011	0,021
-472,489	-200,000	-0,021	-0,083
-471,474	358,909	-0,058	-0,085
-470,459	-200,000	-0,027	-0,211
-469,445	24,334	-0,082	-0,049
-468,430	-174,342	0,057	-0,001
-467,416	-32,355	-0,059	-0,024
-466,401	-136,803	-0,067	0,006
-465,386	800,000	0,045	0,111
-464,372	-200,000	-0,001	0,035
-463,357	-17,881	0,086	0,039
-462,343	133,813	-0,096	-0,090
-461,328	111,652	-0,058	0,051
-460,313	-41,550	-0,095	-0,036
-459,299	-200,000	0,019	0,159
-458,284	-200,000	0,019	0,112
-457,270	-200,000	0,006	-0,046
-456,255	-99,685	-0,183	-0,033
-455,241	-200,000	0,006	0,025
-454,226	-33,658	-0,037	-0,015
-453,211	61,172	-0,033	0,024
-452,197	209,521	-0,079	-0,090
-451,182	-200,000	0,008	0,182
-450,168	-152,445	-0,042	-0,002
-449,153	-200,000	-0,018	0,110
-448,138	-101,900	0,038	-0,007
-447,124	-69,471	-0,047	0,013
-446,109	268,357	0,047	-0,061
-445,095	179,888	0,068	-0,073
-444,080	-200,000	0,002	0,027
-443,065	-12,267	-0,015	0,007
-442,051	44,525	-0,083	-0,055
-441,036	195,233	0,078	0,086
-440,022	-56,543	-0,052	-0,017
-439,007	-200,000	0,035	0,115
-437,992	-126,391	0,043	0,005
-436,978	-25,762	0,124	0,053
-435,963	-131,012	0,185	0,018
-434,949	-111,970	-0,095	-0,014
-433,934	57,809	-0,050	-0,036
-432,919	357,115	0,017	0,024
-431,905	109,547	-0,031	0,027
-430,890	-200,000	-0,006	-0,117
-429,876	179,596	0,066	0,071
-428,861	162,033	0,073	-0,075
-427,846	39,311	0,074	-0,048
-426,832	138,287	-0,071	-0,067
-425,817	-114,252	0,152	0,021
-424,803	-147,311	-0,115	-0,007
-423,788	-97,451	0,125	-0,023
-422,773	61,885	0,090	0,065
-421,759	-200,000	0,053	0,172
-420,744	-200,000	-0,004	0,102
-419,730	-200,000	-0,022	-0,073
-418,715	-44,655	0,122	-0,044
-417,701	-83,477	0,107	0,025
-416,686	-104,941	-0,098	-0,016
-415,671	-89,251	0,114	0,024
-414,657	-200,000	0,016	-0,052
-413,642	800,000	0,063	0,201
-412,628	16,788	-0,105	0,060
-411,613	-200,000	-0,002	-0,159
-410,598	439,305	0,040	-0,064
-409,584	47,421	0,083	0,056
-408,569	800,000	0,048	0,107
-407,555	544,653	0,021	-0,036
-406,540	800,000	0,044	0,142
-405,525	7,084	-0,024	0,013
-404,511	48,338	0,031	-0,021
-403,496	-78,855	-0,106	0,026
-402,482	-200,000	-0,006	-0,211
-401,467	-89,070	-0,099	-0,021
-400,452	65,125	0,061	0,045
-399,438	447,704	0,016	-0,026
-398,423	800,000	-0,033	-0,067
-397,409	133,868	0,054	-0,051
-396,394	122,759	0,097	0,089
-395,379	800,000	-0,017	0,036
-394,365	-157,184	0,085	0,004
-393,350	384,471	-0,045	0,067
-392,336	133,190	0,140	-0,131
-391,321	201,549	0,122	-0,136
-390,306	-26,495	0,010	0,004
-389,292	508,496	0,078	0,132
-388,277	-200,000	0,005	-0,090
-387,263	800,000	0,019	0,048
-386,248	-125,555	0,153	-0,017
-385,233	800,000	0,017	-0,053
-384,219	704,491	0,038	-0,073
-383,204	66,276	-0,087	-0,064
-382,190	512,874	0,035	-0,060
-381,175	343,688	-0,035	0,050
-380,160	800,000	0,032	0,083
-379,146	352,010	0,044	0,064
-378,131	800,000	0,009	-0,027
-377,117	597,458	0,026	-0,048
-376,102	-140,463	-0,059	-0,004
-375,088	800,000	-0,028	-0,061
-374,073	-153,790	-0,074	-0,004
-373,058	-154,540	-0,154	0,007
-372,044	-20,799	-0,053	0,023
-371,029	-75,922	0,096	0,025
-370,015	800,000	0,035	-0,077
-369,000	113,957	-0,103	-0,091
-367,985	-200,000	0,020	-0,107
-366,971	196,060	0,058	0,064
-365,956	98,762	0,032	0,027
-364,942	-200,000	-0,018	-0,060
-363,927	800,000	-0,036	0,108
-362,912	-200,000	0,020	0,143
-361,898	-200,000	0,028	0,101
-360,883	-153,876	-0,048	-0,002
-359,869	-200,000	-0,016	-0,089
-358,854	164,539	0,131	0,135
-357,839	-177,837	-0,011	-0,000
-356,825	312,744	0,007	0,009
-355,810	-200,000	0,039	0,218
-354,796	-33,279	0,124	-0,050
-353,781	-157,756	-0,143	0,006
-352,766	-200,000	-0,001	-0,077
-351,752	-200,000	0,032	0,124
-350,737	800,000	0,047	0,104
-349,723	-200,000	0,007	-0,056
-348,708	61,286	-0,029	0,021
-347,693	800,000	0,005	-0,014
-346,679	-57,894	-0,155	-0,049
-345,664	642,351	0,062	0,115
-344,650	381,036	0,046	0,068
-343,635	42,184	0,086	-0,057
-342,620	53,004	0,064	0,045
-341,606	-200,000	-0,013	-0,066
-340,591	-79,360	-0,068	0,017
-339,577	-15,339	-0,099	-0,046
-338,562	108,982	-0,021	0,018
-337,548	-200,000	0,004	-0,065
-336,533	-200,000	-0,012	0,058
-335,518	-200,000	-0,013	-0,042
-334,504	800,000	0,065	-0,134
-333,489	-1,239	-0,043	-0,022
-332,475	-114,250	-0,037	-0,005
-331,460	800,000	0,023	-0,069
-330,445	674,797	0,025	-0,047
-329,431	-200,000	-0,005	0,156
-328,416	476,354	0,078	0,129
-327,402	-200,000	-0,018	-0,103
-326,387	-200,000	0,014	0,098
-325,372	-28,220	-0,029	-0,012
-324,358	256,588	0,046	-0,057
-323,343	80,185	0,058	-0,045
-322,329	245,318	0,072	-0,088
-321,314	-200,000	0,008	0,109
-320,299	-69,678	-0,023	-0,006
-319,285	256,421	0,092	-0,115
-318,270	-52,767	0,047	0,015
-317,256	-79,916	0,071	-0,017
-316,241	-200,000	-0,030	0,107
-315,226	17,763	0,024	-0,014
-314,212	800,000	0,029	0,071
-313,197	-200,000	0,001	0,085
-312,183	59,473	-0,052	0,037
-311,168	37,488	-0,038	-0,024
-310,153	-55,033	-0,142	0,046
-309,139	411,085	0,044	0,067
-308,124	59,203	-0,020	0,014
-307,110	-0,119	0,066	0,034
-306,095	176,711	0,072	0,075
-305,080	-200,000	0,036	0,141
-304,066	-132,234	-0,113	0,010
-303,051	71,514	-0,040	-0,030
-302,037	-128,276	-0,124	-0,013
-301,022	-200,000	0,029	-0,242
-300,008	-48,061	0,098	0,034
-298,993	-200,000	0,033	0,154
-297,978	-200,000	0,023	0,146
-296,964	-25,766	-0,074	0,031
-295,949	-200,000	-0,021	-0,102
-294,935	-199,980	-0,052	-0,000
-293,920	-200,000	-0,036	-0,117
-292,905	-200,000	-0,007	0,029
-291,891	800,000	-0,024	0,060
-290,876	-106,111	0,156	0,025
-289,862	-123,984	0,071	-0,008
-288,847	239,307	-0,098	-0,119
-287,832	-200,000	-0,003	-0,092
-286,818	-200,000	0,001	0,163
-285,803	-95,768	0,104	0,020
-284,789	-82,183	-0,076	0,018
-283,774	94,715	-0,023	-0,019
-282,759	800,000	-0,036	-0,088
-281,745	-3,380	-0,111	0,056
-280,730	245,344	-0,060	0,073
-279,716	-200,000	0,005	-0,062
-278,701	-200,000	-0,011	0,050
-277,686	445,968	0,088	-0,140
-276,672	359,513	-0,038	0,055
-275,657	800,000	-0,041	0,111
-274,643	-58,876	-0,106	-0,033
-273,628	800,000	0,042	0,092
-272,613	201,643	-0,111	0,125
-271,599	-194,772	0,135	-0,001
-270,584	153,518	-0,018	0,018
-269,570	-200,000	0,007	0,064
-268,555	-200,000	0,009	0,053
-267,540	49,142	-0,094	-0,064
-266,526	33,576	-0,026	-0,016
-265,511	-5,094	-0,052	-0,026
-264,497	-200,000	0,011	0,056
-263,482	-200,000	-0,019	0,104
-262,467	-200,000	-0,015	0,096
-261,453	-139,190	-0,072	0,006
-260,438	-200,000	-0,005	-0,027
-259,424	329,735	0,049	-0,069
-258,409	-200,000	-0,013	-0,128
-257,395	337,097	0,039	-0,054
-256,380	-17,629	0,050	0,023
-255,365	800,000	-0,016	-0,036
-254,351	297,247	-0,027	-0,036
-253,336	-30,606	0,057	-0,023
-252,322	-69,010	-0,072	-0,020
-251,307	-200,000	0,023	0,086
-250,292	-22,194	0,097	-0,042
-249,278	-140,541	0,080	-0,006
-248,263	54,299	0,139	0,097
-247,249	-156,978	-0,055	0,002
-246,234	99,781	-0,088	-0,073
-245,219	-200,000	-0,019	-0,129
-244,205	-85,043	0,032	-0,007
-243,190	-200,000	-0,003	0,026
-242,176	-21,549	0,084	0,037
-241,161	-200,000	0,029	0,099
-240,146	231,573	0,095	0,112
-239,132	-200,000	0,023	0,155
-238,117	800,000	-0,068	-0,160
-237,103	506,528	-0,012	-0,020
-236,088	800,000	-0,035	-0,085
-235,073	-67,803	-0,063	-0,018
-234,059	262,180	0,067	0,084
-233,044	-200,000	0,029	0,103
-232,030	-40,791	-0,043	-0,016
-231,015	344,807	-0,099	-0,141
-230,000	336,688	-0,062	0,087
-228,986	184,192	-0,097	0,104
-227,971	315,490	0,022	-0,030
-226,957	183,571	0,055	-0,058
-225,942	800,000	0,008	0,025
-224,927	-200,000	0,024	-0,093
-223,913	-188,585	-0,054	0,000
-222,898	800,000	0,030	-0,085
-221,884	-200,000	0,064	0,000
-220,869	-200,000	0,011	0,036
-219,855	58,410	0,052	0,037
-218,840	-128,917	0,044	-0,004
-217,825	5,798	-0,041	0,022
-216,811	-32,576	0,077	0,031
-215,796	-200,000	-0,017	-0,066
-214,782	472,470	-0,038	0,062
-213,767	127,033	-0,115	0,105
-212,752	-200,000	-0,003	0,226
-211,738	-200,000	-0,038	0,130
-210,723	-104,133	-0,011	0,002
-209,709	-16,947	0,041	-0,019
-208,694	298,757	-0,106	-0,141
-207,679	85,533	-0,100	-0,080
-206,665	-109,755	-0,049	-0,007
-205,650	800,000	0,045	-0,122
-204,636	15,274	-0,095	0,054
-203,621	800,000	0,072	0,145
-202,606	-27,906	-0,055	0,023
-201,592	107,491	0,034	0,029
-200,577	76,000	0,036	-0,027
-199,563	-200,000	0,001	-0,066
-198,548	71,233	0,069	0,052
-197,533	407,244	-0,041	0,062
-196,519	-200,000	0,027	0,114
-195,504	-92,590	-0,117	0,023
-194,490	-200,000	0,023	-0,147
-193,475	24,773	-0,101	-0,060
-192,460	461,433	0,034	-0,055
-191,446	-200,000	-0,007	-0,058
-190,431	-125,903	0,103	-0,011
-189,417	800,000	-0,025	0,059
-188,402	-109,869	0,060	-0,009
-187,387	800,000	0,032	0,074
-186,373	800,000	0,075	-0,183
-185,358	-200,000	-0,004	0,053
-184,344	-138,545	0,080	-0,006
-183,329	115,613	0,030	-0,026
-182,315	379,616	-0,053	0,079
-181,300	-200,000	0,001	0,040
-180,285	-107,432	0,017	0,003
-179,271	411,491	-0,073	-0,112
-178,256	211,151	0,017	0,019
-177,242	-200,000	0,000	-0,019
-176,227	-99,316	0,095	-0,017
-175,212	19,947	-0,057	-0,033
-174,198	-85,528	-0,144	-0,032
-173,183	-23,413	-0,124	0,054
-172,169	298,937	-0,053	-0,071
-171,154	-120,821	-0,064	-0,008
-170,139	122,382	0,043	0,039
-169,125	268,974	0,039	-0,049
-168,110	359,956	0,047	0,069
-167,096	45,630	-0,006	-0,004
-166,081	-88,176	-0,025	0,005
-165,066	-149,135	0,028	-0,002
-164,052	350,260	0,046	0,066
-163,037	-200,000	-0,055	-0,176
-162,023	13,960	0,132	-0,074
-161,008	-200,000	0,013	-0,073
-159,993	-56,753	-0,061	-0,019
-158,979	-72,678	-0,080	0,021
-157,964	0,978	0,053	0,027
-156,950	594,006	0,048	-0,086
-155,935	-200,000	0,003	-0,062
-154,920	-107,603	0,056	-0,009
-153,906	-6,874	0,114	0,056
-152,891	459,056	-0,025	0,040
-151,877	800,000	-0,045	-0,095
-150,862	-182,220	-0,134	0,002
-149,847	-98,821	0,140	-0,025
-148,833	-4,655	-0,040	-0,020
-147,818	428,230	-0,029	0,045
-146,804	155,403	0,041	0,041
-145,789	241,895	0,065	0,079
-144,775	-99,667	0,093	0,017
-143,760	482,109	-0,087	-0,143
-142,745	360,567	-0,094	-0,136
-141,731	-61,742	0,059	-0,018
-140,716	142,153	-0,098	0,094
-139,702	800,000	0,028	0,075
-138,687	491,126	-0,060	0,100
-137,672	-102,217	-0,049	0,008
-136,658	-107,259	-0,075	0,012
-135,643	212,525	-0,090	-0,102
-134,629	-76,002	-0,096	0,024
-133,614	-72,927	-0,063	0,016
-132,599	-24,050	0,021	-0,009
-131,585	191,330	0,082	0,089
-130,570	800,000	-0,033	-0,100
-129,556	561,853	-0,059	-0,104
-128,541	9,546	-0,133	-0,073
-127,526	438,451	-0,098	-0,154
-126,512	800,000	-0,006	0,013
-125,497	-126,508	-0,095	0,010
-124,483	800,000	0,031	-0,068
-123,468	179,994	-0,047	-0,050
-122,453	-68,479	-0,091	0,025
-121,439	-200,000	0,014	-0,146
-120,424	-76,841	-0,224	0,056
-119,410	31,340	0,127	0,078
-118,395	-200,000	-0,003	-0,133
-117,380	-200,000	0,012	0,106
-116,366	-85,328	0,013	-0,003
-115,351	20,240	-0,059	-0,034
-114,337	91,754	-0,099	0,080
-113,322	-28,967	0,067	-0,028
-112,307	800,000	0,075	-0,191
-111,293	-200,000	-0,014	-0,062
-110,278	34,716	-0,054	0,034
-109,264	-17,743	0,121	0,054
-108,249	-72,314	-0,060	-0,016
-107,234	26,239	0,074	0,044
-106,220	444,403	-0,075	0,118
-105,205	-128,904	-0,099	0,010
-104,191	254,463	0,081	0,100
-103,176	-200,000	0,008	-0,028
-102,162	-62,316	0,101	0,030
-101,147	-200,000	-0,027	-0,090
-100,132	106,740	-0,062	-0,053
-99,118	144,325	0,059	-0,057
-98,103	210,583	0,022	-0,025
-97,089	800,000	-0,063	0,151
-96,074	-200,000	0,043	0,200
-95,059	605,507	0,045	0,081
-94,045	69,620	0,070	0,052
-93,030	65,104	-0,108	-0,079
-92,016	112,396	0,052	0,045
-91,001	-200,000	-0,038	0,000
-89,986	-147,054	0,081	0,005
-88,972	-88,951	-0,163	-0,034
-87,957	-22,522	-0,089	0,038
-86,943	-200,000	0,035	0,142
-85,928	-68,487	-0,151	-0,042
-84,913	12,129	-0,025	0,014
-83,899	800,000	-0,028	-0,070
-82,884	-50,471	-0,050	-0,017
-81,870	-73,397	0,024	-0,006
-80,855	600,089	-0,013	0,023
-79,840	-144,580	0,057	0,004
-78,826	800,000	-0,017	-0,050
-77,811	-200,000	-0,033	-0,135
-76,797	294,491	0,054	-0,071
-75,782	-108,971	-0,064	0,010
-74,767	352,100	0,059	0,085
-73,753	800,000	-0,029	0,061
-72,738	-200,000	0,003	-0,152
-71,724	800,000	0,044	0,091
-70,709	-200,000	0,004	0,016
-69,694	-200,000	-0,022	-0,073
-68,680	168,308	0,085	0,087
-67,665	-200,000	-0,010	0,079
-66,651	20,755	0,085	0,049
-65,636	291,840	-0,079	0,104
-64,622	-60,352	-0,042	0,013
-63,607	-34,387	-0,045	-0,017
-62,592	341,354	0,022	-0,031
-61,578	69,802	0,040	0,029
-60,563	-200,000	0,018	0,128
-59,549	-131,989	-0,141	0,013
-58,534	11,813	-1,990	-1,094
-57,519	-200,000	-0,134	-0,736
-56,505	-200,000	-1,299	-4,943
-55,490	48,526	0,819	0,550
-54,476	800,000	5,363	12,252
-53,461	-200,000	17,710	289,149
-52,446	800,000	729,234	2232,219
-51,432	538,039	1645,471	2817,511
-50,417	109,508	1635,822	1406,040
-49,403	75,334	1287,341	973,598
-48,388	31,762	1027,286	633,083
-47,373	20,127	989,128	571,211
-46,359	18,293	976,853	558,088
-45,344	15,349	972,872	546,164
-44,330	15,532	971,476	545,958
-43,315	15,013	969,708	543,247
-42,300	14,993	968,629	542,555
-41,286	14,983	967,617	541,936
-40,271	15,056	966,365	541,450
-39,257	15,018	965,637	540,898
-38,242	15,063	964,610	540,448
-37,227	15,036	963,838	539,905
-36,213	15,053	962,960	539,445
-35,198	14,968	962,121	538,678
-34,184	15,035	961,252	538,388
-33,169	14,971	960,411	537,689
-32,154	14,976	959,431	537,135
-31,140	15,088	958,544	536,979
-30,125	15,094	957,816	536,570
-29,111	15,061	957,007	535,987
-28,096	15,039	956,542	535,635
-27,082	15,054	955,752	535,222
-26,067	15,031	954,778	534,579
-25,052	15,029	954,102	534,175
-24,038	15,031	953,526	533,837
-23,023	15,016	952,824	533,374
-22,009	15,044	952,258	533,127
-20,994	15,045	951,563	532,720
-19,979	15,077	950,903	532,430
-18,965	15,033	950,166	531,857
-17,950	15,079	949,494	531,606
-16,936	14,971	949,063	530,998
-15,921	14,944	948,439	530,542
-14,906	14,899	947,646	529,934
-13,892	14,922	946,997	529,624
-12,877	14,922	946,369	529,250
-11,863	14,895	945,862	528,860
-10,848	14,961	945,097	528,620
-9,833	14,966	944,749	528,421
-8,819	14,992	943,923	528,022
-7,804	14,965	943,301	527,567
-6,790	14,894	943,030	527,169
-5,775	14,988	942,277	527,027
-4,760	14,965	941,596	526,551
-3,746	14,967	941,047	526,229
-2,731	14,781	940,436	525,278
-1,717	14,746	939,710	524,742
-0,702	14,753	939,087	524,394
0,313	14,565	938,516	524,274
1,327	17,804	936,239	533,156
2,342	26,728	792,680	475,005
3,356	23,410	457,576	269,115
4,371	-3,591	313,628	155,820
5,386	-7,480	295,447	142,849
6,400	-9,508	289,329	137,871
7,415	-10,049	286,984	136,210
8,429	-10,048	285,318	135,408
9,444	-10,386	284,637	134,744
10,459	-10,173	283,936	134,607
11,473	-10,350	283,338	134,139
12,488	-10,299	282,850	133,946
13,502	-10,306	282,356	133,693
14,517	-10,189	281,760	133,512
15,531	-10,244	281,450	133,301
16,546	-10,194	280,853	133,054
17,561	-10,214	280,662	132,933
18,575	-10,154	280,181	132,750
19,590	-10,225	279,913	132,544
20,604	-10,194	279,622	132,423
21,619	-10,307	279,382	132,190
22,634	-10,204	278,840	132,020
23,648	-10,488	278,593	131,621
24,663	-10,278	278,380	131,708
25,677	-10,347	278,147	131,521
26,692	-10,265	277,777	131,412
27,707	-10,188	277,632	131,404
28,721	-10,246	277,220	131,143
29,736	-10,233	277,097	131,085
30,750	-10,272	276,763	130,879
31,765	-10,395	276,492	130,623
32,780	-10,212	276,216	130,653
33,794	-10,081	275,898	130,615
34,809	-10,201	275,637	130,367
35,823	-10,303	275,472	130,181
36,838	-10,281	275,195	130,059
37,853	-10,421	274,916	129,785
38,867	-10,333	274,738	129,771
39,882	-10,310	274,619	129,725
40,896	-10,167	274,376	129,733
41,911	-10,234	273,988	129,475
42,926	-10,218	273,758	129,370
43,940	-10,437	273,531	129,046
44,955	-10,480	273,317	128,894
45,969	-10,371	273,041	128,854
46,984	-10,451	272,842	128,674
47,999	-10,526	272,495	128,429
49,013	-10,934	272,322	127,957
50,028	-10,758	271,932	127,926
51,042	-10,906	271,827	127,728
52,057	-11,129	271,583	127,395
53,071	-10,740	271,324	127,622
54,086	-10,837	271,224	127,474
55,101	-10,699	270,930	127,452
56,115	-10,370	270,735	127,653
57,130	-10,411	270,774	127,621
58,144	-10,017	270,296	127,747
59,159	-10,134	270,281	127,621
60,174	-10,166	269,973	127,436
61,188	-10,028	269,762	127,451
62,203	-10,244	269,626	127,178
63,217	-10,270	269,315	126,995
64,232	-10,248	269,167	126,935
65,247	-10,021	268,820	126,968
66,261	-10,105	268,487	126,722
67,276	-10,411	268,361	126,371
68,290	-10,467	268,019	126,148
69,305	-10,511	267,712	125,952
70,320	-10,585	267,645	125,842
71,334	-10,169	267,482	126,133
72,349	-10,189	267,321	126,028
73,363	-10,126	267,070	125,955
74,378	-9,965	266,704	125,918
75,393	-10,154	266,703	125,734
76,407	-10,266	266,408	125,483
77,422	-10,269	266,271	125,404
78,436	-10,140	265,986	125,375
79,451	-10,186	265,861	125,264
80,466	-10,103	265,558	125,185
81,480	-10,340	265,422	124,896
82,495	-10,416	265,146	124,686
83,509	-10,357	264,958	124,639
84,524	-10,300	264,669	124,544
85,539	-10,270	264,432	124,448
86,553	-10,606	264,295	124,070
87,568	-10,368	263,947	124,110
88,582	-10,210	263,833	124,187
89,597	-10,311	263,712	124,028
90,611	-10,291	263,566	123,967
91,626	-9,900	263,340	124,199
92,641	-10,099	263,084	123,889
93,655	-10,216	262,925	123,699
94,670	-10,240	262,781	123,598
95,684	-10,038	262,489	123,630
96,699	-10,176	262,249	123,383
97,714	-10,178	262,085	123,293
98,728	-10,367	261,889	123,023
99,743	-10,735	261,744	122,616
100,757	-10,438	261,328	122,674
101,772	-10,296	261,313	122,781
102,787	-10,454	261,115	122,537
103,801	-10,203	260,913	122,654
104,816	-10,193	260,715	122,560
105,830	-10,054	260,551	122,594
106,845	-10,078	260,363	122,474
107,860	-10,263	260,234	122,238
108,874	-10,251	260,032	122,143
109,889	-10,063	259,753	122,167
110,903	-10,254	259,478	121,858
111,918	-10,322	259,429	121,765
112,933	-10,138	259,076	121,750
113,947	-10,187	259,067	121,692
114,962	-10,075	258,759	121,634
115,976	-10,136	258,520	121,458
116,991	-10,251	258,430	121,304
118,006	-10,311	258,312	121,185
119,020	-10,018	257,990	121,279
120,035	-10,043	257,924	121,217
121,049	-10,045	257,763	121,127
122,064	-10,083	257,463	120,943
123,079	-10,267	257,371	120,729
124,093	-10,273	257,165	120,616
125,108	-10,317	256,880	120,433
126,122	-10,444	256,570	120,167
127,137	-10,662	256,290	119,835
128,151	-10,473	256,169	119,933
129,166	-10,446	256,152	119,937
130,181	-10,530	256,026	119,795
131,195	-10,472	255,634	119,651
132,210	-10,382	255,658	119,729
133,224	-10,247	255,393	119,711
134,239	-10,178	255,083	119,614
135,254	-10,269	255,070	119,520
136,268	-10,278	254,831	119,389
137,283	-10,612	254,643	119,002
138,297	-10,650	254,311	118,803
139,312	-10,662	254,063	118,667
140,327	-10,337	254,106	118,956
141,341	-9,898	253,801	119,180
142,356	-10,190	253,836	118,935
143,370	-10,180	253,620	118,832
144,385	-9,942	253,369	118,908
145,400	-9,949	253,176	118,800
146,414	-9,936	252,921	118,681
147,429	-9,935	252,734	118,583
148,443	-9,793	252,498	118,583
149,458	-10,084	252,538	118,343
150,473	-10,049	252,209	118,208
151,487	-10,128	252,025	118,044
152,502	-10,048	251,948	118,066
153,516	-10,074	251,704	117,919
154,531	-9,944	251,580	117,961
155,546	-10,111	251,404	117,726
156,560	-10,101	251,164	117,611
157,575	-10,145	251,011	117,492
158,589	-9,973	250,769	117,514
159,604	-9,938	250,526	117,419
160,619	-10,077	250,484	117,271
161,633	-10,108	250,318	117,157
162,648	-9,987	250,084	117,139
163,662	-10,049	250,010	117,041
164,677	-9,746	249,874	117,223
165,692	-9,892	249,519	116,923
166,706	-9,926	249,429	116,842
167,721	-9,900	249,400	116,840
168,735	-10,183	249,202	116,499
169,750	-9,914	249,084	116,660
170,764	-9,689	248,802	116,705
171,779	-9,730	248,667	116,597
172,794	-9,903	248,457	116,343
173,808	-10,053	248,364	116,164
174,823	-10,327	247,990	115,750
175,837	-10,580	247,832	115,454
176,852	-10,139	247,755	115,776
177,867	-10,056	247,838	115,874
178,881	-9,997	247,559	115,783
179,896	-9,959	247,234	115,652
180,910	-9,997	247,272	115,628
181,925	-10,066	246,843	115,360
182,940	-10,061	246,719	115,295
183,954	-10,000	246,628	115,293
184,969	-9,776	246,364	115,346
185,983	-9,971	246,417	115,199
186,998	-9,650	245,966	115,242
188,013	-9,846	245,863	115,022
189,027	-10,012	245,811	114,850
190,042	-9,973	245,623	114,784
191,056	-9,998	245,482	114,688
192,071	-9,921	245,171	114,596
193,086	-10,046	245,109	114,453
194,100	-10,007	245,015	114,431
195,115	-9,963	244,708	114,314
196,129	-9,832	244,499	114,314
197,144	-9,985	244,369	114,117
198,159	-9,901	244,133	114,066
199,173	-9,829	243,934	114,022
200,188	-9,875	243,616	113,825
201,202	-10,340	243,570	113,412
202,217	-10,496	243,348	113,171
203,232	-10,434	243,170	113,129
204,246	-10,055	243,175	113,431
205,261	-9,416	242,935	113,831
206,275	-10,284	242,785	113,043
207,290	-5,609	244,801	117,816
208,304	1,530	246,971	124,755
209,319	3,794	247,275	126,767
210,334	4,108	247,134	126,943
211,348	4,119	247,036	126,890
212,363	4,174	246,824	126,815
213,377	4,028	246,842	126,693
214,392	4,026	246,799	126,658
215,407	4,285	246,491	126,701
216,421	4,420	246,363	126,735
217,436	4,256	246,195	126,503
218,450	4,425	245,906	126,482
219,465	4,092	245,694	126,088
220,480	3,768	245,515	125,720
221,494	3,963	245,250	125,732
222,509	3,754	245,171	125,511
223,523	4,026	245,102	125,686
224,538	3,749	244,814	125,301
225,553	3,724	244,529	125,123
226,567	3,596	244,428	124,957
227,582	3,669	244,467	125,024
228,596	3,852	244,344	125,099
229,611	3,802	243,992	124,868
230,626	3,563	243,838	124,584
231,640	3,645	243,696	124,567
232,655	3,918	243,459	124,656
233,669	3,685	243,393	124,422
234,684	3,723	243,101	124,292
235,699	3,766	243,103	124,316
236,713	3,693	243,166	124,279
237,728	3,493	242,842	123,940
238,742	3,445	242,658	123,797
239,757	3,554	242,433	123,759
240,772	3,729	242,207	123,774
241,786	3,864	242,115	123,825
242,801	3,572	241,910	123,473
243,815	3,569	241,915	123,462
244,830	3,825	241,656	123,525
245,844	3,925	241,509	123,519
246,859	3,722	241,345	123,262
247,874	3,831	241,268	123,298
248,888	3,908	240,988	123,206
249,903	4,070	240,906	123,283
250,917	3,749	240,844	122,983
251,932	3,924	240,759	123,069
252,947	3,756	240,459	122,771
253,961	3,654	240,308	122,601
254,976	3,679	240,184	122,547
255,990	3,700	239,873	122,394
257,005	3,615	239,771	122,263
258,020	3,550	239,698	122,164
259,034	3,673	239,490	122,144
260,049	3,645	239,348	122,038
261,063	3,616	239,157	121,907
262,078	3,790	238,987	121,948
263,093	3,871	238,873	121,943
264,107	3,733	238,738	121,754
265,122	3,713	238,579	121,646
266,136	3,958	238,499	121,789
267,151	3,837	238,296	121,578
268,166	3,668	238,006	121,285
269,180	3,780	238,011	121,366
270,195	3,789	237,902	121,306
271,209	3,992	237,785	121,397
272,224	3,564	237,674	120,992
273,239	3,533	237,352	120,792
274,253	3,878	237,136	120,944
275,268	3,780	237,116	120,845
276,282	3,780	236,811	120,679
277,297	3,414	236,807	120,378
278,312	3,723	236,558	120,484
279,326	3,559	236,511	120,321
280,341	3,917	236,275	120,470
281,355	3,784	236,124	120,278
282,370	3,833	236,033	120,259
283,384	3,579	235,836	119,950
284,399	3,563	235,727	119,871
285,414	3,504	235,546	119,723
286,428	3,314	235,464	119,522
287,443	3,785	235,155	119,721
288,457	3,835	235,152	119,748
289,472	3,756	235,072	119,635
290,487	3,641	234,728	119,359
291,501	3,458	234,614	119,149
292,516	3,725	234,335	119,204
293,530	3,651	234,144	119,039
294,545	3,820	234,337	119,258
295,560	3,719	234,113	119,054
296,574	3,460	234,014	118,793
297,589	3,876	233,729	118,960
298,603	3,939	233,702	118,984
299,618	3,952	233,519	118,890
300,633	3,959	233,437	118,843
301,647	3,951	233,376	118,796
302,662	4,351	233,121	118,964
303,676	4,290	232,871	118,778
304,691	3,994	232,863	118,535
305,706	3,856	232,575	118,272
306,720	3,861	232,410	118,182
307,735	3,783	232,346	118,079
308,749	3,655	232,247	117,920
309,764	3,594	231,981	117,727
310,779	3,428	231,844	117,519
311,793	3,424	231,581	117,373
312,808	3,322	231,535	117,261
313,822	3,581	231,338	117,349
314,837	3,554	231,371	117,334
315,852	3,740	231,093	117,325
316,866	3,901	230,948	117,364
317,881	3,819	230,825	117,228
318,895	3,840	230,798	117,220
319,910	3,903	230,633	117,174
320,925	3,518	230,356	116,730
321,939	3,501	230,192	116,623
322,954	3,814	230,111	116,810
323,968	3,990	229,963	116,858
324,983	3,776	229,790	116,597
325,997	3,830	229,594	116,529
327,012	3,894	229,469	116,503
328,027	3,726	229,439	116,350
329,041	4,223	229,368	116,680
330,056	4,368	229,302	116,746
331,070	4,234	229,132	116,548
332,085	4,022	228,886	116,252
333,100	3,946	228,677	116,078
334,114	3,991	228,460	115,992
335,129	4,301	228,537	116,254
336,143	3,968	228,321	115,883
337,158	4,065	228,085	115,826
338,173	3,753	228,068	115,572
339,187	3,807	227,843	115,488
340,202	3,771	227,693	115,375
341,216	4,013	227,483	115,440
342,231	3,953	227,261	115,272
343,246	3,927	227,252	115,238
344,260	3,904	227,315	115,242
345,275	4,151	227,090	115,302
346,289	4,227	226,690	115,146
347,304	4,215	226,731	115,148
348,319	4,126	226,504	114,955
349,333	3,681	226,499	114,611
350,348	3,790	226,172	114,516
351,362	3,720	226,052	114,393
352,377	3,842	225,989	114,442
353,392	3,638	225,744	114,156
354,406	3,282	225,462	113,738
355,421	195,443	1322,077	1398,506
356,435	156,639	1455,669	1398,493
