DTS Sentinel unit serial number:	SN410029Multiplexer serial number:	ORYXHardware model number:	OX2-SRSoftware version number:	ORYX F/W v4,00 Oryx Data Collector v3.7.2.0data status	okinstallation	B5 Nyhavnadifferential loss correction	single-endedforward channel	channel 2reverse channel	N/Adate	2023/12/12time	04:27:13forward acquisition time	300,00reverse acquisition time	0,00gamma	499,1914k internal	0,3157k external	0,3157temperature offset calibration	1,0000default loss term (dB/km)	0,3820temperature slope calibration	1,0000multiplexer offset coefficient	1,0000multiplexer slope coefficient	1,0000fibre end	0,00T internal ref (°C)	15,50T ext. ref 1 (°C)	-0,92T ext. ref 2 (°C)	-1,24length (m)	temperature (°C)	Stokes	anti-Stokes-744,400	268,826	0,038	0,049
-743,385	-107,281	-0,321	-0,051
-742,371	614,369	0,060	0,111
-741,356	73,116	-0,285	0,219
-740,342	596,572	0,027	0,050
-739,327	32,435	-0,177	-0,112
-738,312	174,801	0,156	-0,167
-737,298	-64,921	-0,245	-0,073
-736,283	34,585	-0,084	-0,054
-735,269	-117,065	-0,324	0,043
-734,254	103,221	0,111	-0,096
-733,239	-20,238	-0,498	-0,225
-732,225	698,076	0,040	0,078
-731,210	800,000	0,045	0,109
-730,196	800,000	-0,039	0,110
-729,181	800,000	-0,030	-0,063
-728,167	-200,000	0,004	-0,023
-727,152	151,057	-0,053	0,053
-726,137	136,654	-0,057	-0,055
-725,123	-75,035	-0,112	-0,029
-724,108	523,739	0,036	0,062
-723,094	800,000	-0,072	-0,158
-722,079	800,000	0,061	-0,148
-721,064	-200,000	0,000	0,031
-720,050	800,000	0,020	0,050
-719,035	381,319	0,030	0,046
-718,021	-200,000	-0,003	-0,077
-717,006	-19,274	-0,104	-0,047
-715,991	431,390	-0,061	-0,098
-714,977	254,091	0,046	-0,058
-713,962	-200,000	-0,026	-0,158
-712,948	-200,000	-0,001	0,024
-711,933	202,983	-0,088	-0,100
-710,918	132,862	-0,015	-0,015
-709,904	-20,550	0,187	-0,084
-708,889	800,000	0,027	-0,065
-707,875	-76,425	-0,156	-0,040
-706,860	47,582	0,068	0,047
-705,845	-200,000	0,002	-0,133
-704,831	-72,674	-0,084	-0,023
-703,816	42,396	-0,097	0,065
-702,802	-200,000	-0,011	-0,048
-701,787	42,851	-0,176	-0,118
-700,772	-97,691	-0,089	0,017
-699,758	-3,155	0,137	0,070
-698,743	278,571	-0,048	0,063
-697,729	800,000	0,050	0,109
-696,714	321,197	0,099	0,138
-695,699	-200,000	0,025	0,100
-694,685	-64,393	-0,105	-0,031
-693,670	541,438	0,050	-0,088
-692,656	49,674	-0,040	-0,028
-691,641	800,000	0,023	0,069
-690,627	-200,000	0,010	-0,048
-689,612	800,000	0,051	0,147
-688,597	661,097	0,021	-0,041
-687,583	-39,849	-0,200	-0,076
-686,568	485,902	0,075	-0,127
-685,554	-26,831	-0,074	0,031
-684,539	114,101	-0,080	-0,072
-683,524	-146,926	0,048	0,003
-682,510	-63,862	0,049	0,015
-681,495	532,618	-0,050	0,087
-680,481	-145,865	-0,088	0,006
-679,466	-200,000	0,007	-0,077
-678,451	800,000	-0,010	-0,028
-677,437	-200,000	-0,013	0,048
-676,422	215,576	-0,009	-0,010
-675,408	800,000	-0,068	-0,160
-674,393	11,365	-0,073	0,041
-673,378	338,246	-0,049	-0,071
-672,364	285,030	0,071	-0,095
-671,349	-200,000	0,000	-0,017
-670,335	-91,535	-0,126	-0,026
-669,320	147,406	0,075	-0,074
-668,305	217,958	0,134	-0,157
-667,291	-200,000	-0,005	-0,153
-666,276	140,533	-0,047	0,045
-665,262	3,650	-0,063	-0,034
-664,247	-200,000	0,025	-0,120
-663,232	800,000	-0,024	0,050
-662,218	800,000	-0,013	-0,033
-661,203	-200,000	0,035	-0,143
-660,189	-200,000	-0,011	-0,110
-659,174	-113,820	0,120	0,017
-658,159	169,872	-0,081	-0,086
-657,145	85,176	0,058	-0,047
-656,130	-200,000	0,014	0,060
-655,116	-200,000	-0,007	0,095
-654,101	-13,514	0,164	0,078
-653,086	109,760	-0,021	0,019
-652,072	-91,117	-0,112	0,023
-651,057	-28,946	-0,050	-0,021
-650,043	-200,000	0,034	-0,129
-649,028	662,521	-0,067	-0,127
-648,014	-41,248	0,129	0,049
-646,999	66,489	-0,103	0,077
-645,984	464,361	-0,021	0,035
-644,970	-192,122	-0,100	-0,001
-643,955	-80,325	0,015	-0,004
-642,941	-200,000	0,012	-0,039
-641,926	800,000	-0,015	0,042
-640,911	322,210	-0,044	-0,062
-639,897	157,481	-0,025	-0,025
-638,882	422,139	0,044	0,070
-637,868	800,000	-0,043	0,094
-636,853	272,156	-0,044	-0,057
-635,838	800,000	0,014	-0,040
-634,824	287,853	0,044	0,058
-633,809	2,969	0,128	0,068
-632,795	284,935	0,045	0,060
-631,780	471,188	-0,032	0,052
-630,765	344,471	-0,146	0,211
-629,751	-97,369	-0,172	0,033
-628,736	-200,000	-0,012	0,058
-627,722	-32,390	0,070	0,029
-626,707	-163,636	-0,125	-0,004
-625,692	260,962	0,027	-0,035
-624,678	146,723	0,143	0,141
-623,663	244,437	-0,090	-0,112
-622,649	-162,553	-0,099	0,004
-621,634	73,841	-0,059	0,045
-620,619	-200,000	0,007	-0,153
-619,605	337,066	-0,074	0,105
-618,590	-200,000	0,000	-0,064
-617,576	-200,000	-0,003	-0,052
-616,561	-200,000	0,022	-0,174
-615,546	327,346	-0,054	-0,077
-614,532	13,022	-0,045	0,025
-613,517	-200,000	-0,029	-0,117
-612,503	389,997	-0,018	-0,028
-611,488	800,000	-0,043	0,103
-610,474	-9,436	0,096	0,047
-609,459	-200,000	-0,024	0,139
-608,444	-141,489	-0,109	0,008
-607,430	92,702	0,061	-0,050
-606,415	-19,719	0,151	-0,068
-605,401	-29,915	0,120	0,050
-604,386	-31,081	-0,045	0,019
-603,371	-62,381	-0,076	0,023
-602,357	-126,757	0,152	-0,016
-601,342	-200,000	0,015	-0,127
-600,328	-137,980	-0,046	0,004
-599,313	800,000	-0,006	-0,019
-598,298	-76,584	-0,039	-0,010
-597,284	-200,000	-0,005	-0,038
-596,269	9,880	0,055	-0,030
-595,255	-94,771	0,021	-0,004
-594,240	455,353	-0,041	-0,068
-593,225	259,537	0,057	-0,072
-592,211	-2,964	-0,086	-0,044
-591,196	-48,657	-0,103	-0,036
-590,182	800,000	-0,031	0,067
-589,167	34,260	0,017	0,011
-588,152	288,293	0,059	-0,079
-587,138	96,189	-0,108	0,091
-586,123	179,614	-0,135	-0,145
-585,109	800,000	-0,068	-0,146
-584,094	154,586	-0,060	-0,060
-583,079	11,741	-0,037	0,021
-582,065	3,819	0,045	-0,024
-581,050	40,201	0,075	-0,049
-580,036	-200,000	-0,027	0,112
-579,021	553,933	0,039	-0,069
-578,006	-134,039	-0,137	0,012
-576,992	-200,000	-0,005	-0,076
-575,977	800,000	0,072	0,158
-574,963	-1,568	0,118	0,061
-573,948	13,673	-0,017	0,010
-572,934	800,000	0,047	0,099
-571,919	146,654	0,058	0,057
-570,904	25,659	-0,103	-0,063
-569,890	-200,000	-0,005	0,090
-568,875	-200,000	0,014	0,066
-567,861	-15,290	-0,063	-0,029
-566,846	800,000	0,050	-0,113
-565,831	-113,048	-0,036	0,005
-564,817	233,337	-0,029	0,035
-563,802	30,437	0,093	0,058
-562,788	-4,788	0,087	0,044
-561,773	800,000	0,039	-0,097
-560,758	-200,000	-0,004	0,058
-559,744	-200,000	-0,003	-0,131
-558,729	139,236	-0,063	0,061
-557,715	-200,000	-0,004	-0,049
-556,700	-73,705	-0,073	-0,019
-555,685	-5,440	0,056	-0,028
-554,671	24,425	-0,124	-0,075
-553,656	-200,000	0,017	0,086
-552,642	61,673	-0,010	0,007
-551,627	-174,358	-0,127	-0,003
-550,612	-200,000	-0,010	-0,105
-549,598	-39,230	0,101	0,039
-548,583	-200,000	0,025	0,127
-547,569	72,190	-0,061	0,047
-546,554	-200,000	0,007	-0,139
-545,539	-188,833	0,158	0,001
-544,525	800,000	-0,013	-0,033
-543,510	-200,000	-0,005	0,080
-542,496	82,772	-0,058	-0,046
-541,481	800,000	0,049	-0,131
-540,466	-9,043	-0,177	-0,086
-539,452	279,348	-0,081	-0,106
-538,437	-200,000	-0,001	-0,072
-537,423	289,860	-0,045	0,060
-536,408	-97,327	0,062	0,012
-535,393	285,839	-0,069	-0,092
-534,379	-82,607	0,128	0,030
-533,364	171,372	0,050	-0,053
-532,350	452,849	-0,080	-0,130
-531,335	153,822	0,054	-0,054
-530,321	800,000	-0,034	0,091
-529,306	-99,680	-0,006	-0,001
-528,291	-90,018	-0,071	-0,015
-527,277	271,899	-0,055	-0,071
-526,262	59,316	-0,005	-0,003
-525,248	146,019	-0,090	0,088
-524,233	171,256	-0,037	-0,039
-523,218	-55,580	0,050	-0,016
-522,204	-130,049	-0,098	-0,010
-521,189	-6,558	-0,028	0,014
-520,175	-200,000	-0,009	-0,032
-519,160	-200,000	0,086	0,000
-518,145	800,000	-0,042	0,091
-517,131	416,198	0,022	-0,035
-516,116	146,373	0,033	-0,033
-515,102	191,106	0,072	-0,079
-514,087	-80,220	-0,147	0,036
-513,072	46,574	-0,080	0,054
-512,058	-68,831	0,129	-0,036
-511,043	489,291	-0,075	0,126
-510,029	115,377	0,055	0,049
-509,014	-200,000	0,015	0,073
-507,999	800,000	0,034	0,082
-506,985	-176,029	-0,192	0,004
-505,970	-141,895	0,087	-0,006
-504,956	26,810	-0,177	-0,108
-503,941	-200,000	0,010	-0,102
-502,926	-46,399	-0,023	0,008
-501,912	382,291	0,067	-0,100
-500,897	800,000	-0,039	0,080
-499,883	444,697	-0,019	-0,031
-498,868	607,886	0,011	0,021
-497,853	670,648	-0,050	-0,094
-496,839	800,000	0,016	-0,038
-495,824	-98,676	0,113	0,021
-494,810	-200,000	0,009	-0,074
-493,795	-174,906	-0,152	0,003
-492,781	-200,000	-0,014	-0,080
-491,766	52,589	0,068	0,047
-490,751	72,949	0,081	0,062
-489,737	-145,148	-0,041	-0,003
-488,722	76,387	-0,054	0,042
-487,708	503,630	0,048	0,081
-486,693	-99,685	0,064	0,012
-485,678	106,675	0,071	0,061
-484,664	287,020	-0,097	0,129
-483,649	205,635	-0,056	0,064
-482,635	88,088	0,061	-0,050
-481,620	-200,000	-0,006	0,085
-480,605	122,323	0,113	0,103
-479,591	259,563	-0,091	0,115
-478,576	172,838	0,026	-0,027
-477,562	171,223	-0,122	-0,127
-476,547	21,993	-0,064	-0,038
-475,532	82,160	-0,028	-0,022
-474,518	-84,651	-0,060	-0,014
-473,503	30,969	0,150	-0,094
-472,489	-58,162	-0,061	0,019
-471,474	-59,806	0,032	0,010
-470,459	-59,282	0,013	-0,004
-469,445	170,282	0,102	-0,106
-468,430	419,086	0,057	-0,089
-467,416	800,000	0,023	0,056
-466,401	-111,683	0,124	0,018
-465,386	-128,855	-0,043	0,004
-464,372	-7,582	-0,070	0,035
-463,357	-200,000	0,004	-0,021
-462,343	-200,000	0,001	-0,042
-461,328	-155,018	-0,034	-0,002
-460,313	277,922	-0,037	-0,048
-459,299	-200,000	-0,010	0,172
-458,284	175,202	0,073	0,077
-457,270	800,000	0,008	-0,017
-456,255	394,501	-0,097	-0,147
-455,241	-6,699	-0,090	0,045
-454,226	54,605	0,144	-0,101
-453,211	800,000	-0,051	0,133
-452,197	-200,000	-0,002	0,193
-451,182	-200,000	-0,006	-0,024
-450,168	9,197	0,013	0,007
-449,153	800,000	0,009	0,025
-448,138	-122,726	0,047	-0,005
-447,124	-200,000	-0,007	-0,092
-446,109	-200,000	0,016	0,125
-445,095	-127,968	-0,059	-0,006
-444,080	-200,000	0,021	0,170
-443,065	13,820	-0,098	0,055
-442,051	99,972	0,044	0,038
-441,036	292,848	-0,090	0,120
-440,022	250,291	0,049	-0,061
-439,007	-199,604	-0,068	0,000
-437,992	668,673	-0,055	0,104
-436,978	-87,780	0,151	0,033
-435,963	-200,000	-0,023	-0,088
-434,949	132,727	-0,057	0,054
-433,934	792,046	0,023	-0,046
-432,919	-72,902	-0,189	0,050
-431,905	473,961	0,043	-0,070
-430,890	800,000	0,035	0,092
-429,876	-146,728	0,136	-0,008
-428,861	161,929	-0,051	-0,052
-427,846	-200,000	-0,008	-0,031
-426,832	-37,566	0,072	-0,028
-425,817	800,000	0,017	0,049
-424,803	442,845	-0,056	0,089
-423,788	-200,000	-0,003	-0,051
-422,773	110,264	0,072	0,063
-421,759	-200,000	-0,006	0,230
-420,744	-21,737	0,068	-0,030
-419,730	5,631	0,097	-0,052
-418,715	88,927	0,088	-0,071
-417,701	31,604	0,024	0,015
-416,686	59,744	-0,066	-0,047
-415,671	156,808	0,089	-0,090
-414,657	-200,000	0,002	-0,016
-413,642	-200,000	-0,003	0,039
-412,628	800,000	-0,047	-0,119
-411,613	34,890	-0,039	-0,025
-410,598	97,399	0,094	-0,078
-409,584	221,550	0,057	0,067
-408,569	353,582	-0,070	0,101
-407,555	95,961	0,160	0,133
-406,540	-45,135	0,137	0,049
-405,525	800,000	-0,015	-0,039
-404,511	351,358	-0,010	-0,015
-403,496	800,000	-0,016	0,049
-402,482	800,000	0,048	-0,123
-401,467	-123,876	-0,045	-0,005
-400,452	49,506	0,044	0,030
-399,438	-84,006	0,120	-0,028
-398,423	-63,568	0,049	-0,015
-397,409	-162,863	0,136	0,005
-396,394	800,000	0,061	0,155
-395,379	-200,000	0,001	0,098
-394,365	800,000	0,043	0,114
-393,350	47,060	-0,074	0,050
-392,336	90,602	0,029	-0,024
-391,321	451,510	0,087	0,141
-390,306	-200,000	-0,039	-0,134
-389,292	800,000	-0,008	-0,018
-388,277	-200,000	-0,002	0,041
-387,263	-200,000	-0,007	0,039
-386,248	-200,000	0,015	-0,090
-385,233	46,084	-0,049	0,033
-384,219	343,478	-0,033	0,047
-383,204	60,126	-0,065	0,047
-382,190	152,126	0,030	0,030
-381,175	66,030	-0,050	-0,037
-380,160	-200,000	0,000	-0,014
-379,146	800,000	-0,030	0,064
-378,131	-106,508	-0,150	0,024
-377,117	98,066	0,093	0,077
-376,102	-40,720	-0,102	0,038
-375,088	680,437	-0,055	-0,105
-374,073	12,559	-0,166	-0,093
-373,058	105,031	-0,041	-0,035
-372,044	-125,178	0,146	0,016
-371,029	101,309	0,061	0,052
-370,015	-200,000	-0,014	0,068
-369,000	-200,000	0,002	0,037
-367,985	258,125	0,016	-0,020
-366,971	-200,000	0,017	-0,124
-365,956	-140,103	0,152	0,011
-364,942	-119,527	-0,071	0,009
-363,927	-200,000	0,033	0,129
-362,912	-50,735	-0,079	-0,027
-361,898	-200,000	-0,012	-0,094
-360,883	-179,605	-0,159	0,002
-359,869	-57,620	-0,020	-0,006
-358,854	-200,000	-0,008	-0,031
-357,839	-63,960	0,024	0,007
-356,825	-22,492	-0,029	-0,013
-355,810	-49,966	0,041	0,014
-354,796	-200,000	0,016	-0,158
-353,781	306,353	-0,060	-0,081
-352,766	68,851	0,032	-0,024
-351,752	-38,514	0,103	-0,039
-350,737	60,469	-0,098	0,070
-349,723	-113,188	0,038	0,005
-348,708	-200,000	-0,026	0,182
-347,693	35,551	-0,147	0,093
-346,679	-116,964	0,087	-0,011
-345,664	-200,000	-0,004	-0,022
-344,650	358,692	0,106	-0,154
-343,635	-47,196	0,239	0,084
-342,620	-13,814	-0,138	0,065
-341,606	-200,000	0,016	0,105
-340,591	99,864	0,042	-0,035
-339,577	54,389	-0,034	-0,024
-338,562	59,076	-0,041	0,029
-337,548	256,131	0,032	0,040
-336,533	800,000	0,011	0,028
-335,518	159,741	0,065	0,066
-334,504	264,480	0,061	-0,077
-333,489	-112,769	-0,087	-0,012
-332,475	-200,000	0,009	-0,028
-331,460	355,544	0,041	-0,060
-330,445	-200,000	-0,002	-0,059
-329,431	800,000	0,013	-0,028
-328,416	-200,000	0,011	0,097
-327,402	-140,349	-0,115	0,009
-326,387	-71,303	-0,084	-0,023
-325,372	122,411	0,067	-0,061
-324,358	62,059	-0,063	-0,046
-323,343	218,687	0,049	-0,057
-322,329	-87,379	-0,120	-0,026
-321,314	290,086	-0,019	0,025
-320,299	-101,888	0,055	0,010
-319,285	-200,000	0,003	0,015
-318,270	12,387	0,028	0,016
-317,256	46,805	0,097	-0,065
-316,241	800,000	0,024	-0,074
-315,226	-52,150	-0,034	0,011
-314,212	-33,798	-0,039	-0,015
-313,197	-105,809	0,127	-0,021
-312,183	-114,871	0,106	-0,015
-311,168	800,000	-0,064	-0,164
-310,153	-137,150	0,109	-0,009
-309,139	273,755	0,094	0,120
-308,124	-195,619	0,162	0,001
-307,110	50,968	0,080	0,055
-306,095	-200,000	-0,006	0,064
-305,080	-119,999	-0,111	-0,014
-304,066	-61,869	0,074	0,022
-303,051	-141,060	-0,112	-0,008
-302,037	800,000	0,090	-0,182
-301,022	-181,777	-0,082	0,001
-300,008	262,899	-0,048	-0,061
-298,993	-159,373	-0,075	-0,003
-297,978	34,714	0,097	0,061
-296,964	-88,841	0,088	0,019
-295,949	800,000	-0,085	-0,237
-294,935	373,130	0,050	0,073
-293,920	-86,546	0,036	0,008
-292,905	362,074	-0,047	0,069
-291,891	-37,828	0,043	0,017
-290,876	-200,000	0,033	0,233
-289,862	-110,439	0,120	0,018
-288,847	-5,552	-0,093	0,046
-287,832	226,576	-0,041	-0,049
-286,818	-145,932	0,087	-0,005
-285,803	-200,000	-0,003	0,075
-284,789	65,712	0,116	0,085
-283,774	800,000	-0,026	0,070
-282,759	-54,686	-0,096	0,031
-281,745	321,992	-0,160	-0,221
-280,730	800,000	-0,031	0,074
-279,716	-200,000	-0,002	0,101
-278,701	800,000	-0,045	-0,109
-277,686	-33,389	0,177	0,070
-276,672	-38,438	-0,123	0,047
-275,657	800,000	-0,040	-0,126
-274,643	-200,000	-0,008	-0,045
-273,628	-101,256	-0,107	-0,019
-272,613	44,535	-0,077	-0,051
-271,599	-200,000	0,004	-0,076
-270,584	-200,000	0,011	-0,060
-269,570	81,236	-0,063	0,049
-268,555	69,827	0,055	0,041
-267,540	-200,000	-0,010	-0,086
-266,526	-3,738	0,106	-0,053
-265,511	-200,000	-0,021	0,086
-264,497	167,809	0,143	0,147
-263,482	120,864	-0,076	0,069
-262,467	131,908	-0,047	-0,044
-261,453	800,000	0,040	-0,087
-260,438	278,247	0,112	-0,145
-259,424	552,884	0,053	-0,093
-258,409	470,355	-0,068	-0,111
-257,395	-11,761	-0,017	-0,008
-256,380	-26,191	0,130	0,055
-255,365	-146,764	0,068	0,004
-254,351	-200,000	-0,006	-0,020
-253,336	-200,000	0,020	0,098
-252,322	-103,301	0,033	0,006
-251,307	209,083	-0,033	-0,037
-250,292	-116,437	0,150	0,020
-249,278	112,160	0,073	0,064
-248,263	68,140	0,026	-0,020
-247,249	800,000	0,062	0,128
-246,234	-132,823	-0,141	-0,013
-245,219	-200,000	-0,009	-0,117
-244,205	332,496	-0,065	0,092
-243,190	-5,499	0,083	0,041
-242,176	218,994	0,170	0,197
-241,161	218,334	-0,087	0,100
-240,146	171,727	0,057	0,060
-239,132	-200,000	0,015	-0,109
-238,117	165,208	-0,155	-0,159
-237,103	-39,439	0,091	-0,034
-236,088	1,656	0,120	0,062
-235,073	-82,205	0,078	0,018
-234,059	107,387	-0,071	-0,061
-233,044	393,200	-0,029	-0,044
-232,030	-143,400	-0,053	0,004
-231,015	46,927	-0,079	-0,053
-230,000	-33,610	-0,112	-0,044
-228,986	-200,000	0,009	0,085
-227,971	-24,947	0,112	-0,048
-226,957	-132,884	0,048	-0,004
-225,942	219,744	0,103	-0,119
-224,927	333,443	0,040	0,056
-223,913	36,158	-0,084	-0,053
-222,898	204,227	-0,014	-0,016
-221,884	800,000	-0,069	0,162
-220,869	-61,238	0,134	0,041
-219,855	-200,000	-0,023	0,111
-218,840	35,222	0,070	0,044
-217,825	-22,143	-0,063	0,028
-216,811	-200,000	-0,009	0,114
-215,796	800,000	-0,003	-0,009
-214,782	317,699	-0,079	-0,108
-213,767	72,514	0,084	-0,064
-212,752	86,673	0,102	0,082
-211,738	39,072	0,036	0,023
-210,723	55,211	-0,124	-0,086
-209,709	269,101	-0,071	0,090
-208,694	800,000	-0,020	-0,049
-207,679	800,000	-0,029	-0,063
-206,665	107,194	-0,017	0,015
-205,650	153,249	-0,048	-0,048
-204,636	489,771	-0,032	0,053
-203,621	-200,000	0,039	-0,145
-202,606	-159,180	-0,150	-0,006
-201,592	800,000	0,055	-0,141
-200,577	-200,000	-0,032	-0,174
-199,563	-200,000	0,008	0,046
-198,548	692,764	0,074	0,141
-197,533	-200,000	-0,009	-0,113
-196,519	800,000	-0,011	0,035
-195,504	-83,878	0,093	-0,021
-194,490	-113,838	-0,060	0,008
-193,475	343,279	-0,038	-0,054
-192,460	-139,018	0,062	-0,005
-191,446	140,798	0,018	-0,017
-190,431	-200,000	0,003	-0,055
-189,417	216,526	-0,042	0,048
-188,402	241,775	0,066	-0,080
-187,387	188,357	-0,019	-0,020
-186,373	124,214	-0,051	0,046
-185,358	-146,210	-0,114	-0,007
-184,344	-95,067	0,067	0,013
-183,329	-115,301	0,076	0,010
-182,315	303,689	-0,048	-0,064
-181,300	286,356	0,076	0,099
-180,285	-200,000	-0,005	-0,087
-179,271	-116,845	0,034	-0,005
-178,256	435,725	-0,096	-0,151
-177,242	50,302	0,139	-0,095
-176,227	259,780	0,119	0,148
-175,212	800,000	-0,037	-0,093
-174,198	-121,717	-0,051	-0,006
-173,183	-104,238	0,074	0,012
-172,169	60,300	0,087	-0,062
-171,154	-200,000	-0,016	-0,273
-170,139	800,000	-0,072	0,197
-169,125	-66,211	0,140	-0,040
-168,110	800,000	0,027	0,084
-167,096	3,513	-0,040	-0,021
-166,081	-200,000	-0,008	-0,070
-165,066	-55,916	0,057	0,018
-164,052	-33,409	-0,101	-0,040
-163,037	-200,000	-0,043	0,147
-162,023	-200,000	0,047	0,162
-161,008	302,128	0,022	-0,030
-159,993	-41,539	-0,081	0,030
-158,979	1,993	-0,069	0,036
-157,964	-200,000	-0,011	0,083
-156,950	164,692	-0,061	-0,062
-155,935	-84,055	-0,038	0,009
-154,920	-92,415	0,089	0,018
-153,906	287,947	-0,052	-0,068
-152,891	380,500	-0,082	0,122
-151,877	800,000	-0,026	-0,055
-150,862	60,435	0,096	-0,069
-149,847	-200,000	-0,025	-0,119
-148,833	800,000	0,056	-0,153
-147,818	439,957	0,035	-0,056
-146,804	-54,483	0,122	-0,040
-145,789	332,586	-0,052	0,073
-144,775	-200,000	0,013	0,130
-143,760	91,522	-0,041	-0,033
-142,745	800,000	0,018	0,048
-141,731	63,745	-0,045	0,032
-140,716	-200,000	-0,013	-0,073
-139,702	-17,594	0,074	0,033
-138,687	427,903	-0,024	-0,038
-137,672	241,234	-0,031	-0,037
-136,658	548,308	0,042	-0,072
-135,643	84,477	-0,022	0,017
-134,629	191,364	-0,041	0,045
-133,614	96,902	0,089	-0,074
-132,599	-90,272	-0,046	-0,010
-131,585	800,000	-0,057	-0,122
-130,570	299,007	0,041	0,054
-129,556	6,855	-0,122	-0,065
-128,541	-67,594	0,044	-0,012
-127,526	196,909	-0,075	0,082
-126,512	23,781	-0,067	0,040
-125,497	800,000	-0,030	0,072
-124,483	175,075	-0,074	-0,078
-123,468	-66,740	-0,080	0,023
-122,453	394,763	0,048	-0,072
-121,439	83,249	-0,092	0,072
-120,424	19,084	0,066	-0,038
-119,410	471,526	0,078	0,126
-118,395	-200,000	0,009	0,117
-117,380	-117,978	-0,105	-0,013
-116,366	-153,045	0,119	-0,006
-115,351	800,000	-0,006	-0,019
-114,337	-56,941	-0,081	0,026
-113,322	703,191	0,049	-0,094
-112,307	-49,732	0,015	-0,005
-111,293	800,000	-0,034	0,070
-110,278	-71,215	-0,075	0,020
-109,264	-77,352	0,102	0,025
-108,249	158,296	-0,083	-0,082
-107,234	-200,000	0,009	-0,144
-106,220	-200,000	-0,016	-0,073
-105,205	61,975	0,099	-0,071
-104,191	-52,899	-0,014	-0,005
-103,176	267,226	0,038	0,047
-102,162	137,420	-0,125	-0,118
-101,147	278,221	0,008	0,010
-100,132	104,230	-0,033	0,028
-99,118	285,229	-0,086	-0,112
-98,103	-200,000	-0,012	-0,037
-97,089	771,172	0,037	0,073
-96,074	800,000	0,016	0,047
-95,059	211,305	-0,014	-0,016
-94,045	729,416	0,058	-0,112
-93,030	-9,821	-0,039	-0,018
-92,016	-114,152	-0,136	0,019
-91,001	-12,875	-0,107	-0,050
-89,986	800,000	-0,038	0,089
-88,972	393,285	-0,045	0,067
-87,957	319,640	-0,010	0,013
-86,943	-111,224	-0,116	0,017
-85,928	-13,253	0,109	-0,051
-84,913	74,939	0,070	0,053
-83,899	-40,412	0,053	0,020
-82,884	-8,160	0,078	0,037
-81,870	130,252	-0,029	0,027
-80,855	-200,000	-0,010	0,039
-79,840	-200,000	0,011	-0,099
-78,826	333,843	-0,059	-0,082
-77,811	74,323	-0,076	-0,057
-76,797	-55,494	-0,061	0,019
-75,782	344,741	0,060	-0,085
-74,767	315,039	0,076	0,103
-73,753	-68,069	-0,100	0,028
-72,738	249,132	0,066	-0,081
-71,724	-6,384	0,059	-0,029
-70,709	-79,560	-0,041	-0,010
-69,694	29,014	0,076	0,046
-68,680	-200,000	0,007	0,050
-67,665	45,279	0,023	-0,015
-66,651	800,000	0,035	0,078
-65,636	-97,410	-0,060	-0,011
-64,622	343,404	0,042	-0,059
-63,607	71,957	-0,022	0,017
-62,592	-106,469	-0,120	0,019
-61,578	-200,000	-0,030	-0,102
-60,563	74,189	0,103	0,078
-59,549	4,468	-0,170	-0,089
-58,534	-10,035	-1,938	-0,922
-57,519	-200,000	-0,241	-0,850
-56,505	-200,000	-1,261	-5,001
-55,490	58,944	0,717	0,505
-54,476	800,000	5,380	12,204
-53,461	-200,000	17,367	282,242
-52,446	800,000	726,136	2213,588
-51,432	535,779	1642,499	2808,430
-50,417	110,210	1633,271	1407,625
-49,403	75,232	1286,403	972,772
-48,388	32,174	1027,780	634,976
-47,373	20,204	989,593	571,905
-46,359	18,583	977,783	559,740
-45,344	15,816	973,666	548,303
-44,330	16,091	972,267	548,396
-43,315	15,619	970,396	545,776
-42,300	15,494	969,294	544,727
-41,286	15,526	968,347	544,276
-40,271	15,489	967,209	543,493
-39,257	15,547	966,331	543,170
-38,242	15,537	965,497	542,645
-37,227	15,537	964,686	542,167
-36,213	15,594	963,773	541,820
-35,198	15,468	963,074	540,995
-34,184	15,570	962,309	540,873
-33,169	15,454	961,424	539,981
-32,154	15,609	960,359	539,862
-31,140	15,556	959,549	539,215
-30,125	15,521	958,874	538,700
-29,111	15,594	957,938	538,388
-28,096	15,595	957,381	538,059
-27,082	15,545	956,693	537,488
-26,067	15,518	955,955	536,966
-25,052	15,516	955,111	536,463
-24,038	15,513	954,368	536,015
-23,023	15,516	953,739	535,651
-22,009	15,606	953,142	535,581
-20,994	15,562	952,562	535,095
-19,979	15,573	951,777	534,667
-18,965	15,531	951,140	534,152
-17,950	15,593	950,682	534,075
-16,936	15,441	950,231	533,313
-15,921	15,466	949,216	532,802
-14,906	15,421	948,656	532,324
-13,892	15,422	948,009	531,942
-12,877	15,433	947,468	531,654
-11,863	15,339	946,751	530,928
-10,848	15,380	946,297	530,785
-9,833	15,512	945,743	530,872
-8,819	15,426	945,064	530,196
-7,804	15,495	944,413	530,031
-6,790	15,381	944,100	529,471
-5,775	15,495	943,277	529,349
-4,760	15,492	942,489	528,877
-3,746	15,426	942,162	528,464
-2,731	15,322	941,415	527,695
-1,717	15,219	940,791	526,998
-0,702	15,289	940,012	526,762
0,313	15,030	939,434	526,415
1,327	18,294	937,029	535,306
2,342	27,273	794,318	477,569
3,356	23,992	459,058	270,958
4,371	-3,137	314,305	156,691
5,386	-7,132	296,036	143,529
6,400	-9,319	290,044	138,441
7,415	-9,809	287,721	136,837
8,429	-9,812	286,107	136,054
9,444	-9,924	285,160	135,483
10,459	-9,901	284,549	135,203
11,473	-9,876	283,955	134,933
12,488	-9,802	283,308	134,685
13,502	-9,781	282,842	134,472
14,517	-9,590	282,472	134,468
15,531	-9,650	281,977	134,163
16,546	-9,629	281,681	134,030
17,561	-9,860	281,267	133,600
18,575	-9,635	281,101	133,724
19,590	-9,717	280,688	133,438
20,604	-9,695	280,429	133,323
21,619	-9,703	279,820	133,015
22,634	-9,661	279,597	132,938
23,648	-9,805	279,477	132,730
24,663	-9,712	279,041	132,601
25,677	-9,835	278,790	132,352
26,692	-9,689	278,596	132,387
27,707	-9,660	278,346	132,284
28,721	-9,922	278,086	131,899
29,736	-9,884	277,658	131,721
30,750	-9,716	277,391	131,742
31,765	-9,985	277,329	131,446
32,780	-9,743	276,963	131,490
33,794	-9,764	276,787	131,374
34,809	-9,613	276,384	131,314
35,823	-9,811	276,299	131,075
36,838	-9,738	275,959	130,971
37,853	-9,882	275,787	130,741
38,867	-9,858	275,548	130,640
39,882	-9,935	275,288	130,432
40,896	-9,949	275,061	130,300
41,911	-9,888	274,716	130,182
42,926	-9,867	274,447	130,063
43,940	-9,955	274,249	129,875
44,955	-9,860	274,034	129,851
45,969	-9,811	273,678	129,716
46,984	-10,034	273,564	129,442
47,999	-10,308	273,351	129,074
49,013	-10,247	272,886	128,900
50,028	-10,493	272,871	128,653
51,042	-10,502	272,529	128,472
52,057	-10,533	272,315	128,331
53,071	-10,478	272,070	128,255
54,086	-10,291	271,820	128,299
55,101	-10,174	271,588	128,285
56,115	-9,997	271,553	128,422
57,130	-9,774	271,440	128,563
58,144	-9,723	271,167	128,470
59,159	-9,687	270,840	128,336
60,174	-9,685	270,746	128,282
61,188	-9,782	270,670	128,146
62,203	-9,777	270,363	127,993
63,217	-9,575	270,021	128,006
64,232	-9,794	269,904	127,738
65,247	-9,519	269,557	127,814
66,261	-9,723	269,371	127,527
67,276	-9,762	269,092	127,349
68,290	-10,013	268,853	126,994
69,305	-10,244	268,706	126,702
70,320	-9,970	268,512	126,850
71,334	-9,865	268,398	126,880
72,349	-9,640	267,925	126,851
73,363	-9,789	267,941	126,711
74,378	-9,719	267,517	126,563
75,393	-9,643	267,511	126,618
76,407	-9,605	267,142	126,466
77,422	-9,748	267,026	126,271
78,436	-9,706	266,886	126,231
79,451	-9,588	266,522	126,155
80,466	-9,726	266,303	125,915
81,480	-9,712	266,023	125,784
82,495	-9,837	265,835	125,572
83,509	-9,918	265,761	125,451
84,524	-9,890	265,476	125,331
85,539	-9,951	265,230	125,149
86,553	-10,073	265,083	124,958
87,568	-9,753	264,770	125,088
88,582	-9,863	264,646	124,919
89,597	-9,607	264,291	124,970
90,611	-9,600	264,218	124,931
91,626	-9,595	264,083	124,860
92,641	-9,719	264,019	124,708
93,655	-9,690	263,736	124,589
94,670	-9,896	263,520	124,291
95,684	-9,827	263,127	124,156
96,699	-9,613	262,971	124,263
97,714	-9,836	262,897	124,018
98,728	-9,898	262,708	123,862
99,743	-10,033	262,316	123,547
100,757	-9,945	262,322	123,616
101,772	-9,909	261,933	123,454
102,787	-9,828	261,871	123,486
103,801	-10,134	261,906	123,219
104,816	-9,819	261,629	123,358
105,830	-9,695	261,392	123,345
106,845	-9,731	261,136	123,182
107,860	-9,715	260,905	123,076
108,874	-9,642	260,633	123,001
109,889	-9,943	260,612	122,714
110,903	-9,602	260,266	122,841
111,918	-9,807	260,206	122,621
112,933	-9,800	260,054	122,544
113,947	-9,741	259,741	122,438
114,962	-9,704	259,498	122,345
115,976	-9,563	259,388	122,406
116,991	-9,748	259,087	122,090
118,006	-9,724	258,949	122,036
119,020	-9,754	259,058	122,051
120,035	-9,642	258,679	121,959
121,049	-9,464	258,463	122,002
122,064	-9,699	258,407	121,758
123,079	-9,712	258,178	121,628
124,093	-9,765	257,961	121,469
125,108	-9,759	257,579	121,284
126,122	-9,971	257,333	120,972
127,137	-10,119	257,246	120,792
128,151	-10,145	257,084	120,682
129,166	-10,035	256,898	120,680
130,181	-10,011	256,592	120,546
131,195	-9,975	256,482	120,516
132,210	-9,830	256,356	120,571
133,224	-9,927	255,961	120,291
134,239	-9,732	255,941	120,439
135,254	-9,686	255,810	120,407
136,268	-9,639	255,478	120,280
137,283	-9,942	255,124	119,842
138,297	-10,102	255,059	119,662
139,312	-10,090	254,795	119,538
140,327	-9,844	254,672	119,682
141,341	-9,874	254,782	119,696
142,356	-9,733	254,511	119,680
143,370	-9,586	254,378	119,733
144,385	-9,534	254,109	119,641
145,400	-9,580	253,960	119,520
146,414	-9,473	253,703	119,480
147,429	-9,601	253,681	119,350
148,443	-9,560	253,261	119,177
149,458	-9,628	253,205	119,082
150,473	-9,608	253,003	118,993
151,487	-9,810	252,822	118,724
152,502	-9,728	252,648	118,702
153,516	-9,466	252,532	118,861
154,531	-9,598	252,293	118,625
155,546	-9,544	252,006	118,526
156,560	-9,397	251,839	118,561
157,575	-9,694	251,732	118,248
158,589	-9,808	251,573	118,066
159,604	-9,531	251,345	118,184
160,619	-9,509	251,164	118,107
161,633	-9,456	251,012	118,070
162,648	-9,501	250,958	117,995
163,662	-9,663	250,745	117,748
164,677	-9,695	250,619	117,651
165,692	-9,693	250,436	117,556
166,706	-9,460	250,259	117,659
167,721	-9,655	250,108	117,414
168,735	-9,479	249,899	117,453
169,750	-9,525	249,770	117,343
170,764	-9,494	249,616	117,286
171,779	-9,550	249,434	117,144
172,794	-9,602	249,352	117,051
173,808	-9,475	248,986	116,976
174,823	-9,940	248,758	116,468
175,837	-10,234	248,576	116,126
176,852	-9,841	248,550	116,432
177,867	-9,553	248,349	116,569
178,881	-9,670	248,298	116,437
179,896	-9,389	248,033	116,537
180,910	-9,548	247,716	116,245
181,925	-9,493	247,631	116,240
182,940	-9,578	247,583	116,137
183,954	-9,579	247,531	116,101
184,969	-9,584	247,191	115,927
185,983	-9,443	246,930	115,912
186,998	-9,411	246,830	115,881
188,013	-9,485	246,728	115,761
189,027	-9,698	246,650	115,537
190,042	-9,629	246,378	115,457
191,056	-9,664	246,110	115,292
192,071	-9,524	245,919	115,308
193,086	-9,621	245,789	115,157
194,100	-9,330	245,648	115,321
195,115	-9,482	245,495	115,113
196,129	-9,329	245,315	115,145
197,144	-9,570	244,909	114,745
198,159	-9,606	244,798	114,654
199,173	-9,693	244,662	114,508
200,188	-9,495	244,642	114,651
201,202	-9,776	244,201	114,204
202,217	-10,129	244,016	113,817
203,232	-10,227	243,765	113,610
204,246	-9,739	243,875	114,051
205,261	-9,444	243,637	114,171
206,275	-10,158	243,206	113,376
207,290	-7,162	244,391	116,379
208,304	-0,627	246,549	122,801
209,319	3,110	247,665	126,440
210,334	3,635	247,657	126,858
211,348	3,846	247,597	126,991
212,363	4,129	247,412	127,118
213,377	4,003	247,390	126,991
214,392	4,048	247,094	126,865
215,407	4,007	246,915	126,729
216,421	3,878	246,835	126,570
217,436	4,234	246,585	126,723
218,450	4,078	246,591	126,586
219,465	3,713	246,316	126,134
220,480	3,864	246,069	126,120
221,494	3,626	245,859	125,806
222,509	3,869	245,701	125,913
223,523	3,648	245,590	125,664
224,538	3,455	245,207	125,299
225,553	3,664	245,066	125,387
226,567	3,499	244,951	125,182
227,582	3,655	244,916	125,280
228,596	3,560	244,797	125,131
229,611	3,472	244,463	124,877
230,626	3,209	244,270	124,554
231,640	3,302	244,178	124,571
232,655	3,558	244,124	124,740
233,669	3,514	244,014	124,638
234,684	3,303	243,614	124,251
235,699	3,602	243,635	124,493
236,713	3,862	243,620	124,685
237,728	3,527	243,264	124,221
238,742	3,428	242,915	123,951
239,757	3,355	242,755	123,799
240,772	3,407	242,709	123,807
241,786	3,615	242,609	123,913
242,801	3,161	242,425	123,442
243,815	3,150	242,248	123,332
244,830	3,658	242,190	123,700
245,844	3,782	242,055	123,720
246,859	3,659	241,766	123,462
247,874	3,395	241,603	123,157
248,888	3,654	241,458	123,279
249,903	3,587	241,271	123,119
250,917	3,630	241,335	123,175
251,932	3,811	241,065	123,172
252,947	3,589	241,082	122,991
253,961	3,544	240,739	122,770
254,976	3,631	240,675	122,795
255,990	3,640	240,496	122,701
257,005	3,567	240,183	122,472
258,020	3,218	240,095	122,137
259,034	3,391	239,908	122,169
260,049	3,505	239,771	122,180
261,063	3,460	239,485	121,987
262,078	3,437	239,442	121,936
263,093	3,565	239,406	122,008
264,107	3,782	239,191	122,060
265,122	3,600	239,015	121,815
266,136	3,427	238,794	121,555
267,151	3,675	238,859	121,774
268,166	3,459	238,474	121,395
269,180	3,396	238,416	121,305
270,195	3,911	238,433	121,710
271,209	4,185	238,360	121,879
272,224	3,673	237,946	121,252
273,239	3,239	237,623	120,734
274,253	3,247	237,528	120,682
275,268	3,560	237,429	120,867
276,282	3,624	237,378	120,880
277,297	3,461	237,026	120,563
278,312	3,363	237,067	120,496
279,326	3,588	236,870	120,562
280,341	3,541	236,734	120,445
281,355	3,648	236,625	120,463
282,370	3,729	236,555	120,480
283,384	3,428	236,286	120,096
284,399	3,514	236,056	120,036
285,414	3,271	235,996	119,805
286,428	3,346	235,787	119,746
287,443	3,326	235,770	119,712
288,457	3,677	235,558	119,867
289,472	3,621	235,403	119,734
290,487	3,539	235,340	119,627
291,501	3,420	234,987	119,344
292,516	3,283	234,817	119,141
293,530	3,155	234,726	118,985
294,545	3,384	234,660	119,119
295,560	3,628	234,537	119,235
296,574	3,340	234,163	118,811
297,589	3,446	234,077	118,838
298,603	3,484	234,064	118,851
299,618	3,761	233,940	118,992
300,633	3,894	233,739	118,983
301,647	3,681	233,607	118,740
302,662	4,061	233,749	119,095
303,676	4,040	233,480	118,932
304,691	3,831	233,357	118,697
305,706	4,118	233,102	118,778
306,720	4,057	232,962	118,649
307,735	3,991	232,897	118,555
308,749	3,821	232,529	118,225
309,764	3,669	232,442	118,054
310,779	3,408	232,209	117,724
311,793	3,371	232,057	117,608
312,808	3,503	231,808	117,573
313,822	3,239	231,761	117,336
314,837	3,533	231,519	117,429
315,852	3,398	231,464	117,287
316,866	3,444	231,604	117,382
317,881	3,838	231,333	117,536
318,895	3,859	231,079	117,413
319,910	4,000	231,085	117,513
320,925	3,636	230,729	117,043
321,939	3,388	230,574	116,766
322,954	3,802	230,507	117,037
323,968	3,537	230,276	116,708
324,983	3,219	230,106	116,369
325,997	3,510	229,991	116,522
327,012	3,866	229,930	116,750
328,027	3,599	229,866	116,505
329,041	3,785	229,868	116,637
330,056	4,178	229,694	116,836
331,070	3,849	229,474	116,464
332,085	3,943	229,105	116,338
333,100	3,846	229,199	116,302
334,114	3,815	229,004	116,170
335,129	4,010	228,854	116,230
336,143	3,967	228,736	116,127
337,158	3,852	228,530	115,926
338,173	3,816	228,390	115,817
339,187	3,707	228,388	115,724
340,202	3,766	228,271	115,699
341,216	3,681	227,923	115,448
342,231	3,763	227,749	115,411
343,246	3,729	227,613	115,307
344,260	3,813	227,512	115,309
345,275	4,025	227,487	115,444
346,289	4,002	227,527	115,436
347,304	3,869	227,296	115,210
348,319	3,971	227,077	115,164
349,333	3,841	226,877	114,956
350,348	3,738	226,599	114,728
351,362	3,931	226,506	114,815
352,377	3,781	226,289	114,582
353,392	3,687	226,117	114,415
354,406	3,549	226,015	114,250
355,421	195,457	1321,269	1398,114
356,435	156,672	1454,710	1398,115
