DTS Sentinel unit serial number:	SN410029Multiplexer serial number:	ORYXHardware model number:	OX2-SRSoftware version number:	ORYX F/W v4,00 Oryx Data Collector v3.7.2.0data status	okinstallation	B5 Nyhavnadifferential loss correction	single-endedforward channel	channel 2reverse channel	N/Adate	2023/12/14time	15:42:13forward acquisition time	300,00reverse acquisition time	0,00gamma	499,1914k internal	0,3157k external	0,3157temperature offset calibration	1,0000default loss term (dB/km)	0,3820temperature slope calibration	1,0000multiplexer offset coefficient	1,0000multiplexer slope coefficient	1,0000fibre end	0,00T internal ref (°C)	7,87T ext. ref 1 (°C)	-8,12T ext. ref 2 (°C)	-8,14length (m)	temperature (°C)	Stokes	anti-Stokes-744,400	511,561	-0,048	0,083
-743,385	-5,271	-0,247	0,125
-742,371	-151,676	0,163	-0,009
-741,356	-90,062	-0,318	0,068
-740,342	-200,000	0,072	0,258
-739,327	-187,955	-0,481	-0,004
-738,312	63,990	0,062	0,046
-737,298	16,722	-0,269	-0,156
-736,283	391,624	0,113	0,174
-735,269	-168,964	-0,338	0,009
-734,254	-82,439	0,221	0,052
-733,239	39,500	-0,464	-0,306
-732,225	-11,168	0,165	0,080
-731,210	-200,000	0,029	0,187
-730,196	-22,700	-0,045	0,020
-729,181	-44,069	-0,123	0,045
-728,167	691,092	-0,015	-0,029
-727,152	18,945	-0,127	0,075
-726,137	7,408	-0,108	-0,059
-725,123	126,127	-0,006	0,005
-724,108	77,187	-0,086	-0,067
-723,094	-200,000	0,013	-0,110
-722,079	136,351	-0,040	-0,039
-721,064	545,702	0,019	0,033
-720,050	28,527	0,120	0,074
-719,035	-101,757	-0,059	-0,010
-718,021	800,000	-0,016	-0,051
-717,006	-93,464	-0,132	0,027
-715,991	-38,291	-0,098	-0,038
-714,977	-14,217	-0,088	0,042
-713,962	-200,000	0,013	0,065
-712,948	800,000	-0,044	-0,135
-711,933	800,000	0,056	-0,125
-710,918	43,618	0,038	0,026
-709,904	-74,055	-0,188	-0,050
-708,889	800,000	0,067	-0,139
-707,875	580,423	-0,042	-0,076
-706,860	-200,000	-0,006	0,054
-705,845	-200,000	-0,033	-0,115
-704,831	-200,000	0,009	-0,046
-703,816	108,597	-0,092	0,081
-702,802	395,325	-0,111	-0,171
-701,787	362,353	-0,080	-0,118
-700,772	36,543	-0,088	0,057
-699,758	-200,000	-0,004	0,054
-698,743	800,000	-0,050	-0,114
-697,729	178,652	0,118	0,127
-696,714	360,747	0,034	0,050
-695,699	-200,000	0,002	-0,028
-694,685	-63,662	-0,083	-0,025
-693,670	344,574	0,030	0,044
-692,656	-6,173	-0,130	0,065
-691,641	800,000	0,020	0,048
-690,627	-200,000	0,007	-0,168
-689,612	-128,428	0,061	0,006
-688,597	93,556	-0,056	0,047
-687,583	326,652	-0,069	0,098
-686,568	800,000	-0,045	-0,126
-685,554	-24,975	-0,059	-0,026
-684,539	-134,951	0,149	-0,013
-683,524	-6,930	0,069	0,034
-682,510	2,968	-0,025	0,013
-681,495	139,999	0,105	-0,102
-680,481	222,479	-0,133	-0,158
-679,466	-200,000	-0,004	-0,081
-678,451	-200,000	0,027	-0,104
-677,437	800,000	0,035	-0,108
-676,422	-200,000	-0,014	-0,052
-675,408	-81,582	-0,117	0,028
-674,393	24,418	-0,045	0,027
-673,378	405,212	0,063	0,098
-672,364	519,724	-0,010	0,017
-671,349	-200,000	0,008	-0,121
-670,335	10,234	0,037	0,021
-669,320	-62,242	-0,087	-0,026
-668,305	24,590	0,055	-0,034
-667,291	642,822	-0,077	-0,144
-666,276	338,065	-0,056	-0,081
-665,262	-16,812	-0,089	0,041
-664,247	18,669	-0,140	0,082
-663,232	-40,192	0,056	-0,021
-662,218	-200,000	0,020	0,112
-661,203	-141,548	0,124	0,009
-660,189	-75,671	0,053	0,014
-659,174	-200,000	0,007	-0,090
-658,159	-200,000	0,002	0,055
-657,145	-135,319	-0,201	0,017
-656,130	80,690	0,081	-0,064
-655,116	-11,131	-0,103	0,050
-654,101	-33,964	0,113	-0,045
-653,086	98,978	-0,058	-0,049
-652,072	161,354	0,177	-0,182
-651,057	-25,159	-0,074	-0,032
-650,043	90,231	-0,083	-0,068
-649,028	-200,000	-0,003	0,069
-648,014	-200,000	0,010	-0,033
-646,999	-200,000	0,030	-0,191
-645,984	-98,289	-0,060	0,011
-644,970	94,903	-0,103	0,086
-643,955	-33,285	-0,034	-0,014
-642,941	-200,000	-0,010	-0,105
-641,926	-200,000	-0,029	-0,129
-640,911	800,000	-0,042	0,098
-639,897	-131,970	-0,074	-0,007
-638,882	83,806	0,096	-0,077
-637,868	122,573	-0,028	0,026
-636,853	-9,020	-0,093	-0,046
-635,838	35,498	0,120	-0,077
-634,824	-200,000	0,012	-0,104
-633,809	460,135	-0,022	0,036
-632,795	439,426	0,044	-0,071
-631,780	-200,000	0,000	-0,019
-630,765	-200,000	-0,060	0,232
-629,751	-61,716	-0,124	-0,038
-628,736	19,652	-0,077	-0,045
-627,722	193,594	-0,037	0,041
-626,707	508,678	-0,045	-0,078
-625,692	198,268	0,083	-0,093
-624,678	61,687	-0,032	0,023
-623,663	-123,232	0,108	0,012
-622,649	228,836	0,019	0,023
-621,634	-40,425	-0,052	0,020
-620,619	123,293	0,097	-0,089
-619,605	-139,591	0,061	-0,005
-618,590	-200,000	0,007	0,088
-617,576	161,383	-0,134	0,137
-616,561	672,972	0,046	-0,088
-615,546	-200,000	0,012	-0,101
-614,532	-74,916	-0,167	0,044
-613,517	-74,409	-0,123	-0,032
-612,503	335,940	-0,036	0,052
-611,488	-73,951	0,197	-0,052
-610,474	-200,000	0,028	0,129
-609,459	-49,275	0,065	0,023
-608,444	-134,446	-0,145	-0,013
-607,430	51,255	-0,063	-0,044
-606,415	482,895	0,072	0,121
-605,401	125,598	-0,056	0,052
-604,386	-200,000	0,013	-0,051
-603,371	0,145	-0,084	0,044
-602,357	-137,703	0,015	0,001
-601,342	-200,000	-0,031	0,123
-600,328	800,000	-0,023	0,072
-599,313	-147,935	-0,139	-0,008
-598,298	132,275	0,021	0,020
-597,284	335,238	0,036	-0,051
-596,269	125,030	0,115	-0,106
-595,255	-60,262	-0,105	0,033
-594,240	-200,000	-0,003	0,028
-593,225	-31,647	0,078	-0,032
-592,211	-15,949	-0,078	0,036
-591,196	-200,000	-0,021	0,085
-590,182	-53,576	0,117	-0,039
-589,167	73,278	-0,041	0,031
-588,152	-200,000	-0,003	-0,132
-587,138	-200,000	0,003	-0,081
-586,123	800,000	0,003	-0,010
-585,109	-200,000	0,006	-0,055
-584,094	-200,000	-0,009	-0,061
-583,079	298,513	0,052	0,070
-582,065	502,757	0,030	-0,051
-581,050	387,102	-0,057	0,086
-580,036	-165,856	-0,157	-0,005
-579,021	169,991	0,033	0,034
-578,006	-139,543	-0,175	-0,013
-576,992	430,393	-0,026	0,041
-575,977	46,331	0,037	-0,025
-574,963	74,482	0,040	-0,031
-573,948	145,084	0,033	-0,033
-572,934	-24,802	-0,036	0,016
-571,919	92,162	-0,095	0,078
-570,904	-47,343	-0,066	0,023
-569,890	800,000	-0,007	0,017
-568,875	39,501	-0,047	-0,031
-567,861	-200,000	-0,004	0,036
-566,846	-200,000	0,006	0,045
-565,831	244,801	0,101	0,125
-564,817	800,000	-0,017	-0,042
-563,802	-86,510	0,114	0,026
-562,788	-200,000	0,071	0,000
-561,773	203,001	-0,070	-0,080
-560,758	259,610	0,040	0,050
-559,744	800,000	-0,034	0,105
-558,729	334,463	-0,012	0,018
-557,715	306,977	0,063	-0,086
-556,700	602,161	-0,037	-0,067
-555,685	-200,000	0,010	-0,132
-554,671	444,420	-0,081	0,130
-553,656	589,545	-0,057	0,104
-552,642	-85,113	-0,157	0,036
-551,627	-104,061	0,095	-0,016
-550,612	-200,000	-0,011	-0,174
-549,598	477,788	0,030	-0,050
-548,583	-19,930	-0,062	-0,028
-547,569	540,055	-0,028	0,049
-546,554	-44,089	0,178	-0,065
-545,539	194,434	-0,030	0,034
-544,525	109,822	0,106	-0,093
-543,510	-200,000	0,012	-0,085
-542,496	17,919	-0,079	-0,046
-541,481	-1,050	-0,118	-0,061
-540,466	180,664	0,065	-0,070
-539,452	425,801	0,066	0,104
-538,437	-177,516	-0,097	0,002
-537,423	11,410	-0,113	0,063
-536,408	657,296	-0,045	-0,086
-535,393	-200,000	0,010	0,053
-534,379	-200,000	0,001	0,089
-533,364	294,085	0,055	0,074
-532,350	191,964	-0,005	-0,006
-531,335	-55,936	-0,139	-0,045
-530,321	671,552	0,044	0,083
-529,306	-9,431	-0,114	0,055
-528,291	-27,104	0,144	0,061
-527,277	90,976	-0,075	0,062
-526,262	306,246	0,063	-0,086
-525,248	239,180	0,101	-0,123
-524,233	9,464	0,065	-0,036
-523,218	230,888	-0,119	-0,143
-522,204	560,483	-0,088	0,156
-521,189	800,000	0,027	0,080
-520,175	219,701	-0,076	-0,089
-519,160	288,120	0,074	0,098
-518,145	569,091	-0,017	-0,030
-517,131	-200,000	0,013	0,178
-516,116	800,000	0,037	0,081
-515,102	-200,000	-0,014	-0,128
-514,087	-99,687	-0,050	-0,009
-513,072	58,916	-0,187	-0,134
-512,058	-200,000	-0,006	-0,039
-511,043	-200,000	0,007	0,061
-510,029	628,240	0,025	0,047
-509,014	-188,518	0,112	0,001
-507,999	173,181	0,065	0,069
-506,985	-33,974	-0,106	0,043
-505,970	-200,000	0,005	-0,064
-504,956	-97,370	-0,115	0,022
-503,941	-200,000	-0,008	-0,068
-502,926	-49,388	0,125	-0,043
-501,912	-36,309	-0,068	-0,027
-500,897	233,321	0,089	0,107
-499,883	-200,000	-0,004	-0,061
-498,868	176,549	0,050	-0,053
-497,853	-51,021	0,068	0,023
-496,839	129,115	0,038	-0,036
-495,824	-94,039	0,183	0,036
-494,810	456,913	0,043	-0,070
-493,795	-14,689	-0,068	-0,032
-492,781	86,499	0,021	0,017
-491,766	-100,592	-0,048	-0,009
-490,751	800,000	0,059	-0,179
-489,737	456,426	0,038	-0,061
-488,722	-125,981	0,115	-0,013
-487,708	800,000	0,039	0,092
-486,693	92,703	0,071	-0,059
-485,678	800,000	0,075	0,177
-484,664	466,631	0,058	-0,095
-483,649	-200,000	0,001	-0,072
-482,635	62,026	0,081	-0,059
-481,620	353,620	-0,014	0,020
-480,605	22,664	0,141	-0,084
-479,591	-88,386	0,079	-0,017
-478,576	224,891	-0,108	0,128
-477,562	-47,336	-0,087	-0,031
-476,547	356,404	0,072	-0,105
-475,532	663,042	0,010	0,019
-474,518	-81,242	-0,048	0,011
-473,503	21,363	0,078	-0,046
-472,489	-200,000	0,050	0,173
-471,474	800,000	0,022	0,066
-470,459	800,000	0,020	0,054
-469,445	800,000	0,025	-0,067
-468,430	-200,000	-0,025	0,080
-467,416	153,767	0,153	-0,153
-466,401	95,032	-0,094	-0,078
-465,386	-31,359	0,083	-0,034
-464,372	-200,000	0,022	0,093
-463,357	127,366	-0,131	-0,121
-462,343	-200,000	0,032	-0,139
-461,328	-4,194	0,080	-0,040
-460,313	172,459	0,069	-0,072
-459,299	-200,000	-0,015	0,067
-458,284	237,302	0,053	0,065
-457,270	-200,000	0,004	0,087
-456,255	-135,941	-0,152	-0,013
-455,241	91,251	-0,068	-0,056
-454,226	-172,322	-0,056	-0,001
-453,211	-24,902	-0,085	-0,037
-452,197	186,269	0,107	0,116
-451,182	262,620	-0,079	0,100
-450,168	231,555	0,060	0,072
-449,153	-200,000	0,022	0,000
-448,138	594,317	0,069	-0,124
-447,124	559,523	0,013	-0,023
-446,109	311,276	0,041	0,056
-445,095	89,845	0,065	-0,053
-444,080	-72,344	-0,068	-0,018
-443,065	-200,000	0,001	0,008
-442,051	-6,112	-0,051	-0,025
-441,036	671,582	0,017	-0,033
-440,022	-92,399	0,120	0,024
-439,007	712,553	-0,078	-0,150
-437,992	800,000	0,040	0,115
-436,978	-200,000	-0,001	-0,012
-435,963	-99,699	0,054	-0,010
-434,949	-200,000	-0,017	0,167
-433,934	-200,000	0,006	0,064
-432,919	-109,218	-0,083	-0,013
-431,905	800,000	0,074	-0,161
-430,890	-161,892	0,070	-0,003
-429,876	230,339	0,042	0,050
-428,861	67,169	0,079	0,058
-427,846	195,245	-0,037	-0,041
-426,832	-126,630	-0,061	0,007
-425,817	800,000	0,054	-0,125
-424,803	97,133	-0,054	-0,045
-423,788	-200,000	-0,009	0,106
-422,773	-200,000	-0,002	0,014
-421,759	173,477	0,065	-0,068
-420,744	709,981	-0,046	0,089
-419,730	63,986	-0,184	-0,134
-418,715	-35,627	0,020	0,008
-417,701	146,630	-0,098	-0,096
-416,686	-59,997	0,099	-0,031
-415,671	-200,000	0,008	0,089
-414,657	51,442	0,034	0,023
-413,642	-55,701	-0,091	0,029
-412,628	34,611	-0,023	0,015
-411,613	128,172	-0,044	0,041
-410,598	-152,460	-0,102	0,005
-409,584	177,370	0,018	-0,019
-408,569	580,114	0,043	0,077
-407,555	-77,667	0,166	0,042
-406,540	89,254	-0,154	-0,125
-405,525	44,194	-0,135	-0,090
-404,511	56,963	0,111	0,079
-403,496	-200,000	-0,013	-0,043
-402,482	119,138	0,063	-0,057
-401,467	-200,000	0,009	0,057
-400,452	158,955	0,044	0,044
-399,438	179,625	-0,111	-0,119
-398,423	-200,000	-0,004	0,052
-397,409	140,255	-0,077	-0,074
-396,394	280,521	0,024	-0,031
-395,379	800,000	0,063	-0,174
-394,365	294,015	0,062	-0,082
-393,350	365,632	0,074	0,109
-392,336	-66,946	-0,142	0,040
-391,321	-97,684	0,096	0,018
-390,306	-200,000	0,013	0,085
-389,292	-200,000	-0,036	-0,134
-388,277	65,258	0,120	0,088
-387,263	-200,000	0,027	0,100
-386,248	-200,000	0,001	0,029
-385,233	800,000	0,081	0,178
-384,219	-33,272	-0,048	-0,019
-383,204	369,103	0,020	0,030
-382,190	-200,000	0,045	-0,162
-381,175	277,259	-0,024	-0,032
-380,160	-200,000	0,001	-0,144
-379,146	-36,822	0,051	0,020
-378,131	-200,000	0,019	0,140
-377,117	113,233	0,011	-0,010
-376,102	37,740	-0,108	0,070
-375,088	452,156	0,044	0,070
-374,073	249,797	0,039	-0,048
-373,058	402,175	0,058	0,089
-372,044	21,517	0,054	-0,032
-371,029	788,486	-0,054	-0,108
-370,015	-200,000	-0,011	0,054
-369,000	-178,924	0,082	0,001
-367,985	10,499	-0,084	-0,046
-366,971	30,611	0,061	0,038
-365,956	779,165	0,031	0,062
-364,942	370,300	0,037	0,055
-363,927	-142,292	-0,260	-0,018
-362,912	-45,011	-0,006	0,002
-361,898	800,000	0,040	-0,126
-360,883	800,000	-0,023	-0,049
-359,869	129,031	0,085	0,078
-358,854	-200,000	0,032	0,146
-357,839	126,129	-0,026	-0,024
-356,825	338,918	-0,080	0,113
-355,810	800,000	-0,023	-0,061
-354,796	-200,000	-0,011	0,134
-353,781	-69,289	0,034	-0,010
-352,766	800,000	-0,067	-0,135
-351,752	8,289	0,068	-0,037
-350,737	-91,133	-0,076	0,016
-349,723	-200,000	-0,010	0,043
-348,708	175,197	0,070	0,074
-347,693	110,831	-0,047	0,041
-346,679	-119,566	0,081	-0,010
-345,664	-115,781	0,130	-0,017
-344,650	-64,447	-0,062	0,018
-343,635	-200,000	-0,001	0,016
-342,620	-200,000	-0,004	0,083
-341,606	-200,000	0,028	0,112
-340,591	800,000	-0,021	0,065
-339,577	-93,642	-0,054	-0,011
-338,562	150,647	0,098	-0,097
-337,548	91,355	-0,080	-0,065
-336,533	-31,577	0,143	-0,058
-335,518	204,305	0,093	-0,104
-334,504	-21,460	0,117	0,052
-333,489	-200,000	0,011	0,098
-332,475	800,000	-0,032	-0,096
-331,460	413,805	0,028	-0,043
-330,445	800,000	-0,026	0,059
-329,431	-200,000	0,026	0,161
-328,416	-200,000	0,004	-0,151
-327,402	-86,256	0,134	0,030
-326,387	-66,330	-0,122	-0,035
-325,372	800,000	-0,027	-0,059
-324,358	-156,291	0,075	0,003
-323,343	63,114	0,059	-0,043
-322,329	-31,261	0,092	0,037
-321,314	-200,000	-0,008	-0,071
-320,299	-100,165	0,078	0,014
-319,285	292,317	0,104	-0,137
-318,270	-111,016	-0,078	-0,011
-317,256	800,000	-0,008	-0,019
-316,241	323,563	0,060	-0,083
-315,226	474,993	0,102	-0,167
-314,212	-103,992	0,132	0,022
-313,197	-200,000	-0,022	-0,081
-312,183	-104,341	-0,079	-0,013
-311,168	800,000	0,019	-0,043
-310,153	54,837	0,041	-0,029
-309,139	641,410	-0,030	0,056
-308,124	329,341	-0,038	-0,054
-307,110	800,000	-0,041	0,110
-306,095	-200,000	-0,018	0,062
-305,080	59,419	-0,053	0,038
-304,066	-13,623	0,121	0,056
-303,051	-38,283	0,103	0,039
-302,037	86,976	-0,077	-0,062
-301,022	605,177	-0,029	0,053
-300,008	192,958	-0,036	0,039
-298,993	-200,000	-0,011	0,097
-297,978	-200,000	-0,031	0,138
-296,964	730,846	-0,026	-0,050
-295,949	-170,165	-0,040	0,001
-294,935	566,009	0,019	0,034
-293,920	95,669	-0,036	-0,030
-292,905	-59,158	0,127	-0,039
-291,891	800,000	0,044	0,119
-290,876	122,565	-0,148	0,134
-289,862	86,188	0,051	-0,041
-288,847	800,000	0,017	0,045
-287,832	-16,266	0,101	-0,046
-286,818	-200,000	0,016	-0,104
-285,803	800,000	0,021	-0,056
-284,789	-6,724	0,082	0,040
-283,774	3,370	-0,076	0,040
-282,759	442,292	0,071	-0,114
-281,745	34,830	0,057	0,036
-280,730	226,474	-0,092	0,108
-279,716	568,736	0,016	0,027
-278,701	-200,000	0,016	0,096
-277,686	89,145	0,121	0,097
-276,672	93,423	-0,045	0,037
-275,657	-200,000	0,003	0,027
-274,643	48,211	-0,067	0,045
-273,628	591,561	-0,045	-0,081
-272,613	417,655	0,016	-0,024
-271,599	40,615	0,093	-0,061
-270,584	-42,159	0,040	0,015
-269,570	255,669	0,039	0,049
-268,555	-200,000	0,006	0,048
-267,540	-146,348	0,045	-0,003
-266,526	-129,315	-0,010	0,001
-265,511	-200,000	0,010	-0,123
-264,497	-28,507	-0,081	-0,034
-263,482	-54,236	-0,085	0,028
-262,467	800,000	0,045	0,092
-261,453	382,594	-0,034	-0,051
-260,438	70,604	0,051	-0,038
-259,424	-36,565	-0,079	-0,031
-258,409	206,967	-0,069	-0,077
-257,395	-200,000	0,017	0,097
-256,380	235,725	-0,071	0,085
-255,365	122,396	0,111	0,101
-254,351	433,734	-0,075	-0,118
-253,336	-200,000	0,044	-0,159
-252,322	-200,000	0,002	0,049
-251,307	-17,207	-0,073	0,033
-250,292	-200,000	0,017	0,092
-249,278	516,518	-0,040	0,068
-248,263	-183,258	0,108	-0,001
-247,249	89,008	-0,076	-0,062
-246,234	92,683	-0,180	-0,147
-245,219	800,000	-0,037	-0,111
-244,205	-200,000	-0,013	-0,063
-243,190	800,000	-0,028	-0,058
-242,176	57,440	0,095	0,067
-241,161	-66,020	0,087	0,025
-240,146	-200,000	0,005	-0,032
-239,132	-200,000	0,001	-0,100
-238,117	208,273	-0,081	-0,092
-237,103	800,000	-0,038	0,090
-236,088	180,613	0,050	0,053
-235,073	-81,364	0,025	-0,006
-234,059	-200,000	0,017	-0,069
-233,044	78,034	-0,086	-0,066
-232,030	18,972	0,062	-0,036
-231,015	574,189	-0,040	-0,070
-230,000	-51,379	0,068	0,023
-228,986	185,635	0,071	0,076
-227,971	18,138	0,093	0,053
-226,957	170,432	-0,046	0,047
-225,942	-9,927	0,137	0,066
-224,927	18,949	-0,017	0,010
-223,913	800,000	-0,032	-0,071
-222,898	-200,000	0,004	-0,073
-221,884	-200,000	-0,011	0,139
-220,869	142,078	0,059	0,057
-219,855	800,000	-0,018	-0,043
-218,840	322,174	0,084	0,116
-217,825	-39,311	0,062	-0,023
-216,811	-173,772	-0,102	-0,002
-215,796	800,000	-0,023	0,056
-214,782	800,000	-0,032	0,085
-213,767	224,844	0,029	-0,034
-212,752	-57,197	0,038	0,012
-211,738	789,089	0,048	0,096
-210,723	498,130	-0,051	-0,086
-209,709	-200,000	-0,029	0,185
-208,694	187,255	-0,042	-0,046
-207,679	-49,661	-0,108	0,037
-206,665	800,000	0,034	-0,088
-205,650	800,000	0,053	0,149
-204,636	-200,000	-0,025	0,115
-203,621	401,511	0,035	0,054
-202,606	-20,757	-0,026	-0,012
-201,592	244,922	-0,107	-0,130
-200,577	-200,000	-0,006	-0,026
-199,563	-62,133	-0,056	-0,017
-198,548	-200,000	0,040	0,154
-197,533	-200,000	0,022	0,119
-196,519	800,000	0,074	-0,156
-195,504	396,448	-0,076	0,114
-194,490	800,000	0,012	0,032
-193,475	-61,925	0,011	-0,003
-192,460	-99,234	0,055	-0,010
-191,446	206,022	-0,033	0,037
-190,431	305,093	-0,017	-0,022
-189,417	448,085	-0,085	-0,136
-188,402	120,660	-0,110	-0,099
-187,387	-200,000	-0,048	-0,177
-186,373	216,752	-0,174	-0,200
-185,358	95,103	-0,032	0,027
-184,344	-163,314	-0,048	0,002
-183,329	85,963	0,041	-0,033
-182,315	-200,000	0,007	0,059
-181,300	62,120	0,094	0,068
-180,285	-49,420	-0,022	0,008
-179,271	800,000	0,060	-0,124
-178,256	7,059	0,058	-0,031
-177,242	373,350	-0,062	0,092
-176,227	-0,406	-0,037	0,019
-175,212	201,863	-0,025	0,028
-174,198	54,256	0,039	0,027
-173,183	579,322	-0,067	-0,119
-172,169	47,881	-0,082	-0,055
-171,154	-25,985	0,127	-0,054
-170,139	409,559	-0,033	0,051
-169,125	-200,000	-0,022	-0,156
-168,110	218,463	0,074	0,086
-167,096	-43,509	-0,027	0,010
-166,081	83,231	-0,136	0,107
-165,066	226,929	-0,102	0,120
-164,052	-200,000	0,010	0,139
-163,037	-146,847	0,041	-0,003
-162,023	200,416	-0,107	0,119
-161,008	72,360	0,138	0,104
-159,993	-200,000	-0,030	-0,126
-158,979	-84,484	-0,129	-0,029
-157,964	-135,579	-0,299	-0,025
-156,950	-113,821	0,097	0,013
-155,935	-82,815	0,134	0,031
-154,920	142,705	-0,041	-0,039
-153,906	748,407	-0,054	0,105
-152,891	42,750	-0,088	0,058
-151,877	-105,450	0,062	0,010
-150,862	-200,000	0,037	-0,138
-149,847	-200,000	-0,026	-0,106
-148,833	-73,602	0,207	0,054
-147,818	28,259	0,074	0,045
-146,804	-133,568	-0,099	-0,009
-145,789	-200,000	0,010	-0,085
-144,775	-69,690	-0,140	0,038
-143,760	608,162	0,032	-0,058
-142,745	-138,085	-0,191	-0,015
-141,731	-200,000	0,012	-0,100
-140,716	-84,250	-0,069	0,016
-139,702	30,596	0,062	0,038
-138,687	-95,064	0,061	0,012
-137,672	-200,000	-0,014	0,084
-136,658	800,000	0,023	0,047
-135,643	-94,291	-0,146	0,028
-134,629	247,063	-0,066	0,081
-133,614	-128,849	-0,091	0,009
-132,599	136,286	0,111	-0,104
-131,585	-200,000	-0,014	0,080
-130,570	-161,218	-0,113	-0,004
-129,556	173,209	0,092	-0,095
-128,541	-54,595	-0,042	-0,014
-127,526	757,988	-0,004	-0,008
-126,512	-200,000	0,071	0,298
-125,497	-200,000	0,020	-0,133
-124,483	483,166	-0,017	0,029
-123,468	-89,949	-0,028	0,006
-122,453	-27,686	-0,141	-0,059
-121,439	800,000	0,041	-0,100
-120,424	268,571	-0,045	-0,056
-119,410	568,970	0,108	-0,189
-118,395	-200,000	0,009	-0,041
-117,380	800,000	0,056	-0,121
-116,366	0,937	-0,117	-0,060
-115,351	50,135	-0,094	-0,064
-114,337	274,324	0,062	-0,079
-113,322	800,000	0,047	-0,145
-112,307	-81,949	0,117	0,027
-111,293	-200,000	-0,026	0,104
-110,278	-62,218	0,063	-0,019
-109,264	-0,822	-0,118	0,060
-108,249	5,980	0,080	-0,042
-107,234	-200,000	0,020	-0,109
-106,220	208,701	0,063	-0,070
-105,205	-200,000	0,003	-0,073
-104,191	-103,270	0,112	0,019
-103,176	-200,000	0,004	0,034
-102,162	-116,862	0,011	0,001
-101,147	-61,733	0,030	0,009
-100,132	167,911	0,063	0,064
-99,118	106,086	-0,095	0,081
-98,103	50,387	-0,039	-0,026
-97,089	-200,000	-0,015	0,100
-96,074	800,000	0,026	-0,059
-95,059	366,429	-0,063	0,091
-94,045	800,000	-0,041	-0,108
-93,030	-132,610	0,154	0,014
-92,016	-48,308	0,093	-0,032
-91,001	-107,020	-0,191	0,030
-89,986	-28,805	0,094	0,039
-88,972	-200,000	-0,007	-0,076
-87,957	-200,000	0,005	0,023
-86,943	254,465	0,007	0,008
-85,928	-200,000	0,035	-0,121
-84,913	-200,000	0,005	-0,082
-83,899	-52,368	-0,071	-0,023
-82,884	474,299	0,051	-0,082
-81,870	-200,000	-0,005	0,108
-80,855	737,612	0,014	0,028
-79,840	800,000	-0,033	-0,104
-78,826	-98,495	-0,029	-0,005
-77,811	106,854	-0,050	0,043
-76,797	-88,833	-0,085	0,018
-75,782	670,558	0,049	-0,091
-74,767	-200,000	-0,011	0,062
-73,753	800,000	0,035	0,075
-72,738	49,768	-0,067	0,045
-71,724	538,391	0,013	-0,022
-70,709	14,197	0,158	-0,088
-69,694	43,300	-0,119	0,078
-68,680	74,426	0,141	-0,107
-67,665	-200,000	0,009	0,145
-66,651	-46,630	0,072	-0,025
-65,636	-24,054	-0,165	0,070
-64,622	57,709	-0,025	0,018
-63,607	-127,285	0,073	-0,008
-62,592	800,000	0,023	-0,047
-61,578	-128,404	-0,061	-0,006
-60,563	800,000	0,056	0,129
-59,549	601,024	-0,053	0,096
-58,534	107,345	-2,560	-2,185
-57,519	75,143	0,375	-0,283
-56,505	800,000	-1,768	-5,599
-55,490	591,956	1,210	2,153
-54,476	800,000	5,192	11,162
-53,461	-200,000	22,230	347,295
-52,446	800,000	760,402	2291,125
-51,432	512,088	1645,217	2760,749
-50,417	96,846	1607,915	1321,895
-49,403	64,614	1265,224	914,471
-48,388	22,821	1016,951	596,554
-47,373	19,336	984,547	566,033
-46,359	12,820	971,348	537,123
-45,344	8,551	968,021	521,287
-44,330	9,015	966,330	521,876
-43,315	7,985	964,532	517,521
-42,300	7,910	963,366	516,626
-41,286	7,921	962,248	516,043
-40,271	7,887	961,297	515,402
-39,257	7,883	960,411	514,894
-38,242	7,853	959,624	514,353
-37,227	7,878	958,677	513,907
-36,213	7,885	958,008	513,551
-35,198	7,911	956,854	512,996
-34,184	7,961	956,210	512,792
-33,169	7,880	955,332	512,040
-32,154	7,959	954,450	511,802
-31,140	7,968	953,321	511,205
-30,125	7,978	952,817	510,946
-29,111	7,969	952,036	510,478
-28,096	7,978	951,246	510,063
-27,082	7,940	950,577	509,563
-26,067	7,915	949,964	509,134
-25,052	7,829	949,056	508,349
-24,038	7,853	948,404	508,057
-23,023	7,839	947,883	507,713
-22,009	7,898	947,230	507,533
-20,994	7,888	946,630	507,160
-19,979	7,904	946,091	506,900
-18,965	7,889	945,342	506,434
-17,950	7,853	944,823	506,018
-16,936	7,833	944,147	505,573
-15,921	7,890	943,241	505,249
-14,906	7,792	942,612	504,580
-13,892	7,792	942,045	504,256
-12,877	7,799	941,377	503,900
-11,863	7,800	940,732	503,540
-10,848	7,822	940,295	503,354
-9,833	7,888	939,884	503,323
-8,819	7,928	939,045	502,983
-7,804	7,781	938,529	502,219
-6,790	7,800	937,826	501,882
-5,775	7,869	937,337	501,820
-4,760	7,830	936,730	501,352
-3,746	7,849	936,212	501,116
-2,731	7,683	935,389	500,130
-1,717	7,612	935,092	499,728
-0,702	7,653	934,209	499,364
0,313	7,423	933,741	499,142
1,327	11,010	931,102	508,989
2,342	19,763	779,519	449,055
3,356	14,942	447,962	250,777
4,371	-11,437	312,806	147,039
5,386	-14,965	295,164	135,165
6,400	-16,988	289,041	130,343
7,415	-17,458	286,553	128,748
8,429	-18,319	284,513	126,980
9,444	-18,359	283,626	126,534
10,459	-18,149	283,008	126,451
11,473	-18,294	282,476	126,061
12,488	-18,255	281,983	125,868
13,502	-18,260	281,451	125,614
14,517	-18,223	281,028	125,450
15,531	-18,133	280,535	125,306
16,546	-18,235	280,155	125,026
17,561	-18,231	279,806	124,863
18,575	-18,072	279,317	124,786
19,590	-18,274	279,136	124,501
20,604	-18,028	278,612	124,491
21,619	-18,187	278,292	124,185
22,634	-18,143	278,239	124,193
23,648	-18,247	277,786	123,880
24,663	-18,155	277,518	123,837
25,677	-18,212	277,263	123,658
26,692	-18,135	277,006	123,606
27,707	-18,098	276,805	123,540
28,721	-18,134	276,490	123,354
29,736	-18,341	276,213	123,024
30,750	-18,305	276,079	122,987
31,765	-18,139	275,582	122,911
32,780	-18,144	275,421	122,824
33,794	-18,190	275,159	122,653
34,809	-18,125	274,895	122,586
35,823	-18,087	274,555	122,458
36,838	-18,022	274,457	122,465
37,853	-18,020	274,049	122,274
38,867	-18,155	273,884	122,063
39,882	-18,061	273,553	121,993
40,896	-17,903	273,198	121,970
41,911	-18,203	273,122	121,646
42,926	-17,848	272,770	121,810
43,940	-18,118	272,687	121,510
44,955	-18,008	272,394	121,471
45,969	-18,036	272,099	121,302
46,984	-18,073	272,083	121,250
47,999	-18,079	271,970	121,183
49,013	-17,903	271,579	121,162
50,028	-17,782	271,416	121,191
51,042	-17,877	271,063	120,933
52,057	-18,101	270,914	120,649
53,071	-18,084	270,701	120,560
54,086	-18,025	270,343	120,443
55,101	-18,121	270,317	120,333
56,115	-18,116	270,104	120,232
57,130	-17,975	269,777	120,205
58,144	-18,248	269,437	119,792
59,159	-18,054	269,198	119,853
60,174	-18,309	269,089	119,560
61,188	-18,121	268,832	119,608
62,203	-18,083	268,500	119,484
63,217	-18,118	268,456	119,422
64,232	-18,137	268,143	119,254
65,247	-18,159	267,895	119,113
66,261	-18,234	267,649	118,925
67,276	-17,894	267,202	119,026
68,290	-18,102	267,238	118,841
69,305	-17,808	266,886	118,942
70,320	-18,022	266,708	118,657
71,334	-18,027	266,594	118,591
72,349	-18,228	266,261	118,250
73,363	-18,124	266,029	118,231
74,378	-18,142	265,833	118,117
75,393	-17,952	265,558	118,157
76,407	-17,917	265,270	118,049
77,422	-18,058	265,257	117,906
78,436	-18,011	264,825	117,746
79,451	-18,069	264,676	117,616
80,466	-18,012	264,314	117,496
81,480	-17,913	264,267	117,554
82,495	-17,939	264,058	117,427
83,509	-18,082	263,944	117,237
84,524	-18,014	263,635	117,151
85,539	-17,894	263,507	117,192
86,553	-17,924	263,039	116,945
87,568	-17,964	262,996	116,880
88,582	-18,045	262,841	116,729
89,597	-17,913	262,566	116,714
90,611	-18,010	262,304	116,501
91,626	-18,063	262,223	116,407
92,641	-17,967	261,809	116,298
93,655	-17,907	261,641	116,267
94,670	-18,054	261,470	116,050
95,684	-18,138	261,307	115,892
96,699	-18,130	261,197	115,841
97,714	-17,890	260,947	115,932
98,728	-18,153	260,698	115,578
99,743	-18,066	260,587	115,596
100,757	-17,931	260,249	115,555
101,772	-17,893	260,110	115,516
102,787	-17,937	259,909	115,378
103,801	-18,069	259,801	115,203
104,816	-18,000	259,531	115,134
105,830	-17,966	259,300	115,051
106,845	-17,730	259,098	115,159
107,860	-17,967	258,803	114,809
108,874	-17,927	258,564	114,728
109,889	-17,990	258,424	114,600
110,903	-18,043	258,347	114,509
111,918	-17,891	258,082	114,515
112,933	-17,912	257,847	114,382
113,947	-17,978	257,563	114,189
114,962	-17,832	257,450	114,256
115,976	-17,927	257,178	114,042
116,991	-18,044	257,067	113,880
118,006	-18,084	256,882	113,754
119,020	-18,034	256,758	113,732
120,035	-17,811	256,431	113,771
121,049	-17,893	256,249	113,609
122,064	-18,024	256,134	113,434
123,079	-17,900	255,893	113,425
124,093	-18,009	255,757	113,259
125,108	-17,930	255,582	113,241
126,122	-17,769	255,361	113,272
127,137	-17,807	255,255	113,182
128,151	-17,916	255,135	113,024
129,166	-17,951	254,812	112,841
130,181	-17,927	254,679	112,793
131,195	-17,758	254,312	112,766
132,210	-17,976	254,077	112,464
133,224	-18,043	253,981	112,353
134,239	-17,912	253,808	112,380
135,254	-17,952	253,665	112,272
136,268	-17,798	253,262	112,216
137,283	-17,880	253,120	112,073
138,297	-17,718	252,834	112,074
139,312	-17,948	252,785	111,846
140,327	-18,033	252,634	111,697
141,341	-17,813	252,264	111,711
142,356	-17,819	252,243	111,687
143,370	-17,854	252,031	111,553
144,385	-17,999	251,700	111,273
145,400	-17,996	251,507	111,180
146,414	-17,951	251,504	111,207
147,429	-17,933	251,189	111,074
148,443	-18,037	251,145	110,956
149,458	-17,887	250,900	110,965
150,473	-17,812	250,660	110,913
151,487	-17,976	250,649	110,759
152,502	-17,805	250,175	110,684
153,516	-17,883	250,024	110,542
154,531	-18,004	250,009	110,423
155,546	-17,774	249,643	110,446
156,560	-17,907	249,597	110,303
157,575	-17,905	249,298	110,163
158,589	-18,085	249,280	109,992
159,604	-17,754	248,897	110,093
160,619	-17,825	248,599	109,892
161,633	-17,835	248,651	109,896
162,648	-17,835	248,447	109,796
163,662	-17,977	248,269	109,588
164,677	-17,912	248,196	109,601
165,692	-17,840	247,874	109,509
166,706	-17,979	247,839	109,368
167,721	-17,926	247,602	109,298
168,735	-18,133	247,510	109,074
169,750	-18,036	247,286	109,047
170,764	-17,939	247,122	109,046
171,779	-17,875	246,933	109,006
172,794	-17,929	246,747	108,870
173,808	-18,047	246,735	108,756
174,823	-17,866	246,502	108,795
175,837	-17,754	246,311	108,794
176,852	-17,805	246,102	108,649
177,867	-17,872	245,912	108,500
178,881	-17,984	245,826	108,360
179,896	-17,731	245,671	108,491
180,910	-17,754	245,468	108,373
181,925	-17,703	245,079	108,234
182,940	-17,695	244,939	108,169
183,954	-17,772	244,819	108,042
184,969	-17,772	244,739	107,998
185,983	-17,745	244,480	107,896
186,998	-17,867	244,463	107,778
188,013	-18,026	244,276	107,555
189,027	-17,757	243,943	107,620
190,042	-17,899	243,781	107,423
191,056	-17,738	243,592	107,462
192,071	-17,990	243,479	107,195
193,086	-17,800	243,342	107,281
194,100	-17,905	243,247	107,143
195,115	-17,710	242,877	107,131
196,129	-17,686	242,635	107,035
197,144	-17,816	242,531	106,872
198,159	-17,693	242,303	106,863
199,173	-17,723	242,246	106,804
200,188	-17,816	241,934	106,582
201,202	-17,824	241,988	106,589
202,217	-17,595	241,579	106,586
203,232	-17,554	241,392	106,527
204,246	-17,746	241,263	106,305
205,261	-17,581	241,127	106,370
206,275	-16,213	241,696	107,725
207,290	-11,188	243,350	112,571
208,304	-5,338	245,110	118,194
209,319	-3,067	245,737	120,358
210,334	-2,593	245,710	120,723
211,348	-2,021	245,910	121,282
212,363	-1,306	245,863	121,837
213,377	-0,817	245,792	122,193
214,392	-0,106	246,032	122,886
215,407	0,525	246,067	123,412
216,421	0,419	245,940	123,251
217,436	0,530	245,730	123,226
218,450	0,594	245,458	123,131
219,465	0,550	245,530	123,119
220,480	0,534	245,366	123,013
221,494	0,651	245,129	122,979
222,509	0,280	244,790	122,495
223,523	0,150	244,672	122,318
224,538	0,159	244,614	122,286
225,553	0,052	244,381	122,071
226,567	0,154	244,095	122,000
227,582	0,029	244,115	121,898
228,596	0,050	243,807	121,750
229,611	0,022	243,742	121,684
230,626	0,221	243,467	121,698
231,640	0,177	243,352	121,594
232,655	0,143	243,064	121,412
233,669	-0,007	243,178	121,335
234,684	-0,058	242,945	121,167
235,699	-0,042	242,798	121,096
236,713	0,036	242,682	121,090
237,728	0,073	242,376	120,957
238,742	-0,030	242,334	120,842
239,757	-0,149	242,125	120,631
240,772	0,072	241,804	120,638
241,786	0,142	241,694	120,629
242,801	0,009	241,723	120,526
243,815	0,074	241,501	120,457
244,830	-0,057	241,275	120,228
245,844	-0,094	241,106	120,103
246,859	-0,048	241,031	120,092
247,874	-0,038	240,820	119,984
248,888	-0,030	240,811	119,975
249,903	0,082	240,431	119,865
250,917	-0,014	240,354	119,740
251,932	0,077	240,328	119,788
252,947	0,107	240,035	119,656
253,961	0,193	239,905	119,649
254,976	-0,059	239,836	119,402
255,990	0,178	239,549	119,438
257,005	0,089	239,500	119,332
258,020	-0,079	239,337	119,106
259,034	0,139	239,127	119,164
260,049	0,075	239,031	119,055
261,063	0,083	238,805	118,938
262,078	0,073	238,607	118,821
263,093	-0,089	238,506	118,631
264,107	-0,006	238,366	118,618
265,122	0,130	238,086	118,575
266,136	0,331	238,049	118,706
267,151	0,120	237,898	118,452
268,166	0,006	237,787	118,296
269,180	0,129	237,512	118,246
270,195	0,103	237,527	118,223
271,209	0,191	237,297	118,167
272,224	0,209	237,128	118,087
273,239	0,126	237,005	117,950
274,253	0,125	236,797	117,835
275,268	0,188	236,708	117,830
276,282	0,026	236,507	117,591
277,297	0,090	236,249	117,503
278,312	0,042	236,210	117,435
279,326	0,089	236,124	117,419
280,341	0,063	235,835	117,245
281,355	0,070	235,797	117,221
282,370	0,176	235,624	117,207
283,384	0,359	235,299	117,178
284,399	0,042	235,300	116,920
285,414	0,144	235,156	116,918
286,428	0,158	235,036	116,859
287,443	0,110	234,867	116,727
288,457	0,128	234,743	116,669
289,472	0,248	234,615	116,689
290,487	0,019	234,456	116,421
291,501	0,286	234,243	116,512
292,516	0,241	234,132	116,412
293,530	0,260	234,029	116,365
294,545	0,320	233,823	116,298
295,560	0,115	233,638	116,037
296,574	0,142	233,606	116,032
297,589	0,063	233,507	115,912
298,603	0,237	233,209	115,888
299,618	0,349	232,993	115,857
300,633	0,271	232,997	115,788
301,647	0,364	232,948	115,825
302,662	0,307	232,814	115,704
303,676	0,543	232,486	115,713
304,691	0,353	232,384	115,505
305,706	0,487	232,166	115,490
306,720	0,182	232,065	115,195
307,735	0,266	231,881	115,158
308,749	0,366	231,818	115,193
309,764	0,360	231,710	115,124
310,779	0,412	231,486	115,043
311,793	0,509	231,132	114,930
312,808	0,452	231,114	114,868
313,822	0,438	230,960	114,770
314,837	0,433	231,007	114,779
315,852	0,445	230,681	114,616
316,866	0,436	230,605	114,561
317,881	0,438	230,429	114,465
318,895	0,484	230,353	114,453
319,910	0,426	230,099	114,272
320,925	0,388	230,081	114,224
321,939	0,596	229,799	114,233
322,954	0,706	229,709	114,261
323,968	0,374	229,670	113,979
324,983	0,584	229,391	113,990
325,997	0,579	229,314	113,938
327,012	0,390	229,184	113,719
328,027	0,362	229,009	113,601
329,041	0,513	228,900	113,652
330,056	0,439	228,872	113,571
331,070	0,445	228,578	113,420
332,085	0,323	228,389	113,224
333,100	0,495	228,300	113,299
334,114	0,514	227,971	113,141
335,129	0,579	227,948	113,168
336,143	0,419	227,786	112,956
337,158	0,547	227,530	112,917
338,173	0,494	227,475	112,839
339,187	0,491	227,470	112,824
340,202	0,614	227,253	112,799
341,216	0,602	227,209	112,758
342,231	0,576	226,938	112,594
343,246	0,622	226,873	112,586
344,260	0,540	226,749	112,453
345,275	0,486	226,663	112,359
346,289	0,606	226,392	112,306
347,304	0,517	226,353	112,210
348,319	0,503	225,998	112,013
349,333	0,751	225,969	112,174
350,348	0,596	225,791	111,960
351,362	0,654	225,636	111,916
352,377	0,697	225,608	111,925
353,392	0,666	225,448	111,812
354,406	0,895	225,270	111,884
355,421	191,993	1312,582	1377,727
356,435	153,773	1444,902	1377,562
