DTS Sentinel unit serial number:	SN410029Multiplexer serial number:	ORYXHardware model number:	OX2-SRSoftware version number:	ORYX F/W v4,00 Oryx Data Collector v3.7.2.0data status	okinstallation	B5 Nyhavnadifferential loss correction	single-endedforward channel	channel 2reverse channel	N/Adate	2023/12/14time	04:37:13forward acquisition time	300,00reverse acquisition time	0,00gamma	499,1914k internal	0,3156k external	0,3156temperature offset calibration	1,0000default loss term (dB/km)	0,3820temperature slope calibration	1,0000multiplexer offset coefficient	1,0000multiplexer slope coefficient	1,0000fibre end	0,00T internal ref (°C)	7,82T ext. ref 1 (°C)	-8,60T ext. ref 2 (°C)	-8,64length (m)	temperature (°C)	Stokes	anti-Stokes-744,400	98,505	0,170	0,145
-743,385	-63,304	-0,450	-0,136
-742,371	-64,803	0,223	0,066
-741,356	-175,578	-0,334	-0,007
-740,342	636,720	0,118	0,221
-739,327	-33,351	-0,158	-0,064
-738,312	504,772	0,107	0,184
-737,298	-42,433	-0,458	-0,171
-736,283	-136,442	0,155	0,013
-735,269	6,438	-0,331	-0,181
-734,254	245,145	0,209	0,260
-733,239	50,012	-0,501	-0,348
-732,225	-33,624	0,205	0,083
-731,210	-20,927	0,098	-0,044
-730,196	-48,981	-0,086	-0,030
-729,181	195,873	0,022	-0,025
-728,167	-200,000	-0,012	0,043
-727,152	-200,000	-0,001	0,025
-726,137	-113,307	-0,086	0,012
-725,123	99,148	-0,128	0,109
-724,108	-133,651	-0,083	-0,008
-723,094	-200,000	-0,018	-0,296
-722,079	-200,000	-0,009	-0,061
-721,064	-11,264	-0,056	0,027
-720,050	507,247	-0,100	-0,172
-719,035	-53,619	0,110	-0,037
-718,021	800,000	-0,040	-0,105
-717,006	-146,281	-0,128	-0,008
-715,991	199,197	0,096	-0,108
-714,977	373,966	-0,039	-0,058
-713,962	-67,982	-0,110	-0,031
-712,948	-200,000	-0,013	0,066
-711,933	-150,598	0,085	-0,005
-710,918	-3,915	0,093	-0,047
-709,904	161,906	0,045	-0,047
-708,889	44,328	-0,054	-0,036
-707,875	-108,537	-0,127	0,020
-706,860	-200,000	-0,014	-0,124
-705,845	121,524	-0,153	-0,141
-704,831	-46,876	-0,072	-0,026
-703,816	800,000	-0,031	-0,068
-702,802	499,453	-0,079	-0,135
-701,787	-200,000	-0,018	-0,114
-700,772	-147,816	-0,053	-0,003
-699,758	-157,638	-0,059	0,003
-698,743	-91,792	-0,232	0,048
-697,729	154,030	0,058	-0,059
-696,714	13,642	0,081	-0,046
-695,699	-59,087	-0,070	-0,022
-694,685	224,323	-0,043	-0,051
-693,670	154,227	0,026	-0,026
-692,656	800,000	-0,030	-0,079
-691,641	-97,377	0,091	0,017
-690,627	-29,477	-0,086	-0,036
-689,612	236,681	0,109	0,134
-688,597	533,580	-0,082	0,143
-687,583	87,582	-0,063	0,051
-686,568	424,460	-0,055	-0,087
-685,554	-200,000	-0,010	0,068
-684,539	800,000	-0,083	-0,173
-683,524	-46,536	0,136	0,049
-682,510	512,081	-0,010	0,018
-681,495	-58,843	-0,168	-0,053
-680,481	800,000	0,038	-0,082
-679,466	319,461	-0,050	-0,071
-678,451	147,324	-0,138	-0,137
-677,437	800,000	0,036	-0,106
-676,422	423,447	-0,042	0,067
-675,408	-12,737	-0,104	0,050
-674,393	-200,000	0,020	0,071
-673,378	-132,710	-0,173	-0,016
-672,364	-102,103	-0,107	-0,019
-671,349	-21,906	-0,116	-0,051
-670,335	-128,072	-0,091	0,009
-669,320	-103,998	-0,035	-0,006
-668,305	-200,000	0,009	0,080
-667,291	-113,797	0,078	0,011
-666,276	-12,917	-0,128	0,061
-665,262	263,904	-0,129	-0,166
-664,247	-200,000	0,032	0,189
-663,232	800,000	0,007	-0,015
-662,218	17,533	-0,044	0,025
-661,203	-106,669	0,138	0,022
-660,189	800,000	-0,031	0,071
-659,174	-28,000	-0,105	-0,045
-658,159	-18,540	0,081	0,037
-657,145	-149,804	0,100	-0,006
-656,130	38,664	-0,023	0,015
-655,116	53,963	-0,032	0,022
-654,101	-200,000	0,002	0,025
-653,086	-88,432	-0,122	-0,027
-652,072	-1,666	-0,027	-0,014
-651,057	123,832	-0,046	0,042
-650,043	-5,746	0,097	-0,049
-649,028	626,157	-0,064	0,119
-648,014	800,000	-0,037	0,097
-646,999	-178,453	0,159	-0,003
-645,984	357,408	-0,070	0,103
-644,970	-200,000	0,006	0,027
-643,955	791,436	-0,020	-0,040
-642,941	-97,615	-0,036	-0,007
-641,926	-92,252	-0,238	-0,049
-640,911	18,971	0,159	0,093
-639,897	322,593	-0,036	0,051
-638,882	-34,447	-0,175	0,070
-637,868	-200,000	0,021	-0,087
-636,853	800,000	0,010	0,020
-635,838	-200,000	-0,010	-0,069
-634,824	89,988	-0,111	-0,091
-633,809	-18,663	0,076	0,035
-632,795	-101,993	-0,178	-0,031
-631,780	-200,000	-0,011	0,110
-630,765	-95,030	0,029	0,006
-629,751	38,743	0,059	-0,039
-628,736	245,765	0,021	-0,026
-627,722	33,551	0,079	0,050
-626,707	-105,878	-0,020	-0,003
-625,692	42,135	0,044	0,030
-624,678	800,000	-0,037	0,090
-623,663	-105,850	0,088	-0,014
-622,649	-200,000	-0,005	-0,138
-621,634	-32,974	0,022	-0,009
-620,619	800,000	-0,014	0,031
-619,605	800,000	-0,045	-0,144
-618,590	365,815	0,082	0,122
-617,576	32,073	0,140	0,089
-616,561	-98,017	-0,133	0,025
-615,546	143,772	-0,033	-0,032
-614,532	800,000	0,032	0,092
-613,517	-200,000	-0,001	-0,040
-612,503	183,770	-0,008	-0,009
-611,488	-143,546	0,092	-0,006
-610,474	-96,250	-0,041	0,008
-609,459	486,245	-0,022	0,036
-608,444	-200,000	-0,003	0,032
-607,430	-112,978	-0,080	-0,012
-606,415	-200,000	-0,012	0,075
-605,401	-111,556	-0,048	0,007
-604,386	-200,000	0,014	-0,092
-603,371	-111,454	-0,039	-0,006
-602,357	351,403	-0,028	0,040
-601,342	-200,000	-0,023	-0,106
-600,328	-8,481	-0,086	-0,042
-599,313	-98,852	-0,107	-0,020
-598,298	144,964	-0,130	-0,128
-597,284	-40,745	0,092	0,035
-596,269	116,758	-0,056	0,050
-595,255	-200,000	-0,021	0,099
-594,240	184,341	0,069	-0,075
-593,225	-80,944	-0,186	0,045
-592,211	-149,674	-0,056	0,003
-591,196	-200,000	-0,001	0,037
-590,182	-151,382	0,128	0,007
-589,167	-200,000	-0,017	0,106
-588,152	-200,000	0,015	0,063
-587,138	-33,674	0,073	0,029
-586,123	-104,078	-0,148	-0,025
-585,109	-149,502	0,039	-0,002
-584,094	356,710	0,010	-0,015
-583,079	-200,000	-0,009	0,074
-582,065	-114,724	0,095	0,013
-581,050	-50,099	-0,211	-0,073
-580,036	-200,000	-0,006	-0,076
-579,021	373,113	0,029	-0,043
-578,006	-36,643	0,030	-0,012
-576,992	-85,138	0,038	-0,009
-575,977	-200,000	0,032	-0,103
-574,963	-45,982	-0,055	-0,020
-573,948	124,119	0,013	0,012
-572,934	205,668	0,060	-0,069
-571,919	301,854	-0,146	-0,199
-570,904	-88,597	-0,128	0,028
-569,890	257,328	-0,052	-0,066
-568,875	98,984	-0,016	-0,013
-567,861	-105,623	0,092	0,015
-566,846	393,504	0,059	0,090
-565,831	-59,549	-0,101	0,032
-564,817	-126,380	-0,053	-0,006
-563,802	-200,000	-0,024	-0,204
-562,788	36,242	-0,034	-0,022
-561,773	800,000	-0,009	0,023
-560,758	-200,000	-0,015	0,087
-559,744	-200,000	0,004	-0,016
-558,729	-82,184	0,037	-0,009
-557,715	-18,975	0,041	-0,018
-556,700	-142,013	-0,110	0,008
-555,685	-135,680	-0,125	0,011
-554,671	387,680	0,078	-0,118
-553,656	800,000	0,048	0,139
-552,642	26,863	0,040	0,024
-551,627	-98,061	0,128	0,024
-550,612	800,000	0,032	-0,089
-549,598	5,867	0,066	0,036
-548,583	-28,973	-0,134	-0,056
-547,569	355,332	0,060	0,087
-546,554	67,500	0,053	0,039
-545,539	225,578	-0,047	-0,056
-544,525	644,234	0,023	0,043
-543,510	-65,092	0,080	-0,024
-542,496	800,000	0,017	0,035
-541,481	124,934	-0,152	-0,140
-540,466	-54,839	-0,025	-0,008
-539,452	-200,000	-0,025	0,220
-538,437	-70,149	-0,140	0,039
-537,423	227,850	-0,119	0,142
-536,408	-142,518	0,100	-0,007
-535,393	559,093	0,128	-0,227
-534,379	163,036	-0,044	-0,045
-533,364	102,241	-0,040	-0,034
-532,350	800,000	0,028	-0,075
-531,335	-172,028	0,147	-0,003
-530,321	-150,972	0,033	-0,002
-529,306	-200,000	-0,007	-0,151
-528,291	-72,136	0,158	0,042
-527,277	-200,000	-0,002	0,043
-526,262	23,420	-0,105	-0,063
-525,248	-200,000	-0,003	-0,029
-524,233	800,000	0,072	-0,164
-523,218	-135,129	-0,044	0,004
-522,204	471,511	-0,073	0,120
-521,189	-108,589	-0,122	-0,019
-520,175	800,000	0,018	-0,040
-519,160	-95,572	0,068	-0,013
-518,145	800,000	0,045	-0,106
-517,131	-178,851	0,030	0,000
-516,116	-200,000	0,013	-0,096
-515,102	134,571	-0,081	-0,077
-514,087	-171,494	-0,188	0,004
-513,072	105,832	0,031	-0,027
-512,058	-79,107	-0,126	0,031
-511,043	-200,000	0,000	0,070
-510,029	800,000	0,071	0,150
-509,014	-200,000	0,000	0,050
-507,999	-11,209	-0,059	0,028
-506,985	-200,000	-0,012	0,086
-505,970	-127,871	0,059	0,006
-504,956	-23,848	0,120	0,052
-503,941	174,679	-0,034	-0,036
-502,926	457,827	-0,017	0,027
-501,912	538,170	-0,043	0,075
-500,897	-112,669	0,124	0,018
-499,883	489,493	-0,039	-0,065
-498,868	800,000	0,041	-0,107
-497,853	800,000	-0,021	0,056
-496,839	-147,344	-0,081	-0,005
-495,824	800,000	0,034	0,101
-494,810	39,367	-0,119	0,078
-493,795	330,277	-0,058	0,082
-492,781	432,512	-0,067	-0,106
-491,766	800,000	-0,024	-0,062
-490,751	55,068	0,131	-0,092
-489,737	9,586	-0,005	0,003
-488,722	800,000	-0,017	0,048
-487,708	197,901	0,098	0,110
-486,693	-83,127	0,115	-0,027
-485,678	800,000	-0,030	0,088
-484,664	236,223	-0,004	-0,005
-483,649	-86,026	-0,175	0,039
-482,635	800,000	-0,056	0,113
-481,620	6,330	0,082	-0,044
-480,605	800,000	-0,040	-0,098
-479,591	295,234	-0,051	-0,068
-478,576	470,840	-0,028	0,047
-477,562	-200,000	0,004	0,051
-476,547	800,000	-0,035	0,095
-475,532	-102,814	0,078	-0,013
-474,518	151,604	-0,012	-0,012
-473,503	50,016	0,101	0,069
-472,489	231,298	-0,070	-0,083
-471,474	-56,697	0,145	-0,046
-470,459	-200,000	-0,008	0,050
-469,445	800,000	-0,063	0,144
-468,430	-200,000	-0,026	0,095
-467,416	81,381	0,099	0,078
-466,401	-24,718	0,132	0,057
-465,386	-200,000	0,001	0,016
-464,372	232,931	0,053	-0,064
-463,357	800,000	-0,052	0,125
-462,343	800,000	-0,051	-0,152
-461,328	-11,601	-0,094	0,045
-460,313	-200,000	0,004	-0,039
-459,299	549,535	0,045	0,079
-458,284	-200,000	-0,013	0,108
-457,270	-92,422	0,067	-0,014
-456,255	-116,467	-0,083	-0,011
-455,241	-54,668	0,035	-0,012
-454,226	217,080	-0,018	-0,021
-453,211	-200,000	0,002	-0,077
-452,197	-200,000	0,006	0,089
-451,182	430,631	0,103	0,163
-450,168	-105,171	0,049	-0,008
-449,153	-47,240	-0,084	-0,030
-448,138	-63,103	-0,035	0,011
-447,124	-8,361	0,119	0,058
-446,109	-135,805	-0,071	0,006
-445,095	-200,000	0,007	0,085
-444,080	-25,897	-0,050	-0,021
-443,065	-118,141	-0,084	0,011
-442,051	-200,000	0,000	0,079
-441,036	800,000	0,068	0,160
-440,022	-200,000	0,008	-0,030
-439,007	-200,000	-0,022	0,179
-437,992	236,035	0,015	0,018
-436,978	800,000	0,060	-0,156
-435,963	-200,000	-0,005	-0,120
-434,949	-200,000	0,008	-0,093
-433,934	-200,000	0,010	-0,039
-432,919	-32,141	0,046	0,019
-431,905	-73,226	-0,147	0,039
-430,890	145,658	0,086	0,084
-429,876	328,077	0,057	0,080
-428,861	800,000	-0,045	0,094
-427,846	-200,000	0,017	-0,120
-426,832	800,000	-0,055	-0,139
-425,817	-200,000	-0,003	-0,021
-424,803	-108,436	-0,146	0,023
-423,788	-200,000	0,003	0,029
-422,773	-200,000	0,005	-0,054
-421,759	-80,219	0,133	0,032
-420,744	92,516	0,123	-0,101
-419,730	-14,831	-0,101	-0,047
-418,715	-200,000	-0,010	0,062
-417,701	271,096	0,096	0,123
-416,686	-113,718	0,148	-0,021
-415,671	9,400	-0,116	0,064
-414,657	373,507	0,113	-0,167
-413,642	-200,000	-0,040	-0,152
-412,628	-200,000	0,008	-0,031
-411,613	22,483	-0,172	-0,102
-410,598	418,048	0,042	0,066
-409,584	170,593	-0,085	0,089
-408,569	-200,000	-0,005	-0,070
-407,555	-200,000	-0,017	0,104
-406,540	115,638	-0,023	-0,021
-405,525	376,662	0,062	-0,093
-404,511	-200,000	-0,032	-0,174
-403,496	101,034	0,073	-0,062
-402,482	-34,100	-0,077	0,031
-401,467	327,827	-0,061	0,086
-400,452	-200,000	-0,025	0,096
-399,438	-155,061	-0,052	-0,002
-398,423	99,021	0,045	0,038
-397,409	296,534	-0,026	0,035
-396,394	-60,945	-0,048	0,015
-395,379	-200,000	-0,024	-0,089
-394,365	377,501	0,038	0,056
-393,350	509,815	0,045	0,076
-392,336	194,208	-0,013	-0,014
-391,321	280,926	-0,020	0,026
-390,306	-200,000	-0,010	-0,085
-389,292	800,000	0,035	-0,072
-388,277	-12,278	0,099	0,047
-387,263	-3,252	-0,051	0,026
-386,248	-20,822	0,128	-0,057
-385,233	7,546	-0,094	0,051
-384,219	-200,000	0,039	-0,128
-383,204	51,727	-0,098	-0,067
-382,190	501,386	0,147	-0,247
-381,175	90,855	-0,050	0,041
-380,160	83,006	-0,029	0,023
-379,146	800,000	0,035	0,104
-378,131	-200,000	0,018	-0,113
-377,117	-26,491	-0,106	0,045
-376,102	-26,947	0,157	0,066
-375,088	306,607	-0,064	-0,087
-374,073	332,126	0,060	0,085
-373,058	-46,903	0,114	0,040
-372,044	211,734	-0,066	-0,076
-371,029	661,471	-0,050	0,094
-370,015	800,000	-0,041	0,094
-369,000	178,217	-0,098	-0,104
-367,985	786,175	0,052	-0,105
-366,971	800,000	0,026	-0,056
-365,956	146,907	-0,071	0,069
-364,942	62,622	-0,052	-0,038
-363,927	15,121	0,093	0,053
-362,912	66,007	0,011	-0,008
-361,898	23,670	-0,011	0,007
-360,883	-123,377	0,095	-0,011
-359,869	-174,112	-0,065	0,001
-358,854	-200,000	0,036	0,124
-357,839	-15,500	0,010	-0,005
-356,825	72,900	0,075	-0,057
-355,810	83,965	-0,020	-0,015
-354,796	-195,498	0,094	0,000
-353,781	204,974	-0,089	-0,101
-352,766	800,000	-0,007	-0,015
-351,752	-200,000	0,003	-0,049
-350,737	-200,000	0,003	0,021
-349,723	-186,743	0,147	0,001
-348,708	133,233	0,073	0,069
-347,693	-31,506	-0,080	-0,033
-346,679	198,293	0,098	-0,109
-345,664	-7,388	-0,103	0,051
-344,650	-200,000	-0,005	0,017
-343,635	800,000	0,025	-0,073
-342,620	-42,673	0,195	0,072
-341,606	-200,000	0,005	0,075
-340,591	-200,000	-0,013	-0,073
-339,577	-149,719	-0,176	0,010
-338,562	277,889	0,048	-0,062
-337,548	442,150	0,098	0,156
-336,533	-21,107	0,167	0,074
-335,518	70,564	0,052	0,039
-334,504	-109,547	-0,057	-0,009
-333,489	800,000	0,068	0,161
-332,475	-200,000	-0,001	0,095
-331,460	800,000	0,044	-0,127
-330,445	441,241	-0,033	0,052
-329,431	63,668	0,106	0,077
-328,416	39,524	0,122	0,079
-327,402	36,620	-0,017	-0,011
-326,387	786,774	-0,065	0,131
-325,372	-12,418	0,056	0,027
-324,358	-200,000	0,016	0,052
-323,343	286,756	-0,077	0,102
-322,329	226,901	-0,080	0,094
-321,314	-200,000	0,029	0,137
-320,299	-200,000	0,004	-0,066
-319,285	56,572	-0,079	-0,056
-318,270	-165,565	-0,047	0,001
-317,256	-200,000	-0,001	-0,041
-316,241	-50,522	0,187	0,064
-315,226	-47,719	0,091	-0,032
-314,212	-200,000	-0,004	-0,081
-313,197	-155,678	-0,058	0,003
-312,183	800,000	0,013	-0,035
-311,168	-200,000	0,003	0,114
-310,153	102,702	-0,114	-0,097
-309,139	-68,865	-0,124	-0,035
-308,124	-200,000	-0,026	0,084
-307,110	199,060	0,047	0,052
-306,095	-200,000	-0,002	0,167
-305,080	18,952	-0,106	0,062
-304,066	-200,000	0,007	-0,077
-303,051	-165,236	-0,129	-0,004
-302,037	-200,000	0,018	0,063
-301,022	-71,154	-0,007	-0,002
-300,008	562,962	0,052	-0,092
-298,993	-200,000	0,034	-0,116
-297,978	-93,597	-0,067	0,013
-296,964	-156,325	0,064	0,003
-295,949	-200,000	-0,006	-0,046
-294,935	-200,000	-0,021	-0,160
-293,920	-107,321	0,064	0,010
-292,905	-200,000	0,001	-0,051
-291,891	99,027	0,040	-0,033
-290,876	-200,000	0,002	0,086
-289,862	-17,897	0,097	0,044
-288,847	800,000	0,041	0,126
-287,832	-200,000	-0,019	-0,117
-286,818	-42,348	0,085	0,031
-285,803	-200,000	0,011	-0,048
-284,789	35,765	-0,110	-0,070
-283,774	-200,000	0,023	0,124
-282,759	-200,000	-0,019	0,073
-281,745	547,762	0,050	0,087
-280,730	-112,476	0,034	0,005
-279,716	366,617	0,092	0,135
-278,701	-200,000	-0,002	-0,022
-277,686	120,462	0,060	-0,054
-276,672	519,414	0,051	-0,086
-275,657	-107,787	0,058	-0,009
-274,643	296,851	-0,015	-0,020
-273,628	370,771	0,059	-0,086
-272,613	285,237	0,057	-0,074
-271,599	-97,418	0,023	0,004
-270,584	-34,830	0,086	0,034
-269,570	-200,000	0,003	-0,026
-268,555	393,536	-0,059	0,089
-267,540	800,000	0,043	-0,130
-266,526	7,362	-0,085	0,046
-265,511	-200,000	-0,017	-0,084
-264,497	33,257	-0,046	-0,029
-263,482	-200,000	0,018	0,100
-262,467	-55,157	-0,069	-0,022
-261,453	-68,384	0,109	-0,030
-260,438	800,000	-0,014	-0,041
-259,424	-200,000	-0,015	-0,120
-258,409	800,000	0,040	-0,091
-257,395	-17,456	-0,098	-0,044
-256,380	314,728	0,031	0,042
-255,365	-200,000	0,005	0,062
-254,351	-81,326	-0,010	0,002
-253,336	32,102	-0,009	0,005
-252,322	-200,000	0,015	-0,071
-251,307	30,656	-0,014	-0,008
-250,292	-102,420	-0,036	0,006
-249,278	800,000	-0,031	-0,098
-248,263	362,477	0,032	0,047
-247,249	-50,002	0,059	0,020
-246,234	417,325	-0,021	-0,033
-245,219	229,488	-0,085	0,101
-244,205	-20,454	0,202	-0,090
-243,190	-200,000	-0,002	-0,070
-242,176	-14,603	0,142	-0,066
-241,161	25,317	0,123	0,074
-240,146	-200,000	-0,009	-0,032
-239,132	25,860	0,139	-0,083
-238,117	199,110	-0,138	-0,153
-237,103	-46,158	-0,044	0,016
-236,088	-63,698	0,027	0,008
-235,073	80,616	0,109	-0,085
-234,059	51,370	0,037	-0,026
-233,044	800,000	0,048	-0,108
-232,030	-78,975	0,128	0,031
-231,015	484,884	-0,077	-0,127
-230,000	800,000	-0,050	-0,122
-228,986	-166,633	-0,145	0,004
-227,971	800,000	0,065	0,135
-226,957	275,155	0,064	0,082
-225,942	800,000	0,051	0,109
-224,927	135,329	0,046	0,043
-223,913	-19,571	-0,044	-0,019
-222,898	12,049	-0,038	-0,021
-221,884	46,836	-0,127	-0,085
-220,869	78,574	0,054	-0,041
-219,855	156,778	0,055	-0,055
-218,840	-194,969	0,131	-0,001
-217,825	338,354	0,041	0,058
-216,811	-200,000	0,037	-0,153
-215,796	-200,000	-0,006	-0,064
-214,782	129,793	0,080	0,074
-213,767	67,400	0,048	0,035
-212,752	-45,084	0,156	0,056
-211,738	-5,066	0,036	0,018
-210,723	353,575	0,048	-0,069
-209,709	-138,058	-0,121	-0,010
-208,694	800,000	-0,037	0,088
-207,679	75,279	0,039	0,030
-206,665	800,000	-0,053	-0,165
-205,650	153,051	0,107	0,106
-204,636	75,744	0,092	-0,070
-203,621	20,199	0,029	0,017
-202,606	78,892	-0,093	-0,072
-201,592	226,440	0,036	-0,042
-200,577	-148,533	0,096	0,006
-199,563	800,000	-0,036	0,083
-198,548	-200,000	-0,006	0,023
-197,533	-200,000	0,009	0,095
-196,519	-200,000	-0,023	0,100
-195,504	17,547	-0,072	-0,041
-194,490	-200,000	-0,046	-0,158
-193,475	-76,924	-0,141	0,035
-192,460	-200,000	0,030	0,125
-191,446	-71,684	-0,048	-0,013
-190,431	-69,896	-0,113	-0,031
-189,417	302,477	0,089	-0,120
-188,402	13,954	0,064	0,036
-187,387	-133,066	-0,154	-0,014
-186,373	-200,000	0,008	0,033
-185,358	-37,201	-0,142	0,055
-184,344	794,007	-0,017	-0,035
-183,329	542,687	0,051	0,088
-182,315	387,447	-0,049	0,074
-181,300	-200,000	0,008	0,061
-180,285	-200,000	0,013	0,064
-179,271	171,078	-0,068	-0,071
-178,256	800,000	0,012	-0,035
-177,242	-128,343	-0,070	-0,007
-176,227	-200,000	0,025	0,222
-175,212	-200,000	-0,014	-0,075
-174,198	162,984	-0,019	0,019
-173,183	800,000	-0,058	-0,167
-172,169	175,123	-0,107	0,112
-171,154	520,480	0,045	-0,076
-170,139	800,000	0,006	0,015
-169,125	450,383	-0,045	-0,072
-168,110	-22,793	-0,140	0,061
-167,096	-200,000	0,027	-0,098
-166,081	-121,109	-0,077	-0,009
-165,066	800,000	-0,018	0,037
-164,052	92,060	-0,051	0,041
-163,037	750,462	-0,030	-0,059
-162,023	48,772	-0,064	0,043
-161,008	312,000	0,090	-0,122
-159,993	-200,000	-0,002	-0,075
-158,979	-103,301	-0,081	0,014
-157,964	-200,000	0,011	0,040
-156,950	800,000	-0,029	-0,069
-155,935	-200,000	0,012	-0,116
-154,920	-40,745	0,072	-0,027
-153,906	-94,161	0,052	0,010
-152,891	-200,000	0,008	0,067
-151,877	-200,000	0,007	-0,082
-150,862	181,831	0,051	-0,054
-149,847	-116,379	-0,200	-0,026
-148,833	183,622	0,040	-0,042
-147,818	-108,255	-0,063	0,010
-146,804	348,739	0,065	0,092
-145,789	-200,000	0,030	-0,095
-144,775	-200,000	0,015	-0,054
-143,760	24,961	-0,122	0,073
-142,745	41,774	-0,028	-0,018
-141,731	800,000	-0,028	-0,057
-140,716	-1,280	0,038	0,019
-139,702	-72,925	0,135	-0,035
-138,687	800,000	0,038	0,106
-137,672	-111,072	-0,132	0,019
-136,658	-200,000	0,019	-0,118
-135,643	-64,061	0,038	-0,011
-134,629	397,123	0,022	0,033
-133,614	180,347	0,020	-0,021
-132,599	658,335	-0,055	0,102
-131,585	224,727	0,125	0,146
-130,570	313,509	0,036	-0,049
-129,556	-200,000	0,004	0,026
-128,541	72,296	-0,099	-0,074
-127,526	185,744	0,055	0,059
-126,512	113,586	0,104	0,091
-125,497	84,952	-0,138	0,109
-124,483	-109,442	0,159	-0,024
-123,468	800,000	-0,038	-0,077
-122,453	294,693	-0,033	-0,043
-121,439	-200,000	0,022	-0,072
-120,424	114,034	0,034	0,030
-119,410	-126,313	-0,028	0,003
-118,395	11,929	0,102	0,057
-117,380	-200,000	-0,014	-0,056
-116,366	8,888	0,114	-0,062
-115,351	-49,467	-0,118	-0,040
-114,337	-94,159	-0,035	-0,007
-113,322	800,000	0,034	0,094
-112,307	234,621	-0,024	-0,029
-111,293	-79,534	0,085	0,021
-110,278	532,893	0,064	0,110
-109,264	-200,000	-0,005	0,088
-108,249	-107,159	0,059	-0,009
-107,234	90,055	-0,042	0,034
-106,220	800,000	-0,014	0,034
-105,205	-200,000	0,020	0,079
-104,191	-200,000	-0,006	-0,067
-103,176	-200,000	-0,008	0,111
-102,162	19,039	0,078	0,045
-101,147	-200,000	-0,005	0,082
-100,132	800,000	0,023	-0,050
-99,118	11,385	-0,087	-0,048
-98,103	213,447	-0,023	0,026
-97,089	451,722	0,007	-0,011
-96,074	303,099	0,032	-0,042
-95,059	775,013	-0,030	0,059
-94,045	-170,736	0,091	0,002
-93,030	-200,000	-0,036	-0,207
-92,016	39,800	-0,117	0,076
-91,001	-100,674	0,056	-0,010
-89,986	41,716	-0,061	0,039
-88,972	-26,161	0,103	0,043
-87,957	13,231	-0,050	-0,028
-86,943	754,684	0,031	0,060
-85,928	-200,000	0,003	-0,149
-84,913	-63,310	0,114	0,034
-83,899	-15,574	0,068	0,031
-82,884	36,001	0,158	-0,100
-81,870	800,000	-0,040	0,095
-80,855	243,075	-0,062	0,075
-79,840	-200,000	0,016	0,086
-78,826	91,155	-0,075	0,060
-77,811	176,879	-0,071	0,074
-76,797	251,515	-0,030	-0,037
-75,782	79,429	0,117	-0,090
-74,767	-126,822	0,062	0,007
-73,753	519,195	0,066	0,111
-72,738	-120,582	-0,058	-0,007
-71,724	-150,644	-0,091	-0,005
-70,709	-200,000	-0,002	0,060
-69,694	-200,000	-0,005	-0,119
-68,680	800,000	0,011	0,025
-67,665	-200,000	-0,000	-0,041
-66,651	153,833	0,098	-0,096
-65,636	-200,000	-0,017	-0,069
-64,622	212,042	0,077	-0,087
-63,607	-200,000	0,008	0,034
-62,592	-200,000	-0,010	-0,164
-61,578	-116,918	-0,005	0,001
-60,563	38,425	0,013	-0,008
-59,549	-200,000	0,001	0,031
-58,534	92,411	-2,664	-2,156
-57,519	35,562	0,429	-0,270
-56,505	800,000	-1,772	-5,395
-55,490	505,743	1,235	2,063
-54,476	800,000	5,216	11,480
-53,461	-200,000	22,417	349,583
-52,446	800,000	760,721	2293,834
-51,432	512,327	1644,711	2761,132
-50,417	96,601	1606,516	1319,900
-49,403	64,302	1264,087	912,632
-48,388	22,700	1016,540	596,052
-47,373	19,457	984,083	566,309
-46,359	12,798	971,237	537,127
-45,344	8,459	967,959	521,086
-44,330	8,998	965,773	521,653
-43,315	7,932	964,238	517,320
-42,300	7,864	963,190	516,515
-41,286	7,898	961,843	515,883
-40,271	7,847	961,008	515,249
-39,257	7,883	959,921	514,762
-38,242	7,869	959,147	514,282
-37,227	7,848	958,472	513,830
-36,213	7,900	957,448	513,429
-35,198	7,804	956,837	512,769
-34,184	7,876	955,797	512,427
-33,169	7,802	955,125	511,805
-32,154	7,877	954,346	511,609
-31,140	7,934	953,161	511,138
-30,125	7,893	952,587	510,677
-29,111	7,836	951,761	510,030
-28,096	7,914	951,028	509,869
-27,082	7,952	950,375	509,622
-26,067	7,871	949,513	508,881
-25,052	7,828	948,899	508,391
-24,038	7,823	948,161	507,960
-23,023	7,798	947,569	507,541
-22,009	7,882	946,996	507,485
-20,994	7,853	946,326	507,014
-19,979	7,935	945,466	506,794
-18,965	7,866	944,967	506,286
-17,950	7,828	944,285	505,778
-16,936	7,763	943,860	505,322
-15,921	7,755	943,002	504,818
-14,906	7,760	942,147	504,356
-13,892	7,801	941,787	504,275
-12,877	7,705	941,261	503,666
-11,863	7,684	940,611	503,232
-10,848	7,723	940,070	503,046
-9,833	7,776	939,458	502,869
-8,819	7,760	938,780	502,434
-7,804	7,739	938,241	502,058
-6,790	7,757	937,495	501,697
-5,775	7,787	937,065	501,541
-4,760	7,759	936,507	501,136
-3,746	7,724	935,894	500,676
-2,731	7,644	935,024	499,937
-1,717	7,581	934,561	499,470
-0,702	7,620	933,766	499,150
0,313	7,447	933,230	499,070
1,327	10,975	930,763	508,822
2,342	19,677	778,674	448,455
3,356	14,463	446,716	249,421
4,371	-11,998	311,448	145,839
5,386	-15,881	294,081	133,778
6,400	-17,724	287,850	129,112
7,415	-17,754	285,417	127,980
8,429	-18,640	283,671	126,324
9,444	-18,646	282,709	125,878
10,459	-18,453	282,023	125,748
11,473	-18,601	281,472	125,348
12,488	-18,351	280,958	125,349
13,502	-18,503	280,471	124,975
14,517	-18,337	280,201	125,002
15,531	-18,227	279,638	124,846
16,546	-18,096	279,282	124,801
17,561	-18,222	278,888	124,493
18,575	-18,109	278,481	124,409
19,590	-18,171	278,162	124,196
20,604	-18,247	277,904	123,997
21,619	-18,088	277,492	123,954
22,634	-18,029	277,133	123,838
23,648	-18,220	276,882	123,534
24,663	-18,112	276,702	123,545
25,677	-18,164	276,511	123,399
26,692	-18,058	276,139	123,323
27,707	-17,989	275,707	123,184
28,721	-18,164	275,631	122,974
29,736	-18,285	275,392	122,741
30,750	-18,088	275,057	122,767
31,765	-18,159	274,781	122,567
32,780	-18,126	274,487	122,455
33,794	-18,119	274,354	122,391
34,809	-18,055	274,093	122,325
35,823	-18,145	273,828	122,111
36,838	-18,271	273,545	121,856
37,853	-18,092	273,195	121,856
38,867	-18,116	272,971	121,723
39,882	-17,977	272,792	121,762
40,896	-18,024	272,531	121,591
41,911	-18,288	272,493	121,317
42,926	-18,145	272,083	121,257
43,940	-18,000	271,729	121,224
44,955	-18,154	271,523	120,978
45,969	-18,070	271,464	121,019
46,984	-17,954	271,331	121,055
47,999	-17,956	271,002	120,896
49,013	-17,815	270,919	120,980
50,028	-17,871	270,588	120,769
51,042	-17,836	270,426	120,719
52,057	-17,866	270,087	120,528
53,071	-18,037	269,967	120,306
54,086	-18,188	269,766	120,067
55,101	-17,998	269,511	120,117
56,115	-18,002	269,273	119,997
57,130	-17,932	268,824	119,851
58,144	-18,188	268,668	119,535
59,159	-18,255	268,390	119,339
60,174	-18,117	268,047	119,303
61,188	-18,335	268,000	119,071
62,203	-18,103	267,766	119,169
63,217	-17,800	267,561	119,344
64,232	-18,163	267,339	118,903
65,247	-18,084	267,044	118,833
66,261	-18,044	266,718	118,714
67,276	-18,043	266,670	118,683
68,290	-17,990	266,328	118,569
69,305	-17,953	266,324	118,590
70,320	-18,037	265,926	118,326
71,334	-18,013	265,591	118,188
72,349	-18,121	265,511	118,043
73,363	-18,315	265,272	117,751
74,378	-18,045	264,909	117,824
75,393	-18,015	264,771	117,780
76,407	-18,029	264,707	117,727
77,422	-17,902	264,212	117,612
78,436	-17,962	264,060	117,480
79,451	-18,013	263,825	117,318
80,466	-18,036	263,550	117,165
81,480	-17,988	263,445	117,151
82,495	-18,086	263,258	116,969
83,509	-17,985	262,842	116,865
84,524	-17,901	262,748	116,888
85,539	-17,966	262,660	116,780
86,553	-17,820	262,261	116,723
87,568	-17,771	262,167	116,714
88,582	-17,997	262,034	116,442
89,597	-17,887	261,745	116,401
90,611	-18,148	261,539	116,067
91,626	-18,100	261,394	116,035
92,641	-18,157	261,281	115,924
93,655	-18,053	260,951	115,859
94,670	-18,140	260,796	115,704
95,684	-18,069	260,546	115,645
96,699	-18,067	260,247	115,503
97,714	-17,858	260,186	115,652
98,728	-17,968	259,916	115,424
99,743	-17,785	259,593	115,432
100,757	-18,018	259,500	115,174
101,772	-17,882	259,225	115,162
102,787	-18,122	259,067	114,871
103,801	-18,004	258,900	114,890
104,816	-18,057	258,583	114,693
105,830	-18,081	258,647	114,690
106,845	-17,904	258,287	114,676
107,860	-17,982	257,946	114,444
108,874	-17,983	257,782	114,361
109,889	-18,140	257,799	114,221
110,903	-18,023	257,435	114,151
111,918	-18,146	257,310	113,979
112,933	-18,017	257,019	113,952
113,947	-18,070	256,927	113,854
114,962	-17,986	256,553	113,752
115,976	-18,065	256,519	113,659
116,991	-18,026	256,170	113,527
118,006	-17,842	255,967	113,587
119,020	-17,973	255,948	113,455
120,035	-18,078	255,736	113,259
121,049	-18,045	255,584	113,211
122,064	-18,047	255,433	113,132
123,079	-18,034	255,124	112,996
124,093	-17,991	254,788	112,875
125,108	-18,022	254,817	112,851
126,122	-17,936	254,590	112,815
127,137	-17,709	254,437	112,932
128,151	-17,770	254,072	112,708
129,166	-17,881	253,940	112,544
130,181	-17,722	253,725	112,576
131,195	-17,885	253,514	112,331
132,210	-17,991	253,408	112,183
133,224	-18,273	253,228	111,851
134,239	-17,992	252,853	111,917
135,254	-18,103	252,655	111,724
136,268	-18,090	252,705	111,747
137,283	-17,869	252,319	111,756
138,297	-17,613	252,064	111,852
139,312	-17,881	251,975	111,574
140,327	-17,740	251,668	111,547
141,341	-17,982	251,652	111,324
142,356	-17,909	251,266	111,206
143,370	-17,998	251,158	111,073
144,385	-17,918	250,999	111,060
145,400	-18,128	250,668	110,725
146,414	-17,963	250,612	110,831
147,429	-17,984	250,374	110,698
148,443	-17,974	250,252	110,643
149,458	-17,871	250,063	110,636
150,473	-18,048	249,880	110,395
151,487	-18,108	249,569	110,198
152,502	-17,639	249,357	110,491
153,516	-17,878	249,168	110,195
154,531	-17,897	249,008	110,098
155,546	-17,843	248,835	110,057
156,560	-17,807	248,722	110,028
157,575	-17,944	248,508	109,809
158,589	-18,001	248,287	109,653
159,604	-18,001	248,052	109,539
160,619	-17,741	247,673	109,580
161,633	-17,860	247,632	109,452
162,648	-18,029	247,664	109,316
163,662	-17,875	247,441	109,336
164,677	-17,924	247,274	109,212
165,692	-17,949	247,112	109,109
166,706	-17,952	247,012	109,053
167,721	-17,896	246,730	108,966
168,735	-17,921	246,739	108,939
169,750	-17,801	246,345	108,856
170,764	-17,893	246,248	108,726
171,779	-18,006	246,153	108,580
172,794	-17,649	245,971	108,788
173,808	-18,066	245,771	108,342
174,823	-17,821	245,784	108,543
175,837	-17,859	245,543	108,395
176,852	-18,069	245,378	108,138
177,867	-17,939	245,104	108,115
178,881	-17,784	245,017	108,195
179,896	-17,946	244,776	107,945
180,910	-18,013	244,508	107,763
181,925	-17,960	244,437	107,766
182,940	-17,832	244,139	107,730
183,954	-17,989	243,945	107,505
184,969	-18,043	243,920	107,440
185,983	-18,087	243,843	107,360
186,998	-17,729	243,499	107,494
188,013	-17,718	243,256	107,386
189,027	-17,897	243,107	107,163
190,042	-18,086	242,948	106,930
191,056	-18,022	242,779	106,897
192,071	-17,895	242,532	106,883
193,086	-18,156	242,564	106,674
194,100	-18,063	242,187	106,575
195,115	-18,018	241,983	106,512
196,129	-17,983	241,784	106,443
197,144	-18,005	241,620	106,344
198,159	-18,047	241,527	106,260
199,173	-17,942	241,405	106,282
200,188	-18,150	241,224	106,023
201,202	-17,835	241,040	106,189
202,217	-18,082	240,814	105,880
203,232	-17,801	240,570	105,990
204,246	-17,839	240,358	105,857
205,261	-18,186	240,155	105,478
206,275	-16,770	240,573	106,800
207,290	-12,213	242,222	111,242
208,304	-5,891	244,298	117,378
209,319	-2,283	245,129	120,734
210,334	-1,362	245,436	121,632
211,348	-0,150	245,547	122,672
212,363	0,235	245,684	123,046
213,377	0,605	245,567	123,281
214,392	0,910	245,453	123,463
215,407	1,137	245,497	123,659
216,421	1,184	245,484	123,681
217,436	1,310	245,107	123,583
218,450	1,150	244,919	123,346
219,465	1,265	244,967	123,453
220,480	1,260	244,694	123,301
221,494	1,121	244,642	123,150
222,509	0,916	244,129	122,714
223,523	0,762	243,939	122,481
224,538	0,686	243,643	122,260
225,553	0,542	243,517	122,069
226,567	0,504	243,607	122,072
227,582	0,834	243,294	122,172
228,596	0,632	243,187	121,944
229,611	0,450	242,943	121,663
230,626	0,552	242,774	121,650
231,640	0,684	242,627	121,672
232,655	0,365	242,582	121,381
233,669	0,302	242,344	121,201
234,684	0,372	242,061	121,104
235,699	0,654	241,938	121,260
236,713	0,403	241,905	121,030
237,728	0,494	241,764	121,021
238,742	0,502	241,597	120,934
239,757	0,720	241,324	120,962
240,772	0,550	241,281	120,793
241,786	0,487	241,065	120,623
242,801	0,490	240,986	120,575
243,815	0,463	240,893	120,496
244,830	0,442	240,530	120,287
245,844	0,507	240,478	120,303
246,859	0,540	240,170	120,164
247,874	0,450	240,093	120,042
248,888	0,603	239,913	120,065
249,903	0,600	239,812	120,001
250,917	0,527	239,778	119,915
251,932	0,680	239,616	119,945
252,947	0,630	239,443	119,808
253,961	0,756	239,192	119,772
254,976	0,625	238,974	119,548
255,990	0,662	238,826	119,493
257,005	0,551	238,736	119,349
258,020	0,394	238,627	119,159
259,034	0,749	238,296	119,264
260,049	0,572	238,409	119,170
261,063	0,715	238,144	119,140
262,078	0,544	237,957	118,901
263,093	0,558	237,892	118,869
264,107	0,676	237,661	118,836
265,122	0,556	237,369	118,585
266,136	0,484	237,412	118,538
267,151	0,599	237,266	118,546
268,166	0,519	237,075	118,376
269,180	0,466	236,712	118,144
270,195	0,580	236,704	118,219
271,209	0,455	236,650	118,083
272,224	0,499	236,524	118,044
273,239	0,621	236,202	117,968
274,253	0,523	236,188	117,874
275,268	0,544	235,868	117,721
276,282	0,563	235,827	117,704
277,297	0,551	235,703	117,623
278,312	0,603	235,502	117,553
279,326	0,641	235,307	117,475
280,341	0,590	235,238	117,390
281,355	0,506	235,072	117,230
282,370	0,643	234,894	117,238
283,384	0,665	234,808	117,202
284,399	0,540	234,571	116,976
285,414	0,594	234,396	116,920
286,428	0,628	234,330	116,903
287,443	0,731	234,195	116,906
288,457	0,623	234,078	116,752
289,472	0,885	233,771	116,792
290,487	0,638	233,651	116,531
291,501	0,511	233,510	116,352
292,516	0,603	233,282	116,299
293,530	0,490	233,362	116,240
294,545	0,793	233,045	116,307
295,560	0,772	233,056	116,286
296,574	0,735	232,843	116,141
297,589	0,770	232,581	116,027
298,603	0,796	232,515	116,004
299,618	0,473	232,538	115,756
300,633	0,688	232,392	115,838
301,647	0,919	232,134	115,877
302,662	0,778	232,062	115,722
303,676	0,971	231,757	115,708
304,691	0,828	231,690	115,554
305,706	0,655	231,495	115,314
306,720	0,841	231,453	115,426
307,735	0,746	231,243	115,238
308,749	0,828	231,153	115,246
309,764	0,953	230,840	115,175
310,779	1,010	230,780	115,179
311,793	0,809	230,576	114,913
312,808	0,828	230,415	114,837
313,822	0,899	230,256	114,802
314,837	0,749	230,094	114,596
315,852	0,739	230,082	114,572
316,866	0,789	229,894	114,506
317,881	0,957	229,727	114,541
318,895	0,777	229,641	114,351
319,910	0,994	229,381	114,376
320,925	0,860	229,344	114,246
321,939	0,863	229,165	114,148
322,954	0,661	229,004	113,905
323,968	0,994	228,861	114,077
324,983	0,986	228,640	113,949
325,997	0,922	228,499	113,821
327,012	0,897	228,425	113,755
328,027	0,805	228,242	113,584
329,041	0,954	228,276	113,704
330,056	0,661	228,119	113,394
331,070	0,921	227,865	113,454
332,085	0,791	227,792	113,309
333,100	0,940	227,637	113,334
334,114	0,637	227,485	113,020
335,129	0,869	227,203	113,045
336,143	0,743	227,136	112,907
337,158	0,810	227,035	112,897
338,173	1,068	226,787	112,957
339,187	1,124	226,738	112,964
340,202	0,772	226,528	112,586
341,216	0,971	226,485	112,703
342,231	0,899	226,162	112,479
343,246	0,918	226,178	112,490
344,260	0,939	226,021	112,418
345,275	0,996	225,806	112,344
346,289	0,898	225,695	112,206
347,304	1,189	225,471	112,301
348,319	0,992	225,487	112,152
349,333	1,024	225,318	112,082
350,348	1,071	224,974	111,936
351,362	1,172	224,985	112,007
352,377	1,144	224,744	111,856
353,392	0,873	224,777	111,661
354,406	1,117	224,466	111,678
355,421	192,764	1310,446	1378,282
356,435	154,409	1442,609	1378,118
