DTS Sentinel unit serial number:	SN410029Multiplexer serial number:	ORYXHardware model number:	OX2-SRSoftware version number:	ORYX F/W v4,00 Oryx Data Collector v3.7.2.0data status	okinstallation	B5 Nyhavnadifferential loss correction	single-endedforward channel	channel 2reverse channel	N/Adate	2023/12/13time	02:17:13forward acquisition time	300,00reverse acquisition time	0,00gamma	499,1914k internal	0,3159k external	0,3159temperature offset calibration	1,0000default loss term (dB/km)	0,3820temperature slope calibration	1,0000multiplexer offset coefficient	1,0000multiplexer slope coefficient	1,0000fibre end	0,00T internal ref (°C)	14,02T ext. ref 1 (°C)	-2,42T ext. ref 2 (°C)	-2,72length (m)	temperature (°C)	Stokes	anti-Stokes-744,400	21,504	-0,057	0,034
-743,385	-93,831	-0,202	-0,041
-742,371	-90,132	0,116	0,025
-741,356	-116,316	-0,509	0,069
-740,342	4,073	0,190	0,102
-739,327	-60,642	-0,274	-0,085
-738,312	800,000	-0,037	-0,082
-737,298	-55,582	-0,253	-0,083
-736,283	10,970	0,164	0,092
-735,269	-99,279	-0,194	-0,036
-734,254	-200,000	0,003	0,107
-733,239	-199,414	-0,505	-0,002
-732,225	-200,000	0,191	-0,000
-731,210	-179,266	-0,098	0,002
-730,196	122,867	0,105	0,097
-729,181	-2,853	-0,120	-0,061
-728,167	800,000	0,056	0,136
-727,152	800,000	-0,017	0,036
-726,137	800,000	-0,042	-0,135
-725,123	-200,000	0,032	-0,177
-724,108	-200,000	-0,005	-0,161
-723,094	175,446	-0,158	-0,169
-722,079	-200,000	0,029	-0,124
-721,064	-200,000	0,004	0,026
-720,050	-51,941	-0,040	0,014
-719,035	767,776	-0,061	0,123
-718,021	10,044	-0,082	-0,046
-717,006	800,000	0,062	-0,138
-715,991	-200,000	0,024	-0,177
-714,977	-200,000	-0,018	-0,130
-713,962	-147,153	-0,129	0,008
-712,948	-32,390	0,020	-0,008
-711,933	-200,000	-0,044	0,152
-710,918	-200,000	-0,035	0,125
-709,904	-39,624	0,095	-0,036
-708,889	-200,000	0,004	-0,047
-707,875	-200,000	0,018	0,067
-706,860	800,000	0,033	-0,076
-705,845	-42,546	0,061	-0,023
-704,831	173,115	-0,076	-0,080
-703,816	-200,000	0,009	0,199
-702,802	800,000	0,036	0,093
-701,787	27,526	-0,038	-0,024
-700,772	192,725	0,134	0,149
-699,758	-200,000	-0,003	-0,148
-698,743	800,000	0,065	0,142
-697,729	502,960	0,108	0,185
-696,714	248,769	-0,083	0,104
-695,699	800,000	-0,021	0,061
-694,685	89,205	0,023	0,019
-693,670	-65,196	0,075	-0,022
-692,656	-152,766	-0,068	0,004
-691,641	-200,000	0,034	0,141
-690,627	-150,028	0,093	0,005
-689,612	23,336	0,022	0,013
-688,597	25,484	-0,045	-0,028
-687,583	224,561	-0,062	-0,074
-686,568	-63,265	-0,015	0,005
-685,554	520,521	0,098	0,170
-684,539	727,745	0,011	-0,021
-683,524	38,081	0,097	0,063
-682,510	287,517	0,046	0,061
-681,495	186,253	0,049	0,054
-680,481	-35,372	0,028	-0,011
-679,466	-97,116	-0,141	-0,027
-678,451	800,000	0,027	-0,067
-677,437	462,855	0,083	0,137
-676,422	21,364	-0,013	-0,008
-675,408	314,973	0,068	0,095
-674,393	178,196	0,026	-0,028
-673,378	-129,095	0,056	0,006
-672,364	-65,040	-0,068	-0,020
-671,349	147,777	-0,051	-0,051
-670,335	-33,860	-0,084	0,034
-669,320	-200,000	0,031	0,128
-668,305	-60,571	-0,066	0,020
-667,291	160,557	-0,102	0,105
-666,276	-200,000	-0,004	-0,142
-665,262	-79,672	-0,104	-0,026
-664,247	339,390	-0,045	-0,065
-663,232	-76,638	-0,111	-0,029
-662,218	354,562	0,053	0,077
-661,203	-200,000	0,011	0,100
-660,189	282,006	0,074	-0,098
-659,174	-200,000	0,038	0,199
-658,159	-200,000	0,011	-0,119
-657,145	-200,000	0,001	-0,103
-656,130	89,194	-0,054	0,044
-655,116	-155,575	0,128	0,006
-654,101	-200,000	0,026	0,099
-653,086	417,030	-0,057	0,090
-652,072	87,766	-0,077	0,062
-651,057	-200,000	0,010	0,100
-650,043	-112,498	-0,051	-0,007
-649,028	-65,305	-0,064	0,019
-648,014	498,919	0,069	-0,117
-646,999	-174,028	-0,021	0,000
-645,984	45,313	0,032	0,021
-644,970	89,674	-0,144	-0,118
-643,955	469,189	0,026	-0,043
-642,941	363,613	-0,084	0,125
-641,926	114,662	-0,106	0,095
-640,911	24,735	-0,054	-0,032
-639,897	66,024	0,017	0,013
-638,882	-80,304	-0,071	-0,017
-637,868	-153,555	0,090	-0,004
-636,853	263,553	-0,026	-0,033
-635,838	-200,000	-0,035	-0,123
-634,824	-200,000	0,007	0,031
-633,809	261,565	0,045	0,058
-632,795	472,701	-0,125	0,207
-631,780	18,855	0,199	0,117
-630,765	113,989	-0,127	-0,114
-629,751	209,635	-0,016	0,018
-628,736	19,914	0,068	-0,040
-627,722	440,099	-0,027	-0,044
-626,707	-141,830	0,172	0,012
-625,692	510,665	0,079	0,136
-624,678	236,815	-0,020	-0,024
-623,663	313,785	-0,025	-0,034
-622,649	797,243	0,033	-0,066
-621,634	-200,000	0,005	-0,030
-620,619	-200,000	-0,026	-0,160
-619,605	429,666	-0,073	0,116
-618,590	-200,000	0,016	0,069
-617,576	62,249	-0,121	0,088
-616,561	87,465	-0,110	0,090
-615,546	800,000	0,013	-0,031
-614,532	-200,000	-0,001	0,100
-613,517	170,378	-0,054	0,057
-612,503	-36,283	0,044	0,017
-611,488	800,000	0,015	0,041
-610,474	-152,009	-0,105	0,006
-609,459	-37,480	-0,084	0,033
-608,444	-6,208	-0,053	0,026
-607,430	176,316	0,034	-0,036
-606,415	800,000	0,073	-0,168
-605,401	167,781	0,045	-0,046
-604,386	70,657	-0,033	0,025
-603,371	603,605	0,034	0,063
-602,357	115,761	0,110	0,099
-601,342	-93,824	0,058	0,012
-600,328	-200,000	-0,010	-0,150
-599,313	-172,163	-0,148	0,003
-598,298	-22,559	0,085	-0,038
-597,284	-113,696	-0,047	0,007
-596,269	240,109	0,074	-0,091
-595,255	800,000	0,041	0,114
-594,240	-52,922	-0,142	-0,048
-593,225	-200,000	-0,008	0,085
-592,211	146,773	-0,053	-0,052
-591,196	-200,000	-0,009	0,034
-590,182	538,220	0,047	-0,082
-589,167	800,000	-0,019	0,041
-588,152	-115,934	-0,109	-0,015
-587,138	-200,000	-0,040	-0,179
-586,123	-12,547	-0,110	-0,052
-585,109	-74,500	-0,112	0,029
-584,094	127,618	0,113	0,105
-583,079	115,612	0,114	-0,102
-582,065	-200,000	0,005	-0,077
-581,050	118,159	-0,031	-0,028
-580,036	154,840	-0,088	-0,089
-579,021	-200,000	-0,017	-0,066
-578,006	120,069	-0,037	0,033
-576,992	-200,000	0,017	-0,147
-575,977	212,417	-0,063	0,073
-574,963	-35,405	0,115	0,046
-573,948	-130,986	-0,123	0,012
-572,934	-88,377	-0,074	-0,016
-571,919	800,000	-0,081	-0,182
-570,904	-200,000	0,003	-0,076
-569,890	-200,000	0,030	-0,118
-568,875	-200,000	-0,005	-0,023
-567,861	601,546	0,018	0,032
-566,846	339,140	-0,076	-0,109
-565,831	800,000	-0,021	0,058
-564,817	-13,480	-0,113	0,053
-563,802	-59,312	-0,202	-0,063
-562,788	784,625	0,057	-0,116
-561,773	85,391	0,078	0,063
-560,758	800,000	0,031	0,091
-559,744	800,000	0,017	0,036
-558,729	328,767	-0,023	-0,033
-557,715	-141,279	-0,189	0,014
-556,700	-195,263	-0,112	0,001
-555,685	522,714	-0,025	-0,042
-554,671	800,000	-0,048	-0,130
-553,656	242,790	0,003	-0,004
-552,642	-200,000	-0,010	0,156
-551,627	104,795	-0,114	-0,098
-550,612	-200,000	-0,002	-0,057
-549,598	-200,000	0,037	-0,171
-548,583	328,441	-0,030	0,042
-547,569	6,388	-0,040	-0,022
-546,554	-55,930	-0,063	-0,021
-545,539	-0,196	0,083	0,043
-544,525	183,173	-0,093	0,101
-543,510	-139,098	-0,125	0,010
-542,496	-127,367	0,122	-0,013
-541,481	220,992	-0,074	-0,087
-540,466	274,806	-0,036	0,047
-539,452	800,000	0,006	-0,016
-538,437	-188,220	0,114	0,001
-537,423	-200,000	-0,039	0,133
-536,408	247,481	0,053	0,066
-535,393	-131,592	0,049	-0,005
-534,379	144,396	0,065	-0,063
-533,364	-19,234	0,073	-0,033
-532,350	-200,000	-0,008	0,065
-531,335	-200,000	0,007	0,117
-530,321	-177,273	-0,064	0,001
-529,306	-70,873	0,091	0,025
-528,291	-65,157	0,124	-0,036
-527,277	-200,000	-0,007	0,090
-526,262	-55,206	-0,052	-0,017
-525,248	-27,444	0,135	0,057
-524,233	346,325	-0,029	0,042
-523,218	437,736	0,064	-0,102
-522,204	-200,000	0,003	-0,129
-521,189	355,845	0,024	-0,035
-520,175	-200,000	-0,041	-0,158
-519,160	800,000	-0,042	-0,120
-518,145	233,940	-0,066	-0,080
-517,131	-200,000	0,001	0,032
-516,116	-67,512	0,070	-0,020
-515,102	563,475	0,048	0,086
-514,087	-200,000	-0,026	0,164
-513,072	-200,000	-0,002	-0,097
-512,058	-200,000	0,009	0,061
-511,043	484,693	0,041	-0,069
-510,029	-106,053	0,034	-0,006
-509,014	681,517	0,056	0,108
-507,999	-200,000	0,034	0,128
-506,985	-54,773	0,063	0,021
-505,970	-200,000	0,012	-0,048
-504,956	68,094	-0,126	0,094
-503,941	-119,244	-0,134	0,017
-502,926	-138,317	0,080	-0,006
-501,912	800,000	0,062	0,186
-500,897	-200,000	-0,016	0,163
-499,883	800,000	0,029	-0,076
-498,868	756,920	-0,004	-0,007
-497,853	-121,260	-0,064	-0,008
-496,839	530,861	0,066	0,114
-495,824	501,982	0,014	0,024
-494,810	168,426	0,041	0,043
-493,795	-17,471	-0,094	0,043
-492,781	17,293	-0,067	-0,038
-491,766	-200,000	0,011	-0,055
-490,751	-200,000	0,029	-0,176
-489,737	747,223	-0,057	-0,112
-488,722	800,000	-0,005	0,015
-487,708	492,824	0,063	-0,105
-486,693	-18,856	-0,066	0,030
-485,678	669,169	-0,107	0,204
-484,664	-200,000	-0,019	-0,125
-483,649	-200,000	-0,000	-0,043
-482,635	-43,064	-0,074	-0,027
-481,620	-98,759	-0,097	0,018
-480,605	316,804	0,026	0,036
-479,591	509,071	0,048	0,082
-478,576	-142,326	0,079	0,006
-477,562	311,002	-0,077	-0,105
-476,547	-79,020	-0,063	0,015
-475,532	-200,000	-0,018	-0,138
-474,518	333,274	0,009	-0,013
-473,503	739,056	0,022	-0,043
-472,489	-23,290	0,088	0,039
-471,474	189,663	0,047	-0,051
-470,459	-147,008	0,105	-0,006
-469,445	97,766	-0,049	0,041
-468,430	-140,343	0,147	0,011
-467,416	25,076	0,105	-0,064
-466,401	795,400	-0,035	0,070
-465,386	800,000	-0,025	-0,064
-464,372	-200,000	0,012	0,124
-463,357	-200,000	0,006	0,061
-462,343	800,000	0,062	-0,142
-461,328	-5,516	-0,141	-0,070
-460,313	-200,000	-0,003	0,129
-459,299	83,082	0,066	0,052
-458,284	800,000	0,054	0,139
-457,270	370,084	-0,083	0,123
-456,255	153,742	-0,034	-0,034
-455,241	800,000	-0,047	-0,105
-454,226	8,198	-0,055	0,030
-453,211	229,562	0,017	0,020
-452,197	-200,000	0,005	0,090
-451,182	-200,000	-0,016	0,152
-450,168	-92,753	0,093	-0,019
-449,153	800,000	0,048	0,128
-448,138	-93,676	-0,117	0,023
-447,124	-55,752	0,064	-0,021
-446,109	210,072	0,090	0,103
-445,095	800,000	0,012	0,039
-444,080	-29,868	0,060	-0,025
-443,065	-200,000	0,001	0,116
-442,051	800,000	0,056	-0,116
-441,036	108,533	-0,092	-0,080
-440,022	68,758	-0,128	-0,096
-439,007	248,672	0,012	-0,015
-437,992	279,327	0,091	0,118
-436,978	215,280	-0,077	0,089
-435,963	-200,000	-0,033	0,129
-434,949	-200,000	0,019	0,158
-433,934	-200,000	0,001	-0,035
-432,919	390,393	0,069	0,105
-431,905	435,012	0,039	-0,062
-430,890	125,936	0,042	0,039
-429,876	89,603	0,142	-0,115
-428,861	800,000	0,059	0,148
-427,846	-6,999	0,135	0,067
-426,832	-106,528	0,016	0,003
-425,817	283,726	0,066	0,087
-424,803	-44,988	-0,057	-0,021
-423,788	192,178	0,133	-0,146
-422,773	800,000	0,057	0,149
-421,759	211,889	-0,095	0,109
-420,744	-151,701	0,028	0,001
-419,730	160,458	0,103	0,105
-418,715	310,739	-0,072	-0,099
-417,701	-95,385	0,128	-0,025
-416,686	-90,369	0,058	-0,012
-415,671	237,416	0,043	-0,051
-414,657	-108,715	-0,117	0,018
-413,642	-167,183	-0,187	0,005
-412,628	415,489	-0,096	-0,149
-411,613	677,693	0,036	-0,069
-410,598	-78,218	-0,116	-0,029
-409,584	-91,418	0,099	-0,020
-408,569	790,649	0,027	-0,054
-407,555	-106,702	0,191	0,031
-406,540	98,915	-0,044	0,037
-405,525	321,350	-0,064	0,088
-404,511	800,000	-0,053	-0,118
-403,496	233,767	0,103	-0,123
-402,482	165,033	0,089	-0,092
-401,467	214,455	0,014	0,016
-400,452	-5,321	0,043	-0,021
-399,438	-200,000	0,001	-0,013
-398,423	-103,661	0,018	-0,003
-397,409	-12,283	-0,052	-0,025
-396,394	-117,478	0,089	0,012
-395,379	96,513	-0,026	-0,022
-394,365	-200,000	0,014	0,152
-393,350	291,045	0,126	0,167
-392,336	800,000	-0,031	-0,069
-391,321	800,000	0,051	-0,122
-390,306	-91,723	-0,207	0,042
-389,292	-64,196	0,124	-0,037
-388,277	270,841	0,029	0,037
-387,263	3,048	-0,114	-0,060
-386,248	161,068	0,132	0,134
-385,233	92,893	0,034	0,028
-384,219	-200,000	0,024	0,091
-383,204	156,585	-0,046	-0,047
-382,190	-42,116	-0,061	-0,023
-381,175	-200,000	0,022	0,103
-380,160	354,761	-0,024	-0,035
-379,146	-3,908	0,075	-0,038
-378,131	14,844	0,044	-0,025
-377,117	-73,957	0,089	0,023
-376,102	132,969	-0,096	0,090
-375,088	-89,392	-0,111	-0,024
-374,073	-200,000	0,001	-0,235
-373,058	72,944	0,067	0,051
-372,044	-28,171	0,165	0,069
-371,029	-169,049	-0,069	0,002
-370,015	800,000	0,040	0,103
-369,000	60,926	0,145	0,105
-367,985	141,759	-0,049	0,047
-366,971	-115,540	0,106	-0,014
-365,956	-21,692	0,095	-0,042
-364,942	-200,000	-0,013	0,085
-363,927	618,853	0,082	0,150
-362,912	121,531	-0,040	0,036
-361,898	800,000	-0,022	-0,047
-360,883	159,546	0,051	-0,051
-359,869	-36,267	-0,027	0,011
-358,854	410,215	0,026	0,040
-357,839	502,462	-0,042	-0,070
-356,825	-200,000	-0,014	0,054
-355,810	216,262	-0,058	0,068
-354,796	92,708	-0,055	-0,045
-353,781	64,619	-0,101	-0,074
-352,766	52,679	0,092	-0,063
-351,752	-66,651	0,157	0,045
-350,737	607,916	0,098	0,179
-349,723	257,329	0,063	-0,079
-348,708	180,992	-0,091	0,097
-347,693	-97,262	-0,155	0,029
-346,679	800,000	0,035	-0,095
-345,664	800,000	-0,036	-0,078
-344,650	73,290	0,087	-0,066
-343,635	-200,000	0,017	0,104
-342,620	40,453	0,040	0,026
-341,606	-42,919	0,018	0,007
-340,591	334,657	-0,103	0,145
-339,577	-123,066	-0,152	0,018
-338,562	141,492	0,101	-0,097
-337,548	-52,309	0,047	0,016
-336,533	-200,000	-0,004	-0,016
-335,518	-17,254	0,012	-0,005
-334,504	-194,676	0,157	0,001
-333,489	800,000	-0,031	0,070
-332,475	-75,458	-0,106	-0,027
-331,460	486,403	-0,064	-0,107
-330,445	-69,142	0,038	0,011
-329,431	-200,000	0,014	-0,141
-328,416	120,008	0,093	0,084
-327,402	478,807	0,005	0,009
-326,387	-76,433	-0,183	-0,046
-325,372	-173,692	0,115	0,002
-324,358	800,000	-0,054	-0,155
-323,343	-200,000	-0,008	-0,091
-322,329	117,851	-0,051	0,045
-321,314	615,725	0,049	0,089
-320,299	-200,000	-0,009	0,103
-319,285	-200,000	-0,005	-0,035
-318,270	81,719	-0,102	-0,080
-317,256	173,228	-0,052	0,055
-316,241	800,000	0,009	-0,028
-315,226	347,135	0,020	0,029
-314,212	391,136	-0,031	-0,047
-313,197	-200,000	-0,022	0,153
-312,183	-200,000	0,005	0,127
-311,168	-200,000	-0,005	0,023
-310,153	375,705	-0,051	-0,075
-309,139	432,299	-0,069	0,109
-308,124	7,028	0,027	0,015
-307,110	-61,871	-0,067	0,020
-306,095	40,524	0,146	0,095
-305,080	-200,000	0,049	0,000
-304,066	65,017	-0,102	-0,075
-303,051	77,409	-0,057	0,044
-302,037	307,510	-0,085	0,116
-301,022	-40,872	0,048	0,018
-300,008	-10,696	-0,015	0,007
-298,993	-37,861	0,105	-0,040
-297,978	232,656	-0,064	-0,076
-296,964	-25,933	0,163	-0,069
-295,949	201,350	-0,078	0,087
-294,935	800,000	-0,063	0,155
-293,920	-31,002	-0,134	-0,055
-292,905	156,582	-0,047	0,047
-291,891	625,515	-0,032	0,059
-290,876	-200,000	-0,001	-0,026
-289,862	800,000	-0,026	0,060
-288,847	33,979	-0,177	-0,111
-287,832	301,156	0,043	0,058
-286,818	-200,000	-0,022	-0,102
-285,803	800,000	0,033	-0,078
-284,789	42,490	0,144	0,095
-283,774	-40,903	0,085	0,032
-282,759	-157,148	-0,079	-0,003
-281,745	118,388	-0,061	0,054
-280,730	482,746	-0,057	-0,094
-279,716	800,000	0,020	0,057
-278,701	176,058	-0,082	-0,086
-277,686	-110,479	-0,148	0,022
-276,672	800,000	0,067	0,202
-275,657	111,229	0,139	-0,121
-274,643	-200,000	-0,003	-0,075
-273,628	108,754	-0,093	-0,080
-272,613	-175,588	-0,104	0,002
-271,599	-57,316	-0,034	0,011
-270,584	-76,762	-0,072	0,018
-269,570	-2,835	0,073	-0,037
-268,555	-120,075	0,015	-0,002
-267,540	-200,000	-0,028	-0,107
-266,526	85,046	0,125	-0,099
-265,511	669,117	-0,036	-0,067
-264,497	-200,000	-0,019	-0,073
-263,482	-33,041	0,081	-0,032
-262,467	-152,478	0,198	-0,010
-261,453	-200,000	0,015	0,086
-260,438	-200,000	0,028	-0,163
-259,424	800,000	0,071	-0,156
-258,409	310,973	-0,076	0,103
-257,395	-200,000	0,004	-0,164
-256,380	400,363	0,015	0,023
-255,365	-200,000	0,013	-0,047
-254,351	600,271	0,040	-0,072
-253,336	-3,065	-0,053	-0,027
-252,322	800,000	-0,022	0,051
-251,307	82,986	-0,020	-0,016
-250,292	190,341	0,113	-0,122
-249,278	12,372	0,068	0,038
-248,263	-51,409	0,038	-0,013
-247,249	-128,374	-0,101	0,010
-246,234	-200,000	0,007	-0,129
-245,219	269,061	-0,049	0,063
-244,205	357,382	0,031	0,044
-243,190	271,886	0,055	-0,070
-242,176	111,832	0,059	0,052
-241,161	207,566	0,048	0,054
-240,146	331,008	0,111	-0,156
-239,132	-73,595	-0,099	0,026
-238,117	800,000	-0,065	-0,170
-237,103	323,567	-0,110	-0,152
-236,088	46,271	0,089	0,060
-235,073	78,999	-0,081	0,063
-234,059	357,286	0,013	-0,019
-233,044	-200,000	-0,022	-0,114
-232,030	50,224	0,057	-0,039
-231,015	445,349	0,082	0,131
-230,000	-200,000	-0,000	0,028
-228,986	800,000	0,027	-0,072
-227,971	77,214	0,101	-0,078
-226,957	-125,705	-0,131	-0,014
-225,942	800,000	0,038	-0,088
-224,927	-153,675	-0,022	0,001
-223,913	205,680	-0,062	0,070
-222,898	800,000	-0,082	-0,176
-221,884	200,403	0,067	0,074
-220,869	-31,904	-0,073	0,029
-219,855	428,486	0,106	-0,165
-218,840	-5,504	0,023	0,011
-217,825	-36,106	0,043	0,017
-216,811	-113,782	-0,066	-0,009
-215,796	-200,000	-0,003	0,096
-214,782	800,000	-0,013	0,036
-213,767	800,000	0,035	0,074
-212,752	107,101	-0,040	0,035
-211,738	434,123	-0,087	0,137
-210,723	57,563	0,066	-0,047
-209,709	800,000	0,040	-0,107
-208,694	276,082	0,108	0,139
-207,679	170,997	-0,058	-0,060
-206,665	-200,000	0,019	0,064
-205,650	800,000	0,033	0,086
-204,636	-72,562	-0,031	0,008
-203,621	126,448	0,111	-0,102
-202,606	-87,840	-0,039	0,008
-201,592	210,414	-0,033	0,038
-200,577	-176,403	-0,059	0,001
-199,563	-43,087	0,114	0,041
-198,548	-25,050	-0,094	0,040
-197,533	-168,798	0,152	0,004
-196,519	104,513	0,091	-0,077
-195,504	144,376	0,033	0,032
-194,490	-200,000	-0,011	0,078
-193,475	235,402	-0,033	0,039
-192,460	28,284	0,074	0,045
-191,446	-200,000	0,016	0,165
-190,431	257,912	0,068	-0,085
-189,417	-200,000	0,001	-0,002
-188,402	39,563	0,121	0,078
-187,387	-200,000	0,005	0,043
-186,373	-150,558	-0,123	0,007
-185,358	489,382	-0,081	-0,133
-184,344	172,303	0,066	0,069
-183,329	-30,531	0,091	0,037
-182,315	-200,000	0,013	0,087
-181,300	-8,698	-0,082	-0,039
-180,285	-200,000	0,005	-0,025
-179,271	163,761	0,013	-0,013
-178,256	-200,000	0,013	-0,077
-177,242	206,931	-0,087	-0,097
-176,227	-200,000	0,013	0,050
-175,212	-172,770	-0,086	-0,002
-174,198	800,000	-0,052	0,164
-173,183	570,218	0,034	-0,060
-172,169	-200,000	0,001	-0,086
-171,154	21,537	-0,146	-0,086
-170,139	80,759	0,057	0,044
-169,125	-200,000	-0,024	-0,109
-168,110	-200,000	0,001	0,027
-167,096	97,704	0,060	0,050
-166,081	-72,149	0,062	0,016
-165,066	97,646	0,084	-0,070
-164,052	241,044	0,011	-0,013
-163,037	800,000	-0,007	0,019
-162,023	563,037	-0,056	0,099
-161,008	172,358	-0,015	0,016
-159,993	-200,000	0,008	-0,082
-158,979	-19,414	0,097	-0,043
-157,964	-200,000	-0,019	-0,085
-156,950	-3,118	-0,053	-0,026
-155,935	1,338	-0,112	0,058
-154,920	487,097	-0,014	0,023
-153,906	18,480	0,052	-0,030
-152,891	4,248	-0,073	-0,038
-151,877	800,000	-0,051	0,128
-150,862	32,483	0,071	0,044
-149,847	243,535	-0,110	-0,133
-148,833	269,291	-0,058	-0,073
-147,818	129,685	0,049	0,045
-146,804	-47,294	0,051	-0,018
-145,789	800,000	0,005	-0,017
-144,775	-200,000	-0,010	-0,102
-143,760	269,826	-0,076	-0,096
-142,745	-91,611	0,052	-0,011
-141,731	-50,723	0,104	-0,035
-140,716	800,000	0,022	-0,067
-139,702	-108,284	0,125	-0,019
-138,687	451,010	0,038	-0,060
-137,672	122,410	-0,091	-0,081
-136,658	-44,874	-0,133	0,047
-135,643	-42,703	-0,053	-0,019
-134,629	109,795	-0,035	0,030
-133,614	538,004	-0,020	0,034
-132,599	36,258	-0,096	0,061
-131,585	474,713	0,070	0,113
-130,570	-145,531	-0,103	0,007
-129,556	135,902	0,056	0,053
-128,541	-200,000	0,011	-0,093
-127,526	386,067	0,062	0,093
-126,512	-200,000	-0,024	0,076
-125,497	-85,602	0,165	0,037
-124,483	-53,930	-0,085	-0,028
-123,468	-200,000	-0,012	-0,067
-122,453	800,000	-0,018	0,041
-121,439	-112,409	0,024	-0,003
-120,424	-200,000	-0,026	-0,116
-119,410	-200,000	0,005	-0,022
-118,395	17,465	0,087	0,050
-117,380	-5,410	0,154	0,076
-116,366	800,000	0,015	-0,037
-115,351	-200,000	-0,007	0,074
-114,337	-175,527	0,020	0,000
-113,322	405,951	-0,023	0,035
-112,307	-200,000	0,007	0,046
-111,293	89,871	-0,064	0,051
-110,278	800,000	0,039	0,121
-109,264	800,000	-0,043	0,132
-108,249	-200,000	-0,005	-0,026
-107,234	-200,000	0,011	-0,079
-106,220	54,624	0,053	-0,036
-105,205	-200,000	0,001	0,135
-104,191	197,280	0,024	0,026
-103,176	690,133	0,019	0,036
-102,162	65,192	-0,063	0,046
-101,147	2,070	0,067	0,034
-100,132	-82,228	-0,034	0,008
-99,118	99,694	0,085	-0,070
-98,103	67,410	0,020	-0,015
-97,089	800,000	0,012	0,025
-96,074	-200,000	0,031	0,104
-95,059	-87,890	-0,090	0,019
-94,045	217,039	-0,099	-0,113
-93,030	35,878	-0,072	0,046
-92,016	-200,000	-0,036	-0,154
-91,001	-47,048	0,142	0,049
-89,986	800,000	0,008	0,020
-88,972	141,550	0,075	0,072
-87,957	-57,997	0,133	0,041
-86,943	522,838	0,048	-0,082
-85,928	800,000	0,004	-0,012
-84,913	-76,104	-0,092	0,023
-83,899	6,486	-0,071	0,038
-82,884	-200,000	0,001	0,062
-81,870	418,913	0,050	0,077
-80,855	-112,745	0,008	-0,001
-79,840	-184,487	-0,042	-0,000
-78,826	800,000	0,052	-0,106
-77,811	-81,285	0,041	0,010
-76,797	39,861	-0,039	0,025
-75,782	32,086	-0,123	-0,076
-74,767	-200,000	-0,024	0,155
-73,753	-3,106	0,151	0,075
-72,738	219,987	0,029	-0,034
-71,724	202,897	-0,030	0,033
-70,709	143,470	-0,060	-0,057
-69,694	87,287	0,036	0,028
-68,680	450,562	-0,059	-0,094
-67,665	53,276	-0,153	-0,105
-66,651	-70,637	0,135	-0,036
-65,636	-117,597	0,130	0,017
-64,622	-53,515	-0,105	0,034
-63,607	-12,939	-0,143	-0,067
-62,592	800,000	-0,031	-0,096
-61,578	-200,000	0,010	0,126
-60,563	-200,000	-0,004	0,203
-59,549	20,893	0,104	0,060
-58,534	6,662	-2,133	-1,135
-57,519	800,000	-0,251	-0,659
-56,505	-200,000	-1,368	-5,068
-55,490	104,482	0,758	0,640
-54,476	800,000	5,414	11,973
-53,461	-200,000	18,579	311,012
-52,446	800,000	740,095	2315,796
-51,432	555,870	1655,909	2871,567
-50,417	110,669	1639,996	1414,417
-49,403	74,829	1290,137	973,145
-48,388	30,545	1030,736	630,705
-47,373	20,067	993,115	572,996
-46,359	17,701	980,763	558,065
-45,344	14,394	976,930	544,997
-44,330	14,713	975,346	545,140
-43,315	14,116	973,511	542,135
-42,300	14,014	972,526	541,229
-41,286	14,034	971,647	540,785
-40,271	14,041	970,525	540,161
-39,257	14,061	969,455	539,611
-38,242	14,020	968,838	539,112
-37,227	14,074	967,908	538,747
-36,213	14,061	966,998	538,178
-35,198	14,021	966,149	537,553
-34,184	14,061	965,389	537,240
-33,169	14,011	964,559	536,595
-32,154	14,102	963,494	536,275
-31,140	14,039	962,714	535,615
-30,125	14,089	961,943	535,327
-29,111	14,032	961,184	534,699
-28,096	14,057	960,438	534,343
-27,082	14,074	959,722	533,981
-26,067	14,065	959,042	533,550
-25,052	14,079	958,253	533,136
-24,038	14,042	957,532	532,594
-23,023	13,965	957,044	532,055
-22,009	14,102	956,396	532,112
-20,994	14,051	955,652	531,514
-19,979	14,063	955,104	531,229
-18,965	14,099	954,272	530,860
-17,950	14,098	953,614	530,468
-16,936	14,034	953,077	529,943
-15,921	13,959	952,587	529,410
-14,906	13,957	951,534	528,798
-13,892	13,958	950,976	528,469
-12,877	13,943	950,390	528,075
-11,863	13,933	949,739	527,661
-10,848	13,942	949,330	527,439
-9,833	13,980	948,940	527,324
-8,819	13,993	948,135	526,899
-7,804	14,008	947,392	526,511
-6,790	13,960	946,989	526,115
-5,775	13,968	946,494	525,844
-4,760	13,971	945,736	525,410
-3,746	14,002	945,108	525,140
-2,731	13,811	944,519	524,186
-1,717	13,794	943,807	523,715
-0,702	13,813	943,112	523,368
0,313	13,611	942,444	523,148
1,327	16,895	940,185	532,235
2,342	25,905	795,489	474,246
3,356	22,422	460,296	269,046
4,371	-4,694	317,430	156,427
5,386	-8,672	299,276	143,400
6,400	-10,493	293,259	138,678
7,415	-10,764	290,806	137,236
8,429	-10,942	289,081	136,234
9,444	-11,113	288,412	135,738
10,459	-11,058	287,665	135,428
11,473	-11,132	287,078	135,067
12,488	-10,943	286,555	134,994
13,502	-11,064	286,074	134,637
14,517	-11,031	285,648	134,457
15,531	-11,259	285,269	134,044
16,546	-11,165	284,942	133,970
17,561	-11,184	284,561	133,761
18,575	-11,068	284,050	133,621
19,590	-11,175	283,787	133,381
20,604	-10,967	283,395	133,387
21,619	-11,107	283,005	133,057
22,634	-11,120	282,719	132,897
23,648	-11,196	282,374	132,650
24,663	-11,092	281,932	132,531
25,677	-11,103	281,975	132,529
26,692	-11,135	281,646	132,331
27,707	-11,054	281,225	132,200
28,721	-11,027	281,068	132,140
29,736	-11,188	280,749	131,824
30,750	-11,177	280,493	131,702
31,765	-11,235	280,221	131,507
32,780	-11,095	280,008	131,529
33,794	-11,127	279,597	131,295
34,809	-10,923	279,382	131,377
35,823	-11,125	279,025	131,005
36,838	-11,147	278,936	130,930
37,853	-11,266	278,580	130,638
38,867	-11,131	278,485	130,710
39,882	-11,165	278,264	130,562
40,896	-11,163	278,006	130,432
41,911	-11,213	277,645	130,203
42,926	-11,117	277,551	130,239
43,940	-11,142	277,112	129,997
44,955	-11,116	276,880	129,901
45,969	-11,322	276,732	129,626
46,984	-11,320	276,349	129,437
47,999	-11,524	276,269	129,195
49,013	-11,630	275,759	128,846
50,028	-11,839	275,643	128,584
51,042	-11,625	275,189	128,561
52,057	-11,877	275,117	128,280
53,071	-11,822	275,020	128,274
54,086	-11,736	274,761	128,223
55,101	-11,614	274,567	128,235
56,115	-11,413	274,344	128,307
57,130	-11,072	274,265	128,578
58,144	-10,966	274,016	128,548
59,159	-11,000	273,873	128,437
60,174	-10,987	273,561	128,293
61,188	-10,998	273,397	128,194
62,203	-10,985	273,043	128,029
63,217	-10,975	272,921	127,969
64,232	-11,116	272,692	127,720
65,247	-10,865	272,359	127,785
66,261	-10,957	272,207	127,617
67,276	-11,219	272,006	127,269
68,290	-11,276	271,535	126,984
69,305	-11,497	271,507	126,756
70,320	-11,217	271,253	126,884
71,334	-11,060	271,127	126,959
72,349	-10,904	270,826	126,950
73,363	-11,131	270,780	126,709
74,378	-11,024	270,422	126,628
75,393	-11,162	270,262	126,415
76,407	-10,959	270,063	126,497
77,422	-10,975	269,888	126,389
78,436	-10,932	269,568	126,267
79,451	-11,075	269,378	126,036
80,466	-10,902	269,014	126,013
81,480	-11,078	268,813	125,746
82,495	-11,065	268,637	125,665
83,509	-11,171	268,564	125,523
84,524	-11,180	268,169	125,318
85,539	-11,344	267,866	125,017
86,553	-11,395	267,751	124,905
87,568	-11,128	267,535	125,037
88,582	-11,229	267,337	124,841
89,597	-11,204	267,222	124,799
90,611	-11,111	266,988	124,762
91,626	-11,041	266,936	124,791
92,641	-10,897	266,653	124,778
93,655	-11,124	266,326	124,408
94,670	-11,173	266,291	124,337
95,684	-11,106	266,100	124,297
96,699	-11,085	265,815	124,172
97,714	-11,058	265,538	124,055
98,728	-11,167	265,318	123,843
99,743	-11,266	265,083	123,634
100,757	-11,272	264,851	123,509
101,772	-11,210	264,723	123,494
102,787	-11,185	264,543	123,422
103,801	-11,106	264,280	123,359
104,816	-11,162	264,190	123,255
105,830	-10,947	264,059	123,376
106,845	-11,065	263,940	123,204
107,860	-11,109	263,610	122,999
108,874	-11,173	263,403	122,834
109,889	-10,973	263,222	122,918
110,903	-11,074	262,880	122,657
111,918	-11,196	262,837	122,517
112,933	-11,118	262,558	122,445
113,947	-10,857	262,380	122,584
114,962	-11,142	262,214	122,242
115,976	-10,945	262,038	122,324
116,991	-11,055	261,898	122,151
118,006	-10,889	261,584	122,140
119,020	-11,084	261,477	121,907
120,035	-11,035	261,363	121,886
121,049	-10,971	261,094	121,806
122,064	-11,025	261,049	121,727
123,079	-11,188	260,699	121,409
124,093	-11,077	260,534	121,419
125,108	-11,212	260,305	121,182
126,122	-11,282	259,875	120,910
127,137	-11,534	259,921	120,699
128,151	-11,365	259,671	120,720
129,166	-11,364	259,544	120,651
130,181	-11,093	259,120	120,681
131,195	-11,434	258,998	120,315
132,210	-11,065	258,783	120,527
133,224	-10,971	258,662	120,543
134,239	-10,970	258,514	120,464
135,254	-10,952	258,331	120,383
136,268	-11,230	258,097	120,021
137,283	-11,352	257,872	119,798
138,297	-11,233	257,510	119,724
139,312	-11,219	257,287	119,622
140,327	-11,131	257,243	119,667
141,341	-10,993	257,166	119,741
142,356	-10,911	256,946	119,699
143,370	-10,971	256,872	119,602
144,385	-10,922	256,829	119,613
145,400	-10,750	256,385	119,545
146,414	-10,765	256,280	119,472
147,429	-10,902	256,205	119,308
148,443	-10,857	256,018	119,249
149,458	-10,750	255,753	119,207
150,473	-10,797	255,483	119,031
151,487	-10,840	255,297	118,896
152,502	-10,841	255,184	118,831
153,516	-10,966	255,044	118,648
154,531	-10,861	254,799	118,615
155,546	-11,053	254,708	118,396
156,560	-10,748	254,387	118,498
157,575	-10,974	254,336	118,270
158,589	-10,914	254,016	118,162
159,604	-10,928	253,920	118,095
160,619	-10,780	253,606	118,066
161,633	-10,927	253,478	117,869
162,648	-10,956	253,453	117,823
163,662	-10,830	253,126	117,767
164,677	-10,719	253,029	117,807
165,692	-11,072	253,038	117,499
166,706	-10,899	252,816	117,533
167,721	-10,838	252,462	117,410
168,735	-10,952	252,444	117,294
169,750	-10,727	252,192	117,357
170,764	-10,964	252,148	117,125
171,779	-10,798	251,856	117,120
172,794	-10,617	251,610	117,149
173,808	-11,032	251,628	116,795
174,823	-11,036	251,226	116,594
175,837	-11,469	250,937	116,083
176,852	-11,203	251,095	116,372
177,867	-10,561	250,805	116,769
178,881	-10,914	250,792	116,455
179,896	-10,677	250,451	116,486
180,910	-10,867	250,286	116,238
181,925	-10,726	250,190	116,302
182,940	-10,739	249,987	116,187
183,954	-10,993	249,846	115,897
184,969	-10,949	249,620	115,819
185,983	-10,743	249,664	116,002
186,998	-10,806	249,374	115,804
188,013	-10,618	249,132	115,839
189,027	-10,610	248,899	115,727
190,042	-10,926	248,780	115,397
191,056	-10,692	248,656	115,525
192,071	-10,650	248,407	115,434
193,086	-10,644	248,192	115,329
194,100	-10,834	248,020	115,080
195,115	-10,678	247,924	115,156
196,129	-10,894	247,639	114,833
197,144	-10,942	247,648	114,787
198,159	-11,041	247,313	114,539
199,173	-10,797	247,091	114,629
200,188	-10,809	246,813	114,479
201,202	-10,920	246,682	114,316
202,217	-11,295	246,354	113,843
203,232	-11,411	246,249	113,688
204,246	-11,049	246,212	113,961
205,261	-10,744	246,006	114,108
206,275	-11,806	245,622	113,043
207,290	-7,729	247,340	117,212
208,304	0,517	250,028	125,383
209,319	4,122	250,859	128,808
210,334	4,461	250,894	129,098
211,348	4,940	250,727	129,400
212,363	4,871	250,740	129,337
213,377	4,983	250,634	129,365
214,392	4,926	250,504	129,239
215,407	4,916	250,229	129,077
216,421	5,001	249,831	128,931
217,436	5,062	249,863	128,987
218,450	5,139	249,780	128,996
219,465	4,770	249,554	128,561
220,480	4,488	249,450	128,262
221,494	4,577	249,125	128,158
222,509	4,845	248,894	128,250
223,523	4,528	248,866	127,962
224,538	4,293	248,507	127,571
225,553	4,358	248,536	127,628
226,567	4,497	248,261	127,591
227,582	4,447	248,124	127,467
228,596	4,614	247,894	127,475
229,611	4,263	247,691	127,070
230,626	4,253	247,373	126,888
231,640	4,315	247,418	126,950
232,655	4,423	247,228	126,931
233,669	4,412	247,033	126,810
234,684	4,119	246,871	126,475
235,699	4,662	246,704	126,824
236,713	4,537	246,739	126,728
237,728	4,495	246,357	126,486
238,742	4,178	246,097	126,082
239,757	4,282	245,931	126,070
240,772	4,266	245,799	125,979
241,786	4,486	245,823	126,159
242,801	4,272	245,626	125,872
243,815	4,230	245,491	125,758
244,830	4,491	245,339	125,881
245,844	4,491	245,196	125,796
246,859	4,399	245,039	125,629
247,874	4,220	244,964	125,435
248,888	4,108	244,818	125,257
249,903	4,469	244,555	125,405
250,917	4,684	244,361	125,469
251,932	4,489	244,344	125,291
252,947	4,511	244,125	125,185
253,961	4,482	243,743	124,955
254,976	4,476	243,725	124,930
255,990	4,518	243,660	124,919
257,005	4,192	243,397	124,510
258,020	4,265	243,264	124,490
259,034	4,213	243,087	124,345
260,049	4,202	243,011	124,287
261,063	4,087	242,759	124,055
262,078	4,237	242,565	124,065
263,093	4,410	242,553	124,187
264,107	4,548	242,429	124,223
265,122	4,175	242,198	123,794
266,136	4,468	242,116	123,977
267,151	4,455	241,898	123,843
268,166	4,344	241,612	123,597
269,180	4,061	241,505	123,304
270,195	4,726	241,632	123,891
271,209	5,045	241,491	124,064
272,224	4,434	241,122	123,374
273,239	4,029	240,875	122,913
274,253	4,256	240,618	122,952
275,268	4,308	240,555	122,951
276,282	4,427	240,356	122,933
277,297	4,112	240,183	122,583
278,312	4,088	240,124	122,522
279,326	4,316	240,026	122,643
280,341	4,470	239,742	122,609
281,355	4,504	239,737	122,622
282,370	4,489	239,591	122,525
283,384	4,377	239,430	122,343
284,399	4,157	239,233	122,057
285,414	4,026	238,986	121,816
286,428	4,129	239,026	121,908
287,443	4,223	238,769	121,840
288,457	4,471	238,748	122,014
289,472	4,605	238,540	122,003
290,487	4,441	238,323	121,752
291,501	4,323	238,098	121,533
292,516	3,971	237,943	121,166
293,530	4,087	237,839	121,194
294,545	4,415	237,646	121,342
295,560	4,351	237,407	121,160
296,574	4,053	237,346	120,883
297,589	4,090	237,170	120,811
298,603	4,607	237,135	121,188
299,618	4,560	237,033	121,089
300,633	4,530	236,843	120,957
301,647	4,467	236,849	120,900
302,662	4,976	236,719	121,222
303,676	4,517	236,590	120,785
304,691	4,476	236,464	120,678
305,706	4,829	236,085	120,750
306,720	4,928	236,051	120,799
307,735	4,641	235,982	120,529
308,749	4,701	235,694	120,418
309,764	4,365	235,574	120,085
310,779	4,278	235,084	119,757
311,793	4,068	235,056	119,569
312,808	4,134	234,960	119,560
313,822	4,360	234,735	119,610
314,837	4,002	234,592	119,249
315,852	3,879	234,536	119,115
316,866	4,105	234,389	119,204
317,881	4,291	234,343	119,314
318,895	4,402	234,099	119,265
319,910	4,516	233,995	119,290
320,925	4,723	233,736	119,307
321,939	4,330	233,633	118,941
322,954	4,675	233,690	119,225
323,968	4,709	233,399	119,092
324,983	4,531	233,270	118,879
325,997	4,682	233,151	118,924
327,012	4,613	232,981	118,773
328,027	4,443	232,959	118,620
329,041	4,562	232,947	118,695
330,056	5,108	232,728	118,992
331,070	5,246	232,577	119,010
332,085	4,667	232,429	118,480
333,100	4,505	231,957	118,105
334,114	4,577	232,005	118,174
335,129	4,690	231,911	118,203
336,143	4,739	231,986	118,268
337,158	4,670	231,756	118,087
338,173	4,627	231,301	117,811
339,187	4,355	231,110	117,497
340,202	4,542	231,103	117,625
341,216	4,418	230,994	117,465
342,231	4,397	230,755	117,317
343,246	4,397	230,603	117,229
344,260	4,513	230,658	117,334
345,275	4,697	230,539	117,403
346,289	4,520	230,357	117,166
347,304	4,687	230,149	117,176
348,319	4,815	230,059	117,217
349,333	4,596	229,838	116,929
350,348	4,353	229,598	116,612
351,362	4,402	229,437	116,557
352,377	4,063	229,216	116,179
353,392	3,991	229,071	116,040
354,406	4,204	229,080	116,195
355,421	195,731	1320,970	1397,474
356,435	156,997	1453,961	1397,430
