DTS Sentinel unit serial number:	SN410029Multiplexer serial number:	ORYXHardware model number:	OX2-SRSoftware version number:	ORYX F/W v4,00 Oryx Data Collector v3.7.2.0data status	okinstallation	B5 Nyhavnadifferential loss correction	single-endedforward channel	channel 2reverse channel	N/Adate	2023/12/11time	19:07:13forward acquisition time	300,00reverse acquisition time	0,00gamma	499,1914k internal	0,3160k external	0,3160temperature offset calibration	1,0000default loss term (dB/km)	0,3820temperature slope calibration	1,0000multiplexer offset coefficient	1,0000multiplexer slope coefficient	1,0000fibre end	0,00T internal ref (°C)	15,50T ext. ref 1 (°C)	-0,24T ext. ref 2 (°C)	-0,44length (m)	temperature (°C)	Stokes	anti-Stokes-744,400	-108,726	0,046	0,007
-743,385	-63,628	-0,347	0,104
-742,371	26,755	0,093	-0,057
-741,356	-100,347	-0,250	0,045
-740,342	-200,000	0,030	0,116
-739,327	-57,769	-0,297	0,095
-738,312	-200,000	-0,025	-0,122
-737,298	-132,562	-0,237	0,022
-736,283	34,062	0,131	0,084
-735,269	-152,211	-0,227	-0,012
-734,254	18,806	0,174	0,102
-733,239	-110,410	-0,477	-0,072
-732,225	100,197	0,131	0,112
-731,210	800,000	-0,040	0,090
-730,196	-200,000	-0,005	0,072
-729,181	87,565	0,040	0,032
-728,167	-118,305	-0,141	-0,018
-727,152	132,855	-0,043	-0,041
-726,137	-200,000	0,003	0,085
-725,123	-200,000	-0,007	-0,033
-724,108	-200,000	0,000	0,129
-723,094	14,833	-0,163	-0,094
-722,079	4,969	0,063	-0,034
-721,064	800,000	0,010	0,032
-720,050	104,536	-0,066	0,057
-719,035	-158,395	-0,058	-0,002
-718,021	-200,000	0,004	-0,027
-717,006	3,565	-0,136	0,073
-715,991	800,000	-0,041	-0,123
-714,977	481,396	-0,033	-0,055
-713,962	800,000	0,018	-0,052
-712,948	-200,000	-0,009	-0,062
-711,933	440,529	-0,039	-0,064
-710,918	800,000	0,024	0,058
-709,904	-200,000	-0,022	-0,133
-708,889	-43,027	-0,133	-0,049
-707,875	800,000	-0,030	-0,071
-706,860	-200,000	0,166	0,000
-705,845	-200,000	-0,005	0,105
-704,831	-125,811	0,089	0,010
-703,816	391,218	-0,014	0,021
-702,802	-200,000	0,009	-0,039
-701,787	-86,237	-0,095	0,021
-700,772	198,053	-0,039	-0,044
-699,758	-200,000	-0,008	-0,077
-698,743	-180,457	-0,017	-0,000
-697,729	-174,793	0,179	-0,004
-696,714	227,706	-0,068	0,081
-695,699	-200,000	0,030	-0,169
-694,685	126,607	0,038	0,036
-693,670	-4,128	-0,081	-0,041
-692,656	-144,920	0,074	-0,005
-691,641	-90,183	0,092	-0,019
-690,627	292,342	-0,057	0,076
-689,612	179,093	0,091	0,098
-688,597	-82,487	-0,152	0,036
-687,583	800,000	-0,028	0,078
-686,568	399,021	-0,067	0,104
-685,554	800,000	-0,041	-0,098
-684,539	387,724	0,022	0,034
-683,524	-200,000	-0,013	0,155
-682,510	-94,681	0,061	0,012
-681,495	139,466	-0,037	0,036
-680,481	-112,087	-0,198	-0,029
-679,466	275,125	-0,049	-0,064
-678,451	-200,000	0,002	0,043
-677,437	-61,798	-0,044	-0,014
-676,422	-51,200	0,113	0,039
-675,408	-0,088	-0,064	0,033
-674,393	87,510	-0,066	0,054
-673,378	223,223	-0,051	-0,061
-672,364	202,076	-0,028	0,031
-671,349	-200,000	-0,005	0,039
-670,335	800,000	-0,019	-0,042
-669,320	-200,000	0,014	0,089
-668,305	-15,636	0,013	0,006
-667,291	15,322	-0,051	0,029
-666,276	-35,637	0,024	0,009
-665,262	23,402	0,069	-0,042
-664,247	-71,444	-0,147	-0,040
-663,232	170,899	-0,018	-0,019
-662,218	28,310	-0,113	0,070
-661,203	16,869	0,039	-0,023
-660,189	-120,945	-0,196	0,024
-659,174	-99,799	0,096	-0,017
-658,159	335,955	-0,048	-0,069
-657,145	421,109	0,071	0,112
-656,130	800,000	0,071	-0,161
-655,116	268,255	0,024	-0,031
-654,101	202,097	-0,083	-0,094
-653,086	-200,000	-0,015	0,065
-652,072	534,450	-0,072	-0,126
-651,057	38,016	-0,166	-0,108
-650,043	446,379	0,046	0,074
-649,028	167,023	-0,066	-0,069
-648,014	257,302	-0,047	0,060
-646,999	23,058	0,103	-0,062
-645,984	68,109	0,029	0,022
-644,970	-160,283	-0,085	-0,003
-643,955	-200,000	-0,011	-0,114
-642,941	-71,436	-0,058	-0,016
-641,926	-46,379	0,121	0,043
-640,911	-200,000	-0,023	0,086
-639,897	298,028	-0,035	0,047
-638,882	431,865	-0,027	-0,042
-637,868	-47,537	-0,067	-0,024
-636,853	-26,349	-0,045	-0,019
-635,838	-200,000	0,003	-0,042
-634,824	-7,876	0,036	0,018
-633,809	-200,000	0,000	-0,102
-632,795	-111,909	-0,065	-0,009
-631,780	-71,427	0,048	0,013
-630,765	694,949	0,046	-0,089
-629,751	800,000	0,007	0,016
-628,736	-102,693	-0,100	0,017
-627,722	-87,049	-0,088	-0,020
-626,707	20,109	0,068	0,040
-625,692	28,601	0,053	0,033
-624,678	-200,000	-0,023	-0,107
-623,663	-200,000	0,017	0,136
-622,649	33,668	-0,023	0,015
-621,634	55,380	-0,022	-0,015
-620,619	363,986	-0,093	-0,138
-619,605	-200,000	-0,022	-0,125
-618,590	26,250	-0,115	0,070
-617,576	-200,000	0,023	0,173
-616,561	74,651	-0,045	0,034
-615,546	122,675	0,081	-0,075
-614,532	-61,806	-0,062	-0,019
-613,517	197,692	0,059	-0,066
-612,503	-200,000	-0,001	-0,080
-611,488	-113,196	-0,043	-0,006
-610,474	-134,210	0,028	0,003
-609,459	-200,000	0,004	0,083
-608,444	-24,095	-0,083	-0,036
-607,430	800,000	-0,053	0,114
-606,415	-15,998	0,082	-0,038
-605,401	-200,000	-0,017	0,148
-604,386	-200,000	0,012	-0,109
-603,371	800,000	0,061	0,131
-602,357	48,979	0,048	0,033
-601,342	-200,000	0,010	-0,168
-600,328	-200,000	0,037	-0,273
-599,313	-93,151	-0,086	-0,017
-598,298	188,726	-0,078	0,086
-597,284	141,391	0,045	-0,044
-596,269	-180,853	0,018	0,000
-595,255	599,055	-0,026	-0,048
-594,240	151,303	-0,048	-0,048
-593,225	800,000	0,052	-0,151
-592,211	257,944	-0,096	-0,122
-591,196	636,458	0,009	-0,016
-590,182	800,000	0,019	-0,047
-589,167	527,417	-0,063	0,110
-588,152	91,130	0,066	-0,054
-587,138	-62,259	-0,132	0,040
-586,123	-14,662	0,121	-0,057
-585,109	800,000	-0,042	0,100
-584,094	465,575	0,069	0,114
-583,079	56,167	0,148	-0,105
-582,065	524,481	0,086	-0,149
-581,050	121,207	0,053	0,048
-580,036	342,806	0,054	-0,078
-579,021	651,107	-0,026	-0,050
-578,006	769,860	-0,013	-0,026
-576,992	-200,000	-0,010	-0,064
-575,977	106,352	0,076	0,066
-574,963	-50,297	-0,115	-0,040
-573,948	-117,064	0,206	-0,027
-572,934	-177,226	-0,040	0,001
-571,919	-70,173	-0,135	-0,037
-570,904	90,237	-0,055	0,045
-569,890	-200,000	0,007	0,087
-568,875	-80,923	-0,063	0,015
-567,861	236,915	0,029	0,036
-566,846	9,011	0,183	-0,101
-565,831	528,252	-0,041	-0,070
-564,817	-94,380	-0,125	-0,025
-563,802	302,901	-0,066	-0,090
-562,788	-132,739	-0,083	0,008
-561,773	39,484	-0,086	0,056
-560,758	43,562	0,094	0,063
-559,744	187,688	-0,059	0,064
-558,729	465,448	-0,075	-0,123
-557,715	-66,938	-0,071	-0,020
-556,700	36,320	0,071	-0,046
-555,685	-200,000	-0,001	-0,016
-554,671	106,938	0,100	0,087
-553,656	6,939	0,081	-0,044
-552,642	-148,983	-0,096	-0,006
-551,627	-58,267	0,084	0,027
-550,612	14,738	0,058	-0,033
-549,598	-66,166	0,060	0,017
-548,583	-25,370	-0,145	0,062
-547,569	32,909	0,025	-0,016
-546,554	29,291	0,183	0,114
-545,539	42,925	0,035	0,023
-544,525	-200,000	-0,007	0,023
-543,510	733,235	-0,043	-0,084
-542,496	-200,000	-0,011	0,052
-541,481	800,000	0,038	-0,120
-540,466	22,081	-0,064	-0,038
-539,452	273,580	0,048	-0,062
-538,437	-200,000	0,005	0,024
-537,423	113,004	-0,050	-0,044
-536,408	792,894	-0,034	-0,069
-535,393	-72,435	-0,101	-0,027
-534,379	232,734	-0,040	0,048
-533,364	-200,000	0,023	-0,156
-532,350	39,840	-0,032	-0,021
-531,335	-200,000	-0,017	0,069
-530,321	-182,442	0,161	0,002
-529,306	-145,734	-0,058	-0,004
-528,291	24,012	0,090	0,054
-527,277	246,732	0,023	0,028
-526,262	562,937	-0,036	-0,064
-525,248	39,284	-0,048	-0,031
-524,233	-136,154	0,088	-0,007
-523,218	-95,914	-0,077	0,015
-522,204	800,000	-0,021	-0,053
-521,189	45,079	-0,052	-0,035
-520,175	-200,000	-0,015	-0,050
-519,160	-200,000	-0,005	-0,027
-518,145	199,769	0,072	0,081
-517,131	-109,678	-0,010	-0,002
-516,116	-148,768	0,082	-0,005
-515,102	800,000	-0,010	-0,027
-514,087	-21,053	-0,114	0,051
-513,072	136,483	0,137	-0,131
-512,058	800,000	0,056	-0,162
-511,043	5,157	-0,041	-0,022
-510,029	800,000	-0,039	0,107
-509,014	-160,916	-0,042	-0,002
-507,999	-84,771	0,104	0,024
-506,985	-200,000	-0,001	-0,016
-505,970	-97,214	-0,077	0,015
-504,956	800,000	0,042	-0,098
-503,941	181,939	0,110	0,119
-502,926	-200,000	0,014	0,050
-501,912	-200,000	0,037	0,123
-500,897	800,000	0,011	-0,026
-499,883	-200,000	-0,015	-0,109
-498,868	-135,019	-0,155	-0,013
-497,853	800,000	0,025	-0,078
-496,839	-112,910	-0,046	-0,007
-495,824	-89,513	-0,158	0,034
-494,810	37,791	-0,032	0,021
-493,795	-110,093	0,074	0,011
-492,781	800,000	0,043	-0,109
-491,766	50,858	0,018	0,013
-490,751	21,894	-0,013	-0,008
-489,737	-200,000	-0,023	0,109
-488,722	-6,548	0,127	0,063
-487,708	-200,000	0,010	0,050
-486,693	210,611	-0,075	0,086
-485,678	-125,967	-0,037	0,004
-484,664	27,935	0,091	-0,056
-483,649	-158,367	0,033	0,001
-482,635	-200,000	-0,006	-0,065
-481,620	-200,000	-0,008	-0,056
-480,605	-200,000	0,011	0,126
-479,591	-96,236	0,049	-0,009
-478,576	-200,000	-0,007	0,049
-477,562	5,919	-0,146	0,079
-476,547	128,054	-0,082	0,076
-475,532	-200,000	0,039	0,146
-474,518	-88,601	0,117	-0,025
-473,503	371,960	0,038	0,056
-472,489	-122,384	0,053	0,006
-471,474	95,209	0,068	-0,056
-470,459	-86,638	-0,078	0,017
-469,445	132,550	-0,124	-0,116
-468,430	-71,422	0,061	0,017
-467,416	164,879	0,098	0,100
-466,401	-112,612	0,137	-0,020
-465,386	83,374	0,074	-0,059
-464,372	461,364	0,057	0,094
-463,357	-200,000	-0,005	-0,099
-462,343	242,322	0,020	-0,024
-461,328	800,000	0,058	-0,118
-460,313	-99,041	0,118	-0,022
-459,299	-200,000	0,013	-0,134
-458,284	-120,790	0,106	0,013
-457,270	-150,507	0,111	-0,006
-456,255	-200,000	0,007	-0,125
-455,241	-102,706	-0,084	0,014
-454,226	349,971	0,022	0,032
-453,211	11,809	0,066	0,037
-452,197	41,651	0,069	0,045
-451,182	-66,656	0,158	-0,045
-450,168	7,923	-0,151	0,082
-449,153	192,689	0,057	0,063
-448,138	608,098	-0,035	-0,064
-447,124	-200,000	0,025	-0,115
-446,109	-200,000	-0,008	-0,081
-445,095	99,339	-0,092	0,077
-444,080	374,827	0,037	0,055
-443,065	-200,000	0,006	-0,038
-442,051	-169,416	-0,085	0,002
-441,036	-200,000	-0,010	-0,068
-440,022	800,000	-0,065	0,135
-439,007	30,291	0,091	-0,057
-437,992	85,888	0,065	0,052
-436,978	410,863	-0,057	0,089
-435,963	-200,000	0,017	-0,145
-434,949	333,894	-0,046	-0,065
-433,934	-124,022	-0,140	0,016
-432,919	98,389	0,034	0,029
-431,905	-88,813	-0,065	0,014
-430,890	269,931	0,021	0,027
-429,876	-13,137	0,033	0,015
-428,861	11,903	-0,101	-0,056
-427,846	-105,864	0,048	-0,008
-426,832	-134,371	0,073	0,006
-425,817	158,464	-0,121	0,122
-424,803	800,000	-0,004	0,012
-423,788	708,349	0,056	0,108
-422,773	568,337	-0,060	0,107
-421,759	-200,000	0,010	-0,037
-420,744	800,000	-0,012	-0,024
-419,730	-200,000	0,021	0,101
-418,715	-200,000	-0,034	-0,132
-417,701	-200,000	0,002	0,037
-416,686	10,662	-0,022	-0,012
-415,671	-200,000	0,000	0,019
-414,657	800,000	0,034	0,097
-413,642	156,059	0,094	0,094
-412,628	-34,203	0,043	0,017
-411,613	169,447	-0,137	-0,142
-410,598	253,703	-0,044	-0,055
-409,584	-135,531	-0,196	-0,017
-408,569	28,170	0,045	0,028
-407,555	-200,000	0,004	0,048
-406,540	-53,494	-0,087	0,029
-405,525	800,000	0,046	0,109
-404,511	-42,985	-0,040	-0,015
-403,496	-28,675	0,116	-0,048
-402,482	21,435	0,097	-0,057
-401,467	-200,000	0,004	0,062
-400,452	-101,656	0,109	0,019
-399,438	-3,382	-0,114	0,058
-398,423	-200,000	-0,022	-0,113
-397,409	800,000	0,009	0,019
-396,394	87,455	-0,011	0,009
-395,379	3,897	-0,050	0,027
-394,365	-200,000	0,012	0,048
-393,350	-200,000	-0,006	0,033
-392,336	148,642	-0,039	0,039
-391,321	800,000	-0,015	-0,030
-390,306	370,202	-0,063	-0,093
-389,292	54,274	0,141	0,099
-388,277	-193,070	0,127	-0,001
-387,263	83,305	0,076	-0,060
-386,248	-200,000	-0,008	-0,100
-385,233	-200,000	-0,001	0,038
-384,219	-83,321	-0,054	-0,012
-383,204	391,172	-0,043	-0,065
-382,190	217,901	-0,059	-0,069
-381,175	-200,000	-0,001	0,030
-380,160	-200,000	-0,034	0,139
-379,146	228,125	0,129	0,153
-378,131	-148,551	-0,099	-0,006
-377,117	-200,000	0,001	0,009
-376,102	6,085	-0,069	-0,037
-375,088	-200,000	-0,005	-0,158
-374,073	800,000	-0,039	-0,125
-373,058	550,241	-0,027	0,047
-372,044	800,000	0,036	-0,073
-371,029	-151,293	0,094	0,005
-370,015	-200,000	0,013	0,079
-369,000	-143,279	-0,050	-0,003
-367,985	-200,000	-0,001	0,071
-366,971	98,869	-0,087	-0,073
-365,956	-99,888	0,133	-0,024
-364,942	93,089	0,034	0,028
-363,927	-200,000	-0,008	0,027
-362,912	214,370	-0,051	0,059
-361,898	-59,693	-0,104	0,032
-360,883	-200,000	-0,050	-0,248
-359,869	-200,000	-0,006	-0,079
-358,854	-99,395	0,082	-0,015
-357,839	-58,459	-0,024	0,007
-356,825	-50,380	0,096	0,033
-355,810	-8,769	-0,149	0,072
-354,796	-200,000	-0,019	0,091
-353,781	-200,000	-0,006	0,067
-352,766	-200,000	0,011	-0,101
-351,752	89,914	0,072	0,058
-350,737	-140,371	-0,056	-0,004
-349,723	-78,980	0,055	-0,014
-348,708	-130,852	0,101	-0,010
-347,693	225,669	0,067	-0,078
-346,679	66,175	0,115	-0,085
-345,664	249,201	0,045	0,055
-344,650	283,481	0,093	0,121
-343,635	38,900	0,045	0,029
-342,620	-153,130	-0,111	-0,006
-341,606	14,951	-0,087	0,049
-340,591	127,718	-0,050	-0,046
-339,577	-87,949	-0,092	0,020
-338,562	370,590	-0,092	-0,136
-337,548	742,664	0,030	-0,059
-336,533	-26,939	0,094	-0,040
-335,518	-200,000	0,024	-0,172
-334,504	-159,181	0,061	-0,002
-333,489	-200,000	-0,032	-0,109
-332,475	-200,000	0,036	-0,136
-331,460	-17,105	-0,104	0,047
-330,445	-200,000	0,000	0,057
-329,431	800,000	-0,085	0,185
-328,416	233,337	0,054	0,064
-327,402	-21,798	-0,138	0,061
-326,387	-89,706	-0,038	0,008
-325,372	-200,000	-0,002	-0,086
-324,358	-3,344	-0,041	0,020
-323,343	137,064	-0,038	-0,036
-322,329	-200,000	-0,039	0,183
-321,314	26,703	-0,099	0,060
-320,299	60,353	0,094	0,068
-319,285	-135,030	-0,157	-0,014
-318,270	-200,000	-0,013	-0,090
-317,256	-200,000	-0,014	0,156
-316,241	800,000	-0,029	0,073
-315,226	88,966	0,107	-0,086
-314,212	-200,000	-0,006	0,041
-313,197	418,833	0,071	0,111
-312,183	-200,000	0,007	-0,064
-311,168	143,252	-0,099	-0,095
-310,153	-128,445	-0,166	0,017
-309,139	-141,602	0,025	-0,002
-308,124	-78,697	0,134	0,033
-307,110	150,728	0,124	0,122
-306,095	184,766	0,055	0,059
-305,080	33,982	0,068	-0,043
-304,066	-200,000	0,008	0,120
-303,051	-200,000	0,049	-0,157
-302,037	-200,000	0,005	0,023
-301,022	160,191	0,070	0,070
-300,008	-9,740	0,145	0,070
-298,993	800,000	0,041	0,091
-297,978	-200,000	-0,006	-0,098
-296,964	147,103	0,075	-0,073
-295,949	506,465	-0,041	-0,069
-294,935	-4,109	-0,064	-0,032
-293,920	698,541	-0,013	-0,025
-292,905	-63,881	0,173	-0,051
-291,891	800,000	0,015	0,045
-290,876	-200,000	-0,032	0,117
-289,862	349,662	0,029	0,041
-288,847	345,419	-0,045	-0,065
-287,832	401,236	-0,069	0,106
-286,818	800,000	0,045	-0,097
-285,803	800,000	0,037	0,087
-284,789	-200,000	-0,020	0,067
-283,774	1,534	0,053	-0,028
-282,759	200,725	-0,094	0,105
-281,745	46,165	-0,077	0,052
-280,730	-200,000	-0,023	-0,123
-279,716	-88,367	-0,063	0,013
-278,701	-33,569	0,072	0,028
-277,686	142,418	0,049	0,047
-276,672	-27,900	0,031	-0,013
-275,657	-111,217	0,142	-0,021
-274,643	-179,722	-0,040	0,001
-273,628	-200,000	-0,049	-0,159
-272,613	-129,820	-0,227	0,022
-271,599	615,379	-0,026	0,047
-270,584	800,000	0,040	-0,092
-269,570	-53,858	0,175	0,057
-268,555	-40,007	-0,069	-0,026
-267,540	-200,000	0,033	-0,123
-266,526	800,000	0,045	-0,111
-265,511	28,620	-0,089	0,054
-264,497	800,000	-0,025	-0,059
-263,482	-200,000	0,025	-0,152
-262,467	76,890	0,147	-0,112
-261,453	800,000	0,016	-0,042
-260,438	450,594	-0,030	-0,048
-259,424	138,999	-0,125	-0,119
-258,409	-54,588	0,062	0,020
-257,395	349,115	-0,055	0,078
-256,380	-200,000	0,006	0,163
-255,365	681,080	0,100	0,188
-254,351	-200,000	0,013	-0,097
-253,336	800,000	0,015	-0,035
-252,322	-200,000	0,022	-0,083
-251,307	57,562	-0,116	0,082
-250,292	178,181	0,090	0,096
-249,278	770,059	-0,032	0,063
-248,263	50,901	0,051	0,035
-247,249	0,826	-0,107	0,055
-246,234	-123,240	-0,154	0,018
-245,219	800,000	-0,031	0,092
-244,205	-62,888	0,088	0,026
-243,190	110,900	0,041	0,036
-242,176	-200,000	-0,022	-0,085
-241,161	-200,000	0,003	-0,181
-240,146	-56,452	0,021	-0,007
-239,132	63,549	0,043	0,031
-238,117	30,046	-0,187	-0,115
-237,103	-84,996	-0,019	-0,004
-236,088	118,020	0,070	0,062
-235,073	-186,107	0,068	0,001
-234,059	800,000	0,033	-0,105
-233,044	-16,602	-0,088	0,040
-232,030	-42,026	-0,030	0,011
-231,015	129,043	0,082	0,076
-230,000	-56,500	-0,229	-0,073
-228,986	416,924	0,056	0,086
-227,971	42,879	-0,115	0,075
-226,957	6,304	-0,028	-0,015
-225,942	-200,000	-0,024	-0,086
-224,927	608,499	0,064	0,116
-223,913	-26,385	-0,195	0,082
-222,898	104,119	-0,039	0,033
-221,884	362,389	0,044	0,065
-220,869	800,000	0,049	0,135
-219,855	-200,000	0,041	0,149
-218,840	-200,000	-0,006	0,051
-217,825	-68,413	0,039	0,011
-216,811	614,852	-0,084	-0,153
-215,796	-200,000	0,002	-0,106
-214,782	458,537	0,059	-0,095
-213,767	195,169	0,071	0,077
-212,752	-200,000	-0,044	0,191
-211,738	-200,000	0,014	0,075
-210,723	126,354	0,047	-0,043
-209,709	-36,912	0,062	0,024
-208,694	-200,000	-0,002	0,032
-207,679	-161,594	-0,108	-0,004
-206,665	107,098	0,042	-0,036
-205,650	-108,303	0,084	-0,013
-204,636	79,296	0,064	0,050
-203,621	25,261	0,059	0,035
-202,606	-105,587	-0,098	0,016
-201,592	-17,552	-0,051	-0,023
-200,577	800,000	-0,051	-0,160
-199,563	509,739	0,051	-0,086
-198,548	105,072	0,035	-0,029
-197,533	-17,081	-0,028	-0,013
-196,519	-200,000	-0,007	0,042
-195,504	-200,000	0,011	-0,039
-194,490	-144,976	-0,086	-0,006
-193,475	-36,664	-0,048	0,019
-192,460	-119,348	-0,055	-0,007
-191,446	238,696	0,070	0,085
-190,431	34,265	-0,071	-0,045
-189,417	584,499	0,048	-0,085
-188,402	-200,000	-0,017	0,059
-187,387	-200,000	-0,050	0,195
-186,373	-58,188	-0,044	0,014
-185,358	800,000	0,048	0,097
-184,344	20,186	-0,035	-0,020
-183,329	-96,489	0,121	0,023
-182,315	45,812	0,063	0,042
-181,300	181,525	0,073	0,078
-180,285	-88,080	-0,092	0,020
-179,271	-200,000	-0,001	-0,140
-178,256	-200,000	-0,011	-0,080
-177,242	-67,046	0,131	0,037
-176,227	-200,000	0,019	0,076
-175,212	-95,933	-0,106	0,020
-174,198	800,000	-0,034	0,075
-173,183	800,000	-0,013	0,037
-172,169	415,295	0,020	-0,031
-171,154	35,242	0,041	0,026
-170,139	-200,000	-0,014	-0,094
-169,125	-82,616	0,172	-0,040
-168,110	495,641	-0,060	0,099
-167,096	-121,707	-0,088	0,010
-166,081	-74,505	0,087	-0,023
-165,066	-1,952	-0,129	0,065
-164,052	563,192	0,058	0,102
-163,037	480,884	0,025	-0,042
-162,023	-13,061	-0,075	-0,035
-161,008	-101,306	0,059	-0,010
-159,993	92,797	-0,053	0,043
-158,979	112,278	-0,065	0,057
-157,964	86,486	0,066	0,052
-156,950	34,582	-0,078	0,049
-155,935	131,741	0,110	0,102
-154,920	-200,000	-0,010	0,059
-153,906	385,873	-0,033	0,049
-152,891	-200,000	-0,014	-0,104
-151,877	399,015	-0,062	-0,094
-150,862	27,124	-0,100	-0,060
-149,847	644,330	0,038	-0,069
-148,833	-163,176	0,101	0,003
-147,818	800,000	-0,026	-0,071
-146,804	7,024	0,050	0,027
-145,789	800,000	0,033	0,077
-144,775	-102,180	-0,147	0,025
-143,760	109,762	-0,058	-0,050
-142,745	275,977	-0,052	0,066
-141,731	115,534	0,086	-0,076
-140,716	115,840	0,048	-0,043
-139,702	-76,515	0,076	0,019
-138,687	490,660	0,109	0,180
-137,672	-17,360	-0,024	0,011
-136,658	11,374	-0,056	-0,031
-135,643	6,936	-0,095	-0,051
-134,629	-75,086	0,196	-0,050
-133,614	-94,349	0,092	-0,018
-132,599	800,000	-0,047	0,127
-131,585	146,208	0,101	0,097
-130,570	-94,579	0,047	0,009
-129,556	52,228	-0,146	-0,100
-128,541	-115,845	-0,139	0,019
-127,526	800,000	0,007	-0,019
-126,512	-200,000	-0,020	-0,079
-125,497	231,281	0,005	0,006
-124,483	-200,000	0,028	-0,134
-123,468	-42,532	-0,114	0,042
-122,453	800,000	-0,036	-0,089
-121,439	69,098	0,087	-0,065
-120,424	200,567	0,028	0,031
-119,410	3,089	0,112	0,058
-118,395	-5,385	0,076	-0,037
-117,380	378,382	-0,057	0,083
-116,366	200,668	-0,048	0,053
-115,351	87,265	0,067	0,053
-114,337	621,356	-0,098	-0,178
-113,322	-53,392	0,034	-0,011
-112,307	-16,065	0,183	0,083
-111,293	105,433	0,079	0,067
-110,278	-200,000	0,013	0,085
-109,264	286,139	-0,053	0,068
-108,249	-6,721	0,090	-0,044
-107,234	800,000	0,047	-0,113
-106,220	-200,000	-0,007	0,133
-105,205	-45,737	-0,094	-0,033
-104,191	464,255	0,027	0,044
-103,176	-200,000	0,006	0,106
-102,162	12,389	-0,066	0,037
-101,147	-90,909	-0,087	-0,018
-100,132	-200,000	0,018	-0,068
-99,118	682,831	-0,052	-0,097
-98,103	22,031	0,084	0,049
-97,089	800,000	0,024	0,051
-96,074	-163,387	0,060	0,002
-95,059	-200,000	-0,003	0,019
-94,045	800,000	0,007	-0,017
-93,030	27,635	-0,010	0,006
-92,016	-200,000	0,020	0,148
-91,001	-60,554	0,089	-0,027
-89,986	-200,000	0,002	0,013
-88,972	443,769	0,019	0,031
-87,957	751,582	0,028	0,054
-86,943	49,562	0,030	-0,020
-85,928	458,115	-0,096	-0,154
-84,913	85,715	-0,045	0,035
-83,899	332,260	-0,013	-0,018
-82,884	42,060	0,091	-0,059
-81,870	21,892	0,020	-0,012
-80,855	35,622	0,147	0,092
-79,840	-200,000	0,000	-0,049
-78,826	180,453	0,048	-0,051
-77,811	-151,024	-0,119	0,006
-76,797	-81,795	0,072	-0,017
-75,782	212,925	-0,094	0,107
-74,767	73,249	0,118	0,089
-73,753	-59,143	0,166	0,051
-72,738	800,000	0,049	0,116
-71,724	254,243	-0,035	-0,043
-70,709	-67,990	-0,089	-0,025
-69,694	0,943	0,090	0,046
-68,680	22,507	0,088	-0,052
-67,665	709,651	-0,057	-0,109
-66,651	800,000	0,008	0,019
-65,636	281,694	-0,010	-0,013
-64,622	-140,898	0,073	0,005
-63,607	87,985	0,125	-0,099
-62,592	-200,000	-0,017	-0,068
-61,578	98,791	-0,038	0,032
-60,563	-111,654	0,077	-0,011
-59,549	800,000	-0,032	0,079
-58,534	3,368	-1,958	-1,020
-57,519	800,000	-0,336	-0,922
-56,505	-200,000	-1,228	-4,807
-55,490	5,152	0,773	0,407
-54,476	800,000	5,334	12,057
-53,461	-200,000	17,617	283,071
-52,446	800,000	726,234	2211,013
-51,432	532,498	1642,295	2797,920
-50,417	110,062	1633,092	1405,200
-49,403	74,539	1286,361	968,889
-48,388	32,076	1027,708	633,893
-47,373	20,185	989,545	571,179
-46,359	18,511	977,617	558,787
-45,344	15,841	973,620	547,750
-44,330	16,015	972,160	547,477
-43,315	15,527	970,471	544,912
-42,300	15,508	969,312	544,177
-41,286	15,500	968,251	543,535
-40,271	15,569	967,084	543,082
-39,257	15,558	966,253	542,557
-38,242	15,533	965,463	542,011
-37,227	15,551	964,796	541,674
-36,213	15,553	963,838	541,119
-35,198	15,510	962,990	540,482
-34,184	15,582	962,237	540,271
-33,169	15,479	961,242	539,360
-32,154	15,605	960,141	539,128
-31,140	15,499	959,465	538,383
-30,125	15,515	958,779	538,027
-29,111	15,530	957,955	537,595
-28,096	15,547	957,294	537,257
-27,082	15,574	956,546	536,902
-26,067	15,528	955,842	536,336
-25,052	15,570	954,994	535,975
-24,038	15,491	954,354	535,342
-23,023	15,511	953,650	534,989
-22,009	15,535	953,226	534,807
-20,994	15,572	952,573	534,538
-19,979	15,546	951,850	534,029
-18,965	15,534	951,186	533,596
-17,950	15,545	950,664	533,317
-16,936	15,480	949,870	532,644
-15,921	15,476	949,251	532,260
-14,906	15,415	948,602	531,683
-13,892	15,418	947,807	531,226
-12,877	15,371	947,352	530,798
-11,863	15,306	946,778	530,251
-10,848	15,426	946,124	530,244
-9,833	15,555	945,536	530,303
-8,819	15,435	945,047	529,626
-7,804	15,451	944,504	529,352
-6,790	15,389	944,010	528,858
-5,775	15,462	943,385	528,719
-4,760	15,427	942,747	528,228
-3,746	15,478	941,959	527,928
-2,731	15,334	941,143	526,993
-1,717	15,232	940,820	526,471
-0,702	15,290	939,974	526,158
0,313	15,053	939,350	525,856
1,327	18,316	937,060	534,797
2,342	27,419	794,184	477,344
3,356	24,187	458,947	270,889
4,371	-2,899	314,187	156,712
5,386	-6,780	295,911	143,665
6,400	-8,639	289,930	138,907
7,415	-9,252	287,652	137,201
8,429	-9,351	285,926	136,269
9,444	-9,340	284,891	135,773
10,459	-9,415	284,538	135,520
11,473	-9,434	283,815	135,145
12,488	-9,268	283,356	135,076
13,502	-9,468	282,775	134,593
14,517	-9,503	282,380	134,360
15,531	-9,449	281,826	134,136
16,546	-9,559	281,381	133,806
17,561	-9,514	280,947	133,631
18,575	-9,519	280,794	133,542
19,590	-9,736	280,362	133,116
20,604	-9,616	280,277	133,179
21,619	-9,647	279,582	132,807
22,634	-9,689	279,373	132,656
23,648	-9,886	279,109	132,331
24,663	-9,794	278,857	132,288
25,677	-9,635	278,474	132,245
26,692	-9,601	278,373	132,218
27,707	-9,743	278,132	131,957
28,721	-9,675	277,738	131,823
29,736	-9,750	277,460	131,608
30,750	-9,828	277,269	131,432
31,765	-9,699	277,092	131,458
32,780	-9,809	276,749	131,179
33,794	-9,855	276,683	131,094
34,809	-9,693	276,213	131,012
35,823	-9,556	275,886	130,974
36,838	-9,601	275,544	130,757
37,853	-9,673	275,378	130,599
38,867	-10,080	275,326	130,181
39,882	-9,808	274,966	130,254
40,896	-9,765	274,711	130,162
41,911	-9,632	274,524	130,186
42,926	-9,833	274,151	129,809
43,940	-9,964	274,067	129,636
44,955	-9,778	273,639	129,595
45,969	-9,790	273,460	129,488
46,984	-10,019	273,110	129,097
47,999	-10,206	273,031	128,875
49,013	-10,234	272,859	128,756
50,028	-10,147	272,508	128,660
51,042	-10,338	272,170	128,312
52,057	-10,280	271,893	128,223
53,071	-10,313	271,690	128,085
54,086	-10,154	271,598	128,178
55,101	-10,295	271,472	127,977
56,115	-9,963	271,326	128,203
57,130	-9,621	271,133	128,417
58,144	-9,402	270,967	128,528
59,159	-9,447	270,702	128,349
60,174	-9,461	270,558	128,257
61,188	-9,441	270,294	128,138
62,203	-9,560	269,979	127,868
63,217	-9,639	269,951	127,772
64,232	-9,505	269,520	127,679
65,247	-9,339	269,371	127,749
66,261	-9,429	269,103	127,528
67,276	-9,787	268,798	127,045
68,290	-9,876	268,654	126,885
69,305	-9,891	268,442	126,759
70,320	-9,928	268,120	126,562
71,334	-9,804	268,072	126,641
72,349	-9,488	267,712	126,747
73,363	-9,415	267,528	126,715
74,378	-9,416	267,361	126,624
75,393	-9,746	267,369	126,316
76,407	-9,475	267,146	126,446
77,422	-9,591	266,913	126,219
78,436	-9,505	266,632	126,154
79,451	-9,533	266,318	125,968
80,466	-9,789	266,142	125,642
81,480	-9,993	265,882	125,324
82,495	-9,838	265,747	125,388
83,509	-9,722	265,520	125,375
84,524	-9,839	265,352	125,179
85,539	-9,820	264,944	124,993
86,553	-9,871	264,925	124,927
87,568	-9,773	264,658	124,878
88,582	-9,774	264,502	124,792
89,597	-9,730	264,166	124,662
90,611	-9,470	264,024	124,817
91,626	-9,512	263,947	124,731
92,641	-9,632	263,776	124,532
93,655	-9,659	263,514	124,373
94,670	-9,642	263,168	124,214
95,684	-9,714	263,186	124,147
96,699	-9,473	262,851	124,193
97,714	-9,549	262,709	124,047
98,728	-9,860	262,555	123,686
99,743	-10,031	262,233	123,372
100,757	-9,871	262,050	123,417
101,772	-9,865	261,894	123,338
102,787	-9,634	261,515	123,353
103,801	-9,617	261,403	123,305
104,816	-9,709	261,352	123,188
105,830	-9,573	261,241	123,245
106,845	-9,439	260,899	123,191
107,860	-9,608	260,715	122,944
108,874	-9,488	260,517	122,945
109,889	-9,609	260,415	122,780
110,903	-9,652	260,005	122,537
111,918	-9,520	259,933	122,609
112,933	-9,706	259,687	122,318
113,947	-9,504	259,480	122,388
114,962	-9,434	259,376	122,388
115,976	-9,641	259,216	122,121
116,991	-9,633	259,090	122,058
118,006	-9,475	258,801	122,049
119,020	-9,794	258,687	121,705
120,035	-9,514	258,499	121,850
121,049	-9,701	258,362	121,612
122,064	-9,428	258,264	121,793
123,079	-9,495	257,892	121,549
124,093	-9,668	257,698	121,296
125,108	-9,683	257,500	121,178
126,122	-9,915	257,225	120,836
127,137	-10,035	256,936	120,586
128,151	-9,826	256,786	120,686
129,166	-9,621	256,598	120,765
130,181	-9,798	256,527	120,567
131,195	-9,795	256,177	120,394
132,210	-9,705	256,127	120,438
133,224	-9,546	255,911	120,463
134,239	-9,389	255,800	120,536
135,254	-9,609	255,764	120,318
136,268	-9,423	255,403	120,298
137,283	-9,808	255,191	119,855
138,297	-9,866	254,895	119,655
139,312	-9,707	254,675	119,679
140,327	-9,665	254,609	119,673
141,341	-9,334	254,564	119,926
142,356	-9,385	254,491	119,836
143,370	-9,399	254,241	119,697
144,385	-9,133	254,022	119,811
145,400	-9,358	253,940	119,568
146,414	-9,428	253,732	119,400
147,429	-9,441	253,449	119,245
148,443	-9,524	253,418	119,149
149,458	-9,421	253,121	119,087
150,473	-9,461	252,937	118,956
151,487	-9,419	252,675	118,858
152,502	-9,340	252,610	118,883
153,516	-9,480	252,426	118,667
154,531	-9,442	252,275	118,618
155,546	-9,445	252,135	118,539
156,560	-9,247	251,663	118,474
157,575	-9,530	251,609	118,198
158,589	-9,550	251,491	118,115
159,604	-9,367	251,272	118,157
160,619	-9,368	250,965	118,001
161,633	-9,310	250,829	117,976
162,648	-9,283	250,720	117,936
163,662	-9,384	250,626	117,797
164,677	-9,214	250,361	117,805
165,692	-9,368	250,343	117,656
166,706	-9,374	250,273	117,608
167,721	-9,270	249,893	117,506
168,735	-9,384	249,834	117,372
169,750	-9,218	249,616	117,399
170,764	-9,391	249,535	117,205
171,779	-9,165	249,343	117,295
172,794	-9,190	249,243	117,216
173,808	-9,383	248,910	116,887
174,823	-9,733	248,571	116,424
175,837	-9,891	248,441	116,221
176,852	-9,563	248,668	116,591
177,867	-9,540	248,399	116,473
178,881	-9,215	248,115	116,602
179,896	-9,246	247,955	116,490
180,910	-9,130	247,604	116,412
181,925	-9,221	247,590	116,319
182,940	-9,230	247,367	116,197
183,954	-9,278	247,262	116,097
184,969	-9,207	247,032	116,037
185,983	-9,305	246,961	115,912
186,998	-9,288	246,823	115,851
188,013	-9,232	246,577	115,772
189,027	-9,090	246,515	115,851
190,042	-9,178	246,367	115,697
191,056	-9,076	246,032	115,614
192,071	-9,169	245,818	115,427
193,086	-9,225	245,714	115,321
194,100	-9,117	245,537	115,317
195,115	-9,125	245,488	115,276
196,129	-9,026	245,137	115,184
197,144	-8,928	244,894	115,140
198,159	-9,185	244,861	114,902
199,173	-9,117	244,661	114,854
200,188	-9,061	244,416	114,775
201,202	-9,419	244,292	114,412
202,217	-9,754	244,042	114,011
203,232	-9,756	243,740	113,858
204,246	-9,330	243,759	114,205
205,261	-8,729	243,897	114,752
206,275	-9,365	243,417	113,996
207,290	-7,261	244,071	116,016
208,304	-2,155	245,931	121,099
209,319	0,860	246,735	123,971
210,334	1,435	246,704	124,419
211,348	1,633	246,551	124,493
212,363	2,146	246,471	124,864
213,377	2,191	246,521	124,915
214,392	2,031	246,324	124,672
215,407	1,984	246,128	124,524
216,421	2,341	245,797	124,638
217,436	2,287	245,749	124,558
218,450	2,228	245,635	124,441
219,465	2,050	245,404	124,167
220,480	1,996	245,307	124,062
221,494	2,110	245,178	124,080
222,509	2,287	245,054	124,151
223,523	2,285	244,898	124,059
224,538	1,876	244,452	123,488
225,553	1,739	244,299	123,289
226,567	2,046	244,275	123,515
227,582	1,952	244,277	123,429
228,596	2,032	244,016	123,351
229,611	1,790	243,804	123,036
230,626	1,773	243,524	122,870
231,640	1,944	243,517	122,994
232,655	2,103	243,258	122,981
233,669	2,101	243,146	122,913
234,684	1,798	242,965	122,565
235,699	2,403	243,053	123,088
236,713	2,087	242,821	122,704
237,728	2,081	242,658	122,606
238,742	2,059	242,310	122,401
239,757	1,841	242,150	122,134
240,772	1,896	242,086	122,135
241,786	1,855	241,848	121,971
242,801	1,778	241,460	121,703
243,815	1,433	241,452	121,410
244,830	2,110	241,400	121,918
245,844	2,196	241,254	121,902
246,859	1,913	241,020	121,545
247,874	1,870	240,853	121,416
248,888	2,127	240,645	121,506
249,903	2,035	240,757	121,478
250,917	2,223	240,561	121,519
251,932	2,276	240,458	121,499
252,947	2,126	240,087	121,181
253,961	1,699	239,980	120,775
254,976	2,085	239,839	121,001
255,990	2,127	239,768	120,988
257,005	1,891	239,441	120,624
258,020	1,730	239,228	120,378
259,034	1,813	239,354	120,497
260,049	2,184	239,045	120,626
261,063	1,840	238,953	120,294
262,078	1,750	238,798	120,135
263,093	2,034	238,612	120,256
264,107	2,013	238,363	120,103
265,122	2,192	238,254	120,178
266,136	2,087	238,176	120,046
267,151	2,299	238,056	120,142
268,166	1,904	237,762	119,671
269,180	1,833	237,579	119,512
270,195	2,366	237,648	119,956
271,209	2,559	237,394	119,970
272,224	1,952	237,190	119,378
273,239	1,760	236,904	119,072
274,253	1,855	236,855	119,112
275,268	1,948	236,815	119,154
276,282	2,092	236,664	119,181
277,297	1,831	236,367	118,816
278,312	1,685	236,398	118,707
279,326	1,966	236,164	118,799
280,341	2,236	235,851	118,842
281,355	2,119	235,976	118,802
282,370	2,240	235,727	118,762
283,384	2,143	235,543	118,582
284,399	1,914	235,378	118,310
285,414	1,840	235,212	118,158
286,428	1,973	235,183	118,237
287,443	2,051	234,952	118,171
288,457	2,293	234,928	118,337
289,472	2,191	234,795	118,180
290,487	2,165	234,539	118,020
291,501	1,819	234,370	117,656
292,516	1,438	234,096	117,212
293,530	1,511	234,009	117,215
294,545	1,850	233,932	117,428
295,560	1,962	233,742	117,410
296,574	1,593	233,518	117,001
297,589	1,676	233,413	117,002
298,603	2,110	233,352	117,297
299,618	2,537	233,139	117,509
300,633	2,178	233,144	117,224
301,647	2,439	233,067	117,376
302,662	2,691	232,933	117,492
303,676	2,721	232,828	117,452
304,691	2,523	232,591	117,169
305,706	2,316	232,478	116,943
306,720	2,412	232,292	116,912
307,735	2,402	232,115	116,805
308,749	2,153	231,899	116,495
309,764	1,973	231,624	116,209
310,779	1,737	231,540	115,975
311,793	1,741	231,205	115,800
312,808	1,774	231,228	115,826
313,822	1,636	231,035	115,614
314,837	1,476	230,974	115,451
315,852	1,676	230,701	115,457
316,866	2,019	230,575	115,646
317,881	2,018	230,604	115,649
318,895	2,224	230,600	115,793
319,910	2,631	230,411	115,998
320,925	2,278	230,098	115,562
321,939	1,905	229,868	115,153
322,954	2,270	229,922	115,447
323,968	2,175	229,762	115,284
324,983	2,181	229,625	115,210
325,997	2,236	229,412	115,134
327,012	2,066	229,238	114,908
328,027	1,882	229,089	114,683
329,041	1,964	228,949	114,665
330,056	2,409	228,980	115,007
331,070	2,531	228,857	115,027
332,085	2,607	228,653	114,972
333,100	2,594	228,372	114,811
334,114	2,536	228,296	114,718
335,129	2,598	228,164	114,689
336,143	2,361	228,017	114,426
337,158	2,236	227,922	114,274
338,173	2,479	227,635	114,302
339,187	2,260	227,475	114,048
340,202	2,337	227,388	114,051
341,216	2,431	227,268	114,051
342,231	2,338	227,047	113,861
343,246	2,399	227,029	113,887
344,260	2,443	226,766	113,778
345,275	2,526	226,864	113,879
346,289	2,685	226,644	113,878
347,304	2,770	226,605	113,911
348,319	2,701	226,265	113,679
349,333	2,422	226,110	113,383
350,348	2,205	225,997	113,154
351,362	2,401	225,741	113,162
352,377	2,315	225,589	113,012
353,392	2,201	225,451	112,848
354,406	2,262	225,470	112,893
355,421	195,555	1320,090	1395,625
356,435	156,749	1453,441	1395,632
