DTS Sentinel unit serial number:	SN410029Multiplexer serial number:	ORYXHardware model number:	OX2-SRSoftware version number:	ORYX F/W v4,00 Oryx Data Collector v3.7.2.0data status	okinstallation	B5 Nyhavnadifferential loss correction	single-endedforward channel	channel 2reverse channel	N/Adate	2023/12/14time	02:27:13forward acquisition time	300,00reverse acquisition time	0,00gamma	499,1914k internal	0,3155k external	0,3155temperature offset calibration	1,0000default loss term (dB/km)	0,3820temperature slope calibration	1,0000multiplexer offset coefficient	1,0000multiplexer slope coefficient	1,0000fibre end	0,00T internal ref (°C)	8,52T ext. ref 1 (°C)	-7,78T ext. ref 2 (°C)	-7,83length (m)	temperature (°C)	Stokes	anti-Stokes-744,400	-200,000	0,039	0,166
-743,385	-96,170	-0,305	-0,059
-742,371	30,697	0,252	0,159
-741,356	-120,662	-0,458	-0,056
-740,342	800,000	0,098	0,261
-739,327	-200,000	-0,481	0,001
-738,312	46,539	0,043	0,029
-737,298	-66,352	-0,338	-0,099
-736,283	422,488	0,144	0,228
-735,269	-122,752	-0,386	-0,045
-734,254	-70,195	0,260	0,072
-733,239	-2,947	-0,426	-0,219
-732,225	-38,688	0,183	0,071
-731,210	-107,818	0,120	-0,019
-730,196	-118,369	-0,118	0,015
-729,181	80,868	-0,054	0,043
-728,167	80,511	-0,038	0,031
-727,152	-200,000	-0,018	0,163
-726,137	507,800	-0,088	-0,151
-725,123	333,110	0,041	-0,058
-724,108	-101,290	-0,142	-0,025
-723,094	-200,000	-0,047	-0,164
-722,079	800,000	-0,033	-0,069
-721,064	467,915	-0,007	-0,012
-720,050	182,581	-0,058	-0,063
-719,035	188,923	-0,069	-0,076
-718,021	-109,199	-0,091	-0,014
-717,006	-73,378	-0,039	-0,010
-715,991	-200,000	0,000	-0,021
-714,977	-120,364	0,079	-0,010
-713,962	66,567	-0,053	0,040
-712,948	-157,410	0,028	-0,001
-711,933	-200,000	-0,003	-0,082
-710,918	89,038	0,107	-0,087
-709,904	-91,045	-0,147	-0,031
-708,889	-200,000	0,012	0,089
-707,875	149,720	0,086	-0,086
-706,860	-64,198	0,083	0,025
-705,845	169,002	0,043	0,045
-704,831	800,000	-0,044	0,120
-703,816	73,770	-0,120	-0,093
-702,802	-63,786	-0,155	0,047
-701,787	-200,000	0,005	-0,059
-700,772	301,570	0,076	0,103
-699,758	-103,052	0,221	-0,038
-698,743	-200,000	-0,017	-0,094
-697,729	-200,000	0,024	-0,127
-696,714	174,899	0,050	0,053
-695,699	800,000	0,021	-0,062
-694,685	106,548	-0,087	0,076
-693,670	800,000	-0,044	-0,101
-692,656	335,308	-0,047	-0,067
-691,641	-129,543	-0,056	-0,006
-690,627	53,174	0,082	0,058
-689,612	-200,000	-0,011	0,053
-688,597	10,562	-0,055	0,031
-687,583	-67,451	-0,156	-0,045
-686,568	186,438	-0,013	-0,015
-685,554	189,338	-0,028	0,031
-684,539	2,186	-0,113	0,060
-683,524	-200,000	0,024	0,086
-682,510	49,260	0,073	-0,051
-681,495	-100,251	-0,053	0,010
-680,481	480,912	0,009	0,014
-679,466	-9,737	-0,177	-0,087
-678,451	415,834	-0,032	0,050
-677,437	-200,000	0,010	0,032
-676,422	186,307	0,055	0,060
-675,408	-42,678	-0,029	0,011
-674,393	-200,000	-0,027	0,133
-673,378	116,070	-0,087	-0,078
-672,364	-10,899	-0,182	-0,088
-671,349	275,983	0,027	-0,035
-670,335	-27,494	0,070	-0,030
-669,320	271,806	0,080	-0,104
-668,305	488,661	0,111	0,188
-667,291	-33,351	-0,067	0,027
-666,276	-200,000	0,012	-0,065
-665,262	766,586	-0,042	-0,085
-664,247	-30,326	-0,070	-0,029
-663,232	-200,000	0,015	0,077
-662,218	39,103	0,105	-0,069
-661,203	-200,000	-0,010	0,048
-660,189	-200,000	0,002	0,050
-659,174	-11,319	-0,176	-0,085
-658,159	-51,001	-0,019	0,007
-657,145	-200,000	0,011	0,051
-656,130	-102,608	-0,081	-0,014
-655,116	38,158	0,059	-0,039
-654,101	-3,100	-0,058	-0,030
-653,086	-200,000	0,004	-0,089
-652,072	-200,000	-0,008	0,069
-651,057	-89,918	-0,134	-0,028
-650,043	-200,000	0,015	-0,066
-649,028	-200,000	-0,006	-0,053
-648,014	100,292	0,103	0,088
-646,999	-3,494	0,074	-0,038
-645,984	345,823	-0,029	0,043
-644,970	-200,000	-0,054	-0,184
-643,955	800,000	0,012	-0,038
-642,941	19,278	0,093	-0,055
-641,926	100,672	0,114	0,098
-640,911	-74,164	0,028	0,007
-639,897	-200,000	0,005	-0,139
-638,882	272,900	-0,046	0,060
-637,868	465,500	0,022	0,036
-636,853	62,197	-0,027	-0,020
-635,838	636,562	-0,007	-0,013
-634,824	-6,649	0,020	-0,010
-633,809	-193,657	0,210	0,001
-632,795	-200,000	-0,012	0,054
-631,780	176,352	-0,015	0,016
-630,765	-183,020	-0,102	0,001
-629,751	800,000	0,023	0,059
-628,736	318,443	-0,016	0,022
-627,722	213,014	-0,067	-0,078
-626,707	-200,000	-0,006	0,037
-625,692	-64,744	0,077	0,023
-624,678	800,000	-0,036	0,111
-623,663	-93,604	-0,068	-0,014
-622,649	305,637	-0,074	-0,102
-621,634	72,907	0,010	0,007
-620,619	-22,512	-0,073	-0,032
-619,605	-180,096	0,079	-0,001
-618,590	273,806	-0,078	-0,101
-617,576	143,576	-0,061	-0,060
-616,561	14,356	-0,037	-0,021
-615,546	508,117	-0,095	-0,162
-614,532	3,329	0,129	0,069
-613,517	-200,000	0,023	-0,088
-612,503	153,407	-0,100	-0,100
-611,488	-41,735	-0,049	-0,018
-610,474	357,345	0,057	-0,084
-609,459	-200,000	-0,002	-0,097
-608,444	118,133	0,051	-0,046
-607,430	-21,564	-0,050	0,022
-606,415	70,045	-0,034	0,026
-605,401	-200,000	0,028	-0,110
-604,386	104,562	0,025	0,022
-603,371	306,953	0,075	0,102
-602,357	-104,950	0,048	0,008
-601,342	-200,000	-0,021	-0,150
-600,328	-91,688	-0,083	0,017
-599,313	-148,760	-0,091	-0,005
-598,298	-200,000	0,010	0,088
-597,284	-200,000	-0,000	0,070
-596,269	-200,000	-0,012	-0,051
-595,255	-200,000	0,002	0,066
-594,240	-200,000	0,003	-0,087
-593,225	800,000	0,023	-0,063
-592,211	-52,215	-0,165	-0,056
-591,196	-22,638	0,021	-0,009
-590,182	-130,449	0,032	0,003
-589,167	-21,317	0,168	0,075
-588,152	239,234	0,023	-0,028
-587,138	-132,709	-0,135	-0,013
-586,123	-97,030	-0,082	-0,016
-585,109	16,998	-0,018	-0,010
-584,094	-109,544	-0,130	0,020
-583,079	800,000	0,023	-0,071
-582,065	203,727	0,053	0,061
-581,050	-200,000	0,006	0,089
-580,036	60,539	-0,010	-0,007
-579,021	-200,000	-0,036	0,155
-578,006	113,979	-0,066	-0,059
-576,992	800,000	0,013	-0,040
-575,977	800,000	-0,022	-0,064
-574,963	-200,000	-0,022	-0,129
-573,948	-200,000	-0,021	0,079
-572,934	-76,807	-0,083	0,021
-571,919	800,000	-0,058	-0,136
-570,904	-200,000	-0,000	-0,185
-569,890	143,989	-0,140	-0,137
-568,875	438,754	0,078	0,125
-567,861	-200,000	-0,008	0,127
-566,846	-200,000	-0,020	-0,083
-565,831	-93,294	-0,120	-0,024
-564,817	15,129	0,057	-0,033
-563,802	-200,000	0,004	-0,027
-562,788	263,226	-0,044	-0,056
-561,773	620,892	0,016	-0,029
-560,758	-122,247	-0,028	-0,003
-559,744	-134,679	0,090	-0,008
-558,729	-200,000	-0,002	0,095
-557,715	477,331	-0,063	-0,105
-556,700	-113,649	-0,046	0,007
-555,685	-2,943	-0,116	-0,059
-554,671	-54,641	0,102	0,033
-553,656	2,841	-0,143	0,076
-552,642	771,109	-0,031	0,063
-551,627	268,429	0,091	0,118
-550,612	166,215	-0,067	0,069
-549,598	-27,325	-0,053	0,023
-548,583	-141,250	0,103	0,008
-547,569	-200,000	0,013	0,082
-546,554	-39,397	0,037	-0,014
-545,539	-200,000	0,003	-0,082
-544,525	-200,000	-0,002	-0,045
-543,510	-119,159	0,105	0,013
-542,496	-200,000	-0,002	-0,040
-541,481	8,624	-0,046	-0,025
-540,466	-200,000	0,003	0,041
-539,452	176,605	-0,093	-0,099
-538,437	-114,618	-0,118	-0,016
-537,423	800,000	0,042	0,092
-536,408	58,617	-0,070	0,050
-535,393	15,789	-0,038	0,022
-534,379	-200,000	-0,018	-0,078
-533,364	435,100	0,051	-0,082
-532,350	-61,007	0,100	-0,031
-531,335	800,000	0,080	0,219
-530,321	-200,000	0,007	0,073
-529,306	40,278	-0,088	-0,058
-528,291	749,569	-0,046	-0,092
-527,277	684,175	-0,067	-0,129
-526,262	-200,000	0,014	0,143
-525,248	332,826	-0,034	0,048
-524,233	671,281	0,037	0,070
-523,218	-17,424	0,151	0,069
-522,204	-200,000	0,020	0,068
-521,189	-200,000	-0,001	-0,082
-520,175	-189,240	0,092	-0,001
-519,160	-122,327	-0,073	0,009
-518,145	181,524	0,158	0,170
-517,131	-11,858	0,082	-0,039
-516,116	170,664	0,027	-0,029
-515,102	800,000	0,024	-0,055
-514,087	-3,113	0,095	0,048
-513,072	-200,000	0,003	-0,053
-512,058	-200,000	0,013	-0,071
-511,043	101,893	0,147	0,125
-510,029	-153,153	-0,067	-0,003
-509,014	-200,000	-0,003	-0,016
-507,999	-87,162	0,151	0,033
-506,985	-69,966	-0,077	0,021
-505,970	800,000	-0,069	0,169
-504,956	194,576	0,104	-0,116
-503,941	-200,000	0,014	-0,049
-502,926	800,000	-0,038	0,093
-501,912	-43,074	0,104	0,038
-500,897	800,000	0,055	-0,130
-499,883	-200,000	-0,017	-0,126
-498,868	41,700	0,078	-0,052
-497,853	86,778	-0,070	0,057
-496,839	2,633	-0,028	-0,015
-495,824	-58,237	0,087	0,028
-494,810	363,237	0,086	0,126
-493,795	-60,159	0,061	-0,019
-492,781	72,119	-0,199	-0,151
-491,766	453,681	0,069	-0,112
-490,751	800,000	-0,005	0,011
-489,737	800,000	-0,008	-0,022
-488,722	-200,000	0,004	0,030
-487,708	-200,000	0,017	0,089
-486,693	199,873	0,111	0,125
-485,678	-64,173	-0,173	-0,051
-484,664	-62,772	0,018	-0,006
-483,649	-200,000	0,002	-0,050
-482,635	733,746	0,021	0,041
-481,620	-24,008	0,172	0,075
-480,605	-45,966	-0,070	-0,025
-479,591	238,868	-0,022	-0,027
-478,576	64,862	-0,062	0,046
-477,562	-48,511	-0,052	-0,018
-476,547	134,664	0,022	-0,021
-475,532	-193,278	-0,055	-0,000
-474,518	-200,000	0,077	-0,260
-473,503	800,000	0,042	0,120
-472,489	-200,000	-0,004	0,087
-471,474	138,718	0,092	-0,089
-470,459	800,000	-0,026	-0,080
-469,445	-95,597	0,125	-0,024
-468,430	-200,000	-0,009	0,037
-467,416	689,257	-0,070	0,134
-466,401	5,644	0,078	0,042
-465,386	-30,672	0,035	0,015
-464,372	-72,458	-0,066	0,018
-463,357	-80,378	0,035	0,008
-462,343	-179,002	-0,080	-0,001
-461,328	-200,000	0,009	-0,116
-460,313	-200,000	0,008	0,145
-459,299	81,232	-0,063	0,049
-458,284	-73,415	0,110	0,029
-457,270	800,000	0,015	0,031
-456,255	-172,163	-0,051	-0,001
-455,241	800,000	0,042	-0,097
-454,226	119,821	-0,028	-0,025
-453,211	-200,000	0,001	0,014
-452,197	-37,572	0,103	0,040
-451,182	273,472	-0,024	-0,031
-450,168	-200,000	0,001	-0,010
-449,153	-35,144	0,085	-0,034
-448,138	168,164	-0,043	0,044
-447,124	-9,769	-0,049	0,024
-446,109	-12,299	-0,093	-0,044
-445,095	800,000	-0,031	0,077
-444,080	66,224	0,096	0,071
-443,065	-200,000	-0,019	0,075
-442,051	800,000	-0,055	-0,130
-441,036	399,424	0,055	-0,085
-440,022	-123,222	-0,126	0,014
-439,007	351,488	-0,093	-0,134
-437,992	-164,933	0,101	-0,003
-436,978	-158,572	0,062	0,003
-435,963	376,848	0,021	-0,031
-434,949	48,398	-0,174	-0,118
-433,934	800,000	-0,019	-0,051
-432,919	122,985	-0,055	0,050
-431,905	-5,511	-0,060	-0,030
-430,890	-200,000	0,045	-0,168
-429,876	160,823	0,060	-0,061
-428,861	75,746	0,077	0,059
-427,846	-18,940	-0,168	-0,076
-426,832	-14,215	0,029	0,014
-425,817	302,337	0,065	-0,087
-424,803	6,147	-0,117	-0,063
-423,788	345,498	-0,023	-0,034
-422,773	165,581	0,048	0,050
-421,759	-44,098	0,115	0,042
-420,744	294,581	0,036	0,048
-419,730	32,228	-0,097	0,061
-418,715	191,597	-0,059	-0,065
-417,701	221,578	0,047	0,055
-416,686	-10,416	-0,066	-0,032
-415,671	-7,807	-0,059	-0,029
-414,657	800,000	0,028	-0,078
-413,642	800,000	0,019	0,049
-412,628	-200,000	-0,003	0,169
-411,613	162,351	0,095	0,097
-410,598	126,042	-0,072	-0,067
-409,584	-200,000	0,013	-0,096
-408,569	104,720	0,088	0,075
-407,555	-200,000	-0,007	0,028
-406,540	800,000	-0,047	0,119
-405,525	-200,000	0,018	0,120
-404,511	800,000	0,023	-0,048
-403,496	207,362	0,076	-0,086
-402,482	496,729	-0,074	0,124
-401,467	55,869	0,020	-0,014
-400,452	-139,806	0,078	0,006
-399,438	215,573	0,061	0,071
-398,423	-23,232	-0,019	-0,008
-397,409	100,344	-0,030	0,025
-396,394	-46,554	-0,128	-0,045
-395,379	800,000	0,046	-0,122
-394,365	258,468	0,037	0,046
-393,350	140,650	-0,038	0,037
-392,336	739,301	0,101	0,199
-391,321	-200,000	0,003	0,068
-390,306	57,402	-0,051	-0,036
-389,292	-31,714	0,111	0,045
-388,277	259,517	0,059	-0,075
-387,263	-73,398	0,058	-0,015
-386,248	800,000	-0,009	0,022
-385,233	70,490	0,093	0,070
-384,219	-200,000	-0,015	-0,062
-383,204	-10,881	-0,086	0,041
-382,190	-200,000	-0,010	-0,112
-381,175	20,207	0,039	-0,023
-380,160	-200,000	0,000	-0,142
-379,146	177,099	0,051	0,055
-378,131	-200,000	0,018	-0,107
-377,117	-10,688	-0,162	0,078
-376,102	224,617	0,036	-0,042
-375,088	-52,207	-0,112	-0,037
-374,073	-200,000	0,004	0,035
-373,058	81,555	0,075	-0,059
-372,044	359,492	0,080	0,116
-371,029	-105,253	0,028	-0,005
-370,015	-200,000	0,002	0,071
-369,000	-200,000	0,031	-0,123
-367,985	219,839	-0,091	0,106
-366,971	22,229	0,080	0,048
-365,956	800,000	-0,033	0,070
-364,942	-118,949	-0,063	-0,008
-363,927	-200,000	-0,019	-0,061
-362,912	800,000	-0,003	0,007
-361,898	-20,399	-0,130	-0,058
-360,883	-102,713	0,149	0,026
-359,869	70,980	0,098	-0,074
-358,854	800,000	0,022	0,058
-357,839	-28,198	0,074	-0,031
-356,825	-79,140	-0,036	-0,009
-355,810	-3,896	0,120	0,061
-354,796	217,677	0,105	0,121
-353,781	-51,336	-0,063	-0,021
-352,766	-97,300	0,132	0,025
-351,752	247,753	0,044	0,055
-350,737	355,785	-0,019	0,028
-349,723	-176,092	0,028	0,001
-348,708	-43,863	0,070	-0,026
-347,693	61,816	-0,115	-0,083
-346,679	-200,000	0,028	-0,197
-345,664	-115,018	-0,032	0,004
-344,650	800,000	0,014	0,035
-343,635	-200,000	-0,003	0,078
-342,620	-61,509	-0,108	0,033
-341,606	-21,577	-0,022	-0,010
-340,591	740,372	0,029	0,057
-339,577	-49,576	0,033	-0,011
-338,562	11,505	-0,147	0,082
-337,548	-200,000	-0,007	-0,205
-336,533	52,782	0,111	0,077
-335,518	158,747	0,102	0,103
-334,504	-20,940	0,169	0,075
-333,489	800,000	-0,060	0,129
-332,475	800,000	-0,036	-0,102
-331,460	-70,138	-0,132	-0,036
-330,445	-1,694	0,041	-0,021
-329,431	-21,088	0,053	0,023
-328,416	800,000	-0,033	0,067
-327,402	61,156	0,054	0,039
-326,387	386,374	-0,049	0,073
-325,372	-18,152	-0,124	0,056
-324,358	800,000	0,031	-0,078
-323,343	48,089	-0,112	0,076
-322,329	79,065	0,022	0,017
-321,314	7,591	-0,109	0,059
-320,299	-200,000	0,014	0,076
-319,285	-81,596	-0,009	-0,002
-318,270	-74,338	-0,159	-0,041
-317,256	-131,444	-0,041	-0,004
-316,241	-86,049	0,061	-0,014
-315,226	701,548	0,056	0,108
-314,212	14,542	-0,097	0,055
-313,197	-30,693	-0,057	-0,023
-312,183	-166,866	0,104	0,003
-311,168	-21,799	-0,076	0,033
-310,153	171,088	0,009	-0,009
-309,139	-122,953	-0,101	-0,012
-308,124	-122,897	0,024	0,003
-307,110	800,000	0,016	-0,042
-306,095	-64,351	0,016	-0,005
-305,080	123,008	0,047	0,043
-304,066	360,806	-0,020	-0,029
-303,051	378,430	-0,049	-0,072
-302,037	-88,801	0,074	-0,016
-301,022	278,921	0,045	-0,058
-300,008	14,991	0,067	-0,038
-298,993	-127,797	0,062	-0,006
-297,978	-59,785	-0,051	0,016
-296,964	-38,616	-0,113	0,043
-295,949	800,000	0,048	0,109
-294,935	192,397	0,090	0,099
-293,920	-75,366	-0,007	0,002
-292,905	-104,574	0,143	0,024
-291,891	-24,773	-0,102	-0,044
-290,876	-104,825	0,018	0,003
-289,862	-138,085	0,118	0,009
-288,847	277,850	-0,114	-0,147
-287,832	795,264	0,072	-0,144
-286,818	-181,049	0,070	-0,001
-285,803	314,586	0,015	0,020
-284,789	176,869	-0,062	-0,066
-283,774	800,000	-0,040	0,081
-282,759	800,000	0,016	-0,045
-281,745	0,635	-0,015	0,008
-280,730	-80,182	-0,055	0,013
-279,716	-200,000	-0,002	-0,032
-278,701	148,752	0,022	0,021
-277,686	246,723	0,034	0,042
-276,672	126,184	0,132	0,121
-275,657	800,000	0,046	-0,119
-274,643	-126,890	-0,119	-0,013
-273,628	45,155	-0,070	0,047
-272,613	30,762	-0,104	-0,064
-271,599	-70,796	0,080	0,022
-270,584	-200,000	-0,056	0,182
-269,570	-10,825	0,144	0,069
-268,555	-200,000	-0,008	-0,105
-267,540	-200,000	0,020	0,133
-266,526	492,479	0,062	-0,103
-265,511	412,439	-0,084	-0,129
-264,497	-40,899	0,136	0,051
-263,482	377,874	0,056	0,084
-262,467	13,673	0,060	-0,033
-261,453	800,000	-0,045	0,136
-260,438	-200,000	0,007	-0,054
-259,424	483,900	-0,081	0,134
-258,409	189,273	0,009	-0,010
-257,395	258,195	0,057	0,071
-256,380	-166,530	0,135	-0,004
-255,365	-200,000	0,027	0,113
-254,351	303,781	-0,029	0,039
-253,336	292,522	-0,071	-0,094
-252,322	-200,000	0,012	-0,058
-251,307	-200,000	-0,014	-0,128
-250,292	-200,000	-0,002	0,085
-249,278	-85,869	-0,143	0,032
-248,263	-39,176	-0,044	0,017
-247,249	-60,325	0,102	0,031
-246,234	-67,524	-0,080	0,023
-245,219	-200,000	-0,031	-0,124
-244,205	768,986	0,008	-0,016
-243,190	-200,000	-0,012	0,135
-242,176	179,315	-0,132	0,140
-241,161	-187,594	-0,128	0,001
-240,146	-78,617	-0,093	-0,023
-239,132	-133,017	0,075	-0,007
-238,117	-36,909	-0,116	-0,045
-237,103	135,429	0,095	-0,089
-236,088	-200,000	0,026	-0,167
-235,073	-200,000	-0,004	0,015
-234,059	792,034	0,091	0,183
-233,044	531,507	0,057	0,097
-232,030	800,000	0,032	-0,085
-231,015	93,536	-0,063	0,051
-230,000	-200,000	-0,054	-0,226
-228,986	58,971	-0,036	-0,026
-227,971	-200,000	-0,026	0,093
-226,957	-131,547	0,152	-0,014
-225,942	139,982	-0,057	0,054
-224,927	-200,000	0,023	0,129
-223,913	67,093	0,078	-0,057
-222,898	-200,000	-0,020	-0,085
-221,884	-6,619	-0,026	0,013
-220,869	-200,000	0,016	0,136
-219,855	800,000	0,004	0,012
-218,840	-200,000	-0,025	0,081
-217,825	800,000	0,015	-0,032
-216,811	-200,000	0,013	-0,126
-215,796	135,596	0,103	0,097
-214,782	-152,897	-0,094	-0,005
-213,767	273,061	0,062	-0,080
-212,752	800,000	-0,046	0,095
-211,738	-76,549	0,067	-0,017
-210,723	23,733	-0,118	0,070
-209,709	-200,000	0,016	0,117
-208,694	-200,000	0,022	0,092
-207,679	-178,949	0,069	-0,001
-206,665	-69,845	0,019	0,005
-205,650	38,805	0,081	0,052
-204,636	-99,356	-0,012	-0,002
-203,621	-200,000	-0,003	0,111
-202,606	-56,087	-0,119	0,038
-201,592	-200,000	-0,004	0,026
-200,577	800,000	-0,017	0,038
-199,563	750,956	-0,064	-0,125
-198,548	30,823	0,024	-0,015
-197,533	-124,848	0,079	-0,009
-196,519	52,932	-0,089	-0,061
-195,504	-60,720	-0,106	0,032
-194,490	691,021	0,031	-0,060
-193,475	128,693	0,050	0,046
-192,460	-123,665	-0,073	-0,008
-191,446	337,970	-0,043	-0,060
-190,431	-200,000	-0,025	0,121
-189,417	-101,291	0,093	-0,016
-188,402	-200,000	-0,027	-0,161
-187,387	-59,758	-0,152	0,047
-186,373	-31,408	-0,043	-0,017
-185,358	-129,970	-0,137	0,013
-184,344	66,161	-0,090	0,066
-183,329	-200,000	-0,030	0,116
-182,315	48,839	0,094	0,063
-181,300	54,232	0,130	-0,090
-180,285	800,000	-0,011	-0,029
-179,271	77,258	-0,101	-0,077
-178,256	-200,000	-0,002	-0,076
-177,242	275,923	-0,057	0,073
-176,227	-101,393	0,135	0,024
-175,212	800,000	-0,019	-0,051
-174,198	-76,872	-0,069	-0,017
-173,183	69,207	0,054	0,040
-172,169	276,254	-0,050	-0,064
-171,154	10,752	-0,071	0,039
-170,139	-104,538	0,041	-0,007
-169,125	-200,000	0,024	-0,110
-168,110	-120,625	0,038	-0,005
-167,096	-121,646	-0,115	-0,014
-166,081	166,045	0,036	-0,037
-165,066	-200,000	0,002	-0,134
-164,052	481,684	0,052	-0,085
-163,037	-200,000	-0,022	0,131
-162,023	-200,000	-0,036	0,169
-161,008	-86,124	0,074	0,016
-159,993	-117,614	0,091	-0,012
-158,979	-199,227	-0,112	0,000
-157,964	800,000	0,060	-0,166
-156,950	301,852	-0,032	0,042
-155,935	-200,000	0,024	-0,161
-154,920	14,804	-0,117	-0,066
-153,906	122,984	0,041	0,037
-152,891	800,000	0,032	-0,081
-151,877	-200,000	-0,007	-0,058
-150,862	-85,886	-0,105	-0,023
-149,847	-200,000	0,001	0,029
-148,833	225,044	0,019	0,022
-147,818	224,961	-0,062	0,072
-146,804	-129,839	0,198	-0,019
-145,789	-75,628	-0,074	0,019
-144,775	164,880	0,020	-0,020
-143,760	-56,827	-0,055	0,017
-142,745	-111,805	0,069	-0,010
-141,731	800,000	-0,039	0,104
-140,716	-38,643	0,166	0,063
-139,702	2,282	0,085	0,044
-138,687	-143,568	-0,122	-0,008
-137,672	-200,000	0,004	0,024
-136,658	18,865	-0,114	0,065
-135,643	633,290	0,028	-0,051
-134,629	-26,045	0,121	-0,051
-133,614	-55,241	0,174	0,056
-132,599	-0,501	0,016	0,008
-131,585	800,000	0,044	0,098
-130,570	-92,233	-0,181	-0,037
-129,556	-200,000	0,022	0,077
-128,541	11,727	-0,037	-0,020
-127,526	800,000	-0,048	-0,110
-126,512	800,000	-0,077	0,174
-125,497	35,385	-0,023	-0,015
-124,483	-200,000	-0,006	0,020
-123,468	800,000	0,003	-0,007
-122,453	366,272	-0,039	-0,057
-121,439	19,061	0,044	0,026
-120,424	-115,086	0,054	-0,007
-119,410	-152,410	-0,062	0,003
-118,395	-200,000	-0,018	-0,104
-117,380	-163,817	0,124	0,004
-116,366	-196,370	-0,026	-0,000
-115,351	-168,464	-0,208	0,006
-114,337	94,130	-0,053	0,043
-113,322	-200,000	0,000	-0,013
-112,307	-153,016	0,065	-0,003
-111,293	420,063	-0,078	0,121
-110,278	407,774	0,022	0,034
-109,264	393,963	0,064	0,096
-108,249	800,000	0,014	-0,033
-107,234	800,000	0,030	0,067
-106,220	-74,659	0,091	0,023
-105,205	-65,442	0,127	0,036
-104,191	307,616	0,120	0,162
-103,176	800,000	-0,036	0,074
-102,162	-161,094	-0,041	-0,002
-101,147	380,577	-0,100	-0,148
-100,132	-200,000	0,002	0,057
-99,118	614,859	0,069	0,125
-98,103	787,579	0,059	-0,118
-97,089	202,097	-0,052	0,058
-96,074	800,000	0,016	-0,040
-95,059	-66,861	-0,134	0,038
-94,045	76,675	0,065	0,049
-93,030	28,809	-0,112	-0,068
-92,016	800,000	-0,038	0,094
-91,001	-44,372	0,184	0,066
-89,986	96,159	0,021	-0,017
-88,972	189,913	-0,046	0,050
-87,957	-200,000	0,001	0,030
-86,943	-110,844	-0,069	0,010
-85,928	-61,657	0,042	-0,013
-84,913	330,575	-0,055	-0,077
-83,899	-200,000	0,002	-0,024
-82,884	-54,028	0,107	-0,035
-81,870	-44,696	0,053	0,019
-80,855	-45,561	-0,067	0,024
-79,840	13,387	0,011	0,006
-78,826	38,955	0,070	-0,045
-77,811	349,677	-0,082	-0,117
-76,797	143,447	-0,083	-0,080
-75,782	-110,075	0,210	0,031
-74,767	-200,000	0,018	0,167
-73,753	12,398	0,044	-0,024
-72,738	104,333	-0,142	0,120
-71,724	336,138	0,058	-0,081
-70,709	320,280	-0,059	-0,081
-69,694	-200,000	0,027	-0,103
-68,680	-200,000	0,017	0,087
-67,665	757,722	0,031	0,061
-66,651	800,000	-0,048	0,145
-65,636	-13,560	-0,080	-0,037
-64,622	-124,565	0,111	-0,012
-63,607	800,000	-0,014	0,041
-62,592	476,554	0,053	0,086
-61,578	-200,000	0,009	-0,054
-60,563	-200,000	-0,000	-0,016
-59,549	638,612	-0,108	0,199
-58,534	76,894	-2,594	-1,977
-57,519	-10,038	0,377	-0,180
-56,505	-200,000	-1,496	-5,363
-55,490	478,023	1,109	1,809
-54,476	800,000	5,214	11,312
-53,461	-200,000	21,935	345,983
-52,446	800,000	760,662	2314,582
-51,432	520,599	1650,776	2791,282
-50,417	102,875	1615,295	1358,100
-49,403	72,151	1271,089	949,596
-48,388	24,937	1020,803	606,518
-47,373	19,187	987,269	567,565
-46,359	13,317	974,416	540,893
-45,344	9,213	971,229	525,620
-44,330	9,615	969,203	525,822
-43,315	8,576	967,450	521,444
-42,300	8,595	966,179	520,801
-41,286	8,660	965,049	520,384
-40,271	8,549	964,280	519,584
-39,257	8,578	963,352	519,161
-38,242	8,525	962,507	518,511
-37,227	8,531	961,547	517,993
-36,213	8,552	960,862	517,669
-35,198	8,520	960,061	517,114
-34,184	8,613	959,064	516,860
-33,169	8,537	958,092	516,069
-32,154	8,568	957,415	515,783
-31,140	8,565	956,447	515,233
-30,125	8,602	955,689	514,922
-29,111	8,633	954,697	514,467
-28,096	8,603	954,056	514,006
-27,082	8,581	953,368	513,542
-26,067	8,563	952,599	513,050
-25,052	8,501	952,093	512,558
-24,038	8,519	951,272	512,153
-23,023	8,492	950,715	511,747
-22,009	8,504	950,169	511,470
-20,994	8,544	949,399	511,163
-19,979	8,553	948,960	510,936
-18,965	8,560	948,143	510,500
-17,950	8,545	947,536	510,104
-16,936	8,515	946,970	509,684
-15,921	8,507	946,203	509,224
-14,906	8,486	945,493	508,755
-13,892	8,487	944,864	508,399
-12,877	8,448	944,214	507,904
-11,863	8,402	943,648	507,432
-10,848	8,394	943,244	507,171
-9,833	8,532	942,699	507,297
-8,819	8,525	942,040	506,899
-7,804	8,433	941,126	506,095
-6,790	8,385	940,793	505,743
-5,775	8,481	940,163	505,690
-4,760	8,501	939,500	505,378
-3,746	8,449	938,791	504,811
-2,731	8,296	938,261	504,018
-1,717	8,281	937,501	503,542
-0,702	8,286	936,994	503,265
0,313	8,152	936,255	503,204
1,327	11,468	934,067	512,470
2,342	20,066	782,282	451,804
3,356	14,987	449,186	251,734
4,371	-11,310	312,503	147,152
5,386	-14,956	294,859	135,144
6,400	-17,081	288,764	130,232
7,415	-17,241	286,270	128,939
8,429	-17,649	284,242	127,615
9,444	-17,910	283,530	127,030
10,459	-17,715	283,003	126,973
11,473	-17,840	282,332	126,539
12,488	-17,480	281,627	126,560
13,502	-17,783	281,356	126,134
14,517	-17,603	280,907	126,095
15,531	-17,566	280,486	125,930
16,546	-17,563	280,271	125,826
17,561	-17,555	279,686	125,559
18,575	-17,249	279,410	125,717
19,590	-17,386	278,991	125,387
20,604	-17,385	278,779	125,282
21,619	-17,607	278,389	124,882
22,634	-17,384	278,018	124,918
23,648	-17,520	277,621	124,599
24,663	-17,550	277,443	124,479
25,677	-17,369	277,142	124,505
26,692	-17,441	276,916	124,324
27,707	-17,493	276,664	124,150
28,721	-17,360	276,322	124,112
29,736	-17,347	275,955	123,948
30,750	-17,460	275,885	123,799
31,765	-17,388	275,577	123,717
32,780	-17,405	275,275	123,555
33,794	-17,339	274,972	123,470
34,809	-17,385	274,661	123,277
35,823	-17,465	274,546	123,138
36,838	-17,405	274,151	123,007
37,853	-17,513	274,027	122,839
38,867	-17,615	273,944	122,695
39,882	-17,442	273,504	122,649
40,896	-17,351	273,272	122,619
41,911	-17,569	273,174	122,360
42,926	-17,460	272,807	122,287
43,940	-17,507	272,589	122,135
44,955	-17,410	272,294	122,082
45,969	-17,457	272,246	122,005
46,984	-17,386	272,029	121,964
47,999	-17,371	271,802	121,865
49,013	-17,255	271,636	121,888
50,028	-17,331	271,460	121,727
51,042	-17,234	271,148	121,666
52,057	-17,314	270,926	121,482
53,071	-17,252	270,430	121,306
54,086	-17,385	270,531	121,218
55,101	-17,359	270,385	121,165
56,115	-17,435	269,974	120,899
57,130	-17,533	269,787	120,715
58,144	-17,602	269,595	120,555
59,159	-17,642	269,175	120,319
60,174	-17,714	268,866	120,104
61,188	-17,378	268,704	120,330
62,203	-17,392	268,618	120,268
63,217	-17,544	268,356	120,001
64,232	-17,338	268,055	120,043
65,247	-17,445	267,880	119,857
66,261	-17,212	267,582	119,925
67,276	-17,363	267,318	119,658
68,290	-17,299	267,048	119,585
69,305	-17,226	266,914	119,581
70,320	-17,326	266,719	119,392
71,334	-17,458	266,618	119,216
72,349	-17,404	266,277	119,103
73,363	-17,403	265,883	118,917
74,378	-17,346	265,669	118,861
75,393	-17,388	265,682	118,819
76,407	-17,474	265,508	118,653
77,422	-17,257	265,086	118,650
78,436	-17,363	264,920	118,469
79,451	-17,286	264,558	118,366
80,466	-17,346	264,282	118,178
81,480	-17,219	264,210	118,250
82,495	-17,495	264,154	117,965
83,509	-17,357	263,876	117,955
84,524	-17,329	263,565	117,830
85,539	-17,400	263,470	117,713
86,553	-17,308	263,105	117,623
87,568	-17,392	263,091	117,530
88,582	-17,299	262,856	117,498
89,597	-17,247	262,561	117,403
90,611	-17,417	262,351	117,146
91,626	-17,336	262,234	117,156
92,641	-17,260	261,948	117,086
93,655	-17,371	261,804	116,912
94,670	-17,169	261,459	116,927
95,684	-17,291	261,364	116,766
96,699	-17,459	261,070	116,474
97,714	-17,486	260,915	116,371
98,728	-17,381	260,757	116,383
99,743	-17,282	260,411	116,306
100,757	-17,362	260,313	116,181
101,772	-17,424	260,175	116,054
102,787	-17,333	259,904	116,003
103,801	-17,397	259,779	115,881
104,816	-17,329	259,548	115,827
105,830	-17,391	259,350	115,674
106,845	-17,575	259,180	115,425
107,860	-17,206	258,966	115,646
108,874	-17,612	258,779	115,194
109,889	-17,507	258,471	115,139
110,903	-17,328	258,384	115,247
111,918	-17,254	258,075	115,164
112,933	-17,405	258,024	114,999
113,947	-17,138	257,754	115,101
114,962	-17,338	257,519	114,812
115,976	-17,257	257,256	114,755
116,991	-17,310	257,138	114,646
118,006	-17,325	256,932	114,531
119,020	-17,320	256,722	114,431
120,035	-17,411	256,474	114,231
121,049	-17,319	256,442	114,287
122,064	-17,389	256,178	114,098
123,079	-17,522	256,118	113,945
124,093	-17,211	255,761	114,047
125,108	-17,332	255,603	113,861
126,122	-17,394	255,533	113,766
127,137	-17,183	255,395	113,878
128,151	-17,349	255,183	113,629
129,166	-17,333	254,939	113,524
130,181	-17,337	254,749	113,426
131,195	-17,258	254,335	113,299
132,210	-17,314	254,163	113,164
133,224	-17,299	253,823	113,016
134,239	-17,285	253,731	112,977
135,254	-17,323	253,608	112,879
136,268	-17,279	253,443	112,834
137,283	-17,112	253,161	112,842
138,297	-17,087	252,973	112,769
139,312	-17,098	252,762	112,656
140,327	-17,238	252,578	112,443
141,341	-17,083	252,304	112,444
142,356	-17,441	252,298	112,125
143,370	-17,431	252,035	112,007
144,385	-17,352	251,784	111,953
145,400	-17,188	251,576	111,990
146,414	-17,375	251,485	111,780
147,429	-17,413	251,150	111,589
148,443	-17,442	251,041	111,506
149,458	-17,326	250,907	111,535
150,473	-17,273	250,648	111,455
151,487	-17,143	250,405	111,447
152,502	-17,119	250,302	111,412
153,516	-17,378	250,178	111,127
154,531	-17,314	249,964	111,076
155,546	-17,144	249,819	111,146
156,560	-17,357	249,677	110,893
157,575	-17,434	249,427	110,707
158,589	-16,974	249,131	110,954
159,604	-17,184	248,878	110,654
160,619	-17,170	248,763	110,605
161,633	-17,262	248,631	110,459
162,648	-17,113	248,489	110,512
163,662	-17,050	248,222	110,436
164,677	-17,151	248,145	110,307
165,692	-17,241	247,926	110,124
166,706	-17,399	247,905	109,973
167,721	-17,173	247,597	110,015
168,735	-17,365	247,376	109,746
169,750	-17,191	247,254	109,829
170,764	-17,194	247,245	109,812
171,779	-17,211	246,891	109,631
172,794	-17,401	246,908	109,469
173,808	-17,273	246,627	109,442
174,823	-17,213	246,532	109,440
175,837	-17,158	246,328	109,386
176,852	-17,242	246,038	109,177
177,867	-17,224	245,904	109,123
178,881	-17,100	245,734	109,141
179,896	-17,446	245,713	108,834
180,910	-17,249	245,298	108,804
181,925	-17,046	244,953	108,810
182,940	-17,235	245,097	108,708
183,954	-17,409	244,822	108,432
184,969	-17,303	244,849	108,522
185,983	-16,962	244,567	108,669
186,998	-17,237	244,338	108,330
188,013	-17,160	244,133	108,293
189,027	-17,125	243,912	108,214
190,042	-17,309	243,799	108,003
191,056	-17,296	243,579	107,907
192,071	-17,282	243,420	107,838
193,086	-17,267	243,276	107,777
194,100	-17,292	243,156	107,694
195,115	-17,191	242,980	107,689
196,129	-17,298	242,620	107,432
197,144	-17,286	242,559	107,406
198,159	-17,266	242,201	107,254
199,173	-17,296	242,283	107,256
200,188	-17,460	241,944	106,963
201,202	-17,259	241,862	107,081
202,217	-16,970	241,524	107,157
203,232	-17,149	241,363	106,930
204,246	-17,338	241,204	106,697
205,261	-17,500	241,014	106,471
206,275	-16,085	241,279	107,731
207,290	-11,518	243,204	112,324
208,304	-5,121	245,249	118,535
209,319	-2,086	245,875	121,331
210,334	-0,975	246,060	122,327
211,348	-0,081	246,320	123,184
212,363	0,505	246,250	123,621
213,377	0,808	246,216	123,842
214,392	0,933	246,283	123,967
215,407	1,445	246,056	124,264
216,421	1,358	246,030	124,167
217,436	1,455	245,777	124,109
218,450	1,307	245,628	123,901
219,465	1,518	245,670	124,084
220,480	1,510	245,357	123,909
221,494	1,226	245,339	123,656
222,509	0,896	245,073	123,240
223,523	1,005	244,637	123,099
224,538	0,462	244,428	122,540
225,553	0,762	244,279	122,699
226,567	0,717	244,141	122,582
227,582	0,591	243,996	122,395
228,596	0,722	243,833	122,409
229,611	0,763	243,640	122,335
230,626	0,553	243,487	122,076
231,640	0,808	243,212	122,135
232,655	0,633	243,198	121,975
233,669	0,701	242,934	121,887
234,684	0,801	242,708	121,843
235,699	0,703	242,628	121,713
236,713	0,742	242,559	121,699
237,728	0,782	242,438	121,660
238,742	0,594	242,207	121,381
239,757	0,777	241,975	121,401
240,772	0,765	241,811	121,299
241,786	0,717	241,683	121,185
242,801	0,782	241,379	121,075
243,815	0,748	241,483	121,088
244,830	0,522	241,267	120,787
245,844	0,698	241,113	120,841
246,859	0,738	240,834	120,723
247,874	0,643	240,843	120,640
248,888	0,795	240,524	120,591
249,903	0,718	240,443	120,478
250,917	0,724	240,412	120,456
251,932	0,902	240,222	120,493
252,947	0,832	240,070	120,351
253,961	0,710	239,948	120,181
254,976	0,822	239,714	120,143
255,990	0,715	239,480	119,929
257,005	0,769	239,471	119,957
258,020	0,744	239,399	119,890
259,034	0,811	239,090	119,778
260,049	0,577	238,981	119,526
261,063	0,643	238,726	119,441
262,078	0,674	238,721	119,453
263,093	0,784	238,448	119,392
264,107	0,788	238,309	119,315
265,122	0,723	238,078	119,138
266,136	0,975	237,814	119,195
267,151	0,904	237,898	119,170
268,166	0,723	237,738	118,936
269,180	0,669	237,516	118,771
270,195	0,643	237,332	118,648
271,209	0,789	237,184	118,679
272,224	0,753	237,017	118,556
273,239	0,760	236,822	118,453
274,253	0,769	236,790	118,434
275,268	0,648	236,702	118,285
276,282	0,703	236,389	118,161
277,297	0,611	236,284	118,025
278,312	0,855	236,053	118,091
279,326	0,927	235,897	118,058
280,341	0,913	235,959	118,068
281,355	0,743	235,604	117,747
282,370	0,739	235,621	117,742
283,384	0,680	235,532	117,641
284,399	0,746	235,278	117,555
285,414	0,882	234,984	117,504
286,428	0,712	235,056	117,397
287,443	0,839	234,793	117,353
288,457	0,837	234,664	117,278
289,472	0,636	234,558	117,057
290,487	0,760	234,399	117,064
291,501	0,571	234,242	116,828
292,516	0,776	234,052	116,883
293,530	0,635	234,051	116,762
294,545	0,905	233,770	116,820
295,560	1,164	233,546	116,899
296,574	0,929	233,538	116,703
297,589	0,708	233,501	116,502
298,603	1,082	233,138	116,600
299,618	0,881	233,111	116,421
300,633	0,987	232,926	116,400
301,647	0,935	232,762	116,267
302,662	0,997	232,589	116,219
303,676	0,921	232,449	116,080
304,691	0,997	232,196	116,002
305,706	0,805	232,225	115,858
306,720	1,013	232,154	115,972
307,735	1,023	231,851	115,818
308,749	1,111	231,697	115,799
309,764	0,994	231,563	115,632
310,779	1,122	231,335	115,605
311,793	1,041	231,215	115,473
312,808	1,082	231,027	115,400
313,822	0,965	231,007	115,290
314,837	0,748	230,931	115,076
315,852	0,953	230,715	115,115
316,866	0,896	230,615	115,011
317,881	0,976	230,434	114,971
318,895	1,105	230,214	114,950
319,910	1,281	229,997	114,966
320,925	1,040	229,790	114,668
321,939	1,046	229,688	114,612
322,954	0,851	229,692	114,455
323,968	1,047	229,481	114,489
324,983	1,144	229,272	114,448
325,997	0,944	229,165	114,233
327,012	1,037	228,921	114,172
328,027	1,016	228,903	114,136
329,041	0,952	228,736	113,995
330,056	1,038	228,657	114,010
331,070	1,222	228,425	114,023
332,085	0,935	228,336	113,752
333,100	1,057	228,094	113,714
334,114	1,003	228,029	113,630
335,129	0,983	227,939	113,560
336,143	1,080	227,632	113,470
337,158	1,107	227,472	113,400
338,173	1,238	227,464	113,485
339,187	1,073	227,371	113,304
340,202	1,010	227,135	113,129
341,216	0,964	226,990	113,013
342,231	0,899	226,919	112,918
343,246	1,309	226,696	113,104
344,260	1,155	226,618	112,940
345,275	1,182	226,452	112,867
346,289	1,243	226,310	112,832
347,304	1,150	226,077	112,636
348,319	1,128	226,007	112,575
349,333	1,284	225,938	112,647
350,348	1,008	225,772	112,348
351,362	0,965	225,626	112,234
352,377	1,173	225,502	112,317
353,392	1,081	225,197	112,086
354,406	1,156	225,104	112,086
355,421	192,103	1312,863	1379,489
356,435	153,859	1445,255	1379,338
