DTS Sentinel unit serial number:	SN410029Multiplexer serial number:	ORYXHardware model number:	OX2-SRSoftware version number:	ORYX F/W v4,00 Oryx Data Collector v3.7.2.0data status	okinstallation	B5 Nyhavnadifferential loss correction	single-endedforward channel	channel 2reverse channel	N/Adate	2023/12/13time	11:27:13forward acquisition time	300,00reverse acquisition time	0,00gamma	499,1914k internal	0,3161k external	0,3161temperature offset calibration	1,0000default loss term (dB/km)	0,3820temperature slope calibration	1,0000multiplexer offset coefficient	1,0000multiplexer slope coefficient	1,0000fibre end	0,00T internal ref (°C)	13,77T ext. ref 1 (°C)	-2,24T ext. ref 2 (°C)	-2,53length (m)	temperature (°C)	Stokes	anti-Stokes-744,400	800,000	0,048	0,148
-743,385	-89,508	-0,357	-0,077
-742,371	397,137	0,022	-0,034
-741,356	-84,585	-0,265	0,061
-740,342	64,738	0,067	0,050
-739,327	-104,609	-0,361	-0,061
-738,312	-141,870	0,133	-0,010
-737,298	-94,863	-0,300	-0,059
-736,283	-63,541	0,047	0,014
-735,269	-94,394	-0,233	0,046
-734,254	-69,663	0,158	-0,044
-733,239	-96,137	-0,465	-0,090
-732,225	-64,345	0,133	0,040
-731,210	-34,796	0,081	0,032
-730,196	800,000	0,042	0,112
-729,181	6,956	-0,049	0,027
-728,167	148,837	-0,024	-0,024
-727,152	615,473	0,020	-0,037
-726,137	-200,000	-0,010	0,035
-725,123	-200,000	-0,010	-0,052
-724,108	28,901	-0,146	0,091
-723,094	23,714	-0,146	-0,088
-722,079	184,916	0,051	-0,056
-721,064	-200,000	0,007	-0,065
-720,050	141,696	-0,039	-0,038
-719,035	-200,000	0,002	-0,036
-718,021	439,987	0,023	0,036
-717,006	800,000	0,008	-0,022
-715,991	-27,074	-0,139	-0,059
-714,977	-200,000	-0,000	-0,054
-713,962	-200,000	-0,001	-0,072
-712,948	-200,000	-0,004	0,085
-711,933	157,863	0,043	0,044
-710,918	434,637	0,093	0,149
-709,904	39,755	-0,141	0,093
-708,889	-200,000	-0,013	-0,046
-707,875	-200,000	-0,022	-0,078
-706,860	-82,225	-0,060	0,014
-705,845	-81,144	0,148	0,036
-704,831	139,110	0,105	-0,102
-703,816	308,624	0,047	0,064
-702,802	618,902	-0,023	0,043
-701,787	-200,000	-0,011	-0,102
-700,772	570,615	0,034	0,060
-699,758	-143,837	-0,026	0,002
-698,743	-100,191	-0,061	-0,011
-697,729	-92,297	-0,082	0,017
-696,714	75,615	-0,109	0,085
-695,699	31,574	-0,182	0,115
-694,685	-200,000	0,003	0,090
-693,670	-200,000	-0,007	-0,069
-692,656	50,634	0,086	0,060
-691,641	-80,270	-0,072	0,017
-690,627	61,870	0,072	0,052
-689,612	37,078	-0,086	-0,056
-688,597	-7,809	-0,022	0,011
-687,583	305,638	-0,065	-0,089
-686,568	-117,970	-0,022	0,003
-685,554	-200,000	0,003	0,028
-684,539	679,040	-0,066	0,127
-683,524	189,508	-0,062	0,069
-682,510	-27,183	-0,140	0,060
-681,495	713,252	-0,045	-0,087
-680,481	-81,748	-0,099	0,024
-679,466	306,534	-0,112	-0,154
-678,451	-62,968	-0,059	-0,018
-677,437	-12,657	0,046	0,022
-676,422	-200,000	-0,015	0,084
-675,408	-63,993	-0,067	0,020
-674,393	35,541	-0,102	-0,065
-673,378	800,000	-0,023	0,073
-672,364	-82,039	-0,141	-0,033
-671,349	58,892	0,074	0,054
-670,335	5,925	0,029	0,016
-669,320	-29,941	0,069	0,029
-668,305	-133,211	0,047	0,004
-667,291	15,109	0,081	-0,047
-666,276	-104,405	-0,047	-0,008
-665,262	-100,787	-0,055	0,010
-664,247	-79,177	0,004	0,001
-663,232	-63,965	-0,120	-0,036
-662,218	61,930	-0,015	-0,011
-661,203	800,000	0,041	-0,132
-660,189	18,751	0,043	0,025
-659,174	436,896	-0,041	0,066
-658,159	-200,000	0,015	0,078
-657,145	168,859	-0,034	-0,036
-656,130	394,271	0,045	-0,068
-655,116	-169,694	0,031	-0,001
-654,101	-129,643	0,134	-0,013
-653,086	-139,249	0,102	-0,008
-652,072	-58,714	-0,150	-0,047
-651,057	-200,000	-0,150	0,000
-650,043	26,586	-0,140	-0,086
-649,028	-200,000	0,002	0,027
-648,014	122,010	0,078	0,071
-646,999	78,825	-0,085	-0,067
-645,984	-36,424	0,143	-0,056
-644,970	-75,862	-0,132	0,034
-643,955	-200,000	0,023	0,180
-642,941	66,610	-0,158	-0,118
-641,926	-169,423	0,024	-0,001
-640,911	800,000	0,027	-0,070
-639,897	-79,964	0,106	-0,026
-638,882	800,000	-0,047	-0,132
-637,868	-82,716	-0,053	-0,013
-636,853	-200,000	0,022	0,165
-635,838	800,000	0,063	-0,140
-634,824	649,796	0,022	0,042
-633,809	800,000	0,015	0,043
-632,795	-58,614	0,057	-0,018
-631,780	601,870	-0,049	-0,089
-630,765	-65,541	0,073	-0,021
-629,751	213,834	0,082	-0,096
-628,736	191,095	-0,031	-0,034
-627,722	-200,000	-0,003	-0,017
-626,707	-178,329	0,113	0,002
-625,692	458,296	0,080	0,132
-624,678	-200,000	-0,012	0,061
-623,663	443,121	-0,104	0,168
-622,649	40,499	-0,119	-0,079
-621,634	-87,620	-0,114	0,025
-620,619	800,000	0,066	0,143
-619,605	-200,000	0,025	0,216
-618,590	-51,950	0,077	-0,026
-617,576	195,281	-0,081	0,090
-616,561	-87,603	0,037	0,008
-615,546	285,937	0,027	0,035
-614,532	527,184	-0,037	-0,064
-613,517	800,000	0,030	-0,089
-612,503	72,979	-0,093	0,071
-611,488	-200,000	0,031	0,129
-610,474	800,000	-0,023	0,047
-609,459	239,938	0,022	0,026
-608,444	78,781	-0,039	-0,030
-607,430	-200,000	0,005	-0,111
-606,415	366,120	0,108	-0,159
-605,401	301,757	0,049	0,067
-604,386	306,902	0,038	-0,053
-603,371	-83,454	0,094	-0,022
-602,357	47,633	-0,024	-0,017
-601,342	-20,494	0,110	-0,049
-600,328	287,143	-0,050	-0,066
-599,313	38,131	-0,100	-0,065
-598,298	-200,000	-0,000	-0,031
-597,284	-14,480	0,068	-0,032
-596,269	59,400	0,138	-0,100
-595,255	308,932	-0,048	-0,066
-594,240	-200,000	-0,013	-0,139
-593,225	-157,322	-0,094	-0,004
-592,211	258,738	-0,024	-0,030
-591,196	29,845	0,156	0,097
-590,182	30,773	-0,045	-0,028
-589,167	-200,000	0,013	0,140
-588,152	20,245	-0,146	0,086
-587,138	-66,120	-0,152	0,044
-586,123	54,400	0,032	-0,022
-585,109	-54,144	0,076	0,025
-584,094	-115,047	-0,073	-0,010
-583,079	-45,181	0,032	-0,012
-582,065	-200,000	0,004	-0,064
-581,050	2,650	-0,093	0,049
-580,036	-200,000	-0,013	0,090
-579,021	-157,513	0,028	0,001
-578,006	-54,660	-0,147	-0,048
-576,992	-57,425	0,054	-0,017
-575,977	253,789	0,045	-0,056
-574,963	-200,000	-0,031	-0,111
-573,948	-200,000	0,035	-0,173
-572,934	787,704	0,029	-0,058
-571,919	54,312	0,016	-0,011
-570,904	63,941	0,025	-0,018
-569,890	-38,076	-0,023	-0,009
-568,875	336,318	0,090	0,128
-567,861	37,504	-0,045	0,029
-566,846	-118,717	0,143	-0,018
-565,831	28,495	0,099	0,061
-564,817	87,889	-0,070	-0,056
-563,802	-80,911	0,059	0,014
-562,788	-200,000	-0,010	-0,132
-561,773	-139,213	0,042	-0,003
-560,758	698,841	0,054	0,105
-559,744	45,125	0,024	-0,016
-558,729	800,000	-0,036	0,091
-557,715	800,000	-0,082	0,182
-556,700	-102,351	-0,122	-0,021
-555,685	800,000	-0,054	-0,153
-554,671	-19,841	-0,126	0,057
-553,656	-139,542	0,197	-0,015
-552,642	52,863	-0,080	0,056
-551,627	-162,469	0,133	0,005
-550,612	-79,663	0,161	0,039
-549,598	239,953	0,062	-0,076
-548,583	-43,605	-0,111	0,041
-547,569	274,119	-0,016	-0,020
-546,554	-200,000	0,019	-0,076
-545,539	-116,860	0,134	-0,018
-544,525	132,327	-0,061	-0,057
-543,510	232,173	0,031	0,037
-542,496	-200,000	-0,013	0,092
-541,481	-101,884	-0,179	0,031
-540,466	800,000	-0,019	0,053
-539,452	98,006	0,083	-0,070
-538,437	800,000	-0,021	-0,043
-537,423	272,963	0,054	0,070
-536,408	154,512	-0,102	0,102
-535,393	688,643	0,059	-0,113
-534,379	60,605	-0,070	-0,051
-533,364	89,723	0,024	-0,020
-532,350	222,831	-0,052	-0,061
-531,335	384,631	-0,060	0,091
-530,321	80,597	-0,084	-0,066
-529,306	800,000	-0,052	0,141
-528,291	-179,613	0,056	0,001
-527,277	-200,000	-0,017	-0,118
-526,262	-78,996	0,092	-0,023
-525,248	-173,469	0,062	-0,001
-524,233	-200,000	-0,035	-0,142
-523,218	78,942	-0,043	0,033
-522,204	-58,595	-0,046	-0,014
-521,189	137,760	-0,022	-0,021
-520,175	222,272	-0,044	-0,051
-519,160	186,905	-0,051	0,056
-518,145	-95,652	-0,046	-0,009
-517,131	-200,000	-0,024	0,138
-516,116	-46,861	-0,104	-0,037
-515,102	-23,183	0,082	0,036
-514,087	-200,000	-0,029	0,115
-513,072	-200,000	0,010	-0,039
-512,058	-200,000	-0,005	-0,022
-511,043	-30,033	-0,093	0,039
-510,029	-138,387	0,063	0,005
-509,014	159,996	-0,037	-0,038
-507,999	111,025	-0,139	0,122
-506,985	800,000	0,061	-0,148
-505,970	800,000	-0,039	-0,126
-504,956	-78,927	0,030	-0,007
-503,941	-200,000	0,002	0,087
-502,926	-89,468	-0,020	-0,004
-501,912	800,000	0,049	-0,105
-500,897	335,589	-0,040	-0,057
-499,883	81,826	-0,076	0,060
-498,868	-38,749	-0,016	-0,006
-497,853	800,000	-0,045	-0,100
-496,839	-200,000	0,016	-0,102
-495,824	341,066	0,029	0,041
-494,810	-200,000	-0,001	-0,032
-493,795	-98,382	0,169	0,031
-492,781	-51,981	-0,175	-0,059
-491,766	84,638	0,088	-0,070
-490,751	-68,618	-0,084	-0,024
-489,737	-131,666	0,233	-0,022
-488,722	587,169	-0,027	-0,049
-487,708	69,107	0,057	0,043
-486,693	300,668	0,072	0,098
-485,678	42,326	-0,032	0,021
-484,664	578,702	-0,044	-0,079
-483,649	800,000	-0,033	-0,095
-482,635	36,817	-0,140	-0,090
-481,620	453,269	-0,098	0,159
-480,605	0,974	0,086	0,045
-479,591	-119,153	-0,065	-0,008
-478,576	-93,019	-0,099	0,020
-477,562	-40,080	-0,033	-0,013
-476,547	20,779	0,064	0,038
-475,532	287,056	-0,039	0,052
-474,518	533,223	0,030	0,052
-473,503	-200,000	-0,036	-0,158
-472,489	-119,238	0,110	-0,014
-471,474	-200,000	0,009	-0,045
-470,459	-18,798	-0,091	0,041
-469,445	-2,547	-0,112	0,057
-468,430	-55,874	0,115	0,037
-467,416	-200,000	0,018	-0,075
-466,401	-200,000	0,021	0,090
-465,386	693,082	0,024	0,046
-464,372	-47,428	-0,046	0,016
-463,357	-200,000	0,012	0,052
-462,343	719,807	-0,054	0,105
-461,328	-110,652	0,065	-0,010
-460,313	275,923	0,039	-0,051
-459,299	169,737	-0,015	0,015
-458,284	397,396	0,042	0,064
-457,270	-200,000	-0,027	0,107
-456,255	375,966	-0,044	0,066
-455,241	-200,000	0,002	0,005
-454,226	-200,000	0,009	0,111
-453,211	-200,000	0,016	0,068
-452,197	92,048	0,057	0,047
-451,182	286,350	-0,023	0,031
-450,168	800,000	-0,072	0,148
-449,153	-27,527	-0,073	0,031
-448,138	800,000	-0,055	-0,133
-447,124	-1,660	-0,124	0,064
-446,109	800,000	-0,044	-0,101
-445,095	-18,860	0,099	0,045
-444,080	800,000	0,033	0,102
-443,065	-200,000	-0,031	-0,162
-442,051	418,762	0,026	-0,041
-441,036	18,751	-0,048	-0,028
-440,022	45,213	-0,117	-0,079
-439,007	-29,836	0,071	-0,029
-437,992	-158,667	0,046	-0,002
-436,978	57,290	0,073	0,052
-435,963	-56,566	-0,092	0,030
-434,949	-200,000	0,043	-0,171
-433,934	-65,774	-0,145	0,042
-432,919	800,000	0,052	-0,123
-431,905	-200,000	0,008	-0,082
-430,890	-88,674	-0,140	0,030
-429,876	800,000	0,026	0,062
-428,861	-200,000	0,022	0,185
-427,846	94,052	0,086	0,071
-426,832	-18,763	-0,094	0,042
-425,817	26,374	0,037	-0,022
-424,803	120,580	0,067	-0,061
-423,788	622,605	0,019	0,035
-422,773	-15,538	0,064	-0,030
-421,759	-53,729	0,037	-0,012
-420,744	-200,000	-0,007	0,031
-419,730	-200,000	0,040	-0,171
-418,715	709,949	0,034	-0,066
-417,701	15,863	0,012	-0,007
-416,686	-153,645	0,090	0,004
-415,671	-200,000	0,002	-0,151
-414,657	187,881	0,065	0,071
-413,642	-87,141	-0,057	-0,012
-412,628	37,286	0,213	-0,137
-411,613	63,945	-0,083	-0,061
-410,598	196,368	0,062	0,069
-409,584	-72,897	0,133	0,035
-408,569	-109,758	-0,176	-0,027
-407,555	15,050	-0,150	0,085
-406,540	800,000	0,042	0,131
-405,525	233,378	-0,043	0,052
-404,511	-142,294	0,072	-0,005
-403,496	-200,000	-0,016	-0,182
-402,482	-200,000	-0,010	0,133
-401,467	-92,123	0,098	0,020
-400,452	386,353	-0,083	0,125
-399,438	128,817	0,038	0,036
-398,423	165,288	-0,100	-0,103
-397,409	-54,864	0,014	0,005
-396,394	-12,673	-0,072	0,034
-395,379	800,000	0,027	-0,062
-394,365	69,088	0,014	-0,010
-393,350	70,430	0,047	0,035
-392,336	800,000	0,020	-0,062
-391,321	250,828	0,058	0,072
-390,306	-128,261	-0,184	-0,019
-389,292	109,131	0,067	0,058
-388,277	135,527	0,073	-0,069
-387,263	168,741	0,095	0,099
-386,248	-10,715	0,206	-0,099
-385,233	-200,000	-0,000	0,160
-384,219	80,497	-0,124	0,097
-383,204	-161,895	-0,109	0,004
-382,190	-139,928	0,037	0,003
-381,175	-200,000	-0,001	-0,035
-380,160	-75,096	0,237	0,061
-379,146	-13,457	-0,069	-0,032
-378,131	800,000	0,040	0,095
-377,117	800,000	-0,034	0,069
-376,102	200,144	-0,103	0,115
-375,088	57,988	-0,010	0,007
-374,073	-188,191	-0,095	-0,001
-373,058	138,963	0,100	0,095
-372,044	800,000	-0,013	-0,037
-371,029	-150,915	0,053	-0,003
-370,015	12,516	0,089	0,050
-369,000	-49,751	-0,243	0,083
-367,985	-68,360	-0,079	-0,022
-366,971	48,163	-0,095	0,064
-365,956	261,592	-0,126	-0,159
-364,942	-41,363	0,049	0,018
-363,927	15,845	-0,114	-0,065
-362,912	-40,430	-0,110	0,041
-361,898	800,000	0,021	0,060
-360,883	104,542	-0,117	0,100
-359,869	73,405	-0,119	0,090
-358,854	-97,179	0,007	0,001
-357,839	-200,000	-0,037	0,122
-356,825	461,786	0,048	0,077
-355,810	-0,412	-0,049	-0,025
-354,796	391,430	-0,082	0,124
-353,781	43,718	0,049	-0,033
-352,766	308,467	-0,117	-0,159
-351,752	-200,000	0,003	0,040
-350,737	62,926	-0,075	0,054
-349,723	-200,000	0,026	0,167
-348,708	800,000	0,051	-0,122
-347,693	-19,250	-0,087	-0,039
-346,679	670,322	-0,067	-0,126
-345,664	800,000	-0,010	0,029
-344,650	-35,718	0,032	0,013
-343,635	800,000	-0,042	-0,087
-342,620	-68,544	0,115	0,032
-341,606	800,000	0,012	-0,024
-340,591	-6,934	-0,180	-0,088
-339,577	800,000	-0,072	-0,163
-338,562	-99,275	-0,134	-0,024
-337,548	27,253	0,063	-0,038
-336,533	78,064	0,043	-0,033
-335,518	496,318	-0,048	0,080
-334,504	800,000	0,023	0,052
-333,489	-123,954	0,110	0,012
-332,475	358,439	0,111	-0,161
-331,460	142,179	-0,015	-0,015
-330,445	-126,755	0,011	-0,001
-329,431	201,983	0,056	0,062
-328,416	63,306	0,020	-0,015
-327,402	654,207	0,047	-0,087
-326,387	326,386	-0,089	0,124
-325,372	-200,000	-0,005	-0,051
-324,358	-64,861	-0,068	-0,020
-323,343	-200,000	-0,024	-0,092
-322,329	141,951	0,048	-0,046
-321,314	246,078	-0,078	-0,096
-320,299	10,065	0,073	0,040
-319,285	800,000	0,049	-0,156
-318,270	-13,975	0,092	-0,043
-317,256	784,443	0,066	0,131
-316,241	-113,991	0,163	-0,023
-315,226	395,667	0,051	-0,077
-314,212	-200,000	-0,010	-0,036
-313,197	-49,934	0,083	-0,028
-312,183	416,629	-0,059	0,091
-311,168	-120,739	0,122	0,015
-310,153	564,427	-0,048	0,084
-309,139	-141,024	0,089	0,006
-308,124	-51,647	0,025	-0,008
-307,110	800,000	-0,039	0,084
-306,095	-137,448	0,163	0,013
-305,080	-200,000	-0,007	0,051
-304,066	197,506	-0,129	-0,142
-303,051	-200,000	-0,022	-0,105
-302,037	226,626	-0,029	0,034
-301,022	81,464	0,012	-0,009
-300,008	118,861	0,118	-0,105
-298,993	-200,000	0,000	0,124
-297,978	-84,948	-0,032	-0,007
-296,964	61,195	-0,073	-0,052
-295,949	-200,000	-0,028	-0,103
-294,935	16,079	0,088	0,050
-293,920	800,000	0,026	-0,072
-292,905	-12,164	0,072	0,034
-291,891	-200,000	0,008	-0,054
-290,876	800,000	-0,052	-0,143
-289,862	44,984	-0,051	0,034
-288,847	107,890	-0,107	0,093
-287,832	800,000	0,041	-0,098
-286,818	-200,000	0,023	-0,175
-285,803	-200,000	0,005	-0,058
-284,789	-121,451	-0,102	0,012
-283,774	-200,000	-0,012	0,082
-282,759	64,384	-0,028	0,020
-281,745	800,000	0,061	-0,152
-280,730	-117,876	0,083	0,011
-279,716	-100,493	0,071	0,013
-278,701	-114,084	0,119	-0,017
-277,686	474,470	-0,019	0,031
-276,672	99,273	-0,159	0,133
-275,657	8,606	-0,085	0,046
-274,643	206,146	-0,037	-0,042
-273,628	800,000	-0,032	-0,098
-272,613	-104,923	0,051	-0,008
-271,599	-46,236	-0,032	-0,011
-270,584	-200,000	0,007	0,110
-269,570	29,956	0,124	0,076
-268,555	-21,310	-0,144	-0,063
-267,540	800,000	-0,010	-0,031
-266,526	-200,000	-0,006	-0,167
-265,511	-37,177	0,053	-0,020
-264,497	100,614	0,135	0,113
-263,482	-79,021	0,254	0,062
-262,467	-200,000	0,004	0,038
-261,453	-119,392	0,113	0,014
-260,438	34,824	-0,088	-0,055
-259,424	-200,000	-0,038	-0,152
-258,409	800,000	-0,044	-0,092
-257,395	-200,000	0,027	-0,130
-256,380	-127,285	0,071	0,007
-255,365	59,779	0,071	-0,051
-254,351	-200,000	0,007	0,076
-253,336	227,656	0,050	0,059
-252,322	154,244	-0,074	-0,074
-251,307	90,774	0,027	0,022
-250,292	-200,000	0,046	-0,000
-249,278	231,395	0,030	-0,036
-248,263	-200,000	-0,001	0,085
-247,249	-82,219	-0,189	-0,044
-246,234	377,516	0,022	-0,033
-245,219	214,594	-0,044	-0,051
-244,205	-120,059	0,066	-0,008
-243,190	800,000	-0,033	0,104
-242,176	606,369	-0,019	0,034
-241,161	-200,000	0,014	0,159
-240,146	800,000	0,019	-0,049
-239,132	-36,988	0,025	-0,010
-238,117	-55,895	-0,141	-0,045
-237,103	-200,000	0,049	0,162
-236,088	-200,000	-0,015	0,089
-235,073	-200,000	0,001	0,072
-234,059	170,391	-0,062	0,064
-233,044	133,375	0,044	0,041
-232,030	-104,023	-0,005	0,001
-231,015	800,000	0,013	0,040
-230,000	550,985	-0,045	-0,078
-228,986	-200,000	0,003	-0,123
-227,971	497,679	0,061	-0,102
-226,957	-117,132	0,155	0,020
-225,942	589,035	0,024	-0,044
-224,927	-142,968	-0,079	0,005
-223,913	12,399	-0,035	0,020
-222,898	-200,000	0,023	0,083
-221,884	-200,000	0,000	-0,080
-220,869	-38,267	-0,029	0,011
-219,855	-23,510	0,093	0,040
-218,840	38,222	0,125	0,080
-217,825	-200,000	-0,008	-0,138
-216,811	-200,000	0,006	-0,059
-215,796	-200,000	-0,029	-0,127
-214,782	16,629	-0,099	-0,056
-213,767	800,000	-0,025	-0,066
-212,752	-200,000	0,016	0,065
-211,738	-112,250	0,048	0,007
-210,723	-6,067	-0,084	-0,041
-209,709	-94,190	-0,120	-0,023
-208,694	84,805	-0,068	0,053
-207,679	-200,000	0,009	0,110
-206,665	-133,278	-0,120	0,011
-205,650	157,639	0,099	0,099
-204,636	108,995	0,150	0,129
-203,621	175,208	0,062	-0,065
-202,606	-200,000	-0,020	0,068
-201,592	-9,542	0,004	0,002
-200,577	-109,004	-0,049	0,008
-199,563	20,807	0,057	0,033
-198,548	-73,792	0,120	0,031
-197,533	61,709	-0,022	-0,015
-196,519	-42,639	0,019	0,007
-195,504	11,754	0,114	0,063
-194,490	11,444	-0,091	0,050
-193,475	-92,814	-0,079	-0,016
-192,460	21,007	0,068	0,040
-191,446	125,242	-0,044	0,040
-190,431	800,000	0,022	0,057
-189,417	179,846	-0,058	-0,061
-188,402	108,680	-0,032	0,028
-187,387	-200,000	0,013	0,095
-186,373	8,948	0,056	0,030
-185,358	23,768	0,079	0,047
-184,344	-92,304	0,120	0,024
-183,329	800,000	0,034	-0,090
-182,315	-200,000	0,024	0,103
-181,300	-135,031	-0,049	-0,004
-180,285	-65,337	-0,043	-0,012
-179,271	-41,340	0,052	-0,019
-178,256	-160,068	0,071	-0,003
-177,242	99,868	-0,063	0,053
-176,227	-200,000	-0,004	0,067
-175,212	57,885	0,052	-0,036
-174,198	-9,164	-0,136	-0,065
-173,183	800,000	-0,067	-0,156
-172,169	-41,247	-0,014	-0,005
-171,154	-139,562	0,086	0,006
-170,139	473,517	0,050	0,081
-169,125	3,070	0,011	0,006
-168,110	-75,247	0,117	0,030
-167,096	800,000	-0,071	0,221
-166,081	78,169	0,067	0,052
-165,066	-200,000	-0,027	-0,142
-164,052	133,968	-0,112	-0,105
-163,037	800,000	0,024	-0,064
-162,023	122,577	0,050	-0,045
-161,008	331,554	0,064	0,089
-159,993	59,248	-0,065	0,046
-158,979	290,986	-0,026	-0,035
-157,964	-200,000	-0,021	0,076
-156,950	800,000	-0,027	-0,057
-155,935	-200,000	-0,015	-0,063
-154,920	-82,194	0,104	-0,024
-153,906	-139,741	-0,052	0,004
-152,891	-108,288	-0,066	0,010
-151,877	-56,951	0,092	0,029
-150,862	249,694	-0,081	-0,099
-149,847	800,000	0,018	-0,049
-148,833	-101,343	-0,146	-0,025
-147,818	-200,000	0,023	0,087
-146,804	106,064	0,131	0,112
-145,789	376,355	0,037	0,055
-144,775	92,166	-0,122	0,099
-143,760	-200,000	0,038	-0,123
-142,745	-200,000	-0,001	-0,214
-141,731	-24,005	0,108	0,046
-140,716	800,000	0,010	0,025
-139,702	-52,690	-0,082	0,027
-138,687	-52,774	0,156	-0,051
-137,672	-109,032	-0,122	-0,019
-136,658	615,829	0,037	-0,068
-135,643	800,000	-0,053	-0,107
-134,629	-200,000	0,018	0,077
-133,614	-9,077	-0,007	-0,003
-132,599	800,000	-0,060	0,138
-131,585	-200,000	0,003	-0,112
-130,570	800,000	-0,039	0,080
-129,556	113,222	-0,077	-0,067
-128,541	47,852	0,116	0,078
-127,526	49,460	-0,053	0,035
-126,512	-200,000	0,003	0,099
-125,497	-200,000	0,021	-0,071
-124,483	85,270	-0,079	0,062
-123,468	517,636	-0,018	0,031
-122,453	-200,000	0,031	0,102
-121,439	99,049	0,112	-0,093
-120,424	8,573	-0,058	-0,031
-119,410	320,037	-0,016	-0,023
-118,395	-73,747	0,126	0,033
-117,380	439,446	-0,022	0,034
-116,366	800,000	-0,050	0,125
-115,351	-200,000	0,009	0,059
-114,337	-31,856	-0,126	-0,051
-113,322	47,990	0,173	-0,116
-112,307	-21,067	0,127	-0,055
-111,293	86,704	0,021	-0,017
-110,278	800,000	-0,017	0,047
-109,264	-200,000	-0,026	0,170
-108,249	231,858	0,025	-0,030
-107,234	-200,000	0,006	-0,182
-106,220	455,938	0,040	-0,064
-105,205	215,624	-0,046	-0,052
-104,191	45,564	-0,046	0,031
-103,176	286,764	0,066	-0,085
-102,162	800,000	-0,060	0,136
-101,147	137,037	0,080	-0,075
-100,132	-200,000	0,004	-0,112
-99,118	533,688	-0,080	-0,136
-98,103	-26,628	-0,070	0,029
-97,089	596,488	0,054	-0,097
-96,074	156,702	0,037	0,037
-95,059	-78,938	0,110	0,027
-94,045	800,000	-0,041	0,129
-93,030	-200,000	0,026	0,111
-92,016	28,141	-0,049	-0,029
-91,001	-200,000	0,015	-0,077
-89,986	-178,319	0,027	0,000
-88,972	-17,466	0,054	-0,024
-87,957	-200,000	-0,034	0,118
-86,943	155,804	0,055	-0,055
-85,928	37,540	-0,127	0,081
-84,913	-200,000	0,009	-0,053
-83,899	697,827	0,065	-0,124
-82,884	250,153	0,047	0,057
-81,870	-200,000	-0,012	0,044
-80,855	-200,000	0,017	0,107
-79,840	48,002	-0,042	0,028
-78,826	-99,573	-0,037	-0,007
-77,811	-45,475	-0,040	-0,014
-76,797	519,621	-0,020	0,034
-75,782	-118,778	0,106	0,013
-74,767	-24,527	-0,073	0,031
-73,753	314,518	0,065	0,088
-72,738	-66,859	0,101	-0,029
-71,724	346,085	-0,072	0,102
-70,709	208,697	0,086	-0,097
-69,694	591,457	0,041	0,074
-68,680	-200,000	0,008	0,027
-67,665	100,657	0,114	0,095
-66,651	800,000	0,068	-0,160
-65,636	-123,936	0,069	-0,008
-64,622	82,165	0,086	0,067
-63,607	-105,979	-0,093	0,015
-62,592	556,907	-0,043	0,074
-61,578	238,889	0,081	-0,096
-60,563	800,000	0,049	0,117
-59,549	800,000	-0,083	0,175
-58,534	3,379	-2,066	-1,076
-57,519	-200,000	-0,206	-0,710
-56,505	-200,000	-1,251	-5,093
-55,490	56,817	0,927	0,646
-54,476	800,000	5,246	12,033
-53,461	-200,000	18,659	314,513
-52,446	800,000	741,128	2326,906
-51,432	557,646	1656,904	2875,561
-50,417	110,986	1640,570	1415,728
-49,403	75,264	1290,430	974,625
-48,388	30,412	1031,143	630,186
-47,373	19,922	993,935	572,699
-46,359	17,476	981,432	557,424
-45,344	14,169	977,689	544,409
-44,330	14,481	976,107	544,529
-43,315	13,866	974,356	541,513
-42,300	13,784	973,218	540,593
-41,286	13,811	972,056	540,012
-40,271	13,788	971,237	539,462
-39,257	13,827	970,358	539,080
-38,242	13,796	969,540	538,502
-37,227	13,818	968,668	538,068
-36,213	13,823	967,642	537,494
-35,198	13,775	966,919	536,915
-34,184	13,791	966,093	536,485
-33,169	13,767	965,181	535,880
-32,154	13,817	964,040	535,389
-31,140	13,810	963,376	534,975
-30,125	13,882	962,519	534,710
-29,111	13,770	961,797	533,926
-28,096	13,786	961,233	533,642
-27,082	13,835	960,410	533,323
-26,067	13,834	959,540	532,815
-25,052	13,796	958,899	532,317
-24,038	13,876	958,156	532,141
-23,023	13,832	957,568	531,652
-22,009	13,843	956,896	531,292
-20,994	13,762	956,356	530,710
-19,979	13,853	955,648	530,591
-18,965	13,800	955,140	530,115
-17,950	13,825	954,420	529,775
-16,936	13,770	953,663	529,158
-15,921	13,798	952,972	528,845
-14,906	13,671	952,446	528,125
-13,892	13,685	951,903	527,848
-12,877	13,653	951,048	527,250
-11,863	13,666	950,598	527,022
-10,848	13,641	949,981	526,578
-9,833	13,819	949,360	526,779
-8,819	13,735	948,969	526,275
-7,804	13,693	947,995	525,580
-6,790	13,701	947,576	525,352
-5,775	13,752	946,986	525,166
-4,760	13,712	946,570	524,788
-3,746	13,719	945,811	524,370
-2,731	13,512	945,228	523,367
-1,717	13,569	944,360	523,047
-0,702	13,557	943,649	522,595
0,313	13,273	943,111	522,183
1,327	16,664	940,808	531,591
2,342	25,802	795,783	473,913
3,356	22,314	460,420	268,819
4,371	-4,365	317,572	156,775
5,386	-8,517	299,499	143,594
6,400	-10,354	293,393	138,812
7,415	-10,861	291,174	137,245
8,429	-11,041	289,245	136,146
9,444	-11,196	288,462	135,612
10,459	-11,283	287,751	135,180
11,473	-11,295	287,145	134,871
12,488	-11,055	286,539	134,810
13,502	-11,094	286,177	134,589
14,517	-11,167	285,676	134,271
15,531	-11,169	285,188	134,027
16,546	-11,233	284,743	133,743
17,561	-11,413	284,366	133,380
18,575	-11,372	284,143	133,303
19,590	-11,277	283,539	133,100
20,604	-11,166	283,314	133,090
21,619	-11,277	282,944	132,797
22,634	-11,387	282,766	132,595
23,648	-11,144	282,188	132,546
24,663	-11,334	282,017	132,271
25,677	-11,208	281,874	132,314
26,692	-11,444	281,591	131,942
27,707	-11,286	281,292	131,943
28,721	-11,367	280,968	131,700
29,736	-11,311	280,572	131,557
30,750	-11,410	280,387	131,364
31,765	-11,546	280,220	131,144
32,780	-11,435	279,962	131,117
33,794	-11,264	279,689	131,142
34,809	-11,165	279,423	131,099
35,823	-11,576	279,076	130,534
36,838	-11,428	278,761	130,515
37,853	-11,600	278,642	130,284
38,867	-11,352	278,281	130,339
39,882	-11,431	278,123	130,179
40,896	-11,496	277,939	130,020
41,911	-11,436	277,568	129,891
42,926	-11,460	277,506	129,827
43,940	-11,464	277,078	129,612
44,955	-11,355	276,982	129,659
45,969	-11,504	276,759	129,401
46,984	-11,624	276,547	129,178
47,999	-11,790	276,184	128,841
49,013	-11,824	275,810	128,623
50,028	-11,871	275,514	128,429
51,042	-12,156	275,264	128,034
52,057	-12,366	275,121	127,759
53,071	-12,004	274,843	127,957
54,086	-12,019	274,726	127,877
55,101	-11,820	274,550	127,970
56,115	-11,722	274,344	127,955
57,130	-11,461	274,378	128,203
58,144	-11,001	273,949	128,420
59,159	-11,319	273,942	128,109
60,174	-11,193	273,595	128,052
61,188	-11,115	273,272	127,962
62,203	-11,222	273,231	127,832
63,217	-11,334	273,107	127,659
64,232	-11,069	272,656	127,683
65,247	-11,094	272,443	127,548
66,261	-11,143	272,246	127,399
67,276	-11,443	272,031	127,009
68,290	-11,510	271,826	126,840
69,305	-11,773	271,592	126,478
70,320	-11,458	271,279	126,611
71,334	-11,425	271,082	126,538
72,349	-11,163	271,007	126,733
73,363	-11,127	270,678	126,601
74,378	-11,171	270,538	126,484
75,393	-11,153	270,189	126,326
76,407	-11,219	270,026	126,178
77,422	-11,367	269,845	125,946
78,436	-11,130	269,527	126,004
79,451	-11,016	269,391	126,033
80,466	-11,288	269,096	125,635
81,480	-11,398	268,930	125,446
82,495	-11,354	268,558	125,302
83,509	-11,375	268,499	125,244
84,524	-11,421	268,223	125,062
85,539	-11,594	267,926	124,755
86,553	-11,631	267,674	124,593
87,568	-11,505	267,643	124,681
88,582	-11,229	267,204	124,717
89,597	-11,347	267,063	124,532
90,611	-11,300	266,997	124,534
91,626	-11,113	266,918	124,655
92,641	-11,322	266,680	124,343
93,655	-11,219	266,449	124,318
94,670	-11,274	266,185	124,134
95,684	-11,353	266,032	123,980
96,699	-11,360	265,820	123,864
97,714	-11,281	265,540	123,794
98,728	-11,566	265,439	123,479
99,743	-11,558	265,101	123,318
100,757	-11,518	264,803	123,204
101,772	-11,395	264,788	123,297
102,787	-11,433	264,595	123,161
103,801	-11,185	264,263	123,218
104,816	-11,229	264,279	123,176
105,830	-11,049	264,188	123,283
106,845	-10,895	263,778	123,219
107,860	-11,360	263,804	122,804
108,874	-11,142	263,287	122,747
109,889	-11,161	263,185	122,671
110,903	-11,402	263,035	122,376
111,918	-11,219	262,731	122,386
112,933	-11,422	262,464	122,071
113,947	-11,122	262,400	122,296
114,962	-10,964	262,024	122,251
115,976	-11,257	262,057	121,995
116,991	-11,155	261,902	122,003
118,006	-11,223	261,595	121,788
119,020	-11,278	261,433	121,653
120,035	-11,189	261,403	121,707
121,049	-11,091	261,033	121,611
122,064	-11,194	261,027	121,506
123,079	-11,121	260,863	121,483
124,093	-11,332	260,553	121,142
125,108	-11,384	260,413	121,020
126,122	-11,507	259,963	120,693
127,137	-11,670	259,781	120,454
128,151	-11,706	259,722	120,384
129,166	-11,297	259,439	120,601
130,181	-11,457	259,266	120,369
131,195	-11,556	258,957	120,128
132,210	-11,486	258,987	120,193
133,224	-11,168	258,667	120,312
134,239	-11,220	258,702	120,272
135,254	-11,127	258,288	120,150
136,268	-11,341	258,009	119,823
137,283	-11,509	257,915	119,622
138,297	-11,541	257,610	119,443
139,312	-11,623	257,317	119,225
140,327	-11,455	257,337	119,369
141,341	-10,990	257,256	119,726
142,356	-11,078	257,054	119,544
143,370	-11,179	256,896	119,373
144,385	-10,959	256,684	119,454
145,400	-11,306	256,473	119,044
146,414	-11,057	256,293	119,166
147,429	-11,048	256,129	119,086
148,443	-11,063	256,036	119,020
149,458	-10,871	255,691	119,015
150,473	-10,927	255,500	118,867
151,487	-11,058	255,264	118,634
152,502	-10,921	255,137	118,682
153,516	-10,736	254,867	118,705
154,531	-11,039	254,705	118,358
155,546	-10,875	254,661	118,469
156,560	-10,806	254,325	118,361
157,575	-11,021	254,230	118,122
158,589	-11,032	253,939	117,967
159,604	-11,013	253,847	117,930
160,619	-10,982	253,646	117,852
161,633	-11,019	253,537	117,759
162,648	-10,954	253,387	117,734
163,662	-11,012	253,349	117,657
164,677	-10,859	253,203	117,709
165,692	-10,898	252,842	117,498
166,706	-11,057	252,706	117,288
167,721	-11,128	252,585	117,161
168,735	-11,054	252,379	117,119
169,750	-10,665	252,137	117,326
170,764	-10,899	252,169	117,132
171,779	-11,019	251,914	116,901
172,794	-10,920	251,869	116,954
173,808	-11,009	251,550	116,720
174,823	-11,348	251,233	116,275
175,837	-11,326	250,873	116,117
176,852	-11,255	251,017	116,233
177,867	-10,955	250,996	116,466
178,881	-10,989	250,812	116,342
179,896	-10,928	250,592	116,282
180,910	-10,900	250,349	116,181
181,925	-10,805	250,154	116,161
182,940	-10,852	250,016	116,047
183,954	-10,771	249,729	115,971
184,969	-10,901	249,769	115,871
185,983	-10,778	249,483	115,831
186,998	-10,861	249,232	115,634
188,013	-10,785	249,059	115,607
189,027	-10,746	248,941	115,574
190,042	-10,953	248,893	115,369
191,056	-10,877	248,607	115,290
192,071	-10,843	248,474	115,246
193,086	-11,010	248,324	115,027
194,100	-10,764	247,945	115,046
195,115	-10,965	247,899	114,847
196,129	-10,838	247,671	114,837
197,144	-10,749	247,410	114,780
198,159	-10,786	247,248	114,664
199,173	-10,807	247,096	114,566
200,188	-10,962	246,820	114,299
201,202	-11,100	246,725	114,130
202,217	-11,215	246,367	113,859
203,232	-11,303	246,162	113,681
204,246	-10,966	246,029	113,889
205,261	-10,538	246,081	114,256
206,275	-11,117	245,878	113,674
207,290	-5,487	248,101	119,380
208,304	2,336	250,504	127,081
209,319	4,499	251,058	129,160
210,334	4,925	250,996	129,473
211,348	4,919	250,963	129,440
212,363	5,028	250,721	129,394
213,377	5,183	250,642	129,471
214,392	4,945	250,517	129,197
215,407	5,044	250,261	129,136
216,421	5,006	250,081	129,000
217,436	5,127	249,760	128,923
218,450	5,122	249,610	128,830
219,465	4,934	249,322	128,514
220,480	4,543	249,257	128,144
221,494	4,607	249,162	128,138
222,509	4,626	248,919	128,018
223,523	4,644	248,798	127,959
224,538	4,709	248,500	127,847
225,553	4,727	248,353	127,775
226,567	4,642	248,233	127,633
227,582	4,671	248,110	127,581
228,596	4,671	248,018	127,523
229,611	4,435	247,862	127,236
230,626	4,254	247,585	126,934
231,640	4,465	247,368	126,985
232,655	4,433	247,294	126,909
233,669	4,443	247,093	126,803
234,684	4,263	246,779	126,483
235,699	4,645	246,769	126,780
236,713	4,666	246,628	126,713
237,728	4,492	246,445	126,466
238,742	4,442	246,354	126,366
239,757	4,350	246,143	126,171
240,772	4,475	245,941	126,159
241,786	4,350	245,889	126,019
242,801	4,173	245,643	125,738
243,815	4,511	245,395	125,875
244,830	4,802	245,403	126,105
245,844	4,614	245,158	125,815
246,859	4,370	245,033	125,540
247,874	4,462	244,982	125,578
248,888	4,756	244,717	125,670
249,903	4,660	244,649	125,546
250,917	4,669	244,543	125,487
251,932	4,571	244,353	125,299
252,947	4,779	244,070	125,312
253,961	4,419	243,933	124,939
254,976	4,501	243,704	124,876
255,990	4,283	243,634	124,653
257,005	4,446	243,472	124,691
258,020	4,465	243,158	124,534
259,034	4,486	243,168	124,545
260,049	4,385	243,061	124,398
261,063	4,409	242,784	124,264
262,078	4,450	242,600	124,192
263,093	4,550	242,474	124,197
264,107	4,467	242,532	124,148
265,122	4,585	242,162	124,043
266,136	4,570	242,053	123,964
267,151	4,672	241,918	123,966
268,166	4,656	241,706	123,833
269,180	4,555	241,512	123,642
270,195	4,585	241,525	123,662
271,209	4,645	241,430	123,650
272,224	4,426	241,085	123,288
273,239	4,268	240,943	123,078
274,253	4,208	240,892	122,993
275,268	4,441	240,704	123,072
276,282	4,451	240,420	122,923
277,297	4,240	240,281	122,673
278,312	4,459	240,174	122,782
279,326	4,433	239,969	122,646
280,341	4,317	239,912	122,514
281,355	4,327	239,753	122,430
282,370	4,700	239,434	122,551
283,384	4,317	239,429	122,234
284,399	4,528	239,279	122,313
285,414	4,419	239,144	122,147
286,428	4,216	239,047	121,927
287,443	4,234	238,892	121,850
288,457	4,518	238,648	121,940
289,472	4,720	238,515	122,020
290,487	4,076	238,357	121,420
291,501	4,409	237,971	121,476
292,516	4,330	237,911	121,371
293,530	4,198	237,860	121,231
294,545	4,561	237,786	121,468
295,560	4,694	237,692	121,514
296,574	4,493	237,467	121,230
297,589	4,472	237,344	121,140
298,603	4,758	237,246	121,303
299,618	4,624	237,074	121,099
300,633	4,450	237,081	120,956
301,647	4,578	236,976	120,992
302,662	4,949	236,788	121,175
303,676	4,698	236,461	120,801
304,691	4,553	236,338	120,614
305,706	4,741	236,122	120,640
306,720	4,796	235,906	120,561
307,735	4,579	235,792	120,324
308,749	4,473	235,663	120,164
309,764	4,242	235,456	119,869
310,779	4,215	235,333	119,775
311,793	4,112	234,998	119,513
312,808	4,208	235,046	119,602
313,822	4,360	234,765	119,566
314,837	4,279	234,734	119,477
315,852	4,579	234,688	119,675
316,866	4,434	234,736	119,576
317,881	4,683	234,352	119,563
318,895	4,810	234,193	119,569
319,910	4,810	234,047	119,484
320,925	4,533	233,887	119,178
321,939	4,523	233,781	119,106
322,954	4,688	233,699	119,180
323,968	4,557	233,528	118,982
324,983	4,590	233,398	118,930
325,997	4,780	233,289	119,010
327,012	4,610	233,071	118,757
328,027	4,780	232,791	118,735
329,041	4,980	232,739	118,851
330,056	4,999	232,759	118,865
331,070	4,943	232,590	118,725
332,085	4,846	232,336	118,511
333,100	4,655	232,196	118,283
334,114	4,663	232,025	118,191
335,129	4,755	232,005	118,241
336,143	4,911	231,821	118,256
337,158	4,732	231,632	118,012
338,173	4,648	231,345	117,791
339,187	4,658	231,182	117,706
340,202	4,719	231,132	117,716
341,216	4,565	230,913	117,477
342,231	4,533	230,774	117,371
343,246	4,712	230,666	117,441
344,260	4,890	230,631	117,548
345,275	4,646	230,517	117,295
346,289	4,620	230,391	117,201
347,304	4,628	230,094	117,045
348,319	4,613	229,948	116,950
349,333	4,436	229,849	116,755
350,348	4,514	229,430	116,590
351,362	4,316	229,432	116,431
352,377	3,962	229,172	116,022
353,392	3,832	229,043	115,848
354,406	3,812	228,951	115,776
355,421	195,090	1318,404	1392,036
356,435	156,474	1451,091	1392,007
