DTS Sentinel unit serial number:	SN410029Multiplexer serial number:	ORYXHardware model number:	OX2-SRSoftware version number:	ORYX F/W v4,00 Oryx Data Collector v3.7.2.0data status	okinstallation	B5 Nyhavnadifferential loss correction	single-endedforward channel	channel 2reverse channel	N/Adate	2023/12/11time	17:52:13forward acquisition time	300,00reverse acquisition time	0,00gamma	499,1914k internal	0,3163k external	0,3163temperature offset calibration	1,0000default loss term (dB/km)	0,3820temperature slope calibration	1,0000multiplexer offset coefficient	1,0000multiplexer slope coefficient	1,0000fibre end	0,00T internal ref (°C)	14,92T ext. ref 1 (°C)	-0,58T ext. ref 2 (°C)	-0,84length (m)	temperature (°C)	Stokes	anti-Stokes-744,400	43,318	0,087	-0,058
-743,385	-50,139	-0,214	-0,074
-742,371	545,881	0,120	0,211
-741,356	-114,630	-0,277	0,039
-740,342	115,432	0,159	0,143
-739,327	-22,855	-0,134	0,059
-738,312	800,000	0,064	0,137
-737,298	-37,920	-0,193	0,075
-736,283	-71,530	0,171	0,047
-735,269	-51,716	-0,227	0,077
-734,254	189,971	0,065	0,072
-733,239	-102,555	-0,339	-0,059
-732,225	379,077	0,065	0,098
-731,210	800,000	0,031	0,099
-730,196	-64,332	-0,111	-0,033
-729,181	-134,226	0,035	-0,003
-728,167	-200,000	-0,012	0,048
-727,152	72,417	-0,099	0,076
-726,137	96,628	0,055	0,046
-725,123	-83,062	-0,100	-0,023
-724,108	62,278	-0,134	-0,098
-723,094	-200,000	-0,024	-0,135
-722,079	72,340	-0,136	-0,104
-721,064	800,000	-0,036	-0,078
-720,050	800,000	-0,014	0,037
-719,035	-173,702	-0,101	-0,002
-718,021	800,000	-0,057	0,123
-717,006	-60,047	-0,132	-0,041
-715,991	-200,000	0,015	-0,062
-714,977	-200,000	0,001	-0,032
-713,962	712,050	-0,038	-0,075
-712,948	-73,591	-0,043	-0,011
-711,933	-169,629	0,046	0,001
-710,918	-200,000	-0,003	-0,114
-709,904	800,000	-0,089	-0,185
-708,889	-200,000	-0,022	0,084
-707,875	171,850	-0,078	-0,082
-706,860	-200,000	-0,026	-0,088
-705,845	114,470	-0,037	-0,033
-704,831	164,987	-0,054	0,056
-703,816	490,454	0,092	-0,156
-702,802	101,244	-0,083	-0,071
-701,787	-200,000	-0,042	-0,236
-700,772	191,197	-0,059	0,065
-699,758	97,453	-0,042	0,035
-698,743	57,304	0,082	-0,058
-697,729	505,596	-0,002	-0,004
-696,714	-87,345	0,048	-0,011
-695,699	-174,052	-0,076	-0,002
-694,685	-200,000	-0,012	-0,061
-693,670	-30,621	0,089	0,037
-692,656	-151,248	0,110	-0,006
-691,641	-20,617	-0,102	0,046
-690,627	-153,517	-0,061	-0,003
-689,612	-200,000	-0,017	0,109
-688,597	-200,000	-0,030	-0,108
-687,583	-121,697	-0,104	-0,013
-686,568	28,611	-0,097	-0,060
-685,554	151,240	-0,062	-0,062
-684,539	224,482	-0,055	-0,065
-683,524	-200,000	0,017	0,127
-682,510	-42,619	0,029	0,011
-681,495	-144,748	-0,058	-0,004
-680,481	-199,500	-0,061	-0,000
-679,466	-200,000	-0,008	-0,128
-678,451	-94,278	-0,069	-0,014
-677,437	25,692	0,079	-0,048
-676,422	-65,431	0,078	0,023
-675,408	496,058	0,049	0,083
-674,393	800,000	-0,008	-0,017
-673,378	129,935	-0,101	-0,095
-672,364	129,127	-0,109	-0,102
-671,349	800,000	-0,058	-0,145
-670,335	-200,000	0,003	0,057
-669,320	38,951	-0,120	-0,078
-668,305	-164,610	0,060	-0,002
-667,291	57,625	-0,059	-0,042
-666,276	49,419	-0,093	-0,064
-665,262	644,614	0,025	-0,047
-664,247	-52,492	0,049	0,016
-663,232	114,783	0,053	0,048
-662,218	50,836	-0,106	-0,074
-661,203	34,930	0,199	-0,127
-660,189	41,749	-0,013	-0,009
-659,174	46,874	-0,051	-0,035
-658,159	-200,000	-0,023	-0,101
-657,145	504,194	0,058	-0,098
-656,130	512,845	0,068	0,117
-655,116	67,067	0,177	0,133
-654,101	39,202	-0,023	0,015
-653,086	304,451	-0,049	-0,067
-652,072	-47,151	0,026	-0,009
-651,057	800,000	0,006	-0,015
-650,043	70,192	-0,127	-0,096
-649,028	-200,000	0,046	-0,175
-648,014	-37,154	0,058	-0,023
-646,999	22,984	-0,035	-0,021
-645,984	-200,000	-0,024	-0,099
-644,970	-200,000	0,008	-0,089
-643,955	-101,731	0,045	0,008
-642,941	-200,000	0,028	-0,143
-641,926	25,248	0,021	0,013
-640,911	272,546	-0,017	-0,022
-639,897	117,122	0,019	-0,017
-638,882	800,000	0,011	0,030
-637,868	101,781	-0,056	-0,048
-636,853	800,000	0,040	-0,097
-635,838	3,162	-0,102	0,054
-634,824	-40,709	0,015	0,006
-633,809	249,794	0,073	0,091
-632,795	372,778	0,079	0,118
-631,780	156,486	0,117	0,118
-630,765	40,843	-0,082	0,054
-629,751	307,887	-0,058	-0,079
-628,736	-42,476	0,091	0,034
-627,722	-78,184	-0,070	0,018
-626,707	-95,130	-0,156	-0,031
-625,692	-30,730	0,105	0,044
-624,678	-200,000	-0,014	0,103
-623,663	800,000	-0,043	-0,103
-622,649	-200,000	0,011	0,057
-621,634	275,326	-0,122	-0,159
-620,619	203,859	0,038	-0,043
-619,605	-162,778	0,061	0,002
-618,590	41,049	0,035	0,023
-617,576	74,527	0,041	0,032
-616,561	388,235	0,016	-0,024
-615,546	117,916	-0,046	-0,041
-614,532	-116,620	-0,057	-0,008
-613,517	220,452	-0,113	0,133
-612,503	60,868	0,070	-0,051
-611,488	767,648	-0,044	0,087
-610,474	-59,427	-0,165	0,052
-609,459	-21,927	0,032	0,014
-608,444	5,050	0,071	-0,038
-607,430	-200,000	-0,063	0,000
-606,415	-200,000	-0,038	-0,131
-605,401	-18,608	0,112	0,051
-604,386	125,568	0,072	0,066
-603,371	698,975	0,041	0,079
-602,357	-35,416	0,052	0,021
-601,342	-200,000	0,009	0,054
-600,328	52,769	-0,055	-0,039
-599,313	-200,000	0,034	-0,126
-598,298	800,000	0,050	-0,126
-597,284	-13,744	-0,056	-0,027
-596,269	-18,521	0,049	-0,022
-595,255	-29,917	-0,007	-0,003
-594,240	143,802	-0,076	-0,074
-593,225	-28,275	-0,048	0,020
-592,211	-200,000	0,010	0,056
-591,196	-200,000	0,036	0,125
-590,182	0,123	-0,020	0,011
-589,167	-200,000	-0,012	0,069
-588,152	260,684	0,015	0,019
-587,138	192,629	-0,065	0,072
-586,123	800,000	-0,036	0,112
-585,109	-16,471	0,076	0,035
-584,094	-13,203	-0,037	0,018
-583,079	-140,415	-0,021	0,002
-582,065	800,000	-0,013	0,036
-581,050	-200,000	-0,007	0,070
-580,036	414,284	0,049	0,076
-579,021	-200,000	-0,005	0,034
-578,006	378,072	-0,074	-0,110
-576,992	-200,000	0,039	-0,172
-575,977	174,343	-0,102	-0,108
-574,963	178,891	-0,016	-0,017
-573,948	-78,569	-0,173	-0,043
-572,934	86,871	0,069	0,056
-571,919	-158,718	-0,092	0,004
-570,904	-149,941	-0,150	0,008
-569,890	-69,574	-0,023	-0,006
-568,875	-26,296	0,019	-0,008
-567,861	693,975	0,015	0,029
-566,846	432,754	0,062	-0,099
-565,831	489,834	0,029	0,049
-564,817	-55,226	-0,142	-0,046
-563,802	800,000	-0,005	0,012
-562,788	-200,000	0,004	-0,105
-561,773	245,099	-0,044	0,055
-560,758	254,611	0,054	-0,068
-559,744	-200,000	-0,019	0,134
-558,729	-200,000	0,018	0,101
-557,715	800,000	0,011	-0,035
-556,700	-151,414	0,014	-0,001
-555,685	-91,940	0,006	0,001
-554,671	779,603	-0,089	0,179
-553,656	612,189	-0,079	0,145
-552,642	-138,863	0,106	0,008
-551,627	-96,310	0,138	-0,027
-550,612	-200,000	-0,005	-0,032
-549,598	21,754	-0,050	-0,030
-548,583	262,495	0,039	-0,050
-547,569	666,495	0,012	-0,023
-546,554	-200,000	0,006	0,023
-545,539	-80,918	-0,014	0,003
-544,525	800,000	0,029	0,089
-543,510	51,589	-0,139	-0,097
-542,496	-200,000	0,013	-0,102
-541,481	55,984	-0,087	-0,062
-540,466	800,000	-0,014	0,032
-539,452	-200,000	-0,003	0,163
-538,437	100,319	0,149	0,126
-537,423	-11,378	0,037	-0,018
-536,408	245,857	0,117	0,144
-535,393	-200,000	-0,009	0,076
-534,379	-200,000	-0,018	-0,182
-533,364	-101,097	-0,052	-0,009
-532,350	-200,000	-0,016	0,112
-531,335	390,333	0,067	0,101
-530,321	61,398	0,077	0,056
-529,306	390,335	0,122	0,185
-528,291	-200,000	-0,017	0,112
-527,277	-200,000	-0,007	-0,172
-526,262	191,657	0,070	-0,077
-525,248	-103,838	0,118	-0,020
-524,233	-19,059	0,110	0,050
-523,218	-89,046	-0,130	0,028
-522,204	-71,729	-0,057	-0,015
-521,189	-93,412	-0,099	0,020
-520,175	-200,000	-0,033	-0,194
-519,160	-200,000	-0,014	0,081
-518,145	411,779	0,038	0,060
-517,131	-200,000	-0,020	0,115
-516,116	77,042	-0,036	0,028
-515,102	-200,000	-0,001	0,003
-514,087	-93,442	-0,133	-0,027
-513,072	232,122	0,028	0,033
-512,058	-61,695	0,106	0,032
-511,043	800,000	0,019	-0,048
-510,029	-88,182	0,121	0,026
-509,014	135,284	0,032	-0,031
-507,999	800,000	0,018	-0,046
-506,985	-200,000	0,001	-0,107
-505,970	181,363	-0,089	-0,095
-504,956	-109,915	-0,030	-0,005
-503,941	397,706	0,022	-0,033
-502,926	21,487	-0,068	0,040
-501,912	0,721	0,060	0,031
-500,897	-184,151	-0,017	-0,000
-499,883	-46,951	-0,111	-0,039
-498,868	-167,503	0,076	0,002
-497,853	-200,000	0,009	-0,037
-496,839	464,002	-0,090	0,147
-495,824	-200,000	0,023	0,111
-494,810	-200,000	-0,009	0,155
-493,795	342,728	-0,050	-0,072
-492,781	-200,000	-0,007	-0,114
-491,766	-200,000	-0,023	-0,153
-490,751	-43,185	-0,049	0,018
-489,737	126,380	-0,101	-0,093
-488,722	-73,655	0,088	-0,023
-487,708	41,432	-0,035	-0,023
-486,693	800,000	-0,035	-0,072
-485,678	-13,213	-0,246	-0,116
-484,664	-200,000	0,035	0,187
-483,649	-102,242	0,081	0,014
-482,635	-127,926	-0,050	-0,005
-481,620	-69,205	0,085	0,024
-480,605	79,762	0,127	0,099
-479,591	441,448	0,043	-0,068
-478,576	259,095	0,094	-0,119
-477,562	244,555	0,053	0,065
-476,547	-52,027	-0,054	0,018
-475,532	-159,328	0,062	0,002
-474,518	204,823	0,063	0,071
-473,503	-22,313	-0,040	0,018
-472,489	800,000	-0,055	-0,145
-471,474	57,193	-0,042	-0,030
-470,459	791,775	-0,047	-0,095
-469,445	-79,157	-0,123	-0,030
-468,430	-123,807	0,097	-0,011
-467,416	263,905	0,009	-0,012
-466,401	-11,915	0,038	0,018
-465,386	-200,000	-0,001	0,062
-464,372	318,790	-0,100	0,139
-463,357	-200,000	-0,007	-0,038
-462,343	50,505	-0,092	-0,063
-461,328	101,150	-0,017	-0,015
-460,313	-41,810	0,065	-0,024
-459,299	-10,051	-0,092	-0,044
-458,284	-170,459	-0,213	0,005
-457,270	69,351	0,069	0,052
-456,255	294,760	-0,015	0,020
-455,241	800,000	-0,014	-0,041
-454,226	800,000	0,017	0,041
-453,211	-124,483	-0,079	-0,009
-452,197	-74,983	0,074	-0,019
-451,182	-200,000	-0,002	-0,011
-450,168	171,041	0,046	0,048
-449,153	800,000	0,076	0,217
-448,138	254,751	0,080	-0,100
-447,124	251,933	-0,055	-0,068
-446,109	800,000	0,012	0,038
-445,095	625,222	0,038	0,071
-444,080	-123,813	-0,109	-0,012
-443,065	-200,000	-0,000	-0,084
-442,051	-68,857	-0,029	0,008
-441,036	105,052	0,069	-0,059
-440,022	800,000	-0,037	-0,111
-439,007	-200,000	0,008	0,079
-437,992	800,000	0,028	-0,075
-436,978	237,519	0,086	-0,104
-435,963	87,259	-0,094	0,076
-434,949	-200,000	0,004	0,203
-433,934	-200,000	0,002	-0,118
-432,919	37,503	-0,098	-0,063
-431,905	-85,986	-0,089	0,020
-430,890	-120,197	0,215	0,026
-429,876	374,180	0,077	0,114
-428,861	-8,428	0,086	0,042
-427,846	-200,000	0,030	-0,102
-426,832	-200,000	0,001	-0,061
-425,817	137,939	-0,064	0,061
-424,803	-200,000	0,016	-0,079
-423,788	800,000	-0,031	0,096
-422,773	163,369	0,036	-0,037
-421,759	66,824	0,048	0,036
-420,744	25,763	-0,018	-0,011
-419,730	-133,006	-0,099	0,009
-418,715	189,628	-0,151	0,164
-417,701	-200,000	-0,022	0,075
-416,686	-200,000	-0,018	0,167
-415,671	-200,000	-0,016	0,064
-414,657	18,453	-0,124	0,072
-413,642	165,156	0,034	-0,035
-412,628	367,051	-0,071	-0,104
-411,613	122,902	0,032	-0,029
-410,598	-200,000	-0,015	-0,056
-409,584	79,577	0,066	0,051
-408,569	-85,630	0,131	0,029
-407,555	30,938	0,094	0,059
-406,540	-200,000	-0,005	0,025
-405,525	800,000	0,024	-0,063
-404,511	-200,000	-0,032	-0,181
-403,496	272,298	0,070	-0,090
-402,482	-49,791	-0,107	0,037
-401,467	185,079	0,126	0,136
-400,452	800,000	0,012	-0,034
-399,438	205,602	0,097	0,109
-398,423	69,067	-0,079	-0,059
-397,409	-112,741	-0,093	0,013
-396,394	-100,973	0,053	0,009
-395,379	800,000	-0,024	-0,061
-394,365	-200,000	0,007	-0,031
-393,350	286,190	-0,136	0,179
-392,336	800,000	-0,012	-0,028
-391,321	800,000	-0,042	0,104
-390,306	-55,927	0,051	-0,017
-389,292	-139,061	-0,094	0,007
-388,277	-25,969	0,032	-0,014
-387,263	800,000	0,029	-0,081
-386,248	-200,000	-0,012	0,146
-385,233	4,551	-0,073	-0,039
-384,219	-129,082	-0,076	0,008
-383,204	-200,000	0,037	0,178
-382,190	800,000	0,020	-0,053
-381,175	-200,000	-0,000	-0,130
-380,160	496,817	0,056	0,094
-379,146	455,267	0,041	-0,067
-378,131	72,119	-0,090	0,068
-377,117	-71,878	-0,037	0,010
-376,102	737,058	-0,041	0,081
-375,088	-86,031	-0,112	-0,025
-374,073	217,693	0,041	-0,047
-373,058	-76,148	-0,063	0,016
-372,044	-141,178	0,107	-0,008
-371,029	-154,823	-0,074	0,003
-370,015	261,987	-0,067	0,085
-369,000	377,557	-0,032	-0,047
-367,985	-200,000	-0,020	-0,107
-366,971	-200,000	0,005	-0,054
-365,956	-200,000	0,004	-0,062
-364,942	10,255	0,054	0,030
-363,927	-167,006	0,127	-0,004
-362,912	623,382	-0,033	-0,061
-361,898	-6,278	-0,076	-0,037
-360,883	306,961	-0,061	-0,083
-359,869	38,941	0,120	-0,078
-358,854	-200,000	0,010	-0,041
-357,839	428,136	0,084	-0,132
-356,825	-200,000	0,020	0,098
-355,810	-200,000	0,087	0,000
-354,796	123,063	-0,100	-0,091
-353,781	174,321	-0,023	-0,024
-352,766	-107,922	-0,060	-0,009
-351,752	-52,675	0,029	0,010
-350,737	-110,117	-0,112	0,017
-349,723	8,439	0,049	0,027
-348,708	-4,807	-0,113	-0,056
-347,693	-91,625	-0,108	0,022
-346,679	-91,257	0,062	0,013
-345,664	-170,229	-0,078	-0,002
-344,650	-7,292	-0,138	-0,067
-343,635	-2,683	-0,005	-0,003
-342,620	-200,000	0,012	0,134
-341,606	166,506	-0,086	0,088
-340,591	800,000	0,020	0,059
-339,577	564,119	-0,017	-0,030
-338,562	-94,450	0,046	-0,009
-337,548	-200,000	-0,002	-0,031
-336,533	71,460	0,181	-0,136
-335,518	313,840	-0,038	0,052
-334,504	-200,000	-0,033	0,119
-333,489	233,547	0,067	-0,079
-332,475	-200,000	-0,058	-0,206
-331,460	800,000	-0,039	-0,105
-330,445	800,000	0,020	0,046
-329,431	-3,078	-0,037	-0,019
-328,416	222,158	0,135	-0,157
-327,402	-158,462	0,118	0,005
-326,387	-42,806	0,147	0,054
-325,372	65,855	-0,136	-0,099
-324,358	-60,474	-0,088	0,027
-323,343	27,210	-0,009	0,005
-322,329	-41,264	-0,158	0,059
-321,314	-73,383	0,044	-0,012
-320,299	-40,385	0,042	-0,016
-319,285	-55,091	-0,032	-0,010
-318,270	690,400	-0,075	-0,143
-317,256	98,803	-0,087	-0,073
-316,241	-15,701	-0,073	-0,033
-315,226	654,198	-0,031	-0,057
-314,212	-62,134	-0,025	0,008
-313,197	-200,000	0,028	0,124
-312,183	-200,000	0,002	0,132
-311,168	-200,000	0,003	-0,102
-310,153	69,574	0,129	-0,096
-309,139	78,530	0,071	0,055
-308,124	135,114	0,048	0,045
-307,110	800,000	-0,031	0,071
-306,095	800,000	0,067	0,202
-305,080	800,000	-0,017	0,047
-304,066	-164,308	0,099	-0,003
-303,051	440,475	-0,053	0,084
-302,037	718,437	0,048	-0,093
-301,022	-200,000	-0,003	-0,122
-300,008	-63,898	0,081	-0,024
-298,993	541,606	0,085	0,146
-297,978	-82,438	-0,088	-0,021
-296,964	49,914	-0,048	0,033
-295,949	-200,000	-0,009	-0,054
-294,935	438,272	0,113	0,178
-293,920	-72,672	0,042	-0,011
-292,905	38,900	-0,083	-0,053
-291,891	403,904	0,050	0,076
-290,876	-128,527	0,147	-0,015
-289,862	800,000	0,031	-0,071
-288,847	-200,000	-0,007	-0,110
-287,832	800,000	0,027	0,086
-286,818	234,322	-0,071	0,085
-285,803	-200,000	0,003	0,092
-284,789	800,000	-0,028	-0,072
-283,774	-186,641	-0,045	0,000
-282,759	410,410	-0,041	0,063
-281,745	-115,911	0,154	-0,021
-280,730	-7,155	-0,080	0,039
-279,716	-200,000	-0,010	0,060
-278,701	651,135	0,011	0,020
-277,686	285,342	0,073	-0,096
-276,672	-200,000	0,026	0,133
-275,657	325,579	-0,024	-0,033
-274,643	65,126	-0,080	-0,058
-273,628	-200,000	0,003	-0,178
-272,613	251,580	0,102	-0,126
-271,599	2,795	-0,147	-0,077
-270,584	298,065	0,024	-0,032
-269,570	-44,745	0,126	-0,045
-268,555	343,829	-0,092	-0,131
-267,540	4,066	0,033	-0,017
-266,526	282,802	-0,044	0,057
-265,511	154,675	0,114	0,113
-264,497	-200,000	-0,010	0,061
-263,482	129,848	-0,093	-0,086
-262,467	-153,733	0,142	0,007
-261,453	-200,000	-0,026	0,115
-260,438	530,871	-0,042	-0,073
-259,424	44,768	0,098	-0,065
-258,409	-35,639	0,150	-0,058
-257,395	184,336	0,080	0,086
-256,380	-70,646	0,058	0,016
-255,365	290,933	0,016	-0,021
-254,351	-48,241	0,060	-0,021
-253,336	-1,062	0,026	-0,013
-252,322	800,000	0,006	0,018
-251,307	-141,788	-0,123	0,009
-250,292	800,000	0,026	-0,063
-249,278	-13,380	0,103	-0,048
-248,263	225,604	-0,118	0,138
-247,249	137,378	0,090	0,085
-246,234	800,000	0,062	-0,148
-245,219	-107,566	-0,130	-0,020
-244,205	231,556	-0,054	0,064
-243,190	109,028	0,082	-0,071
-242,176	-28,146	-0,032	-0,013
-241,161	-200,000	0,035	0,150
-240,146	800,000	-0,040	-0,084
-239,132	-200,000	0,009	-0,099
-238,117	-63,327	-0,087	0,026
-237,103	252,283	-0,028	0,034
-236,088	269,199	-0,063	-0,080
-235,073	-184,660	0,161	-0,002
-234,059	205,939	0,135	-0,152
-233,044	-51,577	0,032	-0,011
-232,030	76,864	-0,037	0,028
-231,015	228,524	0,036	-0,043
-230,000	-91,922	-0,174	0,035
-228,986	-28,749	-0,046	0,019
-227,971	-117,307	-0,045	0,006
-226,957	-200,000	-0,033	-0,136
-225,942	94,566	0,064	-0,053
-224,927	6,983	-0,024	-0,013
-223,913	-200,000	0,006	0,112
-222,898	373,827	0,031	-0,046
-221,884	86,091	0,050	-0,040
-220,869	634,742	0,010	-0,018
-219,855	-200,000	0,011	0,173
-218,840	-5,274	-0,045	-0,022
-217,825	-95,526	0,023	0,004
-216,811	-200,000	0,014	-0,121
-215,796	785,906	0,081	-0,162
-214,782	-200,000	0,012	-0,130
-213,767	800,000	-0,038	0,119
-212,752	-200,000	0,038	0,133
-211,738	494,235	0,032	0,053
-210,723	-5,483	0,113	-0,056
-209,709	750,610	-0,034	-0,066
-208,694	-44,273	0,067	-0,024
-207,679	584,117	-0,102	-0,182
-206,665	-200,000	0,001	-0,092
-205,650	56,005	0,151	-0,106
-204,636	-200,000	0,008	0,032
-203,621	800,000	0,017	-0,041
-202,606	800,000	0,022	0,055
-201,592	-130,221	0,071	0,007
-200,577	199,031	0,049	-0,054
-199,563	800,000	-0,089	-0,195
-198,548	-32,479	0,025	-0,010
-197,533	346,052	0,168	0,238
-196,519	-62,101	0,049	0,015
-195,504	-24,650	0,107	0,046
-194,490	-200,000	0,054	-0,186
-193,475	353,350	-0,041	-0,058
-192,460	686,412	-0,071	0,135
-191,446	-40,109	0,144	-0,054
-190,431	141,919	0,042	0,040
-189,417	-200,000	0,005	0,027
-188,402	-88,190	0,021	0,004
-187,387	-55,902	-0,068	0,022
-186,373	44,755	-0,069	0,046
-185,358	-200,000	0,003	0,069
-184,344	7,994	-0,050	-0,027
-183,329	112,876	0,054	-0,048
-182,315	751,013	-0,005	0,010
-181,300	10,848	-0,157	-0,086
-180,285	-11,967	-0,054	-0,026
-179,271	-22,468	-0,135	0,059
-178,256	-200,000	0,004	0,016
-177,242	47,850	-0,051	0,034
-176,227	49,304	0,042	0,028
-175,212	-200,000	0,005	0,130
-174,198	-25,651	-0,058	-0,025
-173,183	196,115	-0,047	0,052
-172,169	-14,397	-0,092	-0,042
-171,154	-200,000	0,006	0,134
-170,139	-46,307	-0,011	-0,004
-169,125	-118,529	0,075	0,009
-168,110	117,662	0,065	0,057
-167,096	-200,000	-0,015	0,069
-166,081	-44,329	-0,032	0,012
-165,066	-110,595	-0,126	-0,019
-164,052	-86,116	0,100	0,022
-163,037	-200,000	0,015	-0,057
-162,023	565,660	0,082	-0,144
-161,008	265,047	0,018	-0,023
-159,993	800,000	-0,043	0,088
-158,979	-200,000	0,015	0,049
-157,964	800,000	0,072	0,181
-156,950	-200,000	0,008	0,053
-155,935	143,509	-0,051	0,049
-154,920	17,560	0,029	0,016
-153,906	639,350	0,068	0,124
-152,891	-200,000	-0,022	0,105
-151,877	-144,677	-0,172	0,011
-150,862	23,880	-0,212	0,125
-149,847	800,000	0,020	-0,053
-148,833	109,001	0,040	-0,034
-147,818	-141,896	0,027	-0,002
-146,804	-200,000	-0,045	0,227
-145,789	152,601	0,041	-0,040
-144,775	-129,369	-0,061	-0,006
-143,760	-130,465	-0,057	-0,005
-142,745	-38,856	-0,063	0,024
-141,731	-103,250	0,068	0,011
-140,716	640,582	-0,056	-0,103
-139,702	-76,308	0,026	0,006
-138,687	-124,753	0,103	0,011
-137,672	22,540	0,077	0,045
-136,658	46,740	-0,052	-0,035
-135,643	800,000	-0,012	-0,029
-134,629	-172,631	-0,117	0,003
-133,614	-99,141	0,077	-0,014
-132,599	304,588	-0,106	0,142
-131,585	-200,000	0,015	0,108
-130,570	-56,739	-0,091	0,029
-129,556	-96,371	-0,200	0,038
-128,541	516,789	-0,019	0,032
-127,526	103,216	-0,043	0,036
-126,512	78,323	-0,079	0,061
-125,497	-200,000	0,031	-0,111
-124,483	497,532	-0,029	0,048
-123,468	50,491	0,091	0,062
-122,453	-200,000	-0,008	0,032
-121,439	-15,502	-0,116	0,053
-120,424	-200,000	-0,009	-0,119
-119,410	-200,000	-0,008	-0,063
-118,395	469,114	0,055	-0,090
-117,380	794,801	-0,039	-0,078
-116,366	16,638	-0,126	-0,072
-115,351	-200,000	-0,018	0,067
-114,337	-200,000	-0,014	0,069
-113,322	223,010	0,090	0,104
-112,307	305,351	-0,064	0,086
-111,293	129,880	0,048	0,044
-110,278	71,450	0,108	-0,080
-109,264	-13,646	-0,147	0,068
-108,249	-200,000	-0,020	-0,070
-107,234	64,758	0,056	-0,040
-106,220	104,011	-0,058	-0,049
-105,205	-54,946	0,033	-0,011
-104,191	-187,036	0,089	0,001
-103,176	508,940	-0,046	0,077
-102,162	-85,880	-0,116	0,026
-101,147	-123,223	-0,211	-0,024
-100,132	-38,550	0,074	-0,028
-99,118	-44,941	0,047	0,017
-98,103	800,000	-0,058	-0,172
-97,089	83,105	0,089	0,070
-96,074	-56,615	0,081	-0,026
-95,059	13,685	0,012	-0,007
-94,045	302,339	-0,012	0,016
-93,030	-50,779	0,048	0,016
-92,016	312,961	0,044	-0,060
-91,001	542,344	0,021	-0,037
-89,986	-50,302	0,031	0,011
-88,972	122,668	0,174	0,156
-87,957	310,089	-0,015	0,020
-86,943	746,571	0,012	0,023
-85,928	-200,000	-0,023	-0,156
-84,913	390,252	0,025	0,038
-83,899	497,683	-0,061	0,101
-82,884	-200,000	0,014	0,052
-81,870	46,418	0,122	-0,081
-80,855	-140,727	-0,223	-0,016
-79,840	-200,000	-0,015	-0,095
-78,826	722,558	-0,038	-0,072
-77,811	-200,000	0,011	-0,061
-76,797	-200,000	0,009	0,081
-75,782	66,123	0,075	0,054
-74,767	-23,832	0,028	0,012
-73,753	190,232	-0,096	0,103
-72,738	-70,335	-0,139	-0,038
-71,724	60,433	-0,091	-0,065
-70,709	-6,597	0,048	0,023
-69,694	-35,551	0,107	0,041
-68,680	-50,636	0,019	-0,006
-67,665	800,000	0,050	0,125
-66,651	-74,852	-0,060	0,015
-65,636	-63,688	-0,072	-0,021
-64,622	263,863	-0,049	-0,061
-63,607	-44,182	-0,135	0,048
-62,592	-10,355	0,048	-0,023
-61,578	120,850	0,013	-0,012
-60,563	21,876	0,048	0,028
-59,549	-43,899	-0,183	-0,066
-58,534	-9,927	-2,066	-0,981
-57,519	-200,000	-0,133	-0,885
-56,505	-200,000	-1,330	-4,977
-55,490	20,723	0,791	0,458
-54,476	800,000	5,381	12,164
-53,461	-200,000	17,835	288,593
-52,446	800,000	728,213	2228,746
-51,432	535,904	1644,796	2807,393
-50,417	109,180	1635,916	1402,357
-49,403	74,149	1287,400	967,384
-48,388	31,469	1027,201	631,048
-47,373	20,058	988,643	569,809
-46,359	18,273	976,450	556,924
-45,344	15,324	972,528	545,037
-44,330	15,507	971,066	544,792
-43,315	14,982	969,127	541,973
-42,300	14,887	968,221	541,136
-41,286	14,921	967,245	540,679
-40,271	14,882	966,276	539,989
-39,257	14,941	965,196	539,556
-38,242	14,908	964,340	538,947
-37,227	14,897	963,691	538,528
-36,213	14,969	962,642	538,155
-35,198	14,881	961,748	537,350
-34,184	14,981	961,125	537,301
-33,169	14,907	960,020	536,425
-32,154	14,958	959,211	536,115
-31,140	14,980	958,426	535,725
-30,125	15,012	957,335	535,198
-29,111	14,966	956,856	534,761
-28,096	15,003	956,126	534,452
-27,082	14,921	955,473	533,801
-26,067	15,004	954,554	533,532
-25,052	14,917	953,997	532,922
-24,038	14,911	953,346	532,519
-23,023	14,882	952,754	532,074
-22,009	14,938	952,008	531,814
-20,994	14,975	951,365	531,551
-19,979	15,013	950,597	531,224
-18,965	14,943	950,006	530,649
-17,950	14,945	949,534	530,371
-16,936	14,929	948,665	529,812
-15,921	14,903	948,292	529,502
-14,906	14,839	947,407	528,781
-13,892	14,775	946,712	528,170
-12,877	14,904	946,124	528,230
-11,863	14,831	945,472	527,613
-10,848	14,846	944,877	527,308
-9,833	14,936	944,503	527,365
-8,819	14,876	944,020	526,883
-7,804	14,878	943,292	526,462
-6,790	14,819	942,776	525,965
-5,775	14,892	941,979	525,731
-4,760	14,885	941,554	525,450
-3,746	14,924	940,753	525,106
-2,731	14,764	940,089	524,212
-1,717	14,656	939,381	523,456
-0,702	14,679	938,753	523,156
0,313	14,451	938,279	522,964
1,327	17,744	935,908	531,945
2,342	26,733	792,756	474,324
3,356	23,454	457,618	268,787
4,371	-3,300	313,644	155,896
5,386	-7,194	295,430	142,907
6,400	-9,014	289,310	138,135
7,415	-9,607	286,917	136,399
8,429	-9,878	285,351	135,378
9,444	-9,970	284,626	134,933
10,459	-9,938	283,855	134,586
11,473	-9,990	283,332	134,276
12,488	-9,920	282,872	134,113
13,502	-10,065	282,171	133,630
14,517	-9,992	281,748	133,487
15,531	-10,328	281,332	132,956
16,546	-10,225	280,785	132,784
17,561	-10,238	280,409	132,582
18,575	-10,106	280,164	132,581
19,590	-10,236	279,687	132,219
20,604	-10,234	279,614	132,174
21,619	-10,418	279,113	131,751
22,634	-10,389	278,864	131,649
23,648	-10,117	278,247	131,605
24,663	-10,305	278,295	131,436
25,677	-10,357	278,034	131,252
26,692	-10,220	277,604	131,168
27,707	-10,323	277,413	130,968
28,721	-10,364	277,177	130,806
29,736	-10,239	276,821	130,745
30,750	-10,353	276,515	130,481
31,765	-10,370	276,250	130,328
32,780	-10,403	276,158	130,242
33,794	-10,323	275,757	130,117
34,809	-10,405	275,666	129,985
35,823	-10,364	275,236	129,809
36,838	-10,336	275,194	129,804
37,853	-10,413	274,886	129,575
38,867	-10,286	274,592	129,544
39,882	-10,159	274,098	129,418
40,896	-10,333	274,134	129,261
41,911	-10,431	273,948	129,070
42,926	-10,488	273,685	128,881
43,940	-10,266	273,236	128,864
44,955	-10,289	273,019	128,729
45,969	-10,448	272,843	128,488
46,984	-10,425	272,594	128,380
47,999	-10,665	272,455	128,081
49,013	-10,726	272,245	127,914
50,028	-10,925	272,030	127,617
51,042	-10,826	271,725	127,554
52,057	-10,908	271,425	127,326
53,071	-10,771	271,258	127,363
54,086	-10,795	271,108	127,259
55,101	-10,608	271,012	127,375
56,115	-10,538	270,725	127,294
57,130	-10,271	270,588	127,464
58,144	-10,098	270,074	127,369
59,159	-10,086	270,059	127,361
60,174	-10,116	269,871	127,234
61,188	-10,228	269,694	127,037
62,203	-10,074	269,371	127,015
63,217	-10,240	269,197	126,768
64,232	-10,001	268,849	126,813
65,247	-10,068	268,803	126,718
66,261	-10,145	268,433	126,462
67,276	-10,333	268,158	126,150
68,290	-10,349	268,012	126,055
69,305	-10,316	267,760	125,956
70,320	-10,449	267,610	125,753
71,334	-10,368	267,374	125,705
72,349	-10,320	267,228	125,668
73,363	-9,911	266,841	125,846
74,378	-10,093	266,673	125,590
75,393	-10,141	266,504	125,457
76,407	-10,192	266,328	125,315
77,422	-10,233	266,260	125,235
78,436	-10,252	265,819	125,000
79,451	-10,124	265,689	125,043
80,466	-10,223	265,343	124,780
81,480	-10,327	265,107	124,564
82,495	-10,332	264,885	124,444
83,509	-10,422	264,908	124,363
84,524	-10,371	264,590	124,248
85,539	-10,358	264,250	124,089
86,553	-10,352	264,056	123,993
87,568	-10,431	263,889	123,833
88,582	-10,257	263,625	123,853
89,597	-10,256	263,599	123,831
90,611	-10,200	263,507	123,827
91,626	-10,394	263,252	123,523
92,641	-10,128	262,800	123,537
93,655	-10,294	262,783	123,369
94,670	-10,239	262,599	123,321
95,684	-10,110	262,249	123,260
96,699	-10,285	262,128	123,037
97,714	-10,289	261,967	122,947
98,728	-10,452	261,729	122,680
99,743	-10,197	261,546	122,808
100,757	-10,520	261,278	122,386
101,772	-10,306	261,035	122,450
102,787	-10,195	260,987	122,516
103,801	-10,279	260,717	122,304
104,816	-10,169	260,556	122,315
105,830	-10,075	260,278	122,256
106,845	-10,232	260,266	122,101
107,860	-10,105	259,870	122,016
108,874	-10,190	259,839	121,916
109,889	-10,129	259,728	121,906
110,903	-10,193	259,364	121,668
111,918	-10,155	259,316	121,669
112,933	-10,174	258,971	121,479
113,947	-10,305	258,850	121,297
114,962	-10,138	258,648	121,338
115,976	-10,083	258,345	121,232
116,991	-10,262	258,258	121,025
118,006	-10,199	257,937	120,918
119,020	-10,148	257,862	120,917
120,035	-10,045	257,725	120,932
121,049	-10,097	257,505	120,772
122,064	-10,054	257,403	120,751
123,079	-10,126	257,146	120,557
124,093	-10,069	256,994	120,525
125,108	-10,204	256,634	120,228
126,122	-10,491	256,562	119,935
127,137	-10,486	256,315	119,813
128,151	-10,361	256,193	119,854
129,166	-10,428	256,084	119,734
130,181	-10,245	255,610	119,660
131,195	-10,331	255,561	119,551
132,210	-10,300	255,383	119,484
133,224	-10,133	255,219	119,541
134,239	-9,935	255,124	119,656
135,254	-10,024	254,871	119,450
136,268	-10,011	254,616	119,332
137,283	-10,397	254,404	118,890
138,297	-10,354	254,172	118,808
139,312	-10,450	253,875	118,576
140,327	-10,366	253,877	118,639
141,341	-10,065	253,778	118,839
142,356	-10,170	253,778	118,739
143,370	-10,022	253,399	118,678
144,385	-10,116	253,381	118,578
145,400	-9,968	253,091	118,559
146,414	-9,903	252,825	118,479
147,429	-10,321	252,650	118,029
148,443	-10,067	252,529	118,179
149,458	-9,880	252,244	118,194
150,473	-9,961	251,969	117,986
151,487	-10,105	252,043	117,888
152,502	-10,074	251,834	117,806
153,516	-10,005	251,493	117,694
154,531	-10,067	251,442	117,607
155,546	-10,036	250,965	117,400
156,560	-10,171	251,009	117,296
157,575	-10,113	250,815	117,244
158,589	-9,922	250,565	117,278
159,604	-9,790	250,289	117,250
160,619	-9,998	250,226	117,034
161,633	-9,896	250,074	117,039
162,648	-10,042	249,917	116,832
163,662	-9,845	249,785	116,926
164,677	-10,030	249,716	116,727
165,692	-9,798	249,477	116,800
166,706	-9,851	249,271	116,648
167,721	-9,955	249,060	116,452
168,735	-9,819	249,022	116,538
169,750	-9,977	248,856	116,317
170,764	-9,774	248,629	116,371
171,779	-9,916	248,514	116,188
172,794	-9,753	248,340	116,233
173,808	-10,096	248,265	115,900
174,823	-10,247	247,834	115,563
175,837	-10,328	247,534	115,345
176,852	-9,937	247,536	115,661
177,867	-9,983	247,477	115,585
178,881	-10,007	247,338	115,490
179,896	-9,777	247,133	115,576
180,910	-10,044	247,090	115,323
181,925	-9,955	246,918	115,306
182,940	-9,923	246,703	115,222
183,954	-9,935	246,494	115,104
184,969	-9,665	246,281	115,219
185,983	-9,836	246,146	115,004
186,998	-9,851	246,028	114,926
188,013	-9,829	245,762	114,809
189,027	-9,557	245,595	114,946
190,042	-9,766	245,446	114,693
191,056	-9,598	245,239	114,725
192,071	-9,822	245,123	114,476
193,086	-9,795	244,921	114,394
194,100	-9,857	244,792	114,272
195,115	-9,709	244,675	114,329
196,129	-9,947	244,511	114,047
197,144	-9,578	244,254	114,219
198,159	-9,561	243,900	114,057
199,173	-9,810	243,834	113,813
200,188	-9,562	243,680	113,934
201,202	-9,732	243,461	113,682
202,217	-10,317	243,220	113,081
203,232	-10,236	242,882	112,980
204,246	-10,012	242,991	113,203
205,261	-9,293	243,166	113,862
206,275	-9,710	242,703	113,295
207,290	-7,712	243,466	115,274
208,304	-3,175	244,999	119,714
209,319	0,147	245,542	122,695
210,334	0,477	245,611	122,989
211,348	0,575	245,618	123,062
212,363	0,788	245,524	123,178
213,377	1,144	245,460	123,427
214,392	1,310	245,408	123,526
215,407	1,322	245,121	123,380
216,421	1,330	245,019	123,324
217,436	1,154	244,815	123,067
218,450	1,393	244,639	123,162
219,465	1,298	244,489	122,998
220,480	0,938	244,363	122,631
221,494	1,087	244,505	122,813
222,509	1,349	244,145	122,834
223,523	1,399	243,799	122,690
224,538	1,068	243,757	122,389
225,553	1,045	243,591	122,276
226,567	1,128	243,346	122,209
227,582	1,362	243,289	122,359
228,596	1,324	243,245	122,296
229,611	1,075	242,988	121,953
230,626	1,049	242,659	121,757
231,640	1,272	242,659	121,926
232,655	1,415	242,378	121,889
233,669	1,425	242,144	121,769
234,684	1,005	242,019	121,357
235,699	1,644	241,999	121,851
236,713	1,598	241,749	121,677
237,728	1,088	241,722	121,242
238,742	1,260	241,405	121,211
239,757	1,103	241,410	121,076
240,772	1,183	241,158	121,003
241,786	1,075	240,947	120,800
242,801	0,981	240,697	120,589
243,815	0,820	240,634	120,417
244,830	1,300	240,482	120,715
245,844	1,452	240,347	120,758
246,859	1,274	240,185	120,523
247,874	1,362	240,085	120,533
248,888	1,310	239,879	120,377
249,903	1,233	239,890	120,310
250,917	1,626	239,670	120,502
251,932	1,654	239,466	120,411
252,947	1,442	239,275	120,136
253,961	1,165	238,990	119,762
254,976	1,091	239,036	119,715
255,990	1,444	238,862	119,899
257,005	0,979	238,714	119,444
258,020	0,986	238,426	119,295
259,034	1,129	238,205	119,287
260,049	1,239	238,290	119,406
261,063	1,040	238,033	119,109
262,078	0,968	237,956	119,004
263,093	1,368	237,835	119,248
264,107	1,322	237,666	119,116
265,122	1,240	237,427	118,921
266,136	1,349	237,289	118,928
267,151	1,608	237,254	119,103
268,166	1,186	236,868	118,568
269,180	1,258	236,675	118,516
270,195	1,622	236,878	118,894
271,209	1,882	236,567	118,931
272,224	1,323	236,293	118,344
273,239	1,212	236,133	118,167
274,253	1,270	236,123	118,197
275,268	1,325	236,066	118,201
276,282	1,148	235,852	117,945
277,297	1,052	235,757	117,811
278,312	1,180	235,439	117,742
279,326	1,253	235,292	117,715
280,341	1,505	235,103	117,806
281,355	1,196	235,026	117,517
282,370	1,499	234,956	117,707
283,384	1,354	234,681	117,446
284,399	1,228	234,539	117,266
285,414	1,226	234,193	117,082
286,428	1,213	234,311	117,121
287,443	1,353	234,250	117,188
288,457	1,693	233,961	117,296
289,472	1,696	233,815	117,215
290,487	1,443	233,665	116,933
291,501	1,078	233,263	116,439
292,516	0,805	233,130	116,152
293,530	1,045	233,004	116,264
294,545	1,228	233,091	116,438
295,560	1,359	233,064	116,516
296,574	1,219	232,641	116,186
297,589	1,080	232,548	116,022
298,603	1,408	232,507	116,244
299,618	1,402	232,291	116,121
300,633	1,584	232,314	116,262
301,647	1,516	232,177	116,131
302,662	1,689	232,223	116,276
303,676	1,705	231,919	116,126
304,691	1,651	231,817	116,023
305,706	1,780	231,521	115,963
306,720	1,704	231,418	115,843
307,735	1,552	231,266	115,641
308,749	1,370	231,231	115,474
309,764	1,405	230,864	115,307
310,779	1,336	230,545	115,084
311,793	1,026	230,501	114,816
312,808	1,186	230,405	114,880
313,822	1,152	230,159	114,722
314,837	1,079	230,033	114,593
315,852	0,925	229,868	114,383
316,866	1,148	229,838	114,528
317,881	1,444	229,772	114,709
318,895	1,648	229,565	114,750
319,910	1,973	229,504	114,956
320,925	1,680	229,268	114,606
321,939	1,507	229,034	114,348
322,954	1,727	229,155	114,565
323,968	1,702	229,040	114,478
324,983	1,650	228,764	114,290
325,997	1,599	228,597	114,158
327,012	1,535	228,430	114,016
328,027	1,242	228,268	113,704
329,041	1,433	228,225	113,817
330,056	1,817	228,226	114,097
331,070	2,216	228,083	114,315
332,085	2,210	227,789	114,153
333,100	1,956	227,707	113,911
334,114	1,749	227,552	113,668
335,129	2,074	227,331	113,791
336,143	1,821	227,154	113,503
337,158	1,534	227,011	113,206
338,173	1,579	226,998	113,224
339,187	1,639	226,771	113,145
340,202	1,806	226,715	113,232
341,216	1,923	226,388	113,146
342,231	1,684	226,363	112,945
343,246	1,873	226,324	113,056
344,260	1,806	225,960	112,815
345,275	2,044	225,915	112,959
346,289	1,798	225,869	112,743
347,304	1,975	225,765	112,813
348,319	2,048	225,624	112,787
349,333	1,673	225,478	112,425
350,348	1,598	225,122	112,181
351,362	1,968	225,005	112,388
352,377	1,743	224,845	112,131
353,392	1,358	224,723	111,775
354,406	1,700	224,633	111,973
355,421	196,774	1319,670	1397,993
356,435	157,744	1453,071	1397,976
