DTS Sentinel unit serial number:	SN410029Multiplexer serial number:	ORYXHardware model number:	OX2-SRSoftware version number:	ORYX F/W v4,00 Oryx Data Collector v3.7.2.0data status	okinstallation	B5 Nyhavnadifferential loss correction	single-endedforward channel	channel 2reverse channel	N/Adate	2023/12/11time	21:27:13forward acquisition time	300,00reverse acquisition time	0,00gamma	499,1914k internal	0,3156k external	0,3156temperature offset calibration	1,0000default loss term (dB/km)	0,3820temperature slope calibration	1,0000multiplexer offset coefficient	1,0000multiplexer slope coefficient	1,0000fibre end	0,00T internal ref (°C)	16,22T ext. ref 1 (°C)	0,21T ext. ref 2 (°C)	-0,01length (m)	temperature (°C)	Stokes	anti-Stokes-744,400	-200,000	0,015	0,117
-743,385	-140,691	-0,269	-0,020
-742,371	-58,446	0,173	0,055
-741,356	-88,102	-0,188	-0,041
-740,342	-200,000	0,006	0,065
-739,327	-62,496	-0,207	0,063
-738,312	-200,000	0,004	-0,148
-737,298	-167,833	-0,213	0,006
-736,283	-76,150	0,268	0,069
-735,269	-49,601	-0,261	0,091
-734,254	19,791	0,089	-0,053
-733,239	-105,790	-0,499	-0,082
-732,225	-69,715	0,310	0,087
-731,210	-163,246	0,009	-0,000
-730,196	-68,701	0,064	-0,018
-729,181	-200,000	0,009	-0,075
-728,167	-200,000	-0,003	-0,021
-727,152	-157,687	-0,142	-0,006
-726,137	-200,000	0,016	-0,110
-725,123	241,944	0,009	-0,012
-724,108	1,090	0,077	-0,041
-723,094	-38,433	-0,169	-0,066
-722,079	-200,000	0,038	-0,128
-721,064	-132,553	0,097	-0,009
-720,050	-200,000	0,019	-0,121
-719,035	-57,093	-0,075	-0,024
-718,021	212,440	-0,079	0,092
-717,006	72,549	-0,049	-0,037
-715,991	-1,855	-0,053	-0,027
-714,977	-69,946	-0,053	-0,015
-713,962	-200,000	0,000	0,056
-712,948	-200,000	-0,016	0,054
-711,933	80,171	-0,109	-0,086
-710,918	-41,627	0,046	0,018
-709,904	800,000	0,070	-0,154
-708,889	-4,323	0,072	-0,036
-707,875	-155,097	-0,070	0,003
-706,860	368,142	-0,005	0,007
-705,845	5,839	0,021	0,011
-704,831	16,424	0,133	-0,077
-703,816	10,869	-0,074	-0,042
-702,802	301,239	0,077	0,105
-701,787	-89,576	-0,175	0,037
-700,772	800,000	0,009	0,027
-699,758	-124,049	-0,075	0,009
-698,743	800,000	0,026	-0,066
-697,729	-75,226	-0,050	-0,013
-696,714	-3,087	-0,097	0,050
-695,699	-55,240	0,080	0,026
-694,685	-200,000	0,009	0,036
-693,670	-30,261	-0,137	-0,057
-692,656	-87,914	-0,115	0,025
-691,641	-200,000	-0,008	0,037
-690,627	-89,159	0,125	-0,027
-689,612	-200,000	-0,011	-0,052
-688,597	-200,000	-0,035	-0,133
-687,583	800,000	-0,055	-0,159
-686,568	-7,082	0,125	0,062
-685,554	0,939	0,144	-0,076
-684,539	800,000	-0,038	0,103
-683,524	75,432	0,116	0,090
-682,510	2,288	0,040	0,021
-681,495	135,914	-0,108	-0,104
-680,481	800,000	-0,020	-0,060
-679,466	720,493	-0,034	-0,067
-678,451	125,175	0,063	0,059
-677,437	-23,665	0,096	-0,042
-676,422	800,000	0,050	-0,141
-675,408	-57,173	-0,051	0,016
-674,393	200,457	0,015	0,017
-673,378	26,783	-0,026	0,016
-672,364	800,000	0,011	-0,028
-671,349	-150,918	0,119	0,007
-670,335	-99,031	0,056	-0,010
-669,320	800,000	0,042	0,126
-668,305	105,647	0,079	0,068
-667,291	800,000	-0,017	0,036
-666,276	319,472	-0,062	-0,086
-665,262	-2,189	-0,147	0,076
-664,247	800,000	-0,028	0,077
-663,232	11,894	-0,029	-0,016
-662,218	-52,511	-0,068	0,023
-661,203	32,342	0,067	-0,043
-660,189	-47,435	0,067	-0,024
-659,174	-139,561	-0,057	0,004
-658,159	48,555	-0,073	0,051
-657,145	800,000	-0,049	-0,123
-656,130	-200,000	0,029	0,148
-655,116	617,736	-0,020	-0,037
-654,101	-32,868	0,093	-0,038
-653,086	-114,650	-0,108	0,015
-652,072	-78,823	-0,018	-0,004
-651,057	-200,000	0,006	-0,076
-650,043	800,000	0,017	0,047
-649,028	800,000	-0,029	0,077
-648,014	263,739	-0,096	-0,122
-646,999	-200,000	-0,004	-0,018
-645,984	300,644	0,086	-0,117
-644,970	800,000	-0,021	-0,063
-643,955	-200,000	-0,064	-0,213
-642,941	800,000	-0,025	-0,070
-641,926	800,000	0,020	-0,045
-640,911	63,398	-0,031	-0,023
-639,897	800,000	-0,014	0,033
-638,882	16,114	0,051	-0,030
-637,868	-87,387	-0,103	0,023
-636,853	-36,970	-0,115	-0,045
-635,838	800,000	-0,021	0,051
-634,824	87,111	-0,034	0,028
-633,809	-63,248	-0,065	0,020
-632,795	413,077	0,136	0,213
-631,780	-200,000	-0,018	0,069
-630,765	325,535	-0,033	-0,046
-629,751	-55,694	-0,055	0,018
-628,736	536,184	-0,044	0,077
-627,722	-200,000	-0,015	0,085
-626,707	-200,000	-0,011	0,057
-625,692	373,536	0,030	0,045
-624,678	-30,792	0,076	-0,031
-623,663	310,613	0,068	-0,094
-622,649	800,000	0,022	-0,055
-621,634	247,771	0,049	-0,060
-620,619	218,515	-0,044	-0,052
-619,605	20,973	0,095	-0,056
-618,590	800,000	0,054	-0,148
-617,576	119,833	0,088	0,080
-616,561	800,000	0,021	-0,054
-615,546	-118,300	0,031	0,004
-614,532	-171,349	-0,056	-0,001
-613,517	-99,876	-0,094	-0,017
-612,503	54,966	-0,157	0,111
-611,488	-97,798	0,061	-0,011
-610,474	122,957	0,105	0,096
-609,459	-55,557	-0,176	0,057
-608,444	-39,105	-0,052	0,020
-607,430	-200,000	-0,003	-0,120
-606,415	72,533	-0,122	0,094
-605,401	767,908	0,043	-0,086
-604,386	614,293	-0,029	-0,054
-603,371	-134,173	-0,080	0,007
-602,357	-65,808	-0,045	-0,013
-601,342	95,596	0,037	0,031
-600,328	455,212	-0,020	-0,033
-599,313	-200,000	0,001	0,098
-598,298	49,572	-0,081	0,056
-597,284	-33,565	0,088	0,035
-596,269	800,000	0,039	0,086
-595,255	254,762	-0,061	0,076
-594,240	-23,313	-0,055	0,024
-593,225	242,858	0,045	-0,055
-592,211	-84,778	-0,165	-0,038
-591,196	635,720	0,085	0,159
-590,182	-67,355	0,085	0,024
-589,167	166,324	0,026	0,027
-588,152	800,000	0,007	0,019
-587,138	57,493	-0,042	-0,030
-586,123	-200,000	0,007	0,026
-585,109	135,820	-0,133	-0,127
-584,094	-200,000	0,006	-0,073
-583,079	-8,787	0,112	0,055
-582,065	116,791	0,005	-0,005
-581,050	4,308	-0,043	-0,023
-580,036	15,742	0,149	-0,086
-579,021	-44,006	0,139	0,051
-578,006	-200,000	-0,016	-0,085
-576,992	104,181	-0,096	0,083
-575,977	-200,000	0,002	-0,032
-574,963	249,492	0,056	0,070
-573,948	800,000	-0,020	0,048
-572,934	-154,122	0,117	0,006
-571,919	166,771	-0,037	-0,039
-570,904	-75,165	-0,127	0,033
-569,890	126,156	-0,018	-0,017
-568,875	-98,167	0,219	0,041
-567,861	464,379	-0,051	0,085
-566,846	-200,000	0,020	0,108
-565,831	800,000	-0,031	0,101
-564,817	2,769	-0,104	-0,055
-563,802	220,777	0,070	-0,083
-562,788	146,794	0,169	-0,167
-561,773	-78,184	-0,132	0,033
-560,758	79,263	-0,036	0,028
-559,744	478,239	0,042	-0,070
-558,729	391,820	-0,083	0,127
-557,715	-200,000	-0,003	0,069
-556,700	222,596	-0,062	-0,073
-555,685	417,469	0,030	-0,046
-554,671	-200,000	0,008	0,096
-553,656	588,501	0,121	-0,220
-552,642	84,845	-0,164	0,132
-551,627	-200,000	-0,033	0,123
-550,612	288,783	-0,062	-0,082
-549,598	236,942	-0,035	-0,042
-548,583	5,393	-0,078	0,042
-547,569	-29,616	0,081	-0,034
-546,554	276,089	0,045	0,058
-545,539	-142,718	-0,154	0,011
-544,525	-200,000	0,013	0,071
-543,510	-200,000	0,040	-0,205
-542,496	-200,000	-0,005	-0,133
-541,481	141,532	-0,039	-0,038
-540,466	260,594	0,098	-0,124
-539,452	-140,594	0,084	0,006
-538,437	29,915	0,075	0,047
-537,423	-80,045	0,072	0,018
-536,408	800,000	0,031	0,090
-535,393	274,300	-0,007	0,009
-534,379	800,000	-0,050	0,152
-533,364	-61,781	-0,034	-0,010
-532,350	80,122	-0,062	0,049
-531,335	163,273	0,075	0,077
-530,321	-200,000	0,012	-0,079
-529,306	-126,214	0,180	0,019
-528,291	-136,893	-0,076	-0,006
-527,277	43,215	0,050	0,034
-526,262	-172,726	0,057	-0,001
-525,248	-200,000	0,008	0,028
-524,233	639,105	-0,063	0,118
-523,218	-80,906	-0,111	0,027
-522,204	-62,869	-0,085	0,026
-521,189	-119,544	-0,086	-0,011
-520,175	143,320	0,031	-0,030
-519,160	-23,846	0,151	-0,066
-518,145	186,784	-0,017	-0,019
-517,131	-200,000	0,004	0,056
-516,116	369,003	0,059	0,088
-515,102	34,597	-0,128	-0,081
-514,087	90,599	-0,124	0,102
-513,072	-89,911	-0,155	0,033
-512,058	67,790	-0,075	-0,056
-511,043	-102,352	0,129	-0,022
-510,029	181,260	0,048	0,052
-509,014	-12,542	-0,128	0,061
-507,999	-200,000	0,011	0,088
-506,985	329,213	-0,103	-0,145
-505,970	-200,000	0,015	-0,095
-504,956	-200,000	-0,023	-0,150
-503,941	27,205	0,132	-0,081
-502,926	-68,692	-0,084	-0,023
-501,912	38,452	0,068	0,044
-500,897	557,079	0,019	0,033
-499,883	349,161	-0,017	-0,025
-498,868	175,951	-0,038	-0,041
-497,853	175,189	-0,072	-0,076
-496,839	-200,000	0,012	0,041
-495,824	-200,000	-0,026	0,111
-494,810	209,157	-0,101	0,116
-493,795	800,000	-0,045	0,105
-492,781	-174,759	0,045	0,001
-491,766	-119,777	-0,053	-0,007
-490,751	539,007	-0,021	-0,036
-489,737	74,425	-0,010	0,008
-488,722	-200,000	-0,008	0,086
-487,708	221,705	0,054	0,064
-486,693	800,000	-0,042	-0,128
-485,678	-17,785	-0,052	-0,024
-484,664	-39,326	-0,110	-0,042
-483,649	37,724	0,088	0,057
-482,635	800,000	0,057	-0,152
-481,620	161,081	0,151	-0,154
-480,605	286,978	0,041	-0,055
-479,591	800,000	0,019	0,047
-478,576	630,643	0,017	-0,031
-477,562	-200,000	0,004	-0,094
-476,547	67,190	0,115	-0,086
-475,532	-200,000	-0,013	-0,202
-474,518	800,000	0,035	-0,093
-473,503	-53,387	-0,093	0,031
-472,489	800,000	0,007	0,021
-471,474	257,484	-0,121	-0,152
-470,459	800,000	0,025	-0,075
-469,445	-43,865	0,074	0,027
-468,430	-190,457	0,063	0,000
-467,416	32,756	-0,111	0,070
-466,401	-200,000	0,047	0,166
-465,386	59,657	0,113	0,082
-464,372	-200,000	0,000	0,034
-463,357	390,906	0,022	-0,033
-462,343	129,620	-0,085	-0,080
-461,328	-77,054	0,051	0,013
-460,313	-200,000	0,001	0,033
-459,299	86,078	-0,046	-0,037
-458,284	-200,000	0,001	0,112
-457,270	131,384	0,007	0,007
-456,255	-200,000	-0,019	-0,066
-455,241	-200,000	-0,012	-0,064
-454,226	800,000	-0,063	-0,169
-453,211	623,003	-0,046	-0,085
-452,197	69,225	0,037	-0,028
-451,182	800,000	-0,010	-0,030
-450,168	-200,000	0,019	-0,123
-449,153	-93,903	0,052	0,010
-448,138	-200,000	-0,008	0,039
-447,124	279,835	0,074	-0,097
-446,109	17,706	0,108	-0,063
-445,095	-200,000	0,019	0,071
-444,080	300,002	0,016	0,021
-443,065	-81,371	-0,230	0,055
-442,051	800,000	-0,033	-0,088
-441,036	800,000	-0,035	-0,083
-440,022	800,000	-0,041	-0,093
-439,007	800,000	-0,010	-0,023
-437,992	217,192	0,128	-0,148
-436,978	-33,872	-0,079	0,032
-435,963	-200,000	0,002	-0,061
-434,949	-158,034	-0,054	0,002
-433,934	-200,000	-0,019	-0,069
-432,919	-200,000	0,019	0,064
-431,905	-89,898	-0,060	-0,013
-430,890	60,107	-0,069	0,050
-429,876	16,116	0,083	0,047
-428,861	-161,013	-0,020	0,001
-427,846	800,000	0,071	0,168
-426,832	-120,024	-0,135	-0,017
-425,817	800,000	-0,024	0,053
-424,803	291,455	0,071	0,094
-423,788	258,367	-0,058	0,073
-422,773	-80,812	0,100	0,024
-421,759	112,882	-0,041	0,036
-420,744	-32,616	0,111	0,045
-419,730	8,274	0,115	-0,063
-418,715	10,426	0,112	-0,062
-417,701	-200,000	0,013	-0,068
-416,686	-200,000	0,006	-0,038
-415,671	-85,445	-0,057	0,013
-414,657	-200,000	0,014	0,121
-413,642	56,347	0,043	-0,030
-412,628	-200,000	0,015	0,067
-411,613	-29,807	0,055	-0,023
-410,598	176,950	-0,042	-0,044
-409,584	113,224	-0,043	0,038
-408,569	-200,000	-0,010	0,040
-407,555	213,410	-0,131	0,150
-406,540	800,000	0,038	0,088
-405,525	24,470	-0,020	0,012
-404,511	302,718	-0,029	0,039
-403,496	-200,000	0,021	0,116
-402,482	-56,984	-0,113	0,036
-401,467	512,915	-0,019	0,033
-400,452	-148,521	-0,040	-0,002
-399,438	-107,118	0,024	-0,004
-398,423	-200,000	0,012	0,110
-397,409	-69,095	0,067	0,019
-396,394	56,790	-0,052	0,037
-395,379	-6,445	-0,053	0,026
-394,365	628,453	0,036	0,067
-393,350	-74,186	0,113	-0,030
-392,336	-36,510	-0,028	-0,011
-391,321	-115,863	-0,081	-0,011
-390,306	64,279	-0,098	0,071
-389,292	381,778	-0,041	0,062
-388,277	-82,773	-0,231	-0,054
-387,263	800,000	0,016	-0,039
-386,248	-178,527	0,165	0,003
-385,233	-200,000	0,008	0,070
-384,219	97,916	0,062	-0,052
-383,204	-200,000	-0,004	0,033
-382,190	147,598	0,036	-0,035
-381,175	380,678	0,045	-0,068
-380,160	-9,547	0,102	-0,049
-379,146	-155,419	-0,102	0,005
-378,131	130,881	0,049	-0,046
-377,117	800,000	-0,027	0,084
-376,102	-200,000	-0,010	-0,062
-375,088	688,336	-0,020	0,038
-374,073	-200,000	-0,021	0,082
-373,058	38,470	0,153	0,099
-372,044	-200,000	0,015	-0,063
-371,029	467,896	0,054	-0,088
-370,015	-137,669	-0,067	-0,005
-369,000	116,815	-0,073	0,065
-367,985	-200,000	0,007	-0,055
-366,971	-200,000	0,029	-0,111
-365,956	-200,000	0,002	-0,056
-364,942	800,000	0,018	-0,047
-363,927	800,000	0,044	0,135
-362,912	116,929	-0,116	-0,103
-361,898	-200,000	0,029	0,102
-360,883	-37,866	-0,089	0,034
-359,869	-39,821	0,057	0,022
-358,854	800,000	0,015	0,037
-357,839	-200,000	0,021	0,073
-356,825	-88,039	-0,042	-0,009
-355,810	-200,000	0,003	0,056
-354,796	-166,399	-0,107	0,003
-353,781	800,000	0,000	-0,001
-352,766	130,117	0,092	-0,086
-351,752	164,943	0,048	0,049
-350,737	-158,057	0,133	-0,006
-349,723	-59,661	0,143	0,044
-348,708	-200,000	-0,022	0,073
-347,693	-64,048	0,067	0,020
-346,679	-200,000	0,003	-0,115
-345,664	-200,000	-0,007	-0,025
-344,650	201,170	0,150	0,168
-343,635	643,695	-0,026	-0,048
-342,620	197,223	0,040	0,044
-341,606	-200,000	0,009	-0,099
-340,591	-26,946	-0,148	-0,062
-339,577	5,995	0,131	0,070
-338,562	248,100	0,031	-0,038
-337,548	-98,290	0,091	0,017
-336,533	-54,138	0,067	0,022
-335,518	800,000	0,049	-0,107
-334,504	-174,107	-0,060	0,001
-333,489	-200,000	-0,030	0,140
-332,475	-104,832	0,177	0,029
-331,460	-200,000	-0,041	-0,161
-330,445	644,840	0,009	-0,018
-329,431	-38,069	0,062	-0,024
-328,416	-200,000	0,001	0,133
-327,402	-200,000	0,005	0,165
-326,387	-10,565	-0,045	-0,021
-325,372	-50,882	0,078	-0,026
-324,358	66,615	0,093	-0,068
-323,343	420,854	-0,089	-0,138
-322,329	202,832	0,011	0,012
-321,314	-104,920	0,143	0,024
-320,299	596,004	-0,057	-0,103
-319,285	229,289	0,035	-0,042
-318,270	210,554	0,048	-0,055
-317,256	518,058	-0,070	-0,119
-316,241	-62,772	0,104	-0,031
-315,226	284,677	0,128	0,167
-314,212	261,220	0,037	0,046
-313,197	800,000	0,025	-0,051
-312,183	581,749	0,070	0,124
-311,168	169,954	-0,089	-0,093
-310,153	-42,180	0,046	-0,017
-309,139	18,321	-0,114	-0,066
-308,124	371,609	0,016	0,023
-307,110	-34,662	0,058	-0,023
-306,095	363,552	0,080	0,117
-305,080	-200,000	-0,012	0,040
-304,066	240,853	-0,046	-0,055
-303,051	-200,000	-0,010	-0,073
-302,037	-47,253	0,075	0,026
-301,022	-42,204	0,020	0,007
-300,008	177,116	-0,096	-0,101
-298,993	-1,371	0,031	0,016
-297,978	-200,000	-0,013	0,132
-296,964	224,978	-0,076	-0,090
-295,949	-72,231	-0,054	-0,014
-294,935	113,965	-0,061	-0,053
-293,920	143,966	-0,059	-0,057
-292,905	-32,017	0,145	-0,059
-291,891	-36,652	0,088	-0,034
-290,876	-133,226	0,036	-0,003
-289,862	-200,000	-0,009	-0,173
-288,847	-117,409	-0,082	-0,011
-287,832	276,194	-0,091	0,117
-286,818	-200,000	0,001	0,055
-285,803	-35,946	0,041	-0,016
-284,789	-200,000	-0,001	0,059
-283,774	138,832	0,070	0,066
-282,759	196,001	-0,049	-0,054
-281,745	800,000	0,045	0,091
-280,730	800,000	-0,040	-0,084
-279,716	-138,906	0,097	-0,008
-278,701	-121,530	-0,040	-0,005
-277,686	501,204	-0,047	0,079
-276,672	169,342	-0,094	0,098
-275,657	-25,778	-0,089	0,038
-274,643	800,000	0,096	0,201
-273,628	-157,765	0,011	-0,000
-272,613	-70,653	-0,145	-0,040
-271,599	-128,639	0,037	-0,004
-270,584	557,654	0,066	0,116
-269,570	-109,139	0,102	-0,016
-268,555	-134,267	0,151	-0,013
-267,540	455,935	0,078	-0,125
-266,526	800,000	0,031	0,078
-265,511	-200,000	-0,093	0,000
-264,497	-130,569	0,047	0,005
-263,482	-47,638	0,086	0,030
-262,467	172,826	0,118	0,124
-261,453	184,861	0,068	0,073
-260,438	92,027	0,063	-0,051
-259,424	800,000	-0,030	-0,092
-258,409	556,660	-0,033	0,059
-257,395	-200,000	0,017	-0,070
-256,380	332,810	-0,025	0,035
-255,365	-200,000	0,025	0,098
-254,351	68,244	-0,166	0,123
-253,336	800,000	-0,047	0,103
-252,322	800,000	-0,104	-0,234
-251,307	800,000	-0,031	-0,087
-250,292	-101,648	0,092	-0,016
-249,278	90,641	-0,126	0,102
-248,263	26,388	0,067	-0,040
-247,249	-200,000	-0,017	0,142
-246,234	112,049	0,019	-0,017
-245,219	800,000	-0,034	0,096
-244,205	-200,000	-0,015	0,078
-243,190	243,796	-0,058	0,070
-242,176	617,249	-0,033	0,060
-241,161	800,000	-0,055	0,165
-240,146	-80,580	-0,076	-0,018
-239,132	347,802	0,028	-0,040
-238,117	23,545	0,103	-0,061
-237,103	800,000	-0,038	-0,099
-236,088	800,000	0,020	0,052
-235,073	-70,204	0,053	0,014
-234,059	177,698	0,101	0,107
-233,044	-200,000	0,031	0,161
-232,030	-138,789	-0,056	0,004
-231,015	-97,340	-0,160	-0,030
-230,000	-200,000	-0,018	-0,082
-228,986	753,083	-0,034	-0,066
-227,971	597,426	-0,031	-0,055
-226,957	424,887	0,063	0,098
-225,942	-86,244	0,039	-0,009
-224,927	-200,000	-0,002	0,071
-223,913	-200,000	0,005	0,043
-222,898	182,395	-0,014	-0,015
-221,884	-94,592	0,024	-0,005
-220,869	646,387	0,055	0,102
-219,855	72,596	0,066	-0,050
-218,840	-10,882	0,087	-0,041
-217,825	268,578	-0,062	-0,078
-216,811	-46,546	-0,083	0,029
-215,796	-200,000	0,019	-0,153
-214,782	305,413	0,139	-0,187
-213,767	-40,742	-0,134	-0,050
-212,752	56,447	0,101	-0,071
-211,738	377,518	-0,059	-0,088
-210,723	800,000	-0,028	0,084
-209,709	-200,000	0,034	-0,114
-208,694	800,000	0,030	-0,065
-207,679	-200,000	0,004	0,046
-206,665	-200,000	-0,005	-0,039
-205,650	-34,013	0,082	0,033
-204,636	-200,000	-0,007	0,029
-203,621	-98,834	-0,088	-0,016
-202,606	-22,756	-0,045	0,019
-201,592	86,583	0,023	0,018
-200,577	125,310	0,066	0,061
-199,563	800,000	0,032	-0,069
-198,548	-200,000	0,021	0,131
-197,533	118,701	0,031	0,028
-196,519	-64,651	0,053	-0,015
-195,504	315,712	-0,049	-0,066
-194,490	248,253	-0,054	-0,065
-193,475	11,204	-0,126	-0,069
-192,460	260,302	0,024	-0,030
-191,446	592,734	-0,059	-0,106
-190,431	104,239	0,136	-0,115
-189,417	282,450	-0,084	-0,109
-188,402	121,555	0,069	-0,062
-187,387	558,363	-0,037	-0,065
-186,373	-200,000	-0,038	0,178
-185,358	-67,637	-0,184	0,052
-184,344	-67,845	-0,051	0,014
-183,329	-52,824	0,185	0,061
-182,315	-129,100	-0,125	-0,012
-181,300	151,610	-0,024	-0,024
-180,285	800,000	0,027	0,056
-179,271	800,000	0,044	-0,090
-178,256	800,000	-0,020	0,057
-177,242	6,672	0,029	0,015
-176,227	442,503	0,077	0,122
-175,212	108,408	0,092	0,079
-174,198	154,256	-0,081	-0,081
-173,183	-149,251	-0,107	0,006
-172,169	-200,000	-0,009	-0,033
-171,154	-73,374	0,078	0,020
-170,139	-200,000	0,002	0,067
-169,125	800,000	0,024	-0,054
-168,110	-117,980	-0,064	-0,008
-167,096	-119,132	-0,189	-0,024
-166,081	647,636	-0,103	-0,191
-165,066	-48,765	-0,050	-0,017
-164,052	-200,000	-0,003	0,156
-163,037	89,396	0,024	0,019
-162,023	180,741	0,044	-0,046
-161,008	82,437	-0,046	-0,036
-159,993	-200,000	0,004	0,037
-158,979	204,983	-0,081	-0,091
-157,964	156,677	-0,035	-0,035
-156,950	2,165	0,092	0,048
-155,935	-70,746	-0,033	0,009
-154,920	-82,854	0,133	-0,031
-153,906	-17,949	-0,047	0,021
-152,891	776,369	-0,020	0,039
-151,877	-200,000	-0,010	-0,073
-150,862	18,170	-0,031	-0,018
-149,847	84,379	-0,093	-0,073
-148,833	-3,702	0,014	0,007
-147,818	204,251	0,120	0,134
-146,804	-200,000	0,034	0,140
-145,789	800,000	-0,029	-0,087
-144,775	614,965	0,031	-0,055
-143,760	159,096	-0,085	0,085
-142,745	800,000	0,028	0,057
-141,731	-148,578	-0,091	0,005
-140,716	-200,000	-0,026	0,104
-139,702	85,151	0,071	0,056
-138,687	-130,132	0,091	0,009
-137,672	-200,000	-0,009	0,045
-136,658	800,000	0,048	-0,097
-135,643	156,845	-0,031	-0,031
-134,629	800,000	-0,022	-0,050
-133,614	100,954	0,055	-0,046
-132,599	-200,000	0,033	0,217
-131,585	0,749	-0,068	0,035
-130,570	320,560	0,066	-0,091
-129,556	800,000	0,007	0,017
-128,541	800,000	-0,020	0,041
-127,526	404,670	0,080	-0,122
-126,512	-200,000	0,022	0,095
-125,497	115,150	-0,095	0,083
-124,483	-200,000	0,033	0,121
-123,468	687,924	-0,027	-0,050
-122,453	-200,000	0,014	-0,072
-121,439	-80,050	0,105	-0,025
-120,424	49,071	-0,056	0,038
-119,410	800,000	-0,038	-0,093
-118,395	-200,000	0,001	-0,010
-117,380	-74,556	0,113	0,029
-116,366	139,738	-0,050	-0,047
-115,351	278,289	0,016	0,020
-114,337	507,352	-0,043	0,072
-113,322	800,000	-0,048	0,105
-112,307	-98,370	-0,070	-0,013
-111,293	-200,000	-0,028	0,125
-110,278	800,000	0,039	0,080
-109,264	800,000	-0,087	0,225
-108,249	800,000	-0,053	-0,158
-107,234	-14,895	0,072	-0,033
-106,220	142,526	-0,080	0,076
-105,205	800,000	0,036	0,087
-104,191	-40,718	0,051	-0,019
-103,176	3,623	-0,150	0,079
-102,162	645,078	-0,052	0,096
-101,147	-200,000	-0,009	0,147
-100,132	509,938	-0,062	-0,104
-99,118	-200,000	0,030	-0,117
-98,103	-200,000	0,013	0,150
-97,089	73,121	-0,026	0,020
-96,074	-200,000	0,004	0,066
-95,059	-95,516	0,051	0,010
-94,045	-57,076	-0,040	0,013
-93,030	-200,000	-0,005	-0,018
-92,016	-5,291	-0,126	-0,062
-91,001	800,000	0,017	0,054
-89,986	123,218	0,079	0,071
-88,972	780,401	-0,040	0,080
-87,957	800,000	0,012	-0,024
-86,943	-200,000	-0,003	0,039
-85,928	800,000	0,033	0,100
-84,913	26,573	-0,075	-0,045
-83,899	-200,000	0,031	-0,098
-82,884	-17,426	0,075	0,034
-81,870	-59,986	-0,141	0,043
-80,855	30,081	-0,097	0,059
-79,840	800,000	-0,019	-0,044
-78,826	-81,345	-0,142	-0,033
-77,811	800,000	-0,007	-0,016
-76,797	152,353	0,081	0,080
-75,782	-126,796	-0,085	0,009
-74,767	800,000	-0,021	-0,062
-73,753	2,407	-0,137	0,071
-72,738	-200,000	0,036	0,134
-71,724	-200,000	0,015	-0,084
-70,709	224,033	-0,059	-0,069
-69,694	-75,638	-0,200	0,051
-68,680	-119,688	0,093	0,011
-67,665	-25,157	-0,042	-0,018
-66,651	118,154	0,052	0,046
-65,636	-171,837	-0,117	-0,003
-64,622	192,123	-0,060	0,065
-63,607	800,000	-0,029	-0,069
-62,592	534,743	0,081	0,139
-61,578	-171,860	0,085	0,002
-60,563	-200,000	0,016	0,078
-59,549	148,660	-0,009	0,009
-58,534	-18,506	-1,889	-0,843
-57,519	800,000	-0,364	-1,033
-56,505	-200,000	-1,203	-4,820
-55,490	-15,158	0,793	0,363
-54,476	800,000	5,326	12,197
-53,461	-200,000	17,020	281,096
-52,446	800,000	720,412	2223,467
-51,432	544,906	1635,720	2816,469
-50,417	113,178	1630,356	1419,399
-49,403	76,597	1287,579	979,229
-48,388	33,274	1030,697	640,598
-47,373	20,415	992,309	574,241
-46,359	18,941	980,594	562,591
-45,344	16,554	976,537	552,408
-44,330	16,712	975,111	552,095
-43,315	16,282	973,406	549,702
-42,300	16,251	972,332	548,969
-41,286	16,236	971,329	548,332
-40,271	16,285	970,102	547,779
-39,257	16,324	969,341	547,456
-38,242	16,205	968,531	546,587
-37,227	16,283	967,750	546,381
-36,213	16,233	966,898	545,714
-35,198	16,242	965,941	545,181
-34,184	16,268	965,245	544,852
-33,169	16,207	964,209	544,048
-32,154	16,313	963,197	543,798
-31,140	16,257	962,234	543,051
-30,125	16,349	961,570	542,953
-29,111	16,321	960,469	542,219
-28,096	16,287	959,982	541,814
-27,082	16,258	959,531	541,444
-26,067	16,183	958,855	540,800
-25,052	16,293	957,783	540,528
-24,038	16,261	957,200	540,074
-23,023	16,239	956,627	539,659
-22,009	16,326	955,934	539,526
-20,994	16,253	955,290	538,905
-19,979	16,222	954,700	538,453
-18,965	16,248	954,166	538,213
-17,950	16,270	953,435	537,848
-16,936	16,230	952,833	537,361
-15,921	16,217	952,100	536,885
-14,906	16,108	951,374	536,105
-13,892	16,124	950,772	535,795
-12,877	16,122	950,105	535,392
-11,863	16,099	949,389	534,896
-10,848	16,157	948,922	534,794
-9,833	16,219	948,374	534,661
-8,819	16,211	947,811	534,297
-7,804	16,097	947,139	533,536
-6,790	16,073	946,670	533,173
-5,775	16,196	946,064	533,202
-4,760	16,125	945,442	532,605
-3,746	16,121	944,743	532,176
-2,731	16,041	944,178	531,585
-1,717	15,993	943,267	530,899
-0,702	15,954	942,940	530,569
0,313	15,812	942,065	530,427
1,327	19,052	939,867	539,379
2,342	28,286	797,602	482,283
3,356	25,307	460,869	274,078
4,371	-2,271	314,578	157,774
5,386	-6,278	296,210	144,494
6,400	-8,426	290,361	139,495
7,415	-8,820	287,830	137,878
8,429	-9,152	286,351	136,832
9,444	-9,107	285,463	136,440
10,459	-8,911	284,665	136,237
11,473	-9,182	284,237	135,757
12,488	-8,956	283,704	135,709
13,502	-9,146	283,143	135,245
14,517	-9,019	282,596	135,095
15,531	-9,160	282,144	134,730
16,546	-9,021	281,819	134,697
17,561	-9,084	281,495	134,469
18,575	-9,082	281,127	134,283
19,590	-9,110	280,593	133,990
20,604	-8,910	280,324	134,041
21,619	-9,155	280,005	133,642
22,634	-9,217	280,022	133,579
23,648	-9,259	279,541	133,297
24,663	-8,891	279,012	133,384
25,677	-9,124	278,756	133,028
26,692	-9,034	278,648	133,050
27,707	-9,073	278,478	132,920
28,721	-9,273	278,264	132,616
29,736	-9,173	277,685	132,423
30,750	-9,193	277,472	132,291
31,765	-9,027	277,368	132,387
32,780	-9,011	277,073	132,249
33,794	-9,204	276,800	131,924
34,809	-9,039	276,524	131,937
35,823	-9,250	276,313	131,626
36,838	-9,135	276,049	131,597
37,853	-9,434	275,804	131,187
38,867	-9,245	275,488	131,203
39,882	-9,351	275,327	131,014
40,896	-9,187	275,004	131,003
41,911	-9,377	274,861	130,745
42,926	-9,106	274,546	130,837
43,940	-8,949	274,368	130,887
44,955	-9,202	274,202	130,560
45,969	-9,307	273,979	130,344
46,984	-9,568	273,763	129,986
47,999	-9,598	273,326	129,739
49,013	-9,535	273,057	129,658
50,028	-9,754	272,938	129,386
51,042	-9,720	272,590	129,242
52,057	-9,911	272,375	128,951
53,071	-9,966	272,164	128,789
54,086	-9,743	271,908	128,862
55,101	-9,572	271,754	128,936
56,115	-9,423	271,659	129,018
57,130	-9,041	271,437	129,254
58,144	-9,067	271,383	129,193
59,159	-9,058	271,011	129,012
60,174	-9,049	270,803	128,910
61,188	-9,029	270,634	128,836
62,203	-8,861	270,306	128,824
63,217	-9,034	270,287	128,644
64,232	-8,970	270,039	128,574
65,247	-9,093	269,796	128,333
66,261	-8,919	269,443	128,314
67,276	-9,118	269,170	127,989
68,290	-9,327	269,083	127,746
69,305	-9,513	268,888	127,471
70,320	-9,489	268,527	127,310
71,334	-9,190	268,467	127,544
72,349	-8,917	268,338	127,721
73,363	-8,962	268,103	127,556
74,378	-9,028	267,781	127,331
75,393	-9,098	267,688	127,213
76,407	-9,047	267,322	127,074
77,422	-8,899	267,100	127,091
78,436	-8,994	266,917	126,907
79,451	-9,158	266,764	126,674
80,466	-9,125	266,393	126,516
81,480	-9,154	266,446	126,504
82,495	-9,269	266,031	126,191
83,509	-9,146	265,902	126,230
84,524	-9,206	265,608	126,025
85,539	-9,188	265,290	125,879
86,553	-9,532	265,265	125,546
87,568	-9,243	264,943	125,642
88,582	-9,307	264,815	125,513
89,597	-9,359	264,751	125,425
90,611	-9,121	264,412	125,467
91,626	-9,110	264,254	125,390
92,641	-9,081	264,081	125,323
93,655	-9,212	263,849	125,084
94,670	-9,096	263,508	125,016
95,684	-9,071	263,459	125,003
96,699	-9,230	263,396	124,820
97,714	-9,046	263,021	124,796
98,728	-9,348	262,845	124,431
99,743	-9,197	262,494	124,389
100,757	-9,476	262,301	124,038
101,772	-9,268	262,127	124,129
102,787	-9,069	261,967	124,219
103,801	-9,165	261,934	124,108
104,816	-9,207	261,666	123,932
105,830	-8,906	261,431	124,077
106,845	-8,942	261,108	123,881
107,860	-9,115	261,024	123,677
108,874	-9,019	260,712	123,602
109,889	-8,962	260,701	123,637
110,903	-9,127	260,442	123,358
111,918	-9,093	260,325	123,321
112,933	-9,165	260,240	123,206
113,947	-9,083	259,818	123,067
114,962	-8,995	259,738	123,096
115,976	-9,035	259,563	122,967
116,991	-8,911	259,195	122,891
118,006	-8,878	258,994	122,813
119,020	-9,094	259,042	122,636
120,035	-9,057	258,936	122,606
121,049	-8,843	258,750	122,695
122,064	-9,132	258,444	122,286
123,079	-9,041	258,216	122,248
124,093	-9,160	258,096	122,075
125,108	-9,267	257,709	121,788
126,122	-9,429	257,528	121,551
127,137	-9,527	257,360	121,375
128,151	-9,319	257,185	121,463
129,166	-9,281	257,027	121,410
130,181	-9,274	256,695	121,249
131,195	-9,276	256,565	121,174
132,210	-9,201	256,424	121,162
133,224	-9,082	256,385	121,237
134,239	-9,016	256,061	121,129
135,254	-8,876	255,878	121,154
136,268	-9,153	255,564	120,754
137,283	-9,374	255,400	120,475
138,297	-9,525	255,191	120,235
139,312	-9,584	254,852	120,014
140,327	-9,344	254,889	120,228
141,341	-8,888	254,802	120,569
142,356	-8,883	254,674	120,502
143,370	-8,916	254,379	120,323
144,385	-8,847	254,341	120,354
145,400	-8,723	254,011	120,294
146,414	-8,701	253,837	120,219
147,429	-8,826	253,807	120,088
148,443	-8,925	253,423	119,810
149,458	-8,719	253,307	119,921
150,473	-8,715	253,166	119,847
151,487	-9,056	252,975	119,454
152,502	-8,933	252,877	119,502
153,516	-9,019	252,633	119,303
154,531	-8,814	252,449	119,380
155,546	-8,928	252,446	119,271
156,560	-8,991	252,221	119,100
157,575	-9,163	252,028	118,853
158,589	-9,031	251,772	118,833
159,604	-8,729	251,415	118,910
160,619	-8,858	251,212	118,694
161,633	-8,891	251,220	118,660
162,648	-8,961	251,040	118,505
163,662	-8,779	250,938	118,600
164,677	-8,840	250,731	118,440
165,692	-8,975	250,666	118,284
166,706	-8,820	250,370	118,266
167,721	-8,877	250,250	118,150
168,735	-8,871	250,056	118,053
169,750	-8,918	250,035	117,993
170,764	-8,701	249,800	118,054
171,779	-8,774	249,577	117,877
172,794	-8,664	249,438	117,893
173,808	-8,679	249,123	117,721
174,823	-9,215	248,862	117,138
175,837	-9,434	248,602	116,821
176,852	-9,053	248,651	117,153
177,867	-8,942	248,637	117,229
178,881	-8,721	248,362	117,275
179,896	-8,716	248,146	117,166
180,910	-8,653	248,072	117,173
181,925	-8,793	247,875	116,953
182,940	-8,788	247,776	116,900
183,954	-8,773	247,574	116,806
184,969	-8,751	247,459	116,760
185,983	-8,719	247,244	116,676
186,998	-8,659	247,112	116,652
188,013	-8,858	246,968	116,409
189,027	-8,666	246,736	116,448
190,042	-8,862	246,536	116,180
191,056	-8,830	246,444	116,153
192,071	-8,651	246,129	116,143
193,086	-8,783	246,006	115,966
194,100	-8,703	245,830	115,938
195,115	-8,624	245,698	115,931
196,129	-8,596	245,332	115,771
197,144	-8,809	245,268	115,555
198,159	-8,980	245,204	115,373
199,173	-8,673	244,964	115,503
200,188	-8,645	244,664	115,374
201,202	-8,993	244,451	114,977
202,217	-9,214	244,286	114,708
203,232	-9,400	243,910	114,369
204,246	-8,971	243,907	114,709
205,261	-8,389	243,947	115,195
206,275	-9,226	243,673	114,369
207,290	-6,310	244,783	117,279
208,304	-0,640	246,404	122,731
209,319	1,694	246,941	124,915
210,334	2,096	246,837	125,184
211,348	2,281	246,944	125,379
212,363	2,751	246,928	125,748
213,377	2,993	246,656	125,797
214,392	3,011	246,547	125,745
215,407	2,929	246,479	125,632
216,421	2,824	246,330	125,458
217,436	3,131	246,241	125,654
218,450	3,194	245,988	125,565
219,465	2,810	245,721	125,103
220,480	2,438	245,680	124,765
221,494	2,769	245,556	124,963
222,509	2,980	245,385	125,037
223,523	2,795	245,215	124,788
224,538	2,284	244,797	124,147
225,553	2,289	244,757	124,120
226,567	2,491	244,607	124,197
227,582	2,564	244,468	124,176
228,596	2,683	244,539	124,298
229,611	2,640	244,074	124,015
230,626	2,146	244,017	123,573
231,640	2,832	243,758	123,989
232,655	2,639	243,779	123,832
233,669	2,553	243,402	123,559
234,684	2,282	243,290	123,271
235,699	2,938	243,105	123,698
236,713	3,065	243,081	123,778
237,728	2,672	242,815	123,314
238,742	2,352	242,685	122,978
239,757	2,448	242,527	122,963
240,772	2,397	242,315	122,804
241,786	2,646	242,216	122,944
242,801	2,318	241,870	122,493
243,815	2,128	241,945	122,367
244,830	2,361	241,850	122,496
245,844	2,679	241,669	122,649
246,859	2,453	241,522	122,382
247,874	2,563	241,277	122,335
248,888	2,555	241,112	122,234
249,903	2,616	240,885	122,157
250,917	2,775	240,917	122,290
251,932	2,916	240,968	122,418
252,947	2,774	240,557	122,084
253,961	2,361	240,291	121,609
254,976	2,612	240,150	121,727
255,990	2,909	240,031	121,893
257,005	2,608	239,756	121,503
258,020	2,335	239,669	121,230
259,034	2,218	239,562	121,072
260,049	2,739	239,483	121,436
261,063	2,243	239,323	120,949
262,078	2,277	239,122	120,864
263,093	2,758	238,968	121,157
264,107	2,828	238,721	121,077
265,122	2,558	238,548	120,765
266,136	2,485	238,575	120,709
267,151	2,904	238,459	120,972
268,166	2,549	238,032	120,464
269,180	2,391	237,970	120,297
270,195	3,071	238,015	120,847
271,209	2,945	237,872	120,664
272,224	2,680	237,525	120,268
273,239	2,414	237,364	119,966
274,253	2,398	237,128	119,824
275,268	2,454	237,160	119,873
276,282	2,650	237,012	119,941
277,297	2,529	236,525	119,589
278,312	2,504	236,669	119,632
279,326	2,498	236,554	119,558
280,341	2,612	236,417	119,568
281,355	2,534	236,283	119,428
282,370	2,758	236,039	119,470
283,384	2,671	235,963	119,352
284,399	2,722	235,615	119,206
285,414	2,479	235,581	118,988
286,428	2,459	235,419	118,880
287,443	2,410	235,399	118,821
288,457	2,902	235,105	119,046
289,472	2,907	235,115	119,044
290,487	2,616	235,007	118,752
291,501	2,542	234,598	118,477
292,516	2,314	234,373	118,176
293,530	2,256	234,193	118,029
294,545	2,570	234,166	118,249
295,560	2,769	234,103	118,361
296,574	2,318	233,883	117,890
297,589	2,461	233,745	117,920
298,603	2,785	233,651	118,113
299,618	2,699	233,651	118,036
300,633	2,804	233,441	118,001
301,647	2,835	233,294	117,939
302,662	3,030	233,288	118,077
303,676	3,307	233,058	118,164
304,691	3,101	232,890	117,910
305,706	3,169	232,696	117,853
306,720	2,926	232,608	117,611
307,735	2,773	232,522	117,439
308,749	2,560	232,237	117,121
309,764	2,716	231,975	117,098
310,779	2,320	231,937	116,764
311,793	2,214	231,623	116,514
312,808	2,472	231,362	116,571
313,822	2,305	231,278	116,390
314,837	2,135	231,355	116,288
315,852	2,216	231,143	116,233
316,866	2,665	231,007	116,498
317,881	2,851	230,925	116,588
318,895	2,885	230,825	116,553
319,910	3,097	230,731	116,657
320,925	2,901	230,358	116,308
321,939	2,445	230,261	115,902
322,954	2,911	230,253	116,242
323,968	2,491	230,022	115,796
324,983	2,753	229,909	115,928
325,997	2,730	229,794	115,842
327,012	2,524	229,597	115,576
328,027	2,220	229,303	115,187
329,041	2,666	229,382	115,555
330,056	3,492	229,408	116,184
331,070	3,467	229,228	116,063
332,085	3,187	228,898	115,674
333,100	2,662	228,710	115,172
334,114	2,624	228,553	115,054
335,129	2,953	228,288	115,159
336,143	3,150	228,197	115,251
337,158	2,947	228,245	115,112
338,173	3,084	228,051	115,107
339,187	2,876	227,921	114,875
340,202	3,262	227,721	115,054
341,216	2,932	227,640	114,755
342,231	2,804	227,471	114,563
343,246	2,817	227,448	114,551
344,260	2,920	227,163	114,475
345,275	3,184	227,080	114,620
346,289	3,069	226,959	114,463
347,304	2,991	226,840	114,335
348,319	3,008	226,725	114,279
349,333	3,027	226,423	114,131
350,348	2,760	226,141	113,779
351,362	2,689	226,152	113,721
352,377	2,867	225,955	113,745
353,392	2,679	225,858	113,546
354,406	2,753	225,717	113,520
355,421	196,296	1320,104	1399,697
356,435	157,375	1453,444	1399,705
