DTS Sentinel unit serial number:	SN410029Multiplexer serial number:	ORYXHardware model number:	OX2-SRSoftware version number:	ORYX F/W v4,00 Oryx Data Collector v3.7.2.0data status	okinstallation	B5 Nyhavnadifferential loss correction	single-endedforward channel	channel 2reverse channel	N/Adate	2023/12/12time	19:37:13forward acquisition time	300,00reverse acquisition time	0,00gamma	499,1914k internal	0,3157k external	0,3157temperature offset calibration	1,0000default loss term (dB/km)	0,3820temperature slope calibration	1,0000multiplexer offset coefficient	1,0000multiplexer slope coefficient	1,0000fibre end	0,00T internal ref (°C)	15,44T ext. ref 1 (°C)	-1,22T ext. ref 2 (°C)	-1,52length (m)	temperature (°C)	Stokes	anti-Stokes-744,400	138,034	-0,042	0,041
-743,385	-140,050	-0,193	0,015
-742,371	-111,183	0,147	0,022
-741,356	-111,760	-0,267	0,039
-740,342	105,553	0,065	0,056
-739,327	23,582	-0,250	0,152
-738,312	-3,060	0,056	0,029
-737,298	-64,439	-0,331	-0,098
-736,283	-32,977	0,142	-0,058
-735,269	-136,486	-0,342	-0,029
-734,254	-7,743	-0,069	0,034
-733,239	-42,252	-0,518	-0,194
-732,225	-129,096	0,160	0,016
-731,210	94,907	-0,099	-0,083
-730,196	800,000	-0,023	0,062
-729,181	-100,714	0,095	-0,017
-728,167	-38,521	-0,050	-0,019
-727,152	-19,744	0,092	-0,042
-726,137	140,177	-0,115	-0,112
-725,123	-200,000	0,006	-0,069
-724,108	-86,155	-0,141	-0,032
-723,094	91,627	0,065	-0,054
-722,079	-12,230	-0,036	-0,017
-721,064	50,444	0,083	-0,058
-720,050	253,030	-0,062	-0,078
-719,035	70,889	-0,091	0,069
-718,021	284,708	0,023	-0,030
-717,006	163,192	-0,079	-0,082
-715,991	-33,892	-0,055	0,022
-714,977	-5,754	-0,101	-0,051
-713,962	-200,000	-0,020	-0,068
-712,948	-8,234	0,061	-0,030
-711,933	-200,000	0,013	0,080
-710,918	800,000	-0,044	0,113
-709,904	7,340	-0,093	-0,051
-708,889	-136,958	-0,077	0,006
-707,875	160,460	-0,054	0,055
-706,860	-62,640	0,066	-0,020
-705,845	11,845	0,153	0,087
-704,831	383,323	-0,028	-0,043
-703,816	188,731	-0,095	-0,105
-702,802	-85,942	-0,179	-0,040
-701,787	105,200	-0,072	-0,062
-700,772	-135,119	0,080	0,007
-699,758	-34,326	-0,166	-0,067
-698,743	501,832	-0,058	0,099
-697,729	800,000	0,008	-0,018
-696,714	495,359	0,040	-0,067
-695,699	-200,000	0,026	-0,194
-694,685	131,862	-0,084	-0,079
-693,670	-110,297	-0,145	-0,022
-692,656	-26,497	0,121	-0,052
-691,641	577,921	0,024	0,043
-690,627	800,000	-0,015	0,045
-689,612	279,124	-0,016	0,021
-688,597	800,000	0,008	0,021
-687,583	800,000	-0,040	-0,107
-686,568	27,173	-0,113	-0,070
-685,554	-200,000	-0,028	-0,105
-684,539	166,546	0,014	0,014
-683,524	-104,162	-0,125	0,021
-682,510	-68,111	-0,054	0,015
-681,495	800,000	0,014	-0,032
-680,481	75,198	-0,065	0,050
-679,466	-200,000	-0,013	0,141
-678,451	-200,000	-0,026	0,122
-677,437	-200,000	0,050	-0,182
-676,422	800,000	0,003	-0,008
-675,408	-160,912	0,048	-0,002
-674,393	328,274	0,028	-0,040
-673,378	-71,673	-0,168	-0,046
-672,364	156,938	0,071	-0,072
-671,349	213,904	-0,039	0,045
-670,335	215,247	0,036	0,042
-669,320	-200,000	0,011	-0,067
-668,305	98,592	0,097	0,082
-667,291	800,000	-0,005	0,012
-666,276	-4,306	-0,105	0,053
-665,262	179,951	-0,052	0,056
-664,247	6,859	-0,072	-0,039
-663,232	-200,000	-0,001	-0,072
-662,218	-3,598	0,158	0,080
-661,203	-200,000	0,002	0,120
-660,189	106,763	0,092	-0,080
-659,174	703,927	0,033	0,064
-658,159	-200,000	0,011	-0,042
-657,145	-185,510	-0,108	-0,001
-656,130	800,000	-0,031	-0,065
-655,116	-95,849	0,052	-0,010
-654,101	-149,687	0,152	-0,009
-653,086	-200,000	0,027	0,110
-652,072	-200,000	0,010	0,108
-651,057	-200,000	0,006	-0,056
-650,043	32,218	0,068	-0,043
-649,028	-200,000	0,027	-0,093
-648,014	597,353	0,104	0,191
-646,999	-200,000	-0,000	0,052
-645,984	156,663	0,073	0,074
-644,970	-163,519	-0,028	-0,001
-643,955	65,747	0,079	-0,059
-642,941	22,086	-0,137	-0,082
-641,926	13,801	0,052	-0,030
-640,911	-72,686	-0,067	-0,018
-639,897	-175,643	0,100	-0,002
-638,882	182,987	-0,003	0,003
-637,868	52,020	-0,099	-0,069
-636,853	800,000	-0,061	-0,160
-635,838	-150,118	0,029	-0,002
-634,824	689,800	-0,063	-0,121
-633,809	423,513	0,047	-0,075
-632,795	81,232	-0,099	-0,078
-631,780	397,052	-0,028	0,044
-630,765	-41,837	-0,031	-0,012
-629,751	33,880	-0,041	-0,026
-628,736	-6,310	-0,090	-0,045
-627,722	-11,534	0,010	-0,005
-626,707	211,460	-0,057	0,066
-625,692	133,250	0,069	-0,066
-624,678	67,648	-0,048	0,036
-623,663	-200,000	-0,005	-0,042
-622,649	17,888	-0,115	-0,067
-621,634	-108,664	-0,053	0,008
-620,619	28,430	0,127	0,079
-619,605	320,177	0,069	-0,096
-618,590	800,000	0,027	0,056
-617,576	-200,000	0,019	0,067
-616,561	30,762	0,020	0,012
-615,546	75,804	-0,068	0,053
-614,532	800,000	0,005	0,014
-613,517	-2,846	-0,105	0,054
-612,503	800,000	0,077	-0,191
-611,488	-92,552	0,037	-0,008
-610,474	-104,137	-0,108	0,018
-609,459	8,791	0,059	0,033
-608,444	13,704	-0,122	-0,069
-607,430	800,000	-0,019	0,045
-606,415	-200,000	0,006	-0,096
-605,401	-58,482	0,020	0,006
-604,386	-70,609	-0,096	0,026
-603,371	-66,155	0,022	-0,006
-602,357	296,437	-0,089	0,120
-601,342	-200,000	-0,001	-0,025
-600,328	500,601	0,030	-0,051
-599,313	89,711	0,058	0,048
-598,298	-44,746	0,044	-0,016
-597,284	-134,185	0,136	-0,012
-596,269	800,000	-0,032	0,094
-595,255	-200,000	-0,001	-0,051
-594,240	-200,000	-0,000	-0,060
-593,225	-200,000	-0,007	-0,039
-592,211	-200,000	0,033	-0,123
-591,196	270,243	-0,093	-0,120
-590,182	-27,764	0,087	-0,037
-589,167	-72,422	0,045	0,012
-588,152	-200,000	0,014	0,067
-587,138	800,000	-0,030	-0,069
-586,123	-200,000	-0,023	-0,135
-585,109	384,613	-0,062	-0,094
-584,094	204,984	0,043	-0,048
-583,079	464,189	0,075	0,123
-582,065	64,989	0,019	-0,014
-581,050	67,071	0,064	0,048
-580,036	-37,266	0,125	-0,049
-579,021	-11,006	-0,026	-0,012
-578,006	-200,000	0,010	-0,059
-576,992	-200,000	-0,031	0,105
-575,977	203,124	-0,060	-0,068
-574,963	23,370	0,123	0,074
-573,948	-200,000	-0,012	-0,061
-572,934	-4,547	0,069	0,035
-571,919	130,014	0,041	0,039
-570,904	300,618	-0,045	0,061
-569,890	800,000	0,012	-0,026
-568,875	-115,856	-0,164	-0,022
-567,861	315,997	-0,022	-0,031
-566,846	385,272	-0,024	0,036
-565,831	-200,000	-0,009	-0,073
-564,817	217,555	-0,073	-0,085
-563,802	-99,818	0,078	-0,014
-562,788	-200,000	0,001	-0,054
-561,773	95,016	-0,096	0,080
-560,758	-200,000	-0,010	0,086
-559,744	209,445	0,012	-0,014
-558,729	800,000	-0,004	-0,009
-557,715	800,000	-0,031	-0,071
-556,700	-200,000	0,020	0,068
-555,685	-200,000	-0,036	-0,133
-554,671	-27,036	-0,153	-0,065
-553,656	800,000	0,039	0,094
-552,642	159,074	0,009	0,009
-551,627	182,354	0,038	0,041
-550,612	293,046	0,015	0,019
-549,598	166,889	-0,080	0,083
-548,583	800,000	0,043	-0,092
-547,569	-200,000	0,002	0,023
-546,554	-21,455	0,017	0,008
-545,539	225,255	-0,050	0,059
-544,525	-61,142	-0,080	0,025
-543,510	-26,330	0,109	0,047
-542,496	-29,394	-0,087	0,036
-541,481	118,790	0,074	-0,067
-540,466	-200,000	0,048	-0,190
-539,452	-188,700	0,073	-0,001
-538,437	426,475	0,046	0,073
-537,423	292,163	-0,069	-0,092
-536,408	-36,277	-0,011	0,004
-535,393	455,226	0,024	0,039
-534,379	142,166	0,080	-0,078
-533,364	-86,526	0,132	0,029
-532,350	800,000	0,023	-0,047
-531,335	-200,000	0,015	-0,053
-530,321	629,664	0,068	-0,127
-529,306	800,000	-0,040	-0,088
-528,291	-107,791	-0,064	-0,010
-527,277	545,872	0,062	-0,109
-526,262	-76,524	-0,045	-0,012
-525,248	74,159	-0,039	0,030
-524,233	-171,354	0,086	0,002
-523,218	-6,857	-0,071	-0,035
-522,204	187,000	0,088	0,096
-521,189	-38,186	-0,072	0,028
-520,175	800,000	0,039	-0,094
-519,160	39,303	0,037	0,024
-518,145	422,662	0,052	-0,082
-517,131	-130,076	0,113	-0,011
-516,116	-200,000	0,043	0,176
-515,102	33,752	0,051	-0,032
-514,087	800,000	0,021	-0,048
-513,072	8,315	-0,066	0,036
-512,058	374,745	0,080	-0,120
-511,043	109,632	-0,066	0,058
-510,029	432,580	0,095	0,151
-509,014	73,453	0,069	-0,053
-507,999	-200,000	0,014	-0,089
-506,985	-62,052	-0,099	0,030
-505,970	800,000	-0,060	-0,135
-504,956	-200,000	-0,025	-0,116
-503,941	287,131	-0,043	0,057
-502,926	-42,779	-0,105	0,039
-501,912	-200,000	-0,004	0,069
-500,897	72,208	0,103	-0,078
-499,883	-43,003	-0,093	-0,034
-498,868	-182,943	-0,103	0,001
-497,853	504,304	0,058	0,099
-496,839	26,351	0,039	0,024
-495,824	-81,218	-0,078	-0,019
-494,810	162,221	-0,080	0,082
-493,795	788,475	0,029	0,058
-492,781	219,460	-0,025	-0,030
-491,766	800,000	0,022	-0,059
-490,751	-200,000	0,006	0,026
-489,737	-33,879	0,129	-0,052
-488,722	-41,169	0,109	0,041
-487,708	-117,305	-0,126	-0,017
-486,693	578,978	0,054	0,097
-485,678	-29,126	-0,064	-0,027
-484,664	-113,692	-0,160	-0,023
-483,649	-200,000	-0,018	-0,117
-482,635	-200,000	-0,006	-0,060
-481,620	504,186	0,028	0,047
-480,605	-200,000	0,007	0,073
-479,591	260,843	-0,048	-0,060
-478,576	-200,000	-0,007	0,108
-477,562	106,731	-0,099	-0,086
-476,547	-134,091	-0,027	-0,002
-475,532	314,922	0,099	-0,137
-474,518	-200,000	-0,030	0,164
-473,503	79,245	0,124	0,097
-472,489	-130,590	0,012	-0,001
-471,474	-200,000	-0,011	-0,166
-470,459	212,472	-0,060	0,069
-469,445	800,000	-0,053	0,128
-468,430	9,839	-0,078	0,043
-467,416	331,987	-0,049	0,069
-466,401	285,910	-0,019	0,025
-465,386	23,213	0,079	0,047
-464,372	107,938	0,070	0,061
-463,357	113,625	-0,132	0,117
-462,343	-200,000	0,003	-0,050
-461,328	-9,249	-0,055	-0,027
-460,313	800,000	0,030	-0,072
-459,299	414,625	0,041	0,064
-458,284	-111,975	0,111	0,016
-457,270	112,891	-0,115	0,102
-456,255	216,730	-0,109	-0,127
-455,241	-130,622	-0,061	-0,006
-454,226	40,656	0,057	0,037
-453,211	800,000	0,022	-0,050
-452,197	-94,274	0,076	0,015
-451,182	173,085	0,089	0,093
-450,168	-200,000	0,032	0,164
-449,153	64,418	-0,042	-0,031
-448,138	439,519	-0,071	0,113
-447,124	-34,572	0,083	0,033
-446,109	216,066	-0,013	-0,015
-445,095	-101,478	-0,030	0,005
-444,080	800,000	0,041	0,125
-443,065	-27,784	0,118	0,049
-442,051	-200,000	0,000	-0,080
-441,036	-200,000	-0,004	-0,086
-440,022	-121,610	-0,099	0,012
-439,007	-200,000	-0,000	-0,053
-437,992	676,933	-0,039	0,074
-436,978	-200,000	0,028	0,096
-435,963	-200,000	0,004	0,033
-434,949	-93,110	-0,127	-0,025
-433,934	-200,000	0,007	-0,097
-432,919	-200,000	0,023	0,083
-431,905	800,000	-0,016	0,050
-430,890	362,436	0,035	0,051
-429,876	-200,000	0,129	-0,000
-428,861	54,535	-0,107	-0,075
-427,846	-109,234	-0,167	0,025
-426,832	-200,000	-0,009	-0,162
-425,817	800,000	-0,038	-0,119
-424,803	771,028	0,018	0,036
-423,788	-101,515	0,076	-0,013
-422,773	33,666	-0,095	0,060
-421,759	800,000	-0,048	0,126
-420,744	-200,000	-0,002	0,047
-419,730	138,512	0,075	-0,071
-418,715	154,798	-0,036	-0,036
-417,701	-52,256	-0,124	-0,042
-416,686	607,714	0,070	0,128
-415,671	6,135	-0,039	-0,021
-414,657	-200,000	0,011	0,070
-413,642	416,200	0,029	-0,046
-412,628	-200,000	-0,204	0,000
-411,613	141,172	0,048	-0,046
-410,598	145,641	-0,065	0,063
-409,584	-48,549	-0,088	0,031
-408,569	-47,996	0,085	0,030
-407,555	-200,000	0,005	0,058
-406,540	-200,000	0,014	0,111
-405,525	800,000	-0,048	0,145
-404,511	443,370	-0,031	0,049
-403,496	739,273	-0,012	-0,023
-402,482	55,797	-0,113	-0,080
-401,467	98,331	0,098	-0,082
-400,452	-14,606	0,064	0,030
-399,438	-89,998	0,143	-0,030
-398,423	-200,000	-0,003	0,084
-397,409	127,449	0,037	-0,034
-396,394	-66,557	-0,068	0,020
-395,379	-16,903	0,079	0,036
-394,365	-17,849	-0,044	0,020
-393,350	80,683	-0,044	0,034
-392,336	-200,000	0,005	0,095
-391,321	532,094	-0,031	-0,054
-390,306	-100,577	-0,084	0,015
-389,292	83,361	0,080	0,064
-388,277	-71,809	0,041	-0,011
-387,263	-200,000	0,003	0,123
-386,248	800,000	0,025	0,075
-385,233	92,087	0,071	0,058
-384,219	-200,000	-0,012	0,085
-383,204	-88,951	-0,101	-0,021
-382,190	-200,000	0,019	-0,170
-381,175	800,000	0,078	-0,170
-380,160	-66,060	0,138	0,040
-379,146	-130,442	-0,061	-0,006
-378,131	-200,000	0,007	0,083
-377,117	-200,000	-0,040	0,166
-376,102	375,954	-0,023	0,034
-375,088	104,294	-0,083	0,071
-374,073	800,000	0,045	-0,104
-373,058	-200,000	0,003	-0,010
-372,044	800,000	0,068	0,144
-371,029	-200,000	0,004	0,110
-370,015	2,733	-0,018	0,010
-369,000	114,671	-0,154	-0,137
-367,985	187,293	-0,116	-0,126
-366,971	97,603	0,086	-0,072
-365,956	800,000	0,054	-0,155
-364,942	161,377	0,007	0,007
-363,927	800,000	0,049	0,115
-362,912	228,013	0,067	0,079
-361,898	800,000	0,041	0,095
-360,883	-200,000	0,020	0,116
-359,869	-200,000	0,031	-0,133
-358,854	167,043	0,040	-0,041
-357,839	-134,896	-0,014	0,001
-356,825	-111,145	-0,042	0,006
-355,810	-200,000	0,035	-0,000
-354,796	-200,000	-0,011	-0,101
-353,781	-7,661	-0,083	-0,041
-352,766	707,116	-0,083	-0,160
-351,752	-0,142	0,122	-0,063
-350,737	-82,118	0,088	-0,021
-349,723	144,335	-0,117	0,113
-348,708	-174,435	0,148	-0,003
-347,693	75,920	-0,059	0,045
-346,679	800,000	0,038	-0,077
-345,664	-106,212	0,042	-0,007
-344,650	-200,000	0,001	0,029
-343,635	-15,262	0,069	0,032
-342,620	318,476	-0,019	0,026
-341,606	-92,244	0,138	-0,028
-340,591	800,000	-0,040	-0,109
-339,577	-200,000	0,019	0,068
-338,562	213,659	-0,033	-0,038
-337,548	-200,000	-0,005	-0,040
-336,533	-97,188	0,079	0,015
-335,518	306,065	-0,045	0,061
-334,504	177,974	0,011	-0,011
-333,489	207,592	0,007	-0,008
-332,475	-82,625	-0,025	-0,006
-331,460	761,773	-0,019	0,038
-330,445	107,034	0,034	0,030
-329,431	-100,937	-0,073	-0,013
-328,416	-200,000	0,026	0,100
-327,402	75,834	-0,095	-0,072
-326,387	800,000	-0,003	-0,007
-325,372	-52,111	-0,081	-0,027
-324,358	4,005	0,056	-0,029
-323,343	250,196	-0,020	-0,024
-322,329	-167,261	0,064	0,002
-321,314	-200,000	0,012	0,044
-320,299	-91,286	0,098	-0,020
-319,285	-200,000	-0,025	0,084
-318,270	537,667	0,081	-0,139
-317,256	800,000	0,077	-0,156
-316,241	-200,000	0,006	0,055
-315,226	-143,345	0,096	-0,007
-314,212	-149,705	0,043	0,002
-313,197	-136,253	-0,092	-0,008
-312,183	51,842	0,031	0,021
-311,168	800,000	-0,045	-0,111
-310,153	317,501	-0,041	-0,057
-309,139	-29,587	-0,108	-0,045
-308,124	353,932	0,054	0,078
-307,110	-98,058	0,063	-0,012
-306,095	-200,000	-0,045	0,161
-305,080	280,761	-0,043	0,056
-304,066	19,184	-0,111	-0,065
-303,051	7,621	-0,147	-0,080
-302,037	-50,476	-0,078	-0,026
-301,022	-200,000	0,026	-0,098
-300,008	-60,529	-0,076	0,023
-298,993	18,673	0,119	-0,069
-297,978	82,754	0,056	-0,044
-296,964	-200,000	-0,007	-0,181
-295,949	-35,698	0,092	-0,036
-294,935	160,120	-0,084	0,085
-293,920	326,730	0,024	-0,034
-292,905	-200,000	0,000	0,093
-291,891	4,745	0,169	0,090
-290,876	-200,000	0,002	-0,112
-289,862	-125,459	-0,088	-0,010
-288,847	672,896	0,005	0,009
-287,832	526,177	0,052	-0,088
-286,818	-200,000	-0,128	0,000
-285,803	341,098	0,038	-0,053
-284,789	-200,000	0,018	0,167
-283,774	5,257	-0,054	0,029
-282,759	-11,150	-0,053	-0,025
-281,745	-200,000	-0,015	0,190
-280,730	-53,596	-0,141	0,047
-279,716	-152,424	0,099	-0,005
-278,701	-200,000	-0,011	-0,052
-277,686	688,482	0,011	0,021
-276,672	298,427	0,021	0,028
-275,657	-200,000	-0,013	0,055
-274,643	336,455	0,062	-0,087
-273,628	-79,473	-0,051	0,012
-272,613	473,448	0,031	-0,051
-271,599	97,357	0,098	-0,081
-270,584	275,004	0,050	0,064
-269,570	-63,301	-0,122	-0,036
-268,555	-200,000	-0,011	0,086
-267,540	-200,000	-0,005	-0,095
-266,526	-51,694	0,061	0,020
-265,511	-200,000	0,003	0,015
-264,497	-162,754	-0,016	0,001
-263,482	-25,438	-0,102	0,043
-262,467	-88,963	-0,039	0,008
-261,453	-187,770	0,069	-0,001
-260,438	800,000	-0,051	-0,108
-259,424	-20,873	0,044	0,020
-258,409	-84,504	0,102	-0,023
-257,395	359,573	-0,079	-0,115
-256,380	-87,948	-0,102	-0,022
-255,365	800,000	0,047	-0,098
-254,351	-90,803	0,119	-0,025
-253,336	-111,503	-0,111	0,016
-252,322	-200,000	-0,013	-0,177
-251,307	-135,924	0,055	0,005
-250,292	-200,000	0,006	-0,029
-249,278	566,390	0,116	0,204
-248,263	218,995	0,063	0,073
-247,249	800,000	-0,058	0,132
-246,234	-40,897	-0,127	-0,047
-245,219	3,229	0,045	-0,024
-244,205	29,358	-0,083	0,051
-243,190	-200,000	0,002	-0,017
-242,176	-33,143	0,132	-0,053
-241,161	-200,000	-0,001	-0,039
-240,146	-186,265	0,063	-0,001
-239,132	123,449	0,055	-0,050
-238,117	-200,000	-0,002	-0,084
-237,103	-33,972	-0,057	-0,023
-236,088	84,970	-0,102	0,081
-235,073	-17,041	0,079	0,036
-234,059	389,003	0,040	0,061
-233,044	-200,000	0,006	-0,068
-232,030	272,090	0,032	0,040
-231,015	20,375	0,036	-0,021
-230,000	382,558	0,061	0,091
-228,986	-200,000	-0,010	0,082
-227,971	205,844	-0,056	-0,063
-226,957	-5,934	-0,133	0,065
-225,942	-200,000	0,024	0,110
-224,927	-53,915	-0,052	0,017
-223,913	-33,259	0,042	-0,017
-222,898	-200,000	-0,029	0,104
-221,884	34,666	-0,071	-0,045
-220,869	-200,000	-0,001	-0,049
-219,855	-200,000	-0,001	-0,012
-218,840	-68,343	0,040	-0,011
-217,825	475,033	0,015	0,025
-216,811	-53,146	-0,202	-0,067
-215,796	-32,949	0,050	0,020
-214,782	380,028	-0,041	-0,061
-213,767	209,115	-0,091	0,103
-212,752	-84,117	0,108	0,025
-211,738	-200,000	0,005	0,058
-210,723	800,000	-0,052	0,135
-209,709	-200,000	0,002	0,066
-208,694	-42,298	-0,028	0,010
-207,679	-70,665	-0,090	-0,025
-206,665	505,813	-0,042	0,070
-205,650	215,349	-0,045	-0,052
-204,636	-193,359	0,157	-0,001
-203,621	0,869	-0,095	0,049
-202,606	105,504	-0,012	0,010
-201,592	52,661	-0,125	-0,086
-200,577	-174,269	-0,185	0,004
-199,563	213,747	0,074	0,085
-198,548	-200,000	-0,012	-0,080
-197,533	-146,719	-0,009	-0,001
-196,519	800,000	-0,027	0,083
-195,504	-85,980	0,137	-0,030
-194,490	468,720	-0,101	0,164
-193,475	-200,000	0,010	-0,057
-192,460	315,151	0,045	-0,061
-191,446	558,866	0,042	0,073
-190,431	252,956	0,033	0,041
-189,417	589,933	-0,032	-0,058
-188,402	-111,518	0,071	0,010
-187,387	0,582	-0,084	-0,043
-186,373	84,308	-0,014	0,011
-185,358	212,275	-0,041	0,046
-184,344	-200,000	-0,004	-0,012
-183,329	-70,943	0,061	0,016
-182,315	-94,742	0,122	0,024
-181,300	370,257	-0,033	0,048
-180,285	129,089	-0,087	-0,081
-179,271	-200,000	-0,035	-0,175
-178,256	-200,000	-0,018	-0,071
-177,242	-58,294	0,080	-0,025
-176,227	-200,000	-0,010	0,048
-175,212	-200,000	0,001	0,090
-174,198	-200,000	0,003	0,097
-173,183	-154,043	-0,141	-0,007
-172,169	800,000	0,019	0,049
-171,154	800,000	-0,034	-0,068
-170,139	-200,000	0,005	0,021
-169,125	74,945	0,168	-0,127
-168,110	73,642	0,071	-0,053
-167,096	147,420	0,025	-0,024
-166,081	44,909	0,106	0,070
-165,066	-34,207	0,071	-0,028
-164,052	644,485	-0,042	-0,077
-163,037	-200,000	0,016	0,115
-162,023	178,388	0,077	0,081
-161,008	-200,000	0,002	0,100
-159,993	-200,000	0,024	-0,115
-158,979	67,673	0,063	0,046
-157,964	25,013	-0,059	0,035
-156,950	418,388	0,093	-0,143
-155,935	-44,513	0,179	0,064
-154,920	53,735	0,081	0,056
-153,906	158,124	0,135	0,135
-152,891	-200,000	0,001	0,012
-151,877	-200,000	-0,010	-0,040
-150,862	265,225	0,174	-0,219
-149,847	-5,445	-0,144	0,071
-148,833	800,000	0,048	-0,128
-147,818	326,132	0,038	0,052
-146,804	36,166	0,044	0,028
-145,789	16,757	-0,177	0,101
-144,775	265,944	-0,085	0,107
-143,760	-125,704	-0,116	-0,013
-142,745	91,380	0,086	-0,069
-141,731	-53,215	-0,036	0,012
-140,716	-33,536	0,062	-0,024
-139,702	800,000	-0,045	0,123
-138,687	-51,705	0,213	0,071
-137,672	44,560	-0,071	0,047
-136,658	162,786	-0,096	0,098
-135,643	124,923	-0,076	-0,069
-134,629	126,214	0,086	-0,078
-133,614	19,023	0,051	0,029
-132,599	800,000	0,044	0,112
-131,585	-200,000	-0,002	0,049
-130,570	800,000	-0,039	-0,080
-129,556	538,000	-0,071	-0,122
-128,541	-200,000	-0,018	-0,129
-127,526	-102,574	-0,105	-0,018
-126,512	392,218	0,023	0,035
-125,497	564,148	-0,063	0,111
-124,483	-118,018	-0,131	-0,017
-123,468	-112,456	-0,055	0,008
-122,453	-109,092	-0,103	-0,016
-121,439	800,000	-0,082	-0,205
-120,424	-200,000	-0,001	0,109
-119,410	-175,335	-0,050	-0,001
-118,395	36,186	0,109	-0,069
-117,380	33,495	-0,071	-0,044
-116,366	800,000	0,046	0,111
-115,351	-84,850	-0,137	0,031
-114,337	-200,000	-0,011	-0,084
-113,322	127,350	-0,066	-0,061
-112,307	-125,967	0,120	-0,013
-111,293	-39,769	-0,046	-0,017
-110,278	-200,000	-0,043	-0,150
-109,264	-200,000	0,005	0,065
-108,249	-200,000	-0,022	-0,109
-107,234	-120,767	-0,035	-0,004
-106,220	69,815	-0,044	-0,032
-105,205	-132,200	0,096	-0,009
-104,191	800,000	0,060	0,168
-103,176	-200,000	-0,018	-0,075
-102,162	370,049	-0,047	-0,069
-101,147	-200,000	0,007	-0,025
-100,132	-20,405	-0,088	0,039
-99,118	-121,470	0,073	-0,009
-98,103	99,705	-0,057	0,047
-97,089	-73,150	0,050	0,013
-96,074	-156,936	-0,062	-0,003
-95,059	149,885	0,070	0,068
-94,045	104,070	-0,072	-0,060
-93,030	-129,815	-0,088	-0,009
-92,016	19,283	0,151	0,087
-91,001	515,491	-0,069	0,117
-89,986	-200,000	0,002	0,042
-88,972	800,000	-0,043	0,091
-87,957	-24,793	0,067	0,028
-86,943	800,000	-0,037	-0,097
-85,928	-200,000	-0,029	-0,095
-84,913	303,280	0,082	-0,110
-83,899	800,000	-0,020	-0,045
-82,884	-200,000	0,013	-0,191
-81,870	96,875	0,103	-0,085
-80,855	-2,235	0,118	-0,059
-79,840	235,447	0,113	-0,135
-78,826	-200,000	-0,023	-0,107
-77,811	-200,000	-0,023	-0,107
-76,797	-9,650	-0,095	-0,045
-75,782	242,395	-0,069	-0,083
-74,767	800,000	0,010	0,028
-73,753	800,000	-0,047	0,117
-72,738	71,729	-0,084	0,062
-71,724	271,067	0,042	-0,053
-70,709	-74,578	-0,046	0,012
-69,694	800,000	0,019	0,057
-68,680	156,818	-0,062	0,061
-67,665	-200,000	0,005	0,019
-66,651	44,488	0,061	-0,040
-65,636	-200,000	0,001	-0,196
-64,622	328,573	-0,051	-0,070
-63,607	254,378	0,051	-0,062
-62,592	281,821	0,021	0,027
-61,578	-36,885	-0,090	-0,034
-60,563	-60,847	0,116	0,035
-59,549	-66,168	-0,153	0,044
-58,534	-23,575	-1,857	-0,797
-57,519	800,000	-0,319	-0,952
-56,505	-200,000	-1,216	-4,884
-55,490	-36,466	0,753	0,290
-54,476	800,000	5,248	12,042
-53,461	-200,000	17,428	283,011
-52,446	800,000	726,325	2215,822
-51,432	536,245	1642,263	2809,134
-50,417	110,125	1632,770	1406,845
-49,403	74,909	1286,022	971,229
-48,388	32,038	1027,592	634,424
-47,373	20,148	989,569	571,729
-46,359	18,593	977,357	559,553
-45,344	15,792	973,430	548,112
-44,330	15,939	972,060	547,800
-43,315	15,480	970,020	545,130
-42,300	15,494	969,050	544,609
-41,286	15,428	968,176	543,882
-40,271	15,501	966,800	543,325
-39,257	15,450	966,135	542,765
-38,242	15,513	965,353	542,508
-37,227	15,427	964,604	541,785
-36,213	15,457	963,619	541,309
-35,198	15,400	962,812	540,650
-34,184	15,514	961,973	540,526
-33,169	15,434	961,132	539,773
-32,154	15,511	960,135	539,441
-31,140	15,505	959,203	538,876
-30,125	15,497	958,647	538,517
-29,111	15,494	957,601	537,897
-28,096	15,456	957,122	537,484
-27,082	15,425	956,496	537,012
-26,067	15,522	955,399	536,687
-25,052	15,473	954,813	536,179
-24,038	15,451	954,293	535,796
-23,023	15,429	953,466	535,239
-22,009	15,490	952,927	535,111
-20,994	15,475	952,386	534,739
-19,979	15,513	951,720	534,463
-18,965	15,494	951,036	533,997
-17,950	15,475	950,423	533,572
-16,936	15,368	949,856	532,889
-15,921	15,415	949,281	532,697
-14,906	15,365	948,456	532,054
-13,892	15,375	947,556	531,559
-12,877	15,351	947,130	531,221
-11,863	15,274	946,516	530,611
-10,848	15,324	946,151	530,546
-9,833	15,452	945,452	530,538
-8,819	15,445	944,892	530,180
-7,804	15,407	944,204	529,653
-6,790	15,343	943,693	529,141
-5,775	15,496	942,873	529,147
-4,760	15,364	942,463	528,479
-3,746	15,397	941,839	528,213
-2,731	15,226	941,147	527,261
-1,717	15,238	940,434	526,880
-0,702	15,224	939,670	526,386
0,313	14,948	939,246	526,071
1,327	18,209	936,957	535,017
2,342	27,126	794,425	477,264
3,356	23,753	459,361	270,781
4,371	-3,330	314,642	156,658
5,386	-7,526	296,436	143,329
6,400	-9,466	290,287	138,416
7,415	-9,988	287,947	136,774
8,429	-10,108	286,526	135,968
9,444	-10,242	285,631	135,401
10,459	-10,022	284,907	135,260
11,473	-9,858	284,296	135,118
12,488	-10,087	283,942	134,715
13,502	-9,912	283,371	134,601
14,517	-10,202	283,194	134,225
15,531	-10,019	282,551	134,085
16,546	-10,177	282,353	133,826
17,561	-10,002	281,726	133,686
18,575	-9,862	281,470	133,687
19,590	-10,034	281,123	133,345
20,604	-10,015	280,793	133,194
21,619	-9,993	280,441	133,037
22,634	-9,900	280,168	132,985
23,648	-10,039	279,899	132,712
24,663	-9,953	279,589	132,636
25,677	-10,057	279,212	132,346
26,692	-9,911	279,009	132,377
27,707	-10,059	278,730	132,092
28,721	-10,019	278,399	131,961
29,736	-10,151	278,268	131,762
30,750	-9,807	277,890	131,898
31,765	-10,222	277,763	131,432
32,780	-10,046	277,467	131,447
33,794	-10,040	277,345	131,382
34,809	-9,904	276,967	131,321
35,823	-10,058	276,788	131,079
36,838	-9,909	276,352	131,002
37,853	-9,992	276,141	130,811
38,867	-10,146	276,001	130,588
39,882	-10,016	275,770	130,590
40,896	-9,989	275,448	130,450
41,911	-10,018	275,222	130,305
42,926	-10,044	274,963	130,146
43,940	-10,074	274,684	129,974
44,955	-10,128	274,515	129,833
45,969	-10,170	274,316	129,687
46,984	-10,307	274,020	129,408
47,999	-10,496	273,760	129,097
49,013	-10,420	273,382	128,978
50,028	-10,635	273,242	128,700
51,042	-10,772	273,051	128,471
52,057	-10,889	272,677	128,175
53,071	-10,714	272,474	128,231
54,086	-10,595	272,432	128,310
55,101	-10,563	272,180	128,210
56,115	-10,181	271,782	128,364
57,130	-10,069	271,802	128,466
58,144	-9,922	271,705	128,545
59,159	-9,857	271,383	128,442
60,174	-9,850	271,182	128,341
61,188	-10,013	271,103	128,142
62,203	-9,979	270,784	128,011
63,217	-9,894	270,613	127,997
64,232	-9,919	270,296	127,813
65,247	-9,760	270,124	127,866
66,261	-10,067	269,858	127,447
67,276	-10,137	269,641	127,269
68,290	-10,110	269,220	127,083
69,305	-10,285	269,098	126,854
70,320	-10,229	268,879	126,791
71,334	-10,144	268,767	126,804
72,349	-9,968	268,628	126,889
73,363	-9,840	268,232	126,807
74,378	-10,049	268,106	126,546
75,393	-9,730	267,932	126,743
76,407	-9,804	267,687	126,549
77,422	-9,974	267,388	126,241
78,436	-9,989	267,256	126,153
79,451	-10,045	267,010	125,975
80,466	-9,793	266,907	126,145
81,480	-9,951	266,543	125,818
82,495	-10,162	266,448	125,570
83,509	-9,818	266,024	125,671
84,524	-10,155	265,933	125,312
85,539	-10,270	265,639	125,058
86,553	-10,257	265,430	124,961
87,568	-10,022	265,183	125,045
88,582	-10,157	265,015	124,833
89,597	-10,191	264,823	124,701
90,611	-10,051	264,772	124,792
91,626	-9,781	264,672	124,976
92,641	-9,908	264,244	124,650
93,655	-10,092	264,108	124,408
94,670	-10,031	263,937	124,372
95,684	-9,872	263,726	124,404
96,699	-9,915	263,522	124,258
97,714	-10,148	263,484	124,021
98,728	-10,314	263,152	123,705
99,743	-10,182	262,911	123,698
100,757	-10,268	262,672	123,498
101,772	-9,961	262,484	123,672
102,787	-10,100	262,362	123,480
103,801	-9,949	262,028	123,446
104,816	-10,047	261,902	123,288
105,830	-9,826	261,619	123,341
106,845	-9,916	261,644	123,262
107,860	-9,859	261,435	123,203
108,874	-9,934	261,054	122,946
109,889	-9,943	260,839	122,826
110,903	-10,023	260,663	122,661
111,918	-10,142	260,651	122,539
112,933	-9,996	260,239	122,463
113,947	-9,983	260,304	122,494
114,962	-9,830	260,010	122,480
115,976	-9,841	259,673	122,301
116,991	-9,968	259,748	122,213
118,006	-9,787	259,320	122,160
119,020	-10,056	259,248	121,879
120,035	-9,898	259,118	121,946
121,049	-10,040	259,041	121,774
122,064	-9,978	258,807	121,708
123,079	-9,787	258,505	121,721
124,093	-9,963	258,286	121,454
125,108	-10,177	258,092	121,165
126,122	-10,138	257,812	121,057
127,137	-10,351	257,618	120,769
128,151	-10,203	257,397	120,784
129,166	-10,206	257,291	120,720
130,181	-10,093	257,130	120,732
131,195	-10,293	256,937	120,457
132,210	-10,089	256,717	120,521
133,224	-10,192	256,610	120,370
134,239	-9,945	256,292	120,424
135,254	-10,048	256,339	120,346
136,268	-9,941	255,953	120,247
137,283	-10,318	255,747	119,813
138,297	-10,514	255,451	119,494
139,312	-10,424	255,269	119,476
140,327	-10,038	255,194	119,764
141,341	-9,840	255,067	119,864
142,356	-9,752	254,838	119,822
143,370	-9,888	254,696	119,628
144,385	-9,949	254,673	119,553
145,400	-9,782	254,520	119,615
146,414	-9,841	254,216	119,411
147,429	-9,833	254,033	119,321
148,443	-9,814	253,739	119,188
149,458	-9,944	253,640	119,019
150,473	-9,687	253,394	119,114
151,487	-9,819	253,182	118,890
152,502	-9,774	253,171	118,913
153,516	-9,648	252,967	118,914
154,531	-9,863	252,796	118,640
155,546	-9,777	252,658	118,639
156,560	-9,729	252,339	118,519
157,575	-10,014	252,161	118,182
158,589	-9,775	252,038	118,317
159,604	-9,645	251,831	118,320
160,619	-9,834	251,672	118,074
161,633	-9,799	251,542	118,032
162,648	-9,735	251,276	117,951
163,662	-9,604	251,216	118,023
164,677	-9,708	251,053	117,849
165,692	-9,745	250,931	117,749
166,706	-9,713	250,819	117,713
167,721	-9,613	250,557	117,664
168,735	-9,764	250,332	117,420
169,750	-9,670	250,130	117,394
170,764	-9,614	250,021	117,380
171,779	-9,814	249,905	117,147
172,794	-9,777	249,568	117,009
173,808	-10,027	249,640	116,823
174,823	-10,288	249,296	116,431
175,837	-10,373	248,951	116,188
176,852	-9,980	248,932	116,499
177,867	-9,828	248,782	116,546
178,881	-9,731	248,686	116,572
179,896	-9,674	248,368	116,460
180,910	-9,672	248,307	116,423
181,925	-9,792	248,219	116,271
182,940	-9,648	247,976	116,267
183,954	-9,795	247,843	116,071
184,969	-9,590	247,549	116,095
185,983	-9,716	247,655	116,029
186,998	-9,501	247,174	115,972
188,013	-9,684	247,167	115,806
189,027	-9,679	247,007	115,725
190,042	-9,876	246,829	115,468
191,056	-9,635	246,472	115,490
192,071	-9,654	246,447	115,452
193,086	-9,695	246,164	115,276
194,100	-9,651	246,124	115,283
195,115	-9,750	245,882	115,077
196,129	-9,688	245,792	115,076
197,144	-9,700	245,510	114,924
198,159	-9,825	245,299	114,712
199,173	-9,720	245,100	114,695
200,188	-9,824	244,875	114,494
201,202	-10,146	244,746	114,158
202,217	-10,269	244,457	113,912
203,232	-10,233	244,341	113,877
204,246	-9,905	244,200	114,071
205,261	-9,587	243,878	114,171
206,275	-10,832	243,582	113,003
207,290	-7,488	244,759	116,291
208,304	0,292	247,435	124,007
209,319	4,063	248,415	127,618
210,334	4,516	248,507	128,029
211,348	4,803	248,347	128,173
212,363	4,777	248,331	128,132
213,377	5,122	248,058	128,265
214,392	4,760	247,857	127,850
215,407	4,513	247,864	127,638
216,421	4,727	247,571	127,653
217,436	4,867	247,385	127,661
218,450	5,064	247,273	127,753
219,465	4,547	247,110	127,233
220,480	4,478	246,942	127,078
221,494	4,437	246,753	126,936
222,509	4,477	246,521	126,839
223,523	4,329	246,450	126,668
224,538	4,127	246,175	126,351
225,553	4,051	245,917	126,145
226,567	4,331	245,785	126,295
227,582	4,301	245,755	126,244
228,596	4,211	245,651	126,105
229,611	4,255	245,272	125,935
230,626	4,073	245,126	125,700
231,640	4,264	245,042	125,802
232,655	4,344	244,877	125,772
233,669	4,149	244,728	125,525
234,684	4,073	244,342	125,254
235,699	4,462	244,430	125,604
236,713	4,396	244,405	125,526
237,728	4,130	244,103	125,144
238,742	4,156	243,820	125,009
239,757	3,938	243,631	124,724
240,772	3,973	243,568	124,709
241,786	4,187	243,362	124,766
242,801	3,908	243,230	124,462
243,815	3,884	243,158	124,394
244,830	4,141	242,967	124,493
245,844	4,590	242,782	124,749
246,859	4,145	242,734	124,354
247,874	4,257	242,409	124,267
248,888	4,297	242,168	124,164
249,903	4,359	242,293	124,268
250,917	4,268	242,121	124,095
251,932	4,398	242,079	124,167
252,947	4,428	241,672	123,972
253,961	4,221	241,452	123,682
254,976	4,396	241,415	123,791
255,990	4,171	241,313	123,548
257,005	4,121	241,074	123,375
258,020	3,960	240,852	123,121
259,034	3,812	240,906	123,019
260,049	4,435	240,560	123,329
261,063	4,053	240,295	122,878
262,078	4,167	240,246	122,933
263,093	4,473	240,157	123,120
264,107	4,273	240,128	122,935
265,122	4,061	239,782	122,578
266,136	4,263	239,852	122,763
267,151	4,557	239,651	122,883
268,166	4,092	239,258	122,302
269,180	4,056	239,247	122,256
270,195	4,631	239,212	122,685
271,209	5,038	239,105	122,941
272,224	4,246	238,737	122,114
273,239	3,811	238,526	121,651
274,253	3,850	238,327	121,569
275,268	4,062	238,358	121,742
276,282	4,333	238,185	121,857
277,297	4,145	237,817	121,510
278,312	4,096	237,748	121,425
279,326	4,401	237,667	121,613
280,341	4,462	237,512	121,571
281,355	4,279	237,516	121,418
282,370	4,306	237,277	121,306
283,384	4,203	236,993	121,070
284,399	3,859	236,990	120,787
285,414	3,815	236,644	120,565
286,428	4,223	236,589	120,846
287,443	4,254	236,436	120,781
288,457	4,528	236,348	120,941
289,472	4,467	236,222	120,818
290,487	4,482	235,954	120,681
291,501	3,996	235,877	120,251
292,516	3,960	235,584	120,063
293,530	3,787	235,530	119,890
294,545	4,368	235,335	120,233
295,560	4,157	235,355	120,068
296,574	3,894	234,993	119,668
297,589	3,855	235,054	119,658
298,603	4,148	234,973	119,834
299,618	4,490	234,659	119,929
300,633	4,332	234,583	119,757
301,647	4,142	234,690	119,653
302,662	4,523	234,443	119,812
303,676	4,613	234,117	119,705
304,691	4,493	234,039	119,561
305,706	4,597	233,996	119,609
306,720	4,771	233,761	119,612
307,735	4,565	233,610	119,366
308,749	4,424	233,233	119,053
309,764	4,249	233,103	118,841
310,779	3,937	232,947	118,511
311,793	3,949	232,780	118,425
312,808	4,040	232,630	118,408
313,822	3,611	232,628	118,066
314,837	3,786	232,404	118,077
315,852	3,476	232,203	117,726
316,866	3,849	232,005	117,901
317,881	4,541	232,170	118,505
318,895	4,788	231,953	118,573
319,910	4,860	231,784	118,531
320,925	4,383	231,560	118,042
321,939	4,198	231,330	117,772
322,954	4,043	231,258	117,607
323,968	3,898	231,186	117,449
324,983	4,417	230,980	117,730
325,997	4,548	230,955	117,806
327,012	4,581	230,697	117,690
328,027	4,149	230,570	117,286
329,041	4,419	230,555	117,473
330,056	4,907	230,501	117,806
331,070	4,835	230,383	117,680
332,085	4,491	230,111	117,270
333,100	4,422	229,733	117,014
334,114	4,360	229,824	117,004
335,129	4,582	229,783	117,140
336,143	4,692	229,535	117,087
337,158	4,663	229,377	116,974
338,173	4,508	229,100	116,705
339,187	4,530	228,939	116,629
340,202	4,402	228,914	116,510
341,216	4,366	228,721	116,374
342,231	4,198	228,494	116,121
343,246	4,214	228,413	116,082
344,260	4,467	228,304	116,206
345,275	4,637	228,278	116,311
346,289	4,647	227,971	116,152
347,304	4,622	227,951	116,112
348,319	4,543	227,743	115,937
349,333	4,298	227,614	115,676
350,348	4,289	227,442	115,572
351,362	4,425	227,205	115,543
352,377	4,313	226,988	115,339
353,392	4,104	226,777	115,065
354,406	3,976	226,697	114,919
355,421	195,229	1321,375	1397,555
356,435	156,496	1454,745	1397,539
