DTS Sentinel unit serial number:	SN410029Multiplexer serial number:	ORYXHardware model number:	OX2-SRSoftware version number:	ORYX F/W v4,00 Oryx Data Collector v3.7.2.0data status	okinstallation	B5 Nyhavnadifferential loss correction	single-endedforward channel	channel 2reverse channel	N/Adate	2023/12/12time	01:47:13forward acquisition time	300,00reverse acquisition time	0,00gamma	499,1914k internal	0,3156k external	0,3156temperature offset calibration	1,0000default loss term (dB/km)	0,3820temperature slope calibration	1,0000multiplexer offset coefficient	1,0000multiplexer slope coefficient	1,0000fibre end	0,00T internal ref (°C)	15,87T ext. ref 1 (°C)	-0,61T ext. ref 2 (°C)	-0,87length (m)	temperature (°C)	Stokes	anti-Stokes-744,400	-29,171	0,066	0,028
-743,385	17,706	-0,165	-0,096
-742,371	127,129	0,031	-0,029
-741,356	-82,010	-0,278	0,067
-740,342	-123,633	0,079	0,009
-739,327	-40,018	-0,198	0,076
-738,312	371,578	0,009	-0,014
-737,298	5,721	-0,115	0,062
-736,283	254,760	0,078	0,098
-735,269	-123,383	-0,245	0,028
-734,254	358,896	0,071	0,105
-733,239	-91,938	-0,309	-0,064
-732,225	-180,374	0,165	0,002
-731,210	800,000	0,075	0,164
-730,196	800,000	-0,026	-0,073
-729,181	800,000	-0,046	0,096
-728,167	-86,572	0,091	-0,020
-727,152	-200,000	-0,016	-0,098
-726,137	800,000	-0,040	-0,129
-725,123	800,000	0,050	-0,144
-724,108	609,815	-0,027	-0,050
-723,094	71,525	-0,037	-0,028
-722,079	-12,327	0,028	-0,014
-721,064	-200,000	0,035	-0,146
-720,050	-200,000	0,001	-0,016
-719,035	105,878	-0,039	0,034
-718,021	-200,000	-0,043	-0,193
-717,006	-200,000	-0,013	-0,096
-715,991	800,000	-0,037	-0,104
-714,977	-105,520	-0,129	-0,021
-713,962	388,501	-0,035	-0,054
-712,948	358,331	-0,114	-0,168
-711,933	-90,430	0,142	-0,030
-710,918	35,358	0,029	-0,019
-709,904	205,287	-0,089	-0,102
-708,889	800,000	0,039	-0,116
-707,875	380,893	-0,035	-0,053
-706,860	510,811	-0,017	-0,028
-705,845	184,158	0,075	-0,082
-704,831	-24,967	-0,070	-0,030
-703,816	-200,000	-0,018	0,073
-702,802	-58,608	-0,132	-0,042
-701,787	-96,087	-0,032	0,006
-700,772	-200,000	0,016	0,071
-699,758	393,523	0,157	-0,241
-698,743	225,910	0,065	-0,077
-697,729	231,957	-0,118	-0,143
-696,714	180,693	-0,034	-0,037
-695,699	131,636	-0,029	-0,027
-694,685	-200,000	-0,001	0,011
-693,670	-147,857	-0,048	-0,003
-692,656	187,883	-0,064	-0,070
-691,641	800,000	0,022	0,066
-690,627	-200,000	-0,010	0,049
-689,612	320,431	0,053	-0,074
-688,597	614,422	-0,023	0,043
-687,583	30,198	0,035	0,022
-686,568	-164,037	-0,006	0,000
-685,554	-200,000	0,007	0,072
-684,539	307,040	-0,093	0,128
-683,524	666,099	0,011	0,022
-682,510	35,208	0,021	0,014
-681,495	-10,732	0,073	-0,035
-680,481	16,613	-0,051	0,030
-679,466	52,114	0,048	-0,034
-678,451	-34,616	0,094	-0,038
-677,437	155,313	0,026	0,027
-676,422	-51,361	-0,031	0,010
-675,408	29,113	0,053	-0,033
-674,393	-160,351	-0,112	-0,004
-673,378	800,000	-0,067	-0,141
-672,364	-10,045	-0,148	-0,072
-671,349	-105,484	-0,178	-0,029
-670,335	-200,000	0,021	0,086
-669,320	161,431	-0,065	-0,067
-668,305	-38,605	0,055	-0,021
-667,291	218,354	-0,064	0,075
-666,276	40,749	-0,103	0,068
-665,262	252,524	-0,097	0,122
-664,247	-200,000	-0,024	-0,109
-663,232	665,008	-0,028	-0,054
-662,218	-200,000	0,000	0,071
-661,203	-200,000	0,005	-0,108
-660,189	-11,351	-0,023	-0,011
-659,174	74,964	-0,109	-0,084
-658,159	153,071	-0,109	-0,109
-657,145	716,388	-0,082	-0,161
-656,130	-108,126	0,065	-0,010
-655,116	121,682	0,011	-0,010
-654,101	254,491	-0,033	0,042
-653,086	-22,585	-0,092	-0,041
-652,072	181,071	0,049	0,053
-651,057	-200,000	-0,003	0,037
-650,043	131,123	-0,100	-0,094
-649,028	-70,340	-0,185	-0,051
-648,014	-200,000	-0,008	-0,068
-646,999	120,550	-0,088	-0,081
-645,984	-200,000	-0,007	-0,049
-644,970	-200,000	-0,013	0,044
-643,955	49,371	-0,090	0,062
-642,941	-200,000	0,016	-0,193
-641,926	-81,601	0,079	0,019
-640,911	637,658	0,047	0,088
-639,897	348,049	0,037	-0,053
-638,882	143,610	-0,042	-0,041
-637,868	-68,935	-0,170	0,048
-636,853	216,549	0,067	-0,078
-635,838	800,000	0,019	0,059
-634,824	653,214	-0,034	-0,065
-633,809	114,197	0,054	-0,048
-632,795	-50,697	-0,065	-0,022
-631,780	-93,798	-0,131	-0,026
-630,765	-77,935	0,017	0,004
-629,751	257,284	-0,118	-0,149
-628,736	800,000	-0,064	-0,155
-627,722	-52,473	0,081	-0,027
-626,707	157,209	0,081	0,082
-625,692	634,495	-0,013	0,024
-624,678	25,097	0,023	-0,014
-623,663	88,037	-0,064	0,052
-622,649	800,000	0,015	-0,032
-621,634	-28,570	-0,038	-0,016
-620,619	-200,000	-0,021	-0,123
-619,605	-57,768	0,057	-0,018
-618,590	22,411	0,084	-0,050
-617,576	800,000	-0,013	-0,028
-616,561	-43,969	0,125	-0,046
-615,546	800,000	-0,047	-0,131
-614,532	411,954	0,068	0,106
-613,517	27,414	-0,135	-0,083
-612,503	22,245	0,005	-0,003
-611,488	534,896	0,077	-0,134
-610,474	-93,491	0,083	-0,017
-609,459	274,739	-0,047	0,062
-608,444	-37,343	-0,130	0,051
-607,430	-53,496	-0,035	0,012
-606,415	-9,625	-0,087	0,042
-605,401	49,185	-0,069	-0,047
-604,386	-200,000	0,021	-0,071
-603,371	-175,507	0,076	0,001
-602,357	446,996	-0,097	-0,158
-601,342	-102,165	0,147	-0,026
-600,328	-200,000	0,004	0,103
-599,313	692,676	-0,144	-0,279
-598,298	-182,008	0,047	0,001
-597,284	-57,264	0,033	0,011
-596,269	342,508	0,046	0,066
-595,255	661,078	-0,035	-0,066
-594,240	649,314	0,096	-0,180
-593,225	517,309	0,072	-0,123
-592,211	-29,796	0,056	0,023
-591,196	200,347	0,042	0,047
-590,182	800,000	-0,054	-0,166
-589,167	24,039	0,087	-0,052
-588,152	-196,908	-0,044	0,000
-587,138	33,289	0,064	0,041
-586,123	785,182	-0,047	-0,095
-585,109	-136,052	0,049	-0,004
-584,094	-200,000	-0,004	-0,030
-583,079	-200,000	-0,004	0,064
-582,065	78,252	0,016	0,012
-581,050	-200,000	0,001	0,039
-580,036	118,880	-0,036	0,033
-579,021	206,440	-0,052	-0,060
-578,006	223,403	-0,149	-0,176
-576,992	208,408	0,065	-0,074
-575,977	-200,000	0,005	0,037
-574,963	168,070	-0,056	0,059
-573,948	-200,000	-0,004	-0,029
-572,934	-200,000	-0,031	0,119
-571,919	6,621	0,049	0,027
-570,904	-190,000	-0,173	0,001
-569,890	-54,777	-0,089	-0,029
-568,875	800,000	0,007	-0,018
-567,861	158,072	-0,052	-0,052
-566,846	-43,320	-0,036	-0,013
-565,831	-91,794	0,183	0,038
-564,817	-200,000	0,005	0,042
-563,802	18,790	-0,079	-0,046
-562,788	-167,578	-0,060	0,002
-561,773	-200,000	-0,000	-0,086
-560,758	-47,333	-0,069	0,024
-559,744	164,924	-0,046	0,047
-558,729	-22,834	0,037	-0,016
-557,715	260,528	-0,032	0,040
-556,700	-77,048	-0,143	-0,036
-555,685	-3,563	0,055	-0,028
-554,671	177,075	0,052	0,055
-553,656	265,989	-0,054	0,069
-552,642	800,000	-0,025	0,067
-551,627	-200,000	0,023	0,087
-550,612	800,000	-0,008	0,020
-549,598	-200,000	-0,008	-0,053
-548,583	404,886	-0,085	-0,132
-547,569	368,044	0,092	-0,136
-546,554	204,998	0,052	0,059
-545,539	800,000	0,019	-0,039
-544,525	-200,000	0,002	-0,146
-543,510	99,121	0,057	0,048
-542,496	-200,000	0,010	0,043
-541,481	-68,364	-0,107	-0,030
-540,466	268,647	-0,078	-0,101
-539,452	98,303	0,024	-0,020
-538,437	371,051	0,059	-0,088
-537,423	-123,359	0,231	-0,027
-536,408	216,581	0,016	-0,018
-535,393	658,450	0,040	0,075
-534,379	31,212	0,122	-0,077
-533,364	-5,592	-0,082	-0,041
-532,350	-80,652	0,198	-0,048
-531,335	70,149	-0,069	-0,052
-530,321	800,000	0,020	0,055
-529,306	-200,000	0,028	-0,122
-528,291	-200,000	-0,027	-0,138
-527,277	87,506	-0,099	-0,080
-526,262	-155,041	0,022	0,001
-525,248	77,050	-0,165	0,128
-524,233	535,490	0,041	0,071
-523,218	453,818	0,051	0,082
-522,204	641,062	0,018	-0,034
-521,189	-200,000	-0,011	0,077
-520,175	371,449	0,003	-0,004
-519,160	-200,000	0,003	0,108
-518,145	-135,431	0,049	0,004
-517,131	434,491	0,067	0,108
-516,116	-110,592	0,053	0,008
-515,102	326,973	-0,050	-0,071
-514,087	800,000	0,053	0,161
-513,072	421,137	0,034	-0,053
-512,058	800,000	-0,007	0,015
-511,043	-200,000	0,020	0,077
-510,029	800,000	-0,021	-0,055
-509,014	542,228	0,013	-0,024
-507,999	543,485	-0,049	-0,086
-506,985	283,306	0,094	0,123
-505,970	800,000	-0,046	0,107
-504,956	685,400	0,068	-0,130
-503,941	11,555	0,072	0,040
-502,926	12,730	-0,074	-0,042
-501,912	146,981	-0,078	0,077
-500,897	12,338	0,150	0,084
-499,883	-200,000	0,000	-0,050
-498,868	200,624	-0,068	0,077
-497,853	309,654	-0,051	-0,070
-496,839	437,778	-0,024	-0,038
-495,824	-16,257	0,045	0,021
-494,810	-200,000	0,017	-0,093
-493,795	-81,595	0,089	-0,021
-492,781	61,289	-0,108	-0,078
-491,766	691,752	-0,032	0,062
-490,751	-200,000	-0,004	-0,095
-489,737	-200,000	0,026	0,215
-488,722	116,350	0,046	0,041
-487,708	-142,142	-0,112	0,008
-486,693	167,853	0,121	0,126
-485,678	352,295	-0,063	-0,091
-484,664	199,840	0,105	0,118
-483,649	309,150	-0,044	0,061
-482,635	-146,480	-0,141	0,009
-481,620	-68,974	0,132	0,037
-480,605	152,193	-0,048	0,048
-479,591	16,754	0,058	-0,033
-478,576	433,258	-0,032	0,051
-477,562	800,000	-0,031	-0,068
-476,547	78,164	-0,116	0,090
-475,532	175,747	0,093	0,099
-474,518	800,000	-0,025	0,057
-473,503	-133,032	0,078	0,007
-472,489	800,000	0,018	0,055
-471,474	726,097	-0,097	0,189
-470,459	-42,912	0,086	0,032
-469,445	-137,080	-0,061	-0,005
-468,430	154,837	0,037	0,037
-467,416	-60,365	-0,132	-0,041
-466,401	13,868	-0,045	0,025
-465,386	-200,000	-0,020	0,106
-464,372	-47,447	0,107	0,038
-463,357	-36,726	-0,054	0,021
-462,343	375,402	-0,097	-0,145
-461,328	-200,000	-0,002	0,040
-460,313	-56,773	-0,042	-0,014
-459,299	-10,206	-0,073	-0,035
-458,284	5,024	0,198	0,106
-457,270	218,755	0,032	-0,038
-456,255	-66,268	0,051	0,015
-455,241	460,566	0,053	-0,086
-454,226	162,493	0,088	-0,090
-453,211	0,001	0,038	-0,019
-452,197	289,418	-0,036	0,048
-451,182	-136,122	-0,016	0,001
-450,168	144,410	0,020	0,019
-449,153	-10,333	0,096	0,046
-448,138	-200,000	0,006	-0,044
-447,124	-200,000	-0,014	0,084
-446,109	-200,000	0,021	0,109
-445,095	83,884	-0,081	-0,064
-444,080	800,000	0,016	0,048
-443,065	9,272	-0,153	-0,084
-442,051	800,000	-0,046	-0,094
-441,036	-200,000	0,025	-0,134
-440,022	-90,097	-0,042	-0,009
-439,007	141,976	-0,091	-0,087
-437,992	84,983	0,044	0,035
-436,978	-74,773	-0,034	0,009
-435,963	-182,485	0,166	-0,002
-434,949	197,477	-0,069	0,077
-433,934	-200,000	-0,007	-0,062
-432,919	800,000	-0,012	-0,035
-431,905	213,829	0,030	-0,035
-430,890	-161,002	0,138	0,005
-429,876	-200,000	0,034	0,123
-428,861	800,000	-0,035	-0,086
-427,846	-74,790	0,022	-0,006
-426,832	-200,000	-0,000	-0,113
-425,817	-95,676	0,092	0,018
-424,803	-89,945	0,141	0,030
-423,788	-200,000	-0,017	0,065
-422,773	-200,000	0,018	0,059
-421,759	29,951	-0,014	-0,009
-420,744	800,000	-0,041	0,112
-419,730	22,894	-0,115	0,069
-418,715	117,036	0,056	-0,050
-417,701	-159,334	0,059	0,002
-416,686	20,998	-0,043	0,026
-415,671	-14,313	0,160	0,075
-414,657	-5,633	-0,029	0,015
-413,642	3,635	0,103	0,054
-412,628	-200,000	-0,005	0,040
-411,613	17,110	-0,114	0,066
-410,598	800,000	-0,037	0,099
-409,584	800,000	0,009	-0,027
-408,569	-94,922	0,060	-0,012
-407,555	87,237	-0,049	0,040
-406,540	0,927	0,085	-0,044
-405,525	-76,774	-0,112	0,028
-404,511	-200,000	0,023	-0,126
-403,496	790,752	0,006	0,011
-402,482	-81,416	0,076	-0,018
-401,467	-95,694	-0,018	0,003
-400,452	138,648	0,101	0,097
-399,438	-69,298	0,079	-0,022
-398,423	-200,000	0,011	-0,090
-397,409	258,568	0,055	0,069
-396,394	161,599	-0,007	-0,007
-395,379	-82,429	0,046	-0,011
-394,365	-200,000	0,003	0,021
-393,350	-200,000	-0,003	-0,016
-392,336	177,111	-0,040	-0,042
-391,321	-15,692	0,084	0,039
-390,306	227,823	-0,055	-0,065
-389,292	-200,000	-0,016	-0,082
-388,277	116,962	0,105	-0,094
-387,263	-31,777	-0,122	0,049
-386,248	-200,000	0,018	0,112
-385,233	-122,073	0,120	-0,014
-384,219	62,130	-0,017	-0,012
-383,204	15,553	0,140	-0,080
-382,190	-49,725	-0,081	0,028
-381,175	128,559	0,087	0,080
-380,160	-147,338	0,069	0,004
-379,146	178,064	-0,080	-0,085
-378,131	-15,701	0,199	0,092
-377,117	211,831	0,041	0,047
-376,102	724,600	-0,054	-0,105
-375,088	-200,000	0,003	-0,176
-374,073	-0,456	-0,073	0,037
-373,058	800,000	-0,017	-0,049
-372,044	-67,540	0,216	-0,061
-371,029	-200,000	-0,023	0,100
-370,015	-200,000	-0,023	0,110
-369,000	412,591	-0,013	-0,021
-367,985	800,000	0,023	-0,052
-366,971	-148,952	-0,051	-0,003
-365,956	-23,656	0,134	-0,058
-364,942	-200,000	-0,010	0,196
-363,927	-6,285	-0,022	0,011
-362,912	90,610	0,114	0,093
-361,898	239,564	-0,069	-0,084
-360,883	-22,722	-0,049	0,022
-359,869	3,582	0,129	-0,068
-358,854	-200,000	0,023	0,082
-357,839	-36,606	0,031	-0,012
-356,825	-76,907	0,117	-0,029
-355,810	-200,000	-0,018	-0,103
-354,796	19,341	-0,097	-0,056
-353,781	-96,043	-0,048	0,009
-352,766	632,890	0,038	-0,070
-351,752	-37,061	-0,125	0,049
-350,737	-200,000	-0,043	0,146
-349,723	38,655	-0,042	-0,027
-348,708	-143,795	-0,078	-0,005
-347,693	-45,985	0,216	0,077
-346,679	-200,000	0,009	-0,054
-345,664	800,000	0,024	0,049
-344,650	-24,351	-0,065	-0,028
-343,635	12,681	-0,087	-0,049
-342,620	369,837	0,039	0,058
-341,606	117,422	0,128	0,115
-340,591	-186,194	-0,135	0,001
-339,577	353,919	-0,064	0,093
-338,562	-12,187	-0,116	0,055
-337,548	-8,807	0,096	-0,046
-336,533	-36,214	-0,089	0,035
-335,518	800,000	-0,027	0,062
-334,504	482,064	-0,022	-0,037
-333,489	800,000	0,019	-0,047
-332,475	560,866	0,023	-0,041
-331,460	800,000	-0,018	0,046
-330,445	201,005	0,082	-0,091
-329,431	-200,000	0,002	-0,036
-328,416	352,591	0,070	0,101
-327,402	585,651	-0,054	0,097
-326,387	-20,002	-0,022	0,010
-325,372	303,768	-0,074	0,100
-324,358	-169,811	-0,072	-0,002
-323,343	-200,000	0,001	-0,107
-322,329	-17,322	-0,049	0,022
-321,314	357,481	0,036	0,052
-320,299	-200,000	-0,002	-0,073
-319,285	52,743	0,116	-0,080
-318,270	22,744	-0,117	-0,069
-317,256	-200,000	0,044	0,228
-316,241	275,922	0,050	-0,065
-315,226	47,627	0,063	0,042
-314,212	65,987	0,088	0,065
-313,197	-15,093	-0,086	-0,040
-312,183	-136,246	0,043	0,004
-311,168	388,558	0,024	0,036
-310,153	800,000	-0,033	-0,080
-309,139	-200,000	-0,015	-0,050
-308,124	-51,610	0,072	0,024
-307,110	-200,000	0,005	-0,107
-306,095	-40,831	-0,050	-0,019
-305,080	609,304	-0,074	0,134
-304,066	-103,418	0,045	-0,008
-303,051	326,168	-0,021	-0,029
-302,037	45,218	0,018	0,012
-301,022	-118,480	0,108	0,014
-300,008	-11,795	0,062	0,029
-298,993	504,509	-0,027	0,046
-297,978	-125,471	0,043	0,005
-296,964	-126,168	0,093	-0,010
-295,949	387,287	-0,083	-0,124
-294,935	64,998	0,200	-0,146
-293,920	800,000	0,041	0,090
-292,905	536,776	0,060	0,104
-291,891	137,368	-0,078	0,074
-290,876	-118,803	0,085	0,011
-289,862	-200,000	-0,002	-0,128
-288,847	-200,000	0,026	0,122
-287,832	-200,000	-0,011	0,045
-286,818	87,419	0,035	-0,028
-285,803	-200,000	-0,010	0,061
-284,789	-200,000	0,011	-0,066
-283,774	-200,000	-0,027	0,124
-282,759	272,280	0,027	-0,035
-281,745	-200,000	-0,007	0,067
-280,730	-6,754	-0,092	0,045
-279,716	-14,313	-0,014	-0,006
-278,701	175,369	0,026	-0,027
-277,686	206,621	0,079	-0,090
-276,672	426,715	0,057	0,089
-275,657	-12,869	-0,035	0,016
-274,643	137,387	-0,037	-0,035
-273,628	-200,000	0,045	-0,169
-272,613	-158,637	0,084	0,003
-271,599	800,000	0,055	0,158
-270,584	555,373	0,051	0,089
-269,570	38,555	0,050	0,032
-268,555	-200,000	0,005	-0,070
-267,540	12,642	-0,078	-0,044
-266,526	625,131	-0,057	0,104
-265,511	-200,000	0,037	-0,119
-264,497	25,988	0,080	-0,048
-263,482	-200,000	0,005	-0,112
-262,467	-30,594	-0,067	0,027
-261,453	75,840	-0,085	0,065
-260,438	-200,000	0,012	0,105
-259,424	-143,522	-0,119	0,008
-258,409	-48,052	-0,071	-0,025
-257,395	800,000	0,061	-0,138
-256,380	-80,998	-0,073	0,017
-255,365	-200,000	0,012	-0,085
-254,351	-96,050	-0,051	0,010
-253,336	800,000	-0,015	-0,043
-252,322	438,173	0,044	-0,069
-251,307	-200,000	-0,020	-0,175
-250,292	236,852	-0,076	0,091
-249,278	253,657	-0,049	0,060
-248,263	-70,811	0,094	-0,025
-247,249	255,218	0,045	-0,056
-246,234	118,333	-0,098	0,088
-245,219	298,845	-0,106	-0,141
-244,205	-200,000	-0,044	-0,226
-243,190	-34,866	-0,034	-0,014
-242,176	190,974	-0,030	0,033
-241,161	258,655	0,053	-0,066
-240,146	-200,000	-0,008	0,102
-239,132	62,015	-0,138	0,100
-238,117	-92,480	-0,044	-0,009
-237,103	19,947	-0,140	-0,081
-236,088	132,677	-0,057	0,053
-235,073	800,000	0,027	0,071
-234,059	537,090	-0,030	0,051
-233,044	-200,000	-0,021	0,084
-232,030	800,000	-0,023	-0,053
-231,015	123,126	0,072	0,065
-230,000	-99,402	-0,097	-0,018
-228,986	800,000	0,020	-0,048
-227,971	-22,864	0,017	-0,007
-226,957	-200,000	0,013	0,056
-225,942	207,342	-0,027	0,031
-224,927	124,395	-0,026	-0,024
-223,913	800,000	-0,035	0,077
-222,898	800,000	-0,026	-0,079
-221,884	800,000	0,031	-0,084
-220,869	-200,000	0,009	0,065
-219,855	504,790	-0,094	0,157
-218,840	-131,819	0,103	0,010
-217,825	-105,254	-0,118	0,019
-216,811	600,805	-0,051	-0,092
-215,796	800,000	-0,044	-0,089
-214,782	-50,161	-0,086	-0,029
-213,767	39,478	-0,064	-0,041
-212,752	-33,349	0,108	0,043
-211,738	275,994	-0,057	0,073
-210,723	741,714	-0,026	0,050
-209,709	543,773	-0,049	0,086
-208,694	140,106	0,055	0,052
-207,679	-66,279	0,063	-0,018
-206,665	-162,655	0,164	0,006
-205,650	402,725	0,006	0,009
-204,636	49,146	-0,069	0,047
-203,621	-200,000	0,033	0,199
-202,606	-121,579	-0,064	-0,008
-201,592	-145,677	-0,100	0,006
-200,577	800,000	0,035	-0,100
-199,563	98,327	0,064	0,053
-198,548	-17,781	0,139	0,063
-197,533	280,150	0,051	0,066
-196,519	273,143	-0,144	0,184
-195,504	800,000	-0,044	0,128
-194,490	-200,000	-0,018	-0,102
-193,475	52,080	0,076	-0,052
-192,460	371,864	0,054	0,080
-191,446	61,805	0,114	0,082
-190,431	-36,472	-0,056	0,021
-189,417	168,230	0,092	-0,095
-188,402	-74,223	-0,092	-0,024
-187,387	-55,613	-0,108	-0,035
-186,373	-99,452	0,127	-0,023
-185,358	-200,000	-0,203	0,000
-184,344	-36,820	-0,083	0,032
-183,329	800,000	0,052	-0,153
-182,315	-200,000	0,008	-0,077
-181,300	-188,908	-0,099	0,001
-180,285	-200,000	0,007	-0,052
-179,271	800,000	0,004	-0,012
-178,256	-77,315	0,083	-0,021
-177,242	100,943	-0,120	0,101
-176,227	-200,000	0,040	0,147
-175,212	-200,000	-0,010	0,096
-174,198	37,310	-0,059	0,038
-173,183	-200,000	0,014	0,048
-172,169	30,367	0,062	-0,038
-171,154	8,572	0,115	-0,062
-170,139	-137,561	0,081	-0,006
-169,125	-63,618	-0,061	0,018
-168,110	-137,749	0,023	0,002
-167,096	-154,610	0,128	0,006
-166,081	-200,000	-0,014	0,071
-165,066	800,000	0,022	-0,068
-164,052	-200,000	0,038	0,196
-163,037	140,773	-0,016	-0,015
-162,023	-118,587	-0,067	0,008
-161,008	143,824	0,014	-0,013
-159,993	76,127	-0,172	0,131
-158,979	800,000	0,051	-0,133
-157,964	-101,265	-0,150	-0,026
-156,950	139,409	0,047	0,045
-155,935	-200,000	-0,004	0,050
-154,920	-200,000	-0,007	0,113
-153,906	25,796	-0,065	0,039
-152,891	210,223	-0,120	-0,135
-151,877	168,641	-0,046	-0,047
-150,862	108,956	-0,037	0,032
-149,847	-92,464	0,046	0,009
-148,833	-200,000	-0,018	0,098
-147,818	525,367	0,025	0,043
-146,804	-128,885	-0,024	-0,002
-145,789	112,098	0,133	0,116
-144,775	557,802	-0,046	-0,080
-143,760	131,174	-0,047	-0,043
-142,745	74,468	-0,074	0,056
-141,731	-200,000	0,021	-0,104
-140,716	58,530	0,079	-0,056
-139,702	-90,670	0,092	0,019
-138,687	-127,398	0,163	0,017
-137,672	192,924	0,077	0,084
-136,658	-41,275	-0,092	-0,034
-135,643	380,129	-0,008	-0,012
-134,629	300,475	-0,035	-0,047
-133,614	-200,000	-0,044	0,140
-132,599	-200,000	0,170	0,000
-131,585	9,936	0,046	0,025
-130,570	-69,305	0,102	-0,028
-129,556	225,886	0,084	-0,098
-128,541	-200,000	-0,009	-0,119
-127,526	800,000	0,019	-0,048
-126,512	-91,537	-0,025	-0,005
-125,497	-163,625	0,110	0,004
-124,483	-158,013	-0,037	-0,002
-123,468	-49,500	-0,150	0,051
-122,453	800,000	-0,028	0,060
-121,439	-200,000	0,006	-0,034
-120,424	372,293	0,051	0,074
-119,410	103,085	0,098	0,083
-118,395	-200,000	0,008	0,061
-117,380	-200,000	-0,032	0,229
-116,366	-103,830	0,056	0,009
-115,351	731,784	-0,045	-0,087
-114,337	-143,542	-0,129	0,009
-113,322	-51,520	0,094	0,031
-112,307	60,110	0,090	-0,064
-111,293	800,000	0,060	0,124
-110,278	364,727	0,039	-0,057
-109,264	-123,437	-0,033	-0,004
-108,249	27,177	0,048	-0,029
-107,234	-74,312	-0,129	-0,033
-106,220	-141,223	-0,033	0,002
-105,205	-80,741	0,024	-0,006
-104,191	800,000	0,044	-0,088
-103,176	99,396	0,033	0,028
-102,162	-87,576	-0,097	0,021
-101,147	449,765	0,029	-0,047
-100,132	-85,958	0,063	-0,014
-99,118	800,000	-0,027	-0,078
-98,103	-97,370	-0,152	0,028
-97,089	57,022	0,146	-0,103
-96,074	-50,714	0,094	-0,032
-95,059	200,447	0,039	-0,043
-94,045	59,762	-0,097	-0,069
-93,030	195,800	-0,080	-0,088
-92,016	800,000	0,047	-0,130
-91,001	439,271	0,051	0,080
-89,986	-3,738	0,079	0,039
-88,972	165,492	0,045	0,046
-87,957	103,746	0,105	0,088
-86,943	148,189	0,088	0,085
-85,928	-86,024	-0,152	-0,034
-84,913	342,051	-0,042	-0,060
-83,899	-200,000	0,011	0,039
-82,884	526,079	-0,092	0,156
-81,870	348,278	0,133	0,188
-80,855	273,322	0,090	0,114
-79,840	800,000	0,026	0,054
-78,826	150,205	-0,087	0,085
-77,811	-200,000	0,018	-0,119
-76,797	288,969	0,099	0,130
-75,782	15,485	0,081	0,045
-74,767	-200,000	-0,014	0,123
-73,753	12,449	0,059	-0,033
-72,738	-125,382	-0,047	0,005
-71,724	433,190	0,040	-0,063
-70,709	-48,207	-0,076	-0,026
-69,694	591,338	-0,049	-0,087
-68,680	-147,503	0,032	0,002
-67,665	632,608	-0,058	-0,105
-66,651	-200,000	0,012	0,195
-65,636	406,825	0,057	-0,087
-64,622	0,443	-0,098	-0,050
-63,607	405,724	0,033	-0,051
-62,592	-33,429	-0,060	0,024
-61,578	800,000	0,053	-0,132
-60,563	-43,970	0,080	0,029
-59,549	-200,000	-0,005	0,185
-58,534	-11,593	-1,939	-0,912
-57,519	-200,000	-0,209	-0,816
-56,505	-200,000	-1,305	-4,804
-55,490	-20,407	0,789	0,347
-54,476	800,000	5,393	12,193
-53,461	-200,000	17,321	283,966
-52,446	800,000	723,300	2226,513
-51,432	542,927	1639,490	2818,731
-50,417	111,901	1631,439	1414,241
-49,403	76,312	1286,421	977,190
-48,388	32,809	1028,507	637,644
-47,373	20,343	990,381	572,875
-46,359	18,807	978,569	560,975
-45,344	16,261	974,522	550,294
-44,330	16,419	973,097	549,986
-43,315	15,962	971,287	547,446
-42,300	15,918	970,225	546,682
-41,286	15,893	969,235	546,023
-40,271	15,886	968,085	545,331
-39,257	15,871	967,394	544,868
-38,242	15,877	966,564	544,399
-37,227	15,997	965,442	544,136
-36,213	15,967	964,820	543,666
-35,198	15,914	963,920	542,965
-34,184	15,934	963,255	542,636
-33,169	15,856	962,216	541,775
-32,154	15,930	961,321	541,489
-31,140	15,884	960,480	540,846
-30,125	15,939	959,669	540,544
-29,111	15,899	958,956	539,991
-28,096	15,888	958,364	539,601
-27,082	15,909	957,460	539,140
-26,067	15,957	956,584	538,778
-25,052	15,914	955,835	538,198
-24,038	15,908	955,306	537,858
-23,023	15,872	954,755	537,411
-22,009	15,900	954,016	537,064
-20,994	15,908	953,377	536,710
-19,979	15,996	952,841	536,668
-18,965	15,861	952,296	535,907
-17,950	15,948	951,644	535,797
-16,936	15,852	951,050	535,136
-15,921	15,867	950,173	534,670
-14,906	15,832	949,456	534,132
-13,892	15,840	948,816	533,778
-12,877	15,791	948,291	533,303
-11,863	15,728	947,704	532,753
-10,848	15,798	947,146	532,641
-9,833	15,879	946,713	532,633
-8,819	15,799	946,237	532,090
-7,804	15,770	945,436	531,526
-6,790	15,795	944,756	531,203
-5,775	15,834	944,092	530,930
-4,760	15,862	943,503	530,669
-3,746	15,769	942,925	530,027
-2,731	15,657	942,405	529,358
-1,717	15,679	941,555	528,930
-0,702	15,653	941,085	528,561
0,313	15,429	940,365	528,248
1,327	18,584	938,159	536,913
2,342	27,571	795,381	479,040
3,356	24,272	459,184	271,486
4,371	-2,868	313,727	156,705
5,386	-6,992	295,534	143,439
6,400	-8,865	289,491	138,639
7,415	-9,538	287,171	136,855
8,429	-9,454	285,577	136,164
9,444	-9,618	284,665	135,558
10,459	-9,436	284,004	135,408
11,473	-9,398	283,342	135,117
12,488	-9,562	282,882	134,727
13,502	-9,403	282,404	134,641
14,517	-9,518	282,034	134,341
15,531	-9,274	281,382	134,254
16,546	-9,401	281,125	133,997
17,561	-9,436	280,800	133,796
18,575	-9,509	280,552	133,597
19,590	-9,523	280,163	133,386
20,604	-9,399	279,949	133,391
21,619	-9,553	279,250	132,899
22,634	-9,450	279,119	132,923
23,648	-9,314	278,848	132,912
24,663	-9,402	278,356	132,581
25,677	-9,489	278,343	132,481
26,692	-9,316	277,959	132,451
27,707	-9,281	277,753	132,374
28,721	-9,376	277,437	132,121
29,736	-9,627	277,159	131,740
30,750	-9,425	276,896	131,794
31,765	-9,434	276,553	131,611
32,780	-9,322	276,367	131,616
33,794	-9,515	276,299	131,390
34,809	-9,542	276,128	131,272
35,823	-9,325	275,561	131,194
36,838	-9,388	275,426	131,058
37,853	-9,687	275,202	130,659
38,867	-9,547	274,879	130,626
39,882	-9,462	274,774	130,644
40,896	-9,581	274,486	130,384
41,911	-9,424	274,316	130,439
42,926	-9,407	273,896	130,244
43,940	-9,553	273,695	130,000
44,955	-9,514	273,454	129,910
45,969	-9,624	273,261	129,705
46,984	-9,681	273,151	129,588
47,999	-9,747	272,768	129,332
49,013	-9,949	272,531	129,021
50,028	-10,048	272,137	128,731
51,042	-10,070	271,933	128,603
52,057	-10,086	271,791	128,509
53,071	-10,020	271,495	128,418
54,086	-9,891	271,288	128,428
55,101	-9,842	271,190	128,416
56,115	-9,722	271,011	128,431
57,130	-9,515	270,922	128,568
58,144	-9,357	270,618	128,558
59,159	-9,249	270,229	128,461
60,174	-9,393	270,205	128,306
61,188	-9,233	270,010	128,349
62,203	-9,531	270,013	128,065
63,217	-9,458	269,583	127,917
64,232	-9,253	269,355	127,985
65,247	-9,466	269,178	127,695
66,261	-9,437	268,927	127,590
67,276	-9,610	268,662	127,296
68,290	-9,636	268,477	127,173
69,305	-9,710	267,981	126,859
70,320	-9,678	267,889	126,833
71,334	-9,431	267,735	126,974
72,349	-9,451	267,623	126,891
73,363	-9,412	267,394	126,807
74,378	-9,376	267,291	126,780
75,393	-9,360	267,021	126,655
76,407	-9,328	266,733	126,536
77,422	-9,237	266,604	126,546
78,436	-9,246	266,308	126,386
79,451	-9,257	266,079	126,256
80,466	-9,598	265,900	125,851
81,480	-9,473	265,551	125,788
82,495	-9,574	265,336	125,584
83,509	-9,421	265,231	125,660
84,524	-9,754	265,204	125,337
85,539	-9,677	264,675	125,145
86,553	-9,597	264,557	125,149
87,568	-9,442	264,344	125,177
88,582	-9,742	264,177	124,817
89,597	-9,725	263,850	124,667
90,611	-9,351	263,687	124,914
91,626	-9,387	263,675	124,865
92,641	-9,370	263,524	124,798
93,655	-9,567	263,315	124,511
94,670	-9,517	263,015	124,403
95,684	-9,544	262,824	124,277
96,699	-9,554	262,695	124,196
97,714	-9,568	262,441	124,053
98,728	-9,694	262,226	123,828
99,743	-9,822	262,068	123,628
100,757	-9,684	261,632	123,534
101,772	-9,685	261,471	123,447
102,787	-9,461	261,219	123,515
103,801	-9,567	261,186	123,394
104,816	-9,399	260,994	123,441
105,830	-9,520	261,069	123,359
106,845	-9,404	260,703	123,278
107,860	-9,328	260,319	123,152
108,874	-9,352	260,183	123,055
109,889	-9,473	260,146	122,920
110,903	-9,428	259,720	122,748
111,918	-9,482	259,565	122,616
112,933	-9,591	259,361	122,412
113,947	-9,414	259,255	122,507
114,962	-9,471	259,085	122,366
115,976	-9,338	258,695	122,287
116,991	-9,164	258,568	122,369
118,006	-9,491	258,556	122,065
119,020	-9,380	258,401	122,079
120,035	-9,415	258,286	121,983
121,049	-9,419	258,092	121,877
122,064	-9,299	257,803	121,835
123,079	-9,482	257,698	121,614
124,093	-9,625	257,494	121,382
125,108	-9,472	257,139	121,338
126,122	-9,699	257,058	121,090
127,137	-9,712	256,680	120,891
128,151	-9,680	256,655	120,896
129,166	-9,510	256,408	120,916
130,181	-9,524	256,139	120,767
131,195	-9,677	255,966	120,542
132,210	-9,523	255,831	120,601
133,224	-9,591	255,758	120,496
134,239	-9,463	255,528	120,488
135,254	-9,304	255,261	120,489
136,268	-9,388	255,141	120,349
137,283	-9,826	254,773	119,787
138,297	-9,677	254,603	119,825
139,312	-9,849	254,524	119,629
140,327	-9,491	254,358	119,849
141,341	-9,361	254,357	119,949
142,356	-9,516	254,090	119,679
143,370	-9,372	253,931	119,717
144,385	-9,236	253,760	119,743
145,400	-9,136	253,540	119,714
146,414	-9,228	253,439	119,577
147,429	-9,312	253,133	119,350
148,443	-9,278	253,059	119,334
149,458	-9,300	252,866	119,213
150,473	-9,392	252,676	119,035
151,487	-9,347	252,376	118,920
152,502	-9,322	252,173	118,836
153,516	-9,192	252,074	118,889
154,531	-9,319	251,858	118,668
155,546	-9,206	251,769	118,713
156,560	-9,378	251,510	118,434
157,575	-9,492	251,344	118,248
158,589	-9,390	251,197	118,254
159,604	-9,287	251,077	118,275
160,619	-9,298	250,746	118,099
161,633	-9,102	250,622	118,196
162,648	-9,177	250,518	118,073
163,662	-9,254	250,335	117,911
164,677	-9,111	250,032	117,878
165,692	-9,236	249,968	117,733
166,706	-9,131	249,850	117,755
167,721	-9,281	249,681	117,539
168,735	-9,239	249,491	117,474
169,750	-9,215	249,350	117,418
170,764	-9,063	249,110	117,422
171,779	-9,166	249,077	117,309
172,794	-9,099	248,824	117,235
173,808	-9,054	248,610	117,162
174,823	-9,526	248,341	116,629
175,837	-9,866	248,093	116,218
176,852	-9,417	248,206	116,637
177,867	-9,237	247,963	116,662
178,881	-9,342	247,781	116,479
179,896	-9,415	247,740	116,388
180,910	-9,457	247,499	116,230
181,925	-9,174	247,378	116,398
182,940	-9,331	247,162	116,156
183,954	-9,238	246,903	116,101
184,969	-9,221	246,891	116,099
185,983	-9,299	246,722	115,944
186,998	-9,166	246,457	115,919
188,013	-9,052	246,348	115,953
189,027	-9,265	246,127	115,662
190,042	-9,165	246,014	115,682
191,056	-9,399	245,892	115,420
192,071	-9,358	245,580	115,297
193,086	-9,224	245,441	115,332
194,100	-9,243	245,353	115,265
195,115	-9,090	244,968	115,200
196,129	-9,169	245,013	115,145
197,144	-9,340	244,804	114,896
198,159	-9,210	244,606	114,900
199,173	-9,108	244,327	114,843
200,188	-9,366	244,315	114,615
201,202	-9,555	243,939	114,273
202,217	-9,654	243,727	114,082
203,232	-9,662	243,594	114,003
204,246	-9,532	243,569	114,088
205,261	-9,059	243,366	114,370
206,275	-10,062	242,873	113,308
207,290	-6,693	244,083	116,627
208,304	-0,412	246,430	122,929
209,319	2,921	247,044	125,978
210,334	3,146	246,915	126,086
211,348	3,530	247,040	126,455
212,363	3,684	246,872	126,485
213,377	3,860	246,685	126,523
214,392	3,901	246,558	126,480
215,407	3,478	246,368	126,024
216,421	3,626	246,123	126,009
217,436	3,911	246,126	126,233
218,450	3,965	245,979	126,191
219,465	3,741	245,752	125,879
220,480	3,401	245,510	125,466
221,494	3,389	245,359	125,368
222,509	3,496	245,257	125,392
223,523	3,463	244,982	125,213
224,538	2,953	244,752	124,668
225,553	3,028	244,702	124,693
226,567	3,226	244,503	124,742
227,582	3,364	244,374	124,777
228,596	3,453	244,383	124,843
229,611	3,114	244,133	124,428
230,626	2,846	243,846	124,053
231,640	3,068	243,691	124,143
232,655	3,229	243,426	124,128
233,669	3,208	243,201	123,985
234,684	2,921	243,147	123,714
235,699	3,415	243,146	124,103
236,713	3,589	243,045	124,181
237,728	3,247	242,756	123,746
238,742	3,173	242,508	123,548
239,757	3,052	242,302	123,335
240,772	3,144	242,178	123,335
241,786	3,286	242,175	123,437
242,801	3,044	241,866	123,074
243,815	3,048	241,717	122,990
244,830	3,375	241,630	123,198
245,844	3,503	241,408	123,176
246,859	3,320	241,300	122,964
247,874	3,281	241,097	122,818
248,888	3,147	241,050	122,675
249,903	2,993	240,923	122,476
250,917	3,500	240,685	122,751
251,932	3,555	240,678	122,780
252,947	3,326	240,558	122,524
253,961	3,164	240,165	122,184
254,976	3,302	240,030	122,215
255,990	3,439	239,941	122,268
257,005	3,166	239,835	121,985
258,020	2,950	239,580	121,672
259,034	3,071	239,544	121,739
260,049	3,322	239,264	121,786
261,063	3,228	238,997	121,564
262,078	2,849	239,039	121,274
263,093	3,292	238,900	121,544
264,107	3,438	238,629	121,512
265,122	3,214	238,471	121,243
266,136	3,566	238,317	121,432
267,151	3,568	238,357	121,443
268,166	3,236	237,848	120,911
269,180	3,015	237,874	120,739
270,195	3,835	237,932	121,406
271,209	3,826	237,705	121,272
272,224	3,250	237,383	120,642
273,239	2,867	237,189	120,232
274,253	3,136	237,034	120,354
275,268	3,290	236,988	120,441
276,282	3,434	236,845	120,471
277,297	2,904	236,728	119,984
278,312	3,063	236,472	119,969
279,326	3,263	236,584	120,172
280,341	3,312	236,224	120,016
281,355	3,219	236,217	119,930
282,370	3,415	236,049	119,987
283,384	3,434	235,802	119,865
284,399	3,099	235,592	119,486
285,414	2,988	235,347	119,265
286,428	3,250	235,263	119,416
287,443	3,155	235,163	119,281
288,457	3,418	234,932	119,358
289,472	3,526	235,016	119,474
290,487	3,234	234,765	119,108
291,501	3,090	234,544	118,874
292,516	2,853	234,424	118,617
293,530	2,903	234,115	118,490
294,545	3,060	234,264	118,677
295,560	3,254	233,987	118,676
296,574	3,082	233,720	118,397
297,589	3,074	233,599	118,319
298,603	3,498	233,706	118,691
299,618	3,334	233,466	118,431
300,633	3,305	233,216	118,272
301,647	3,596	233,159	118,457
302,662	3,808	233,181	118,621
303,676	3,733	233,029	118,475
304,691	3,628	232,838	118,287
305,706	3,676	232,646	118,216
306,720	3,597	232,407	118,023
307,735	3,440	232,410	117,893
308,749	3,355	232,191	117,707
309,764	3,043	231,992	117,356
310,779	3,111	231,804	117,302
311,793	3,107	231,456	117,112
312,808	2,896	231,355	116,889
313,822	2,993	231,132	116,840
314,837	3,077	230,990	116,822
315,852	3,150	230,887	116,816
316,866	3,422	230,912	117,025
317,881	3,538	230,770	117,031
318,895	3,521	230,751	116,998
319,910	3,662	230,631	117,035
320,925	3,645	230,323	116,855
321,939	3,155	230,123	116,370
322,954	3,375	229,979	116,455
323,968	3,289	229,840	116,308
324,983	3,173	229,600	116,088
325,997	3,111	229,472	115,966
327,012	3,407	229,388	116,138
328,027	3,451	229,373	116,154
329,041	3,595	229,300	116,216
330,056	3,936	229,280	116,453
331,070	3,964	228,997	116,320
332,085	3,520	228,711	115,829
333,100	3,685	228,511	115,842
334,114	3,788	228,461	115,884
335,129	3,562	228,343	115,643
336,143	3,802	228,148	115,715
337,158	3,641	228,081	115,549
338,173	3,804	227,972	115,607
339,187	3,473	227,797	115,259
340,202	3,658	227,561	115,268
341,216	3,564	227,536	115,175
342,231	3,363	227,286	114,887
343,246	3,360	227,142	114,802
344,260	3,535	227,067	114,885
345,275	3,751	226,968	114,986
346,289	3,954	226,833	115,059
347,304	3,671	226,660	114,750
348,319	3,985	226,452	114,868
349,333	3,471	226,291	114,393
350,348	3,307	226,092	114,160
351,362	3,555	226,057	114,317
352,377	3,500	225,965	114,220
353,392	3,171	225,599	113,779
354,406	3,292	225,585	113,852
355,421	195,278	1323,279	1399,796
356,435	156,498	1457,024	1399,806
