DTS Sentinel unit serial number:	SN410029Multiplexer serial number:	ORYXHardware model number:	OX2-SRSoftware version number:	ORYX F/W v4,00 Oryx Data Collector v3.7.2.0data status	okinstallation	B5 Nyhavnadifferential loss correction	single-endedforward channel	channel 2reverse channel	N/Adate	2023/12/13time	22:02:13forward acquisition time	300,00reverse acquisition time	0,00gamma	499,1914k internal	0,3155k external	0,3155temperature offset calibration	1,0000default loss term (dB/km)	0,3820temperature slope calibration	1,0000multiplexer offset coefficient	1,0000multiplexer slope coefficient	1,0000fibre end	0,00T internal ref (°C)	9,62T ext. ref 1 (°C)	-7,08T ext. ref 2 (°C)	-7,12length (m)	temperature (°C)	Stokes	anti-Stokes-744,400	4,511	0,052	0,028
-743,385	-146,316	-0,400	0,025
-742,371	-36,999	0,235	0,093
-741,356	-133,061	-0,396	-0,037
-740,342	-33,313	0,261	0,106
-739,327	-79,714	-0,355	-0,088
-738,312	288,885	0,061	0,082
-737,298	-77,466	-0,327	-0,083
-736,283	332,743	-0,026	-0,037
-735,269	-133,472	-0,277	0,025
-734,254	121,852	0,072	0,067
-733,239	-6,040	-0,478	-0,240
-732,225	-200,000	0,047	0,191
-731,210	-200,000	0,005	0,041
-730,196	14,174	-0,096	0,055
-729,181	-200,000	-0,003	0,049
-728,167	334,129	-0,066	0,095
-727,152	-134,944	-0,079	-0,007
-726,137	83,442	-0,094	-0,076
-725,123	-200,000	0,001	0,103
-724,108	-88,030	-0,045	-0,010
-723,094	-200,000	-0,016	-0,075
-722,079	-200,000	-0,003	-0,106
-721,064	-173,332	-0,062	0,001
-720,050	3,516	-0,108	-0,058
-719,035	-73,177	-0,123	-0,033
-718,021	23,441	-0,086	-0,052
-717,006	-200,000	-0,006	-0,137
-715,991	3,282	0,060	0,032
-714,977	800,000	0,053	0,167
-713,962	435,377	-0,043	0,069
-712,948	-200,000	0,012	0,112
-711,933	-107,198	-0,079	0,013
-710,918	800,000	0,045	0,121
-709,904	-59,497	0,032	0,010
-708,889	-200,000	-0,000	-0,064
-707,875	-83,158	-0,045	0,011
-706,860	30,727	0,071	0,044
-705,845	-200,000	-0,007	0,103
-704,831	-128,366	0,058	-0,006
-703,816	596,785	-0,024	0,043
-702,802	-200,000	-0,033	-0,108
-701,787	36,254	-0,140	-0,091
-700,772	-200,000	-0,007	-0,061
-699,758	-28,928	-0,149	0,063
-698,743	132,906	0,019	-0,018
-697,729	-200,000	0,011	-0,055
-696,714	267,141	0,080	-0,103
-695,699	-200,000	-0,027	-0,090
-694,685	800,000	-0,036	-0,102
-693,670	-200,000	0,021	-0,098
-692,656	-136,212	0,106	0,009
-691,641	-8,572	-0,120	0,059
-690,627	-122,456	-0,093	-0,011
-689,612	-0,563	-0,088	0,046
-688,597	-200,000	-0,018	-0,120
-687,583	-200,000	0,005	-0,074
-686,568	-200,000	0,011	0,044
-685,554	-200,000	0,007	0,046
-684,539	-200,000	0,006	-0,124
-683,524	60,222	0,073	-0,053
-682,510	-188,977	-0,018	-0,000
-681,495	800,000	0,036	-0,085
-680,481	-59,874	-0,156	0,049
-679,466	-200,000	-0,017	0,080
-678,451	-27,364	-0,063	0,027
-677,437	332,211	0,037	-0,053
-676,422	279,138	0,010	0,013
-675,408	-200,000	-0,012	-0,054
-674,393	-200,000	0,009	0,090
-673,378	62,017	-0,057	0,042
-672,364	800,000	-0,055	-0,141
-671,349	-2,534	-0,049	-0,025
-670,335	800,000	-0,010	0,026
-669,320	-60,142	0,130	0,040
-668,305	800,000	0,062	0,137
-667,291	-108,642	-0,229	0,036
-666,276	-87,268	-0,059	0,013
-665,262	-200,000	-0,021	-0,071
-664,247	233,167	-0,051	-0,062
-663,232	149,728	-0,123	-0,123
-662,218	-166,001	0,047	0,001
-661,203	551,861	-0,066	0,117
-660,189	30,716	-0,068	0,043
-659,174	800,000	-0,072	0,164
-658,159	231,678	-0,046	-0,055
-657,145	800,000	0,045	-0,101
-656,130	336,596	0,099	0,142
-655,116	-47,428	-0,124	0,044
-654,101	-64,687	-0,135	0,040
-653,086	-64,830	0,110	0,033
-652,072	-200,000	0,019	-0,092
-651,057	299,641	-0,097	-0,132
-650,043	800,000	0,019	0,054
-649,028	635,920	-0,029	-0,054
-648,014	-200,000	-0,009	0,054
-646,999	217,829	0,058	0,068
-645,984	272,283	-0,102	0,133
-644,970	-141,683	-0,073	-0,005
-643,955	-200,000	-0,018	-0,163
-642,941	-193,772	-0,088	0,001
-641,926	800,000	-0,004	0,014
-640,911	348,368	-0,081	0,117
-639,897	-120,336	0,038	0,005
-638,882	-200,000	0,002	0,080
-637,868	800,000	0,037	-0,080
-636,853	800,000	0,024	-0,062
-635,838	584,110	-0,053	-0,096
-634,824	800,000	0,069	-0,162
-633,809	-182,548	0,094	-0,001
-632,795	18,494	0,088	0,052
-631,780	-98,918	0,030	0,006
-630,765	51,659	-0,062	-0,044
-629,751	32,661	0,020	-0,013
-628,736	-26,348	-0,056	-0,024
-627,722	-200,000	-0,032	0,111
-626,707	-128,506	0,072	0,007
-625,692	-15,942	-0,115	0,054
-624,678	-5,427	0,076	0,038
-623,663	-72,286	-0,087	-0,023
-622,649	286,519	0,068	-0,090
-621,634	-70,757	0,033	-0,009
-620,619	-91,342	-0,076	0,016
-619,605	39,672	-0,078	-0,051
-618,590	61,514	-0,124	0,090
-617,576	182,537	-0,043	0,046
-616,561	-182,804	-0,016	0,000
-615,546	-3,593	-0,061	0,031
-614,532	-40,410	-0,021	-0,008
-613,517	223,478	-0,027	-0,032
-612,503	-109,426	0,033	-0,005
-611,488	-83,580	0,061	0,014
-610,474	-200,000	-0,000	0,009
-609,459	-200,000	-0,033	0,133
-608,444	208,593	0,083	-0,096
-607,430	-58,431	-0,164	0,052
-606,415	132,893	-0,153	-0,145
-605,401	-26,642	-0,062	-0,027
-604,386	-200,000	-0,002	0,092
-603,371	-129,522	-0,095	-0,010
-602,357	-200,000	0,003	0,112
-601,342	-200,000	0,023	0,088
-600,328	87,411	-0,032	-0,026
-599,313	100,357	0,121	0,103
-598,298	-27,827	-0,096	0,041
-597,284	97,804	-0,088	-0,074
-596,269	177,339	-0,090	-0,097
-595,255	501,887	0,021	0,036
-594,240	178,179	-0,073	-0,078
-593,225	-200,000	-0,012	-0,069
-592,211	95,455	-0,081	-0,068
-591,196	95,648	-0,076	0,064
-590,182	-200,000	-0,026	-0,122
-589,167	800,000	0,042	-0,103
-588,152	284,978	0,087	0,115
-587,138	-200,000	-0,010	0,031
-586,123	-116,816	0,043	0,006
-585,109	-34,904	-0,091	0,036
-584,094	-200,000	0,016	0,102
-583,079	-200,000	0,037	0,165
-582,065	16,038	0,024	-0,014
-581,050	390,682	-0,089	0,136
-580,036	-200,000	-0,012	-0,090
-579,021	-78,847	-0,068	0,017
-578,006	-52,664	-0,120	-0,041
-576,992	-66,542	-0,106	0,031
-575,977	225,248	0,115	0,137
-574,963	-8,068	0,042	-0,021
-573,948	-200,000	0,015	0,186
-572,934	-92,971	-0,028	0,006
-571,919	313,194	-0,046	0,064
-570,904	-30,229	0,063	-0,026
-569,890	-139,952	-0,064	-0,005
-568,875	800,000	0,038	-0,093
-567,861	14,230	0,101	0,058
-566,846	6,758	0,030	-0,016
-565,831	-200,000	-0,030	0,132
-564,817	93,883	0,021	-0,017
-563,802	-200,000	-0,015	-0,082
-562,788	-200,000	-0,022	-0,113
-561,773	-200,000	0,017	-0,100
-560,758	-200,000	-0,012	-0,089
-559,744	-200,000	-0,014	-0,059
-558,729	151,621	-0,058	0,058
-557,715	-116,691	-0,209	-0,028
-556,700	-107,657	-0,050	0,008
-555,685	279,208	0,110	-0,144
-554,671	-200,000	-0,019	-0,076
-553,656	800,000	0,068	-0,193
-552,642	-14,612	0,113	0,053
-551,627	93,054	0,048	0,040
-550,612	46,068	0,125	0,085
-549,598	-137,008	-0,159	-0,013
-548,583	800,000	-0,025	0,057
-547,569	-200,000	0,001	-0,027
-546,554	190,020	0,051	0,056
-545,539	-200,000	0,030	0,184
-544,525	50,967	0,113	-0,078
-543,510	103,197	-0,125	0,108
-542,496	-99,512	0,024	-0,004
-541,481	22,645	0,074	0,044
-540,466	283,658	0,067	-0,088
-539,452	-133,647	0,090	0,008
-538,437	92,918	-0,074	0,061
-537,423	351,832	-0,048	0,069
-536,408	48,079	-0,085	0,058
-535,393	146,083	-0,097	-0,095
-534,379	170,366	-0,041	0,043
-533,364	-200,000	0,015	-0,097
-532,350	-47,916	0,144	-0,051
-531,335	57,216	-0,031	-0,022
-530,321	80,670	-0,084	0,067
-529,306	-200,000	0,000	-0,179
-528,291	-200,000	-0,039	-0,151
-527,277	-24,099	-0,057	-0,025
-526,262	250,751	0,055	-0,069
-525,248	331,540	-0,045	-0,063
-524,233	58,411	0,156	0,112
-523,218	800,000	0,037	0,095
-522,204	742,009	-0,026	-0,051
-521,189	-67,684	-0,039	-0,011
-520,175	800,000	0,013	-0,033
-519,160	-200,000	-0,011	0,059
-518,145	31,670	0,033	0,020
-517,131	-20,549	-0,043	0,019
-516,116	-200,000	0,019	0,138
-515,102	-200,000	-0,010	0,172
-514,087	-200,000	0,012	-0,067
-513,072	-22,346	0,044	0,019
-512,058	58,103	-0,069	-0,049
-511,043	314,926	0,097	0,134
-510,029	-4,800	0,113	0,057
-509,014	-200,000	0,020	0,100
-507,999	800,000	-0,018	0,057
-506,985	-200,000	0,005	0,026
-505,970	-200,000	0,000	0,059
-504,956	-157,216	0,017	0,001
-503,941	-49,474	-0,042	-0,014
-502,926	-200,000	-0,018	0,083
-501,912	120,383	0,080	0,073
-500,897	253,339	-0,120	-0,149
-499,883	89,549	-0,041	-0,034
-498,868	-44,002	-0,094	-0,034
-497,853	-125,621	-0,054	0,006
-496,839	387,209	0,044	-0,066
-495,824	-130,595	-0,043	0,004
-494,810	215,435	0,089	0,104
-493,795	147,565	0,017	-0,017
-492,781	1,949	0,039	0,021
-491,766	34,342	-0,052	-0,033
-490,751	-100,289	-0,082	-0,015
-489,737	-200,000	-0,022	-0,150
-488,722	800,000	0,038	-0,079
-487,708	-128,549	0,097	0,010
-486,693	260,509	0,063	-0,080
-485,678	768,814	-0,041	0,082
-484,664	-12,097	0,054	0,026
-483,649	131,657	-0,102	-0,096
-482,635	780,509	-0,034	-0,067
-481,620	-153,743	0,087	0,004
-480,605	61,416	-0,090	0,066
-479,591	-31,980	-0,159	0,065
-478,576	201,354	0,149	0,168
-477,562	103,559	-0,152	0,131
-476,547	141,090	0,081	-0,078
-475,532	-89,166	0,071	-0,015
-474,518	-33,326	-0,037	-0,015
-473,503	0,954	0,080	-0,042
-472,489	568,520	-0,060	0,107
-471,474	-200,000	0,007	-0,132
-470,459	-67,162	-0,030	-0,009
-469,445	30,266	-0,085	0,053
-468,430	-200,000	0,004	0,017
-467,416	-69,892	-0,053	0,015
-466,401	235,080	0,076	-0,092
-465,386	800,000	0,094	0,244
-464,372	191,779	0,161	0,178
-463,357	72,163	-0,137	-0,104
-462,343	9,291	0,008	-0,005
-461,328	800,000	0,041	0,118
-460,313	800,000	-0,083	0,194
-459,299	181,982	0,112	-0,120
-458,284	472,212	0,068	-0,113
-457,270	-200,000	0,023	0,107
-456,255	204,592	-0,081	-0,092
-455,241	781,752	0,042	-0,085
-454,226	43,171	-0,113	0,075
-453,211	421,626	0,062	-0,098
-452,197	-109,361	0,215	0,033
-451,182	55,486	0,059	0,041
-450,168	800,000	-0,011	0,030
-449,153	-67,406	-0,065	0,019
-448,138	-200,000	-0,032	-0,108
-447,124	-125,567	0,154	0,017
-446,109	-200,000	0,015	0,087
-445,095	251,236	0,078	0,097
-444,080	266,659	-0,072	0,092
-443,065	492,568	-0,044	0,074
-442,051	800,000	-0,032	0,071
-441,036	-74,059	-0,100	0,026
-440,022	800,000	-0,021	-0,049
-439,007	215,830	0,125	-0,145
-437,992	104,708	0,078	0,067
-436,978	99,401	0,033	-0,027
-435,963	238,776	0,012	0,015
-434,949	-16,241	-0,103	0,048
-433,934	647,599	-0,034	0,064
-432,919	-200,000	-0,019	-0,112
-431,905	-200,000	-0,007	-0,094
-430,890	-200,000	-0,015	0,217
-429,876	171,960	-0,025	-0,026
-428,861	800,000	-0,020	0,046
-427,846	221,436	-0,072	0,084
-426,832	271,755	0,070	0,091
-425,817	426,318	0,043	-0,067
-424,803	-200,000	-0,011	0,054
-423,788	276,933	0,081	0,105
-422,773	48,672	-0,086	-0,059
-421,759	145,040	0,089	0,086
-420,744	800,000	-0,024	-0,056
-419,730	87,748	0,024	0,020
-418,715	-200,000	0,001	0,082
-417,701	-105,564	0,080	0,013
-416,686	391,691	-0,081	-0,123
-415,671	-71,152	-0,091	0,025
-414,657	269,919	-0,055	0,071
-413,642	-91,637	0,144	0,030
-412,628	34,360	-0,042	0,027
-411,613	-48,418	-0,087	-0,030
-410,598	800,000	-0,039	0,122
-409,584	68,092	0,126	-0,094
-408,569	-95,388	0,045	-0,009
-407,555	142,865	0,104	0,101
-406,540	-68,515	-0,128	0,036
-405,525	800,000	0,047	0,130
-404,511	800,000	0,016	0,048
-403,496	580,936	0,111	-0,199
-402,482	682,751	-0,021	0,040
-401,467	-92,660	0,103	-0,021
-400,452	-127,553	-0,049	-0,005
-399,438	-200,000	-0,004	-0,057
-398,423	-200,000	-0,005	-0,048
-397,409	800,000	0,089	-0,179
-396,394	182,553	-0,031	0,033
-395,379	451,055	-0,049	-0,079
-394,365	-89,763	0,173	-0,037
-393,350	47,828	-0,107	-0,073
-392,336	-79,691	-0,063	-0,015
-391,321	78,598	0,083	-0,065
-390,306	-90,878	0,129	-0,027
-389,292	-67,652	-0,054	0,015
-388,277	712,074	-0,047	0,091
-387,263	-155,594	0,038	-0,002
-386,248	-200,000	0,021	0,089
-385,233	514,355	0,066	0,113
-384,219	-200,000	0,017	0,210
-383,204	699,006	-0,041	0,079
-382,190	52,673	-0,125	0,086
-381,175	419,539	0,064	0,100
-380,160	800,000	0,022	-0,066
-379,146	542,665	-0,010	-0,018
-378,131	-114,360	-0,074	-0,010
-377,117	182,315	-0,063	0,068
-376,102	700,532	0,043	-0,082
-375,088	-0,663	0,072	-0,037
-374,073	-200,000	-0,004	-0,059
-373,058	-23,509	0,009	-0,004
-372,044	-98,318	0,157	-0,029
-371,029	714,208	0,052	0,101
-370,015	558,146	-0,032	-0,057
-369,000	164,123	-0,053	-0,054
-367,985	-104,304	-0,062	0,010
-366,971	316,701	-0,108	0,148
-365,956	-14,445	0,061	-0,028
-364,942	-200,000	-0,001	-0,083
-363,927	274,066	0,095	0,122
-362,912	-200,000	0,011	0,099
-361,898	-120,729	0,103	0,012
-360,883	296,535	-0,141	-0,189
-359,869	800,000	0,055	-0,111
-358,854	-69,154	-0,025	0,007
-357,839	-200,000	0,009	-0,119
-356,825	350,158	-0,064	-0,092
-355,810	800,000	-0,014	0,033
-354,796	-200,000	-0,007	-0,057
-353,781	8,135	-0,086	0,047
-352,766	-7,127	0,121	0,060
-351,752	-200,000	-0,024	-0,257
-350,737	449,141	0,025	0,040
-349,723	-26,941	0,186	0,078
-348,708	97,743	-0,065	-0,055
-347,693	-152,694	-0,090	0,005
-346,679	-40,952	-0,084	-0,031
-345,664	293,189	0,062	-0,082
-344,650	800,000	-0,021	-0,056
-343,635	800,000	-0,048	0,121
-342,620	-55,635	0,123	0,040
-341,606	230,852	0,069	-0,082
-340,591	739,008	-0,053	-0,105
-339,577	337,368	0,017	-0,024
-338,562	-2,959	-0,060	0,030
-337,548	265,269	0,066	-0,084
-336,533	-200,000	-0,003	0,036
-335,518	-100,577	-0,107	0,019
-334,504	539,632	-0,039	0,068
-333,489	-200,000	0,021	-0,090
-332,475	-125,774	-0,142	0,015
-331,460	800,000	0,030	-0,085
-330,445	94,474	0,163	0,134
-329,431	1,975	-0,212	-0,111
-328,416	-70,071	0,070	-0,019
-327,402	97,991	0,059	0,049
-326,387	-69,432	-0,052	0,014
-325,372	-173,448	0,098	0,002
-324,358	382,012	-0,058	-0,087
-323,343	-11,025	0,037	0,018
-322,329	86,374	0,031	-0,025
-321,314	-97,752	0,040	-0,007
-320,299	159,997	-0,037	0,037
-319,285	-200,000	-0,006	0,023
-318,270	38,350	-0,016	0,011
-317,256	98,057	-0,040	-0,033
-316,241	-200,000	-0,006	-0,025
-315,226	-74,852	0,116	0,030
-314,212	-104,849	-0,059	-0,010
-313,197	231,304	0,070	0,084
-312,183	349,696	-0,106	0,152
-311,168	-28,077	-0,124	-0,052
-310,153	-36,911	0,128	0,050
-309,139	-16,462	0,057	-0,026
-308,124	-36,062	-0,048	-0,019
-307,110	800,000	0,022	0,064
-306,095	-200,000	-0,034	-0,156
-305,080	0,250	0,096	0,049
-304,066	-200,000	-0,023	-0,107
-303,051	46,140	-0,152	-0,102
-302,037	341,308	0,078	0,111
-301,022	31,063	0,029	-0,018
-300,008	-80,497	0,110	-0,026
-298,993	-170,636	-0,187	-0,005
-297,978	225,355	-0,112	-0,131
-296,964	-38,606	-0,079	0,030
-295,949	-99,730	0,020	-0,004
-294,935	-94,497	0,032	0,006
-293,920	-98,753	-0,061	0,011
-292,905	-82,200	0,083	-0,019
-291,891	627,567	0,051	0,095
-290,876	-200,000	-0,015	0,095
-289,862	-31,083	-0,070	-0,028
-288,847	350,155	0,035	-0,050
-287,832	145,827	0,114	-0,111
-286,818	800,000	-0,036	-0,109
-285,803	248,668	-0,051	-0,063
-284,789	-79,032	-0,070	0,017
-283,774	-177,192	0,079	0,001
-282,759	789,430	-0,020	-0,041
-281,745	234,097	0,095	-0,113
-280,730	-200,000	-0,018	-0,063
-279,716	334,097	-0,025	0,035
-278,701	-200,000	0,019	-0,087
-277,686	-200,000	-0,003	-0,092
-276,672	-200,000	-0,012	0,050
-275,657	-200,000	-0,013	-0,155
-274,643	176,445	0,081	-0,086
-273,628	800,000	-0,042	-0,126
-272,613	-100,327	-0,126	0,023
-271,599	-200,000	0,023	0,083
-270,584	152,370	-0,059	0,058
-269,570	24,872	-0,110	0,066
-268,555	120,525	-0,003	-0,003
-267,540	717,358	-0,072	-0,140
-266,526	-105,997	0,038	-0,006
-265,511	-117,532	0,100	-0,013
-264,497	311,273	0,029	-0,039
-263,482	-200,000	-0,010	0,096
-262,467	359,400	0,075	0,109
-261,453	-114,713	-0,177	-0,024
-260,438	-200,000	-0,005	-0,082
-259,424	-200,000	-0,023	-0,102
-258,409	-140,025	-0,040	0,003
-257,395	0,738	0,060	0,031
-256,380	-200,000	-0,010	0,073
-255,365	98,381	0,085	0,071
-254,351	-154,039	-0,099	-0,005
-253,336	-101,152	-0,116	-0,020
-252,322	-43,903	-0,087	-0,032
-251,307	800,000	0,041	-0,103
-250,292	-4,207	0,094	-0,047
-249,278	-53,255	0,057	-0,019
-248,263	202,083	0,085	-0,095
-247,249	-130,171	-0,140	0,014
-246,234	-134,307	0,190	-0,017
-245,219	175,746	-0,028	0,029
-244,205	-124,645	0,084	0,009
-243,190	76,729	0,041	0,031
-242,176	261,390	0,027	-0,034
-241,161	-137,502	-0,051	0,004
-240,146	-200,000	-0,008	0,106
-239,132	630,260	-0,057	0,105
-238,117	-200,000	0,032	-0,211
-237,103	283,086	0,012	-0,016
-236,088	87,390	-0,016	0,013
-235,073	-81,518	0,170	0,040
-234,059	-200,000	0,003	0,081
-233,044	800,000	0,019	0,053
-232,030	126,302	0,058	0,053
-231,015	-200,000	-0,005	-0,119
-230,000	518,256	-0,037	-0,062
-228,986	-70,891	-0,111	-0,030
-227,971	82,172	0,083	-0,065
-226,957	-58,412	0,148	0,046
-225,942	256,778	-0,089	-0,111
-224,927	-108,656	-0,092	0,014
-223,913	60,281	-0,118	-0,084
-222,898	-200,000	-0,000	0,013
-221,884	22,083	0,140	0,082
-220,869	-19,842	0,116	0,052
-219,855	-145,784	0,096	-0,006
-218,840	740,898	-0,043	0,084
-217,825	-196,165	-0,121	-0,001
-216,811	417,246	-0,080	0,124
-215,796	800,000	-0,006	0,013
-214,782	255,901	-0,090	-0,111
-213,767	-147,700	0,017	0,001
-212,752	150,151	-0,022	0,022
-211,738	-99,853	0,073	0,013
-210,723	800,000	0,024	0,070
-209,709	-85,871	-0,112	-0,025
-208,694	59,906	-0,067	-0,048
-207,679	-80,466	0,094	0,023
-206,665	345,330	-0,036	0,052
-205,650	-200,000	0,004	0,067
-204,636	-116,772	0,192	-0,025
-203,621	-200,000	0,008	0,057
-202,606	313,868	0,046	-0,063
-201,592	39,144	0,064	-0,041
-200,577	-142,641	0,115	0,008
-199,563	-200,000	0,006	-0,024
-198,548	658,773	0,040	0,075
-197,533	800,000	0,019	0,047
-196,519	800,000	0,059	0,124
-195,504	66,532	0,078	-0,057
-194,490	376,091	0,054	-0,079
-193,475	295,272	-0,041	-0,054
-192,460	-92,741	0,055	-0,011
-191,446	420,211	-0,080	-0,124
-190,431	800,000	0,019	0,046
-189,417	-49,470	0,120	0,041
-188,402	313,910	0,033	0,045
-187,387	136,568	0,050	-0,047
-186,373	-73,558	-0,085	0,022
-185,358	-122,746	0,131	-0,015
-184,344	136,396	0,092	0,087
-183,329	800,000	-0,033	0,095
-182,315	131,540	-0,054	-0,050
-181,300	-153,512	-0,155	-0,008
-180,285	104,840	-0,104	-0,089
-179,271	98,846	0,064	-0,054
-178,256	800,000	0,045	-0,098
-177,242	177,604	-0,027	0,029
-176,227	-200,000	0,038	-0,153
-175,212	800,000	-0,017	0,038
-174,198	800,000	0,029	-0,064
-173,183	422,484	0,024	0,038
-172,169	-17,543	0,050	0,023
-171,154	-37,601	-0,008	0,003
-170,139	-122,358	0,133	-0,015
-169,125	-126,778	0,059	0,006
-168,110	-200,000	0,043	-0,172
-167,096	-200,000	0,022	-0,147
-166,081	-107,126	-0,080	-0,013
-165,066	159,824	-0,045	0,045
-164,052	434,934	-0,044	-0,070
-163,037	102,509	-0,072	0,061
-162,023	450,464	-0,052	0,083
-161,008	-200,000	0,013	0,096
-159,993	800,000	0,011	0,034
-158,979	-61,220	-0,140	0,042
-157,964	27,903	-0,073	0,044
-156,950	800,000	-0,061	-0,127
-155,935	-200,000	-0,013	0,121
-154,920	24,107	0,102	-0,061
-153,906	-4,852	0,083	-0,041
-152,891	-114,076	0,082	-0,011
-151,877	6,675	-0,108	-0,058
-150,862	-200,000	0,029	-0,210
-149,847	-77,070	-0,103	-0,026
-148,833	11,230	0,129	0,071
-147,818	156,171	-0,018	0,018
-146,804	-200,000	0,014	0,059
-145,789	56,213	0,034	0,023
-144,775	431,698	0,081	-0,127
-143,760	264,315	-0,076	-0,095
-142,745	37,425	-0,095	-0,061
-141,731	-200,000	0,016	-0,058
-140,716	46,354	0,131	-0,088
-139,702	-200,000	-0,021	0,077
-138,687	246,315	0,020	0,024
-137,672	27,308	0,133	-0,080
-136,658	800,000	-0,033	0,092
-135,643	109,417	0,059	0,051
-134,629	135,987	0,004	-0,004
-133,614	-200,000	-0,015	0,079
-132,599	717,374	0,050	0,096
-131,585	215,734	-0,093	0,107
-130,570	800,000	0,036	-0,087
-129,556	80,116	-0,061	0,047
-128,541	-30,547	0,029	-0,012
-127,526	-134,674	0,060	0,005
-126,512	-200,000	-0,006	0,102
-125,497	-200,000	-0,002	0,074
-124,483	-200,000	0,000	0,015
-123,468	710,730	-0,031	-0,059
-122,453	109,153	-0,034	-0,029
-121,439	-154,839	-0,074	0,003
-120,424	-96,507	0,089	-0,017
-119,410	-80,989	0,054	0,013
-118,395	140,353	-0,050	0,047
-117,380	283,049	0,065	-0,085
-116,366	172,751	-0,049	-0,051
-115,351	-200,000	-0,031	-0,141
-114,337	-200,000	-0,005	-0,167
-113,322	87,278	0,084	0,067
-112,307	313,512	0,021	0,029
-111,293	-85,417	0,074	-0,016
-110,278	568,129	0,027	-0,048
-109,264	800,000	0,038	0,117
-108,249	-200,000	0,012	0,041
-107,234	-19,601	-0,115	0,051
-106,220	193,232	0,040	-0,044
-105,205	800,000	0,028	-0,068
-104,191	-51,805	0,050	0,017
-103,176	-154,544	0,199	-0,009
-102,162	88,301	-0,166	0,133
-101,147	-200,000	-0,004	0,015
-100,132	-200,000	-0,004	-0,016
-99,118	629,134	-0,026	-0,047
-98,103	16,103	-0,114	0,065
-97,089	596,752	0,089	-0,159
-96,074	346,856	0,025	0,035
-95,059	112,760	-0,100	0,087
-94,045	-200,000	0,009	-0,086
-93,030	-200,000	-0,009	-0,066
-92,016	265,104	-0,047	0,059
-91,001	-113,239	-0,055	0,008
-89,986	117,181	0,089	0,078
-88,972	100,120	-0,067	0,056
-87,957	103,339	-0,075	-0,063
-86,943	344,828	0,040	-0,057
-85,928	-200,000	-0,016	-0,107
-84,913	-59,576	0,111	-0,034
-83,899	217,384	0,055	0,063
-82,884	800,000	-0,048	-0,136
-81,870	800,000	-0,040	0,117
-80,855	168,624	-0,068	0,070
-79,840	220,766	0,052	-0,060
-78,826	315,702	-0,066	-0,090
-77,811	800,000	-0,040	0,084
-76,797	-147,811	-0,060	0,004
-75,782	800,000	-0,010	0,023
-74,767	800,000	0,062	0,147
-73,753	120,028	0,069	0,062
-72,738	800,000	-0,041	-0,113
-71,724	-39,320	0,048	-0,018
-70,709	51,044	0,050	0,034
-69,694	94,601	-0,043	0,035
-68,680	-159,171	0,065	-0,003
-67,665	800,000	0,036	0,074
-66,651	157,710	0,065	0,065
-65,636	226,721	0,068	0,080
-64,622	199,576	-0,015	0,016
-63,607	-56,891	-0,169	-0,053
-62,592	800,000	-0,027	0,069
-61,578	-58,487	-0,046	-0,014
-60,563	-102,943	0,091	0,015
-59,549	13,857	-0,060	-0,034
-58,534	61,064	-2,477	-1,765
-57,519	306,960	0,261	-0,350
-56,505	-200,000	-1,557	-5,371
-55,490	276,795	1,101	1,409
-54,476	800,000	5,348	11,754
-53,461	-200,000	21,422	337,238
-52,446	800,000	763,107	2314,780
-51,432	518,599	1662,759	2807,067
-50,417	106,594	1628,705	1387,291
-49,403	76,297	1280,676	973,307
-48,388	26,781	1025,578	615,658
-47,373	19,076	990,726	569,181
-46,359	14,055	978,330	545,500
-45,344	10,227	975,029	531,020
-44,330	10,633	972,952	531,204
-43,315	9,734	970,833	527,073
-42,300	9,655	969,713	526,186
-41,286	9,680	968,617	525,651
-40,271	9,676	967,815	525,182
-39,257	9,691	966,881	524,704
-38,242	9,658	965,995	524,093
-37,227	9,606	965,217	523,482
-36,213	9,546	964,544	522,898
-35,198	9,580	963,702	522,533
-34,184	9,654	962,665	522,192
-33,169	9,640	961,822	521,667
-32,154	9,715	960,801	521,339
-31,140	9,647	960,040	520,683
-30,125	9,667	959,327	520,341
-29,111	9,652	958,300	519,714
-28,096	9,694	957,918	519,623
-27,082	9,743	957,025	519,275
-26,067	9,671	956,440	518,706
-25,052	9,623	955,706	518,130
-24,038	9,647	954,868	517,734
-23,023	9,581	954,264	517,172
-22,009	9,706	953,762	517,283
-20,994	9,676	953,202	516,864
-19,979	9,694	952,455	516,495
-18,965	9,650	951,839	515,997
-17,950	9,673	951,279	515,748
-16,936	9,671	950,615	515,360
-15,921	9,621	949,902	514,795
-14,906	9,576	949,185	514,239
-13,892	9,598	948,463	513,901
-12,877	9,503	947,796	513,215
-11,863	9,548	947,305	513,070
-10,848	9,570	946,679	512,781
-9,833	9,586	946,295	512,604
-8,819	9,570	945,450	512,077
-7,804	9,537	944,866	511,634
-6,790	9,494	944,422	511,235
-5,775	9,608	943,764	511,223
-4,760	9,617	943,120	510,882
-3,746	9,550	942,516	510,320
-2,731	9,406	941,836	509,475
-1,717	9,416	941,195	509,140
-0,702	9,435	940,583	508,847
0,313	9,275	939,831	508,699
1,327	12,723	937,726	518,451
2,342	21,410	787,028	458,088
3,356	16,490	453,050	256,191
4,371	-10,297	314,815	149,333
5,386	-14,218	297,094	136,920
6,400	-16,187	290,942	132,107
7,415	-16,309	288,422	130,830
8,429	-16,706	286,620	129,610
9,444	-16,883	285,790	129,050
10,459	-16,512	285,072	129,077
11,473	-16,752	284,400	128,527
12,488	-16,728	283,936	128,329
13,502	-16,569	283,552	128,299
14,517	-16,582	283,147	128,092
15,531	-16,484	282,697	127,972
16,546	-16,334	282,435	127,987
17,561	-16,358	282,034	127,771
18,575	-16,344	281,728	127,634
19,590	-16,498	281,310	127,285
20,604	-16,128	281,003	127,491
21,619	-16,195	280,631	127,246
22,634	-16,192	280,295	127,086
23,648	-16,458	280,085	126,723
24,663	-16,428	279,809	126,617
25,677	-16,408	279,460	126,467
26,692	-16,387	279,324	126,414
27,707	-16,404	279,101	126,286
28,721	-16,241	278,720	126,257
29,736	-16,220	278,380	126,112
30,750	-16,374	278,130	125,840
31,765	-16,295	277,984	125,838
32,780	-16,216	277,730	125,787
33,794	-16,158	277,418	125,690
34,809	-16,085	277,020	125,568
35,823	-16,218	276,896	125,374
36,838	-16,210	276,610	125,241
37,853	-16,304	276,314	125,007
38,867	-16,233	276,094	124,964
39,882	-16,092	275,885	124,990
40,896	-16,112	275,552	124,810
41,911	-16,365	275,455	124,517
42,926	-16,092	275,003	124,558
43,940	-16,272	274,889	124,326
44,955	-16,291	274,688	124,206
45,969	-16,163	274,345	124,161
46,984	-16,290	274,321	124,019
47,999	-16,216	274,121	123,987
49,013	-16,020	273,792	124,010
50,028	-16,126	273,741	123,877
51,042	-16,063	273,416	123,778
52,057	-16,206	273,090	123,486
53,071	-16,261	272,980	123,374
54,086	-16,038	272,604	123,401
55,101	-16,176	272,454	123,193
56,115	-16,236	272,119	122,975
57,130	-16,183	271,831	122,883
58,144	-16,270	271,724	122,743
59,159	-16,195	271,537	122,717
60,174	-16,176	271,097	122,525
61,188	-16,265	270,975	122,376
62,203	-16,226	270,810	122,327
63,217	-16,383	270,526	122,042
64,232	-16,323	270,376	122,019
65,247	-16,228	269,929	121,894
66,261	-16,192	269,764	121,842
67,276	-16,150	269,634	121,811
68,290	-16,127	269,345	121,691
69,305	-16,064	269,220	121,682
70,320	-16,221	268,975	121,416
71,334	-16,294	268,792	121,256
72,349	-16,165	268,528	121,244
73,363	-16,359	268,322	120,962
74,378	-16,290	267,935	120,840
75,393	-16,332	267,710	120,689
76,407	-16,207	267,592	120,740
77,422	-16,172	267,260	120,612
78,436	-16,239	267,107	120,470
79,451	-16,186	266,869	120,401
80,466	-16,236	266,674	120,257
81,480	-16,296	266,482	120,105
82,495	-16,124	266,427	120,225
83,509	-16,134	266,090	120,053
84,524	-16,218	265,964	119,910
85,539	-16,016	265,755	119,988
86,553	-16,012	265,359	119,802
87,568	-16,205	265,256	119,570
88,582	-16,316	265,081	119,380
89,597	-16,265	264,808	119,293
90,611	-16,262	264,625	119,203
91,626	-16,152	264,500	119,235
92,641	-16,182	264,189	119,056
93,655	-16,240	263,993	118,905
94,670	-16,242	263,801	118,807
95,684	-16,181	263,493	118,712
96,699	-16,101	263,305	118,689
97,714	-16,041	263,020	118,604
98,728	-16,136	262,961	118,481
99,743	-16,179	262,873	118,393
100,757	-16,096	262,593	118,330
101,772	-15,985	262,250	118,264
102,787	-16,084	262,035	118,068
103,801	-16,255	261,815	117,807
104,816	-16,112	261,746	117,893
105,830	-16,131	261,502	117,755
106,845	-16,306	261,314	117,504
107,860	-16,076	261,050	117,579
108,874	-16,124	260,865	117,443
109,889	-16,190	260,610	117,259
110,903	-16,193	260,351	117,129
111,918	-16,308	260,292	116,990
112,933	-16,189	260,118	117,007
113,947	-16,288	259,971	116,843
114,962	-16,270	259,697	116,725
115,976	-16,206	259,421	116,647
116,991	-16,205	259,300	116,584
118,006	-16,134	259,057	116,527
119,020	-15,978	258,802	116,539
120,035	-16,334	258,810	116,218
121,049	-16,321	258,672	116,157
122,064	-16,262	258,454	116,101
123,079	-16,367	258,213	115,891
124,093	-16,196	257,968	115,920
125,108	-16,197	257,712	115,794
126,122	-16,041	257,530	115,838
127,137	-15,937	257,400	115,860
128,151	-15,951	257,191	115,743
129,166	-15,975	256,955	115,606
130,181	-16,070	256,714	115,405
131,195	-16,142	256,566	115,265
132,210	-16,128	256,240	115,120
133,224	-16,201	256,028	114,952
134,239	-16,144	255,870	114,920
135,254	-16,085	255,673	114,872
136,268	-16,238	255,588	114,691
137,283	-16,275	255,512	114,615
138,297	-16,174	255,204	114,554
139,312	-16,143	255,082	114,516
140,327	-16,298	254,871	114,276
141,341	-16,164	254,399	114,171
142,356	-16,400	254,426	113,969
143,370	-16,267	254,099	113,927
144,385	-15,952	253,955	114,123
145,400	-16,090	253,752	113,903
146,414	-16,127	253,540	113,767
147,429	-16,094	253,309	113,681
148,443	-16,108	253,189	113,604
149,458	-16,142	253,082	113,517
150,473	-16,270	252,873	113,303
151,487	-16,202	252,634	113,245
152,502	-16,184	252,378	113,135
153,516	-16,237	252,375	113,078
154,531	-16,150	252,018	112,982
155,546	-16,136	251,847	112,908
156,560	-15,867	251,516	112,978
157,575	-16,320	251,418	112,539
158,589	-16,133	251,207	112,594
159,604	-16,087	251,201	112,620
160,619	-15,959	250,837	112,556
161,633	-16,030	250,830	112,482
162,648	-16,094	250,602	112,315
163,662	-16,031	250,385	112,262
164,677	-16,121	250,246	112,113
165,692	-16,086	250,058	112,048
166,706	-16,180	249,832	111,857
167,721	-16,085	249,630	111,838
168,735	-16,199	249,470	111,659
169,750	-16,228	249,364	111,577
170,764	-16,225	249,426	111,598
171,779	-16,078	249,022	111,531
172,794	-16,172	249,004	111,434
173,808	-16,267	248,710	111,212
174,823	-16,082	248,461	111,247
175,837	-16,039	248,355	111,225
176,852	-16,091	248,257	111,128
177,867	-16,061	248,135	111,089
178,881	-16,031	247,889	110,994
179,896	-16,149	247,697	110,799
180,910	-16,063	247,501	110,773
181,925	-16,123	247,177	110,568
182,940	-16,140	247,051	110,488
183,954	-16,212	246,912	110,356
184,969	-16,103	246,837	110,403
185,983	-15,937	246,638	110,443
186,998	-16,181	246,342	110,097
188,013	-16,011	246,221	110,175
189,027	-16,086	245,978	109,994
190,042	-16,249	245,855	109,794
191,056	-16,360	245,680	109,614
192,071	-16,204	245,354	109,588
193,086	-16,240	245,172	109,468
194,100	-16,304	245,233	109,432
195,115	-16,164	245,014	109,440
196,129	-16,008	244,651	109,397
197,144	-16,306	244,494	109,071
198,159	-16,254	244,404	109,064
199,173	-16,203	244,295	109,048
200,188	-16,215	244,000	108,897
201,202	-16,140	243,732	108,829
202,217	-15,991	243,708	108,931
203,232	-16,116	243,464	108,709
204,246	-16,286	243,399	108,531
205,261	-17,004	242,875	107,700
206,275	-15,674	243,244	108,945
207,290	-11,057	244,934	113,502
208,304	-4,499	246,988	119,891
209,319	-0,955	248,000	123,319
210,334	0,076	248,274	124,301
211,348	0,903	248,303	124,992
212,363	1,511	248,367	125,518
213,377	1,932	248,315	125,831
214,392	2,125	248,285	125,964
215,407	2,201	248,099	125,922
216,421	2,288	248,039	125,952
217,436	2,522	247,924	126,076
218,450	2,498	247,707	125,935
219,465	2,252	247,512	125,621
220,480	2,245	247,286	125,490
221,494	2,002	247,214	125,241
222,509	1,480	246,722	124,551
223,523	1,454	246,651	124,482
224,538	1,337	246,390	124,243
225,553	1,196	246,168	124,004
226,567	1,161	246,044	123,901
227,582	1,261	245,902	123,901
228,596	1,021	245,656	123,569
229,611	1,214	245,480	123,628
230,626	1,214	245,332	123,542
231,640	1,125	245,196	123,390
232,655	1,115	245,019	123,282
233,669	1,255	244,802	123,276
234,684	1,108	244,677	123,082
235,699	1,244	244,536	123,111
236,713	1,241	244,399	123,029
237,728	1,099	244,277	122,840
238,742	1,424	244,169	123,040
239,757	1,159	243,928	122,692
240,772	1,220	243,727	122,629
241,786	1,351	243,602	122,662
242,801	1,138	243,455	122,404
243,815	1,265	243,309	122,423
244,830	1,326	242,977	122,294
245,844	1,453	242,849	122,322
246,859	1,311	242,658	122,100
247,874	1,265	242,661	122,053
248,888	1,329	242,504	122,016
249,903	1,353	242,381	121,962
250,917	1,353	242,209	121,864
251,932	1,418	242,165	121,884
252,947	1,675	241,710	121,851
253,961	1,201	241,687	121,447
254,976	1,315	241,583	121,475
255,990	1,411	241,363	121,431
257,005	1,221	241,322	121,246
258,020	1,218	241,073	121,109
259,034	1,352	240,974	121,155
260,049	1,333	240,639	120,961
261,063	1,232	240,665	120,883
262,078	1,314	240,471	120,840
263,093	1,303	240,284	120,726
264,107	1,279	240,098	120,603
265,122	1,133	239,995	120,424
266,136	1,139	239,837	120,338
267,151	1,133	239,850	120,330
268,166	1,236	239,543	120,247
269,180	1,250	239,268	120,109
270,195	1,361	239,161	120,134
271,209	1,261	239,048	119,986
272,224	1,261	238,933	119,918
273,239	1,229	238,782	119,806
274,253	1,232	238,510	119,662
275,268	1,388	238,479	119,759
276,282	1,308	238,214	119,551
277,297	1,342	238,117	119,519
278,312	1,217	237,933	119,317
279,326	1,232	237,867	119,285
280,341	1,407	237,708	119,333
281,355	1,176	237,544	119,058
282,370	1,142	237,365	118,931
283,384	1,194	237,254	118,906
284,399	1,167	237,079	118,786
285,414	1,351	236,826	118,793
286,428	1,244	236,712	118,642
287,443	1,282	236,567	118,588
288,457	1,491	236,542	118,730
289,472	1,364	236,310	118,502
290,487	1,329	236,065	118,341
291,501	1,184	236,056	118,213
292,516	1,201	235,902	118,138
293,530	1,456	235,831	118,292
294,545	1,464	235,545	118,145
295,560	1,251	235,543	117,967
296,574	1,585	235,275	118,082
297,589	1,305	235,081	117,756
298,603	1,481	234,959	117,821
299,618	1,289	234,802	117,583
300,633	1,526	234,560	117,636
301,647	1,569	234,556	117,656
302,662	1,471	234,398	117,490
303,676	1,605	234,200	117,485
304,691	1,498	234,177	117,380
305,706	1,515	233,953	117,270
306,720	1,512	233,695	117,128
307,735	1,538	233,708	117,144
308,749	1,579	233,490	117,057
309,764	1,320	233,261	116,731
310,779	1,212	233,299	116,656
311,793	1,384	233,088	116,673
312,808	1,541	232,802	116,641
313,822	1,511	232,692	116,552
314,837	1,792	232,557	116,690
315,852	1,360	232,474	116,305
316,866	1,758	232,238	116,483
317,881	1,581	232,115	116,275
318,895	1,586	231,994	116,208
319,910	1,503	231,923	116,098
320,925	1,302	231,777	115,860
321,939	1,328	231,505	115,734
322,954	1,534	231,349	115,804
323,968	1,523	231,194	115,708
324,983	1,503	231,141	115,655
325,997	1,495	230,941	115,538
327,012	1,465	230,809	115,439
328,027	1,567	230,591	115,398
329,041	1,443	230,588	115,292
330,056	1,487	230,285	115,163
331,070	1,529	230,264	115,174
332,085	1,564	230,090	115,104
333,100	1,410	230,022	114,942
334,114	1,352	229,737	114,745
335,129	1,493	229,516	114,732
336,143	1,404	229,303	114,548
337,158	1,531	229,368	114,667
338,173	1,726	229,148	114,694
339,187	1,530	229,170	114,546
340,202	1,522	228,972	114,431
341,216	1,715	228,722	114,442
342,231	1,540	228,674	114,275
343,246	1,423	228,479	114,080
344,260	1,675	228,259	114,149
345,275	1,623	228,273	114,107
346,289	1,518	228,096	113,930
347,304	1,580	227,952	113,894
348,319	1,393	227,769	113,651
349,333	1,480	227,619	113,632
350,348	1,428	227,497	113,522
351,362	1,586	227,304	113,534
352,377	1,644	227,160	113,495
353,392	1,513	227,177	113,396
354,406	1,688	226,732	113,295
355,421	192,078	1314,402	1381,020
356,435	153,880	1446,820	1380,904
