DTS Sentinel unit serial number:	SN410029Multiplexer serial number:	ORYXHardware model number:	OX2-SRSoftware version number:	ORYX F/W v4,00 Oryx Data Collector v3.7.2.0data status	okinstallation	B5 Nyhavnadifferential loss correction	single-endedforward channel	channel 2reverse channel	N/Adate	2023/12/14time	11:02:13forward acquisition time	300,00reverse acquisition time	0,00gamma	499,1914k internal	0,3161k external	0,3161temperature offset calibration	1,0000default loss term (dB/km)	0,3820temperature slope calibration	1,0000multiplexer offset coefficient	1,0000multiplexer slope coefficient	1,0000fibre end	0,00T internal ref (°C)	7,18T ext. ref 1 (°C)	-8,12T ext. ref 2 (°C)	-8,15length (m)	temperature (°C)	Stokes	anti-Stokes-744,400	-135,907	0,316	0,027
-743,385	-23,315	-0,423	-0,187
-742,371	-6,047	0,119	-0,060
-741,356	-108,118	-0,415	0,066
-740,342	-200,000	0,077	0,263
-739,327	-200,000	-0,249	0,000
-738,312	241,516	0,105	0,129
-737,298	-69,338	-0,481	-0,135
-736,283	203,252	0,129	0,147
-735,269	-31,463	-0,408	-0,168
-734,254	462,200	0,089	0,147
-733,239	-28,908	-0,598	-0,252
-732,225	-64,667	0,269	-0,080
-731,210	-79,043	-0,078	0,019
-730,196	-113,470	0,055	0,008
-729,181	27,339	-0,096	-0,059
-728,167	-114,302	0,071	0,010
-727,152	-16,376	-0,097	-0,045
-726,137	503,907	-0,045	0,077
-725,123	-183,036	-0,175	-0,002
-724,108	171,511	-0,101	-0,106
-723,094	92,822	-0,099	-0,082
-722,079	-200,000	-0,014	-0,051
-721,064	403,445	0,090	-0,140
-720,050	-200,000	0,001	0,047
-719,035	28,546	0,103	0,064
-718,021	-114,721	-0,186	-0,026
-717,006	138,960	-0,108	0,105
-715,991	-149,343	-0,052	0,003
-714,977	16,389	-0,066	0,038
-713,962	-200,000	0,000	0,007
-712,948	800,000	0,015	-0,040
-711,933	-179,397	-0,115	0,002
-710,918	176,567	0,038	-0,040
-709,904	-200,000	0,017	-0,138
-708,889	337,859	0,026	-0,037
-707,875	-200,000	-0,011	-0,145
-706,860	-8,136	0,093	0,046
-705,845	800,000	-0,054	0,145
-704,831	-200,000	-0,002	0,017
-703,816	-22,160	0,071	0,031
-702,802	800,000	0,016	-0,039
-701,787	-152,053	-0,052	-0,003
-700,772	-184,239	0,103	0,001
-699,758	800,000	0,007	0,020
-698,743	-22,364	-0,073	-0,032
-697,729	-75,073	0,093	-0,024
-696,714	800,000	-0,019	0,057
-695,699	56,004	-0,110	0,079
-694,685	-200,000	-0,021	-0,122
-693,670	-55,008	0,122	-0,040
-692,656	-200,000	-0,008	0,077
-691,641	145,138	0,065	0,064
-690,627	800,000	0,032	0,074
-689,612	-46,283	-0,084	0,030
-688,597	133,249	0,021	-0,020
-687,583	800,000	-0,050	-0,112
-686,568	-200,000	-0,014	-0,139
-685,554	-79,594	-0,117	-0,029
-684,539	-93,345	0,032	0,006
-683,524	-163,730	0,055	-0,002
-682,510	-116,485	-0,075	-0,010
-681,495	-27,542	-0,099	-0,042
-680,481	-29,143	-0,086	-0,036
-679,466	99,517	-0,018	-0,015
-678,451	22,087	0,104	-0,062
-677,437	371,593	-0,027	0,040
-676,422	-200,000	0,012	0,056
-675,408	-108,738	-0,115	-0,018
-674,393	-43,059	0,120	-0,044
-673,378	132,170	-0,041	-0,039
-672,364	151,130	-0,031	-0,031
-671,349	-200,000	0,007	-0,072
-670,335	164,200	0,113	-0,117
-669,320	-75,796	-0,129	0,033
-668,305	-200,000	-0,023	0,102
-667,291	443,901	0,015	0,025
-666,276	-96,051	-0,065	0,013
-665,262	800,000	-0,016	-0,041
-664,247	-200,000	-0,006	-0,104
-663,232	-200,000	-0,005	0,024
-662,218	-200,000	0,023	-0,152
-661,203	145,730	-0,108	-0,106
-660,189	77,800	0,067	-0,052
-659,174	-81,425	-0,121	0,029
-658,159	800,000	-0,037	0,084
-657,145	124,197	0,081	0,074
-656,130	-200,000	-0,006	0,029
-655,116	259,508	0,079	-0,101
-654,101	-132,810	0,061	0,006
-653,086	-107,131	-0,117	0,019
-652,072	-64,749	-0,146	0,043
-651,057	800,000	-0,030	-0,093
-650,043	-75,849	-0,094	-0,024
-649,028	-200,000	-0,005	0,030
-648,014	-200,000	0,012	0,125
-646,999	250,199	0,154	0,192
-645,984	-104,162	-0,103	0,017
-644,970	-200,000	0,014	0,052
-643,955	-89,905	-0,148	-0,032
-642,941	39,421	-0,086	-0,057
-641,926	800,000	-0,044	0,121
-640,911	10,007	0,027	0,015
-639,897	328,420	-0,012	0,017
-638,882	-86,230	-0,009	-0,002
-637,868	800,000	0,006	-0,016
-636,853	-145,526	-0,135	-0,009
-635,838	-30,894	0,088	-0,036
-634,824	-53,974	-0,142	-0,047
-633,809	126,205	-0,104	0,096
-632,795	-1,153	-0,025	-0,013
-631,780	84,381	0,045	0,036
-630,765	88,209	0,110	0,089
-629,751	460,746	-0,093	-0,152
-628,736	-38,357	-0,082	-0,032
-627,722	34,590	-0,049	-0,031
-626,707	-30,146	0,105	0,044
-625,692	-200,000	0,012	0,041
-624,678	215,623	-0,027	0,031
-623,663	-200,000	-0,010	0,057
-622,649	-59,466	-0,231	-0,072
-621,634	-200,000	0,001	-0,067
-620,619	320,435	-0,049	0,068
-619,605	800,000	-0,017	0,050
-618,590	332,997	0,050	0,071
-617,576	226,332	-0,057	0,068
-616,561	225,285	-0,080	0,095
-615,546	-110,022	-0,094	0,014
-614,532	442,134	0,035	-0,056
-613,517	800,000	-0,058	-0,131
-612,503	163,779	0,035	0,036
-611,488	450,151	0,032	-0,052
-610,474	663,633	0,068	0,130
-609,459	182,446	-0,013	0,014
-608,444	800,000	0,052	0,112
-607,430	800,000	0,028	0,090
-606,415	-200,000	0,008	0,091
-605,401	-187,575	0,106	0,001
-604,386	51,254	-0,042	-0,029
-603,371	480,153	0,022	0,038
-602,357	-200,000	-0,008	-0,105
-601,342	-200,000	-0,006	-0,179
-600,328	800,000	-0,019	-0,043
-599,313	-200,000	-0,017	0,074
-598,298	-200,000	0,002	0,063
-597,284	747,601	0,107	-0,212
-596,269	246,153	-0,022	0,027
-595,255	43,384	0,046	-0,031
-594,240	61,977	0,120	-0,088
-593,225	-9,621	-0,108	0,053
-592,211	-200,000	-0,015	-0,059
-591,196	62,953	0,041	-0,030
-590,182	-200,000	0,011	0,138
-589,167	-142,054	-0,115	0,008
-588,152	-200,000	-0,036	-0,145
-587,138	-157,492	-0,086	0,004
-586,123	-200,000	-0,026	-0,159
-585,109	-104,637	0,049	-0,008
-584,094	-200,000	-0,004	0,105
-583,079	-200,000	0,007	0,157
-582,065	88,059	0,085	-0,069
-581,050	3,522	0,048	0,025
-580,036	-200,000	0,003	0,037
-579,021	433,385	-0,068	-0,109
-578,006	488,657	-0,049	-0,083
-576,992	-4,116	-0,069	-0,035
-575,977	127,574	0,082	0,077
-574,963	-200,000	-0,029	0,131
-573,948	795,319	-0,029	0,058
-572,934	-200,000	0,033	0,130
-571,919	-174,802	-0,133	0,003
-570,904	51,486	-0,149	-0,103
-569,890	-200,000	-0,011	-0,085
-568,875	-17,444	-0,062	0,028
-567,861	-200,000	-0,010	-0,041
-566,846	228,374	-0,030	-0,036
-565,831	658,792	-0,042	0,079
-564,817	-130,417	0,194	0,019
-563,802	100,320	-0,092	-0,078
-562,788	224,270	-0,075	0,089
-561,773	-58,012	0,074	0,023
-560,758	-200,000	0,011	0,083
-559,744	19,535	0,076	0,045
-558,729	-200,000	-0,016	0,138
-557,715	151,807	-0,185	-0,185
-556,700	-200,000	-0,028	-0,126
-555,685	-47,141	0,093	-0,033
-554,671	-200,000	-0,003	0,059
-553,656	50,458	0,059	-0,041
-552,642	-74,710	0,074	0,019
-551,627	158,500	-0,074	-0,075
-550,612	8,061	-0,054	0,029
-549,598	-159,670	0,101	-0,004
-548,583	74,118	-0,022	0,017
-547,569	-81,566	0,088	-0,021
-546,554	494,030	-0,062	0,104
-545,539	30,773	-0,012	0,007
-544,525	-73,873	-0,126	0,033
-543,510	-46,757	-0,093	-0,033
-542,496	-96,625	-0,111	-0,021
-541,481	-200,000	0,004	-0,129
-540,466	346,197	0,066	0,096
-539,452	-200,000	0,007	0,032
-538,437	67,676	-0,072	-0,054
-537,423	-53,244	-0,036	-0,012
-536,408	-36,934	-0,041	0,016
-535,393	-154,810	-0,066	0,003
-534,379	-200,000	0,000	0,099
-533,364	193,746	-0,073	0,080
-532,350	130,702	0,086	0,080
-531,335	144,770	0,190	0,185
-530,321	-127,732	-0,178	-0,019
-529,306	20,984	0,024	-0,014
-528,291	-73,249	-0,091	0,024
-527,277	-200,000	0,004	-0,061
-526,262	-200,000	0,036	-0,136
-525,248	375,120	-0,040	0,060
-524,233	-9,828	0,137	-0,066
-523,218	245,205	-0,076	0,093
-522,204	-51,567	0,055	0,019
-521,189	-165,157	0,081	0,003
-520,175	-110,265	0,074	0,011
-519,160	-200,000	0,014	-0,223
-518,145	1,606	-0,096	0,050
-517,131	199,403	-0,043	-0,048
-516,116	81,825	-0,154	0,122
-515,102	-200,000	0,027	0,114
-514,087	800,000	0,057	0,139
-513,072	-200,000	-0,021	-0,106
-512,058	594,716	-0,041	-0,074
-511,043	-145,279	0,067	-0,004
-510,029	479,597	0,018	-0,030
-509,014	43,852	-0,022	-0,014
-507,999	-151,630	-0,115	0,006
-506,985	800,000	-0,016	0,051
-505,970	71,773	-0,132	-0,100
-504,956	-67,918	0,037	-0,010
-503,941	-102,028	-0,134	-0,023
-502,926	-200,000	-0,001	-0,040
-501,912	-200,000	0,014	0,080
-500,897	53,157	-0,063	-0,044
-499,883	-34,105	0,072	-0,029
-498,868	1,682	-0,061	0,032
-497,853	59,702	-0,085	-0,061
-496,839	320,129	0,038	0,052
-495,824	-200,000	0,012	-0,134
-494,810	416,032	0,055	-0,086
-493,795	393,664	0,034	0,052
-492,781	-156,918	-0,105	0,005
-491,766	800,000	0,065	-0,193
-490,751	-200,000	0,020	-0,104
-489,737	91,818	0,073	0,060
-488,722	800,000	0,033	0,071
-487,708	-172,775	-0,105	-0,002
-486,693	-200,000	-0,029	0,104
-485,678	49,407	0,073	0,050
-484,664	800,000	-0,051	-0,115
-483,649	147,007	0,035	0,034
-482,635	46,285	-0,051	0,034
-481,620	800,000	0,025	-0,062
-480,605	-28,751	-0,029	0,012
-479,591	-200,000	0,004	-0,043
-478,576	-93,602	-0,039	-0,008
-477,562	800,000	0,074	0,228
-476,547	-200,000	0,015	-0,099
-475,532	-68,870	-0,049	0,014
-474,518	107,605	0,063	0,055
-473,503	-88,408	-0,077	0,017
-472,489	184,700	0,024	0,026
-471,474	66,759	-0,099	-0,073
-470,459	147,227	0,061	0,060
-469,445	43,741	-0,058	-0,039
-468,430	615,311	-0,041	-0,075
-467,416	-181,504	0,111	0,002
-466,401	-200,000	0,013	-0,048
-465,386	25,008	0,105	-0,064
-464,372	-98,579	0,083	-0,015
-463,357	-98,154	-0,100	0,018
-462,343	-200,000	-0,043	-0,146
-461,328	800,000	0,038	-0,106
-460,313	-141,603	-0,120	-0,009
-459,299	-131,766	0,089	0,008
-458,284	76,484	0,112	0,087
-457,270	300,446	0,020	0,027
-456,255	321,708	-0,033	-0,046
-455,241	31,081	-0,053	-0,033
-454,226	-200,000	-0,005	-0,041
-453,211	21,450	0,098	-0,058
-452,197	-200,000	0,029	-0,102
-451,182	277,192	0,050	0,065
-450,168	175,954	0,009	-0,009
-449,153	17,479	-0,043	0,025
-448,138	-92,956	-0,083	-0,017
-447,124	-40,616	-0,113	0,042
-446,109	-200,000	-0,023	-0,088
-445,095	335,141	0,038	0,054
-444,080	382,653	0,085	0,128
-443,065	-109,773	-0,177	0,027
-442,051	441,326	0,090	-0,144
-441,036	11,431	0,060	-0,033
-440,022	-150,965	-0,028	0,001
-439,007	-200,000	0,000	-0,023
-437,992	-78,437	0,013	0,003
-436,978	604,819	0,036	0,065
-435,963	-200,000	-0,021	0,106
-434,949	-25,239	-0,071	-0,030
-433,934	515,233	-0,025	-0,043
-432,919	-200,000	-0,013	0,076
-431,905	52,304	0,075	-0,052
-430,890	800,000	0,037	0,085
-429,876	-142,070	0,040	-0,003
-428,861	53,082	0,042	-0,029
-427,846	-114,202	0,072	-0,010
-426,832	211,932	-0,023	-0,026
-425,817	261,022	-0,083	-0,104
-424,803	-17,944	0,071	-0,032
-423,788	-127,896	0,057	-0,006
-422,773	-53,331	0,069	0,023
-421,759	98,488	-0,176	-0,147
-420,744	33,669	-0,047	-0,030
-419,730	-200,000	-0,009	-0,068
-418,715	-57,943	0,056	0,018
-417,701	800,000	0,061	0,168
-416,686	-200,000	-0,064	0,230
-415,671	800,000	0,077	0,187
-414,657	-200,000	0,021	0,085
-413,642	-200,000	-0,009	0,198
-412,628	-200,000	0,006	-0,138
-411,613	-10,201	0,053	0,026
-410,598	484,655	-0,064	-0,106
-409,584	-68,173	0,084	0,024
-408,569	711,354	-0,076	0,148
-407,555	126,511	0,096	0,088
-406,540	-200,000	-0,007	-0,064
-405,525	-114,113	-0,058	-0,008
-404,511	328,489	0,036	-0,051
-403,496	178,043	0,068	-0,072
-402,482	-179,224	0,118	0,002
-401,467	-200,000	0,011	-0,093
-400,452	800,000	-0,033	-0,074
-399,438	340,976	0,070	0,100
-398,423	-200,000	-0,006	-0,075
-397,409	237,150	-0,141	0,170
-396,394	-77,326	-0,046	-0,012
-395,379	-77,348	-0,132	-0,033
-394,365	150,352	-0,033	-0,033
-393,350	34,201	0,092	-0,058
-392,336	-75,195	0,246	0,063
-391,321	-12,963	-0,093	-0,044
-390,306	-200,000	-0,007	0,030
-389,292	-200,000	0,000	0,144
-388,277	63,147	0,061	-0,044
-387,263	-86,563	-0,073	0,016
-386,248	-25,724	-0,015	-0,006
-385,233	359,925	-0,036	0,052
-384,219	412,975	0,069	-0,106
-383,204	-200,000	-0,003	0,126
-382,190	-68,108	0,024	-0,007
-381,175	-185,386	-0,108	0,001
-380,160	-200,000	0,003	-0,043
-379,146	-122,427	0,096	0,011
-378,131	772,731	0,064	0,126
-377,117	-29,864	-0,021	0,009
-376,102	84,679	0,084	-0,067
-375,088	-200,000	0,007	0,024
-374,073	-200,000	-0,006	0,034
-373,058	800,000	-0,049	0,103
-372,044	-138,923	0,100	0,008
-371,029	445,955	0,017	0,028
-370,015	-17,295	-0,032	0,014
-369,000	-74,815	0,026	-0,007
-367,985	-6,904	0,024	-0,012
-366,971	31,866	-0,049	0,031
-365,956	27,419	0,115	-0,070
-364,942	23,164	0,110	-0,066
-363,927	-200,000	-0,017	0,121
-362,912	-200,000	-0,001	0,123
-361,898	152,255	0,036	0,036
-360,883	150,491	-0,061	0,060
-359,869	591,437	-0,004	0,008
-358,854	48,584	0,123	-0,083
-357,839	582,521	-0,065	0,117
-356,825	308,855	0,086	0,117
-355,810	110,909	-0,047	-0,041
-354,796	-67,247	-0,047	0,013
-353,781	-42,132	-0,151	-0,056
-352,766	-71,198	0,052	-0,014
-351,752	-12,300	-0,150	-0,071
-350,737	-35,966	-0,175	0,068
-349,723	-104,351	-0,081	0,014
-348,708	-194,980	0,044	-0,000
-347,693	-131,904	0,034	-0,003
-346,679	261,045	0,030	-0,038
-345,664	-200,000	0,015	-0,065
-344,650	252,277	-0,052	0,065
-343,635	800,000	0,026	0,079
-342,620	-53,269	0,108	0,036
-341,606	-112,964	0,081	-0,012
-340,591	-200,000	0,025	-0,128
-339,577	429,959	-0,037	-0,059
-338,562	51,381	-0,135	-0,093
-337,548	319,021	-0,090	-0,124
-336,533	-148,695	0,156	0,009
-335,518	-4,307	-0,095	0,048
-334,504	-118,511	0,161	-0,020
-333,489	-200,000	-0,002	-0,047
-332,475	-41,841	0,015	0,005
-331,460	516,706	-0,012	0,020
-330,445	800,000	0,021	-0,062
-329,431	-200,000	0,002	-0,049
-328,416	370,276	0,025	0,037
-327,402	800,000	0,034	0,072
-326,387	-200,000	0,002	-0,121
-325,372	-53,697	0,046	0,015
-324,358	-200,000	0,007	-0,083
-323,343	3,436	-0,121	0,064
-322,329	318,095	0,069	0,096
-321,314	-108,575	0,067	0,010
-320,299	-1,772	0,099	0,050
-319,285	-200,000	-0,006	-0,111
-318,270	192,337	-0,086	-0,095
-317,256	800,000	-0,023	0,067
-316,241	-200,000	-0,015	-0,049
-315,226	-80,625	0,121	-0,029
-314,212	126,441	-0,093	0,086
-313,197	800,000	-0,005	0,011
-312,183	28,520	0,094	0,057
-311,168	87,629	0,127	0,102
-310,153	13,720	-0,115	-0,064
-309,139	11,873	0,046	-0,026
-308,124	-42,915	-0,050	-0,018
-307,110	-36,448	0,080	0,031
-306,095	-43,897	-0,206	0,075
-305,080	-135,735	0,110	0,009
-304,066	55,171	-0,089	0,062
-303,051	-30,456	0,067	-0,028
-302,037	-76,530	0,032	0,008
-301,022	724,079	0,059	-0,113
-300,008	65,638	0,097	-0,071
-298,993	800,000	0,010	-0,025
-297,978	157,106	0,111	-0,111
-296,964	-78,705	-0,210	-0,052
-295,949	669,641	0,031	0,059
-294,935	-200,000	0,010	0,100
-293,920	800,000	0,056	-0,120
-292,905	-64,577	0,066	0,019
-291,891	2,439	-0,054	0,028
-290,876	800,000	-0,017	0,039
-289,862	212,804	0,048	-0,055
-288,847	169,594	0,101	-0,105
-287,832	126,117	-0,191	-0,175
-286,818	176,999	-0,069	0,073
-285,803	31,221	0,125	-0,077
-284,789	-200,000	-0,026	0,092
-283,774	-33,717	-0,166	0,066
-282,759	216,317	-0,019	-0,022
-281,745	-200,000	0,019	0,081
-280,730	-200,000	-0,006	0,048
-279,716	40,589	-0,087	0,056
-278,701	224,537	0,052	0,061
-277,686	392,050	0,071	0,107
-276,672	800,000	0,043	0,134
-275,657	800,000	0,020	0,049
-274,643	-64,300	-0,097	-0,028
-273,628	-156,533	-0,041	0,002
-272,613	-200,000	0,034	-0,157
-271,599	100,658	0,110	0,092
-270,584	786,182	0,004	0,009
-269,570	-200,000	0,128	0,000
-268,555	800,000	-0,069	0,146
-267,540	90,675	0,030	-0,024
-266,526	-28,492	-0,133	-0,055
-265,511	-30,157	-0,125	0,051
-264,497	800,000	0,050	0,139
-263,482	497,634	-0,045	0,076
-262,467	-200,000	0,004	-0,107
-261,453	53,386	0,027	0,018
-260,438	-200,000	0,003	-0,032
-259,424	671,849	-0,069	-0,131
-258,409	-29,422	-0,095	0,039
-257,395	-135,127	0,117	0,010
-256,380	-109,264	0,048	0,007
-255,365	387,694	-0,010	0,014
-254,351	27,519	0,094	0,057
-253,336	800,000	0,063	-0,166
-252,322	475,578	0,064	-0,105
-251,307	800,000	-0,023	0,062
-250,292	-67,312	0,153	0,043
-249,278	369,539	-0,027	-0,040
-248,263	-200,000	0,006	-0,044
-247,249	-146,083	-0,065	0,004
-246,234	-104,347	-0,121	0,020
-245,219	40,327	0,076	0,049
-244,205	-4,436	-0,029	-0,014
-243,190	-121,069	0,107	0,013
-242,176	-64,077	0,083	-0,024
-241,161	331,334	0,083	0,116
-240,146	-139,482	0,043	0,003
-239,132	-168,170	0,102	0,003
-238,117	667,369	0,028	-0,052
-237,103	-49,431	-0,059	0,020
-236,088	224,487	-0,043	-0,051
-235,073	261,352	-0,074	0,093
-234,059	-130,671	-0,067	0,006
-233,044	800,000	-0,078	0,159
-232,030	610,080	-0,002	-0,004
-231,015	-200,000	-0,007	-0,123
-230,000	800,000	-0,039	-0,090
-228,986	-79,246	-0,108	0,026
-227,971	-95,831	0,092	-0,017
-226,957	-200,000	-0,033	-0,149
-225,942	-7,495	-0,148	-0,072
-224,927	800,000	-0,040	-0,083
-223,913	-200,000	-0,005	0,055
-222,898	-200,000	0,024	-0,091
-221,884	157,370	0,106	-0,106
-220,869	348,648	0,084	0,120
-219,855	-117,510	0,147	0,019
-218,840	-136,829	0,034	0,003
-217,825	-200,000	-0,026	-0,171
-216,811	468,207	-0,019	0,032
-215,796	536,428	0,063	-0,109
-214,782	31,763	-0,129	-0,080
-213,767	-142,745	0,100	0,007
-212,752	347,272	-0,015	-0,021
-211,738	315,040	-0,030	0,041
-210,723	800,000	-0,009	0,026
-209,709	-32,052	-0,129	-0,052
-208,694	-34,033	-0,047	-0,019
-207,679	198,959	0,141	-0,156
-206,665	-200,000	0,010	0,064
-205,650	267,046	0,025	0,031
-204,636	-27,318	0,097	-0,041
-203,621	353,931	0,014	0,020
-202,606	275,764	-0,043	-0,055
-201,592	-68,811	-0,090	0,025
-200,577	-61,067	0,008	0,002
-199,563	136,000	-0,075	-0,071
-198,548	-107,250	0,048	0,008
-197,533	-70,905	0,149	0,040
-196,519	-200,000	-0,025	-0,144
-195,504	206,422	-0,042	-0,047
-194,490	800,000	0,058	-0,121
-193,475	-200,000	0,005	-0,072
-192,460	-67,210	-0,100	0,028
-191,446	16,070	0,119	-0,068
-190,431	7,611	0,055	0,029
-189,417	-200,000	-0,000	0,127
-188,402	-141,431	0,159	-0,011
-187,387	61,421	-0,037	-0,027
-186,373	43,027	-0,054	0,036
-185,358	-59,062	0,056	0,017
-184,344	30,166	0,091	0,056
-183,329	64,755	0,177	0,129
-182,315	-59,732	0,056	0,017
-181,300	-200,000	-0,028	-0,198
-180,285	-200,000	0,004	0,158
-179,271	800,000	-0,008	0,015
-178,256	-200,000	0,005	0,017
-177,242	-145,260	0,120	0,008
-176,227	-200,000	0,004	-0,023
-175,212	800,000	0,045	0,127
-174,198	-200,000	0,045	-0,195
-173,183	181,587	-0,046	-0,049
-172,169	327,625	-0,024	-0,034
-171,154	-31,854	-0,027	-0,011
-170,139	-140,926	0,058	-0,004
-169,125	-86,502	0,048	-0,010
-168,110	800,000	0,035	-0,097
-167,096	-75,652	0,067	0,017
-166,081	-3,886	-0,087	-0,044
-165,066	-200,000	0,025	-0,109
-164,052	-129,214	-0,128	0,013
-163,037	14,860	0,023	0,013
-162,023	-200,000	-0,002	-0,025
-161,008	800,000	-0,008	-0,016
-159,993	-200,000	-0,015	0,116
-158,979	-135,821	-0,188	-0,016
-157,964	186,171	0,016	-0,017
-156,950	445,032	0,025	0,039
-155,935	-37,640	-0,038	-0,014
-154,920	-16,082	0,062	0,028
-153,906	-42,534	-0,006	-0,002
-152,891	-102,229	0,114	0,019
-151,877	-46,680	-0,052	0,018
-150,862	-51,942	0,029	0,010
-149,847	800,000	-0,022	0,050
-148,833	200,740	0,057	-0,064
-147,818	428,459	0,081	-0,127
-146,804	800,000	0,048	0,151
-145,789	800,000	0,042	-0,102
-144,775	-200,000	-0,001	-0,167
-143,760	-140,200	0,045	-0,003
-142,745	159,633	0,044	0,044
-141,731	94,205	-0,123	0,101
-140,716	205,623	0,105	-0,118
-139,702	233,639	-0,084	0,099
-138,687	-49,051	-0,070	-0,024
-137,672	75,759	0,075	-0,057
-136,658	-81,097	0,086	-0,020
-135,643	800,000	-0,043	0,117
-134,629	675,398	0,064	0,120
-133,614	562,900	0,106	-0,185
-132,599	-8,275	0,213	0,103
-131,585	-200,000	0,025	-0,118
-130,570	-96,926	0,096	-0,018
-129,556	800,000	-0,064	-0,131
-128,541	372,512	-0,073	0,107
-127,526	800,000	0,061	0,156
-126,512	-77,340	0,031	0,008
-125,497	800,000	-0,049	0,141
-124,483	375,147	-0,093	0,136
-123,468	7,542	0,027	-0,014
-122,453	95,130	-0,095	0,078
-121,439	62,571	0,130	0,093
-120,424	259,828	-0,081	-0,100
-119,410	-200,000	-0,002	0,105
-118,395	-200,000	0,024	0,121
-117,380	-200,000	-0,019	0,154
-116,366	-200,000	0,011	0,068
-115,351	-30,421	0,111	-0,045
-114,337	800,000	-0,028	-0,084
-113,322	-76,818	0,080	0,020
-112,307	-136,715	0,064	-0,005
-111,293	800,000	0,111	0,251
-110,278	234,871	-0,096	0,115
-109,264	-138,656	0,137	-0,011
-108,249	-200,000	0,012	0,104
-107,234	-132,919	0,066	0,006
-106,220	62,261	-0,070	-0,050
-105,205	-157,461	0,086	0,004
-104,191	35,025	0,008	0,005
-103,176	303,705	0,041	-0,055
-102,162	-106,757	0,084	0,013
-101,147	-147,055	-0,043	-0,003
-100,132	190,793	-0,053	-0,057
-99,118	505,508	-0,015	-0,026
-98,103	608,663	-0,007	-0,012
-97,089	7,931	0,170	0,091
-96,074	-200,000	0,000	-0,019
-95,059	53,112	0,070	-0,048
-94,045	311,935	-0,032	0,044
-93,030	-200,000	0,029	-0,098
-92,016	74,328	0,081	-0,061
-91,001	-198,004	-0,083	-0,000
-89,986	187,983	0,018	0,019
-88,972	-43,737	-0,060	-0,022
-87,957	-200,000	0,019	0,111
-86,943	96,218	-0,032	-0,026
-85,928	-17,009	-0,079	0,036
-84,913	159,973	-0,060	-0,060
-83,899	-200,000	0,010	-0,053
-82,884	146,299	0,098	0,094
-81,870	132,893	-0,114	0,106
-80,855	800,000	-0,003	-0,006
-79,840	494,377	-0,052	0,087
-78,826	-84,795	-0,064	-0,014
-77,811	800,000	0,029	-0,072
-76,797	-101,815	0,114	-0,020
-75,782	-200,000	-0,016	-0,081
-74,767	800,000	0,025	0,058
-73,753	-140,662	0,079	-0,006
-72,738	144,912	0,064	0,061
-71,724	591,743	-0,012	-0,021
-70,709	22,648	-0,115	-0,067
-69,694	-22,251	-0,077	-0,033
-68,680	80,988	0,033	-0,025
-67,665	291,426	-0,065	0,085
-66,651	79,072	0,035	0,027
-65,636	126,207	-0,101	-0,092
-64,622	-133,612	-0,056	0,005
-63,607	176,641	-0,123	-0,128
-62,592	477,035	-0,064	-0,103
-61,578	-61,357	0,044	-0,013
-60,563	194,492	-0,105	0,114
-59,549	139,054	0,101	0,095
-58,534	95,685	-2,612	-2,136
-57,519	-65,144	0,544	-0,156
-56,505	800,000	-1,824	-5,489
-55,490	571,662	1,194	2,094
-54,476	800,000	5,125	11,155
-53,461	-200,000	22,981	347,806
-52,446	800,000	765,070	2266,649
-51,432	498,350	1644,928	2726,325
-50,417	93,446	1602,153	1299,412
-49,403	61,389	1257,907	895,378
-48,388	21,357	1009,958	586,889
-47,373	18,540	977,679	558,885
-46,359	12,010	964,464	530,122
-45,344	7,822	961,382	514,797
-44,330	8,204	959,003	514,744
-43,315	7,241	957,301	510,689
-42,300	7,255	956,217	510,136
-41,286	7,241	955,204	509,529
-40,271	7,213	954,385	508,980
-39,257	7,261	953,339	508,558
-38,242	7,196	952,611	507,940
-37,227	7,292	951,701	507,745
-36,213	7,186	951,039	507,028
-35,198	7,158	950,284	506,515
-34,184	7,254	949,391	506,329
-33,169	7,181	948,359	505,525
-32,154	7,280	947,698	505,470
-31,140	7,240	946,929	504,909
-30,125	7,228	946,098	504,409
-29,111	7,224	945,337	503,972
-28,096	7,242	944,649	503,640
-27,082	7,179	944,200	503,181
-26,067	7,195	943,296	502,731
-25,052	7,189	942,560	502,299
-24,038	7,159	941,880	501,822
-23,023	7,184	941,096	501,461
-22,009	7,244	940,559	501,347
-20,994	7,212	939,873	500,859
-19,979	7,256	939,209	500,627
-18,965	7,180	938,657	500,070
-17,950	7,174	937,871	499,612
-16,936	7,205	937,365	499,421
-15,921	7,210	936,741	499,084
-14,906	7,130	936,176	498,511
-13,892	7,065	935,676	498,019
-12,877	7,111	934,755	497,654
-11,863	7,056	934,326	497,235
-10,848	7,054	933,686	496,868
-9,833	7,218	933,124	497,066
-8,819	7,143	932,516	496,486
-7,804	7,081	931,801	495,889
-6,790	7,097	931,369	495,689
-5,775	7,213	930,552	495,599
-4,760	7,159	930,061	495,150
-3,746	7,121	929,666	494,802
-2,731	6,992	928,672	493,846
-1,717	6,925	928,246	493,391
-0,702	6,959	927,502	493,080
0,313	6,842	926,815	493,095
1,327	10,220	924,602	502,439
2,342	18,946	773,026	442,729
3,356	14,274	443,895	247,242
4,371	-11,250	310,457	145,981
5,386	-14,675	293,143	134,390
6,400	-16,879	286,926	129,362
7,415	-17,427	284,293	127,629
8,429	-18,258	282,366	125,948
9,444	-18,527	281,507	125,294
10,459	-18,301	280,797	125,185
11,473	-18,402	280,128	124,778
12,488	-18,311	279,747	124,684
13,502	-18,488	279,081	124,207
14,517	-18,561	278,649	123,935
15,531	-18,628	278,200	123,659
16,546	-18,462	277,820	123,638
17,561	-18,594	277,416	123,322
18,575	-18,738	277,066	123,019
19,590	-18,627	276,669	122,936
20,604	-18,666	276,383	122,761
21,619	-18,543	275,984	122,690
22,634	-18,589	275,841	122,572
23,648	-18,594	275,336	122,331
24,663	-18,600	275,123	122,220
25,677	-18,451	274,909	122,255
26,692	-18,572	274,551	121,970
27,707	-18,710	274,358	121,745
28,721	-18,629	274,154	121,719
29,736	-18,680	273,864	121,532
30,750	-18,565	273,540	121,485
31,765	-18,571	273,237	121,334
32,780	-18,461	273,027	121,332
33,794	-18,576	272,844	121,133
34,809	-18,590	272,492	120,953
35,823	-18,618	272,133	120,757
36,838	-18,528	271,804	120,684
37,853	-18,640	271,683	120,515
38,867	-18,658	271,392	120,359
39,882	-18,486	271,175	120,411
40,896	-18,594	270,995	120,221
41,911	-18,586	270,731	120,100
42,926	-18,597	270,524	119,987
43,940	-18,614	270,329	119,875
44,955	-18,605	269,921	119,691
45,969	-18,765	269,801	119,480
46,984	-18,759	269,691	119,426
47,999	-18,522	269,609	119,597
49,013	-18,512	269,109	119,374
50,028	-18,529	269,065	119,328
51,042	-18,658	268,733	119,052
52,057	-18,602	268,451	118,968
53,071	-18,410	268,158	119,003
54,086	-18,580	268,110	118,815
55,101	-18,609	267,854	118,664
56,115	-18,727	267,813	118,529
57,130	-18,490	267,342	118,525
58,144	-18,517	267,101	118,383
59,159	-18,502	266,933	118,312
60,174	-18,331	266,591	118,305
61,188	-18,477	266,454	118,102
62,203	-18,579	266,209	117,890
63,217	-18,534	265,985	117,820
64,232	-18,449	265,797	117,804
65,247	-18,408	265,585	117,737
66,261	-18,455	265,230	117,527
67,276	-18,697	265,094	117,237
68,290	-18,563	264,893	117,259
69,305	-18,617	264,674	117,102
70,320	-18,504	264,364	117,057
71,334	-18,453	264,168	117,005
72,349	-18,232	263,808	117,034
73,363	-18,461	263,733	116,784
74,378	-18,645	263,416	116,469
75,393	-18,331	263,211	116,649
76,407	-18,289	262,996	116,581
77,422	-18,644	262,871	116,197
78,436	-18,497	262,726	116,255
79,451	-18,520	262,380	116,071
80,466	-18,440	262,128	116,021
81,480	-18,603	261,932	115,778
82,495	-18,411	261,633	115,806
83,509	-18,535	261,558	115,652
84,524	-18,727	261,384	115,394
85,539	-18,327	260,959	115,551
86,553	-18,520	260,880	115,335
87,568	-18,672	260,687	115,104
88,582	-18,448	260,394	115,163
89,597	-18,370	260,123	115,103
90,611	-18,460	259,986	114,951
91,626	-18,502	259,877	114,856
92,641	-18,495	259,688	114,769
93,655	-18,555	259,444	114,597
94,670	-18,418	259,168	114,586
95,684	-18,512	258,941	114,393
96,699	-18,451	258,829	114,386
97,714	-18,423	258,567	114,286
98,728	-18,517	258,415	114,126
99,743	-18,546	258,335	114,054
100,757	-18,519	257,912	113,882
101,772	-18,415	257,771	113,900
102,787	-18,312	257,497	113,859
103,801	-18,539	257,518	113,660
104,816	-18,578	257,146	113,451
105,830	-18,304	257,019	113,623
106,845	-18,339	256,719	113,451
107,860	-18,453	256,696	113,331
108,874	-18,380	256,395	113,252
109,889	-18,358	256,248	113,195
110,903	-18,212	255,909	113,162
111,918	-18,388	255,749	112,929
112,933	-18,321	255,620	112,920
113,947	-18,378	255,362	112,747
114,962	-18,288	255,235	112,759
115,976	-18,199	254,822	112,644
116,991	-18,311	254,645	112,458
118,006	-18,394	254,621	112,365
119,020	-18,605	254,596	112,162
120,035	-18,474	254,326	112,146
121,049	-18,391	254,158	112,134
122,064	-18,359	253,858	112,019
123,079	-18,459	253,727	111,866
124,093	-18,409	253,607	111,846
125,108	-18,644	253,409	111,547
126,122	-18,375	253,155	111,655
127,137	-18,371	252,835	111,508
128,151	-18,339	252,615	111,428
129,166	-18,319	252,530	111,397
130,181	-18,369	252,209	111,204
131,195	-18,409	252,060	111,093
132,210	-18,431	251,703	110,908
133,224	-18,406	251,755	110,942
134,239	-18,425	251,366	110,744
135,254	-18,244	251,274	110,848
136,268	-18,334	251,046	110,661
137,283	-18,258	250,805	110,610
138,297	-18,464	250,721	110,388
139,312	-18,281	250,384	110,385
140,327	-18,374	250,364	110,288
141,341	-18,303	250,167	110,251
142,356	-18,466	249,965	110,014
143,370	-18,233	249,805	110,131
144,385	-18,181	249,554	110,054
145,400	-18,429	249,371	109,755
146,414	-18,320	249,250	109,783
147,429	-18,376	249,035	109,632
148,443	-18,218	248,872	109,683
149,458	-18,247	248,575	109,518
150,473	-18,288	248,475	109,430
151,487	-18,172	248,261	109,424
152,502	-18,249	247,996	109,232
153,516	-18,415	247,871	109,028
154,531	-18,199	247,477	109,026
155,546	-18,246	247,447	108,964
156,560	-18,027	247,286	109,066
157,575	-18,175	246,994	108,804
158,589	-18,228	246,927	108,721
159,604	-18,025	246,634	108,751
160,619	-18,270	246,495	108,476
161,633	-18,262	246,319	108,396
162,648	-18,390	246,298	108,270
163,662	-18,413	246,068	108,140
164,677	-18,215	245,967	108,251
165,692	-18,378	245,694	107,986
166,706	-18,270	245,741	108,086
167,721	-18,326	245,293	107,833
168,735	-18,228	245,252	107,886
169,750	-18,194	245,091	107,834
170,764	-18,160	244,929	107,782
171,779	-18,108	244,819	107,767
172,794	-17,913	244,487	107,773
173,808	-18,364	244,487	107,390
174,823	-18,225	244,169	107,356
175,837	-18,183	244,110	107,354
176,852	-18,088	243,804	107,288
177,867	-18,277	243,807	107,125
178,881	-18,104	243,565	107,151
179,896	-18,060	243,314	107,067
180,910	-18,127	243,219	106,961
181,925	-18,086	242,924	106,855
182,940	-18,297	242,984	106,700
183,954	-18,102	242,690	106,720
184,969	-18,294	242,618	106,522
185,983	-18,220	242,368	106,463
186,998	-18,113	242,103	106,425
188,013	-18,179	242,045	106,336
189,027	-18,169	241,670	106,169
190,042	-17,908	241,679	106,377
191,056	-18,155	241,595	106,129
192,071	-18,015	241,202	106,061
193,086	-18,099	241,170	105,969
194,100	-17,986	240,912	105,937
195,115	-18,110	240,735	105,750
196,129	-18,238	240,476	105,523
197,144	-18,134	240,311	105,526
198,159	-18,256	240,281	105,404
199,173	-18,102	239,852	105,331
200,188	-17,951	239,935	105,480
201,202	-17,914	239,628	105,366
202,217	-18,074	239,546	105,191
203,232	-18,051	239,344	105,112
204,246	-18,160	239,047	104,884
205,261	-17,905	238,980	105,050
206,275	-16,000	239,625	106,862
207,290	-11,039	241,413	111,678
208,304	-5,085	243,260	117,384
209,319	-2,938	243,745	119,361
210,334	-2,271	243,897	119,970
211,348	-1,339	243,896	120,719
212,363	-0,530	244,001	121,421
213,377	-0,031	244,037	121,834
214,392	0,489	244,150	122,303
215,407	0,602	244,145	122,382
216,421	0,916	243,914	122,511
217,436	0,797	243,696	122,294
218,450	0,959	243,554	122,344
219,465	0,854	243,505	122,222
220,480	0,837	243,352	122,121
221,494	0,712	243,162	121,913
222,509	0,400	242,856	121,496
223,523	0,236	242,687	121,268
224,538	0,370	242,473	121,259
225,553	0,487	242,189	121,201
226,567	0,313	242,137	121,023
227,582	0,271	242,027	120,923
228,596	0,365	241,787	120,868
229,611	0,306	241,722	120,777
230,626	0,320	241,575	120,705
231,640	0,347	241,271	120,564
232,655	0,226	241,144	120,392
233,669	0,247	240,951	120,302
234,684	0,379	240,794	120,320
235,699	0,316	240,672	120,197
236,713	0,263	240,592	120,103
237,728	0,431	240,322	120,092
238,742	0,103	240,171	119,744
239,757	0,419	239,995	119,898
240,772	0,340	239,887	119,771
241,786	0,193	239,726	119,562
242,801	0,052	239,576	119,364
243,815	0,051	239,506	119,317
244,830	0,238	239,369	119,388
245,844	0,493	239,203	119,497
246,859	0,233	238,963	119,160
247,874	0,392	238,729	119,159
248,888	0,365	238,634	119,080
249,903	0,403	238,469	119,017
250,917	0,512	238,392	119,054
251,932	0,414	238,329	118,935
252,947	0,439	237,980	118,769
253,961	0,321	237,878	118,615
254,976	0,287	237,722	118,499
255,990	0,423	237,566	118,519
257,005	0,303	237,421	118,341
258,020	0,077	237,328	118,105
259,034	0,251	237,081	118,110
260,049	0,472	237,003	118,234
261,063	0,348	236,710	117,980
262,078	0,280	236,621	117,871
263,093	0,416	236,512	117,914
264,107	0,176	236,367	117,642
265,122	0,288	236,166	117,620
266,136	0,331	235,990	117,555
267,151	0,555	235,789	117,620
268,166	0,284	235,803	117,404
269,180	0,201	235,567	117,211
270,195	0,304	235,409	117,202
271,209	0,477	235,174	117,211
272,224	0,306	235,097	117,028
273,239	0,412	234,900	117,002
274,253	0,454	234,621	116,885
275,268	0,486	234,576	116,878
276,282	0,219	234,460	116,601
277,297	0,444	234,236	116,655
278,312	0,346	234,207	116,554
279,326	0,450	233,992	116,517
280,341	0,293	233,855	116,316
281,355	0,435	233,781	116,380
282,370	0,442	233,753	116,361
283,384	0,202	233,547	116,062
284,399	0,240	233,363	115,989
285,414	0,413	233,120	115,992
286,428	0,363	233,022	115,895
287,443	0,436	232,934	115,897
288,457	0,440	232,649	115,747
289,472	0,446	232,584	115,709
290,487	0,459	232,308	115,572
291,501	0,267	232,269	115,394
292,516	0,390	232,172	115,430
293,530	0,472	232,022	115,409
294,545	0,539	231,862	115,370
295,560	0,480	231,767	115,267
296,574	0,481	231,512	115,131
297,589	0,600	231,423	115,168
298,603	0,560	231,331	115,081
299,618	0,287	231,182	114,788
300,633	0,395	231,106	114,822
301,647	0,677	230,762	114,857
302,662	0,437	230,906	114,735
303,676	0,545	230,503	114,607
304,691	0,353	230,415	114,406
305,706	0,573	230,304	114,509
306,720	0,702	230,090	114,490
307,735	0,570	230,109	114,389
308,749	0,739	229,675	114,292
309,764	0,681	229,578	114,189
310,779	0,454	229,622	114,028
311,793	0,428	229,479	113,927
312,808	0,545	229,238	113,887
313,822	0,573	229,110	113,834
314,837	0,552	228,942	113,724
315,852	0,463	228,813	113,582
316,866	0,850	228,603	113,761
317,881	0,827	228,465	113,665
318,895	0,865	228,286	113,594
319,910	0,808	228,231	113,514
320,925	0,516	228,153	113,245
321,939	0,630	227,868	113,179
322,954	0,788	227,773	113,240
323,968	0,656	227,670	113,080
324,983	0,674	227,462	112,980
325,997	0,843	227,322	113,027
327,012	0,676	227,122	112,792
328,027	0,788	226,902	112,758
329,041	0,917	226,751	112,769
330,056	0,622	226,742	112,533
331,070	0,759	226,645	112,578
332,085	0,750	226,331	112,405
333,100	0,668	226,255	112,296
334,114	0,738	226,018	112,221
335,129	0,761	225,941	112,190
336,143	0,595	225,898	112,034
337,158	0,686	225,819	112,053
338,173	0,633	225,619	111,905
339,187	0,898	225,470	112,018
340,202	0,943	225,486	112,049
341,216	0,946	225,125	111,862
342,231	0,775	225,126	111,725
343,246	0,806	224,886	111,619
344,260	0,901	224,807	111,641
345,275	0,861	224,656	111,526
346,289	0,634	224,523	111,281
347,304	0,904	224,343	111,383
348,319	0,896	224,183	111,287
349,333	0,851	224,207	111,256
350,348	0,854	223,960	111,126
351,362	0,955	223,882	111,152
352,377	0,803	223,664	110,921
353,392	0,812	223,599	110,886
354,406	1,076	223,396	110,969
355,421	191,548	1311,249	1373,471
356,435	153,346	1443,633	1373,295
