DTS Sentinel unit serial number:	SN410029Multiplexer serial number:	ORYXHardware model number:	OX2-SRSoftware version number:	ORYX F/W v4,00 Oryx Data Collector v3.7.2.0data status	okinstallation	B5 Nyhavnadifferential loss correction	single-endedforward channel	channel 2reverse channel	N/Adate	2023/12/14time	09:47:13forward acquisition time	300,00reverse acquisition time	0,00gamma	499,1914k internal	0,3160k external	0,3160temperature offset calibration	1,0000default loss term (dB/km)	0,3820temperature slope calibration	1,0000multiplexer offset coefficient	1,0000multiplexer slope coefficient	1,0000fibre end	0,00T internal ref (°C)	6,89T ext. ref 1 (°C)	-9,31T ext. ref 2 (°C)	-9,37length (m)	temperature (°C)	Stokes	anti-Stokes-744,400	207,628	0,124	0,143
-743,385	-155,977	-0,374	-0,017
-742,371	-54,489	0,227	0,075
-741,356	-187,382	-0,337	0,003
-740,342	-30,666	0,236	0,098
-739,327	-60,316	-0,499	-0,155
-738,312	800,000	0,046	0,111
-737,298	77,730	-0,307	-0,240
-736,283	-200,000	0,057	0,213
-735,269	-97,977	-0,279	-0,052
-734,254	93,747	0,072	0,060
-733,239	-38,602	-0,489	-0,189
-732,225	2,531	0,203	0,108
-731,210	-16,199	-0,070	0,033
-730,196	98,970	-0,104	0,088
-729,181	-125,928	0,065	-0,007
-728,167	-166,318	-0,052	0,002
-727,152	110,117	0,038	0,034
-726,137	234,440	-0,024	-0,029
-725,123	-200,000	-0,003	-0,092
-724,108	800,000	-0,036	0,084
-723,094	-95,505	-0,140	-0,027
-722,079	800,000	-0,032	-0,097
-721,064	101,870	0,023	-0,020
-720,050	-200,000	-0,006	-0,024
-719,035	-150,625	-0,041	-0,002
-718,021	-126,318	-0,048	-0,005
-717,006	-6,483	0,055	0,028
-715,991	-53,563	-0,040	-0,013
-714,977	62,204	-0,099	-0,072
-713,962	50,854	-0,122	0,085
-712,948	131,578	-0,069	0,065
-711,933	-134,070	-0,204	0,018
-710,918	-109,474	-0,097	-0,015
-709,904	128,014	-0,065	-0,061
-708,889	368,711	-0,016	0,024
-707,875	-200,000	0,003	-0,043
-706,860	-200,000	-0,017	-0,086
-705,845	-64,640	0,082	0,024
-704,831	153,954	-0,078	0,079
-703,816	373,638	-0,031	0,046
-702,802	22,163	0,038	0,022
-701,787	-16,238	-0,083	-0,038
-700,772	-127,181	0,078	-0,008
-699,758	-200,000	-0,047	0,267
-698,743	-55,585	-0,036	-0,012
-697,729	110,433	0,060	0,053
-696,714	313,868	0,050	0,069
-695,699	800,000	0,021	-0,060
-694,685	218,071	0,027	-0,032
-693,670	-200,000	-0,001	0,013
-692,656	235,855	0,093	0,113
-691,641	4,072	0,093	0,050
-690,627	709,012	-0,089	-0,174
-689,612	151,032	-0,075	-0,075
-688,597	-200,000	0,006	0,064
-687,583	-200,000	0,000	-0,092
-686,568	-151,345	0,100	-0,005
-685,554	215,226	-0,122	-0,142
-684,539	407,486	-0,101	-0,157
-683,524	-41,091	-0,045	0,017
-682,510	-200,000	-0,016	-0,075
-681,495	-200,000	0,035	0,152
-680,481	-200,000	-0,002	0,145
-679,466	-123,627	-0,159	-0,018
-678,451	-70,212	-0,087	0,024
-677,437	800,000	-0,034	0,105
-676,422	324,143	0,061	0,086
-675,408	-28,153	-0,048	0,020
-674,393	-178,551	0,040	0,001
-673,378	68,656	-0,051	0,038
-672,364	-107,183	-0,063	0,010
-671,349	-200,000	-0,050	-0,165
-670,335	514,852	0,051	0,087
-669,320	329,869	0,056	0,079
-668,305	60,891	-0,085	0,062
-667,291	-168,797	-0,129	-0,004
-666,276	-200,000	0,051	-0,183
-665,262	800,000	-0,052	0,120
-664,247	524,266	-0,069	-0,119
-663,232	398,905	0,084	-0,130
-662,218	800,000	0,073	0,226
-661,203	-25,311	0,088	0,038
-660,189	800,000	0,024	0,072
-659,174	-200,000	-0,073	-0,000
-658,159	-150,208	-0,035	0,002
-657,145	737,476	0,035	0,070
-656,130	-82,650	-0,071	-0,017
-655,116	422,862	0,045	0,071
-654,101	189,669	0,092	-0,102
-653,086	-18,120	-0,132	0,060
-652,072	315,626	-0,109	-0,151
-651,057	-200,000	-0,005	0,105
-650,043	136,323	-0,082	0,079
-649,028	-196,338	-0,077	0,000
-648,014	-71,839	0,099	-0,027
-646,999	433,749	-0,072	-0,115
-645,984	-107,223	0,045	0,007
-644,970	59,147	-0,054	0,039
-643,955	-113,611	-0,037	0,005
-642,941	85,424	0,125	-0,101
-641,926	-200,000	-0,001	-0,117
-640,911	800,000	-0,038	0,101
-639,897	217,151	0,047	0,055
-638,882	-154,143	0,083	0,004
-637,868	-200,000	0,010	-0,037
-636,853	-200,000	0,024	-0,109
-635,838	-18,633	0,028	-0,013
-634,824	800,000	0,039	-0,125
-633,809	237,362	0,108	-0,131
-632,795	-200,000	-0,007	0,146
-631,780	-152,151	-0,087	0,005
-630,765	522,389	-0,026	0,045
-629,751	-9,372	0,053	-0,026
-628,736	85,393	-0,083	0,067
-627,722	-200,000	-0,002	-0,014
-626,707	88,840	-0,169	-0,138
-625,692	54,489	0,101	-0,072
-624,678	124,757	0,041	0,038
-623,663	800,000	0,019	0,039
-622,649	-200,000	0,031	-0,157
-621,634	128,805	-0,092	0,086
-620,619	83,369	-0,069	0,055
-619,605	800,000	0,027	0,070
-618,590	375,232	0,024	0,036
-617,576	-128,313	-0,069	0,007
-616,561	208,349	0,105	0,121
-615,546	564,695	-0,042	-0,076
-614,532	164,453	-0,074	-0,076
-613,517	800,000	-0,046	-0,103
-612,503	-200,000	-0,004	-0,107
-611,488	-64,858	0,117	0,034
-610,474	161,419	-0,043	-0,044
-609,459	-34,911	0,059	0,023
-608,444	100,734	0,036	0,031
-607,430	-9,276	-0,066	-0,032
-606,415	103,247	0,031	0,027
-605,401	-200,000	0,008	0,088
-604,386	-200,000	-0,002	-0,055
-603,371	328,580	0,039	-0,055
-602,357	164,568	0,116	-0,120
-601,342	32,611	-0,117	-0,074
-600,328	-21,842	0,049	0,022
-599,313	-189,462	0,154	-0,001
-598,298	-2,911	-0,037	0,019
-597,284	134,979	-0,099	0,095
-596,269	-200,000	0,012	0,051
-595,255	-200,000	0,011	0,067
-594,240	98,685	-0,060	0,050
-593,225	700,607	-0,047	0,092
-592,211	-200,000	-0,005	0,032
-591,196	-114,586	-0,120	-0,017
-590,182	-131,522	-0,080	-0,008
-589,167	-72,924	0,108	0,029
-588,152	363,805	0,102	0,151
-587,138	276,160	-0,026	0,033
-586,123	621,423	-0,052	-0,096
-585,109	100,678	-0,070	-0,060
-584,094	-16,330	-0,038	-0,018
-583,079	284,976	-0,017	-0,022
-582,065	488,499	0,048	0,080
-581,050	385,253	-0,094	0,142
-580,036	-200,000	0,025	0,102
-579,021	641,642	0,053	-0,099
-578,006	16,461	-0,147	0,085
-576,992	-200,000	0,023	0,078
-575,977	-47,561	-0,079	-0,028
-574,963	-152,058	0,060	0,003
-573,948	-200,000	-0,002	0,008
-572,934	-200,000	-0,016	0,175
-571,919	-62,944	0,083	0,025
-570,904	384,197	-0,033	-0,050
-569,890	-67,799	0,090	-0,026
-568,875	27,712	0,063	0,039
-567,861	-84,401	0,031	0,007
-566,846	-73,806	-0,219	0,058
-565,831	-200,000	-0,000	0,054
-564,817	-118,045	0,042	-0,005
-563,802	-200,000	0,014	0,122
-562,788	23,409	-0,092	-0,055
-561,773	103,717	0,023	-0,020
-560,758	-200,000	0,019	0,095
-559,744	-58,525	0,067	-0,021
-558,729	800,000	0,027	0,074
-557,715	-200,000	-0,013	-0,085
-556,700	76,693	-0,051	0,039
-555,685	218,825	-0,065	0,077
-554,671	-200,000	0,002	0,077
-553,656	15,508	-0,105	0,060
-552,642	800,000	-0,032	-0,081
-551,627	-200,000	0,018	0,088
-550,612	-200,000	-0,000	-0,057
-549,598	262,972	0,061	0,077
-548,583	-200,000	0,008	-0,052
-547,569	208,629	-0,111	-0,127
-546,554	-200,000	0,006	-0,044
-545,539	-200,000	0,001	0,048
-544,525	93,243	-0,076	0,063
-543,510	100,041	-0,083	0,070
-542,496	517,226	-0,053	0,091
-541,481	800,000	-0,033	0,097
-540,466	-200,000	0,019	0,134
-539,452	-200,000	-0,001	0,041
-538,437	-64,683	0,068	0,020
-537,423	-55,518	0,149	0,048
-536,408	369,945	-0,015	0,022
-535,393	243,695	0,050	0,061
-534,379	-122,682	0,046	-0,005
-533,364	261,143	-0,103	0,131
-532,350	800,000	-0,035	-0,090
-531,335	-164,804	-0,075	-0,002
-530,321	-200,000	-0,017	-0,075
-529,306	655,000	0,050	0,095
-528,291	800,000	-0,043	-0,123
-527,277	675,365	-0,116	-0,221
-526,262	-31,038	0,055	-0,023
-525,248	-21,570	0,134	0,060
-524,233	59,573	0,121	0,087
-523,218	163,909	0,025	0,025
-522,204	-200,000	0,003	-0,015
-521,189	-62,918	0,067	0,020
-520,175	-94,342	-0,039	-0,008
-519,160	-111,982	-0,080	0,012
-518,145	81,253	0,135	0,106
-517,131	800,000	-0,056	-0,125
-516,116	18,844	-0,062	-0,036
-515,102	46,758	0,127	0,086
-514,087	198,402	0,040	-0,044
-513,072	-200,000	-0,009	0,055
-512,058	-200,000	0,005	0,046
-511,043	358,660	-0,057	-0,083
-510,029	4,287	0,133	0,071
-509,014	800,000	-0,062	0,127
-507,999	421,514	0,036	-0,057
-506,985	-50,050	-0,144	-0,050
-505,970	791,776	0,014	0,028
-504,956	-200,000	0,015	-0,256
-503,941	90,430	-0,070	0,057
-502,926	159,234	-0,113	0,115
-501,912	-52,901	0,099	0,033
-500,897	-2,765	0,134	-0,068
-499,883	-200,000	0,026	-0,089
-498,868	-200,000	-0,039	0,179
-497,853	-75,673	-0,068	-0,017
-496,839	-57,708	-0,095	0,030
-495,824	376,880	-0,018	-0,027
-494,810	800,000	-0,020	-0,062
-493,795	800,000	0,020	0,058
-492,781	0,152	0,097	0,050
-491,766	1,754	-0,067	0,035
-490,751	-200,000	0,001	-0,024
-489,737	227,777	-0,046	-0,055
-488,722	-54,495	-0,041	0,014
-487,708	98,036	0,085	0,072
-486,693	76,721	0,128	-0,099
-485,678	177,256	0,100	-0,106
-484,664	800,000	-0,071	-0,159
-483,649	2,814	-0,100	0,053
-482,635	134,058	0,085	-0,080
-481,620	353,367	0,022	-0,032
-480,605	133,026	-0,105	-0,099
-479,591	-200,000	-0,003	0,128
-478,576	329,445	-0,093	0,131
-477,562	-129,448	-0,094	-0,009
-476,547	-200,000	0,018	0,098
-475,532	-163,976	0,062	0,002
-474,518	223,561	0,041	-0,048
-473,503	-77,359	0,154	-0,039
-472,489	6,611	0,103	-0,056
-471,474	-200,000	0,018	0,090
-470,459	800,000	-0,064	-0,187
-469,445	-112,790	-0,033	-0,005
-468,430	-200,000	0,072	-0,248
-467,416	-4,981	-0,076	-0,038
-466,401	70,619	0,099	-0,075
-465,386	71,334	0,111	0,084
-464,372	-4,702	-0,094	-0,047
-463,357	293,239	-0,070	-0,093
-462,343	257,771	-0,112	-0,140
-461,328	-33,858	0,101	-0,040
-460,313	-49,096	-0,074	-0,026
-459,299	800,000	-0,064	-0,147
-458,284	36,526	-0,016	0,010
-457,270	-106,217	0,073	-0,012
-456,255	-108,192	-0,164	-0,026
-455,241	250,122	0,029	0,036
-454,226	115,924	-0,057	0,051
-453,211	-77,012	-0,128	0,032
-452,197	-12,561	0,069	0,033
-451,182	12,008	0,026	-0,015
-450,168	800,000	0,013	0,039
-449,153	119,305	0,036	0,033
-448,138	15,500	-0,200	-0,114
-447,124	89,834	0,120	-0,097
-446,109	-2,790	-0,139	-0,070
-445,095	15,442	-0,069	0,039
-444,080	-200,000	0,011	0,139
-443,065	-115,827	0,130	0,018
-442,051	12,660	0,059	-0,033
-441,036	-99,669	-0,111	-0,020
-440,022	226,549	-0,057	-0,068
-439,007	-195,998	-0,105	-0,001
-437,992	-200,000	0,011	-0,052
-436,978	-35,261	-0,054	-0,021
-435,963	225,805	0,097	-0,115
-434,949	559,357	0,034	0,060
-433,934	800,000	0,043	-0,090
-432,919	-78,943	-0,077	0,019
-431,905	151,068	-0,007	-0,007
-430,890	-200,000	-0,002	0,065
-429,876	-177,694	0,110	0,002
-428,861	-169,981	-0,123	-0,003
-427,846	-0,712	0,115	0,059
-426,832	119,980	0,060	-0,055
-425,817	-119,554	-0,126	0,016
-424,803	-200,000	0,000	-0,031
-423,788	-90,765	-0,041	0,009
-422,773	13,426	0,138	0,077
-421,759	-45,619	-0,088	-0,031
-420,744	-164,628	-0,023	-0,001
-419,730	-3,000	0,028	-0,014
-418,715	35,478	-0,097	-0,062
-417,701	124,105	0,106	-0,097
-416,686	-172,304	-0,081	0,002
-415,671	579,343	-0,043	0,076
-414,657	-153,256	0,106	-0,005
-413,642	205,863	0,040	-0,046
-412,628	130,260	-0,056	0,052
-411,613	-60,112	-0,056	-0,017
-410,598	115,358	-0,054	0,048
-409,584	-200,000	-0,011	-0,106
-408,569	800,000	0,013	-0,034
-407,555	390,302	0,045	0,067
-406,540	800,000	-0,035	0,095
-405,525	-200,000	0,026	0,107
-404,511	326,896	-0,048	0,067
-403,496	-200,000	0,002	0,181
-402,482	-200,000	-0,038	0,144
-401,467	-138,584	0,058	-0,005
-400,452	-54,049	0,175	0,057
-399,438	145,859	0,040	0,039
-398,423	244,342	-0,096	-0,117
-397,409	172,494	-0,100	0,105
-396,394	483,831	-0,029	-0,048
-395,379	-112,237	0,042	-0,006
-394,365	-200,000	0,001	0,025
-393,350	-200,000	-0,024	-0,119
-392,336	715,711	0,077	-0,149
-391,321	17,775	0,072	0,041
-390,306	800,000	0,025	0,062
-389,292	800,000	-0,018	-0,053
-388,277	-66,727	-0,072	-0,021
-387,263	-25,743	0,118	0,050
-386,248	-97,298	0,185	0,035
-385,233	800,000	0,021	0,059
-384,219	-200,000	0,023	-0,120
-383,204	91,736	0,024	-0,019
-382,190	39,356	-0,184	0,120
-381,175	616,878	-0,015	-0,028
-380,160	28,956	-0,068	0,042
-379,146	-16,114	0,157	-0,072
-378,131	390,884	-0,058	0,087
-377,117	261,250	0,082	-0,103
-376,102	-87,322	0,118	-0,026
-375,088	-153,955	-0,141	-0,007
-374,073	77,982	-0,051	-0,040
-373,058	-200,000	0,007	-0,129
-372,044	-120,942	0,026	0,003
-371,029	-28,301	0,080	0,033
-370,015	-200,000	-0,013	0,084
-369,000	800,000	-0,063	-0,134
-367,985	-200,000	-0,025	-0,152
-366,971	75,521	-0,082	-0,063
-365,956	-200,000	0,008	-0,053
-364,942	-2,398	0,093	0,047
-363,927	800,000	0,019	0,051
-362,912	-61,378	0,077	0,023
-361,898	191,335	-0,047	0,051
-360,883	-161,070	-0,106	0,004
-359,869	429,350	-0,055	0,087
-358,854	431,136	0,074	0,116
-357,839	-122,771	0,178	0,021
-356,825	-67,104	-0,171	0,049
-355,810	-71,171	-0,059	0,016
-354,796	-200,000	-0,005	-0,023
-353,781	182,331	-0,080	-0,086
-352,766	-200,000	-0,025	0,224
-351,752	-148,788	0,110	-0,006
-350,737	115,210	0,097	0,086
-349,723	-43,910	-0,145	0,052
-348,708	131,908	0,180	-0,168
-347,693	287,556	0,010	-0,014
-346,679	-200,000	0,000	-0,008
-345,664	800,000	-0,035	0,079
-344,650	77,909	0,115	0,088
-343,635	-73,188	0,100	-0,026
-342,620	-96,414	-0,034	0,006
-341,606	-99,539	-0,036	-0,006
-340,591	800,000	-0,041	0,093
-339,577	689,856	-0,035	-0,066
-338,562	-200,000	-0,000	-0,025
-337,548	-200,000	-0,003	-0,080
-336,533	5,840	-0,082	0,044
-335,518	34,549	0,101	-0,064
-334,504	532,767	-0,019	-0,033
-333,489	2,615	0,025	0,013
-332,475	-42,232	0,090	-0,033
-331,460	-45,009	-0,139	0,050
-330,445	-119,000	0,128	-0,016
-329,431	43,636	0,056	-0,037
-328,416	-200,000	-0,009	-0,035
-327,402	800,000	-0,032	0,076
-326,387	152,768	-0,117	0,116
-325,372	263,728	0,057	-0,072
-324,358	25,074	0,039	-0,023
-323,343	1,406	-0,054	-0,028
-322,329	-200,000	0,011	-0,080
-321,314	800,000	-0,046	0,099
-320,299	-21,274	0,140	0,062
-319,285	40,050	-0,089	-0,058
-318,270	-200,000	0,006	-0,205
-317,256	-200,000	-0,034	-0,118
-316,241	-119,941	-0,014	-0,002
-315,226	366,638	0,008	-0,011
-314,212	51,752	0,095	0,066
-313,197	40,516	-0,088	0,057
-312,183	621,910	-0,028	-0,051
-311,168	-200,000	-0,008	-0,063
-310,153	2,903	0,103	-0,054
-309,139	353,496	-0,043	-0,063
-308,124	-200,000	-0,003	0,061
-307,110	-200,000	-0,025	0,088
-306,095	-200,000	0,037	0,190
-305,080	-50,445	-0,027	0,009
-304,066	-96,884	-0,125	0,023
-303,051	-200,000	0,014	-0,068
-302,037	-200,000	0,007	-0,030
-301,022	204,195	-0,014	-0,016
-300,008	-138,677	0,106	0,008
-298,993	-108,816	-0,088	0,014
-297,978	217,116	0,070	0,081
-296,964	3,963	0,133	0,070
-295,949	-11,687	0,020	0,010
-294,935	-155,127	-0,002	0,000
-293,920	360,911	0,096	0,140
-292,905	-10,163	0,137	-0,066
-291,891	-200,000	0,021	0,109
-290,876	278,507	0,051	0,066
-289,862	-20,863	-0,014	0,006
-288,847	-186,205	-0,149	0,002
-287,832	-45,190	-0,035	-0,012
-286,818	686,078	-0,033	-0,063
-285,803	-118,401	-0,176	-0,022
-284,789	800,000	-0,034	0,101
-283,774	-200,000	-0,006	0,064
-282,759	-200,000	0,004	-0,022
-281,745	322,648	0,015	0,021
-280,730	-53,234	0,033	0,011
-279,716	-72,041	0,130	0,035
-278,701	25,243	0,117	0,070
-277,686	-200,000	-0,007	-0,029
-276,672	-200,000	0,009	0,169
-275,657	-93,112	0,067	-0,013
-274,643	-53,088	-0,099	-0,033
-273,628	800,000	0,015	0,037
-272,613	186,329	-0,017	-0,019
-271,599	-19,434	0,074	0,033
-270,584	90,189	0,112	-0,090
-269,570	800,000	0,018	-0,057
-268,555	85,330	-0,011	0,008
-267,540	61,954	-0,039	-0,028
-266,526	111,946	-0,058	0,051
-265,511	-48,325	0,148	-0,051
-264,497	64,491	0,052	0,038
-263,482	-137,289	0,030	0,002
-262,467	800,000	-0,033	0,091
-261,453	-50,474	0,022	0,008
-260,438	-141,177	-0,104	-0,008
-259,424	-103,953	-0,104	0,017
-258,409	-200,000	-0,026	-0,111
-257,395	-29,390	-0,052	-0,021
-256,380	-100,544	0,123	0,022
-255,365	800,000	0,023	0,050
-254,351	15,078	-0,057	0,032
-253,336	-137,853	-0,013	0,001
-252,322	62,628	-0,162	-0,117
-251,307	304,296	-0,070	-0,094
-250,292	34,172	0,102	-0,064
-249,278	-200,000	0,011	0,073
-248,263	-157,053	-0,085	0,004
-247,249	-99,665	0,108	-0,019
-246,234	-114,392	-0,096	0,013
-245,219	-41,287	-0,188	-0,070
-244,205	-200,000	0,010	0,157
-243,190	133,466	0,050	0,047
-242,176	-64,457	-0,132	0,039
-241,161	383,111	0,049	0,072
-240,146	800,000	0,074	-0,192
-239,132	106,309	-0,133	0,114
-238,117	-9,792	0,099	0,047
-237,103	198,179	-0,065	-0,072
-236,088	-200,000	-0,011	-0,060
-235,073	-200,000	-0,033	-0,110
-234,059	187,837	-0,063	0,068
-233,044	800,000	-0,023	0,051
-232,030	800,000	0,011	0,033
-231,015	-146,801	0,040	0,002
-230,000	-140,822	-0,059	0,004
-228,986	-106,023	0,141	0,023
-227,971	800,000	0,062	0,191
-226,957	114,290	-0,067	0,059
-225,942	-200,000	-0,008	0,039
-224,927	-110,335	0,021	0,003
-223,913	-60,484	-0,014	-0,004
-222,898	-13,337	-0,168	0,079
-221,884	-151,143	0,008	-0,000
-220,869	65,866	-0,033	0,024
-219,855	51,100	0,157	0,108
-218,840	-48,052	-0,043	-0,015
-217,825	647,396	0,042	-0,078
-216,811	412,697	0,045	-0,070
-215,796	292,414	-0,095	-0,125
-214,782	800,000	-0,013	0,027
-213,767	-200,000	0,040	0,146
-212,752	-200,000	0,034	-0,179
-211,738	-138,458	-0,026	0,002
-210,723	-200,000	0,010	0,101
-209,709	-154,762	-0,069	0,003
-208,694	133,114	-0,073	-0,068
-207,679	396,985	0,014	-0,022
-206,665	449,988	0,002	0,003
-205,650	82,906	-0,038	-0,030
-204,636	-200,000	0,029	0,142
-203,621	588,818	-0,045	-0,081
-202,606	147,928	0,038	0,037
-201,592	-200,000	0,013	-0,056
-200,577	800,000	-0,031	0,074
-199,563	-3,461	0,081	-0,041
-198,548	34,665	0,070	0,044
-197,533	623,269	0,086	-0,157
-196,519	-200,000	-0,024	0,141
-195,504	585,828	0,050	-0,089
-194,490	-86,043	-0,108	-0,024
-193,475	29,934	0,068	0,041
-192,460	-46,440	-0,143	-0,050
-191,446	-200,000	0,012	0,112
-190,431	-86,227	-0,017	-0,004
-189,417	-200,000	-0,017	-0,088
-188,402	462,206	-0,056	-0,091
-187,387	800,000	0,013	0,041
-186,373	-200,000	0,005	-0,062
-185,358	-200,000	0,003	0,095
-184,344	-200,000	-0,012	0,156
-183,329	8,075	0,142	-0,077
-182,315	58,792	0,076	0,054
-181,300	227,223	-0,007	-0,008
-180,285	-200,000	-0,039	-0,129
-179,271	291,493	-0,035	-0,046
-178,256	537,877	0,033	-0,057
-177,242	-165,114	-0,042	0,001
-176,227	134,977	-0,028	-0,026
-175,212	-144,777	0,081	0,005
-174,198	-200,000	-0,019	-0,089
-173,183	-145,031	0,044	0,003
-172,169	504,350	-0,009	-0,015
-171,154	800,000	-0,016	-0,040
-170,139	-74,616	0,082	-0,021
-169,125	44,571	0,047	0,031
-168,110	29,745	-0,091	0,055
-167,096	-108,018	0,068	-0,011
-166,081	-200,000	-0,013	-0,085
-165,066	367,189	-0,142	-0,207
-164,052	-200,000	0,001	-0,048
-163,037	800,000	-0,059	-0,168
-162,023	-71,093	0,099	-0,027
-161,008	-200,000	0,015	-0,084
-159,993	-107,672	0,168	0,026
-158,979	800,000	-0,035	0,089
-157,964	-134,751	-0,113	-0,010
-156,950	-200,000	0,012	-0,052
-155,935	228,750	0,090	-0,106
-154,920	-84,496	0,181	-0,041
-153,906	367,504	0,041	0,059
-152,891	72,649	0,085	-0,063
-151,877	-54,175	-0,122	0,040
-150,862	622,324	0,055	-0,101
-149,847	800,000	0,024	0,050
-148,833	-14,985	0,094	0,043
-147,818	800,000	-0,059	0,156
-146,804	305,899	0,028	-0,038
-145,789	-65,652	0,014	0,004
-144,775	175,503	-0,059	-0,062
-143,760	378,461	0,020	-0,029
-142,745	-200,000	0,004	-0,092
-141,731	-139,243	-0,040	-0,003
-140,716	-200,000	0,004	0,019
-139,702	800,000	0,021	0,049
-138,687	342,536	0,053	0,075
-137,672	1,452	0,100	0,052
-136,658	-98,242	-0,088	-0,016
-135,643	44,429	0,152	-0,100
-134,629	327,082	-0,049	-0,067
-133,614	46,735	-0,021	-0,014
-132,599	-200,000	0,015	0,180
-131,585	-38,127	-0,164	0,062
-130,570	363,636	-0,055	-0,079
-129,556	17,694	-0,205	-0,117
-128,541	723,321	0,044	-0,085
-127,526	-72,494	-0,074	0,019
-126,512	-200,000	0,009	0,102
-125,497	28,436	-0,023	-0,014
-124,483	340,749	0,088	-0,124
-123,468	200,777	0,077	0,085
-122,453	358,668	-0,046	-0,067
-121,439	162,452	0,055	-0,055
-120,424	343,342	0,036	-0,051
-119,410	800,000	-0,007	0,019
-118,395	-45,485	-0,125	0,044
-117,380	7,196	0,068	-0,037
-116,366	-200,000	-0,013	-0,055
-115,351	182,381	0,037	-0,039
-114,337	800,000	-0,041	-0,096
-113,322	603,910	-0,066	-0,118
-112,307	-200,000	-0,006	0,127
-111,293	-2,170	-0,073	0,037
-110,278	-200,000	0,025	0,133
-109,264	800,000	-0,087	0,209
-108,249	-200,000	0,023	-0,121
-107,234	800,000	-0,033	-0,094
-106,220	-200,000	-0,025	0,095
-105,205	153,997	0,049	0,048
-104,191	378,255	0,008	-0,012
-103,176	-35,123	0,114	0,044
-102,162	-65,280	0,057	0,016
-101,147	-200,000	-0,002	-0,131
-100,132	153,983	0,042	-0,042
-99,118	-45,116	0,149	0,053
-98,103	93,575	0,047	-0,038
-97,089	-200,000	0,016	0,058
-96,074	-200,000	-0,007	0,100
-95,059	711,771	-0,054	-0,103
-94,045	260,340	0,026	0,033
-93,030	658,968	0,034	-0,063
-92,016	203,541	-0,099	-0,110
-91,001	48,104	0,087	-0,058
-89,986	632,094	0,017	0,032
-88,972	-108,604	0,155	-0,024
-87,957	37,183	0,126	0,080
-86,943	-200,000	-0,005	0,106
-85,928	-200,000	0,017	-0,108
-84,913	800,000	0,041	-0,127
-83,899	800,000	0,025	-0,059
-82,884	-200,000	0,021	0,101
-81,870	-200,000	-0,047	0,169
-80,855	90,018	-0,037	0,030
-79,840	-123,030	0,106	-0,012
-78,826	-117,679	-0,159	-0,020
-77,811	-13,783	0,040	-0,018
-76,797	800,000	-0,017	0,045
-75,782	-100,738	0,185	0,032
-74,767	-200,000	-0,000	0,121
-73,753	-28,664	-0,015	0,006
-72,738	-89,130	0,174	-0,037
-71,724	71,319	0,065	-0,048
-70,709	800,000	-0,047	0,100
-69,694	-110,792	-0,125	0,018
-68,680	800,000	0,023	0,067
-67,665	-9,797	0,123	-0,058
-66,651	-37,710	-0,083	-0,032
-65,636	-112,445	-0,110	0,016
-64,622	-58,009	-0,019	-0,006
-63,607	239,448	-0,085	-0,102
-62,592	-200,000	0,009	0,089
-61,578	800,000	0,024	-0,056
-60,563	-200,000	-0,010	0,079
-59,549	595,410	-0,068	0,122
-58,534	90,016	-2,769	-2,218
-57,519	-68,327	0,579	-0,160
-56,505	-200,000	-1,723	-5,583
-55,490	550,307	1,253	2,164
-54,476	800,000	5,161	11,298
-53,461	-200,000	23,126	348,891
-52,446	800,000	766,003	2264,327
-51,432	496,708	1642,536	2718,749
-50,417	92,793	1598,169	1293,103
-49,403	60,306	1252,922	887,566
-48,388	20,901	1005,272	582,662
-47,373	18,321	973,001	555,527
-46,359	11,669	959,942	526,559
-45,344	7,533	956,731	511,398
-44,330	7,919	954,502	511,434
-43,315	6,973	952,737	507,415
-42,300	6,910	951,670	506,624
-41,286	6,892	950,760	506,062
-40,271	6,909	949,569	505,460
-39,257	7,000	948,723	505,284
-38,242	6,913	947,691	504,433
-37,227	6,902	947,099	504,063
-36,213	6,900	946,211	503,563
-35,198	6,888	945,398	503,073
-34,184	7,023	944,493	503,004
-33,169	6,825	943,854	502,010
-32,154	6,953	942,865	501,874
-31,140	6,943	942,101	501,417
-30,125	6,981	941,130	500,999
-29,111	6,940	940,393	500,456
-28,096	6,938	939,842	500,137
-27,082	6,958	939,068	499,768
-26,067	6,908	938,610	499,347
-25,052	6,846	937,799	498,699
-24,038	6,901	937,043	498,452
-23,023	6,854	936,410	497,947
-22,009	6,910	935,715	497,734
-20,994	6,975	935,139	497,614
-19,979	6,920	934,350	497,000
-18,965	6,913	933,728	496,628
-17,950	6,940	933,308	496,469
-16,936	6,942	932,634	496,096
-15,921	6,909	931,976	495,623
-14,906	6,851	931,334	495,081
-13,892	6,852	930,621	494,683
-12,877	6,811	930,145	494,283
-11,863	6,759	929,547	493,782
-10,848	6,815	928,872	493,579
-9,833	6,927	928,541	493,735
-8,819	6,857	927,768	493,084
-7,804	6,794	927,176	492,553
-6,790	6,807	926,404	492,164
-5,775	6,879	925,993	492,153
-4,760	6,883	925,389	491,825
-3,746	6,852	924,943	491,471
-2,731	6,730	924,112	490,629
-1,717	6,666	923,433	490,048
-0,702	6,697	922,863	489,824
0,313	6,462	922,385	489,574
1,327	9,896	919,542	498,709
2,342	18,459	768,492	438,902
3,356	13,218	442,478	244,892
4,371	-12,637	310,159	144,375
5,386	-16,105	293,084	132,934
6,400	-18,270	286,905	127,991
7,415	-18,488	284,506	126,697
8,429	-19,273	282,555	125,056
9,444	-19,119	281,536	124,742
10,459	-19,069	280,926	124,509
11,473	-19,224	280,396	124,114
12,488	-19,150	279,925	123,966
13,502	-19,111	279,405	123,762
14,517	-18,892	278,907	123,740
15,531	-19,144	278,567	123,337
16,546	-18,907	278,245	123,410
17,561	-19,054	277,699	123,017
18,575	-19,052	277,524	122,930
19,590	-19,004	277,074	122,765
20,604	-18,881	276,846	122,770
21,619	-18,938	276,389	122,502
22,634	-18,785	275,957	122,445
23,648	-18,923	275,801	122,234
24,663	-19,091	275,569	121,962
25,677	-19,039	275,348	121,902
26,692	-18,914	274,843	121,785
27,707	-18,901	274,656	121,704
28,721	-19,056	274,499	121,478
29,736	-18,933	274,031	121,375
30,750	-19,035	273,802	121,167
31,765	-19,028	273,668	121,103
32,780	-18,986	273,415	121,020
33,794	-18,679	273,199	121,200
34,809	-18,895	272,935	120,871
35,823	-18,847	272,584	120,750
36,838	-18,904	272,283	120,553
37,853	-19,073	272,204	120,350
38,867	-19,146	271,993	120,178
39,882	-18,923	271,474	120,145
40,896	-18,947	271,406	120,082
41,911	-18,935	271,080	119,938
42,926	-18,804	270,947	119,990
43,940	-18,868	270,577	119,756
44,955	-18,885	270,401	119,651
45,969	-18,899	270,189	119,534
46,984	-18,977	270,119	119,420
47,999	-18,931	269,823	119,322
49,013	-18,714	269,587	119,406
50,028	-18,636	269,316	119,347
51,042	-18,736	269,176	119,182
52,057	-18,722	268,882	119,055
53,071	-18,608	268,717	119,075
54,086	-18,748	268,459	118,823
55,101	-18,801	268,232	118,663
56,115	-18,873	267,974	118,472
57,130	-18,838	267,759	118,399
58,144	-18,910	267,456	118,188
59,159	-19,093	267,200	117,898
60,174	-18,734	266,805	118,040
61,188	-18,873	266,707	117,859
62,203	-18,898	266,528	117,747
63,217	-19,023	266,438	117,583
64,232	-18,942	266,068	117,483
65,247	-18,737	265,741	117,514
66,261	-18,892	265,570	117,287
67,276	-18,952	265,451	117,170
68,290	-18,728	265,185	117,245
69,305	-18,662	264,833	117,138
70,320	-18,725	264,691	117,008
71,334	-18,788	264,608	116,904
72,349	-18,867	264,191	116,638
73,363	-18,824	264,051	116,605
74,378	-18,989	263,658	116,273
75,393	-18,929	263,551	116,269
76,407	-18,821	263,290	116,240
77,422	-18,720	263,069	116,223
78,436	-18,822	262,730	115,972
79,451	-18,915	262,626	115,832
80,466	-19,036	262,441	115,632
81,480	-18,821	262,131	115,677
82,495	-18,863	261,889	115,522
83,509	-18,727	261,773	115,582
84,524	-18,719	261,624	115,514
85,539	-18,697	261,320	115,388
86,553	-18,963	261,205	115,091
87,568	-18,860	260,962	115,065
88,582	-18,737	260,695	115,046
89,597	-18,672	260,515	115,014
90,611	-18,773	260,268	114,805
91,626	-18,877	260,122	114,638
92,641	-18,741	259,788	114,602
93,655	-18,668	259,532	114,543
94,670	-18,874	259,599	114,380
95,684	-18,817	259,379	114,323
96,699	-18,827	259,071	114,168
97,714	-18,742	258,988	114,196
98,728	-18,743	258,781	114,095
99,743	-18,772	258,599	113,978
100,757	-18,665	258,230	113,900
101,772	-18,864	258,102	113,659
102,787	-18,970	257,888	113,461
103,801	-18,809	257,571	113,452
104,816	-18,805	257,442	113,389
105,830	-18,579	257,355	113,538
106,845	-18,898	257,048	113,114
107,860	-18,794	256,862	113,112
108,874	-18,748	256,624	113,038
109,889	-18,763	256,485	112,954
110,903	-18,796	256,184	112,782
111,918	-18,728	256,073	112,783
112,933	-18,860	255,993	112,622
113,947	-18,864	255,738	112,497
114,962	-18,745	255,395	112,439
115,976	-18,913	255,283	112,234
116,991	-18,723	254,918	112,228
118,006	-18,720	254,913	112,218
119,020	-18,819	254,795	112,071
120,035	-18,691	254,621	112,095
121,049	-19,021	254,337	111,675
122,064	-18,837	254,160	111,746
123,079	-18,795	253,943	111,677
124,093	-18,851	253,756	111,536
125,108	-18,871	253,512	111,402
126,122	-18,832	253,544	111,440
127,137	-18,733	253,253	111,387
128,151	-18,587	253,136	111,451
129,166	-18,605	252,633	111,204
130,181	-18,721	252,616	111,087
131,195	-18,782	252,399	110,930
132,210	-18,705	252,111	110,859
133,224	-18,806	251,933	110,685
134,239	-18,838	251,780	110,580
135,254	-18,685	251,447	110,555
136,268	-18,635	251,366	110,552
137,283	-18,607	251,095	110,447
138,297	-18,650	250,840	110,288
139,312	-18,724	250,891	110,237
140,327	-18,703	250,468	110,060
141,341	-18,744	250,343	109,961
142,356	-18,724	250,039	109,834
143,370	-18,752	249,906	109,742
144,385	-18,855	249,689	109,550
145,400	-18,615	249,400	109,616
146,414	-18,747	249,258	109,432
147,429	-18,732	249,095	109,363
148,443	-18,775	248,882	109,224
149,458	-18,917	248,719	109,024
150,473	-18,861	248,641	109,027
151,487	-18,682	248,507	109,108
152,502	-18,757	248,229	108,913
153,516	-18,690	247,881	108,807
154,531	-18,680	247,853	108,794
155,546	-18,837	247,743	108,604
156,560	-18,637	247,479	108,647
157,575	-18,693	247,340	108,528
158,589	-18,614	246,916	108,399
159,604	-18,755	246,894	108,262
160,619	-18,766	246,805	108,205
161,633	-18,856	246,476	107,975
162,648	-18,602	246,356	108,124
163,662	-18,666	246,218	108,001
164,677	-18,537	245,985	107,997
165,692	-18,747	245,812	107,736
166,706	-18,833	245,820	107,659
167,721	-18,702	245,462	107,601
168,735	-18,783	245,314	107,459
169,750	-18,652	245,220	107,518
170,764	-18,668	245,002	107,399
171,779	-18,807	244,942	107,248
172,794	-18,772	244,849	107,227
173,808	-18,678	244,513	107,147
174,823	-18,630	244,400	107,128
175,837	-18,518	244,220	107,132
176,852	-18,734	244,036	106,864
177,867	-18,673	243,874	106,833
178,881	-18,601	243,737	106,823
179,896	-18,783	243,420	106,525
180,910	-18,731	243,309	106,510
181,925	-18,919	243,121	106,264
182,940	-18,800	242,956	106,279
183,954	-18,695	242,709	106,249
184,969	-18,732	242,732	106,218
185,983	-18,786	242,391	106,016
186,998	-18,743	242,228	105,970
188,013	-18,693	242,054	105,925
189,027	-18,702	241,895	105,839
190,042	-19,019	241,631	105,455
191,056	-18,821	241,396	105,505
192,071	-18,669	241,376	105,611
193,086	-18,666	241,109	105,487
194,100	-18,606	240,972	105,467
195,115	-18,548	240,707	105,388
196,129	-18,541	240,524	105,304
197,144	-18,736	240,330	105,052
198,159	-18,804	240,157	104,912
199,173	-18,858	240,077	104,824
200,188	-18,703	239,929	104,875
201,202	-18,716	239,774	104,788
202,217	-18,677	239,601	104,734
203,232	-18,538	239,273	104,693
204,246	-18,490	239,171	104,678
205,261	-18,536	238,863	104,497
206,275	-16,977	239,559	106,050
207,290	-11,989	241,475	110,942
208,304	-5,424	243,313	117,139
209,319	-2,683	244,085	119,742
210,334	-1,469	244,331	120,845
211,348	-0,347	244,557	121,864
212,363	0,106	244,515	122,202
213,377	0,301	244,474	122,330
214,392	0,465	244,499	122,465
215,407	0,666	244,440	122,589
216,421	0,789	244,231	122,573
217,436	0,925	243,916	122,515
218,450	0,994	243,905	122,554
219,465	0,984	243,770	122,467
220,480	0,930	243,531	122,293
221,494	0,874	243,364	122,153
222,509	0,433	243,013	121,608
223,523	0,433	242,932	121,557
224,538	0,460	242,635	121,419
225,553	0,336	242,512	121,246
226,567	0,413	242,271	121,177
227,582	0,343	242,243	121,096
228,596	0,418	241,938	120,993
229,611	0,263	241,969	120,873
230,626	0,396	241,734	120,852
231,640	0,345	241,522	120,694
232,655	0,415	241,401	120,679
233,669	0,396	241,164	120,534
234,684	0,182	241,181	120,360
235,699	0,368	240,897	120,357
236,713	0,357	240,818	120,298
237,728	0,353	240,685	120,218
238,742	0,508	240,332	120,155
239,757	0,581	240,355	120,214
240,772	0,446	240,259	120,047
241,786	0,371	240,034	119,864
242,801	0,282	239,899	119,715
243,815	0,239	239,846	119,643
244,830	0,430	239,596	119,661
245,844	0,200	239,427	119,382
246,859	0,286	239,105	119,280
247,874	0,350	239,037	119,286
248,888	0,555	238,720	119,280
249,903	0,177	238,727	118,972
250,917	0,528	238,633	119,193
251,932	0,447	238,533	119,069
252,947	0,371	238,304	118,883
253,961	0,318	238,178	118,768
254,976	0,342	237,996	118,686
255,990	0,303	237,822	118,558
257,005	0,339	237,715	118,522
258,020	0,530	237,402	118,507
259,034	0,353	237,264	118,287
260,049	0,403	237,264	118,316
261,063	0,479	237,035	118,251
262,078	0,659	236,843	118,287
263,093	0,400	236,810	118,056
264,107	0,478	236,519	117,961
265,122	0,436	236,453	117,886
266,136	0,350	236,234	117,698
267,151	0,227	236,159	117,554
268,166	0,580	235,953	117,717
269,180	0,360	235,830	117,473
270,195	0,521	235,632	117,490
271,209	0,423	235,314	117,245
272,224	0,453	235,360	117,280
273,239	0,357	235,110	117,070
274,253	0,325	235,098	117,029
275,268	0,261	234,872	116,856
276,282	0,389	234,620	116,819
277,297	0,234	234,631	116,694
278,312	0,338	234,366	116,633
279,326	0,544	234,426	116,813
280,341	0,450	234,182	116,608
281,355	0,473	234,064	116,557
282,370	0,681	233,802	116,577
283,384	0,364	233,572	116,205
284,399	0,447	233,409	116,179
285,414	0,413	233,302	116,089
286,428	0,653	233,250	116,238
287,443	0,383	233,183	115,986
288,457	0,557	232,995	116,016
289,472	0,610	232,797	115,948
290,487	0,290	232,748	115,667
291,501	0,523	232,589	115,757
292,516	0,594	232,450	115,733
293,530	0,313	232,275	115,418
294,545	0,401	232,129	115,404
295,560	0,548	231,812	115,348
296,574	0,481	231,867	115,314
297,589	0,629	231,546	115,257
298,603	0,661	231,498	115,248
299,618	0,503	231,367	115,051
300,633	0,570	231,318	115,068
301,647	0,569	231,192	114,994
302,662	0,571	231,148	114,963
303,676	0,707	230,786	114,877
304,691	0,515	230,582	114,619
305,706	0,705	230,337	114,632
306,720	0,919	230,245	114,739
307,735	0,774	230,145	114,569
308,749	0,756	230,061	114,503
309,764	0,689	229,893	114,358
310,779	0,688	229,724	114,263
311,793	0,624	229,468	114,077
312,808	0,767	229,463	114,173
313,822	0,648	229,312	113,997
314,837	0,844	229,069	114,015
315,852	0,730	228,890	113,829
316,866	0,827	228,979	113,937
317,881	0,613	228,832	113,691
318,895	0,566	228,640	113,550
319,910	0,836	228,410	113,630
320,925	0,684	228,323	113,462
321,939	0,560	228,232	113,313
322,954	0,829	228,040	113,410
323,968	0,839	227,805	113,291
324,983	0,867	227,717	113,258
325,997	0,556	227,646	112,978
327,012	0,661	227,503	112,977
328,027	0,927	227,163	112,997
329,041	0,752	227,123	112,836
330,056	0,835	226,988	112,821
331,070	0,777	226,997	112,771
332,085	0,778	226,749	112,639
333,100	0,656	226,680	112,504
334,114	0,850	226,303	112,452
335,129	0,819	226,240	112,387
336,143	0,650	226,064	112,164
337,158	0,968	225,883	112,301
338,173	0,761	225,804	112,097
339,187	0,905	225,672	112,129
340,202	0,731	225,625	111,966
341,216	0,813	225,427	111,919
342,231	0,811	225,282	111,836
343,246	0,891	225,075	111,782
344,260	0,750	225,133	111,696
345,275	0,999	224,728	111,670
346,289	1,062	224,645	111,665
347,304	0,936	224,630	111,555
348,319	1,138	224,404	111,582
349,333	0,925	224,134	111,280
350,348	0,925	224,119	111,263
351,362	0,999	223,961	111,230
352,377	0,989	223,797	111,131
353,392	0,897	223,739	111,024
354,406	1,076	223,604	111,079
355,421	191,293	1309,665	1371,073
356,435	153,146	1441,815	1370,887
