DTS Sentinel unit serial number:	SN410029Multiplexer serial number:	ORYXHardware model number:	OX2-SRSoftware version number:	ORYX F/W v4,00 Oryx Data Collector v3.7.2.0data status	okinstallation	B5 Nyhavnadifferential loss correction	single-endedforward channel	channel 2reverse channel	N/Adate	2023/12/14time	12:22:13forward acquisition time	300,00reverse acquisition time	0,00gamma	499,1914k internal	0,3158k external	0,3158temperature offset calibration	1,0000default loss term (dB/km)	0,3820temperature slope calibration	1,0000multiplexer offset coefficient	1,0000multiplexer slope coefficient	1,0000fibre end	0,00T internal ref (°C)	7,76T ext. ref 1 (°C)	-7,71T ext. ref 2 (°C)	-7,76length (m)	temperature (°C)	Stokes	anti-Stokes-744,400	800,000	-0,034	0,078
-743,385	-121,349	-0,244	0,030
-742,371	-79,718	0,230	0,057
-741,356	-128,340	-0,359	-0,037
-740,342	245,506	0,152	0,189
-739,327	-43,513	-0,282	-0,104
-738,312	-130,147	0,137	0,014
-737,298	-102,397	-0,322	-0,056
-736,283	-29,695	0,197	0,082
-735,269	-150,868	-0,248	-0,014
-734,254	776,821	0,077	0,157
-733,239	9,002	-0,491	-0,272
-732,225	7,048	0,149	0,081
-731,210	561,592	0,070	0,125
-730,196	169,959	0,107	0,113
-729,181	-89,280	-0,042	-0,009
-728,167	274,386	0,030	0,039
-727,152	8,150	-0,124	-0,068
-726,137	175,498	-0,116	0,124
-725,123	800,000	0,010	0,027
-724,108	123,478	-0,094	-0,086
-723,094	211,660	-0,069	-0,080
-722,079	-200,000	-0,046	-0,149
-721,064	20,523	0,065	0,039
-720,050	340,611	-0,133	-0,192
-719,035	-200,000	0,000	-0,050
-718,021	-46,825	-0,064	0,023
-717,006	103,563	0,053	-0,046
-715,991	-15,986	-0,189	-0,088
-714,977	800,000	-0,026	-0,082
-713,962	567,337	-0,035	-0,063
-712,948	-200,000	0,020	0,076
-711,933	-125,833	0,074	-0,008
-710,918	-200,000	0,030	0,119
-709,904	-200,000	-0,014	-0,075
-708,889	-49,909	0,101	-0,035
-707,875	18,068	-0,107	-0,063
-706,860	17,573	-0,075	-0,044
-705,845	4,305	-0,101	-0,054
-704,831	800,000	0,052	0,110
-703,816	-14,446	-0,069	0,033
-702,802	-200,000	-0,032	-0,127
-701,787	338,772	-0,033	-0,047
-700,772	-14,498	0,195	0,092
-699,758	74,174	0,028	0,021
-698,743	-200,000	-0,006	-0,054
-697,729	-105,497	-0,036	0,006
-696,714	107,328	-0,042	0,037
-695,699	382,928	-0,034	0,052
-694,685	-200,000	-0,036	-0,157
-693,670	-200,000	0,019	-0,100
-692,656	800,000	-0,039	-0,119
-691,641	800,000	0,020	-0,047
-690,627	800,000	-0,003	-0,010
-689,612	-200,000	0,031	0,124
-688,597	-200,000	0,021	0,084
-687,583	185,631	-0,045	-0,049
-686,568	-68,496	-0,201	-0,057
-685,554	-10,653	0,129	-0,062
-684,539	-54,272	0,096	0,032
-683,524	192,092	0,041	-0,045
-682,510	146,021	-0,042	0,041
-681,495	101,511	-0,124	-0,106
-680,481	-200,000	0,016	-0,078
-679,466	-200,000	-0,034	-0,130
-678,451	-128,558	0,088	0,009
-677,437	800,000	-0,054	0,149
-676,422	-200,000	0,001	0,156
-675,408	-182,067	0,019	-0,000
-674,393	164,366	-0,039	-0,040
-673,378	83,987	0,051	0,041
-672,364	-194,811	-0,113	0,001
-671,349	800,000	-0,052	-0,133
-670,335	464,184	-0,016	0,026
-669,320	744,604	-0,076	0,152
-668,305	356,731	0,089	0,131
-667,291	-200,000	-0,000	-0,082
-666,276	-200,000	0,031	0,147
-665,262	590,545	0,016	0,028
-664,247	419,883	-0,046	0,072
-663,232	776,042	0,079	-0,160
-662,218	96,612	0,127	0,107
-661,203	19,787	-0,030	0,018
-660,189	159,954	-0,015	-0,015
-659,174	532,008	-0,106	-0,184
-658,159	-200,000	0,003	-0,153
-657,145	239,695	-0,153	-0,187
-656,130	47,362	0,181	-0,124
-655,116	-45,550	-0,050	0,018
-654,101	800,000	0,076	0,207
-653,086	9,236	-0,086	-0,048
-652,072	32,504	0,138	-0,088
-651,057	73,596	-0,049	-0,037
-650,043	-200,000	-0,007	-0,025
-649,028	159,467	0,036	-0,037
-648,014	205,293	-0,012	-0,014
-646,999	122,038	0,072	0,066
-645,984	800,000	0,058	-0,154
-644,970	-200,000	-0,004	-0,064
-643,955	-48,414	0,073	0,026
-642,941	-63,145	0,040	-0,012
-641,926	-11,932	-0,070	-0,034
-640,911	-200,000	0,022	-0,100
-639,897	-88,886	0,068	-0,015
-638,882	184,368	-0,043	-0,046
-637,868	-24,030	-0,113	-0,049
-636,853	-45,019	-0,199	-0,072
-635,838	-56,708	-0,129	-0,042
-634,824	-111,715	0,168	0,025
-633,809	-8,711	0,133	-0,065
-632,795	76,883	0,026	0,020
-631,780	-183,393	0,071	-0,001
-630,765	451,349	0,018	-0,029
-629,751	-200,000	0,019	0,116
-628,736	338,287	-0,019	-0,028
-627,722	800,000	-0,036	-0,089
-626,707	800,000	0,032	0,067
-625,692	-78,845	0,088	0,022
-624,678	-200,000	0,005	0,020
-623,663	-200,000	-0,006	-0,086
-622,649	-143,988	-0,207	-0,014
-621,634	-83,064	-0,096	0,023
-620,619	800,000	0,052	-0,112
-619,605	-29,047	0,046	-0,019
-618,590	-200,000	-0,019	0,097
-617,576	800,000	-0,046	-0,101
-616,561	746,472	-0,086	0,171
-615,546	-200,000	0,007	-0,056
-614,532	395,522	-0,072	-0,111
-613,517	-101,792	0,080	0,014
-612,503	175,698	0,028	0,030
-611,488	240,196	-0,118	0,144
-610,474	207,183	-0,094	-0,107
-609,459	-200,000	-0,001	0,076
-608,444	-200,000	0,013	-0,067
-607,430	-200,000	0,003	-0,010
-606,415	-78,619	-0,061	-0,015
-605,401	62,324	-0,057	0,042
-604,386	571,448	0,021	0,038
-603,371	21,664	-0,064	-0,038
-602,357	36,911	0,025	0,016
-601,342	-104,713	-0,082	0,014
-600,328	-200,000	-0,009	-0,128
-599,313	-200,000	-0,022	0,126
-598,298	11,779	-0,095	-0,054
-597,284	-38,876	0,084	0,032
-596,269	127,613	-0,094	-0,088
-595,255	32,100	0,047	0,030
-594,240	-200,000	0,012	-0,098
-593,225	800,000	-0,044	-0,131
-592,211	-43,039	-0,206	0,076
-591,196	194,842	-0,031	-0,034
-590,182	-200,000	0,005	0,147
-589,167	151,147	0,107	0,107
-588,152	800,000	-0,023	0,053
-587,138	-109,331	-0,052	-0,008
-586,123	231,133	-0,120	-0,145
-585,109	-200,000	0,014	0,054
-584,094	800,000	-0,009	-0,027
-583,079	95,848	0,046	-0,039
-582,065	-58,985	-0,024	0,007
-581,050	-200,000	0,032	0,113
-580,036	-109,587	-0,185	-0,028
-579,021	-87,924	-0,188	0,041
-578,006	-200,000	-0,003	0,016
-576,992	-72,196	-0,008	-0,002
-575,977	-34,370	0,131	-0,052
-574,963	-200,000	-0,020	0,084
-573,948	-94,198	-0,085	0,017
-572,934	-162,944	0,069	-0,002
-571,919	77,913	-0,055	-0,043
-570,904	-200,000	0,001	-0,155
-569,890	800,000	-0,021	-0,046
-568,875	800,000	-0,036	0,074
-567,861	-64,351	0,087	-0,026
-566,846	-200,000	0,016	0,000
-565,831	-200,000	0,004	0,058
-564,817	-200,000	-0,015	-0,103
-563,802	-200,000	-0,040	-0,275
-562,788	5,469	-0,172	-0,093
-561,773	275,267	0,055	0,071
-560,758	-174,254	0,043	-0,001
-559,744	392,397	-0,066	0,101
-558,729	580,493	-0,017	0,030
-557,715	146,240	0,026	0,025
-556,700	309,778	-0,065	0,089
-555,685	-200,000	0,001	0,086
-554,671	-69,263	0,074	-0,021
-553,656	-101,587	0,202	-0,036
-552,642	-75,256	-0,022	0,006
-551,627	95,030	-0,068	0,057
-550,612	306,743	-0,041	0,056
-549,598	-29,423	-0,022	-0,009
-548,583	538,904	-0,079	-0,138
-547,569	-110,135	-0,053	0,008
-546,554	-200,000	-0,007	-0,103
-545,539	-200,000	0,013	-0,109
-544,525	110,634	-0,073	0,064
-543,510	-24,140	0,010	0,004
-542,496	219,905	-0,024	0,028
-541,481	191,834	-0,076	-0,084
-540,466	-45,771	0,095	0,034
-539,452	800,000	-0,009	-0,024
-538,437	-64,220	0,081	0,024
-537,423	1,764	-0,064	0,034
-536,408	-200,000	0,021	0,105
-535,393	133,580	-0,080	0,075
-534,379	193,172	-0,107	0,119
-533,364	-200,000	0,045	-0,155
-532,350	-85,383	-0,074	-0,017
-531,335	25,941	0,102	0,062
-530,321	299,848	0,072	0,097
-529,306	442,412	0,042	-0,068
-528,291	-47,502	-0,151	-0,053
-527,277	800,000	-0,038	0,105
-526,262	-54,242	-0,035	-0,012
-525,248	-200,000	0,014	-0,067
-524,233	281,349	-0,066	0,087
-523,218	-2,096	0,083	-0,043
-522,204	-90,353	0,027	-0,006
-521,189	476,635	-0,027	-0,045
-520,175	316,412	0,057	-0,079
-519,160	-69,435	-0,069	-0,019
-518,145	25,160	-0,055	-0,033
-517,131	-76,899	0,013	-0,003
-516,116	-166,443	0,137	-0,004
-515,102	429,876	0,048	0,077
-514,087	-200,000	0,003	-0,076
-513,072	351,647	-0,042	0,062
-512,058	-18,070	-0,065	-0,030
-511,043	800,000	-0,071	-0,152
-510,029	302,489	0,021	0,029
-509,014	800,000	0,046	-0,107
-507,999	-120,856	-0,117	-0,014
-506,985	311,040	-0,025	0,034
-505,970	-200,000	0,026	-0,121
-504,956	800,000	-0,018	0,040
-503,941	-186,066	-0,132	0,001
-502,926	359,419	0,069	0,100
-501,912	-141,826	0,030	-0,002
-500,897	0,004	-0,057	-0,029
-499,883	-50,748	0,027	0,009
-498,868	-130,806	0,072	-0,007
-497,853	-66,341	-0,073	0,021
-496,839	-171,257	0,078	-0,002
-495,824	-116,642	0,033	-0,004
-494,810	291,438	-0,040	-0,053
-493,795	733,519	-0,070	0,137
-492,781	177,697	0,077	-0,082
-491,766	266,293	0,030	0,038
-490,751	157,971	-0,113	-0,114
-489,737	-200,000	0,010	-0,136
-488,722	19,565	0,062	-0,036
-487,708	-200,000	0,016	-0,072
-486,693	8,893	-0,040	-0,022
-485,678	50,252	-0,103	0,071
-484,664	-57,344	0,121	0,039
-483,649	-86,209	-0,028	-0,006
-482,635	-200,000	-0,005	0,124
-481,620	785,821	-0,021	0,043
-480,605	9,649	0,128	-0,071
-479,591	193,207	-0,066	0,073
-478,576	85,383	0,082	-0,066
-477,562	105,477	0,073	-0,063
-476,547	100,732	-0,066	0,056
-475,532	747,623	-0,034	0,068
-474,518	-200,000	0,000	-0,006
-473,503	-200,000	0,015	0,062
-472,489	-49,344	-0,066	0,023
-471,474	-19,188	-0,020	-0,009
-470,459	-200,000	-0,008	-0,049
-469,445	445,856	0,059	-0,094
-468,430	290,889	-0,050	-0,066
-467,416	426,163	0,085	0,134
-466,401	116,269	-0,044	-0,039
-465,386	-200,000	0,018	0,100
-464,372	-103,046	-0,173	-0,030
-463,357	-158,309	0,055	-0,002
-462,343	34,899	-0,113	0,072
-461,328	800,000	-0,018	-0,041
-460,313	-9,771	0,098	0,047
-459,299	769,577	0,067	0,134
-458,284	436,212	0,062	0,099
-457,270	-51,318	-0,016	0,005
-456,255	105,317	0,027	-0,024
-455,241	-90,383	-0,095	0,020
-454,226	-88,839	-0,164	0,035
-453,211	-85,229	0,065	0,015
-452,197	204,111	-0,072	0,082
-451,182	507,164	0,042	0,071
-450,168	333,353	0,057	-0,080
-449,153	170,411	-0,040	-0,042
-448,138	749,222	-0,069	-0,136
-447,124	44,401	-0,102	-0,068
-446,109	646,705	0,044	-0,082
-445,095	-200,000	-0,004	0,030
-444,080	-37,886	-0,058	0,023
-443,065	183,511	0,041	0,044
-442,051	-200,000	-0,032	-0,104
-441,036	800,000	-0,011	0,032
-440,022	190,282	-0,018	0,020
-439,007	-171,376	0,013	0,000
-437,992	35,037	0,035	-0,022
-436,978	-200,000	0,034	0,142
-435,963	-200,000	0,020	-0,098
-434,949	800,000	-0,024	0,073
-433,934	276,212	-0,037	-0,048
-432,919	512,462	0,032	-0,055
-431,905	-200,000	0,018	0,134
-430,890	128,682	-0,017	0,015
-429,876	-200,000	-0,007	0,044
-428,861	-200,000	0,012	0,124
-427,846	69,262	0,070	0,053
-426,832	-83,937	0,124	-0,028
-425,817	800,000	0,033	0,083
-424,803	-37,455	0,080	-0,031
-423,788	800,000	-0,065	0,147
-422,773	231,844	-0,051	-0,061
-421,759	112,495	-0,071	0,063
-420,744	-200,000	0,000	0,170
-419,730	114,564	-0,119	0,106
-418,715	-171,519	0,063	0,001
-417,701	358,728	-0,060	-0,088
-416,686	7,200	0,046	0,025
-415,671	800,000	-0,046	0,130
-414,657	-200,000	0,022	0,109
-413,642	-45,611	0,125	-0,045
-412,628	-159,850	-0,096	0,004
-411,613	237,641	-0,085	-0,103
-410,598	-47,734	-0,119	-0,042
-409,584	452,012	0,035	0,056
-408,569	-106,156	-0,129	0,021
-407,555	158,477	-0,083	-0,083
-406,540	-200,000	0,010	0,044
-405,525	-109,559	0,037	-0,006
-404,511	119,040	0,079	-0,071
-403,496	-107,941	0,135	-0,021
-402,482	-80,335	0,121	-0,029
-401,467	46,424	0,139	0,094
-400,452	596,496	0,030	-0,054
-399,438	-38,238	-0,064	0,024
-398,423	670,419	-0,016	0,030
-397,409	112,896	0,104	-0,092
-396,394	-200,000	-0,008	0,056
-395,379	43,520	0,129	-0,085
-394,365	-147,379	0,103	0,006
-393,350	306,778	0,098	-0,133
-392,336	233,508	0,033	-0,039
-391,321	42,486	-0,054	0,036
-390,306	87,180	-0,101	-0,081
-389,292	800,000	-0,021	-0,043
-388,277	-200,000	0,008	0,031
-387,263	76,066	0,049	0,037
-386,248	129,894	-0,040	0,037
-385,233	132,092	-0,052	0,049
-384,219	111,269	0,019	0,017
-383,204	160,985	-0,009	0,009
-382,190	-77,124	-0,035	-0,009
-381,175	800,000	0,057	-0,147
-380,160	12,798	0,020	0,011
-379,146	10,783	0,205	0,113
-378,131	-108,406	0,194	0,030
-377,117	-91,161	-0,206	-0,042
-376,102	-66,565	-0,040	-0,011
-375,088	-175,115	-0,042	0,001
-374,073	-200,000	0,005	-0,035
-373,058	800,000	-0,039	0,093
-372,044	38,020	-0,136	0,088
-371,029	15,950	0,115	-0,065
-370,015	-25,052	-0,080	-0,034
-369,000	363,241	0,043	-0,062
-367,985	-157,907	-0,061	0,003
-366,971	69,833	-0,114	0,086
-365,956	42,362	0,086	-0,056
-364,942	800,000	-0,021	0,043
-363,927	-89,781	-0,051	0,011
-362,912	-101,551	0,068	0,012
-361,898	800,000	-0,017	-0,047
-360,883	800,000	-0,041	-0,084
-359,869	185,626	0,073	-0,079
-358,854	329,277	-0,079	0,111
-357,839	-104,659	0,116	0,019
-356,825	-145,352	-0,089	-0,006
-355,810	800,000	-0,046	0,135
-354,796	-171,277	0,175	0,004
-353,781	118,092	-0,033	0,029
-352,766	-200,000	0,001	-0,050
-351,752	800,000	0,042	-0,085
-350,737	-91,374	0,089	0,018
-349,723	-74,002	-0,113	0,029
-348,708	-132,989	0,029	0,003
-347,693	800,000	-0,008	0,024
-346,679	-75,932	0,096	0,025
-345,664	174,994	-0,067	-0,071
-344,650	166,759	0,110	0,114
-343,635	41,659	0,062	0,041
-342,620	441,217	0,055	0,088
-341,606	-60,582	-0,025	-0,008
-340,591	-200,000	-0,037	-0,134
-339,577	-200,000	-0,010	-0,191
-338,562	-200,000	0,003	0,044
-337,548	483,767	0,019	-0,031
-336,533	-26,532	0,054	0,023
-335,518	-92,615	0,097	-0,020
-334,504	123,873	0,060	0,054
-333,489	78,861	-0,067	0,052
-332,475	-200,000	0,016	0,087
-331,460	259,708	0,063	-0,079
-330,445	-14,332	0,159	0,074
-329,431	800,000	0,043	0,108
-328,416	-74,662	0,044	-0,011
-327,402	311,830	0,045	0,062
-326,387	191,444	-0,040	0,043
-325,372	800,000	-0,040	0,080
-324,358	-200,000	-0,006	-0,082
-323,343	326,941	-0,043	0,060
-322,329	-200,000	-0,010	-0,050
-321,314	204,027	-0,051	-0,057
-320,299	248,055	-0,064	-0,079
-319,285	-200,000	-0,000	0,078
-318,270	-115,523	-0,046	-0,006
-317,256	-108,778	-0,067	0,010
-316,241	-200,000	0,004	-0,023
-315,226	-26,000	0,105	-0,044
-314,212	-200,000	0,032	0,121
-313,197	800,000	0,028	0,058
-312,183	324,802	0,031	-0,043
-311,168	-59,452	0,072	0,022
-310,153	743,678	0,071	-0,139
-309,139	-121,973	0,035	-0,004
-308,124	1,843	0,156	0,081
-307,110	155,641	0,099	-0,099
-306,095	158,356	0,016	0,016
-305,080	800,000	0,042	-0,133
-304,066	123,577	-0,041	0,037
-303,051	-200,000	-0,000	0,002
-302,037	18,819	-0,072	0,042
-301,022	63,762	0,092	0,067
-300,008	-46,296	0,184	-0,065
-298,993	800,000	0,028	0,086
-297,978	-200,000	-0,027	-0,139
-296,964	325,672	-0,084	-0,116
-295,949	234,917	-0,165	-0,197
-294,935	800,000	0,022	-0,053
-293,920	-65,175	-0,032	-0,009
-292,905	-200,000	-0,010	0,152
-291,891	-200,000	-0,009	0,228
-290,876	177,548	0,036	-0,038
-289,862	800,000	-0,034	0,071
-288,847	6,269	-0,122	0,065
-287,832	-200,000	0,008	-0,129
-286,818	198,929	0,067	-0,075
-285,803	-92,701	-0,018	0,004
-284,789	393,511	0,068	0,103
-283,774	800,000	0,051	0,140
-282,759	159,956	-0,094	-0,095
-281,745	-74,882	0,055	-0,014
-280,730	186,915	0,066	-0,071
-279,716	-200,000	-0,009	0,053
-278,701	-200,000	-0,008	-0,067
-277,686	136,713	0,127	0,120
-276,672	105,868	-0,132	0,113
-275,657	800,000	-0,044	-0,111
-274,643	800,000	-0,060	-0,121
-273,628	232,346	-0,085	-0,101
-272,613	11,263	0,052	0,029
-271,599	-92,681	0,095	0,019
-270,584	212,621	-0,015	-0,018
-269,570	549,493	0,066	0,115
-268,555	419,615	-0,086	-0,134
-267,540	8,717	0,105	0,057
-266,526	-200,000	-0,003	-0,153
-265,511	82,531	-0,048	-0,038
-264,497	-111,591	0,086	-0,013
-263,482	540,157	0,039	-0,068
-262,467	-154,051	0,044	0,002
-261,453	52,042	0,128	0,088
-260,438	-67,761	0,047	-0,013
-259,424	-200,000	0,035	0,123
-258,409	303,121	-0,130	-0,175
-257,395	67,591	0,046	0,034
-256,380	329,320	0,009	-0,012
-255,365	-29,780	0,104	-0,043
-254,351	674,657	0,075	-0,141
-253,336	111,880	0,126	-0,110
-252,322	-8,243	-0,135	0,065
-251,307	476,953	0,053	0,087
-250,292	48,366	0,071	0,048
-249,278	800,000	-0,022	-0,054
-248,263	-200,000	0,008	0,059
-247,249	-55,453	0,029	0,009
-246,234	596,732	0,033	-0,060
-245,219	475,300	-0,062	-0,101
-244,205	550,183	-0,052	0,090
-243,190	800,000	-0,052	0,141
-242,176	199,352	0,019	0,021
-241,161	800,000	-0,031	0,092
-240,146	-162,267	-0,082	0,003
-239,132	81,700	0,021	0,016
-238,117	234,068	-0,039	-0,046
-237,103	201,028	-0,040	-0,045
-236,088	-48,522	0,117	-0,040
-235,073	-174,884	0,139	0,003
-234,059	114,377	0,015	0,013
-233,044	46,998	-0,053	0,036
-232,030	-200,000	0,035	0,168
-231,015	386,129	0,006	-0,009
-230,000	800,000	-0,033	-0,079
-228,986	252,644	0,094	0,116
-227,971	49,438	0,036	-0,025
-226,957	45,964	-0,024	-0,016
-225,942	-51,020	0,071	-0,024
-224,927	800,000	-0,046	0,110
-223,913	228,710	0,093	-0,110
-222,898	300,263	-0,033	-0,044
-221,884	-200,000	0,003	-0,143
-220,869	-30,701	0,112	0,046
-219,855	-156,847	0,094	0,004
-218,840	-1,134	0,103	-0,053
-217,825	-137,399	-0,066	-0,005
-216,811	-90,884	-0,181	-0,037
-215,796	-73,182	0,051	0,013
-214,782	-200,000	0,004	0,102
-213,767	-200,000	-0,013	-0,125
-212,752	-200,000	-0,009	0,060
-211,738	-129,288	-0,077	0,008
-210,723	-88,239	-0,049	-0,011
-209,709	-200,000	0,001	0,002
-208,694	28,315	-0,108	-0,066
-207,679	-200,000	0,014	0,096
-206,665	-200,000	0,003	0,098
-205,650	81,292	-0,056	0,043
-204,636	800,000	-0,014	-0,039
-203,621	629,912	-0,060	-0,110
-202,606	3,253	-0,118	-0,062
-201,592	61,684	0,091	-0,066
-200,577	425,479	-0,042	-0,066
-199,563	180,684	-0,047	-0,050
-198,548	21,789	0,114	-0,067
-197,533	-200,000	0,017	0,085
-196,519	223,694	0,025	0,029
-195,504	800,000	0,043	0,123
-194,490	56,050	-0,083	-0,058
-193,475	127,929	0,088	-0,081
-192,460	-200,000	0,017	0,135
-191,446	800,000	0,031	0,088
-190,431	122,794	-0,056	0,051
-189,417	151,895	-0,075	0,074
-188,402	-200,000	-0,001	0,072
-187,387	63,325	0,071	-0,051
-186,373	800,000	0,028	-0,067
-185,358	-200,000	-0,001	-0,008
-184,344	-200,000	-0,004	-0,031
-183,329	-45,936	0,072	0,026
-182,315	-200,000	-0,003	0,047
-181,300	196,027	0,062	-0,068
-180,285	-8,512	-0,058	-0,028
-179,271	-51,788	-0,114	-0,038
-178,256	73,908	0,040	-0,030
-177,242	-0,145	0,133	-0,068
-176,227	800,000	0,033	0,081
-175,212	-106,113	-0,070	-0,011
-174,198	152,276	0,085	0,084
-173,183	-163,730	-0,046	-0,002
-172,169	-200,000	0,023	-0,152
-171,154	800,000	-0,024	-0,066
-170,139	-72,866	-0,109	0,029
-169,125	102,380	0,152	0,128
-168,110	-200,000	0,017	0,053
-167,096	800,000	-0,009	0,018
-166,081	16,047	-0,078	0,044
-165,066	800,000	0,002	0,005
-164,052	80,145	-0,053	0,041
-163,037	302,440	0,041	0,054
-162,023	208,258	0,025	0,028
-161,008	126,230	0,098	0,089
-159,993	327,649	0,094	0,131
-158,979	-200,000	-0,001	0,007
-157,964	-68,936	-0,145	-0,040
-156,950	155,341	0,042	-0,041
-155,935	650,464	-0,048	0,088
-154,920	-200,000	0,001	-0,012
-153,906	-200,000	-0,021	0,076
-152,891	-114,228	-0,169	-0,023
-151,877	-200,000	-0,001	0,020
-150,862	798,054	-0,037	-0,074
-149,847	-155,226	0,140	0,006
-148,833	-73,362	-0,090	-0,023
-147,818	800,000	-0,025	-0,074
-146,804	-200,000	0,041	0,154
-145,789	-200,000	0,002	0,122
-144,775	94,422	0,083	0,067
-143,760	477,102	0,079	-0,129
-142,745	309,972	-0,048	-0,065
-141,731	176,773	-0,018	-0,019
-140,716	800,000	0,071	0,165
-139,702	-34,447	0,040	-0,016
-138,687	379,100	0,043	0,063
-137,672	685,715	-0,011	0,020
-136,658	-4,449	0,060	0,030
-135,643	-82,015	-0,052	-0,012
-134,629	-136,405	0,093	-0,008
-133,614	-35,986	-0,109	-0,042
-132,599	-158,539	0,121	0,005
-131,585	800,000	-0,017	0,037
-130,570	-200,000	0,013	0,054
-129,556	786,621	0,026	0,051
-128,541	136,844	0,071	-0,066
-127,526	-200,000	-0,002	-0,024
-126,512	269,849	0,080	-0,102
-125,497	91,030	0,145	0,117
-124,483	104,260	-0,041	0,035
-123,468	249,985	-0,049	-0,060
-122,453	256,337	0,108	-0,134
-121,439	424,574	-0,079	-0,122
-120,424	-118,410	-0,055	0,007
-119,410	188,993	0,121	0,130
-118,395	-67,586	0,067	0,019
-117,380	-42,105	-0,064	-0,023
-116,366	86,638	0,027	0,021
-115,351	-19,232	-0,144	-0,064
-114,337	-200,000	0,020	0,103
-113,322	-200,000	-0,009	-0,070
-112,307	800,000	-0,036	-0,098
-111,293	-11,031	0,131	-0,062
-110,278	25,473	0,091	-0,054
-109,264	315,045	0,076	0,103
-108,249	255,847	-0,047	0,058
-107,234	800,000	0,039	0,114
-106,220	-61,755	0,088	0,026
-105,205	314,999	-0,061	-0,083
-104,191	800,000	-0,038	0,121
-103,176	-200,000	-0,008	0,070
-102,162	-200,000	-0,016	-0,081
-101,147	714,943	-0,019	0,036
-100,132	-200,000	0,002	-0,046
-99,118	-200,000	0,004	-0,021
-98,103	295,519	-0,100	-0,131
-97,089	130,848	-0,041	0,038
-96,074	20,954	0,146	-0,085
-95,059	657,408	0,010	0,018
-94,045	-135,382	0,119	-0,010
-93,030	-116,971	-0,095	0,012
-92,016	800,000	0,006	0,016
-91,001	800,000	0,069	-0,138
-89,986	-200,000	-0,008	0,040
-88,972	-76,802	0,090	-0,022
-87,957	800,000	-0,031	-0,073
-86,943	467,927	-0,061	-0,099
-85,928	-200,000	0,011	0,097
-84,913	-200,000	0,009	-0,184
-83,899	-97,085	0,060	0,011
-82,884	-39,632	-0,182	0,068
-81,870	-200,000	0,054	0,203
-80,855	-73,728	-0,080	0,021
-79,840	55,549	0,060	0,041
-78,826	800,000	-0,020	-0,045
-77,811	-200,000	0,026	-0,104
-76,797	4,592	0,102	0,054
-75,782	800,000	0,072	0,179
-74,767	45,674	-0,136	0,090
-73,753	252,009	0,024	-0,030
-72,738	-42,179	0,058	0,021
-71,724	-148,935	-0,086	-0,005
-70,709	-200,000	-0,023	-0,155
-69,694	-200,000	0,037	0,119
-68,680	516,969	-0,057	-0,096
-67,665	-29,479	0,017	0,007
-66,651	800,000	0,037	-0,090
-65,636	-137,649	-0,073	0,006
-64,622	-89,719	-0,060	-0,012
-63,607	-200,000	-0,001	-0,116
-62,592	-200,000	-0,015	-0,123
-61,578	787,733	0,054	-0,107
-60,563	117,223	-0,028	0,025
-59,549	-154,792	-0,175	0,008
-58,534	81,011	-2,739	-2,120
-57,519	-57,798	0,590	-0,184
-56,505	-200,000	-1,589	-5,434
-55,490	377,095	1,361	2,001
-54,476	800,000	5,147	11,303
-53,461	-200,000	22,341	347,757
-52,446	800,000	760,859	2288,432
-51,432	511,014	1645,084	2757,440
-50,417	96,446	1607,117	1318,986
-49,403	64,294	1264,401	912,368
-48,388	22,683	1016,453	595,646
-47,373	19,446	984,012	565,950
-46,359	12,791	970,972	536,687
-45,344	8,400	967,678	520,482
-44,330	8,867	965,896	521,030
-43,315	7,882	964,077	516,809
-42,300	7,794	963,049	515,951
-41,286	7,783	962,096	515,385
-40,271	7,845	960,862	514,905
-39,257	7,773	960,046	514,213
-38,242	7,779	959,213	513,766
-37,227	7,760	958,290	513,188
-36,213	7,762	957,661	512,838
-35,198	7,770	956,728	512,345
-34,184	7,814	955,882	512,015
-33,169	7,778	954,959	511,384
-32,154	7,809	954,114	511,009
-31,140	7,853	953,225	510,655
-30,125	7,857	952,392	510,203
-29,111	7,818	951,692	509,682
-28,096	7,839	951,104	509,412
-27,082	7,782	950,508	508,890
-26,067	7,795	949,653	508,453
-25,052	7,775	948,818	507,922
-24,038	7,774	948,196	507,568
-23,023	7,706	947,446	506,926
-22,009	7,807	946,628	506,794
-20,994	7,782	946,416	506,581
-19,979	7,756	945,731	506,110
-18,965	7,796	945,055	505,855
-17,950	7,847	944,448	505,673
-16,936	7,708	943,714	504,815
-15,921	7,752	942,953	504,530
-14,906	7,712	942,401	504,087
-13,892	7,667	941,763	503,581
-12,877	7,691	941,169	503,321
-11,863	7,644	940,480	502,783
-10,848	7,679	939,950	502,592
-9,833	7,813	939,418	502,713
-8,819	7,723	938,920	502,141
-7,804	7,678	938,241	501,613
-6,790	7,709	937,483	501,287
-5,775	7,761	936,858	501,098
-4,760	7,747	936,479	500,831
-3,746	7,679	935,715	500,187
-2,731	7,570	935,139	499,513
-1,717	7,526	934,578	499,058
-0,702	7,509	933,938	498,641
0,313	7,392	933,130	498,592
1,327	10,777	930,932	508,038
2,342	19,587	779,011	448,189
3,356	15,062	447,179	250,457
4,371	-11,035	312,047	147,076
5,386	-14,642	294,697	135,244
6,400	-16,951	288,511	130,108
7,415	-17,107	285,850	128,745
8,429	-18,120	283,746	126,800
9,444	-18,325	282,998	126,255
10,459	-18,236	282,205	125,977
11,473	-18,313	281,620	125,630
12,488	-18,158	281,311	125,630
13,502	-18,148	280,687	125,350
14,517	-18,350	280,295	124,970
15,531	-18,292	279,751	124,772
16,546	-18,405	279,487	124,534
17,561	-18,285	278,963	124,404
18,575	-18,319	278,709	124,248
19,590	-18,414	278,249	123,940
20,604	-18,166	277,981	124,047
21,619	-18,464	277,832	123,686
22,634	-18,294	277,306	123,602
23,648	-18,309	276,993	123,438
24,663	-18,088	276,588	123,454
25,677	-18,468	276,480	123,036
26,692	-18,328	276,262	123,060
27,707	-18,184	275,847	123,000
28,721	-18,305	275,758	122,836
29,736	-18,309	275,254	122,597
30,750	-18,361	275,216	122,520
31,765	-18,304	274,782	122,369
32,780	-18,300	274,630	122,295
33,794	-18,323	274,360	122,141
34,809	-18,267	274,061	122,050
35,823	-18,297	273,907	121,942
36,838	-18,163	273,483	121,869
37,853	-18,345	273,407	121,653
38,867	-18,238	273,036	121,578
39,882	-18,363	272,841	121,363
40,896	-18,166	272,608	121,432
41,911	-18,236	272,341	121,237
42,926	-18,322	272,035	121,010
43,940	-18,296	271,783	120,912
44,955	-18,433	271,624	120,702
45,969	-18,355	271,360	120,647
46,984	-18,322	271,224	120,607
47,999	-18,203	270,934	120,577
49,013	-18,217	270,888	120,533
50,028	-18,344	270,563	120,260
51,042	-18,330	270,479	120,225
52,057	-18,265	269,959	120,043
53,071	-18,171	269,601	119,959
54,086	-18,256	269,518	119,834
55,101	-18,256	269,290	119,722
56,115	-18,224	269,239	119,717
57,130	-18,123	268,797	119,603
58,144	-18,177	268,602	119,456
59,159	-18,241	268,505	119,344
60,174	-18,190	268,097	119,198
61,188	-18,298	268,078	119,081
62,203	-18,270	267,686	118,921
63,217	-18,422	267,561	118,716
64,232	-18,182	267,311	118,814
65,247	-18,114	267,085	118,765
66,261	-18,207	266,796	118,541
67,276	-18,158	266,513	118,449
68,290	-18,241	266,371	118,300
69,305	-18,263	266,297	118,237
70,320	-18,129	265,992	118,213
71,334	-18,072	265,734	118,139
72,349	-18,121	265,401	117,936
73,363	-18,225	265,341	117,805
74,378	-18,267	265,136	117,665
75,393	-18,033	264,755	117,697
76,407	-18,226	264,679	117,479
77,422	-18,296	264,385	117,274
78,436	-18,188	264,135	117,251
79,451	-18,070	263,933	117,256
80,466	-18,218	263,743	117,028
81,480	-18,313	263,369	116,766
82,495	-18,195	263,014	116,705
83,509	-18,036	262,928	116,798
84,524	-18,186	262,912	116,647
85,539	-17,951	262,518	116,672
86,553	-18,074	262,454	116,523
87,568	-18,213	262,264	116,304
88,582	-18,281	261,971	116,103
89,597	-18,175	261,754	116,090
90,611	-18,166	261,571	116,007
91,626	-18,239	261,430	115,869
92,641	-18,132	261,142	115,826
93,655	-18,294	260,995	115,607
94,670	-18,096	260,755	115,666
95,684	-18,164	260,545	115,503
96,699	-18,149	260,298	115,396
97,714	-18,158	260,272	115,366
98,728	-18,071	259,868	115,254
99,743	-18,218	259,867	115,113
100,757	-18,254	259,507	114,912
101,772	-18,233	259,273	114,817
102,787	-18,117	259,041	114,806
103,801	-18,199	258,948	114,682
104,816	-18,206	258,865	114,629
105,830	-18,075	258,518	114,580
106,845	-18,134	258,439	114,483
107,860	-17,974	257,989	114,414
108,874	-18,104	257,767	114,191
109,889	-18,187	257,737	114,094
110,903	-18,355	257,570	113,864
111,918	-18,176	257,315	113,898
112,933	-18,293	257,186	113,728
113,947	-17,989	256,926	113,868
114,962	-18,147	256,712	113,626
115,976	-17,953	256,583	113,727
116,991	-18,319	256,379	113,308
118,006	-18,164	256,289	113,393
119,020	-18,092	255,857	113,254
120,035	-18,085	255,885	113,263
121,049	-18,053	255,639	113,171
122,064	-18,049	255,498	113,102
123,079	-18,077	255,213	112,942
124,093	-18,096	255,074	112,854
125,108	-18,013	254,786	112,788
126,122	-18,142	254,713	112,634
127,137	-18,066	254,363	112,535
128,151	-17,962	254,206	112,546
129,166	-18,177	253,992	112,255
130,181	-18,175	253,724	112,128
131,195	-18,129	253,546	112,080
132,210	-18,270	253,510	111,932
133,224	-18,088	253,215	111,948
134,239	-17,969	252,908	111,905
135,254	-18,140	252,902	111,745
136,268	-18,159	252,739	111,648
137,283	-18,065	252,435	111,584
138,297	-18,148	252,174	111,387
139,312	-18,226	251,960	111,216
140,327	-17,861	251,754	111,427
141,341	-18,032	251,628	111,215
142,356	-17,947	251,323	111,143
143,370	-18,124	251,340	110,989
144,385	-18,042	251,051	110,922
145,400	-18,243	250,908	110,678
146,414	-17,962	250,660	110,797
147,429	-18,151	250,610	110,605
148,443	-18,046	250,284	110,540
149,458	-17,879	249,944	110,522
150,473	-17,920	249,839	110,431
151,487	-17,907	249,713	110,376
152,502	-18,120	249,565	110,121
153,516	-18,200	249,388	109,965
154,531	-18,096	249,158	109,941
155,546	-18,073	248,957	109,863
156,560	-18,167	248,867	109,734
157,575	-18,048	248,520	109,672
158,589	-17,986	248,431	109,674
159,604	-17,995	248,371	109,631
160,619	-18,029	247,881	109,376
161,633	-18,014	247,785	109,336
162,648	-17,917	247,702	109,371
163,662	-17,910	247,456	109,259
164,677	-17,849	247,250	109,209
165,692	-17,918	247,173	109,108
166,706	-18,011	247,088	108,982
167,721	-18,069	246,943	108,861
168,735	-17,980	246,677	108,808
169,750	-18,047	246,581	108,700
170,764	-17,813	246,355	108,785
171,779	-18,034	246,348	108,588
172,794	-17,915	246,055	108,548
173,808	-18,029	245,883	108,368
174,823	-17,941	245,714	108,358
175,837	-18,042	245,591	108,210
176,852	-17,952	245,364	108,174
177,867	-17,873	245,224	108,169
178,881	-18,010	244,890	107,898
179,896	-17,996	244,892	107,901
180,910	-18,047	244,821	107,818
181,925	-18,076	244,508	107,646
182,940	-17,999	244,276	107,599
183,954	-18,048	244,338	107,576
184,969	-17,975	243,941	107,451
185,983	-18,041	243,914	107,376
186,998	-17,937	243,693	107,355
188,013	-17,805	243,439	107,342
189,027	-17,832	243,229	107,217
190,042	-17,798	243,057	107,159
191,056	-17,921	243,025	107,035
192,071	-17,964	242,821	106,900
193,086	-18,001	242,679	106,798
194,100	-17,622	242,320	106,941
195,115	-17,848	242,213	106,699
196,129	-17,788	242,037	106,661
197,144	-17,919	241,946	106,504
198,159	-17,866	241,682	106,422
199,173	-17,643	241,323	106,436
200,188	-17,766	241,275	106,305
201,202	-17,757	241,268	106,300
202,217	-17,729	241,012	106,201
203,232	-17,855	240,818	106,003
204,246	-17,867	240,563	105,872
205,261	-17,688	240,386	105,929
206,275	-15,765	241,128	107,810
207,290	-10,277	243,159	113,200
208,304	-4,745	244,606	118,408
209,319	-2,966	244,947	120,023
210,334	-2,414	245,179	120,579
211,348	-1,423	245,198	121,392
212,363	-0,940	245,557	121,956
213,377	-0,209	245,514	122,523
214,392	0,342	245,484	122,951
215,407	0,509	245,417	123,043
216,421	0,629	245,271	123,057
217,436	0,707	245,138	123,043
218,450	0,935	244,794	123,045
219,465	0,887	244,833	123,015
220,480	0,703	244,654	122,764
221,494	0,621	244,501	122,609
222,509	0,312	244,232	122,211
223,523	0,278	243,933	122,023
224,538	0,158	243,891	121,893
225,553	0,233	243,772	121,884
226,567	0,127	243,575	121,688
227,582	-0,047	243,428	121,463
228,596	0,215	243,293	121,598
229,611	0,323	243,072	121,563
230,626	0,229	242,892	121,387
231,640	0,291	242,707	121,334
232,655	0,032	242,461	120,990
233,669	0,211	242,216	121,002
234,684	0,019	242,118	120,787
235,699	0,160	242,095	120,879
236,713	0,024	241,940	120,680
237,728	0,267	241,848	120,820
238,742	0,151	241,562	120,572
239,757	0,155	241,409	120,489
240,772	0,104	241,248	120,357
241,786	-0,049	241,274	120,236
242,801	0,238	240,972	120,305
243,815	0,265	240,794	120,227
244,830	0,059	240,745	120,027
245,844	0,043	240,535	119,899
246,859	0,086	240,323	119,816
247,874	0,087	240,274	119,782
248,888	0,231	240,044	119,773
249,903	0,184	239,722	119,564
250,917	0,368	239,717	119,698
251,932	0,376	239,534	119,602
252,947	0,249	239,401	119,424
253,961	0,298	239,103	119,303
254,976	0,094	239,123	119,140
255,990	0,202	238,828	119,068
257,005	-0,023	238,810	118,870
258,020	0,254	238,578	118,963
259,034	0,274	238,485	118,922
260,049	0,344	238,292	118,871
261,063	0,084	238,264	118,640
262,078	0,205	237,908	118,548
263,093	0,240	237,706	118,465
264,107	0,078	237,750	118,348
265,122	0,265	237,537	118,379
266,136	0,242	237,274	118,220
267,151	0,206	237,255	118,171
268,166	0,329	237,151	118,205
269,180	0,147	236,835	117,894
270,195	0,221	236,771	117,910
271,209	0,125	236,719	117,798
272,224	0,225	236,479	117,747
273,239	0,046	236,223	117,469
274,253	0,331	236,116	117,629
275,268	0,190	236,005	117,452
276,282	0,271	235,804	117,405
277,297	0,363	235,668	117,399
278,312	0,293	235,425	117,212
279,326	0,173	235,418	117,104
280,341	0,331	235,304	117,161
281,355	0,081	235,176	116,892
282,370	0,318	235,070	117,014
283,384	0,279	234,821	116,849
284,399	0,170	234,667	116,677
285,414	0,365	234,387	116,679
286,428	0,316	234,328	116,601
287,443	0,341	234,200	116,547
288,457	0,267	234,065	116,412
289,472	0,480	233,774	116,422
290,487	0,300	233,734	116,252
291,501	0,198	233,704	116,147
292,516	0,340	233,351	116,072
293,530	0,327	233,307	116,029
294,545	0,260	233,201	115,914
295,560	0,267	233,002	115,810
296,574	0,236	232,869	115,710
297,589	0,599	232,700	115,896
298,603	0,369	232,619	115,668
299,618	0,361	232,406	115,545
300,633	0,511	232,221	115,559
301,647	0,481	232,212	115,521
302,662	0,567	231,915	115,428
303,676	0,440	231,838	115,283
304,691	0,551	231,727	115,302
305,706	0,434	231,544	115,111
306,720	0,529	231,403	115,104
307,735	0,306	231,324	114,883
308,749	0,292	231,214	114,808
309,764	0,358	231,048	114,765
310,779	0,418	230,930	114,743
311,793	0,363	230,623	114,537
312,808	0,263	230,488	114,384
313,822	0,322	230,435	114,392
314,837	0,725	230,063	114,504
315,852	0,539	230,094	114,368
316,866	0,522	229,975	114,286
317,881	0,432	229,750	114,095
318,895	0,443	229,727	114,082
319,910	0,360	229,452	113,872
320,925	0,515	229,361	113,935
321,939	0,518	229,250	113,872
322,954	0,604	229,051	113,828
323,968	0,558	228,933	113,724
324,983	0,517	228,797	113,616
325,997	0,511	228,689	113,547
327,012	0,518	228,488	113,443
328,027	0,522	228,334	113,359
329,041	0,489	228,285	113,300
330,056	0,306	228,215	113,117
331,070	0,581	227,871	113,144
332,085	0,642	227,674	113,081
333,100	0,609	227,610	113,015
334,114	0,504	227,394	112,819
335,129	0,474	227,381	112,780
336,143	0,558	227,174	112,729
337,158	0,797	226,909	112,768
338,173	0,675	226,884	112,653
339,187	0,851	226,754	112,711
340,202	0,692	226,695	112,553
341,216	0,767	226,370	112,437
342,231	0,722	226,227	112,322
343,246	0,697	226,340	112,350
344,260	0,617	226,063	112,143
345,275	0,906	225,820	112,228
346,289	0,593	225,826	111,987
347,304	0,817	225,741	112,102
348,319	0,402	225,587	111,706
349,333	0,565	225,434	111,742
350,348	0,701	225,220	111,726
351,362	0,605	225,130	111,601
352,377	0,852	224,895	111,658
353,392	0,787	224,801	111,553
354,406	0,742	224,647	111,433
355,421	192,277	1311,601	1377,260
356,435	153,994	1443,898	1377,098
