DTS Sentinel unit serial number:	SN410029Multiplexer serial number:	ORYXHardware model number:	OX2-SRSoftware version number:	ORYX F/W v4,00 Oryx Data Collector v3.7.2.0data status	okinstallation	B5 Nyhavnadifferential loss correction	single-endedforward channel	channel 2reverse channel	N/Adate	2023/12/12time	07:57:13forward acquisition time	300,00reverse acquisition time	0,00gamma	499,1914k internal	0,3158k external	0,3158temperature offset calibration	1,0000default loss term (dB/km)	0,3820temperature slope calibration	1,0000multiplexer offset coefficient	1,0000multiplexer slope coefficient	1,0000fibre end	0,00T internal ref (°C)	15,12T ext. ref 1 (°C)	-1,17T ext. ref 2 (°C)	-1,49length (m)	temperature (°C)	Stokes	anti-Stokes-744,400	-129,859	0,199	0,020
-743,385	-137,170	-0,301	0,025
-742,371	-200,000	0,001	0,049
-741,356	-161,324	-0,389	-0,015
-740,342	-4,077	0,146	0,074
-739,327	-128,088	-0,347	-0,036
-738,312	490,741	0,087	0,147
-737,298	-4,943	-0,284	0,144
-736,283	238,214	0,064	-0,078
-735,269	-107,072	-0,384	0,062
-734,254	800,000	0,078	0,217
-733,239	-166,997	-0,508	0,015
-732,225	-200,000	0,166	-0,000
-731,210	294,733	0,014	0,019
-730,196	-92,886	-0,048	0,010
-729,181	-200,000	-0,039	0,161
-728,167	-200,000	-0,005	-0,060
-727,152	-200,000	-0,007	0,045
-726,137	769,108	-0,047	-0,094
-725,123	337,911	-0,042	0,060
-724,108	314,973	-0,110	-0,153
-723,094	800,000	0,016	-0,049
-722,079	-200,000	-0,031	-0,167
-721,064	-200,000	0,000	-0,016
-720,050	12,103	-0,111	-0,062
-719,035	-132,836	-0,050	-0,005
-718,021	600,341	-0,058	0,107
-717,006	800,000	0,039	0,096
-715,991	359,986	0,037	-0,054
-714,977	290,478	-0,066	0,089
-713,962	-113,970	-0,046	-0,006
-712,948	-115,006	-0,154	0,021
-711,933	156,119	0,013	-0,013
-710,918	-43,954	0,150	0,055
-709,904	-92,808	-0,078	0,016
-708,889	-88,338	-0,142	-0,031
-707,875	36,027	-0,141	-0,091
-706,860	87,408	-0,086	0,070
-705,845	36,482	0,049	-0,032
-704,831	428,097	0,036	-0,057
-703,816	-158,794	-0,116	0,005
-702,802	-200,000	-0,018	0,068
-701,787	-200,000	0,015	-0,087
-700,772	-86,250	-0,026	-0,006
-699,758	405,561	-0,038	-0,059
-698,743	235,720	-0,036	0,044
-697,729	513,265	0,015	0,025
-696,714	800,000	-0,051	0,125
-695,699	195,488	0,142	0,159
-694,685	148,081	-0,094	-0,093
-693,670	-24,212	-0,026	-0,012
-692,656	-119,362	-0,069	-0,009
-691,641	195,477	0,078	-0,087
-690,627	-6,191	0,038	-0,019
-689,612	207,982	-0,063	-0,073
-688,597	-56,296	-0,084	-0,027
-687,583	6,678	0,132	-0,072
-686,568	217,218	-0,139	-0,163
-685,554	800,000	0,034	-0,105
-684,539	290,761	0,025	0,034
-683,524	166,292	0,054	0,056
-682,510	66,401	-0,156	0,116
-681,495	198,271	-0,096	-0,108
-680,481	-200,000	-0,037	-0,151
-679,466	-200,000	-0,027	-0,208
-678,451	-200,000	0,006	0,087
-677,437	-200,000	0,029	0,171
-676,422	-64,438	0,056	-0,017
-675,408	207,482	-0,060	0,069
-674,393	-200,000	0,011	0,051
-673,378	-200,000	0,014	-0,115
-672,364	-200,000	0,020	-0,120
-671,349	393,980	-0,012	0,018
-670,335	412,952	0,038	0,060
-669,320	158,831	-0,013	-0,013
-668,305	-2,101	-0,072	0,037
-667,291	-200,000	-0,039	-0,221
-666,276	-200,000	0,017	0,120
-665,262	-56,165	-0,139	0,045
-664,247	680,634	0,030	-0,058
-663,232	-200,000	0,010	-0,151
-662,218	42,166	0,101	-0,068
-661,203	57,835	-0,052	-0,037
-660,189	65,358	0,093	-0,069
-659,174	-88,479	-0,220	-0,048
-658,159	-200,000	-0,013	-0,221
-657,145	264,172	-0,048	-0,061
-656,130	-200,000	-0,019	0,117
-655,116	-200,000	-0,001	0,037
-654,101	-34,626	0,056	-0,023
-653,086	241,418	-0,043	0,053
-652,072	242,383	0,078	-0,095
-651,057	144,939	-0,071	-0,070
-650,043	-200,000	0,010	-0,088
-649,028	308,537	-0,094	0,130
-648,014	-141,979	-0,055	0,004
-646,999	174,935	-0,028	-0,030
-645,984	-129,408	-0,086	0,009
-644,970	171,635	0,085	-0,090
-643,955	-56,727	-0,182	-0,059
-642,941	437,617	0,052	-0,084
-641,926	-85,606	0,145	0,033
-640,911	593,517	-0,023	0,041
-639,897	-63,947	0,124	0,037
-638,882	-200,000	0,010	-0,095
-637,868	800,000	0,061	0,131
-636,853	0,760	-0,084	-0,044
-635,838	347,802	0,052	0,075
-634,824	-200,000	-0,009	-0,169
-633,809	372,858	0,069	-0,103
-632,795	271,237	0,062	0,080
-631,780	-200,000	0,021	-0,074
-630,765	799,984	0,011	0,022
-629,751	95,773	-0,058	0,049
-628,736	-162,087	-0,080	-0,003
-627,722	-6,311	0,074	0,037
-626,707	-200,000	0,013	-0,052
-625,692	800,000	0,069	0,151
-624,678	147,589	0,060	-0,059
-623,663	13,313	0,088	-0,050
-622,649	110,789	-0,032	0,028
-621,634	-141,776	-0,108	-0,008
-620,619	34,722	0,053	0,034
-619,605	597,259	-0,059	-0,107
-618,590	72,141	0,076	-0,058
-617,576	-44,776	-0,038	0,014
-616,561	-41,052	0,090	0,034
-615,546	-200,000	-0,065	0,000
-614,532	-200,000	0,016	0,058
-613,517	800,000	-0,062	-0,133
-612,503	-49,470	0,017	0,006
-611,488	-87,513	-0,093	0,020
-610,474	-75,169	-0,040	-0,010
-609,459	11,770	-0,084	0,047
-608,444	-200,000	-0,022	-0,137
-607,430	-200,000	0,006	-0,048
-606,415	342,410	-0,065	-0,094
-605,401	-172,597	-0,101	-0,002
-604,386	660,531	0,015	0,029
-603,371	279,866	0,060	0,078
-602,357	-132,738	-0,099	0,009
-601,342	-200,000	0,010	-0,041
-600,328	-200,000	-0,003	-0,055
-599,313	-200,000	0,025	-0,087
-598,298	-101,558	-0,087	-0,015
-597,284	-15,568	0,153	0,071
-596,269	-72,828	-0,060	0,016
-595,255	661,828	0,053	0,100
-594,240	118,193	0,111	-0,100
-593,225	-41,484	-0,138	-0,052
-592,211	800,000	0,028	0,061
-591,196	800,000	-0,040	0,089
-590,182	243,703	-0,032	-0,039
-589,167	40,477	0,083	0,055
-588,152	89,340	-0,079	0,064
-587,138	365,212	0,050	-0,074
-586,123	800,000	-0,070	-0,168
-585,109	-128,888	-0,052	0,005
-584,094	353,163	-0,008	0,011
-583,079	119,926	0,044	-0,040
-582,065	-125,448	-0,104	0,011
-581,050	-200,000	-0,016	0,053
-580,036	-200,000	-0,007	-0,037
-579,021	-101,636	-0,062	0,011
-578,006	211,045	-0,038	0,044
-576,992	-63,727	-0,050	0,015
-575,977	800,000	-0,036	-0,092
-574,963	-200,000	0,007	0,028
-573,948	-200,000	0,006	0,052
-572,934	-164,698	-0,153	0,005
-571,919	453,776	0,032	0,052
-570,904	96,955	-0,113	-0,095
-569,890	-130,351	-0,178	-0,017
-568,875	-200,000	0,012	0,062
-567,861	508,766	-0,039	0,066
-566,846	173,363	0,117	0,124
-565,831	-200,000	0,016	0,119
-564,817	-72,013	-0,081	-0,022
-563,802	-41,441	-0,076	0,028
-562,788	-17,599	0,025	-0,012
-561,773	562,108	0,070	-0,124
-560,758	-99,694	0,043	0,008
-559,744	-30,755	0,061	-0,025
-558,729	64,014	-0,126	0,093
-557,715	-200,000	-0,017	0,163
-556,700	82,415	-0,070	0,055
-555,685	43,520	0,103	-0,069
-554,671	323,659	0,082	0,115
-553,656	440,392	0,057	0,091
-552,642	413,791	0,006	0,009
-551,627	31,164	-0,101	0,063
-550,612	6,685	-0,061	-0,033
-549,598	206,291	0,135	-0,154
-548,583	800,000	-0,020	-0,064
-547,569	-88,290	-0,072	0,016
-546,554	800,000	-0,022	-0,070
-545,539	13,459	0,104	0,059
-544,525	-156,305	-0,081	0,004
-543,510	-1,982	-0,045	-0,023
-542,496	800,000	0,043	0,102
-541,481	-20,233	-0,018	0,008
-540,466	437,331	-0,023	-0,037
-539,452	33,060	0,065	0,041
-538,437	-200,000	0,006	0,099
-537,423	314,548	-0,057	0,078
-536,408	196,320	0,087	-0,097
-535,393	-200,000	0,000	-0,031
-534,379	120,680	0,053	-0,048
-533,364	-50,508	-0,103	0,035
-532,350	-34,415	0,076	0,030
-531,335	800,000	-0,022	0,048
-530,321	-81,575	0,012	-0,003
-529,306	-200,000	0,007	-0,062
-528,291	245,106	0,026	0,032
-527,277	563,934	-0,069	-0,122
-526,262	456,516	0,038	0,062
-525,248	26,835	-0,034	-0,021
-524,233	198,904	0,062	0,070
-523,218	42,701	0,111	0,074
-522,204	800,000	0,035	0,091
-521,189	-97,298	-0,085	-0,016
-520,175	41,555	0,106	-0,070
-519,160	266,579	-0,081	-0,103
-518,145	-120,902	0,087	-0,011
-517,131	-11,703	0,099	-0,047
-516,116	-92,062	-0,075	0,015
-515,102	221,367	-0,052	0,061
-514,087	800,000	-0,064	0,181
-513,072	-200,000	-0,046	0,151
-512,058	-137,887	-0,116	0,009
-511,043	-54,107	0,155	0,051
-510,029	-200,000	0,009	-0,099
-509,014	800,000	-0,064	0,131
-507,999	-95,169	0,045	0,009
-506,985	800,000	-0,012	-0,037
-505,970	-169,906	0,155	0,004
-504,956	800,000	0,019	-0,047
-503,941	28,151	0,022	-0,013
-502,926	-200,000	-0,003	0,033
-501,912	312,494	-0,057	0,079
-500,897	800,000	0,029	0,085
-499,883	48,358	-0,060	0,041
-498,868	175,089	-0,044	0,047
-497,853	-45,692	-0,033	-0,012
-496,839	-200,000	0,031	0,106
-495,824	312,525	0,028	0,038
-494,810	138,520	0,098	0,094
-493,795	489,100	-0,024	-0,040
-492,781	-127,856	-0,121	-0,013
-491,766	800,000	-0,025	-0,079
-490,751	-149,837	-0,163	-0,009
-489,737	800,000	0,039	0,099
-488,722	-6,521	0,078	0,039
-487,708	-200,000	0,002	0,016
-486,693	46,476	-0,031	-0,021
-485,678	8,424	0,104	-0,057
-484,664	-193,616	-0,039	0,000
-483,649	-8,938	0,097	0,047
-482,635	-200,000	0,004	-0,039
-481,620	616,416	0,030	-0,055
-480,605	96,370	0,068	0,056
-479,591	547,779	0,026	0,046
-478,576	-132,659	-0,121	-0,011
-477,562	-200,000	0,003	-0,098
-476,547	554,842	0,036	0,064
-475,532	-200,000	0,005	-0,061
-474,518	-195,299	0,139	-0,001
-473,503	277,585	-0,038	0,049
-472,489	-12,631	0,098	-0,047
-471,474	249,063	0,018	-0,022
-470,459	-164,530	-0,059	-0,002
-469,445	-193,756	0,032	0,000
-468,430	371,722	-0,039	-0,058
-467,416	-127,678	0,110	-0,011
-466,401	131,022	0,072	0,068
-465,386	-97,631	-0,044	-0,008
-464,372	-48,884	0,037	-0,013
-463,357	-200,000	0,007	-0,044
-462,343	-200,000	-0,016	-0,087
-461,328	-35,105	-0,155	-0,061
-460,313	-11,776	0,138	0,066
-459,299	40,236	0,158	-0,103
-458,284	-200,000	0,031	0,112
-457,270	80,018	-0,136	0,107
-456,255	-200,000	0,015	0,150
-455,241	540,363	0,017	-0,029
-454,226	51,579	-0,089	0,062
-453,211	30,521	0,196	0,122
-452,197	-200,000	0,008	0,063
-451,182	528,568	0,050	0,086
-450,168	800,000	0,074	-0,151
-449,153	800,000	-0,017	-0,051
-448,138	200,634	-0,075	-0,084
-447,124	335,771	-0,090	-0,128
-446,109	-200,000	-0,002	0,009
-445,095	-65,534	0,072	0,021
-444,080	-60,121	-0,060	-0,019
-443,065	166,714	-0,048	-0,049
-442,051	-25,135	0,036	0,016
-441,036	-89,716	-0,134	-0,028
-440,022	128,035	0,106	-0,099
-439,007	-200,000	-0,009	-0,083
-437,992	-31,048	-0,131	-0,054
-436,978	48,762	0,025	0,017
-435,963	-166,882	-0,124	-0,004
-434,949	-83,979	0,053	0,012
-433,934	201,691	0,076	-0,085
-432,919	-83,077	0,091	0,021
-431,905	597,044	-0,046	-0,084
-430,890	404,697	0,035	0,054
-429,876	-72,527	0,052	0,014
-428,861	106,512	-0,152	0,131
-427,846	190,156	-0,086	0,094
-426,832	800,000	-0,055	-0,141
-425,817	-200,000	0,022	-0,109
-424,803	800,000	0,050	0,123
-423,788	154,392	-0,041	0,041
-422,773	-200,000	-0,014	0,103
-421,759	89,122	0,152	0,123
-420,744	29,679	-0,070	-0,043
-419,730	306,607	0,098	-0,133
-418,715	-200,000	-0,003	0,022
-417,701	-200,000	-0,006	0,173
-416,686	408,401	0,055	0,085
-415,671	192,071	-0,028	0,031
-414,657	489,897	-0,084	0,141
-413,642	85,814	0,050	-0,040
-412,628	-48,985	-0,107	0,037
-411,613	-15,762	0,061	-0,028
-410,598	-99,455	0,029	0,005
-409,584	496,053	-0,040	0,068
-408,569	181,057	0,108	-0,115
-407,555	-144,308	-0,106	-0,007
-406,540	800,000	-0,023	0,049
-405,525	-70,566	-0,098	0,027
-404,511	258,935	0,043	-0,054
-403,496	800,000	-0,070	-0,175
-402,482	258,411	-0,095	-0,120
-401,467	800,000	0,036	-0,091
-400,452	-200,000	0,031	0,136
-399,438	47,720	-0,065	-0,044
-398,423	727,902	0,056	-0,109
-397,409	333,476	0,060	0,084
-396,394	315,603	0,042	0,057
-395,379	800,000	-0,065	-0,165
-394,365	-61,617	0,028	-0,008
-393,350	-200,000	0,042	0,235
-392,336	-200,000	-0,001	0,055
-391,321	-71,029	0,072	0,020
-390,306	-157,116	0,102	-0,004
-389,292	426,098	0,073	-0,114
-388,277	171,003	-0,030	-0,032
-387,263	-150,223	0,026	0,001
-386,248	-153,508	0,104	0,005
-385,233	-69,391	0,108	-0,030
-384,219	-67,301	-0,049	0,014
-383,204	800,000	0,007	0,018
-382,190	-200,000	0,029	-0,110
-381,175	544,984	0,052	-0,091
-380,160	800,000	0,023	-0,049
-379,146	333,728	-0,055	-0,078
-378,131	800,000	-0,081	-0,167
-377,117	420,909	-0,067	-0,104
-376,102	-200,000	0,003	-0,075
-375,088	457,503	-0,068	-0,110
-374,073	478,720	-0,074	-0,122
-373,058	33,659	0,075	-0,047
-372,044	-129,209	0,056	-0,006
-371,029	-200,000	0,002	-0,034
-370,015	-200,000	0,008	-0,103
-369,000	18,587	-0,021	-0,012
-367,985	800,000	-0,031	-0,071
-366,971	-108,692	0,060	0,009
-365,956	-175,961	-0,047	-0,001
-364,942	-200,000	-0,009	0,133
-363,927	-129,919	-0,095	-0,009
-362,912	63,743	-0,096	-0,070
-361,898	-200,000	-0,014	-0,106
-360,883	-80,977	-0,085	0,020
-359,869	102,165	-0,057	-0,049
-358,854	800,000	-0,051	-0,139
-357,839	-200,000	0,015	0,207
-356,825	89,981	-0,058	0,047
-355,810	125,758	-0,041	0,037
-354,796	-200,000	-0,003	-0,069
-353,781	-200,000	0,033	-0,168
-352,766	-200,000	0,032	-0,167
-351,752	-200,000	0,051	-0,189
-350,737	-163,069	0,040	-0,001
-349,723	-200,000	-0,002	0,016
-348,708	128,908	-0,034	-0,032
-347,693	245,140	0,063	-0,076
-346,679	-5,064	-0,121	0,060
-345,664	-200,000	-0,005	0,155
-344,650	33,331	-0,114	0,072
-343,635	-200,000	-0,002	0,013
-342,620	-102,945	0,209	-0,036
-341,606	49,031	0,012	-0,008
-340,591	-49,520	-0,171	0,059
-339,577	35,072	-0,038	0,024
-338,562	800,000	0,018	-0,039
-337,548	-14,265	0,013	0,006
-336,533	698,559	-0,052	0,100
-335,518	-200,000	0,013	-0,095
-334,504	-87,849	-0,012	0,003
-333,489	-100,672	-0,049	-0,009
-332,475	77,068	-0,083	-0,064
-331,460	-200,000	0,013	-0,069
-330,445	-200,000	0,011	-0,165
-329,431	38,160	0,072	0,046
-328,416	301,686	0,045	-0,060
-327,402	44,163	-0,050	-0,033
-326,387	79,242	-0,059	0,046
-325,372	-58,272	0,017	0,005
-324,358	420,815	-0,025	-0,040
-323,343	154,473	-0,056	-0,056
-322,329	-69,476	0,032	0,009
-321,314	-104,956	0,071	0,012
-320,299	-108,867	-0,130	0,020
-319,285	129,362	0,040	0,037
-318,270	114,018	0,094	-0,083
-317,256	-169,316	0,045	0,001
-316,241	-128,228	-0,124	0,013
-315,226	-187,289	0,020	0,000
-314,212	-200,000	-0,004	0,048
-313,197	800,000	0,038	0,111
-312,183	188,610	0,010	-0,011
-311,168	339,110	-0,089	-0,126
-310,153	-8,109	-0,108	-0,052
-309,139	160,507	0,029	-0,029
-308,124	195,147	0,056	-0,062
-307,110	-36,978	-0,010	-0,004
-306,095	-69,721	0,071	0,020
-305,080	-96,841	-0,146	-0,027
-304,066	-22,741	0,079	0,034
-303,051	119,721	0,054	-0,048
-302,037	129,647	-0,030	-0,028
-301,022	75,908	-0,092	-0,070
-300,008	74,975	0,171	0,130
-298,993	-200,000	0,003	0,023
-297,978	-200,000	0,000	0,065
-296,964	-200,000	0,018	-0,074
-295,949	553,785	-0,027	-0,048
-294,935	-103,083	0,077	0,013
-293,920	7,139	-0,106	0,057
-292,905	719,723	-0,093	0,179
-291,891	438,169	0,004	0,006
-290,876	-200,000	-0,007	-0,035
-289,862	-123,907	-0,135	0,015
-288,847	-200,000	-0,016	0,076
-287,832	56,012	0,081	-0,057
-286,818	534,616	-0,044	-0,077
-285,803	800,000	-0,051	-0,112
-284,789	771,455	-0,015	0,029
-283,774	9,016	0,082	0,045
-282,759	800,000	0,022	-0,053
-281,745	263,521	0,046	-0,058
-280,730	-105,300	-0,102	-0,017
-279,716	800,000	0,050	0,108
-278,701	-74,744	-0,042	-0,011
-277,686	800,000	-0,026	0,079
-276,672	208,598	0,038	-0,043
-275,657	331,858	-0,089	0,125
-274,643	-163,972	-0,179	0,006
-273,628	-200,000	0,002	-0,054
-272,613	-134,261	-0,181	-0,016
-271,599	404,809	0,016	0,024
-270,584	262,235	0,103	0,130
-269,570	-42,279	0,097	0,036
-268,555	-200,000	-0,049	0,167
-267,540	-200,000	0,020	0,133
-266,526	800,000	-0,052	0,143
-265,511	400,638	0,028	-0,043
-264,497	16,789	-0,079	-0,045
-263,482	13,635	0,028	-0,015
-262,467	-200,000	0,013	0,067
-261,453	383,152	0,023	0,035
-260,438	17,650	0,062	0,036
-259,424	-200,000	0,011	-0,083
-258,409	-110,127	0,027	0,004
-257,395	-200,000	-0,019	0,068
-256,380	288,766	-0,029	-0,038
-255,365	-200,000	0,044	-0,164
-254,351	800,000	-0,030	0,066
-253,336	-200,000	-0,027	0,091
-252,322	-200,000	-0,002	-0,104
-251,307	-113,325	-0,176	-0,025
-250,292	-78,027	0,085	0,021
-249,278	365,874	0,044	-0,064
-248,263	247,040	0,057	0,070
-247,249	390,281	0,037	0,055
-246,234	-200,000	-0,012	0,054
-245,219	-200,000	0,003	-0,069
-244,205	32,393	0,041	-0,026
-243,190	3,090	0,027	-0,014
-242,176	445,143	0,078	0,125
-241,161	336,660	-0,106	0,150
-240,146	60,742	-0,013	0,010
-239,132	-17,963	-0,106	0,048
-238,117	-18,330	0,073	0,033
-237,103	-140,215	-0,016	0,001
-236,088	800,000	0,024	-0,054
-235,073	113,674	-0,057	0,050
-234,059	-200,000	-0,009	-0,041
-233,044	800,000	0,059	0,157
-232,030	-200,000	0,007	-0,074
-231,015	-95,523	-0,090	-0,017
-230,000	800,000	0,024	-0,068
-228,986	-99,568	0,089	-0,016
-227,971	11,952	0,117	-0,065
-226,957	599,130	0,058	0,104
-225,942	-200,000	0,028	0,096
-224,927	-77,660	0,074	0,018
-223,913	800,000	0,027	-0,068
-222,898	-200,000	0,022	0,071
-221,884	-32,593	-0,048	0,019
-220,869	-2,471	-0,055	-0,028
-219,855	-75,157	0,043	-0,011
-218,840	323,528	-0,048	-0,066
-217,825	-200,000	0,045	0,206
-216,811	-106,370	-0,039	0,006
-215,796	47,550	0,107	-0,072
-214,782	-200,000	-0,002	-0,026
-213,767	-200,000	-0,054	0,181
-212,752	-148,374	0,087	-0,005
-211,738	-47,848	0,107	-0,037
-210,723	-200,000	-0,012	-0,079
-209,709	740,043	-0,041	-0,080
-208,694	-123,212	-0,034	0,004
-207,679	131,038	0,043	0,040
-206,665	-81,435	0,086	0,020
-205,650	216,607	0,062	0,071
-204,636	83,495	0,147	0,116
-203,621	181,473	0,092	0,098
-202,606	-47,368	-0,044	0,015
-201,592	-6,126	0,160	-0,079
-200,577	-5,853	-0,083	0,041
-199,563	800,000	-0,011	-0,025
-198,548	27,285	-0,046	0,028
-197,533	-200,000	0,001	-0,042
-196,519	-76,935	0,112	0,028
-195,504	800,000	0,048	0,114
-194,490	-200,000	-0,018	-0,081
-193,475	46,469	-0,128	-0,085
-192,460	-68,153	0,134	0,037
-191,446	-200,000	0,005	0,056
-190,431	-200,000	0,008	0,134
-189,417	27,507	0,136	0,082
-188,402	-19,059	0,044	-0,020
-187,387	-104,862	-0,171	0,028
-186,373	-175,968	-0,074	-0,001
-185,358	-200,000	0,039	0,137
-184,344	-127,982	0,122	0,012
-183,329	149,181	0,093	0,091
-182,315	56,443	0,048	-0,034
-181,300	-200,000	0,006	-0,108
-180,285	800,000	-0,015	0,032
-179,271	-39,102	-0,085	-0,032
-178,256	-40,774	0,055	-0,020
-177,242	417,069	-0,081	0,126
-176,227	35,173	0,124	0,078
-175,212	32,763	-0,094	-0,059
-174,198	800,000	0,038	0,095
-173,183	107,172	0,074	-0,063
-172,169	-200,000	0,013	0,057
-171,154	212,752	-0,106	-0,121
-170,139	-200,000	0,023	0,082
-169,125	800,000	-0,031	-0,075
-168,110	-200,000	0,025	0,127
-167,096	800,000	-0,043	-0,105
-166,081	-200,000	-0,025	-0,123
-165,066	303,346	-0,077	-0,102
-164,052	800,000	-0,034	-0,079
-163,037	800,000	0,024	-0,068
-162,023	-104,776	0,154	-0,025
-161,008	357,630	0,063	0,090
-159,993	376,737	0,098	-0,145
-158,979	463,140	0,061	-0,099
-157,964	-98,971	-0,051	-0,009
-156,950	522,746	-0,133	-0,225
-155,935	64,897	0,026	-0,019
-154,920	461,976	-0,050	0,081
-153,906	-180,962	0,113	-0,002
-152,891	484,184	-0,047	-0,077
-151,877	-200,000	0,005	-0,092
-150,862	-200,000	0,015	-0,228
-149,847	-200,000	-0,026	-0,187
-148,833	-65,575	0,163	-0,047
-147,818	326,246	0,085	0,117
-146,804	160,142	-0,039	0,039
-145,789	-111,612	0,049	0,007
-144,775	67,454	-0,083	-0,061
-143,760	165,033	0,049	-0,050
-142,745	-50,788	-0,182	-0,061
-141,731	-153,345	0,073	0,004
-140,716	-33,120	0,062	-0,025
-139,702	-200,000	0,034	-0,130
-138,687	-59,734	-0,161	0,049
-137,672	800,000	-0,032	-0,071
-136,658	-102,331	-0,120	-0,021
-135,643	-69,249	-0,077	-0,021
-134,629	608,333	0,077	0,139
-133,614	-91,521	0,174	0,035
-132,599	310,236	-0,023	-0,032
-131,585	10,818	-0,047	-0,026
-130,570	800,000	-0,024	-0,055
-129,556	-99,278	-0,030	-0,005
-128,541	336,154	0,063	-0,088
-127,526	-64,602	0,151	-0,044
-126,512	55,635	-0,035	-0,024
-125,497	-147,481	0,024	0,001
-124,483	-200,000	0,025	0,169
-123,468	-200,000	0,017	-0,067
-122,453	107,222	-0,069	0,059
-121,439	-73,279	-0,025	0,007
-120,424	-78,148	-0,048	0,012
-119,410	223,300	0,074	0,085
-118,395	184,131	-0,079	0,085
-117,380	50,105	0,070	0,047
-116,366	-34,409	0,066	-0,026
-115,351	-34,898	-0,067	-0,026
-114,337	-37,455	-0,113	-0,043
-113,322	-200,000	0,016	0,084
-112,307	66,017	-0,077	0,056
-111,293	64,050	0,122	0,088
-110,278	526,747	0,011	0,019
-109,264	-119,149	0,116	0,014
-108,249	123,608	-0,073	-0,066
-107,234	-200,000	0,002	-0,021
-106,220	800,000	0,038	-0,092
-105,205	-46,438	0,109	0,038
-104,191	26,971	-0,103	0,062
-103,176	-200,000	-0,010	0,067
-102,162	-200,000	0,004	0,079
-101,147	-200,000	0,008	0,049
-100,132	232,329	-0,107	-0,126
-99,118	142,671	-0,041	0,039
-98,103	55,560	0,166	0,116
-97,089	12,415	0,105	0,058
-96,074	446,340	0,019	0,030
-95,059	-77,383	-0,099	-0,024
-94,045	-59,605	0,041	0,013
-93,030	-22,616	-0,113	-0,049
-92,016	-200,000	0,011	0,064
-91,001	151,191	0,119	0,116
-89,986	-200,000	-0,007	0,091
-88,972	-27,555	0,125	0,052
-87,957	800,000	0,041	0,081
-86,943	-71,620	-0,105	-0,028
-85,928	7,350	0,085	-0,046
-84,913	511,006	-0,064	0,107
-83,899	135,254	-0,127	0,119
-82,884	-81,859	-0,056	0,013
-81,870	647,010	0,044	0,082
-80,855	-200,000	0,007	-0,039
-79,840	-200,000	-0,007	0,028
-78,826	138,677	-0,025	0,023
-77,811	-106,647	-0,032	-0,005
-76,797	-66,931	-0,039	0,011
-75,782	-200,000	0,037	0,148
-74,767	800,000	-0,019	0,045
-73,753	-200,000	0,003	0,050
-72,738	-200,000	0,006	0,081
-71,724	81,735	0,073	-0,057
-70,709	-200,000	-0,038	-0,131
-69,694	90,433	0,137	-0,110
-68,680	-69,608	0,055	0,015
-67,665	231,782	0,029	-0,034
-66,651	-200,000	-0,007	0,048
-65,636	-9,527	0,050	0,024
-64,622	-200,000	-0,022	-0,094
-63,607	320,658	-0,075	-0,103
-62,592	800,000	0,036	0,087
-61,578	105,719	0,073	0,062
-60,563	-87,271	0,054	-0,012
-59,549	800,000	-0,079	0,203
-58,534	12,047	-1,942	-1,069
-57,519	800,000	-0,410	-0,971
-56,505	-200,000	-1,251	-5,044
-55,490	12,785	0,680	0,376
-54,476	800,000	5,331	12,059
-53,461	-200,000	17,773	286,330
-52,446	800,000	728,027	2224,255
-51,432	537,538	1644,425	2814,389
-50,417	110,005	1635,180	1407,739
-49,403	75,889	1287,180	975,604
-48,388	31,940	1027,411	633,706
-47,373	20,087	989,441	571,208
-46,359	18,428	976,927	558,525
-45,344	15,455	973,109	546,594
-44,330	15,717	971,404	546,472
-43,315	15,239	969,517	543,827
-42,300	15,138	968,656	542,992
-41,286	15,096	967,729	542,315
-40,271	15,188	966,581	541,949
-39,257	15,232	965,492	541,463
-38,242	15,154	964,867	540,836
-37,227	15,184	963,992	540,422
-36,213	15,160	962,957	539,741
-35,198	15,139	962,116	539,181
-34,184	15,175	961,401	538,874
-33,169	15,123	960,351	538,096
-32,154	15,157	959,389	537,647
-31,140	15,179	958,663	537,288
-30,125	15,147	957,941	536,760
-29,111	15,113	957,166	536,196
-28,096	15,208	956,432	536,069
-27,082	15,222	955,685	535,675
-26,067	15,152	954,915	534,996
-25,052	15,144	954,184	534,540
-24,038	15,147	953,598	534,200
-23,023	15,109	953,173	533,818
-22,009	15,253	952,305	533,771
-20,994	15,183	951,718	533,198
-19,979	15,177	951,110	532,818
-18,965	15,173	950,391	532,380
-17,950	15,173	949,812	532,035
-16,936	15,115	949,300	531,542
-15,921	15,055	948,579	530,924
-14,906	15,019	947,818	530,365
-13,892	15,057	946,927	529,966
-12,877	15,044	946,484	529,654
-11,863	14,985	945,989	529,170
-10,848	15,069	945,335	529,050
-9,833	15,108	944,813	528,859
-8,819	15,099	944,130	528,428
-7,804	15,067	943,555	527,984
-6,790	14,995	942,955	527,398
-5,775	15,090	942,495	527,422
-4,760	15,035	941,934	526,914
-3,746	15,100	941,098	526,630
-2,731	14,889	940,563	525,642
-1,717	14,871	939,893	525,190
-0,702	14,891	939,152	524,820
0,313	14,635	938,733	524,567
1,327	18,033	936,445	533,943
2,342	27,114	793,571	476,516
3,356	23,881	458,767	270,511
4,371	-3,427	314,574	156,452
5,386	-7,542	296,408	143,237
6,400	-9,588	290,204	138,196
7,415	-9,962	287,826	136,682
8,429	-10,180	286,384	135,772
9,444	-10,250	285,411	135,230
10,459	-10,263	284,962	134,993
11,473	-10,178	284,193	134,699
12,488	-9,946	283,599	134,631
13,502	-10,247	283,109	134,094
14,517	-10,038	282,625	134,056
15,531	-10,031	282,292	133,893
16,546	-10,182	281,852	133,527
17,561	-9,997	281,385	133,472
18,575	-9,943	281,102	133,377
19,590	-10,164	280,712	132,968
20,604	-10,093	280,448	132,899
21,619	-10,134	280,171	132,717
22,634	-10,119	279,641	132,468
23,648	-10,002	279,376	132,443
24,663	-9,976	279,210	132,377
25,677	-10,141	278,935	132,077
26,692	-9,922	278,600	132,116
27,707	-10,172	278,499	131,818
28,721	-10,134	278,107	131,657
29,736	-10,106	277,666	131,463
30,750	-10,069	277,573	131,442
31,765	-10,206	277,255	131,150
32,780	-10,177	277,067	131,077
33,794	-10,073	276,906	131,088
34,809	-9,916	276,453	131,010
35,823	-10,132	276,293	130,718
36,838	-10,214	276,137	130,556
37,853	-10,254	275,831	130,361
38,867	-10,326	275,610	130,178
39,882	-10,134	275,336	130,217
40,896	-10,106	275,143	130,141
41,911	-10,140	275,001	130,030
42,926	-10,014	274,562	129,929
43,940	-10,154	274,348	129,685
44,955	-10,300	274,050	129,396
45,969	-10,244	273,870	129,352
46,984	-10,300	273,551	129,138
47,999	-10,759	273,347	128,601
49,013	-10,672	273,211	128,607
50,028	-10,738	272,946	128,410
51,042	-10,647	272,548	128,295
52,057	-10,673	272,243	128,116
53,071	-10,794	272,046	127,900
54,086	-10,755	271,853	127,834
55,101	-10,544	271,838	128,010
56,115	-10,350	271,469	128,005
57,130	-10,155	271,476	128,177
58,144	-10,006	271,278	128,211
59,159	-10,173	271,082	127,952
60,174	-10,099	270,901	127,924
61,188	-10,052	270,628	127,827
62,203	-10,114	270,323	127,614
63,217	-10,245	270,186	127,418
64,232	-9,933	269,891	127,554
65,247	-10,011	269,664	127,363
66,261	-10,160	269,477	127,127
67,276	-10,280	269,192	126,872
68,290	-10,472	268,902	126,547
69,305	-10,485	268,698	126,429
70,320	-10,390	268,448	126,386
71,334	-10,152	268,386	126,563
72,349	-9,973	268,141	126,599
73,363	-9,929	267,993	126,558
74,378	-9,912	267,716	126,432
75,393	-9,932	267,370	126,239
76,407	-10,025	267,320	126,120
77,422	-10,137	266,986	125,849
78,436	-10,103	266,844	125,802
79,451	-10,046	266,678	125,764
80,466	-9,925	266,358	125,712
81,480	-10,288	266,131	125,265
82,495	-10,335	266,029	125,163
83,509	-10,111	265,702	125,200
84,524	-10,183	265,405	124,984
85,539	-10,497	265,344	124,661
86,553	-10,406	265,072	124,604
87,568	-10,316	264,837	124,564
88,582	-10,271	264,629	124,495
89,597	-10,313	264,508	124,390
90,611	-10,040	264,290	124,521
91,626	-9,996	264,097	124,458
92,641	-10,095	263,950	124,289
93,655	-10,113	263,822	124,202
94,670	-10,095	263,567	124,087
95,684	-10,169	263,268	123,868
96,699	-10,118	263,022	123,788
97,714	-10,144	262,951	123,720
98,728	-10,215	262,646	123,501
99,743	-10,122	262,279	123,402
100,757	-10,426	262,278	123,119
101,772	-10,170	262,072	123,239
102,787	-10,191	261,887	123,123
103,801	-10,120	261,605	123,042
104,816	-10,282	261,765	122,962
105,830	-9,924	261,434	123,113
106,845	-10,052	261,159	122,859
107,860	-9,969	260,878	122,790
108,874	-9,916	260,553	122,673
109,889	-10,218	260,493	122,367
110,903	-10,081	260,208	122,343
111,918	-10,365	260,281	122,116
112,933	-10,193	259,997	122,123
113,947	-10,017	259,680	122,118
114,962	-10,150	259,577	121,942
115,976	-10,218	259,431	121,802
116,991	-10,135	259,212	121,762
118,006	-10,156	259,132	121,695
119,020	-10,018	258,998	121,742
120,035	-10,107	258,797	121,559
121,049	-10,045	258,662	121,539
122,064	-10,213	258,408	121,262
123,079	-9,978	258,161	121,340
124,093	-10,110	257,947	121,114
125,108	-10,262	257,541	120,780
126,122	-10,543	257,457	120,484
127,137	-10,487	257,262	120,431
128,151	-10,274	256,988	120,478
129,166	-10,121	256,852	120,536
130,181	-10,433	256,616	120,144
131,195	-10,525	256,521	120,009
132,210	-10,122	256,181	120,189
133,224	-10,229	256,253	120,118
134,239	-10,155	255,887	120,000
135,254	-10,048	255,773	120,029
136,268	-10,188	255,535	119,786
137,283	-10,279	255,194	119,536
138,297	-10,589	255,083	119,207
139,312	-10,497	254,930	119,204
140,327	-10,270	254,905	119,377
141,341	-9,894	254,649	119,570
142,356	-10,018	254,503	119,384
143,370	-10,088	254,408	119,269
144,385	-9,872	254,233	119,361
145,400	-9,855	254,040	119,276
146,414	-9,980	253,890	119,087
147,429	-9,993	253,700	118,975
148,443	-9,827	253,366	118,951
149,458	-9,813	253,238	118,892
150,473	-10,036	253,195	118,671
151,487	-9,834	252,855	118,673
152,502	-9,965	252,813	118,531
153,516	-9,845	252,445	118,450
154,531	-9,753	252,315	118,457
155,546	-9,824	252,100	118,286
156,560	-9,879	251,909	118,138
157,575	-9,900	251,746	118,033
158,589	-9,919	251,611	117,944
159,604	-9,897	251,472	117,886
160,619	-9,820	251,124	117,778
161,633	-9,905	250,956	117,617
162,648	-9,724	250,829	117,700
163,662	-9,906	250,739	117,493
164,677	-9,839	250,592	117,470
165,692	-9,928	250,405	117,297
166,706	-9,776	250,048	117,248
167,721	-9,723	250,045	117,281
168,735	-9,679	249,890	117,235
169,750	-9,821	249,799	117,061
170,764	-9,686	249,606	117,074
171,779	-9,706	249,376	116,939
172,794	-9,660	249,257	116,911
173,808	-9,797	249,107	116,715
174,823	-10,109	248,640	116,225
175,837	-10,391	248,598	115,959
176,852	-10,195	248,517	116,075
177,867	-9,897	248,388	116,254
178,881	-9,839	248,239	116,222
179,896	-9,887	248,060	116,088
180,910	-9,835	247,978	116,082
181,925	-9,900	247,738	115,906
182,940	-9,833	247,535	115,856
183,954	-9,726	247,379	115,862
184,969	-9,791	247,265	115,744
185,983	-9,868	247,076	115,581
186,998	-9,827	246,861	115,504
188,013	-9,746	246,679	115,476
189,027	-9,740	246,424	115,352
190,042	-9,895	246,438	115,219
191,056	-10,020	246,248	115,017
192,071	-10,024	245,990	114,883
193,086	-9,715	245,733	115,008
194,100	-9,837	245,702	114,882
195,115	-9,893	245,363	114,667
196,129	-9,962	245,340	114,589
197,144	-9,988	245,036	114,415
198,159	-9,749	244,839	114,510
199,173	-9,775	244,748	114,436
200,188	-10,149	244,681	114,086
201,202	-9,984	244,224	113,999
202,217	-10,300	244,050	113,648
203,232	-10,333	243,819	113,504
204,246	-10,213	243,786	113,576
205,261	-9,703	243,570	113,883
206,275	-10,476	243,283	113,106
207,290	-7,024	244,659	116,575
208,304	0,024	246,929	123,479
209,319	3,385	247,661	126,616
210,334	3,787	247,634	126,923
211,348	3,796	247,805	127,006
212,363	4,525	247,537	127,459
213,377	4,232	247,560	127,218
214,392	4,233	247,383	127,116
215,407	4,180	247,108	126,920
216,421	4,112	246,890	126,741
217,436	4,481	246,810	126,992
218,450	4,379	246,786	126,885
219,465	4,238	246,443	126,581
220,480	3,992	246,399	126,345
221,494	3,686	246,260	126,011
222,509	4,034	245,897	126,099
223,523	3,673	245,851	125,769
224,538	3,432	245,471	125,366
225,553	3,508	245,309	125,334
226,567	3,925	245,099	125,556
227,582	3,822	245,057	125,439
228,596	3,916	244,993	125,472
229,611	3,546	244,621	124,969
230,626	3,438	244,442	124,779
231,640	3,572	244,483	124,898
232,655	3,636	244,137	124,762
233,669	3,564	244,023	124,633
234,684	3,400	243,872	124,413
235,699	3,741	243,898	124,692
236,713	3,979	243,770	124,808
237,728	3,596	243,510	124,354
238,742	3,322	243,321	124,024
239,757	3,454	243,051	123,982
240,772	3,597	242,878	123,998
241,786	3,815	242,746	124,096
242,801	3,510	242,623	123,776
243,815	3,504	242,419	123,656
244,830	3,768	242,315	123,805
245,844	3,929	242,235	123,883
246,859	3,755	241,920	123,570
247,874	3,646	241,822	123,422
248,888	3,491	241,825	123,288
249,903	3,795	241,614	123,413
250,917	3,865	241,428	123,363
251,932	3,903	241,406	123,371
252,947	3,913	241,030	123,176
253,961	3,658	240,847	122,867
254,976	3,707	240,783	122,863
255,990	3,900	240,437	122,830
257,005	3,506	240,376	122,474
258,020	3,585	240,147	122,408
259,034	3,681	240,027	122,413
260,049	3,609	239,944	122,303
261,063	3,534	239,899	122,209
262,078	3,652	239,587	122,133
263,093	3,940	239,606	122,360
264,107	3,781	239,398	122,117
265,122	3,623	239,264	121,912
266,136	3,975	239,046	122,070
267,151	3,999	238,959	122,034
268,166	3,778	238,720	121,725
269,180	3,650	238,417	121,459
270,195	4,116	238,526	121,872
271,209	4,283	238,526	121,994
272,224	3,620	238,113	121,247
273,239	3,300	237,930	120,891
274,253	3,453	237,687	120,878
275,268	3,719	237,598	121,031
276,282	3,863	237,481	121,075
277,297	3,239	237,340	120,500
278,312	3,549	237,153	120,639
279,326	3,629	237,232	120,731
280,341	3,853	236,854	120,704
281,355	3,711	236,828	120,568
282,370	3,805	236,670	120,551
283,384	3,680	236,592	120,402
284,399	3,532	236,262	120,108
285,414	3,518	236,068	119,988
286,428	3,775	235,957	120,121
287,443	3,448	235,965	119,859
288,457	3,667	235,687	119,878
289,472	3,704	235,713	119,910
290,487	3,657	235,361	119,683
291,501	3,606	235,212	119,557
292,516	3,488	234,970	119,331
293,530	3,313	234,889	119,143
294,545	3,555	234,837	119,295
295,560	3,789	234,623	119,357
296,574	3,360	234,562	118,982
297,589	3,358	234,420	118,898
298,603	3,779	234,247	119,126
299,618	3,874	234,089	119,109
300,633	3,888	233,908	119,017
301,647	3,932	233,895	119,034
302,662	4,257	233,713	119,182
303,676	4,122	233,499	118,958
304,691	4,039	233,434	118,850
305,706	4,160	233,286	118,858
306,720	4,131	233,181	118,771
307,735	3,863	232,967	118,445
308,749	3,695	232,748	118,193
309,764	3,575	232,614	118,022
310,779	3,527	232,408	117,871
311,793	3,504	232,008	117,640
312,808	3,377	231,915	117,485
313,822	3,453	231,770	117,459
314,837	3,439	231,831	117,469
315,852	3,500	231,648	117,412
316,866	3,594	231,571	117,435
317,881	3,963	231,429	117,634
318,895	3,978	231,331	117,585
319,910	3,996	231,266	117,556
320,925	3,595	230,815	117,010
321,939	3,330	230,663	116,721
322,954	3,277	230,678	116,678
323,968	3,733	230,349	116,848
324,983	3,898	230,415	116,997
325,997	3,979	230,212	116,945
327,012	3,608	230,197	116,645
328,027	3,559	229,845	116,418
329,041	3,474	229,817	116,329
330,056	4,438	229,892	117,088
331,070	4,704	229,767	117,216
332,085	4,316	229,462	116,756
333,100	3,810	229,343	116,303
334,114	3,836	229,121	116,199
335,129	4,036	229,158	116,358
336,143	4,172	228,833	116,286
337,158	4,431	228,652	116,379
338,173	3,934	228,629	115,982
339,187	3,650	228,436	115,660
340,202	4,021	228,219	115,819
341,216	3,957	228,041	115,670
342,231	3,896	227,924	115,555
343,246	3,818	227,896	115,472
344,260	3,823	227,738	115,385
345,275	4,179	227,607	115,576
346,289	4,234	227,488	115,546
347,304	4,428	227,346	115,609
348,319	4,334	227,060	115,382
349,333	4,045	226,881	115,065
350,348	3,785	226,689	114,763
351,362	3,870	226,742	114,844
352,377	3,673	226,437	114,531
353,392	3,629	226,285	114,412
354,406	3,698	226,164	114,392
355,421	194,785	1323,316	1397,594
356,435	156,101	1456,978	1397,585
