DTS Sentinel unit serial number:	SN410029Multiplexer serial number:	ORYXHardware model number:	OX2-SRSoftware version number:	ORYX F/W v4,00 Oryx Data Collector v3.7.2.0data status	okinstallation	B5 Nyhavnadifferential loss correction	single-endedforward channel	channel 2reverse channel	N/Adate	2023/12/13time	04:52:13forward acquisition time	300,00reverse acquisition time	0,00gamma	499,1914k internal	0,3160k external	0,3160temperature offset calibration	1,0000default loss term (dB/km)	0,3820temperature slope calibration	1,0000multiplexer offset coefficient	1,0000multiplexer slope coefficient	1,0000fibre end	0,00T internal ref (°C)	13,90T ext. ref 1 (°C)	-2,52T ext. ref 2 (°C)	-2,86length (m)	temperature (°C)	Stokes	anti-Stokes-744,400	304,889	0,133	0,182
-743,385	33,212	-0,226	0,144
-742,371	-200,000	0,035	0,163
-741,356	-79,821	-0,476	0,117
-740,342	-17,504	0,080	0,037
-739,327	-95,264	-0,475	-0,093
-738,312	-20,547	0,107	0,048
-737,298	-73,386	-0,367	-0,098
-736,283	218,065	0,116	0,137
-735,269	-89,388	-0,224	-0,048
-734,254	13,543	0,061	-0,035
-733,239	35,870	-0,571	-0,369
-732,225	91,938	0,234	0,194
-731,210	800,000	-0,041	0,097
-730,196	209,273	0,018	-0,021
-729,181	295,098	-0,024	0,033
-728,167	-200,000	-0,013	-0,044
-727,152	-200,000	0,008	-0,151
-726,137	125,985	-0,071	-0,066
-725,123	-200,000	-0,023	-0,084
-724,108	-200,000	-0,002	0,044
-723,094	29,764	-0,049	-0,031
-722,079	234,470	-0,073	-0,089
-721,064	64,931	-0,141	0,104
-720,050	114,049	0,073	-0,065
-719,035	-31,139	-0,177	-0,073
-718,021	-158,849	0,122	0,005
-717,006	800,000	0,032	-0,102
-715,991	-200,000	-0,017	-0,067
-714,977	68,984	-0,094	0,071
-713,962	800,000	-0,068	0,157
-712,948	-50,605	-0,124	-0,043
-711,933	-185,611	0,115	0,001
-710,918	800,000	-0,032	0,073
-709,904	-200,000	0,002	0,088
-708,889	327,230	-0,077	-0,109
-707,875	800,000	-0,067	-0,145
-706,860	-37,354	0,023	-0,009
-705,845	800,000	0,032	0,077
-704,831	310,591	-0,056	-0,078
-703,816	-200,000	0,004	0,238
-702,802	-33,421	0,100	-0,041
-701,787	587,840	0,058	-0,105
-700,772	800,000	0,039	-0,092
-699,758	571,358	-0,056	-0,100
-698,743	-200,000	-0,008	-0,033
-697,729	-35,235	0,074	-0,029
-696,714	-46,221	0,056	-0,020
-695,699	-17,289	0,086	-0,040
-694,685	800,000	-0,006	0,014
-693,670	800,000	-0,051	0,110
-692,656	103,568	0,036	0,031
-691,641	800,000	-0,029	-0,063
-690,627	619,641	0,035	0,065
-689,612	132,693	-0,037	-0,035
-688,597	264,543	0,081	-0,104
-687,583	-86,091	0,096	-0,022
-686,568	-181,114	-0,092	0,001
-685,554	-6,592	0,053	0,026
-684,539	-91,741	0,075	-0,016
-683,524	51,193	0,214	-0,149
-682,510	547,147	0,049	-0,087
-681,495	-200,000	0,014	-0,123
-680,481	-200,000	-0,004	0,047
-679,466	206,700	-0,022	0,025
-678,451	264,835	0,046	-0,059
-677,437	793,721	-0,053	-0,109
-676,422	-200,000	-0,035	0,129
-675,408	474,539	0,060	-0,099
-674,393	133,615	-0,089	0,085
-673,378	-89,873	-0,141	0,030
-672,364	26,925	0,033	-0,020
-671,349	50,364	-0,054	-0,037
-670,335	-123,292	-0,132	-0,015
-669,320	800,000	-0,020	0,062
-668,305	411,649	0,035	0,054
-667,291	-111,569	-0,151	-0,022
-666,276	-200,000	-0,002	0,069
-665,262	-200,000	0,020	0,076
-664,247	800,000	-0,052	0,116
-663,232	191,174	-0,064	-0,071
-662,218	136,833	0,132	0,126
-661,203	119,610	0,086	0,078
-660,189	-200,000	0,011	-0,050
-659,174	-122,845	-0,165	-0,019
-658,159	-200,000	-0,032	-0,124
-657,145	340,495	0,057	0,082
-656,130	-118,989	0,050	0,006
-655,116	800,000	0,026	0,066
-654,101	666,778	0,056	0,106
-653,086	780,018	0,011	-0,023
-652,072	68,819	-0,137	-0,103
-651,057	38,720	0,072	-0,047
-650,043	800,000	-0,013	-0,037
-649,028	674,267	0,016	-0,031
-648,014	268,316	-0,070	-0,090
-646,999	-71,116	0,190	0,052
-645,984	-5,345	-0,059	0,029
-644,970	-148,535	-0,074	-0,004
-643,955	-200,000	0,011	0,041
-642,941	372,860	-0,057	0,086
-641,926	-200,000	0,024	0,084
-640,911	-200,000	-0,009	0,065
-639,897	43,485	0,132	0,088
-638,882	123,583	-0,037	0,034
-637,868	-94,105	-0,160	-0,032
-636,853	-200,000	-0,024	-0,141
-635,838	-200,000	0,011	-0,116
-634,824	-200,000	0,000	-0,015
-633,809	-200,000	-0,005	-0,119
-632,795	0,018	0,144	0,075
-631,780	29,465	-0,035	0,022
-630,765	140,268	-0,079	-0,077
-629,751	18,559	0,040	-0,024
-628,736	183,739	0,080	-0,087
-627,722	-200,000	-0,009	0,066
-626,707	508,541	-0,028	-0,048
-625,692	800,000	-0,035	-0,083
-624,678	-200,000	-0,012	0,116
-623,663	567,552	0,012	-0,022
-622,649	40,312	-0,131	-0,086
-621,634	800,000	0,026	-0,053
-620,619	-200,000	0,053	0,000
-619,605	62,360	0,042	0,031
-618,590	118,248	0,065	0,059
-617,576	800,000	0,018	0,049
-616,561	53,408	0,161	-0,113
-615,546	-200,000	0,034	-0,192
-614,532	80,729	-0,122	-0,096
-613,517	367,130	-0,057	0,085
-612,503	-200,000	-0,001	-0,127
-611,488	-193,638	-0,032	-0,000
-610,474	590,711	-0,009	-0,016
-609,459	800,000	-0,012	-0,036
-608,444	-200,000	0,004	0,038
-607,430	-200,000	-0,020	-0,217
-606,415	-200,000	-0,070	-0,234
-605,401	-92,124	0,195	-0,040
-604,386	-200,000	0,025	0,100
-603,371	-13,485	-0,073	0,035
-602,357	459,590	-0,058	0,095
-601,342	303,770	-0,039	0,053
-600,328	-168,802	-0,125	-0,003
-599,313	-7,906	0,107	-0,053
-598,298	800,000	-0,084	-0,217
-597,284	-37,055	-0,125	0,049
-596,269	-200,000	-0,006	-0,027
-595,255	4,529	-0,033	-0,018
-594,240	-56,151	0,018	0,006
-593,225	-200,000	-0,002	-0,045
-592,211	-91,560	-0,144	0,030
-591,196	124,582	-0,129	0,119
-590,182	154,723	0,049	-0,049
-589,167	141,472	0,083	0,081
-588,152	229,462	0,015	-0,018
-587,138	800,000	-0,016	-0,040
-586,123	800,000	-0,055	-0,126
-585,109	-88,634	-0,153	-0,033
-584,094	-1,730	-0,060	0,031
-583,079	-200,000	0,010	0,199
-582,065	-6,391	-0,079	0,039
-581,050	595,219	-0,011	0,020
-580,036	800,000	-0,017	0,055
-579,021	159,028	0,011	0,011
-578,006	606,715	-0,012	0,022
-576,992	305,782	-0,007	0,009
-575,977	119,424	0,092	0,083
-574,963	-117,404	0,072	0,009
-573,948	-200,000	-0,012	-0,053
-572,934	-135,499	-0,149	-0,013
-571,919	13,281	-0,124	-0,070
-570,904	-200,000	0,001	-0,024
-569,890	244,009	-0,039	-0,048
-568,875	800,000	-0,008	0,018
-567,861	-54,437	0,158	-0,052
-566,846	32,696	0,116	0,073
-565,831	-48,158	-0,170	0,060
-564,817	348,838	-0,031	0,045
-563,802	-200,000	0,043	-0,176
-562,788	-126,961	-0,172	0,018
-561,773	10,697	0,119	0,066
-560,758	-200,000	0,017	-0,097
-559,744	-200,000	-0,009	-0,052
-558,729	800,000	-0,009	-0,026
-557,715	800,000	-0,067	0,210
-556,700	57,109	-0,078	-0,056
-555,685	-200,000	-0,001	-0,060
-554,671	11,395	0,067	-0,038
-553,656	191,674	0,046	0,051
-552,642	800,000	0,084	-0,176
-551,627	-200,000	0,011	0,072
-550,612	264,965	-0,043	-0,055
-549,598	239,759	0,012	-0,015
-548,583	-143,485	0,017	-0,001
-547,569	-200,000	0,007	-0,125
-546,554	-13,112	0,067	0,032
-545,539	-200,000	0,000	-0,077
-544,525	-200,000	-0,000	0,118
-543,510	-44,643	-0,146	0,053
-542,496	95,791	0,028	-0,023
-541,481	259,497	-0,073	0,092
-540,466	618,988	-0,048	-0,088
-539,452	800,000	-0,028	-0,077
-538,437	-60,487	0,132	0,041
-537,423	20,780	-0,044	-0,026
-536,408	-168,787	0,029	0,001
-535,393	414,709	0,127	-0,198
-534,379	3,746	-0,062	0,033
-533,364	519,419	-0,051	0,087
-532,350	238,974	-0,046	0,056
-531,335	-18,579	-0,080	-0,036
-530,321	800,000	0,067	0,163
-529,306	-36,593	-0,047	0,018
-528,291	-200,000	0,018	-0,073
-527,277	-200,000	-0,008	-0,097
-526,262	-77,644	0,144	0,036
-525,248	7,886	0,110	0,060
-524,233	2,567	0,084	0,045
-523,218	58,243	-0,099	-0,071
-522,204	-17,182	0,078	0,036
-521,189	-200,000	-0,014	0,108
-520,175	800,000	-0,013	0,034
-519,160	-5,593	-0,057	-0,028
-518,145	-0,753	-0,037	-0,019
-517,131	-7,174	0,122	-0,060
-516,116	-118,453	-0,169	-0,022
-515,102	-200,000	0,035	0,118
-514,087	193,585	0,045	-0,050
-513,072	324,620	-0,017	-0,024
-512,058	-42,789	0,129	0,048
-511,043	-80,144	-0,097	-0,023
-510,029	-196,697	-0,064	-0,000
-509,014	-112,653	-0,002	-0,000
-507,999	79,502	0,096	0,075
-506,985	-200,000	0,009	-0,089
-505,970	258,466	-0,036	-0,046
-504,956	151,870	-0,162	-0,161
-503,941	-76,727	0,141	-0,036
-502,926	-200,000	0,020	0,088
-501,912	-101,534	0,128	-0,022
-500,897	-200,000	0,004	-0,025
-499,883	21,819	-0,095	0,057
-498,868	91,492	0,105	0,086
-497,853	-200,000	-0,011	-0,042
-496,839	92,806	-0,098	-0,081
-495,824	800,000	-0,012	0,038
-494,810	-93,421	0,043	-0,009
-493,795	-200,000	0,025	-0,097
-492,781	-36,151	0,093	-0,037
-491,766	-94,876	-0,113	-0,022
-490,751	403,139	-0,044	-0,068
-489,737	447,536	-0,010	-0,017
-488,722	229,174	0,151	0,180
-487,708	160,368	-0,044	0,045
-486,693	-100,847	0,119	0,021
-485,678	267,610	-0,053	-0,068
-484,664	-160,598	-0,117	-0,004
-483,649	-109,224	-0,040	0,006
-482,635	-200,000	0,022	-0,181
-481,620	800,000	0,085	-0,190
-480,605	-23,627	0,218	-0,095
-479,591	74,748	0,089	-0,068
-478,576	-42,519	0,054	-0,020
-477,562	777,078	0,015	-0,029
-476,547	-200,000	0,038	0,167
-475,532	-7,565	-0,045	-0,022
-474,518	108,805	0,065	0,057
-473,503	-21,519	0,109	0,048
-472,489	300,658	0,032	0,044
-471,474	385,758	-0,093	0,140
-470,459	-200,000	0,011	-0,133
-469,445	-200,000	-0,022	-0,075
-468,430	-200,000	-0,028	-0,093
-467,416	50,087	0,028	-0,019
-466,401	0,783	0,091	0,047
-465,386	364,097	-0,081	0,119
-464,372	102,370	0,068	0,058
-463,357	-200,000	-0,008	0,055
-462,343	800,000	-0,045	-0,120
-461,328	-94,292	-0,106	-0,021
-460,313	17,132	-0,089	-0,051
-459,299	-113,571	0,015	0,002
-458,284	10,409	0,057	0,031
-457,270	280,965	-0,056	-0,073
-456,255	800,000	0,038	0,084
-455,241	22,305	-0,045	-0,027
-454,226	800,000	0,028	-0,058
-453,211	633,994	0,018	-0,033
-452,197	4,296	0,136	0,073
-451,182	207,629	0,104	0,119
-450,168	800,000	-0,053	0,113
-449,153	20,486	-0,155	0,091
-448,138	-76,355	0,031	0,008
-447,124	-200,000	0,017	-0,099
-446,109	-89,692	-0,030	-0,006
-445,095	-105,284	0,233	0,038
-444,080	-77,860	0,092	-0,023
-443,065	800,000	-0,048	0,102
-442,051	-200,000	-0,023	-0,079
-441,036	-200,000	-0,050	-0,206
-440,022	800,000	-0,013	-0,039
-439,007	-63,842	0,057	-0,017
-437,992	380,820	-0,064	0,096
-436,978	366,326	0,070	0,103
-435,963	-139,487	0,100	-0,008
-434,949	171,265	-0,025	0,026
-433,934	170,871	-0,051	-0,053
-432,919	800,000	-0,011	-0,030
-431,905	-48,306	0,165	0,057
-430,890	118,034	0,075	0,067
-429,876	-71,985	0,176	0,047
-428,861	-75,329	0,097	0,025
-427,846	-162,818	0,064	0,002
-426,832	-175,720	-0,058	0,001
-425,817	-59,382	0,106	-0,033
-424,803	800,000	0,097	-0,230
-423,788	10,587	-0,044	-0,024
-422,773	-200,000	0,003	0,054
-421,759	311,210	-0,078	0,107
-420,744	-200,000	0,013	-0,050
-419,730	70,711	-0,079	-0,060
-418,715	-200,000	-0,017	0,065
-417,701	-71,511	0,039	0,011
-416,686	185,041	0,088	0,096
-415,671	43,666	-0,074	0,049
-414,657	-137,917	0,124	-0,010
-413,642	324,296	0,090	0,126
-412,628	-200,000	0,004	-0,041
-411,613	14,511	0,040	-0,022
-410,598	298,679	0,097	0,130
-409,584	-200,000	0,002	-0,039
-408,569	-142,458	0,116	-0,008
-407,555	-75,102	-0,165	-0,042
-406,540	-200,000	0,022	-0,088
-405,525	123,867	-0,013	-0,012
-404,511	64,252	-0,031	-0,023
-403,496	-120,818	-0,014	0,002
-402,482	-67,647	-0,079	-0,022
-401,467	164,396	0,111	0,114
-400,452	-35,819	-0,098	0,038
-399,438	-200,000	-0,016	0,076
-398,423	66,516	-0,033	0,024
-397,409	84,000	0,039	-0,031
-396,394	-200,000	0,011	0,087
-395,379	800,000	0,064	0,187
-394,365	-59,597	0,073	-0,023
-393,350	172,069	-0,066	0,069
-392,336	258,088	0,012	-0,015
-391,321	-20,071	-0,099	-0,044
-390,306	-68,481	-0,005	0,002
-389,292	12,849	-0,101	-0,056
-388,277	-200,000	0,007	-0,055
-387,263	-7,791	0,095	-0,046
-386,248	79,959	0,088	0,069
-385,233	137,819	0,058	0,055
-384,219	575,460	-0,052	-0,093
-383,204	-200,000	-0,018	-0,167
-382,190	-200,000	0,021	0,145
-381,175	800,000	-0,017	0,051
-380,160	241,930	-0,016	-0,020
-379,146	666,696	-0,061	0,115
-378,131	-200,000	0,013	0,118
-377,117	-82,880	0,031	0,007
-376,102	800,000	-0,040	0,124
-375,088	-100,409	0,083	-0,015
-374,073	-119,847	-0,114	-0,014
-373,058	-33,809	-0,171	0,068
-372,044	482,617	-0,014	0,022
-371,029	-87,861	0,094	-0,020
-370,015	155,811	-0,009	-0,009
-369,000	800,000	-0,060	-0,136
-367,985	31,275	0,049	-0,031
-366,971	-200,000	0,021	0,076
-365,956	106,139	0,037	-0,031
-364,942	252,515	0,082	0,101
-363,927	-86,889	0,082	0,018
-362,912	-113,715	-0,030	0,004
-361,898	29,892	-0,064	-0,040
-360,883	800,000	-0,037	-0,076
-359,869	3,986	0,073	-0,039
-358,854	-34,396	0,101	-0,040
-357,839	-100,629	0,060	0,011
-356,825	-36,904	-0,077	0,030
-355,810	-200,000	-0,000	-0,116
-354,796	-127,656	-0,131	-0,014
-353,781	-200,000	-0,005	-0,076
-352,766	-53,080	-0,119	0,040
-351,752	-107,921	-0,083	0,013
-350,737	-41,628	0,026	0,010
-349,723	-200,000	-0,009	0,032
-348,708	-36,728	0,235	-0,091
-347,693	251,482	-0,067	-0,082
-346,679	-83,764	-0,136	0,031
-345,664	800,000	-0,014	0,036
-344,650	-200,000	0,018	0,073
-343,635	-200,000	0,014	-0,051
-342,620	33,839	-0,048	-0,030
-341,606	-200,000	0,001	0,068
-340,591	800,000	-0,030	0,062
-339,577	-65,909	-0,160	-0,046
-338,562	800,000	0,030	-0,079
-337,548	434,436	-0,020	-0,032
-336,533	241,802	-0,086	0,104
-335,518	-112,602	0,145	-0,021
-334,504	743,594	-0,079	0,156
-333,489	-200,000	-0,025	0,135
-332,475	800,000	0,029	-0,060
-331,460	-104,834	-0,071	-0,012
-330,445	-25,171	0,126	-0,054
-329,431	-109,480	-0,081	0,012
-328,416	-32,439	0,087	0,035
-327,402	718,593	0,030	0,059
-326,387	51,327	-0,119	-0,082
-325,372	-30,445	0,043	-0,018
-324,358	519,174	-0,016	0,028
-323,343	220,252	0,047	-0,055
-322,329	-108,813	0,087	-0,013
-321,314	226,663	0,110	0,130
-320,299	800,000	0,053	0,109
-319,285	-200,000	-0,035	-0,175
-318,270	-200,000	-0,018	-0,069
-317,256	7,040	-0,026	-0,014
-316,241	-200,000	0,122	-0,000
-315,226	-200,000	0,007	0,031
-314,212	27,988	0,085	-0,052
-313,197	207,138	-0,017	-0,020
-312,183	-42,629	0,038	-0,014
-311,168	-200,000	-0,007	-0,034
-310,153	-108,907	-0,146	-0,022
-309,139	800,000	-0,007	0,015
-308,124	-200,000	0,024	-0,152
-307,110	3,873	0,073	-0,039
-306,095	-200,000	0,005	0,072
-305,080	24,188	0,084	0,050
-304,066	411,497	-0,019	-0,029
-303,051	-81,756	0,133	-0,031
-302,037	-200,000	0,001	-0,075
-301,022	800,000	-0,031	-0,074
-300,008	214,245	0,056	0,065
-298,993	-50,269	0,122	-0,042
-297,978	-200,000	-0,010	-0,036
-296,964	-101,673	0,046	-0,008
-295,949	167,771	-0,148	-0,153
-294,935	800,000	-0,052	-0,163
-293,920	800,000	0,029	-0,078
-292,905	-79,880	0,010	-0,002
-291,891	461,411	0,049	-0,079
-290,876	-39,711	-0,028	-0,011
-289,862	-94,902	-0,082	0,016
-288,847	-168,734	0,100	-0,003
-287,832	121,079	-0,020	-0,018
-286,818	-53,361	-0,093	-0,031
-285,803	800,000	0,045	-0,103
-284,789	-3,602	-0,072	-0,036
-283,774	-200,000	-0,002	0,024
-282,759	-184,312	-0,142	0,002
-281,745	-167,444	-0,036	0,001
-280,730	99,086	-0,112	-0,093
-279,716	-64,906	0,023	-0,007
-278,701	186,041	-0,026	0,028
-277,686	-29,154	-0,083	0,034
-276,672	32,429	-0,038	0,024
-275,657	-200,000	-0,010	0,031
-274,643	648,200	0,033	-0,062
-273,628	800,000	0,058	-0,151
-272,613	382,627	-0,023	-0,034
-271,599	345,790	-0,064	0,091
-270,584	-83,449	0,076	0,017
-269,570	79,273	-0,041	0,032
-268,555	487,499	-0,018	-0,030
-267,540	800,000	-0,027	-0,082
-266,526	78,456	-0,047	-0,036
-265,511	326,278	-0,017	0,023
-264,497	105,812	-0,079	0,068
-263,482	-200,000	0,009	0,048
-262,467	-200,000	-0,034	0,110
-261,453	-200,000	0,038	-0,125
-260,438	-0,931	-0,101	-0,051
-259,424	800,000	-0,034	0,071
-258,409	-106,145	-0,113	-0,018
-257,395	-118,334	0,065	0,008
-256,380	800,000	0,015	0,036
-255,365	41,803	-0,105	0,069
-254,351	35,378	-0,062	-0,039
-253,336	-200,000	-0,024	0,124
-252,322	382,417	-0,037	0,055
-251,307	133,653	0,096	0,090
-250,292	-200,000	-0,000	0,054
-249,278	-129,881	-0,014	-0,001
-248,263	44,117	-0,069	0,046
-247,249	-66,963	0,132	-0,037
-246,234	-5,281	0,039	-0,019
-245,219	-200,000	-0,007	-0,093
-244,205	-123,850	0,050	0,006
-243,190	357,415	0,035	0,051
-242,176	-69,662	-0,087	-0,024
-241,161	-200,000	0,003	0,062
-240,146	-56,087	0,055	0,018
-239,132	114,184	0,069	0,061
-238,117	301,109	0,114	-0,153
-237,103	-141,050	-0,094	0,007
-236,088	-159,480	0,060	-0,002
-235,073	-96,159	0,083	0,016
-234,059	434,357	0,069	0,109
-233,044	-200,000	0,005	0,251
-232,030	14,730	-0,059	-0,033
-231,015	-54,357	0,084	-0,027
-230,000	800,000	-0,022	-0,063
-228,986	-131,970	0,050	-0,005
-227,971	142,310	0,087	0,083
-226,957	-200,000	-0,012	0,154
-225,942	-103,981	-0,058	-0,010
-224,927	-200,000	0,033	-0,152
-223,913	800,000	-0,030	-0,063
-222,898	615,572	-0,057	0,103
-221,884	-200,000	-0,020	-0,070
-220,869	-72,603	0,017	0,004
-219,855	157,110	0,011	0,011
-218,840	108,261	-0,060	0,052
-217,825	800,000	-0,046	0,097
-216,811	196,501	0,049	-0,054
-215,796	39,337	0,063	-0,041
-214,782	-200,000	-0,025	-0,094
-213,767	175,836	-0,041	0,043
-212,752	99,327	0,049	0,041
-211,738	800,000	-0,055	0,118
-210,723	800,000	-0,044	-0,089
-209,709	-19,598	-0,060	0,027
-208,694	-118,130	-0,090	0,011
-207,679	138,956	-0,047	0,045
-206,665	-200,000	-0,041	0,205
-205,650	-200,000	0,005	0,215
-204,636	72,498	0,050	-0,038
-203,621	-200,000	-0,018	-0,115
-202,606	217,354	0,032	0,036
-201,592	800,000	-0,008	-0,023
-200,577	-200,000	0,010	-0,043
-199,563	800,000	0,040	0,099
-198,548	-41,375	-0,117	0,043
-197,533	-200,000	0,006	0,157
-196,519	-55,999	-0,020	-0,006
-195,504	800,000	-0,032	-0,078
-194,490	226,494	0,087	-0,101
-193,475	-38,214	0,128	0,049
-192,460	602,062	-0,071	0,127
-191,446	-0,983	0,101	0,051
-190,431	86,448	0,050	0,040
-189,417	53,100	-0,005	-0,003
-188,402	-200,000	-0,001	-0,039
-187,387	666,579	-0,033	0,062
-186,373	-200,000	-0,038	0,128
-185,358	421,420	-0,056	0,087
-184,344	-7,249	-0,064	0,031
-183,329	775,311	0,044	0,087
-182,315	214,531	-0,052	-0,059
-181,300	-7,864	-0,072	0,035
-180,285	-81,757	-0,108	0,025
-179,271	698,785	0,020	0,037
-178,256	-140,923	0,042	-0,003
-177,242	-122,712	-0,224	0,026
-176,227	-200,000	0,042	-0,134
-175,212	127,950	-0,023	0,021
-174,198	-94,055	-0,163	0,032
-173,183	-200,000	-0,036	-0,185
-172,169	23,608	-0,147	-0,087
-171,154	-50,363	-0,040	-0,014
-170,139	-44,825	0,088	0,031
-169,125	105,617	0,039	0,033
-168,110	361,797	0,023	0,033
-167,096	363,284	0,034	-0,049
-166,081	218,041	-0,069	-0,080
-165,066	-62,064	0,129	0,039
-164,052	800,000	0,035	0,072
-163,037	3,620	0,030	0,016
-162,023	185,020	-0,023	-0,024
-161,008	32,758	0,078	-0,049
-159,993	-200,000	0,018	0,067
-158,979	-200,000	0,010	-0,096
-157,964	165,974	0,088	0,089
-156,950	394,155	0,028	0,043
-155,935	87,874	0,139	0,111
-154,920	-200,000	0,010	0,047
-153,906	-200,000	-0,054	0,199
-152,891	-168,642	-0,104	-0,003
-151,877	-107,279	-0,049	0,008
-150,862	195,090	-0,081	0,088
-149,847	-88,289	0,046	0,010
-148,833	-200,000	-0,002	0,025
-147,818	-200,000	-0,004	0,084
-146,804	658,525	0,060	0,112
-145,789	800,000	0,049	0,101
-144,775	-51,096	0,068	0,023
-143,760	800,000	0,032	-0,092
-142,745	-33,000	-0,108	0,043
-141,731	6,600	-0,059	0,031
-140,716	156,255	-0,042	0,042
-139,702	181,404	-0,074	-0,078
-138,687	-6,164	-0,074	-0,036
-137,672	800,000	-0,059	-0,186
-136,658	751,417	-0,077	-0,151
-135,643	-136,020	-0,102	0,008
-134,629	-35,769	0,079	0,031
-133,614	800,000	-0,058	0,153
-132,599	-94,984	-0,089	0,017
-131,585	323,207	-0,050	0,068
-130,570	-47,615	0,112	-0,039
-129,556	578,210	-0,018	0,032
-128,541	167,409	0,036	-0,036
-127,526	800,000	-0,003	-0,008
-126,512	-45,671	0,090	0,032
-125,497	800,000	0,040	0,103
-124,483	-200,000	-0,009	-0,061
-123,468	-99,652	-0,025	0,004
-122,453	-200,000	-0,002	-0,078
-121,439	408,985	-0,026	0,039
-120,424	262,757	0,061	-0,077
-119,410	-200,000	0,012	0,100
-118,395	43,470	0,085	0,056
-117,380	4,118	0,084	0,044
-116,366	253,666	-0,037	0,046
-115,351	123,695	-0,146	-0,132
-114,337	-200,000	-0,000	-0,029
-113,322	-52,998	0,079	-0,026
-112,307	50,512	0,041	0,028
-111,293	-20,936	0,043	-0,019
-110,278	-200,000	-0,006	0,165
-109,264	40,886	0,115	0,075
-108,249	-15,589	-0,116	-0,053
-107,234	-200,000	-0,019	-0,078
-106,220	-200,000	-0,010	-0,105
-105,205	573,442	0,047	0,083
-104,191	-200,000	0,030	0,135
-103,176	-200,000	-0,008	0,036
-102,162	-83,036	0,033	0,007
-101,147	-37,053	-0,144	0,055
-100,132	-40,628	-0,080	0,030
-99,118	800,000	0,028	-0,060
-98,103	41,460	-0,071	0,046
-97,089	158,219	0,063	0,062
-96,074	5,564	-0,078	0,041
-95,059	-200,000	-0,003	0,097
-94,045	-154,907	-0,037	-0,002
-93,030	-91,650	-0,107	0,022
-92,016	132,295	0,024	-0,022
-91,001	435,600	-0,093	-0,147
-89,986	192,987	-0,015	-0,016
-88,972	493,548	0,070	0,116
-87,957	-179,190	-0,123	-0,002
-86,943	198,494	-0,045	0,050
-85,928	800,000	0,034	0,079
-84,913	800,000	0,039	-0,103
-83,899	658,763	0,012	-0,022
-82,884	-200,000	-0,003	0,076
-81,870	-93,960	0,122	0,024
-80,855	800,000	-0,011	-0,035
-79,840	-137,935	-0,099	0,008
-78,826	-200,000	-0,012	-0,043
-77,811	-200,000	-0,011	-0,090
-76,797	-36,783	-0,183	-0,070
-75,782	-57,245	0,116	0,037
-74,767	54,776	-0,069	-0,048
-73,753	-200,000	0,004	-0,047
-72,738	270,916	0,182	0,231
-71,724	102,376	-0,096	-0,081
-70,709	109,849	0,018	-0,016
-69,694	800,000	0,048	-0,113
-68,680	-27,090	0,077	0,032
-67,665	687,987	-0,024	0,045
-66,651	138,528	-0,066	0,062
-65,636	-200,000	-0,044	0,145
-64,622	-200,000	-0,023	0,132
-63,607	800,000	-0,041	-0,111
-62,592	800,000	-0,032	-0,065
-61,578	-58,037	-0,190	-0,059
-60,563	46,358	0,037	0,025
-59,549	401,990	0,016	0,024
-58,534	8,625	-2,167	-1,167
-57,519	-200,000	-0,066	-0,707
-56,505	-200,000	-1,403	-5,161
-55,490	117,048	0,854	0,753
-54,476	800,000	5,343	12,034
-53,461	-200,000	18,641	313,214
-52,446	800,000	740,295	2323,253
-51,432	557,644	1656,443	2875,855
-50,417	110,871	1640,712	1415,840
-49,403	75,090	1290,709	974,509
-48,388	30,477	1031,100	630,621
-47,373	20,002	993,570	572,973
-46,359	17,592	981,308	557,950
-45,344	14,300	977,426	544,900
-44,330	14,569	975,740	544,824
-43,315	14,014	973,938	541,975
-42,300	13,901	972,969	541,043
-41,286	13,954	972,002	540,657
-40,271	13,946	971,004	540,055
-39,257	13,953	970,084	539,545
-38,242	13,969	969,166	539,065
-37,227	13,956	968,419	538,586
-36,213	13,882	967,553	537,841
-35,198	13,849	966,779	537,280
-34,184	13,931	965,973	537,079
-33,169	13,919	964,827	536,380
-32,154	13,952	964,058	536,039
-31,140	13,898	963,438	535,499
-30,125	13,944	962,450	535,077
-29,111	13,952	961,449	534,528
-28,096	13,904	960,934	534,062
-27,082	13,954	960,318	533,862
-26,067	13,988	959,398	533,437
-25,052	13,939	958,748	532,898
-24,038	13,905	958,056	532,382
-23,023	13,930	957,384	532,070
-22,009	13,982	956,744	531,859
-20,994	13,896	956,128	531,219
-19,979	13,963	955,586	531,112
-18,965	13,868	954,938	530,424
-17,950	13,976	954,127	530,300
-16,936	13,898	953,555	529,710
-15,921	13,844	953,078	529,253
-14,906	13,854	952,180	528,763
-13,892	13,818	951,606	528,310
-12,877	13,809	950,956	527,899
-11,863	13,804	950,168	527,426
-10,848	13,839	949,622	527,213
-9,833	13,879	949,096	527,027
-8,819	13,877	948,632	526,741
-7,804	13,866	947,860	526,258
-6,790	13,782	947,299	525,659
-5,775	13,867	946,869	525,669
-4,760	13,819	946,459	525,267
-3,746	13,787	945,653	524,698
-2,731	13,726	944,851	524,039
-1,717	13,682	944,123	523,473
-0,702	13,635	943,522	522,970
0,313	13,452	943,058	522,923
1,327	16,596	940,632	531,481
2,342	25,563	795,824	473,484
3,356	21,887	460,271	268,176
4,371	-4,836	317,456	156,267
5,386	-8,732	299,220	143,296
6,400	-10,564	293,021	138,478
7,415	-11,000	290,590	136,884
8,429	-11,208	289,050	135,940
9,444	-11,316	288,174	135,410
10,459	-11,285	287,493	135,108
11,473	-11,453	286,954	134,678
12,488	-11,155	286,240	134,623
13,502	-11,321	285,861	134,270
14,517	-11,413	285,540	134,018
15,531	-11,403	285,031	133,777
16,546	-11,254	284,438	133,631
17,561	-11,114	284,130	133,611
18,575	-11,104	283,903	133,501
19,590	-11,270	283,374	133,080
20,604	-11,128	283,073	133,064
21,619	-11,424	282,839	132,656
22,634	-11,223	282,474	132,667
23,648	-11,225	281,942	132,404
24,663	-11,221	281,935	132,392
25,677	-11,193	281,564	132,233
26,692	-11,236	281,303	132,058
27,707	-11,245	281,166	131,973
28,721	-11,295	280,662	131,676
29,736	-11,399	280,532	131,505
30,750	-11,432	280,250	131,329
31,765	-11,327	279,984	131,293
32,780	-11,246	279,737	131,243
33,794	-11,269	279,577	131,134
34,809	-11,271	279,343	131,011
35,823	-11,342	278,937	130,741
36,838	-11,349	278,736	130,628
37,853	-11,488	278,440	130,346
38,867	-11,354	278,164	130,332
39,882	-11,475	278,010	130,133
40,896	-11,290	277,760	130,180
41,911	-11,165	277,323	130,082
42,926	-11,280	277,305	129,954
43,940	-11,393	276,879	129,636
44,955	-11,216	276,696	129,705
45,969	-11,353	276,433	129,441
46,984	-11,572	276,205	129,116
47,999	-11,815	276,042	128,801
49,013	-11,823	275,628	128,588
50,028	-11,999	275,402	128,306
51,042	-12,057	275,092	128,096
52,057	-11,978	274,932	128,084
53,071	-11,882	274,671	128,040
54,086	-11,955	274,539	127,900
55,101	-11,853	274,419	127,928
56,115	-11,672	274,230	127,997
57,130	-11,505	274,110	128,086
58,144	-11,186	273,732	128,195
59,159	-11,189	273,571	128,106
60,174	-11,316	273,417	127,903
61,188	-11,241	273,220	127,870
62,203	-11,253	273,114	127,797
63,217	-11,269	272,628	127,544
64,232	-11,299	272,570	127,478
65,247	-11,203	272,241	127,401
66,261	-11,320	272,019	127,178
67,276	-11,212	271,603	127,072
68,290	-11,484	271,411	126,719
69,305	-11,537	271,220	126,570
70,320	-11,509	271,000	126,482
71,334	-11,512	270,885	126,415
72,349	-11,257	270,884	126,637
73,363	-11,237	270,542	126,484
74,378	-11,044	270,200	126,491
75,393	-11,138	269,935	126,269
76,407	-11,290	269,869	126,088
77,422	-11,240	269,594	125,994
78,436	-11,384	269,372	125,747
79,451	-11,197	269,098	125,779
80,466	-11,323	268,825	125,525
81,480	-11,369	268,677	125,403
82,495	-11,509	268,424	125,145
83,509	-11,243	268,213	125,278
84,524	-11,243	267,979	125,158
85,539	-11,482	267,771	124,832
86,553	-11,514	267,540	124,684
87,568	-11,435	267,253	124,611
88,582	-11,430	267,120	124,542
89,597	-11,403	267,041	124,519
90,611	-11,280	266,858	124,534
91,626	-11,334	266,753	124,425
92,641	-11,237	266,328	124,303
93,655	-11,242	266,168	124,213
94,670	-11,460	265,935	123,897
95,684	-11,349	265,853	123,948
96,699	-11,502	265,654	123,706
97,714	-11,314	265,346	123,720
98,728	-11,287	265,202	123,667
99,743	-11,505	264,964	123,349
100,757	-11,484	264,756	123,260
101,772	-11,530	264,521	123,098
102,787	-11,401	264,462	123,175
103,801	-11,341	264,194	123,093
104,816	-11,174	263,892	123,091
105,830	-11,043	263,916	123,208
106,845	-11,123	263,461	122,913
107,860	-11,123	263,304	122,829
108,874	-11,164	263,028	122,653
109,889	-11,282	262,996	122,522
110,903	-11,107	262,625	122,494
111,918	-11,396	262,701	122,261
112,933	-11,196	262,437	122,306
113,947	-11,165	262,148	122,187
114,962	-11,351	262,020	121,952
115,976	-11,188	261,851	122,007
116,991	-11,112	261,513	121,906
118,006	-11,304	261,392	121,669
119,020	-11,107	261,177	121,732
120,035	-11,116	261,196	121,723
121,049	-11,321	260,959	121,420
122,064	-11,130	260,722	121,467
123,079	-11,054	260,626	121,479
124,093	-11,320	260,315	121,088
125,108	-11,354	260,115	120,954
126,122	-11,491	259,725	120,642
127,137	-11,660	259,699	120,471
128,151	-11,662	259,429	120,333
129,166	-11,318	259,190	120,513
130,181	-11,354	259,225	120,487
131,195	-11,574	258,729	120,053
132,210	-11,353	258,684	120,215
133,224	-11,293	258,571	120,204
134,239	-11,160	258,336	120,200
135,254	-11,200	258,251	120,115
136,268	-11,373	258,101	119,884
137,283	-11,523	257,475	119,451
138,297	-11,770	257,468	119,222
139,312	-11,665	257,247	119,201
140,327	-11,290	257,263	119,524
141,341	-11,235	257,071	119,472
142,356	-11,233	256,866	119,368
143,370	-11,185	256,734	119,338
144,385	-11,098	256,621	119,350
145,400	-11,114	256,374	119,210
146,414	-11,047	256,174	119,164
147,429	-11,070	256,011	119,059
148,443	-10,995	255,719	118,977
149,458	-10,914	255,508	118,938
150,473	-10,801	255,318	118,936
151,487	-11,057	255,103	118,605
152,502	-11,104	254,926	118,471
153,516	-11,157	254,832	118,372
154,531	-11,121	254,630	118,298
155,546	-10,980	254,469	118,335
156,560	-10,951	254,171	118,210
157,575	-11,050	253,938	118,006
158,589	-11,034	253,773	117,932
159,604	-11,044	253,701	117,880
160,619	-11,135	253,558	117,726
161,633	-11,108	253,338	117,636
162,648	-11,089	253,190	117,573
163,662	-10,887	252,943	117,620
164,677	-11,018	252,820	117,440
165,692	-10,947	252,684	117,428
166,706	-11,075	252,451	117,199
167,721	-11,100	252,360	117,126
168,735	-10,983	252,245	117,161
169,750	-10,972	252,167	117,124
170,764	-10,917	251,932	117,052
171,779	-10,937	251,647	116,891
172,794	-10,948	251,602	116,851
173,808	-11,230	251,406	116,510
174,823	-11,297	250,971	116,241
175,837	-11,383	250,734	116,048
176,852	-11,124	250,886	116,328
177,867	-10,842	250,640	116,441
178,881	-10,835	250,481	116,363
179,896	-11,013	250,386	116,159
180,910	-10,995	250,117	116,039
181,925	-10,919	250,081	116,076
182,940	-10,764	249,856	116,091
183,954	-11,055	249,670	115,749
184,969	-11,004	249,514	115,710
185,983	-10,946	249,180	115,594
186,998	-10,921	249,068	115,552
188,013	-10,806	248,931	115,574
189,027	-10,975	248,573	115,257
190,042	-11,055	248,580	115,182
191,056	-10,881	248,397	115,234
192,071	-10,985	248,238	115,062
193,086	-10,978	248,020	114,957
194,100	-10,965	247,873	114,889
195,115	-10,807	247,709	114,935
196,129	-10,763	247,425	114,829
197,144	-11,073	247,249	114,480
198,159	-11,116	247,155	114,390
199,173	-11,089	247,049	114,353
200,188	-11,152	246,715	114,136
201,202	-11,441	246,485	113,779
202,217	-11,575	246,169	113,513
203,232	-11,641	246,103	113,417
204,246	-11,035	245,887	113,809
205,261	-10,882	245,884	113,924
206,275	-11,748	245,437	112,992
207,290	-7,972	247,020	116,845
208,304	0,205	249,683	124,935
209,319	4,183	250,902	128,866
210,334	4,562	250,827	129,132
211,348	4,802	250,740	129,277
212,363	5,097	250,571	129,424
213,377	5,208	250,346	129,389
214,392	5,102	250,187	129,207
215,407	4,875	250,097	128,960
216,421	4,931	249,849	128,867
217,436	4,920	249,709	128,774
218,450	5,418	249,490	129,063
219,465	4,655	249,534	128,441
220,480	4,597	249,325	128,274
221,494	4,897	248,903	128,294
222,509	4,623	248,964	128,086
223,523	4,661	248,710	127,976
224,538	4,278	248,478	127,529
225,553	4,325	248,332	127,481
226,567	4,494	248,105	127,492
227,582	4,671	247,921	127,533
228,596	4,506	247,914	127,382
229,611	4,424	247,517	127,099
230,626	4,099	247,394	126,757
231,640	4,340	247,258	126,874
232,655	4,516	247,061	126,906
233,669	4,133	246,902	126,499
234,684	4,188	246,840	126,501
235,699	4,643	246,740	126,812
236,713	4,395	246,701	126,577
237,728	4,316	246,375	126,334
238,742	4,230	246,076	126,099
239,757	4,105	245,917	125,904
240,772	4,121	245,854	125,873
241,786	4,258	245,708	125,899
242,801	4,145	245,500	125,689
243,815	4,048	245,388	125,542
244,830	4,563	245,188	125,848
245,844	4,428	245,061	125,662
246,859	4,440	244,865	125,559
247,874	4,112	244,795	125,246
248,888	4,322	244,586	125,298
249,903	4,297	244,565	125,256
250,917	4,578	244,245	125,309
251,932	4,775	244,280	125,475
252,947	4,588	243,962	125,149
253,961	4,507	243,771	124,975
254,976	4,385	243,564	124,759
255,990	4,811	243,464	125,040
257,005	4,287	243,230	124,486
258,020	4,134	243,136	124,304
259,034	4,361	243,005	124,408
260,049	4,457	242,826	124,383
261,063	4,247	242,519	124,046
262,078	4,334	242,474	124,081
263,093	4,556	242,344	124,183
264,107	4,493	242,297	124,097
265,122	4,198	242,082	123,739
266,136	4,511	241,973	123,923
267,151	4,817	241,721	124,029
268,166	4,308	241,549	123,522
269,180	4,182	241,498	123,383
270,195	4,879	241,375	123,868
271,209	5,078	241,308	123,981
272,224	4,483	240,889	123,280
273,239	3,969	240,592	122,707
274,253	4,057	240,654	122,797
275,268	4,194	240,565	122,850
276,282	4,496	240,321	122,956
277,297	4,136	240,005	122,497
278,312	4,333	240,080	122,681
279,326	4,377	239,907	122,616
280,341	4,328	239,728	122,475
281,355	4,331	239,596	122,399
282,370	4,645	239,356	122,514
283,384	4,359	239,238	122,216
284,399	4,197	239,101	122,007
285,414	3,871	238,912	121,642
286,428	4,193	238,701	121,778
287,443	4,126	238,727	121,727
288,457	4,404	238,601	121,872
289,472	4,747	238,362	122,010
290,487	4,416	238,194	121,652
291,501	4,123	238,008	121,315
292,516	4,046	237,785	121,131
293,530	4,082	237,693	121,101
294,545	4,479	237,587	121,348
295,560	4,460	237,577	121,317
296,574	4,034	237,330	120,846
297,589	4,275	237,038	120,875
298,603	4,389	237,124	120,998
299,618	4,427	237,073	120,991
300,633	4,455	236,779	120,852
301,647	4,650	236,626	120,916
302,662	4,948	236,553	121,101
303,676	4,665	236,507	120,845
304,691	4,569	236,289	120,647
305,706	4,715	236,093	120,651
306,720	4,830	235,993	120,679
307,735	4,816	235,687	120,501
308,749	4,613	235,574	120,275
309,764	4,360	235,321	119,937
310,779	4,175	235,091	119,666
311,793	4,023	234,905	119,443
312,808	4,141	234,677	119,407
313,822	4,035	234,554	119,252
314,837	3,997	234,453	119,161
315,852	4,029	234,295	119,095
316,866	4,147	234,341	119,199
317,881	4,561	234,075	119,373
318,895	4,200	233,904	118,996
319,910	4,452	233,875	119,165
320,925	4,692	233,608	119,204
321,939	4,313	233,481	118,836
322,954	4,374	233,517	118,891
323,968	4,623	233,329	118,976
324,983	4,505	233,121	118,769
325,997	4,701	232,891	118,792
327,012	4,664	232,925	118,770
328,027	4,537	232,643	118,519
329,041	4,732	232,630	118,651
330,056	5,171	232,612	118,968
331,070	5,313	232,449	118,982
332,085	4,675	232,312	118,413
333,100	4,540	232,004	118,142
334,114	4,577	231,865	118,089
335,129	4,867	231,726	118,229
336,143	4,909	231,523	118,147
337,158	4,704	231,522	117,979
338,173	4,490	231,196	117,640
339,187	4,531	231,025	117,574
340,202	4,572	230,860	117,510
341,216	4,304	230,782	117,256
342,231	4,369	230,608	117,207
343,246	4,450	230,567	117,237
344,260	4,537	230,441	117,228
345,275	4,857	230,344	117,412
346,289	4,573	230,278	117,152
347,304	4,768	230,111	117,205
348,319	4,711	229,936	117,062
349,333	4,598	229,723	116,857
350,348	4,261	229,587	116,523
351,362	4,560	229,447	116,667
352,377	4,422	229,206	116,431
353,392	4,217	228,964	116,143
354,406	4,088	228,849	115,977
355,421	195,371	1319,645	1394,770
356,435	156,695	1452,505	1394,729
