DTS Sentinel unit serial number:	SN410029Multiplexer serial number:	ORYXHardware model number:	OX2-SRSoftware version number:	ORYX F/W v4,00 Oryx Data Collector v3.7.2.0data status	okinstallation	B5 Nyhavnadifferential loss correction	single-endedforward channel	channel 2reverse channel	N/Adate	2023/12/14time	10:17:13forward acquisition time	300,00reverse acquisition time	0,00gamma	499,1914k internal	0,3161k external	0,3161temperature offset calibration	1,0000default loss term (dB/km)	0,3820temperature slope calibration	1,0000multiplexer offset coefficient	1,0000multiplexer slope coefficient	1,0000fibre end	0,00T internal ref (°C)	6,88T ext. ref 1 (°C)	-9,09T ext. ref 2 (°C)	-9,21length (m)	temperature (°C)	Stokes	anti-Stokes-744,400	-96,946	0,234	0,045
-743,385	-111,724	-0,357	-0,053
-742,371	-55,031	0,212	0,070
-741,356	-54,279	-0,245	-0,081
-740,342	529,807	0,006	0,011
-739,327	-55,379	-0,304	-0,100
-738,312	-1,313	0,103	0,054
-737,298	-56,446	-0,467	-0,152
-736,283	72,330	0,216	0,166
-735,269	-93,854	-0,237	-0,048
-734,254	225,803	0,081	0,097
-733,239	-12,507	-0,587	-0,281
-732,225	12,645	0,211	0,120
-731,210	-23,316	0,082	0,036
-730,196	800,000	0,032	-0,077
-729,181	800,000	0,010	0,032
-728,167	-18,111	0,082	-0,038
-727,152	-200,000	0,030	-0,098
-726,137	-147,917	-0,147	0,009
-725,123	-200,000	0,008	0,047
-724,108	351,412	0,052	-0,076
-723,094	-200,000	-0,003	-0,078
-722,079	337,988	-0,113	-0,162
-721,064	53,819	0,035	0,025
-720,050	-72,512	0,108	0,029
-719,035	-22,780	0,068	-0,030
-718,021	800,000	-0,077	-0,236
-717,006	800,000	-0,031	-0,069
-715,991	-126,508	0,058	-0,006
-714,977	16,274	-0,076	0,044
-713,962	91,626	0,056	-0,046
-712,948	-141,385	0,095	0,007
-711,933	-200,000	0,000	-0,038
-710,918	-197,075	-0,106	-0,000
-709,904	50,566	0,037	0,026
-708,889	-51,572	0,022	0,007
-707,875	168,125	-0,048	-0,050
-706,860	345,064	-0,072	0,104
-705,845	413,571	0,105	0,165
-704,831	-108,123	0,106	-0,017
-703,816	-14,254	-0,114	-0,054
-702,802	273,840	-0,072	0,093
-701,787	598,224	-0,053	-0,097
-700,772	-79,815	-0,098	-0,024
-699,758	-200,000	0,007	-0,039
-698,743	36,285	0,089	-0,057
-697,729	-200,000	0,004	0,028
-696,714	-200,000	-0,013	0,098
-695,699	125,704	-0,039	-0,036
-694,685	-39,495	-0,077	-0,030
-693,670	-134,494	-0,073	0,006
-692,656	800,000	0,028	-0,083
-691,641	-200,000	-0,034	0,112
-690,627	-200,000	0,013	0,050
-689,612	-92,778	-0,170	0,035
-688,597	212,585	-0,074	-0,086
-687,583	395,265	-0,071	-0,109
-686,568	800,000	-0,040	0,092
-685,554	-89,136	0,076	0,016
-684,539	-4,367	0,077	-0,039
-683,524	95,573	0,066	0,055
-682,510	-200,000	0,005	0,026
-681,495	800,000	-0,019	-0,043
-680,481	-200,000	0,019	0,162
-679,466	-93,634	-0,143	0,029
-678,451	-200,000	-0,014	-0,101
-677,437	278,398	-0,043	0,056
-676,422	-74,329	0,154	0,041
-675,408	499,968	-0,060	0,103
-674,393	228,089	0,041	0,050
-673,378	385,890	-0,033	-0,050
-672,364	-45,848	0,132	-0,048
-671,349	-85,158	0,038	0,009
-670,335	172,447	0,052	-0,055
-669,320	189,256	-0,037	0,041
-668,305	-62,351	0,059	0,018
-667,291	800,000	-0,074	0,154
-666,276	-200,000	0,048	-0,246
-665,262	800,000	0,036	-0,100
-664,247	800,000	-0,034	-0,075
-663,232	-200,000	-0,012	-0,101
-662,218	-134,564	0,107	-0,009
-661,203	-150,687	-0,106	0,006
-660,189	-68,941	0,066	-0,019
-659,174	-108,726	-0,057	0,009
-658,159	44,419	-0,080	-0,054
-657,145	-63,072	0,117	0,035
-656,130	53,561	0,056	-0,039
-655,116	-200,000	0,034	0,180
-654,101	656,507	-0,040	0,075
-653,086	576,913	-0,075	-0,135
-652,072	-200,000	0,032	-0,139
-651,057	-73,840	-0,062	-0,017
-650,043	-200,000	-0,028	-0,100
-649,028	413,727	0,084	-0,132
-648,014	-200,000	0,029	-0,099
-646,999	149,832	-0,020	0,020
-645,984	-116,938	-0,074	-0,010
-644,970	-200,000	-0,004	0,031
-643,955	-200,000	-0,017	0,058
-642,941	-200,000	0,016	-0,093
-641,926	-200,000	0,001	0,160
-640,911	800,000	-0,024	0,051
-639,897	-200,000	0,004	0,024
-638,882	359,285	-0,059	-0,086
-637,868	118,703	0,050	-0,045
-636,853	-127,599	-0,130	-0,014
-635,838	23,618	-0,026	-0,015
-634,824	-45,951	0,056	-0,020
-633,809	-200,000	0,021	0,114
-632,795	184,268	0,080	-0,087
-631,780	23,692	0,082	-0,050
-630,765	64,664	0,051	0,038
-629,751	105,738	-0,094	-0,081
-628,736	210,253	0,090	0,103
-627,722	481,216	0,078	-0,130
-626,707	7,385	-0,048	-0,026
-625,692	377,586	0,085	0,127
-624,678	-68,889	0,116	0,033
-623,663	301,560	-0,011	-0,015
-622,649	-168,101	0,008	-0,000
-621,634	22,492	-0,103	0,062
-620,619	-80,968	0,066	-0,016
-619,605	49,542	-0,121	-0,083
-618,590	799,282	0,047	0,095
-617,576	-35,326	-0,058	0,023
-616,561	107,094	0,018	-0,016
-615,546	-3,608	-0,040	0,020
-614,532	-81,702	-0,136	-0,033
-613,517	-200,000	0,008	-0,040
-612,503	800,000	-0,038	-0,112
-611,488	34,448	0,172	0,110
-610,474	-200,000	-0,009	0,048
-609,459	800,000	-0,014	0,036
-608,444	491,080	-0,086	-0,144
-607,430	-122,918	-0,029	0,003
-606,415	207,107	-0,014	-0,016
-605,401	-69,313	-0,047	-0,013
-604,386	-80,803	0,044	-0,011
-603,371	800,000	0,049	0,127
-602,357	-200,000	-0,011	0,063
-601,342	800,000	0,074	-0,153
-600,328	37,128	0,039	-0,025
-599,313	38,218	-0,095	0,062
-598,298	-10,499	-0,048	-0,023
-597,284	311,927	0,057	-0,078
-596,269	-195,156	0,081	0,000
-595,255	103,080	-0,099	0,085
-594,240	132,362	-0,067	-0,063
-593,225	800,000	0,030	-0,068
-592,211	-200,000	-0,039	-0,140
-591,196	231,474	-0,117	0,140
-590,182	800,000	-0,025	0,077
-589,167	318,487	-0,097	0,135
-588,152	-200,000	-0,006	0,151
-587,138	215,597	0,020	0,024
-586,123	174,303	-0,068	-0,072
-585,109	-13,213	0,063	0,030
-584,094	103,014	0,069	0,059
-583,079	-136,466	-0,068	-0,006
-582,065	-200,000	-0,005	0,049
-581,050	399,995	0,082	0,127
-580,036	473,250	-0,030	0,049
-579,021	183,416	0,035	0,038
-578,006	-178,785	-0,113	-0,002
-576,992	487,619	0,029	-0,049
-575,977	-200,000	0,006	0,091
-574,963	800,000	-0,037	-0,083
-573,948	95,010	-0,071	0,059
-572,934	5,350	0,029	0,015
-571,919	-114,490	-0,086	-0,012
-570,904	259,766	0,045	-0,056
-569,890	800,000	0,022	0,062
-568,875	20,048	-0,104	0,061
-567,861	365,313	0,035	0,051
-566,846	800,000	-0,012	-0,026
-565,831	15,456	0,104	0,060
-564,817	435,975	-0,028	-0,045
-563,802	-77,721	-0,158	-0,040
-562,788	172,669	0,190	-0,200
-561,773	257,675	0,059	0,074
-560,758	-200,000	0,025	0,090
-559,744	70,905	0,100	0,076
-558,729	-196,114	0,141	-0,001
-557,715	800,000	-0,047	-0,124
-556,700	800,000	0,026	0,056
-555,685	182,549	-0,070	0,075
-554,671	192,108	-0,126	-0,139
-553,656	-138,216	0,026	0,002
-552,642	-39,151	0,076	0,029
-551,627	-187,473	-0,080	0,001
-550,612	800,000	0,011	-0,033
-549,598	58,792	-0,089	-0,064
-548,583	-200,000	-0,034	-0,133
-547,569	169,754	-0,072	0,075
-546,554	96,782	0,030	-0,025
-545,539	-4,307	-0,112	0,057
-544,525	-65,162	0,089	0,026
-543,510	58,593	-0,073	-0,052
-542,496	-6,608	-0,159	0,079
-541,481	-93,238	-0,036	-0,007
-540,466	800,000	-0,017	-0,038
-539,452	21,653	0,043	-0,026
-538,437	65,755	-0,036	-0,026
-537,423	110,076	0,074	-0,065
-536,408	-53,296	0,158	0,053
-535,393	-200,000	0,026	-0,151
-534,379	14,586	-0,066	0,038
-533,364	-200,000	0,002	-0,156
-532,350	-78,553	0,118	0,029
-531,335	292,187	0,058	0,077
-530,321	-57,465	0,030	0,010
-529,306	694,034	-0,055	-0,107
-528,291	-200,000	0,018	0,069
-527,277	66,377	-0,091	-0,067
-526,262	334,690	-0,080	-0,113
-525,248	800,000	0,053	-0,155
-524,233	-140,400	0,093	0,007
-523,218	-37,379	0,071	-0,028
-522,204	-6,966	-0,114	0,056
-521,189	4,598	-0,060	0,032
-520,175	-200,000	0,019	-0,126
-519,160	-200,000	-0,009	0,029
-518,145	665,088	0,051	0,096
-517,131	-41,346	0,085	-0,032
-516,116	298,210	0,050	0,067
-515,102	22,953	-0,095	0,057
-514,087	800,000	-0,074	-0,161
-513,072	212,457	0,023	0,027
-512,058	-200,000	-0,002	-0,014
-511,043	800,000	0,063	0,176
-510,029	-145,880	0,126	-0,008
-509,014	430,603	-0,070	0,111
-507,999	-147,506	-0,099	-0,006
-506,985	-200,000	0,015	-0,059
-505,970	-33,720	0,086	0,034
-504,956	-168,844	0,100	0,003
-503,941	-200,000	0,001	0,059
-502,926	157,942	-0,038	0,038
-501,912	-200,000	0,016	0,075
-500,897	20,797	-0,048	0,029
-499,883	301,799	-0,028	0,038
-498,868	800,000	-0,059	0,158
-497,853	-69,929	0,052	-0,014
-496,839	800,000	-0,031	0,067
-495,824	-80,398	-0,269	0,065
-494,810	800,000	0,011	0,023
-493,795	-97,443	-0,091	-0,017
-492,781	628,239	-0,059	-0,110
-491,766	185,604	-0,074	-0,081
-490,751	214,977	-0,008	0,010
-489,737	-200,000	0,001	-0,054
-488,722	-3,261	-0,043	-0,022
-487,708	-187,355	0,051	0,000
-486,693	-133,298	0,058	-0,005
-485,678	387,067	-0,067	-0,102
-484,664	95,734	0,148	0,123
-483,649	-125,300	-0,117	-0,013
-482,635	-89,869	-0,056	-0,012
-481,620	-157,117	0,113	-0,005
-480,605	501,969	0,045	0,076
-479,591	-114,830	-0,172	0,024
-478,576	-82,647	-0,039	-0,009
-477,562	108,132	-0,072	-0,062
-476,547	-200,000	0,033	0,255
-475,532	-59,936	-0,104	0,032
-474,518	-5,863	0,114	0,057
-473,503	60,869	0,109	0,079
-472,489	-87,448	0,120	0,026
-471,474	22,945	-0,107	-0,064
-470,459	164,579	0,018	0,019
-469,445	800,000	0,020	0,060
-468,430	634,734	0,075	-0,139
-467,416	-200,000	0,083	0,000
-466,401	39,238	0,071	-0,046
-465,386	94,454	0,118	-0,098
-464,372	800,000	0,055	0,134
-463,357	-12,730	-0,095	-0,045
-462,343	-200,000	0,012	0,045
-461,328	800,000	-0,048	0,099
-460,313	182,042	-0,080	-0,086
-459,299	-200,000	-0,032	-0,120
-458,284	311,858	0,121	0,165
-457,270	60,435	-0,028	0,020
-456,255	-116,622	-0,065	0,009
-455,241	-117,727	-0,106	-0,014
-454,226	-200,000	0,023	-0,158
-453,211	800,000	-0,010	-0,029
-452,197	800,000	0,056	0,174
-451,182	-128,327	0,146	-0,015
-450,168	-4,476	-0,043	0,021
-449,153	353,074	0,063	-0,092
-448,138	-200,000	-0,010	-0,080
-447,124	-7,740	-0,066	0,033
-446,109	104,817	0,148	0,127
-445,095	204,426	0,022	0,025
-444,080	715,100	0,022	0,042
-443,065	458,617	-0,082	0,133
-442,051	-72,721	0,051	-0,014
-441,036	-200,000	-0,041	-0,225
-440,022	-112,172	-0,114	-0,017
-439,007	-200,000	-0,003	0,040
-437,992	-200,000	0,004	-0,127
-436,978	-136,876	0,019	-0,002
-435,963	800,000	0,033	0,074
-434,949	800,000	0,023	0,069
-433,934	800,000	-0,060	-0,171
-432,919	89,491	-0,052	-0,042
-431,905	-79,507	0,108	-0,026
-430,890	-45,834	0,076	-0,027
-429,876	-200,000	0,046	0,000
-428,861	800,000	0,069	0,154
-427,846	800,000	-0,039	0,086
-426,832	-111,268	-0,071	0,010
-425,817	-126,898	0,050	-0,005
-424,803	56,718	0,186	-0,131
-423,788	-200,000	-0,006	-0,102
-422,773	800,000	0,036	0,092
-421,759	182,210	-0,068	0,073
-420,744	-127,211	-0,136	0,014
-419,730	405,030	0,014	-0,021
-418,715	-39,073	0,065	-0,025
-417,701	-163,734	0,045	0,002
-416,686	800,000	-0,069	-0,168
-415,671	151,755	0,040	-0,040
-414,657	173,976	0,073	-0,077
-413,642	130,980	-0,060	-0,056
-412,628	800,000	0,027	0,068
-411,613	226,068	0,063	-0,075
-410,598	68,102	-0,023	-0,017
-409,584	707,968	-0,053	0,103
-408,569	241,791	0,073	0,089
-407,555	-200,000	-0,016	0,068
-406,540	-197,291	-0,133	-0,001
-405,525	39,000	-0,122	-0,079
-404,511	90,496	-0,048	0,039
-403,496	83,185	0,063	0,050
-402,482	4,497	0,011	-0,006
-401,467	-35,218	0,107	0,042
-400,452	-96,050	0,031	-0,006
-399,438	-200,000	-0,007	-0,098
-398,423	-177,669	-0,129	0,002
-397,409	-131,055	0,054	0,005
-396,394	-20,814	-0,041	-0,018
-395,379	118,082	-0,036	-0,032
-394,365	108,858	0,037	-0,032
-393,350	275,914	0,119	0,153
-392,336	-200,000	0,003	-0,123
-391,321	323,856	-0,058	0,081
-390,306	-200,000	-0,023	-0,082
-389,292	800,000	0,016	-0,033
-388,277	-123,974	0,130	-0,015
-387,263	-15,145	0,143	-0,066
-386,248	298,771	0,031	-0,042
-385,233	-81,741	-0,096	0,023
-384,219	457,193	-0,065	0,105
-383,204	-20,880	0,083	0,037
-382,190	-34,517	-0,073	-0,029
-381,175	-99,758	-0,039	0,007
-380,160	-38,405	0,094	0,036
-379,146	148,794	-0,096	-0,094
-378,131	124,872	0,066	0,060
-377,117	113,063	0,099	-0,087
-376,102	92,687	-0,089	0,073
-375,088	800,000	0,034	0,071
-374,073	93,276	-0,052	0,042
-373,058	-119,007	-0,076	-0,010
-372,044	-87,524	0,120	-0,026
-371,029	514,186	0,074	0,126
-370,015	-65,278	-0,057	0,017
-369,000	225,726	-0,036	-0,042
-367,985	-68,480	0,093	-0,026
-366,971	-6,308	-0,082	-0,040
-365,956	9,369	0,025	0,014
-364,942	-34,646	0,173	0,068
-363,927	-88,352	0,132	0,028
-362,912	-200,000	-0,007	-0,103
-361,898	92,036	-0,022	0,018
-360,883	-155,926	-0,074	-0,003
-359,869	95,990	0,059	-0,049
-358,854	175,815	-0,083	-0,087
-357,839	481,683	0,041	0,068
-356,825	-200,000	0,009	0,035
-355,810	-200,000	-0,016	0,070
-354,796	-200,000	0,021	-0,143
-353,781	-200,000	-0,000	-0,187
-352,766	46,276	-0,059	-0,039
-351,752	-64,223	0,105	0,031
-350,737	397,543	0,035	0,053
-349,723	800,000	0,057	0,148
-348,708	-200,000	0,012	0,071
-347,693	-200,000	-0,007	0,105
-346,679	29,133	-0,037	-0,023
-345,664	-200,000	-0,001	0,065
-344,650	43,153	0,156	-0,103
-343,635	-66,836	0,119	-0,034
-342,620	91,776	0,095	-0,077
-341,606	-108,300	-0,062	0,010
-340,591	-200,000	-0,004	-0,108
-339,577	-200,000	0,021	0,145
-338,562	-200,000	-0,028	-0,167
-337,548	62,472	0,045	0,032
-336,533	-200,000	0,002	0,142
-335,518	-200,000	0,002	0,071
-334,504	-15,203	-0,092	0,043
-333,489	733,304	-0,110	0,213
-332,475	-64,758	0,057	0,017
-331,460	-200,000	-0,039	-0,138
-330,445	350,090	0,045	0,065
-329,431	17,752	0,026	-0,015
-328,416	-200,000	0,022	0,227
-327,402	220,945	-0,077	0,090
-326,387	-43,577	0,136	-0,050
-325,372	661,007	0,009	0,016
-324,358	-121,035	-0,145	0,017
-323,343	397,193	0,053	-0,081
-322,329	-200,000	0,098	-0,000
-321,314	-200,000	0,027	0,137
-320,299	800,000	0,016	0,035
-319,285	-3,225	0,072	0,036
-318,270	-200,000	0,005	0,078
-317,256	-161,157	-0,089	-0,003
-316,241	378,534	0,030	0,044
-315,226	4,175	0,046	0,024
-314,212	-84,363	0,045	0,010
-313,197	217,818	-0,079	0,092
-312,183	13,882	0,050	0,028
-311,168	96,855	0,090	-0,075
-310,153	151,057	-0,164	-0,162
-309,139	-200,000	0,010	0,045
-308,124	792,837	0,054	0,109
-307,110	-200,000	0,014	-0,089
-306,095	172,348	0,117	-0,122
-305,080	-1,271	-0,054	-0,028
-304,066	-200,000	-0,022	-0,154
-303,051	-144,818	-0,093	-0,006
-302,037	58,646	-0,068	0,049
-301,022	-22,578	-0,105	0,046
-300,008	6,753	0,065	0,035
-298,993	800,000	0,044	0,128
-297,978	-25,916	-0,086	-0,036
-296,964	-200,000	0,023	-0,105
-295,949	146,741	-0,052	-0,051
-294,935	-127,997	-0,011	-0,001
-293,920	59,372	-0,147	0,105
-292,905	-92,495	0,108	0,022
-291,891	-200,000	-0,003	0,148
-290,876	-200,000	-0,014	-0,093
-289,862	122,585	0,035	0,032
-288,847	766,156	-0,050	0,098
-287,832	68,113	-0,089	0,066
-286,818	9,840	-0,021	0,012
-285,803	-57,676	-0,033	0,010
-284,789	-44,973	-0,148	-0,053
-283,774	-74,006	-0,026	-0,007
-282,759	-200,000	0,024	0,124
-281,745	800,000	-0,024	0,057
-280,730	381,720	-0,042	-0,063
-279,716	-139,176	-0,154	-0,012
-278,701	800,000	0,029	0,071
-277,686	-47,463	-0,027	0,009
-276,672	44,896	0,051	0,034
-275,657	1,663	-0,054	-0,028
-274,643	723,130	-0,033	-0,064
-273,628	800,000	0,037	-0,079
-272,613	5,343	-0,107	0,057
-271,599	-123,304	0,051	-0,006
-270,584	-200,000	-0,001	0,017
-269,570	283,122	0,031	0,040
-268,555	455,918	-0,040	-0,064
-267,540	-86,650	0,051	0,011
-266,526	-200,000	-0,004	-0,039
-265,511	72,443	0,064	0,048
-264,497	-170,833	0,082	0,002
-263,482	-200,000	-0,007	-0,106
-262,467	702,535	0,040	-0,076
-261,453	-64,915	0,074	0,021
-260,438	-121,077	-0,124	0,015
-259,424	-124,663	-0,118	0,013
-258,409	219,178	0,028	0,032
-257,395	-93,724	0,139	0,028
-256,380	-100,097	-0,072	-0,013
-255,365	151,298	0,049	0,048
-254,351	800,000	-0,012	-0,025
-253,336	-49,050	0,092	-0,032
-252,322	17,075	0,094	0,054
-251,307	0,304	-0,085	-0,044
-250,292	-200,000	-0,002	-0,036
-249,278	236,090	0,039	-0,047
-248,263	141,019	-0,063	0,060
-247,249	-176,708	0,066	0,001
-246,234	-200,000	0,005	-0,116
-245,219	-100,010	0,073	0,013
-244,205	14,666	0,152	-0,086
-243,190	317,579	-0,029	0,040
-242,176	-42,291	0,107	-0,039
-241,161	800,000	0,011	-0,031
-240,146	800,000	-0,012	-0,030
-239,132	-200,000	-0,011	-0,042
-238,117	800,000	-0,054	-0,112
-237,103	-33,131	-0,129	-0,051
-236,088	31,168	0,035	0,022
-235,073	239,768	-0,066	0,080
-234,059	699,625	0,032	0,061
-233,044	26,613	0,079	-0,048
-232,030	160,125	-0,034	-0,034
-231,015	331,777	-0,056	-0,078
-230,000	-135,787	-0,071	-0,006
-228,986	-200,000	-0,008	0,087
-227,971	-200,000	-0,001	0,107
-226,957	800,000	-0,038	-0,111
-225,942	-98,400	-0,115	0,021
-224,927	-200,000	-0,026	0,124
-223,913	-200,000	-0,008	0,048
-222,898	-77,739	-0,078	0,019
-221,884	-111,561	0,102	-0,015
-220,869	104,044	0,096	-0,082
-219,855	-122,158	0,065	0,008
-218,840	293,704	0,049	-0,065
-217,825	105,180	-0,046	-0,039
-216,811	49,617	-0,047	-0,032
-215,796	357,439	-0,094	-0,136
-214,782	-110,890	0,064	-0,009
-213,767	2,073	-0,033	0,017
-212,752	-16,330	0,071	0,033
-211,738	-69,288	0,084	-0,023
-210,723	800,000	0,026	0,068
-209,709	77,860	-0,105	-0,080
-208,694	-86,482	-0,049	0,011
-207,679	800,000	0,088	-0,254
-206,665	132,671	-0,070	0,065
-205,650	800,000	0,007	-0,017
-204,636	800,000	0,018	-0,051
-203,621	477,982	0,028	-0,046
-202,606	676,198	-0,030	0,056
-201,592	-200,000	-0,020	-0,125
-200,577	233,570	-0,065	-0,078
-199,563	-124,617	-0,127	0,014
-198,548	-200,000	0,003	0,132
-197,533	-21,624	0,063	-0,027
-196,519	-57,373	-0,076	-0,024
-195,504	-84,655	-0,023	-0,005
-194,490	59,101	-0,027	0,019
-193,475	272,089	-0,048	0,061
-192,460	-111,249	-0,107	0,016
-191,446	-108,111	0,021	-0,003
-190,431	-200,000	-0,004	-0,026
-189,417	800,000	0,062	0,133
-188,402	200,594	0,049	0,055
-187,387	70,780	0,018	0,014
-186,373	10,156	-0,090	-0,049
-185,358	633,832	0,019	-0,035
-184,344	102,617	0,006	-0,005
-183,329	-93,732	0,079	-0,016
-182,315	253,075	0,055	0,068
-181,300	-26,216	0,119	0,050
-180,285	115,446	-0,186	-0,164
-179,271	-57,393	-0,120	0,038
-178,256	99,049	-0,066	-0,055
-177,242	-52,400	0,044	-0,015
-176,227	800,000	0,018	0,037
-175,212	538,094	-0,039	-0,067
-174,198	354,463	-0,060	-0,086
-173,183	-43,678	-0,026	-0,009
-172,169	406,988	0,075	-0,114
-171,154	91,601	0,051	-0,041
-170,139	74,474	0,053	-0,040
-169,125	-71,348	-0,060	0,016
-168,110	64,941	0,099	0,072
-167,096	176,669	0,060	-0,063
-166,081	57,193	-0,077	-0,054
-165,066	-84,555	-0,046	-0,010
-164,052	-200,000	-0,001	0,052
-163,037	800,000	0,028	0,062
-162,023	-4,254	-0,077	0,038
-161,008	-26,018	0,129	-0,055
-159,993	211,919	0,119	-0,135
-158,979	-200,000	0,032	-0,135
-157,964	-115,897	-0,093	0,012
-156,950	220,161	0,026	0,030
-155,935	800,000	-0,077	-0,164
-154,920	-200,000	0,012	0,081
-153,906	-10,844	0,091	0,043
-152,891	-200,000	-0,029	0,103
-151,877	236,258	-0,035	0,042
-150,862	189,134	-0,029	-0,031
-149,847	-34,833	0,027	0,011
-148,833	-80,871	-0,021	-0,005
-147,818	-200,000	-0,039	0,180
-146,804	408,847	-0,076	0,116
-145,789	800,000	-0,018	0,038
-144,775	-99,867	0,011	-0,002
-143,760	77,261	0,071	-0,054
-142,745	-15,553	0,057	-0,026
-141,731	-161,296	0,103	0,004
-140,716	-174,420	-0,093	-0,002
-139,702	-73,983	0,116	0,030
-138,687	109,395	-0,083	0,072
-137,672	-200,000	-0,003	0,079
-136,658	-97,506	-0,126	-0,023
-135,643	-200,000	0,026	-0,131
-134,629	-158,713	0,116	0,005
-133,614	-130,160	0,074	-0,007
-132,599	-47,946	-0,052	0,018
-131,585	201,355	-0,075	0,083
-130,570	-153,533	-0,076	-0,004
-129,556	-122,331	-0,162	0,019
-128,541	-200,000	0,007	-0,062
-127,526	70,642	-0,081	0,060
-126,512	-200,000	0,012	-0,058
-125,497	-122,067	0,055	0,006
-124,483	-129,400	-0,111	-0,011
-123,468	449,056	-0,112	0,179
-122,453	380,981	0,096	-0,142
-121,439	800,000	-0,038	-0,090
-120,424	800,000	0,024	0,049
-119,410	800,000	-0,042	0,084
-118,395	-41,356	0,123	0,045
-117,380	-200,000	0,002	0,019
-116,366	-200,000	0,040	-0,140
-115,351	78,224	-0,073	-0,056
-114,337	191,306	-0,086	-0,093
-113,322	80,935	0,074	0,057
-112,307	123,037	-0,042	-0,038
-111,293	377,576	0,115	0,169
-110,278	800,000	0,047	-0,111
-109,264	-24,127	-0,044	0,019
-108,249	-200,000	-0,005	-0,056
-107,234	6,248	-0,138	-0,073
-106,220	489,701	0,098	-0,162
-105,205	-200,000	-0,004	-0,046
-104,191	-49,291	0,060	0,020
-103,176	496,091	0,072	0,119
-102,162	-200,000	0,028	0,128
-101,147	800,000	0,050	-0,110
-100,132	800,000	-0,072	-0,178
-99,118	755,567	0,010	0,019
-98,103	52,037	-0,096	-0,066
-97,089	-58,714	-0,102	0,032
-96,074	782,978	-0,050	0,099
-95,059	-200,000	-0,004	0,066
-94,045	-90,732	-0,076	-0,016
-93,030	-200,000	0,004	-0,138
-92,016	129,898	-0,042	0,039
-91,001	352,861	-0,021	-0,030
-89,986	-76,901	0,020	0,005
-88,972	-200,000	-0,004	0,051
-87,957	-200,000	-0,019	-0,072
-86,943	109,685	0,030	0,026
-85,928	800,000	-0,015	-0,035
-84,913	253,862	-0,034	-0,042
-83,899	-101,819	0,098	-0,017
-82,884	118,129	0,116	0,103
-81,870	18,398	-0,059	0,034
-80,855	-200,000	-0,014	-0,085
-79,840	-3,628	-0,081	-0,040
-78,826	66,964	-0,106	-0,077
-77,811	574,396	-0,034	-0,060
-76,797	210,068	0,098	-0,111
-75,782	-44,050	0,166	-0,059
-74,767	-42,421	0,136	0,049
-73,753	-200,000	0,029	0,000
-72,738	-96,021	-0,155	0,029
-71,724	-200,000	0,022	0,131
-70,709	-200,000	-0,001	-0,051
-69,694	-200,000	0,010	0,096
-68,680	-200,000	0,009	0,093
-67,665	171,497	0,031	0,032
-66,651	-54,306	0,059	0,019
-65,636	-200,000	-0,033	-0,121
-64,622	30,144	-0,017	0,010
-63,607	238,973	0,114	-0,136
-62,592	800,000	-0,016	-0,032
-61,578	-56,670	0,067	0,021
-60,563	800,000	0,029	0,086
-59,549	711,818	-0,071	0,135
-58,534	102,268	-2,639	-2,210
-57,519	-32,308	0,524	-0,209
-56,505	800,000	-1,792	-5,485
-55,490	423,282	1,348	2,083
-54,476	800,000	5,197	11,042
-53,461	-200,000	23,136	348,498
-52,446	800,000	765,883	2264,051
-51,432	496,723	1642,898	2718,799
-50,417	92,766	1598,045	1292,594
-49,403	60,224	1252,682	886,878
-48,388	20,916	1005,068	582,470
-47,373	18,279	972,929	555,228
-46,359	11,724	959,776	526,533
-45,344	7,593	956,364	511,287
-44,330	7,894	954,177	511,068
-43,315	6,925	952,690	507,127
-42,300	6,935	951,426	506,466
-41,286	6,920	950,539	505,925
-40,271	6,904	949,503	505,301
-39,257	6,948	948,480	504,879
-38,242	6,928	947,783	504,422
-37,227	6,859	946,909	503,717
-36,213	6,943	945,871	503,413
-35,198	6,939	945,012	502,924
-34,184	6,978	944,583	502,799
-33,169	6,899	943,532	501,968
-32,154	6,963	942,655	501,685
-31,140	6,902	941,954	501,099
-30,125	6,988	940,987	500,839
-29,111	6,889	940,314	500,144
-28,096	6,932	939,794	499,984
-27,082	6,895	939,178	499,519
-26,067	6,896	938,244	499,008
-25,052	6,905	937,720	498,737
-24,038	6,863	936,974	498,188
-23,023	6,874	936,310	497,850
-22,009	6,944	935,538	497,641
-20,994	6,977	934,789	497,327
-19,979	6,898	934,413	496,857
-18,965	6,886	933,712	496,427
-17,950	6,878	933,270	496,147
-16,936	6,843	932,508	495,610
-15,921	6,797	932,011	495,184
-14,906	6,815	931,209	494,794
-13,892	6,838	930,561	494,501
-12,877	6,745	930,184	493,990
-11,863	6,772	929,484	493,682
-10,848	6,738	928,998	493,299
-9,833	6,871	928,506	493,436
-8,819	6,880	927,771	493,054
-7,804	6,819	927,063	492,467
-6,790	6,830	926,316	492,085
-5,775	6,870	925,938	491,988
-4,760	6,823	925,441	491,559
-3,746	6,822	924,725	491,156
-2,731	6,718	924,113	490,485
-1,717	6,705	923,484	490,092
-0,702	6,647	922,852	489,556
0,313	6,483	922,044	489,354
1,327	9,907	919,567	498,649
2,342	18,407	768,404	438,622
3,356	13,565	442,129	245,163
4,371	-12,074	310,148	144,937
5,386	-15,571	292,936	133,374
6,400	-17,695	286,733	128,452
7,415	-18,098	284,070	126,855
8,429	-19,116	282,198	125,023
9,444	-19,018	281,161	124,647
10,459	-19,122	280,524	124,253
11,473	-19,017	279,873	124,055
12,488	-18,886	279,380	123,951
13,502	-18,832	278,916	123,785
14,517	-19,070	278,545	123,383
15,531	-19,023	278,100	123,219
16,546	-18,926	277,694	123,120
17,561	-19,111	277,208	122,718
18,575	-18,946	277,081	122,808
19,590	-18,767	276,446	122,685
20,604	-18,841	276,425	122,595
21,619	-18,894	276,046	122,366
22,634	-19,017	275,652	122,064
23,648	-18,973	275,278	121,929
24,663	-18,998	274,843	121,702
25,677	-18,850	274,627	121,735
26,692	-18,900	274,426	121,588
27,707	-18,974	274,271	121,438
28,721	-18,949	274,043	121,350
29,736	-18,957	273,652	121,158
30,750	-19,087	273,488	120,954
31,765	-18,980	273,081	120,863
32,780	-18,896	272,878	120,840
33,794	-18,841	272,626	120,770
34,809	-18,803	272,471	120,725
35,823	-18,990	272,215	120,427
36,838	-18,848	271,800	120,365
37,853	-19,088	271,593	120,039
38,867	-18,963	271,429	120,073
39,882	-18,743	271,072	120,107
40,896	-18,793	270,889	119,969
41,911	-18,850	270,650	119,801
42,926	-18,915	270,508	119,666
43,940	-18,913	270,293	119,563
44,955	-18,834	269,917	119,458
45,969	-18,939	269,667	119,241
46,984	-18,927	269,655	119,236
47,999	-18,761	269,348	119,242
49,013	-18,745	269,207	119,183
50,028	-18,739	268,967	119,072
51,042	-18,655	268,701	119,021
52,057	-18,773	268,519	118,822
53,071	-18,768	268,216	118,682
54,086	-18,651	267,965	118,667
55,101	-18,845	267,741	118,379
56,115	-18,808	267,527	118,308
57,130	-18,811	267,212	118,156
58,144	-18,977	267,055	117,924
59,159	-18,748	266,671	117,953
60,174	-18,880	266,359	117,684
61,188	-18,786	266,271	117,721
62,203	-19,013	266,253	117,495
63,217	-18,897	265,739	117,364
64,232	-18,638	265,405	117,440
65,247	-18,848	265,401	117,238
66,261	-18,773	265,006	117,120
67,276	-18,700	264,823	117,095
68,290	-18,819	264,674	116,912
69,305	-18,641	264,300	116,896
70,320	-18,861	264,478	116,766
71,334	-18,868	264,108	116,587
72,349	-18,776	263,677	116,468
73,363	-18,943	263,473	116,218
74,378	-18,959	263,349	116,139
75,393	-18,968	263,144	116,029
76,407	-18,792	262,655	115,961
77,422	-18,910	262,728	115,877
78,436	-18,660	262,307	115,905
79,451	-18,850	262,014	115,596
80,466	-18,809	261,875	115,560
81,480	-18,883	261,710	115,412
82,495	-18,881	261,428	115,278
83,509	-18,753	261,303	115,327
84,524	-18,751	261,233	115,287
85,539	-18,647	260,850	115,200
86,553	-18,645	260,786	115,164
87,568	-18,611	260,404	115,015
88,582	-18,702	260,284	114,871
89,597	-18,476	259,938	114,908
90,611	-18,686	259,840	114,669
91,626	-18,600	259,605	114,631
92,641	-18,821	259,550	114,401
93,655	-18,777	259,252	114,298
94,670	-18,754	259,068	114,227
95,684	-18,699	258,762	114,130
96,699	-18,843	258,653	113,946
97,714	-18,739	258,389	113,911
98,728	-18,683	258,153	113,846
99,743	-18,574	258,046	113,884
100,757	-18,706	257,798	113,649
101,772	-18,734	257,640	113,544
102,787	-18,767	257,486	113,437
103,801	-18,937	257,336	113,213
104,816	-18,802	257,148	113,237
105,830	-18,633	256,737	113,194
106,845	-18,808	256,727	113,027
107,860	-18,814	256,376	112,857
108,874	-18,655	256,162	112,892
109,889	-18,767	256,051	112,735
110,903	-18,897	255,904	112,547
111,918	-18,743	255,757	112,606
112,933	-18,638	255,265	112,471
113,947	-18,832	255,260	112,290
114,962	-18,643	255,082	112,365
115,976	-18,727	254,858	112,184
116,991	-18,752	254,673	112,071
118,006	-18,865	254,509	111,892
119,020	-18,721	254,215	111,877
120,035	-18,771	254,083	111,765
121,049	-18,877	253,932	111,597
122,064	-18,530	253,643	111,759
123,079	-18,884	253,635	111,441
124,093	-18,780	253,105	111,287
125,108	-18,695	253,091	111,344
126,122	-18,665	253,004	111,322
127,137	-18,384	252,567	111,360
128,151	-18,624	252,573	111,147
129,166	-18,687	252,282	110,956
130,181	-18,654	252,100	110,894
131,195	-18,669	251,859	110,765
132,210	-18,592	251,755	110,775
133,224	-18,518	251,437	110,689
134,239	-18,791	251,273	110,374
135,254	-18,614	251,006	110,397
136,268	-18,721	250,910	110,254
137,283	-18,545	250,709	110,306
138,297	-18,665	250,645	110,166
139,312	-18,498	250,113	110,064
140,327	-18,590	249,977	109,916
141,341	-18,827	250,014	109,721
142,356	-18,592	249,679	109,764
143,370	-18,560	249,475	109,692
144,385	-18,604	249,264	109,551
145,400	-18,837	249,054	109,253
146,414	-18,725	248,907	109,273
147,429	-18,691	248,604	109,159
148,443	-18,832	248,774	109,106
149,458	-18,792	248,341	108,940
150,473	-18,747	248,235	108,921
151,487	-18,749	247,946	108,782
152,502	-18,714	247,752	108,717
153,516	-18,744	247,542	108,590
154,531	-18,848	247,376	108,421
155,546	-18,670	247,174	108,471
156,560	-18,772	247,152	108,366
157,575	-18,578	246,907	108,411
158,589	-18,554	246,611	108,292
159,604	-18,525	246,372	108,201
160,619	-18,433	246,290	108,232
161,633	-18,761	246,152	107,890
162,648	-18,756	246,018	107,825
163,662	-18,575	245,723	107,836
164,677	-18,696	245,684	107,709
165,692	-18,712	245,502	107,606
166,706	-18,677	245,331	107,551
167,721	-18,682	245,074	107,425
168,735	-18,559	244,965	107,469
169,750	-18,561	244,868	107,415
170,764	-18,502	244,733	107,395
171,779	-18,663	244,554	107,174
172,794	-18,555	244,346	107,163
173,808	-18,529	244,134	107,081
174,823	-18,456	243,991	107,070
175,837	-18,618	243,841	106,861
176,852	-18,476	243,659	106,888
177,867	-18,597	243,481	106,701
178,881	-18,483	243,310	106,711
179,896	-18,536	243,072	106,552
180,910	-18,778	243,040	106,331
181,925	-18,480	242,798	106,460
182,940	-18,517	242,515	106,295
183,954	-18,527	242,434	106,242
184,969	-18,736	242,374	106,036
185,983	-18,552	242,074	106,045
186,998	-18,412	241,911	106,078
188,013	-18,677	241,672	105,748
189,027	-18,685	241,555	105,682
190,042	-18,402	241,244	105,767
191,056	-18,627	241,230	105,567
192,071	-18,598	241,062	105,508
193,086	-18,335	240,782	105,590
194,100	-18,607	240,687	105,318
195,115	-18,559	240,422	105,232
196,129	-18,727	240,261	105,016
197,144	-18,765	240,109	104,909
198,159	-18,576	239,825	104,928
199,173	-18,510	239,665	104,902
200,188	-18,406	239,563	104,932
201,202	-18,624	239,421	104,685
202,217	-18,403	239,378	104,835
203,232	-18,486	239,112	104,642
204,246	-18,411	238,898	104,599
205,261	-18,243	238,597	104,593
206,275	-16,613	239,218	106,169
207,290	-11,640	241,017	110,990
208,304	-5,452	243,102	116,990
209,319	-2,644	243,734	119,577
210,334	-1,689	243,944	120,448
211,348	-0,441	244,188	121,577
212,363	0,062	244,120	121,942
213,377	0,299	244,200	122,165
214,392	0,432	243,987	122,156
215,407	0,657	243,999	122,334
216,421	0,787	243,810	122,334
217,436	0,812	243,677	122,277
218,450	0,930	243,440	122,243
219,465	1,018	243,405	122,286
220,480	0,869	243,116	122,009
221,494	0,804	243,051	121,913
222,509	0,556	242,812	121,581
223,523	0,475	242,548	121,373
224,538	0,314	242,366	121,141
225,553	0,303	242,267	121,071
226,567	0,306	241,969	120,914
227,582	0,360	241,878	120,902
228,596	0,422	241,818	120,911
229,611	0,268	241,646	120,689
230,626	0,137	241,401	120,450
231,640	0,399	241,156	120,528
232,655	0,384	240,927	120,392
233,669	0,516	240,882	120,464
234,684	0,541	240,671	120,368
235,699	0,208	240,700	120,104
236,713	0,408	240,435	120,122
237,728	0,312	240,202	119,918
238,742	0,264	239,968	119,752
239,757	0,631	239,763	119,932
240,772	0,411	239,698	119,713
241,786	0,316	239,638	119,597
242,801	0,192	239,464	119,401
243,815	0,143	239,392	119,315
244,830	0,225	239,298	119,323
245,844	0,242	239,080	119,217
246,859	0,207	238,828	119,053
247,874	0,229	238,714	119,003
248,888	0,321	238,521	118,969
249,903	0,366	238,291	118,879
250,917	0,321	238,389	118,882
251,932	0,454	238,118	118,842
252,947	0,382	237,990	118,711
253,961	0,489	237,723	118,651
254,976	0,484	237,593	118,571
255,990	0,524	237,507	118,549
257,005	0,480	237,253	118,377
258,020	0,435	237,245	118,328
259,034	0,201	236,988	118,004
260,049	0,512	237,007	118,248
261,063	0,541	236,516	118,016
262,078	0,355	236,499	117,850
263,093	0,399	236,381	117,816
264,107	0,559	236,206	117,844
265,122	0,515	235,974	117,683
266,136	0,442	235,929	117,593
267,151	0,462	235,665	117,466
268,166	0,363	235,504	117,298
269,180	0,357	235,490	117,276
270,195	0,283	235,344	117,135
271,209	0,473	235,073	117,138
272,224	0,338	235,086	117,029
273,239	0,191	234,860	116,791
274,253	0,392	234,713	116,864
275,268	0,356	234,549	116,744
276,282	0,321	234,364	116,614
277,297	0,503	234,145	116,637
278,312	0,268	234,206	116,474
279,326	0,538	233,897	116,519
280,341	0,410	233,836	116,379
281,355	0,227	233,897	116,257
282,370	0,479	233,504	116,247
283,384	0,438	233,391	116,148
284,399	0,613	233,140	116,149
285,414	0,387	233,117	115,952
286,428	0,508	233,011	115,982
287,443	0,453	232,753	115,801
288,457	0,702	232,638	115,925
289,472	0,480	232,458	115,654
290,487	0,538	232,264	115,592
291,501	0,542	232,180	115,543
292,516	0,457	232,026	115,391
293,530	0,485	231,939	115,359
294,545	0,578	231,769	115,335
295,560	0,419	231,632	115,135
296,574	0,673	231,336	115,172
297,589	0,399	231,413	114,990
298,603	0,757	231,105	115,101
299,618	0,575	231,005	114,902
300,633	0,580	230,881	114,834
301,647	0,730	230,811	114,904
302,662	0,497	230,673	114,646
303,676	0,629	230,471	114,636
304,691	0,834	230,255	114,675
305,706	0,579	230,114	114,400
306,720	0,625	230,045	114,391
307,735	0,718	229,823	114,341
308,749	0,801	229,672	114,319
309,764	0,481	229,632	114,045
310,779	0,770	229,362	114,121
311,793	0,733	229,316	114,059
312,808	0,660	229,152	113,912
313,822	0,720	228,848	113,796
314,837	0,782	228,860	113,839
315,852	0,642	228,701	113,644
316,866	0,750	228,642	113,686
317,881	0,618	228,365	113,439
318,895	0,651	228,155	113,349
319,910	0,720	228,097	113,362
320,925	0,976	227,870	113,432
321,939	0,771	227,706	113,186
322,954	0,759	227,685	113,157
323,968	0,836	227,509	113,117
324,983	0,643	227,547	112,981
325,997	0,974	227,253	113,073
327,012	0,629	227,126	112,741
328,027	0,778	226,986	112,773
329,041	0,642	226,901	112,619
330,056	0,795	226,716	112,632
331,070	0,785	226,490	112,502
332,085	0,653	226,423	112,360
333,100	0,780	226,229	112,348
334,114	0,797	226,044	112,259
335,129	0,835	225,887	112,200
336,143	0,817	225,702	112,085
337,158	0,888	225,630	112,091
338,173	0,910	225,494	112,030
339,187	1,036	225,300	112,017
340,202	0,854	225,292	111,868
341,216	1,032	225,016	111,853
342,231	0,679	224,853	111,501
343,246	0,925	224,791	111,642
344,260	0,936	224,682	111,586
345,275	0,992	224,439	111,498
346,289	1,046	224,401	111,509
347,304	0,808	224,324	111,284
348,319	0,927	224,108	111,255
349,333	1,076	223,802	111,203
350,348	0,912	223,774	111,058
351,362	0,686	223,839	110,913
352,377	0,965	223,458	110,920
353,392	1,014	223,336	110,886
354,406	1,022	223,273	110,851
355,421	192,451	1311,452	1376,326
356,435	154,104	1443,867	1376,148
