DTS Sentinel unit serial number:	SN410029Multiplexer serial number:	ORYXHardware model number:	OX2-SRSoftware version number:	ORYX F/W v4,00 Oryx Data Collector v3.7.2.0data status	okinstallation	B5 Nyhavnadifferential loss correction	single-endedforward channel	channel 2reverse channel	N/Adate	2023/12/12time	01:57:13forward acquisition time	300,00reverse acquisition time	0,00gamma	499,1914k internal	0,3157k external	0,3157temperature offset calibration	1,0000default loss term (dB/km)	0,3820temperature slope calibration	1,0000multiplexer offset coefficient	1,0000multiplexer slope coefficient	1,0000fibre end	0,00T internal ref (°C)	15,84T ext. ref 1 (°C)	-0,63T ext. ref 2 (°C)	-0,90length (m)	temperature (°C)	Stokes	anti-Stokes-744,400	438,769	0,047	0,076
-743,385	-187,125	-0,257	0,003
-742,371	66,012	0,113	-0,084
-741,356	-167,736	-0,228	0,007
-740,342	670,144	0,047	0,091
-739,327	-2,552	-0,312	0,161
-738,312	98,197	0,075	-0,064
-737,298	-90,315	-0,313	-0,066
-736,283	-127,781	0,095	-0,010
-735,269	-28,184	-0,212	-0,090
-734,254	68,521	-0,044	-0,033
-733,239	-35,960	-0,594	-0,236
-732,225	-64,301	0,191	-0,057
-731,210	301,426	-0,081	-0,111
-730,196	-200,000	-0,007	-0,102
-729,181	168,452	-0,086	-0,090
-728,167	209,460	0,122	-0,141
-727,152	-177,815	0,102	0,002
-726,137	-115,653	-0,079	-0,011
-725,123	425,853	-0,011	-0,018
-724,108	-200,000	-0,028	-0,187
-723,094	-200,000	-0,014	0,078
-722,079	-126,997	-0,209	-0,022
-721,064	-200,000	0,018	0,183
-720,050	800,000	-0,031	0,082
-719,035	110,216	0,034	0,030
-718,021	-87,644	0,026	-0,006
-717,006	198,604	-0,075	0,084
-715,991	-200,000	0,000	-0,106
-714,977	-70,936	-0,150	-0,041
-713,962	-200,000	0,034	-0,121
-712,948	71,798	-0,080	-0,061
-711,933	-86,225	0,098	0,022
-710,918	23,946	0,020	0,012
-709,904	-75,235	0,053	-0,014
-708,889	-184,187	-0,213	0,003
-707,875	-200,000	-0,011	-0,071
-706,860	800,000	0,030	-0,082
-705,845	-200,000	-0,019	0,069
-704,831	-37,389	-0,085	0,033
-703,816	800,000	-0,049	0,119
-702,802	-13,540	-0,016	0,008
-701,787	-200,000	-0,038	-0,158
-700,772	35,642	0,087	-0,056
-699,758	112,841	0,011	-0,010
-698,743	-48,502	0,130	0,046
-697,729	715,311	-0,009	-0,017
-696,714	-200,000	0,029	-0,155
-695,699	180,466	-0,056	-0,061
-694,685	-200,000	0,027	-0,103
-693,670	-200,000	0,014	-0,112
-692,656	-152,885	0,125	0,006
-691,641	-113,467	-0,059	0,008
-690,627	67,168	0,110	0,082
-689,612	26,570	0,036	-0,022
-688,597	-37,594	-0,068	0,026
-687,583	34,592	-0,082	-0,053
-686,568	-200,000	0,005	0,028
-685,554	-200,000	0,004	-0,118
-684,539	-27,517	0,063	0,027
-683,524	800,000	0,036	0,079
-682,510	-15,088	0,048	0,022
-681,495	187,756	0,085	-0,094
-680,481	-33,046	0,119	-0,048
-679,466	-145,991	-0,158	-0,010
-678,451	-200,000	-0,004	-0,064
-677,437	-200,000	0,010	-0,142
-676,422	-44,904	0,089	0,033
-675,408	74,419	-0,068	-0,053
-674,393	152,574	0,112	0,113
-673,378	158,109	-0,097	-0,099
-672,364	-131,459	0,091	-0,009
-671,349	321,564	0,029	0,041
-670,335	313,387	0,092	-0,127
-669,320	9,511	0,067	0,037
-668,305	-200,000	0,049	0,177
-667,291	271,735	0,012	-0,016
-666,276	130,054	0,076	0,072
-665,262	421,807	-0,048	-0,077
-664,247	151,458	-0,071	0,072
-663,232	-13,210	-0,052	-0,025
-662,218	152,093	0,048	0,049
-661,203	88,284	-0,125	0,102
-660,189	148,304	-0,027	0,027
-659,174	-29,608	-0,040	-0,017
-658,159	-62,210	0,015	-0,005
-657,145	314,706	-0,066	-0,092
-656,130	714,411	-0,033	0,065
-655,116	-142,353	-0,073	0,005
-654,101	200,523	-0,039	0,044
-653,086	-8,543	0,156	-0,077
-652,072	-74,108	-0,110	-0,029
-651,057	361,064	-0,132	-0,195
-650,043	-200,000	0,010	-0,037
-649,028	-200,000	-0,022	-0,152
-648,014	183,918	0,092	0,100
-646,999	255,494	-0,089	0,112
-645,984	800,000	-0,036	0,079
-644,970	800,000	-0,003	-0,010
-643,955	-200,000	-0,002	-0,022
-642,941	-46,455	-0,029	-0,010
-641,926	125,520	-0,087	-0,081
-640,911	-113,694	0,136	-0,019
-639,897	-21,520	0,123	-0,055
-638,882	800,000	0,009	0,026
-637,868	-37,972	-0,141	-0,055
-636,853	-200,000	-0,017	0,125
-635,838	114,749	-0,101	-0,090
-634,824	270,405	0,044	0,057
-633,809	-200,000	-0,018	0,096
-632,795	-200,000	0,019	-0,088
-631,780	538,360	-0,061	-0,108
-630,765	183,788	0,046	-0,051
-629,751	113,865	-0,058	-0,052
-628,736	-200,000	-0,011	-0,035
-627,722	-200,000	-0,017	-0,183
-626,707	45,730	0,071	-0,048
-625,692	48,503	-0,022	-0,015
-624,678	-200,000	0,007	-0,024
-623,663	800,000	-0,033	0,073
-622,649	-200,000	0,038	0,129
-621,634	257,321	-0,036	0,046
-620,619	-144,451	-0,205	0,014
-619,605	198,222	0,012	0,013
-618,590	48,756	0,087	0,060
-617,576	-33,765	0,068	0,027
-616,561	-200,000	0,009	0,091
-615,546	-200,000	-0,001	-0,056
-614,532	441,750	-0,008	0,013
-613,517	-125,505	-0,070	0,008
-612,503	731,843	-0,050	0,098
-611,488	-200,000	-0,008	0,060
-610,474	6,353	-0,093	0,051
-609,459	-200,000	0,012	0,175
-608,444	800,000	0,024	0,053
-607,430	361,580	0,032	0,047
-606,415	-87,095	-0,096	0,021
-605,401	-200,000	0,009	0,082
-604,386	800,000	-0,020	0,061
-603,371	-4,414	0,053	-0,027
-602,357	357,516	-0,098	0,144
-601,342	-98,807	-0,088	0,016
-600,328	340,990	0,070	-0,100
-599,313	-200,000	-0,018	-0,065
-598,298	114,562	-0,131	-0,117
-597,284	-200,000	0,025	-0,100
-596,269	110,095	-0,129	-0,114
-595,255	88,176	-0,085	0,069
-594,240	169,162	0,011	-0,011
-593,225	204,876	-0,117	-0,134
-592,211	-200,000	-0,012	-0,222
-591,196	61,961	0,077	0,056
-590,182	-68,791	0,123	-0,035
-589,167	-42,990	-0,065	0,024
-588,152	-146,626	-0,045	0,003
-587,138	-200,000	0,014	-0,097
-586,123	-10,176	-0,109	-0,053
-585,109	-121,319	-0,048	0,006
-584,094	800,000	0,021	-0,051
-583,079	-200,000	-0,022	0,104
-582,065	280,623	-0,037	-0,049
-581,050	-9,495	0,105	0,051
-580,036	-106,315	-0,215	-0,035
-579,021	800,000	0,014	0,039
-578,006	428,790	0,041	-0,065
-576,992	45,364	-0,045	-0,030
-575,977	47,691	-0,214	0,146
-574,963	54,598	-0,041	-0,029
-573,948	-130,445	0,102	-0,010
-572,934	-200,000	-0,014	-0,108
-571,919	462,192	-0,084	-0,138
-570,904	304,484	-0,098	-0,134
-569,890	800,000	0,041	-0,095
-568,875	32,053	-0,065	-0,041
-567,861	800,000	0,024	-0,057
-566,846	21,600	0,118	-0,070
-565,831	-61,795	-0,077	0,023
-564,817	429,924	-0,063	-0,100
-563,802	648,481	-0,045	-0,084
-562,788	32,230	-0,052	0,033
-561,773	-200,000	0,012	-0,179
-560,758	434,524	-0,051	0,082
-559,744	52,973	-0,042	-0,029
-558,729	614,226	-0,072	0,132
-557,715	-192,117	-0,032	-0,000
-556,700	800,000	-0,029	0,089
-555,685	0,678	0,162	0,084
-554,671	417,044	-0,103	-0,162
-553,656	48,786	0,057	0,039
-552,642	115,889	0,065	-0,058
-551,627	434,708	-0,034	-0,055
-550,612	3,856	0,075	0,040
-549,598	289,772	0,036	0,048
-548,583	481,419	-0,029	-0,048
-547,569	-6,822	-0,085	-0,042
-546,554	166,392	-0,069	-0,072
-545,539	106,256	-0,099	-0,086
-544,525	-188,001	0,123	0,001
-543,510	283,097	-0,053	-0,070
-542,496	514,332	-0,079	-0,135
-541,481	800,000	0,047	-0,128
-540,466	163,669	0,045	-0,047
-539,452	261,759	0,021	0,026
-538,437	-200,000	-0,012	0,088
-537,423	348,665	0,092	-0,133
-536,408	95,413	0,121	0,101
-535,393	566,943	-0,024	-0,043
-534,379	-200,000	0,024	0,125
-533,364	500,282	-0,088	-0,149
-532,350	-200,000	0,007	-0,094
-531,335	-200,000	-0,031	-0,141
-530,321	-39,677	0,048	-0,018
-529,306	178,285	-0,060	0,064
-528,291	-48,222	0,055	-0,019
-527,277	178,112	0,074	-0,079
-526,262	-200,000	0,004	-0,098
-525,248	324,716	-0,052	-0,073
-524,233	42,555	0,035	0,023
-523,218	-34,815	-0,069	-0,028
-522,204	16,257	0,059	0,034
-521,189	79,475	-0,147	0,115
-520,175	177,198	-0,014	-0,015
-519,160	102,851	-0,045	-0,039
-518,145	-200,000	0,007	0,053
-517,131	160,131	0,101	0,103
-516,116	131,777	0,127	0,119
-515,102	-200,000	0,002	0,040
-514,087	41,702	-0,059	0,039
-513,072	-200,000	-0,000	-0,028
-512,058	756,362	-0,050	0,099
-511,043	-200,000	0,025	0,128
-510,029	-43,654	0,081	-0,030
-509,014	-200,000	0,030	0,106
-507,999	49,659	-0,133	-0,092
-506,985	-200,000	0,020	-0,148
-505,970	800,000	-0,010	0,025
-504,956	-78,655	0,044	0,011
-503,941	202,431	-0,065	-0,074
-502,926	176,675	0,088	0,093
-501,912	-200,000	0,023	0,126
-500,897	-200,000	0,005	0,060
-499,883	58,094	-0,081	-0,058
-498,868	800,000	0,023	-0,075
-497,853	800,000	-0,091	-0,208
-496,839	-200,000	0,023	-0,113
-495,824	231,009	-0,046	0,056
-494,810	-161,923	0,063	-0,002
-493,795	53,027	-0,051	-0,036
-492,781	140,890	0,036	0,035
-491,766	-143,139	-0,041	0,003
-490,751	800,000	-0,068	-0,170
-489,737	800,000	0,021	0,052
-488,722	800,000	-0,040	0,105
-487,708	-47,492	0,060	-0,021
-486,693	-200,000	-0,011	0,078
-485,678	12,273	0,096	-0,054
-484,664	270,483	0,035	0,045
-483,649	-107,145	0,084	0,013
-482,635	340,384	0,027	0,038
-481,620	-19,724	0,122	0,055
-480,605	-200,000	0,001	-0,016
-479,591	-124,810	-0,090	-0,010
-478,576	15,685	-0,035	-0,020
-477,562	-48,365	-0,063	-0,022
-476,547	-200,000	0,024	-0,229
-475,532	-29,770	-0,052	-0,021
-474,518	800,000	0,077	-0,171
-473,503	800,000	-0,058	0,130
-472,489	-134,108	0,181	0,016
-471,474	-200,000	-0,006	0,074
-470,459	25,841	0,037	0,022
-469,445	800,000	0,011	0,033
-468,430	-71,626	-0,170	0,046
-467,416	23,986	-0,127	-0,077
-466,401	730,702	0,039	0,077
-465,386	-3,992	-0,100	0,050
-464,372	-91,209	0,077	-0,016
-463,357	-91,026	0,028	-0,006
-462,343	-144,177	-0,137	-0,009
-461,328	547,527	-0,045	-0,080
-460,313	253,539	-0,047	0,059
-459,299	425,017	-0,031	-0,049
-458,284	398,625	0,088	0,135
-457,270	-200,000	0,026	-0,087
-456,255	109,832	0,105	0,092
-455,241	800,000	-0,032	0,070
-454,226	333,276	-0,039	-0,054
-453,211	800,000	0,064	0,149
-452,197	294,156	0,052	0,069
-451,182	800,000	0,064	-0,139
-450,168	-200,000	-0,019	0,066
-449,153	-80,165	0,076	-0,018
-448,138	-52,310	-0,093	0,031
-447,124	691,392	0,061	-0,117
-446,109	-200,000	-0,010	-0,041
-445,095	15,197	-0,089	0,051
-444,080	668,687	0,067	-0,128
-443,065	505,631	-0,048	0,082
-442,051	-57,768	-0,215	0,068
-441,036	-200,000	-0,014	-0,092
-440,022	800,000	-0,011	-0,029
-439,007	258,780	0,044	0,055
-437,992	-4,914	0,086	-0,043
-436,978	487,988	-0,031	-0,052
-435,963	177,353	0,050	-0,053
-434,949	514,981	0,082	0,141
-433,934	-93,911	-0,134	0,027
-432,919	-200,000	-0,029	-0,098
-431,905	337,517	-0,070	0,100
-430,890	23,005	-0,110	0,066
-429,876	-94,880	-0,033	0,006
-428,861	65,026	0,056	0,041
-427,846	-164,009	-0,023	0,001
-426,832	800,000	-0,057	0,143
-425,817	-191,391	-0,029	0,000
-424,803	-193,661	0,028	-0,000
-423,788	-200,000	0,035	-0,120
-422,773	64,771	0,101	0,074
-421,759	-138,260	0,014	-0,001
-420,744	800,000	0,032	-0,088
-419,730	-48,519	0,034	0,012
-418,715	-147,116	-0,140	-0,009
-417,701	-121,360	0,029	0,003
-416,686	800,000	0,034	0,100
-415,671	75,180	0,063	0,048
-414,657	56,187	-0,032	0,023
-413,642	800,000	0,059	-0,145
-412,628	-200,000	-0,038	-0,146
-411,613	-50,144	0,041	-0,014
-410,598	189,077	-0,102	-0,111
-409,584	-103,770	0,091	0,015
-408,569	800,000	0,010	0,026
-407,555	-111,949	-0,062	-0,009
-406,540	296,932	0,104	0,140
-405,525	221,789	0,029	0,033
-404,511	540,116	-0,061	-0,107
-403,496	568,971	-0,064	-0,113
-402,482	-6,415	-0,072	0,036
-401,467	-100,581	0,133	0,024
-400,452	800,000	0,047	-0,104
-399,438	259,338	-0,013	0,017
-398,423	-51,713	0,136	0,046
-397,409	800,000	-0,047	-0,132
-396,394	-7,711	-0,018	0,009
-395,379	-200,000	-0,001	-0,006
-394,365	689,994	0,037	-0,071
-393,350	96,761	-0,008	0,007
-392,336	362,175	-0,071	-0,104
-391,321	127,256	-0,039	-0,036
-390,306	-74,310	0,090	-0,024
-389,292	-200,000	-0,004	-0,111
-388,277	800,000	-0,062	-0,126
-387,263	-138,608	0,091	-0,007
-386,248	97,130	0,059	-0,050
-385,233	-200,000	0,002	-0,024
-384,219	-4,874	-0,111	-0,055
-383,204	287,846	-0,070	0,093
-382,190	-19,994	0,037	0,016
-381,175	-200,000	-0,014	-0,071
-380,160	-200,000	-0,004	0,050
-379,146	332,488	0,081	0,113
-378,131	20,296	-0,095	0,056
-377,117	741,162	0,057	0,112
-376,102	-66,530	0,024	-0,007
-375,088	-200,000	-0,008	0,088
-374,073	-200,000	0,019	-0,069
-373,058	-200,000	-0,011	-0,196
-372,044	-75,648	-0,060	-0,016
-371,029	687,171	0,064	0,121
-370,015	231,260	0,009	-0,011
-369,000	261,376	-0,035	-0,044
-367,985	558,934	0,035	-0,061
-366,971	-200,000	-0,011	0,073
-365,956	-19,484	-0,085	0,038
-364,942	96,410	-0,046	-0,038
-363,927	-30,693	0,167	0,068
-362,912	-200,000	0,057	-0,000
-361,898	581,649	0,051	-0,091
-360,883	-15,232	-0,048	0,022
-359,869	276,314	0,055	0,071
-358,854	-35,806	-0,135	-0,053
-357,839	65,105	0,082	0,060
-356,825	128,728	-0,076	0,070
-355,810	-98,624	-0,097	-0,018
-354,796	306,700	0,051	-0,070
-353,781	537,546	-0,101	-0,175
-352,766	-200,000	-0,001	0,091
-351,752	374,540	0,022	0,033
-350,737	800,000	0,020	0,047
-349,723	-200,000	-0,043	0,187
-348,708	-129,762	0,088	-0,009
-347,693	800,000	0,038	-0,081
-346,679	52,142	-0,065	-0,045
-345,664	-186,063	0,079	-0,001
-344,650	-46,781	-0,048	-0,017
-343,635	-133,387	0,063	0,006
-342,620	-120,699	0,102	-0,012
-341,606	-200,000	0,024	0,085
-340,591	10,575	0,153	0,084
-339,577	390,470	-0,124	-0,187
-338,562	-40,955	-0,071	-0,026
-337,548	-200,000	0,011	-0,069
-336,533	-200,000	-0,017	0,088
-335,518	-200,000	0,011	-0,090
-334,504	-34,160	0,060	-0,024
-333,489	-1,852	-0,125	0,064
-332,475	65,127	0,072	-0,052
-331,460	58,583	0,114	0,081
-330,445	509,949	-0,037	0,063
-329,431	800,000	0,003	-0,010
-328,416	-200,000	-0,018	0,092
-327,402	800,000	-0,098	0,248
-326,387	800,000	-0,050	-0,151
-325,372	615,528	-0,073	-0,133
-324,358	406,716	-0,046	-0,070
-323,343	-200,000	-0,002	-0,146
-322,329	-89,620	-0,010	0,002
-321,314	-44,131	0,127	0,046
-320,299	-200,000	0,001	0,013
-319,285	482,284	-0,085	0,140
-318,270	718,863	0,047	0,092
-317,256	215,734	0,058	0,067
-316,241	-200,000	0,002	0,054
-315,226	-18,568	0,085	0,038
-314,212	-200,000	-0,006	0,128
-313,197	-200,000	0,023	0,135
-312,183	-34,998	-0,072	0,029
-311,168	-74,783	-0,014	0,004
-310,153	-129,345	-0,024	-0,002
-309,139	103,359	0,067	-0,057
-308,124	246,244	0,031	0,038
-307,110	250,366	-0,072	-0,089
-306,095	-20,953	0,035	-0,015
-305,080	-200,000	-0,008	0,049
-304,066	-200,000	0,034	0,234
-303,051	122,861	-0,026	-0,024
-302,037	454,202	0,073	0,118
-301,022	-56,856	0,082	-0,026
-300,008	-200,000	0,031	0,181
-298,993	136,410	0,101	0,095
-297,978	800,000	-0,029	0,073
-296,964	157,348	-0,008	0,008
-295,949	-200,000	-0,002	-0,031
-294,935	258,019	-0,060	-0,075
-293,920	-200,000	0,033	-0,123
-292,905	247,887	0,089	0,109
-291,891	800,000	-0,050	-0,109
-290,876	150,515	-0,048	0,047
-289,862	800,000	-0,041	0,115
-288,847	-200,000	0,007	-0,094
-287,832	-200,000	-0,002	-0,107
-286,818	-140,659	0,100	-0,007
-285,803	800,000	-0,062	0,180
-284,789	581,421	0,040	0,070
-283,774	800,000	-0,028	0,090
-282,759	-200,000	-0,003	-0,015
-281,745	121,475	0,047	0,043
-280,730	-16,867	-0,050	-0,023
-279,716	177,353	-0,057	0,060
-278,701	-9,875	0,022	0,010
-277,686	339,417	-0,103	0,145
-276,672	-158,757	0,110	0,004
-275,657	800,000	0,061	-0,163
-274,643	-34,230	0,059	-0,023
-273,628	-200,000	-0,032	-0,151
-272,613	800,000	-0,006	-0,014
-271,599	140,101	0,083	0,079
-270,584	593,969	0,020	0,037
-269,570	146,125	0,051	-0,050
-268,555	186,997	-0,033	0,035
-267,540	734,634	-0,019	0,037
-266,526	257,312	0,082	0,102
-265,511	-12,908	-0,075	-0,035
-264,497	80,090	0,040	0,031
-263,482	280,999	0,020	-0,026
-262,467	-107,230	0,085	0,013
-261,453	776,515	0,022	-0,044
-260,438	800,000	-0,064	-0,178
-259,424	-102,123	0,071	0,012
-258,409	22,822	-0,061	-0,036
-257,395	-163,260	-0,105	-0,004
-256,380	440,870	0,046	0,073
-255,365	4,506	0,040	-0,021
-254,351	-92,630	0,044	0,009
-253,336	528,827	0,055	-0,094
-252,322	-134,198	-0,162	-0,014
-251,307	-49,330	0,073	0,025
-250,292	80,070	-0,112	0,087
-249,278	56,222	0,145	0,102
-248,263	-50,830	0,040	0,014
-247,249	278,453	0,086	-0,111
-246,234	-200,000	-0,030	-0,098
-245,219	91,017	-0,032	-0,026
-244,205	101,315	0,109	0,092
-243,190	-200,000	0,052	0,175
-242,176	800,000	0,025	0,074
-241,161	781,090	-0,059	0,117
-240,146	-112,924	0,147	0,021
-239,132	12,246	-0,011	0,006
-238,117	-87,017	-0,113	-0,025
-237,103	224,691	0,055	-0,065
-236,088	283,599	0,055	-0,072
-235,073	-16,044	-0,120	0,055
-234,059	-200,000	-0,010	0,098
-233,044	-141,385	-0,087	-0,006
-232,030	540,969	0,029	-0,050
-231,015	800,000	0,007	0,021
-230,000	-83,465	-0,106	-0,024
-228,986	-35,937	0,075	-0,029
-227,971	-200,000	-0,021	0,069
-226,957	-98,208	0,099	0,018
-225,942	286,827	0,042	-0,054
-224,927	-52,124	0,106	0,035
-223,913	24,430	0,098	0,059
-222,898	-3,586	-0,174	-0,087
-221,884	-200,000	-0,001	-0,027
-220,869	-67,358	0,167	0,047
-219,855	800,000	0,027	0,057
-218,840	-200,000	-0,005	0,134
-217,825	-200,000	0,051	0,173
-216,811	800,000	0,027	-0,077
-215,796	7,424	-0,171	0,092
-214,782	69,260	0,104	0,077
-213,767	-200,000	0,007	0,040
-212,752	-200,000	0,001	-0,042
-211,738	213,726	0,059	-0,068
-210,723	-5,383	-0,121	0,060
-209,709	-200,000	0,008	-0,079
-208,694	128,039	0,059	-0,054
-207,679	-141,419	-0,137	-0,010
-206,665	-200,000	0,000	-0,080
-205,650	124,439	0,066	-0,060
-204,636	-200,000	-0,003	0,019
-203,621	-2,914	-0,093	0,047
-202,606	248,250	-0,058	-0,071
-201,592	259,044	-0,028	0,034
-200,577	-96,856	-0,061	-0,011
-199,563	-117,629	0,212	-0,027
-198,548	800,000	-0,015	-0,048
-197,533	190,687	0,089	0,097
-196,519	124,258	0,150	0,136
-195,504	-54,337	0,035	0,011
-194,490	-16,356	0,149	0,068
-193,475	-98,256	0,054	-0,010
-192,460	237,060	-0,083	0,100
-191,446	98,811	-0,014	-0,012
-190,431	800,000	-0,025	0,062
-189,417	-77,347	-0,089	0,022
-188,402	363,852	0,054	0,078
-187,387	159,186	-0,112	-0,112
-186,373	149,949	-0,133	-0,130
-185,358	-200,000	0,009	-0,183
-184,344	-200,000	0,029	0,132
-183,329	39,405	0,062	-0,040
-182,315	-84,411	0,029	0,007
-181,300	-104,297	0,080	-0,013
-180,285	706,840	0,046	-0,089
-179,271	800,000	0,059	-0,146
-178,256	70,328	0,053	0,040
-177,242	-47,158	0,194	-0,068
-176,227	765,475	-0,029	-0,056
-175,212	800,000	0,049	0,111
-174,198	20,032	-0,144	0,084
-173,183	23,553	-0,047	0,028
-172,169	-200,000	0,001	0,016
-171,154	-45,915	-0,082	0,029
-170,139	-119,874	-0,005	0,001
-169,125	-141,290	0,048	0,004
-168,110	719,882	0,007	0,014
-167,096	-200,000	-0,002	0,034
-166,081	169,051	0,126	-0,130
-165,066	98,939	-0,059	-0,049
-164,052	-28,443	0,092	-0,038
-163,037	464,704	-0,062	0,101
-162,023	800,000	-0,008	0,018
-161,008	-163,807	0,171	0,006
-159,993	-200,000	-0,009	0,050
-158,979	359,061	0,040	0,058
-157,964	-88,218	-0,134	0,029
-156,950	800,000	-0,066	0,144
-155,935	84,377	0,091	-0,071
-154,920	-114,573	0,136	0,019
-153,906	49,929	0,087	0,059
-152,891	-115,241	-0,116	0,016
-151,877	474,728	-0,041	-0,066
-150,862	-17,235	-0,056	0,025
-149,847	800,000	0,018	0,045
-148,833	-200,000	0,002	0,046
-147,818	-200,000	-0,030	-0,125
-146,804	800,000	0,031	0,066
-145,789	3,296	-0,048	0,025
-144,775	-113,359	-0,147	-0,021
-143,760	-200,000	-0,008	-0,037
-142,745	-5,468	-0,157	-0,077
-141,731	-200,000	0,004	0,029
-140,716	800,000	-0,007	-0,018
-139,702	588,371	0,047	0,085
-138,687	22,267	-0,012	0,007
-137,672	-148,049	0,132	0,008
-136,658	286,215	0,051	-0,067
-135,643	-59,906	-0,028	-0,009
-134,629	-151,899	0,103	-0,005
-133,614	-200,000	0,008	-0,032
-132,599	589,772	-0,042	0,075
-131,585	606,005	0,086	0,154
-130,570	-97,025	-0,115	0,021
-129,556	-90,131	-0,083	0,017
-128,541	502,929	-0,016	-0,026
-127,526	535,923	0,073	0,125
-126,512	-13,548	0,102	-0,047
-125,497	800,000	-0,014	-0,039
-124,483	-68,763	0,092	0,025
-123,468	-65,797	0,090	0,026
-122,453	-89,593	0,002	-0,000
-121,439	-200,000	-0,004	-0,020
-120,424	-19,924	0,053	-0,024
-119,410	-200,000	0,020	-0,068
-118,395	-39,527	0,149	-0,056
-117,380	-200,000	-0,017	0,077
-116,366	168,036	-0,088	-0,091
-115,351	-141,839	-0,070	0,005
-114,337	709,160	-0,079	-0,151
-113,322	334,530	-0,037	-0,052
-112,307	-13,321	-0,028	0,013
-111,293	-200,000	0,022	0,135
-110,278	131,447	0,088	0,082
-109,264	603,367	0,026	0,046
-108,249	-24,722	-0,106	0,045
-107,234	-200,000	0,001	0,089
-106,220	800,000	0,064	0,163
-105,205	99,385	0,081	0,067
-104,191	116,189	0,046	-0,040
-103,176	95,670	-0,080	0,065
-102,162	-200,000	-0,022	0,135
-101,147	223,396	-0,108	-0,125
-100,132	-200,000	-0,041	-0,238
-99,118	-61,467	-0,083	-0,025
-98,103	223,539	-0,024	-0,027
-97,089	390,704	0,056	-0,083
-96,074	-53,002	0,036	0,012
-95,059	-146,071	-0,088	0,006
-94,045	104,848	-0,045	0,038
-93,030	398,157	-0,014	-0,021
-92,016	262,437	-0,080	0,101
-91,001	-200,000	0,026	0,094
-89,986	-108,744	-0,074	-0,011
-88,972	140,108	0,036	-0,035
-87,957	43,621	-0,032	0,021
-86,943	55,729	0,024	0,016
-85,928	-46,252	0,035	-0,012
-84,913	-112,410	-0,087	0,012
-83,899	-26,885	0,200	0,083
-82,884	373,657	0,018	-0,027
-81,870	-7,952	-0,061	-0,029
-80,855	-188,113	0,133	-0,001
-79,840	226,308	-0,049	0,057
-78,826	75,023	0,057	0,043
-77,811	122,665	-0,097	-0,087
-76,797	-200,000	-0,004	0,046
-75,782	-102,284	0,115	0,020
-74,767	-23,847	0,186	-0,079
-73,753	46,972	-0,038	-0,025
-72,738	-93,487	0,183	0,036
-71,724	117,256	-0,050	-0,045
-70,709	-200,000	-0,022	0,113
-69,694	312,667	0,110	-0,149
-68,680	-200,000	-0,020	0,196
-67,665	33,064	-0,167	-0,104
-66,651	-176,465	0,066	-0,001
-65,636	21,099	0,090	0,052
-64,622	21,523	0,118	-0,069
-63,607	151,150	-0,047	-0,046
-62,592	800,000	-0,060	0,136
-61,578	-200,000	0,009	-0,040
-60,563	194,674	0,045	0,049
-59,549	-200,000	0,003	0,067
-58,534	-19,778	-1,965	-0,869
-57,519	800,000	-0,308	-0,933
-56,505	-200,000	-1,262	-4,919
-55,490	-16,876	0,753	0,340
-54,476	800,000	5,241	12,157
-53,461	-200,000	17,337	283,465
-52,446	800,000	723,335	2225,049
-51,432	542,601	1639,795	2818,449
-50,417	111,783	1631,858	1413,979
-49,403	76,136	1286,587	976,573
-48,388	32,758	1028,666	637,543
-47,373	20,272	990,480	572,671
-46,359	18,720	978,629	560,703
-45,344	16,190	974,623	550,096
-44,330	16,299	973,120	549,584
-43,315	15,950	971,219	547,346
-42,300	15,891	970,366	546,652
-41,286	15,905	969,134	545,982
-40,271	15,910	967,988	545,331
-39,257	15,914	967,126	544,837
-38,242	15,911	966,480	544,440
-37,227	15,925	965,641	543,991
-36,213	15,847	964,625	543,144
-35,198	15,846	963,956	542,744
-34,184	15,924	963,169	542,530
-33,169	15,838	962,219	541,696
-32,154	15,901	961,202	541,306
-31,140	15,889	960,397	540,792
-30,125	15,924	959,641	540,457
-29,111	15,848	958,911	539,782
-28,096	15,900	958,135	539,490
-27,082	15,871	957,734	539,150
-26,067	15,891	956,842	538,691
-25,052	15,827	956,041	538,012
-24,038	15,879	955,176	537,670
-23,023	15,844	954,734	537,288
-22,009	15,838	954,142	536,915
-20,994	15,917	953,430	536,746
-19,979	15,916	952,600	536,255
-18,965	15,880	952,268	535,932
-17,950	15,894	951,730	535,654
-16,936	15,833	950,827	534,926
-15,921	15,821	950,338	534,593
-14,906	15,806	949,587	534,101
-13,892	15,774	948,926	533,607
-12,877	15,739	948,198	533,064
-11,863	15,714	947,707	532,686
-10,848	15,766	947,070	532,475
-9,833	15,865	946,634	532,523
-8,819	15,833	945,984	532,035
-7,804	15,709	945,517	531,357
-6,790	15,780	944,699	531,099
-5,775	15,774	944,206	530,785
-4,760	15,796	943,453	530,407
-3,746	15,777	942,990	530,068
-2,731	15,660	942,200	529,230
-1,717	15,625	941,581	528,753
-0,702	15,629	940,948	528,389
0,313	15,463	940,247	528,267
1,327	18,558	938,031	536,734
2,342	27,543	795,606	479,081
3,356	24,335	459,265	271,619
4,371	-2,927	313,783	156,663
5,386	-6,783	295,434	143,596
6,400	-9,119	289,512	138,392
7,415	-9,515	287,024	136,801
8,429	-9,646	285,626	135,995
9,444	-9,661	284,799	135,574
10,459	-9,485	283,994	135,350
11,473	-9,681	283,631	134,975
12,488	-9,435	282,877	134,841
13,502	-9,475	282,318	134,524
14,517	-9,351	281,951	134,458
15,531	-9,401	281,460	134,163
16,546	-9,433	281,110	133,954
17,561	-9,501	280,870	133,763
18,575	-9,337	280,439	133,702
19,590	-9,603	280,202	133,322
20,604	-9,389	279,777	133,313
21,619	-9,530	279,371	132,973
22,634	-9,525	279,018	132,798
23,648	-9,574	278,911	132,688
24,663	-9,289	278,450	132,729
25,677	-9,465	278,442	132,546
26,692	-9,603	278,142	132,260
27,707	-9,632	277,956	132,131
28,721	-9,410	277,456	132,093
29,736	-9,562	277,164	131,798
30,750	-9,592	276,994	131,677
31,765	-9,425	276,642	131,656
32,780	-9,487	276,371	131,456
33,794	-9,608	276,284	131,289
34,809	-9,580	276,014	131,176
35,823	-9,425	275,701	131,161
36,838	-9,570	275,531	130,932
37,853	-9,651	275,175	130,676
38,867	-9,496	275,065	130,757
39,882	-9,480	274,713	130,593
40,896	-9,515	274,696	130,541
41,911	-9,344	274,221	130,462
42,926	-9,547	273,960	130,137
43,940	-9,514	273,718	130,042
44,955	-9,446	273,588	130,032
45,969	-9,693	273,434	129,716
46,984	-9,749	273,002	129,448
47,999	-10,059	272,915	129,107
49,013	-10,073	272,642	128,953
50,028	-10,195	272,391	128,709
51,042	-10,270	272,070	128,476
52,057	-10,072	271,830	128,535
53,071	-10,212	271,436	128,207
54,086	-10,241	271,482	128,192
55,101	-9,946	271,132	128,288
56,115	-9,605	270,985	128,521
57,130	-9,529	271,014	128,594
58,144	-9,320	270,634	128,595
59,159	-9,516	270,632	128,401
60,174	-9,554	270,400	128,245
61,188	-9,315	270,040	128,283
62,203	-9,315	269,736	128,127
63,217	-9,460	269,569	127,903
64,232	-9,378	269,400	127,887
65,247	-9,451	269,214	127,721
66,261	-9,361	268,922	127,653
67,276	-9,454	268,657	127,430
68,290	-9,759	268,246	126,945
69,305	-9,728	268,121	126,903
70,320	-9,706	268,020	126,865
71,334	-9,613	267,830	126,848
72,349	-9,278	267,593	127,030
73,363	-9,434	267,413	126,790
74,378	-9,557	267,372	126,648
75,393	-9,366	267,019	126,643
76,407	-9,423	266,850	126,500
77,422	-9,530	266,639	126,291
78,436	-9,308	266,314	126,328
79,451	-9,348	266,116	126,186
80,466	-9,500	265,843	125,908
81,480	-9,575	265,688	125,755
82,495	-9,698	265,428	125,510
83,509	-9,583	265,373	125,577
84,524	-9,652	265,071	125,360
85,539	-9,814	264,775	125,063
86,553	-9,615	264,498	125,100
87,568	-9,574	264,370	125,066
88,582	-9,603	264,248	124,971
89,597	-9,800	264,077	124,701
90,611	-9,664	263,881	124,720
91,626	-9,459	263,803	124,856
92,641	-9,314	263,517	124,840
93,655	-9,402	263,387	124,688
94,670	-9,488	262,967	124,401
95,684	-9,536	262,677	124,210
96,699	-9,518	262,623	124,189
97,714	-9,418	262,349	124,138
98,728	-9,684	262,240	123,838
99,743	-9,467	261,958	123,888
100,757	-9,646	261,750	123,619
101,772	-9,669	261,614	123,523
102,787	-9,504	261,439	123,576
103,801	-9,607	261,353	123,432
104,816	-9,445	261,084	123,438
105,830	-9,471	260,992	123,361
106,845	-9,620	260,838	123,145
107,860	-9,507	260,542	123,094
108,874	-9,565	260,322	122,928
109,889	-9,416	260,099	122,943
110,903	-9,711	259,877	122,567
111,918	-9,417	259,731	122,747
112,933	-9,485	259,611	122,619
113,947	-9,415	259,463	122,600
114,962	-9,399	259,263	122,508
115,976	-9,532	258,954	122,235
116,991	-9,541	258,774	122,130
118,006	-9,481	258,776	122,173
119,020	-9,555	258,431	121,935
120,035	-9,397	258,427	122,061
121,049	-9,310	258,117	121,979
122,064	-9,379	257,973	121,840
123,079	-9,456	257,784	121,672
124,093	-9,468	257,433	121,486
125,108	-9,754	257,310	121,167
126,122	-9,774	256,977	120,982
127,137	-9,930	256,864	120,783
128,151	-9,832	256,745	120,801
129,166	-9,722	256,570	120,804
130,181	-9,734	256,335	120,672
131,195	-9,651	256,007	120,578
132,210	-9,421	255,899	120,716
133,224	-9,523	255,891	120,613
134,239	-9,473	255,673	120,543
135,254	-9,370	255,413	120,499
136,268	-9,397	255,166	120,349
137,283	-9,780	254,861	119,864
138,297	-9,762	254,551	119,722
139,312	-9,622	254,430	119,775
140,327	-9,774	254,510	119,672
141,341	-9,197	254,279	120,049
142,356	-9,412	254,147	119,791
143,370	-9,454	253,963	119,657
144,385	-9,281	253,817	119,726
145,400	-9,334	253,584	119,560
146,414	-9,298	253,250	119,423
147,429	-9,270	253,099	119,365
148,443	-9,329	253,125	119,316
149,458	-9,264	252,994	119,299
150,473	-9,085	252,598	119,254
151,487	-9,200	252,360	119,033
152,502	-9,155	252,293	119,030
153,516	-9,229	252,146	118,887
154,531	-9,289	251,957	118,736
155,546	-9,553	251,897	118,472
156,560	-9,376	251,614	118,479
157,575	-9,431	251,465	118,352
158,589	-9,273	251,019	118,265
159,604	-9,422	251,085	118,159
160,619	-9,291	250,888	118,167
161,633	-9,462	250,600	117,876
162,648	-9,568	250,638	117,794
163,662	-9,252	250,474	117,974
164,677	-9,090	250,201	117,972
165,692	-9,332	250,072	117,696
166,706	-9,185	249,808	117,685
167,721	-9,185	249,782	117,662
168,735	-9,287	249,529	117,447
169,750	-9,397	249,568	117,361
170,764	-9,182	249,362	117,436
171,779	-9,172	249,188	117,351
172,794	-9,167	249,135	117,320
173,808	-9,363	248,752	116,965
174,823	-9,659	248,271	116,480
175,837	-9,888	248,167	116,229
176,852	-9,468	248,212	116,591
177,867	-9,385	248,218	116,654
178,881	-9,266	247,897	116,592
179,896	-9,107	247,636	116,592
180,910	-9,060	247,440	116,528
181,925	-9,114	247,394	116,451
182,940	-9,083	247,187	116,369
183,954	-9,295	247,110	116,145
184,969	-9,082	246,916	116,221
185,983	-9,352	246,736	115,902
186,998	-9,037	246,650	116,113
188,013	-9,253	246,441	115,825
189,027	-9,299	246,210	115,668
190,042	-9,296	245,939	115,533
191,056	-9,262	245,871	115,518
192,071	-9,153	245,726	115,531
193,086	-9,193	245,524	115,392
194,100	-9,100	245,302	115,354
195,115	-9,241	245,118	115,142
196,129	-9,315	244,953	114,992
197,144	-9,282	244,706	114,893
198,159	-8,987	244,377	114,971
199,173	-9,291	244,498	114,768
200,188	-9,229	244,256	114,695
201,202	-9,533	244,033	114,330
202,217	-9,731	243,613	113,961
203,232	-9,820	243,434	113,794
204,246	-9,518	243,418	114,023
205,261	-8,992	243,292	114,385
206,275	-10,019	242,895	113,349
207,290	-6,853	244,257	116,575
208,304	-0,151	246,376	123,113
209,319	2,857	247,014	125,904
210,334	3,240	247,065	126,236
211,348	3,683	246,875	126,492
212,363	3,684	246,867	126,478
213,377	3,688	246,888	126,480
214,392	3,697	246,592	126,324
215,407	3,643	246,432	126,188
216,421	3,552	246,306	126,036
217,436	3,822	246,137	126,160
218,450	4,098	245,954	126,282
219,465	3,528	245,694	125,670
220,480	3,456	245,679	125,593
221,494	3,394	245,559	125,469
222,509	3,679	245,260	125,538
223,523	3,535	244,926	125,238
224,538	2,973	244,831	124,720
225,553	3,095	244,641	124,711
226,567	3,331	244,433	124,787
227,582	3,355	244,463	124,810
228,596	3,517	244,243	124,819
229,611	3,120	244,107	124,415
230,626	3,132	243,826	124,270
231,640	3,037	243,712	124,124
232,655	3,166	243,615	124,168
233,669	3,360	243,398	124,204
234,684	3,208	243,210	123,974
235,699	3,428	243,198	124,135
236,713	3,473	243,049	124,084
237,728	3,376	242,738	123,836
238,742	3,140	242,573	123,550
239,757	3,021	242,419	123,364
240,772	3,351	242,188	123,502
241,786	3,239	242,207	123,410
242,801	3,144	241,842	123,137
243,815	3,066	241,823	123,054
244,830	3,366	241,623	123,183
245,844	3,228	241,545	123,021
246,859	3,055	241,404	122,798
247,874	3,235	241,209	122,833
248,888	3,109	241,111	122,671
249,903	3,143	240,848	122,554
250,917	3,569	240,778	122,848
251,932	3,475	240,680	122,712
252,947	3,626	240,509	122,735
253,961	3,097	240,354	122,222
254,976	3,260	240,131	122,228
255,990	3,500	240,090	122,387
257,005	3,338	239,672	122,035
258,020	2,905	239,729	121,708
259,034	2,988	239,598	121,696
260,049	3,271	239,327	121,772
261,063	3,200	239,166	121,623
262,078	3,096	239,088	121,490
263,093	3,370	238,949	121,626
264,107	3,458	238,772	121,595
265,122	3,135	238,691	121,287
266,136	3,279	238,496	121,291
267,151	3,555	238,363	121,431
268,166	3,391	238,132	121,173
269,180	3,214	237,818	120,863
270,195	3,703	237,989	121,325
271,209	3,865	237,932	121,413
272,224	3,095	237,544	120,597
273,239	2,990	237,189	120,324
274,253	3,066	237,043	120,298
275,268	3,253	237,081	120,454
276,282	3,461	236,806	120,468
277,297	3,197	236,633	120,161
278,312	3,141	236,572	120,076
279,326	3,447	236,501	120,269
280,341	3,186	236,421	120,013
281,355	3,292	236,292	120,020
282,370	3,525	236,118	120,103
283,384	3,337	235,942	119,856
284,399	3,081	235,761	119,553
285,414	3,004	235,521	119,361
286,428	3,235	235,355	119,446
287,443	3,163	235,298	119,351
288,457	3,262	235,085	119,309
289,472	3,531	234,977	119,453
290,487	3,289	234,792	119,160
291,501	3,125	234,655	118,952
292,516	3,113	234,219	118,711
293,530	2,806	234,293	118,500
294,545	3,140	234,232	118,717
295,560	3,306	234,021	118,729
296,574	2,859	233,897	118,309
297,589	3,158	233,804	118,483
298,603	3,443	233,700	118,640
299,618	3,485	233,736	118,680
300,633	3,488	233,320	118,461
301,647	3,669	233,364	118,612
302,662	3,793	233,308	118,669
303,676	3,882	233,050	118,596
304,691	3,771	232,838	118,392
305,706	3,651	232,696	118,217
306,720	3,737	232,623	118,235
307,735	3,594	232,524	118,064
308,749	3,475	232,198	117,797
309,764	3,315	231,971	117,548
310,779	3,153	231,727	117,290
311,793	2,836	231,754	117,050
312,808	3,027	231,392	117,003
313,822	3,037	231,258	116,932
314,837	3,132	231,069	116,899
315,852	2,951	230,996	116,713
316,866	3,235	231,040	116,943
317,881	3,581	230,857	117,104
318,895	3,500	230,736	116,970
319,910	3,817	230,611	117,138
320,925	3,437	230,366	116,714
321,939	3,180	230,146	116,396
322,954	3,492	230,127	116,614
323,968	3,208	229,907	116,276
324,983	3,254	229,687	116,189
325,997	2,974	229,639	115,942
327,012	3,428	229,543	116,227
328,027	3,417	229,349	116,111
329,041	3,683	229,320	116,287
330,056	4,175	229,220	116,598
331,070	3,953	229,031	116,324
332,085	3,525	228,605	115,774
333,100	3,524	228,550	115,736
334,114	3,597	228,545	115,778
335,129	3,717	228,474	115,822
336,143	3,571	228,229	115,577
337,158	3,754	228,082	115,630
338,173	3,652	228,058	115,531
339,187	3,554	227,855	115,345
340,202	3,610	227,792	115,344
341,216	3,651	227,465	115,199
342,231	3,331	227,423	114,928
343,246	3,473	227,308	114,966
344,260	3,459	227,196	114,888
345,275	3,761	227,086	115,048
346,289	3,739	226,885	114,920
347,304	3,736	226,832	114,881
348,319	3,828	226,588	114,816
349,333	3,600	226,424	114,552
350,348	3,584	226,138	114,385
351,362	3,625	226,231	114,452
352,377	3,565	225,986	114,274
353,392	3,137	225,840	113,871
354,406	3,315	225,687	113,916
355,421	195,344	1323,558	1400,242
356,435	156,554	1457,321	1400,245
