DTS Sentinel unit serial number:	SN410029Multiplexer serial number:	ORYXHardware model number:	OX2-SRSoftware version number:	ORYX F/W v4,00 Oryx Data Collector v3.7.2.0data status	okinstallation	B5 Nyhavnadifferential loss correction	single-endedforward channel	channel 2reverse channel	N/Adate	2023/12/13time	01:07:13forward acquisition time	300,00reverse acquisition time	0,00gamma	499,1914k internal	0,3159k external	0,3159temperature offset calibration	1,0000default loss term (dB/km)	0,3820temperature slope calibration	1,0000multiplexer offset coefficient	1,0000multiplexer slope coefficient	1,0000fibre end	0,00T internal ref (°C)	14,15T ext. ref 1 (°C)	-2,38T ext. ref 2 (°C)	-2,69length (m)	temperature (°C)	Stokes	anti-Stokes-744,400	499,396	-0,029	0,049
-743,385	-129,012	-0,208	0,021
-742,371	-29,050	0,198	0,083
-741,356	-143,592	-0,278	-0,019
-740,342	-102,024	0,197	0,035
-739,327	-165,427	-0,221	-0,007
-738,312	226,591	0,062	0,075
-737,298	-187,411	-0,397	0,004
-736,283	17,886	0,093	-0,055
-735,269	-134,147	-0,285	-0,026
-734,254	-10,842	0,140	0,068
-733,239	-23,498	-0,476	-0,209
-732,225	-200,000	0,014	0,070
-731,210	-200,000	-0,002	0,126
-730,196	217,976	0,046	-0,054
-729,181	-200,000	-0,011	-0,065
-728,167	49,742	-0,021	-0,015
-727,152	-34,073	0,063	0,026
-726,137	448,362	0,021	0,034
-725,123	-200,000	0,001	0,092
-724,108	-117,556	-0,188	-0,025
-723,094	-200,000	-0,010	-0,132
-722,079	-200,000	-0,008	-0,158
-721,064	-87,445	-0,038	0,008
-720,050	-123,128	0,071	0,008
-719,035	600,801	-0,026	-0,048
-718,021	-200,000	0,003	-0,037
-717,006	397,046	0,024	-0,036
-715,991	-200,000	0,030	-0,140
-714,977	-76,006	-0,045	-0,012
-713,962	-200,000	-0,076	-0,254
-712,948	134,372	0,101	-0,096
-711,933	-32,050	0,063	0,026
-710,918	-57,058	0,105	0,034
-709,904	-0,293	-0,029	0,015
-708,889	113,272	-0,133	-0,119
-707,875	253,650	0,081	0,102
-706,860	-131,254	0,027	0,003
-705,845	76,585	0,092	0,072
-704,831	-46,305	0,091	-0,033
-703,816	120,193	-0,066	0,060
-702,802	322,485	0,055	0,078
-701,787	-71,608	0,022	-0,006
-700,772	541,313	-0,031	-0,054
-699,758	39,376	-0,130	-0,085
-698,743	-200,000	0,060	0,211
-697,729	558,935	-0,032	-0,058
-696,714	23,505	-0,026	0,016
-695,699	800,000	0,045	-0,097
-694,685	-200,000	0,021	-0,095
-693,670	-56,669	-0,115	0,037
-692,656	715,491	-0,016	-0,032
-691,641	226,278	-0,056	-0,066
-690,627	-200,000	-0,013	0,072
-689,612	800,000	0,029	-0,060
-688,597	-15,869	-0,168	-0,078
-687,583	-57,006	-0,006	0,002
-686,568	651,771	0,056	-0,106
-685,554	340,162	-0,017	-0,024
-684,539	800,000	-0,055	-0,117
-683,524	129,852	-0,055	0,052
-682,510	45,142	-0,179	0,121
-681,495	-173,225	-0,051	-0,001
-680,481	-200,000	0,058	-0,198
-679,466	-200,000	-0,018	-0,224
-678,451	113,375	-0,078	-0,069
-677,437	41,718	0,046	0,031
-676,422	-44,437	-0,008	0,003
-675,408	366,488	0,054	0,081
-674,393	405,393	-0,041	-0,063
-673,378	800,000	0,023	-0,063
-672,364	800,000	-0,075	-0,153
-671,349	185,728	-0,090	-0,098
-670,335	-89,473	-0,014	-0,003
-669,320	75,300	0,042	-0,033
-668,305	-116,323	-0,078	-0,011
-667,291	800,000	-0,064	0,182
-666,276	12,578	-0,112	0,063
-665,262	174,920	-0,064	-0,068
-664,247	234,575	-0,053	-0,064
-663,232	743,289	-0,058	0,115
-662,218	-135,796	-0,043	0,004
-661,203	-200,000	-0,130	0,000
-660,189	184,215	0,103	0,112
-659,174	-126,700	0,076	-0,008
-658,159	800,000	-0,053	-0,134
-657,145	42,232	-0,162	-0,108
-656,130	325,401	0,059	-0,083
-655,116	407,097	0,101	-0,158
-654,101	-200,000	-0,044	0,000
-653,086	-200,000	0,029	0,130
-652,072	-103,797	-0,102	0,017
-651,057	677,680	0,038	-0,073
-650,043	-200,000	-0,001	0,042
-649,028	-200,000	0,021	0,071
-648,014	800,000	0,017	0,042
-646,999	181,383	-0,101	-0,109
-645,984	-25,329	0,064	0,028
-644,970	-19,469	0,032	-0,014
-643,955	-200,000	-0,001	-0,192
-642,941	417,688	-0,088	-0,139
-641,926	298,201	-0,044	-0,059
-640,911	-80,982	-0,097	0,023
-639,897	-142,322	-0,078	-0,006
-638,882	800,000	-0,014	-0,029
-637,868	-200,000	0,009	0,055
-636,853	416,183	-0,022	-0,035
-635,838	-22,199	-0,093	0,041
-634,824	-36,779	0,098	0,038
-633,809	800,000	-0,041	0,120
-632,795	-113,862	0,198	-0,028
-631,780	-44,198	-0,048	-0,017
-630,765	189,955	-0,085	-0,094
-629,751	103,256	0,095	-0,082
-628,736	-6,481	-0,080	0,040
-627,722	337,035	0,035	-0,050
-626,707	108,638	0,082	-0,072
-625,692	-34,578	0,040	-0,016
-624,678	-100,330	0,152	0,027
-623,663	-200,000	-0,014	-0,050
-622,649	148,874	-0,091	-0,091
-621,634	800,000	-0,083	-0,195
-620,619	800,000	-0,021	-0,049
-619,605	761,275	-0,009	0,018
-618,590	245,037	-0,047	-0,058
-617,576	287,233	-0,029	0,038
-616,561	-200,000	-0,004	-0,040
-615,546	-200,000	-0,023	0,141
-614,532	666,096	0,105	-0,201
-613,517	-200,000	0,025	-0,248
-612,503	-200,000	-0,017	-0,082
-611,488	-200,000	0,045	-0,204
-610,474	800,000	0,023	-0,064
-609,459	-46,377	-0,076	-0,027
-608,444	-200,000	-0,010	-0,130
-607,430	373,329	-0,046	0,068
-606,415	-80,364	-0,021	-0,005
-605,401	-72,356	0,080	0,021
-604,386	217,804	-0,049	-0,057
-603,371	-200,000	-0,018	0,070
-602,357	143,889	-0,088	0,086
-601,342	-74,978	0,110	0,029
-600,328	-200,000	-0,022	-0,169
-599,313	800,000	0,048	-0,097
-598,298	368,039	-0,014	-0,021
-597,284	248,053	0,136	0,169
-596,269	800,000	0,020	0,057
-595,255	-10,346	-0,113	0,055
-594,240	-200,000	-0,021	-0,118
-593,225	763,781	-0,011	0,022
-592,211	-136,795	-0,049	0,004
-591,196	-103,240	0,089	0,015
-590,182	-33,318	0,083	-0,034
-589,167	15,511	-0,064	-0,037
-588,152	-17,002	0,097	0,045
-587,138	420,130	0,093	-0,147
-586,123	800,000	0,037	-0,113
-585,109	-200,000	-0,005	-0,101
-584,094	224,518	0,069	-0,082
-583,079	7,381	-0,017	0,009
-582,065	-200,000	-0,005	0,044
-581,050	139,784	-0,071	0,068
-580,036	59,759	0,078	0,056
-579,021	169,357	-0,031	-0,032
-578,006	1,307	-0,057	-0,030
-576,992	-125,155	0,159	0,018
-575,977	-200,000	0,006	0,057
-574,963	-50,608	0,069	0,024
-573,948	-37,419	-0,072	-0,028
-572,934	-191,220	-0,095	0,001
-571,919	-70,099	-0,124	-0,034
-570,904	-200,000	-0,021	-0,080
-569,890	295,786	0,066	-0,089
-568,875	-200,000	0,032	-0,110
-567,861	-81,654	-0,085	-0,020
-566,846	-110,177	0,045	-0,007
-565,831	29,433	-0,091	0,057
-564,817	-74,508	0,142	0,037
-563,802	16,484	-0,031	0,018
-562,788	-95,388	-0,162	-0,032
-561,773	320,892	0,103	-0,144
-560,758	19,826	-0,029	-0,017
-559,744	34,392	-0,023	0,015
-558,729	-76,764	-0,079	0,020
-557,715	-89,856	-0,074	0,016
-556,700	800,000	0,036	-0,094
-555,685	-72,097	-0,148	0,040
-554,671	800,000	0,017	0,047
-553,656	388,441	-0,025	0,038
-552,642	-9,858	-0,048	0,023
-551,627	164,235	-0,075	0,077
-550,612	-34,905	0,026	0,010
-549,598	52,196	-0,067	-0,047
-548,583	-37,479	0,042	-0,016
-547,569	-111,604	0,028	0,004
-546,554	-200,000	-0,029	-0,134
-545,539	-200,000	-0,023	0,075
-544,525	18,299	0,102	0,060
-543,510	800,000	-0,029	0,067
-542,496	-147,757	0,069	-0,004
-541,481	-34,540	-0,048	0,019
-540,466	81,999	-0,014	-0,011
-539,452	-200,000	0,042	0,154
-538,437	-40,605	-0,076	0,029
-537,423	573,765	-0,023	0,042
-536,408	117,554	-0,063	0,057
-535,393	-200,000	0,043	0,141
-534,379	-137,098	-0,163	0,013
-533,364	65,311	-0,137	0,101
-532,350	800,000	0,019	-0,047
-531,335	-200,000	0,023	0,086
-530,321	-200,000	-0,010	0,040
-529,306	-200,000	0,043	0,156
-528,291	23,360	-0,017	0,010
-527,277	148,458	-0,056	-0,055
-526,262	134,378	-0,120	0,113
-525,248	287,849	0,024	-0,032
-524,233	-116,545	0,026	0,004
-523,218	-48,126	-0,092	-0,032
-522,204	800,000	-0,017	-0,043
-521,189	-154,670	-0,107	-0,005
-520,175	-200,000	0,002	-0,154
-519,160	800,000	0,033	0,099
-518,145	-200,000	0,007	0,079
-517,131	196,017	-0,028	0,032
-516,116	77,843	0,038	0,029
-515,102	473,601	-0,029	0,048
-514,087	-43,816	-0,103	-0,038
-513,072	800,000	-0,066	-0,181
-512,058	-200,000	0,005	0,141
-511,043	109,433	0,107	0,094
-510,029	-68,414	0,182	0,051
-509,014	-200,000	-0,006	-0,080
-507,999	10,086	-0,093	0,051
-506,985	731,655	-0,051	0,100
-505,970	800,000	0,024	-0,071
-504,956	382,835	-0,027	-0,041
-503,941	193,959	-0,078	0,086
-502,926	725,738	0,048	0,093
-501,912	28,618	0,107	0,066
-500,897	31,566	-0,076	-0,047
-499,883	800,000	-0,010	0,030
-498,868	162,919	-0,133	0,136
-497,853	471,370	-0,045	0,074
-496,839	-108,331	0,045	-0,007
-495,824	420,035	0,039	-0,062
-494,810	-200,000	0,015	0,093
-493,795	50,517	0,113	0,078
-492,781	-200,000	0,009	-0,115
-491,766	-48,689	-0,052	0,018
-490,751	423,628	0,064	-0,100
-489,737	-200,000	0,022	-0,097
-488,722	-45,340	0,106	0,038
-487,708	580,389	0,065	0,116
-486,693	800,000	-0,040	0,088
-485,678	55,436	0,048	-0,034
-484,664	-147,812	-0,028	0,002
-483,649	-76,292	-0,114	0,029
-482,635	-200,000	0,065	0,000
-481,620	-91,255	-0,081	-0,017
-480,605	-36,227	-0,019	0,008
-479,591	377,221	0,085	0,126
-478,576	-3,524	0,082	-0,042
-477,562	176,992	0,088	-0,094
-476,547	-85,876	-0,110	0,025
-475,532	-70,982	-0,115	-0,031
-474,518	-100,510	0,076	-0,014
-473,503	58,106	-0,075	0,054
-472,489	505,676	0,105	-0,178
-471,474	-23,728	-0,069	0,030
-470,459	439,369	-0,048	-0,077
-469,445	-103,529	0,054	0,009
-468,430	-96,614	0,089	-0,017
-467,416	-66,530	-0,114	-0,033
-466,401	322,529	0,083	0,116
-465,386	-200,000	-0,004	0,097
-464,372	-79,035	0,138	-0,034
-463,357	44,181	-0,091	-0,061
-462,343	185,904	0,044	0,048
-461,328	-27,516	-0,046	0,020
-460,313	-51,638	0,116	-0,039
-459,299	-103,974	-0,093	0,016
-458,284	-37,308	0,071	0,027
-457,270	37,682	0,017	-0,011
-456,255	15,316	-0,083	-0,047
-455,241	56,882	-0,076	0,054
-454,226	800,000	-0,026	-0,061
-453,211	194,447	0,034	-0,038
-452,197	-99,245	0,139	0,025
-451,182	800,000	-0,035	-0,091
-450,168	-95,585	0,077	-0,015
-449,153	84,891	0,055	0,044
-448,138	358,063	-0,094	-0,137
-447,124	800,000	-0,027	-0,084
-446,109	-200,000	0,002	-0,029
-445,095	-12,587	-0,055	-0,026
-444,080	224,546	0,102	-0,121
-443,065	-94,731	-0,035	-0,007
-442,051	16,949	-0,075	0,043
-441,036	-200,000	-0,147	0,000
-440,022	-136,006	0,072	0,006
-439,007	578,643	-0,069	-0,123
-437,992	-120,503	0,250	-0,030
-436,978	31,609	0,023	-0,014
-435,963	800,000	0,025	-0,077
-434,949	-200,000	0,012	0,142
-433,934	187,277	-0,131	-0,142
-432,919	7,460	-0,111	-0,060
-431,905	-200,000	-0,007	-0,074
-430,890	-200,000	-0,012	0,171
-429,876	-200,000	0,007	0,044
-428,861	-106,327	0,126	0,020
-427,846	800,000	0,060	-0,135
-426,832	42,617	-0,081	-0,054
-425,817	-6,669	-0,095	-0,047
-424,803	-52,657	0,089	0,030
-423,788	-200,000	-0,006	0,038
-422,773	52,829	0,085	-0,059
-421,759	250,101	-0,043	0,053
-420,744	-200,000	-0,017	0,167
-419,730	-68,129	-0,118	-0,033
-418,715	1,980	-0,147	-0,077
-417,701	52,404	-0,072	-0,050
-416,686	800,000	0,043	-0,115
-415,671	-84,951	0,045	-0,010
-414,657	194,761	0,099	-0,110
-413,642	800,000	0,024	0,074
-412,628	800,000	-0,030	0,068
-411,613	474,125	-0,078	-0,129
-410,598	-18,079	0,079	0,036
-409,584	-200,000	-0,001	0,037
-408,569	-86,231	0,200	0,045
-407,555	-143,691	-0,074	0,005
-406,540	-169,515	0,127	0,003
-405,525	88,111	-0,060	0,049
-404,511	-200,000	-0,012	-0,090
-403,496	-86,589	0,191	-0,042
-402,482	269,174	-0,033	-0,043
-401,467	269,989	-0,074	-0,095
-400,452	800,000	0,067	0,151
-399,438	91,089	-0,178	0,146
-398,423	-200,000	-0,024	-0,086
-397,409	800,000	0,038	-0,120
-396,394	12,715	0,051	-0,028
-395,379	118,054	0,115	-0,103
-394,365	-200,000	0,005	0,042
-393,350	-30,641	-0,101	0,042
-392,336	-94,251	-0,074	0,015
-391,321	-200,000	0,004	-0,072
-390,306	337,843	0,023	-0,033
-389,292	800,000	0,015	-0,037
-388,277	-71,476	-0,036	0,010
-387,263	-31,712	0,035	-0,014
-386,248	219,034	-0,069	0,080
-385,233	71,322	-0,042	0,031
-384,219	39,163	0,043	0,028
-383,204	-13,219	-0,098	-0,046
-382,190	-200,000	0,005	-0,079
-381,175	244,807	-0,053	-0,065
-380,160	800,000	-0,014	0,040
-379,146	-90,013	0,092	0,019
-378,131	-200,000	-0,010	0,095
-377,117	800,000	0,039	-0,081
-376,102	-200,000	0,015	-0,051
-375,088	-200,000	0,013	-0,065
-374,073	101,591	-0,091	-0,077
-373,058	125,761	0,078	-0,072
-372,044	-98,164	-0,113	-0,021
-371,029	-75,735	0,026	0,007
-370,015	98,304	0,101	0,085
-369,000	800,000	-0,049	0,114
-367,985	-200,000	0,022	-0,086
-366,971	-200,000	-0,006	-0,126
-365,956	-34,984	-0,126	-0,050
-364,942	-200,000	0,033	0,139
-363,927	678,594	-0,029	0,054
-362,912	-68,093	-0,148	-0,042
-361,898	50,704	-0,086	0,059
-360,883	3,653	0,056	0,030
-359,869	800,000	0,030	-0,069
-358,854	600,680	0,094	0,171
-357,839	800,000	0,047	0,113
-356,825	-200,000	-0,005	0,063
-355,810	36,864	0,134	-0,086
-354,796	-121,913	0,080	0,009
-353,781	-200,000	0,015	0,078
-352,766	-200,000	0,001	-0,103
-351,752	-165,154	0,053	-0,002
-350,737	24,104	0,104	-0,062
-349,723	800,000	0,020	-0,059
-348,708	800,000	0,038	-0,121
-347,693	-200,000	0,026	-0,124
-346,679	-200,000	-0,013	-0,177
-345,664	-200,000	0,011	-0,059
-344,650	669,057	-0,063	-0,118
-343,635	82,185	0,117	-0,092
-342,620	-58,301	0,055	0,017
-341,606	-63,850	0,098	-0,029
-340,591	126,942	-0,025	-0,023
-339,577	-124,949	-0,019	0,002
-338,562	-200,000	0,002	0,042
-337,548	429,921	0,047	0,074
-336,533	83,815	0,064	-0,051
-335,518	-200,000	-0,045	0,169
-334,504	11,915	-0,122	0,068
-333,489	-68,452	-0,034	-0,009
-332,475	-151,683	-0,097	-0,005
-331,460	-51,380	0,103	-0,035
-330,445	-200,000	-0,025	0,100
-329,431	-68,750	-0,116	-0,032
-328,416	-16,023	0,079	-0,036
-327,402	250,977	-0,071	-0,088
-326,387	552,612	0,038	-0,067
-325,372	800,000	0,062	0,136
-324,358	59,695	-0,047	0,034
-323,343	-46,370	0,017	0,006
-322,329	31,960	0,043	0,027
-321,314	-13,009	-0,036	-0,017
-320,299	-200,000	-0,014	0,142
-319,285	-200,000	0,023	0,099
-318,270	-50,229	0,052	-0,018
-317,256	-28,315	-0,082	0,034
-316,241	-200,000	-0,006	0,032
-315,226	-117,449	-0,080	0,010
-314,212	687,019	-0,081	0,154
-313,197	800,000	-0,058	0,139
-312,183	-200,000	0,035	0,113
-311,168	-200,000	0,038	-0,125
-310,153	266,125	-0,026	-0,033
-309,139	276,736	0,053	-0,069
-308,124	-200,000	-0,001	0,064
-307,110	-70,082	0,085	-0,023
-306,095	800,000	0,030	0,085
-305,080	-53,801	0,040	0,013
-304,066	-26,397	0,075	-0,032
-303,051	-72,091	-0,073	-0,019
-302,037	-200,000	0,054	0,178
-301,022	81,558	-0,083	0,065
-300,008	-200,000	0,022	0,153
-298,993	-200,000	0,005	0,132
-297,978	-97,630	0,032	0,006
-296,964	-200,000	-0,008	-0,084
-295,949	-39,245	-0,130	0,049
-294,935	-200,000	-0,035	0,217
-293,920	800,000	0,024	-0,051
-292,905	800,000	0,022	0,066
-291,891	-200,000	0,024	0,165
-290,876	23,488	-0,068	0,040
-289,862	603,904	-0,030	-0,055
-288,847	-125,418	-0,051	0,006
-287,832	176,198	-0,092	-0,096
-286,818	800,000	-0,018	0,051
-285,803	-200,000	0,037	0,218
-284,789	-78,293	-0,048	-0,012
-283,774	-73,943	0,039	0,010
-282,759	800,000	-0,047	0,145
-281,745	-200,000	0,004	0,115
-280,730	393,630	0,065	0,098
-279,716	549,653	-0,012	-0,021
-278,701	-46,313	-0,014	0,005
-277,686	304,469	0,034	0,046
-276,672	766,913	0,079	-0,157
-275,657	800,000	0,014	0,040
-274,643	223,931	0,033	0,039
-273,628	-96,389	-0,142	-0,027
-272,613	672,551	0,058	-0,109
-271,599	-200,000	0,006	-0,040
-270,584	10,465	0,060	-0,033
-269,570	-200,000	0,021	-0,103
-268,555	-5,553	0,104	-0,051
-267,540	-191,941	0,053	-0,000
-266,526	-150,446	-0,054	-0,003
-265,511	-200,000	-0,012	0,090
-264,497	105,354	0,051	0,043
-263,482	47,993	0,034	-0,023
-262,467	92,007	-0,071	0,057
-261,453	-200,000	-0,014	-0,044
-260,438	-7,922	-0,044	-0,021
-259,424	225,300	-0,015	-0,017
-258,409	71,289	-0,078	-0,058
-257,395	50,668	0,099	0,067
-256,380	800,000	-0,021	-0,056
-255,365	-163,420	0,175	0,006
-254,351	229,861	-0,035	0,042
-253,336	-200,000	0,008	0,047
-252,322	800,000	0,093	-0,239
-251,307	800,000	0,024	0,055
-250,292	-154,080	-0,129	0,006
-249,278	-53,069	-0,046	0,015
-248,263	765,970	0,004	-0,007
-247,249	-85,739	-0,199	0,044
-246,234	-15,302	0,062	0,029
-245,219	-200,000	0,012	0,057
-244,205	-34,601	0,077	-0,030
-243,190	-200,000	-0,033	-0,111
-242,176	-200,000	0,009	0,074
-241,161	323,876	0,064	0,089
-240,146	-138,255	0,102	-0,008
-239,132	-135,440	-0,043	0,004
-238,117	-200,000	0,017	-0,109
-237,103	-200,000	0,006	-0,059
-236,088	-136,781	-0,131	0,011
-235,073	-200,000	0,011	0,130
-234,059	492,590	0,017	0,028
-233,044	85,687	0,136	-0,108
-232,030	299,156	0,047	-0,062
-231,015	-172,072	0,098	0,002
-230,000	525,365	-0,038	-0,065
-228,986	-35,709	0,028	-0,011
-227,971	800,000	-0,045	0,130
-226,957	3,747	-0,058	0,030
-225,942	-200,000	-0,005	0,026
-224,927	-110,855	0,091	0,013
-223,913	307,869	-0,041	-0,056
-222,898	-200,000	-0,026	-0,088
-221,884	81,747	-0,067	0,052
-220,869	800,000	0,027	0,083
-219,855	-121,267	0,063	-0,008
-218,840	789,599	-0,031	0,063
-217,825	800,000	0,025	-0,080
-216,811	800,000	-0,044	0,095
-215,796	157,237	0,025	-0,025
-214,782	-200,000	-0,008	-0,042
-213,767	-149,524	0,078	0,004
-212,752	-191,219	0,080	-0,001
-211,738	-200,000	-0,011	0,048
-210,723	-200,000	0,000	0,077
-209,709	-200,000	-0,011	0,041
-208,694	8,595	-0,076	-0,041
-207,679	-8,158	0,117	0,057
-206,665	-169,441	-0,057	0,001
-205,650	800,000	0,046	0,096
-204,636	-98,181	0,141	-0,026
-203,621	-200,000	-0,006	0,033
-202,606	800,000	0,020	-0,044
-201,592	263,296	-0,063	0,079
-200,577	-13,351	-0,061	-0,029
-199,563	37,412	-0,206	-0,131
-198,548	-46,418	0,062	-0,022
-197,533	24,479	0,043	-0,025
-196,519	-200,000	0,011	0,173
-195,504	37,838	-0,044	0,028
-194,490	66,622	-0,033	-0,024
-193,475	-80,550	-0,101	-0,024
-192,460	193,197	-0,042	0,046
-191,446	-19,686	0,074	-0,033
-190,431	608,404	-0,010	0,018
-189,417	-147,885	0,028	-0,002
-188,402	108,141	0,052	0,045
-187,387	294,069	-0,057	-0,076
-186,373	36,128	0,064	0,040
-185,358	22,952	0,056	-0,033
-184,344	-95,590	-0,015	-0,003
-183,329	-200,000	-0,002	-0,028
-182,315	-98,842	0,110	-0,020
-181,300	160,467	0,095	-0,096
-180,285	-106,007	-0,130	-0,021
-179,271	218,965	0,031	0,035
-178,256	-200,000	-0,003	0,044
-177,242	30,768	0,126	0,078
-176,227	230,545	0,111	0,131
-175,212	272,423	0,064	0,082
-174,198	-22,455	-0,063	0,027
-173,183	-124,197	0,169	0,019
-172,169	-90,217	-0,119	-0,025
-171,154	-27,798	0,051	-0,021
-170,139	378,812	0,085	0,125
-169,125	800,000	0,008	-0,016
-168,110	331,156	-0,035	0,049
-167,096	27,419	0,030	0,018
-166,081	627,668	-0,005	0,009
-165,066	-81,228	-0,037	-0,009
-164,052	-200,000	-0,002	-0,095
-163,037	-175,084	0,047	-0,001
-162,023	-200,000	-0,025	0,079
-161,008	-85,777	0,078	0,017
-159,993	84,496	-0,167	0,132
-158,979	-18,274	-0,049	0,022
-157,964	-200,000	0,011	-0,054
-156,950	-200,000	0,013	-0,058
-155,935	332,233	0,067	-0,093
-154,920	12,827	-0,098	-0,054
-153,906	214,335	-0,074	0,084
-152,891	-200,000	-0,037	0,128
-151,877	-200,000	0,006	-0,160
-150,862	492,517	-0,066	-0,109
-149,847	-25,055	0,137	-0,058
-148,833	-89,143	-0,005	-0,001
-147,818	122,093	0,019	-0,017
-146,804	-200,000	0,055	0,215
-145,789	800,000	-0,026	0,054
-144,775	-200,000	-0,026	0,129
-143,760	-200,000	0,008	-0,043
-142,745	51,444	-0,081	-0,055
-141,731	-13,898	0,148	-0,069
-140,716	-102,557	-0,071	0,012
-139,702	-120,878	-0,060	-0,007
-138,687	800,000	0,073	-0,164
-137,672	151,865	0,046	-0,045
-136,658	-21,854	-0,055	-0,024
-135,643	800,000	0,068	-0,155
-134,629	800,000	-0,026	-0,055
-133,614	-89,081	0,126	0,027
-132,599	800,000	-0,075	0,168
-131,585	-117,254	0,056	-0,007
-130,570	-200,000	0,025	-0,096
-129,556	-200,000	-0,015	-0,048
-128,541	14,216	0,125	-0,070
-127,526	135,628	0,020	0,018
-126,512	-52,141	0,034	0,011
-125,497	800,000	0,075	0,152
-124,483	-200,000	-0,009	0,054
-123,468	544,523	-0,037	-0,064
-122,453	800,000	-0,038	-0,115
-121,439	458,412	-0,071	0,114
-120,424	800,000	-0,041	0,085
-119,410	30,145	0,086	0,052
-118,395	142,899	0,008	-0,008
-117,380	378,654	-0,026	0,038
-116,366	800,000	0,053	0,120
-115,351	523,427	-0,062	0,106
-114,337	-18,304	0,048	0,022
-113,322	77,034	0,179	-0,137
-112,307	-28,955	-0,040	-0,016
-111,293	715,876	0,040	-0,076
-110,278	-11,819	0,169	0,079
-109,264	55,398	-0,128	-0,089
-108,249	-200,000	-0,003	-0,066
-107,234	800,000	-0,035	-0,107
-106,220	-200,000	0,017	-0,107
-105,205	-162,634	0,017	-0,001
-104,191	800,000	-0,022	0,056
-103,176	192,282	0,062	-0,067
-102,162	-37,273	-0,020	0,008
-101,147	-85,257	0,241	-0,054
-100,132	-200,000	0,031	-0,186
-99,118	77,209	-0,036	-0,028
-98,103	800,000	0,024	-0,049
-97,089	-10,761	0,044	0,021
-96,074	546,767	0,043	0,073
-95,059	800,000	-0,026	-0,070
-94,045	-172,192	0,036	0,001
-93,030	800,000	0,043	-0,086
-92,016	-200,000	0,005	0,024
-91,001	-200,000	-0,031	0,188
-89,986	492,003	-0,048	-0,079
-88,972	-200,000	-0,034	-0,162
-87,957	-36,657	-0,069	0,026
-86,943	-200,000	-0,005	-0,090
-85,928	-200,000	0,046	-0,217
-84,913	90,859	-0,070	-0,057
-83,899	221,938	0,113	0,130
-82,884	-72,785	-0,105	0,028
-81,870	-200,000	-0,015	0,132
-80,855	789,025	0,041	-0,081
-79,840	800,000	-0,027	0,069
-78,826	800,000	0,037	-0,116
-77,811	-169,248	0,015	-0,000
-76,797	-3,092	0,031	-0,015
-75,782	537,117	0,126	0,216
-74,767	800,000	-0,037	0,091
-73,753	800,000	0,035	-0,073
-72,738	-200,000	-0,005	-0,072
-71,724	800,000	0,026	-0,068
-70,709	-10,694	-0,049	0,023
-69,694	106,151	0,125	-0,106
-68,680	38,949	0,124	-0,079
-67,665	-74,609	0,080	0,021
-66,651	749,009	-0,038	-0,073
-65,636	-146,536	-0,029	-0,002
-64,622	-200,000	-0,030	-0,103
-63,607	733,549	0,038	-0,074
-62,592	59,873	-0,077	-0,054
-61,578	-143,215	0,103	-0,007
-60,563	-200,000	-0,012	-0,122
-59,549	-200,000	-0,026	0,097
-58,534	5,778	-2,055	-1,087
-57,519	-200,000	-0,180	-0,886
-56,505	-200,000	-1,313	-5,133
-55,490	137,548	0,843	0,791
-54,476	800,000	5,365	12,120
-53,461	-200,000	18,393	307,443
-52,446	800,000	738,450	2303,399
-51,432	553,219	1654,652	2864,098
-50,417	110,361	1639,525	1412,656
-49,403	74,629	1289,841	972,204
-48,388	30,637	1030,277	630,791
-47,373	20,040	992,729	572,732
-46,359	17,780	980,424	558,181
-45,344	14,493	976,338	545,038
-44,330	14,846	974,722	545,275
-43,315	14,242	972,951	542,280
-42,300	14,141	971,821	541,301
-41,286	14,142	970,967	540,808
-40,271	14,136	970,144	540,306
-39,257	14,192	969,162	539,922
-38,242	14,169	968,197	539,286
-37,227	14,196	967,298	538,853
-36,213	14,143	966,458	538,192
-35,198	14,204	965,485	537,825
-34,184	14,192	965,062	537,531
-33,169	14,111	964,059	536,688
-32,154	14,186	962,772	536,192
-31,140	14,218	962,032	535,862
-30,125	14,186	961,327	535,345
-29,111	14,205	960,609	534,987
-28,096	14,161	959,933	534,444
-27,082	14,240	959,231	534,288
-26,067	14,190	958,416	533,652
-25,052	14,174	957,723	533,194
-24,038	14,152	957,150	532,784
-23,023	14,150	956,327	532,299
-22,009	14,204	955,779	532,144
-20,994	14,197	955,023	531,679
-19,979	14,220	954,459	531,420
-18,965	14,218	953,844	531,048
-17,950	14,193	953,289	530,640
-16,936	14,121	952,669	530,042
-15,921	14,119	951,999	529,643
-14,906	14,156	951,000	529,184
-13,892	14,124	950,493	528,776
-12,877	14,080	949,945	528,311
-11,863	14,044	949,265	527,798
-10,848	14,052	948,788	527,536
-9,833	14,143	948,304	527,536
-8,819	14,136	947,739	527,179
-7,804	14,066	946,965	526,504
-6,790	14,122	946,363	526,327
-5,775	14,095	945,956	525,995
-4,760	14,145	945,108	525,662
-3,746	14,087	944,562	525,152
-2,731	13,969	943,913	524,396
-1,717	13,865	943,459	523,791
-0,702	13,933	942,520	523,465
0,313	13,701	942,026	523,247
1,327	16,956	939,778	532,242
2,342	25,897	794,971	473,958
3,356	22,393	459,840	268,757
4,371	-4,520	316,756	156,296
5,386	-8,419	298,585	143,340
6,400	-10,520	292,611	138,356
7,415	-10,787	290,004	136,847
8,429	-11,152	288,567	135,797
9,444	-11,220	287,706	135,312
10,459	-11,047	287,067	135,169
11,473	-10,890	286,382	134,989
12,488	-10,974	286,040	134,734
13,502	-10,956	285,429	134,450
14,517	-11,037	285,060	134,186
15,531	-11,068	284,571	133,914
16,546	-10,876	284,076	133,855
17,561	-10,979	283,874	133,648
18,575	-10,912	283,529	133,539
19,590	-10,977	283,034	133,231
20,604	-10,960	282,873	133,160
21,619	-10,979	282,263	132,842
22,634	-10,816	281,970	132,850
23,648	-11,093	281,767	132,476
24,663	-10,982	281,445	132,420
25,677	-10,877	281,284	132,432
26,692	-10,943	281,055	132,249
27,707	-10,838	280,696	132,169
28,721	-10,758	280,311	132,053
29,736	-11,027	280,094	131,681
30,750	-10,940	279,827	131,627
31,765	-11,028	279,447	131,353
32,780	-10,998	279,341	131,320
33,794	-11,013	279,114	131,187
34,809	-11,068	278,851	130,999
35,823	-11,102	278,534	130,807
36,838	-11,125	278,278	130,653
37,853	-11,053	277,959	130,560
38,867	-11,225	277,900	130,357
39,882	-11,066	277,620	130,365
40,896	-11,042	277,311	130,231
41,911	-10,958	277,014	130,159
42,926	-11,105	276,964	129,985
43,940	-11,112	276,719	129,853
44,955	-11,155	276,579	129,734
45,969	-11,087	276,028	129,528
46,984	-11,162	275,825	129,351
47,999	-11,381	275,603	129,030
49,013	-11,417	275,216	128,803
50,028	-11,640	275,067	128,512
51,042	-11,713	274,815	128,315
52,057	-11,818	274,431	128,026
53,071	-11,704	274,219	128,022
54,086	-11,518	274,273	128,210
55,101	-11,428	273,959	128,136
56,115	-11,311	273,818	128,168
57,130	-10,918	273,590	128,415
58,144	-10,854	273,487	128,416
59,159	-10,920	273,201	128,208
60,174	-10,803	272,823	128,128
61,188	-10,831	272,719	128,042
62,203	-10,825	272,450	127,910
63,217	-11,060	272,367	127,641
64,232	-10,888	272,139	127,683
65,247	-10,897	271,897	127,550
66,261	-11,025	271,507	127,237
67,276	-11,209	271,510	127,057
68,290	-11,306	271,050	126,741
69,305	-11,219	270,844	126,713
70,320	-11,132	270,493	126,618
71,334	-10,909	270,434	126,784
72,349	-10,816	270,285	126,788
73,363	-10,875	270,098	126,636
74,378	-10,907	269,917	126,510
75,393	-10,945	269,710	126,367
76,407	-10,922	269,439	126,250
77,422	-11,001	269,337	126,118
78,436	-10,874	268,935	126,035
79,451	-11,077	268,777	125,764
80,466	-10,889	268,457	125,775
81,480	-10,969	268,319	125,626
82,495	-11,144	267,977	125,295
83,509	-11,009	267,893	125,368
84,524	-11,056	267,603	125,178
85,539	-11,169	267,488	125,010
86,553	-11,229	267,229	124,823
87,568	-11,174	267,174	124,836
88,582	-11,251	266,915	124,634
89,597	-11,139	266,717	124,632
90,611	-11,028	266,549	124,644
91,626	-10,823	266,334	124,718
92,641	-10,973	266,188	124,503
93,655	-11,084	266,026	124,315
94,670	-10,921	265,699	124,298
95,684	-10,994	265,562	124,157
96,699	-10,919	265,286	124,085
97,714	-11,016	265,149	123,922
98,728	-11,229	264,793	123,553
99,743	-11,296	264,707	123,442
100,757	-11,194	264,339	123,351
101,772	-11,262	264,008	123,125
102,787	-11,047	263,960	123,284
103,801	-10,919	263,881	123,351
104,816	-10,997	263,663	123,168
105,830	-10,670	263,452	123,350
106,845	-10,961	263,356	123,035
107,860	-10,988	263,202	122,927
108,874	-10,757	262,779	122,925
109,889	-11,122	262,748	122,574
110,903	-11,060	262,441	122,475
111,918	-10,946	262,244	122,474
112,933	-10,734	261,937	122,508
113,947	-11,000	262,009	122,294
114,962	-10,929	261,707	122,205
115,976	-11,186	261,501	121,871
116,991	-11,146	261,416	121,855
118,006	-10,993	261,211	121,885
119,020	-10,953	260,930	121,777
120,035	-10,993	260,980	121,755
121,049	-10,957	260,609	121,603
122,064	-10,891	260,522	121,609
123,079	-11,081	260,154	121,259
124,093	-11,031	259,953	121,199
125,108	-11,029	259,744	121,093
126,122	-11,092	259,588	120,953
127,137	-11,303	259,257	120,603
128,151	-11,320	259,149	120,528
129,166	-11,064	258,948	120,648
130,181	-11,078	258,648	120,485
131,195	-11,436	258,622	120,149
132,210	-10,997	258,425	120,430
133,224	-10,741	258,063	120,475
134,239	-10,959	258,072	120,277
135,254	-10,990	257,911	120,165
136,268	-10,951	257,572	120,030
137,283	-11,110	257,206	119,710
138,297	-11,246	257,123	119,543
139,312	-11,363	257,034	119,389
140,327	-11,067	256,787	119,520
141,341	-10,903	256,794	119,656
142,356	-10,845	256,553	119,583
143,370	-10,779	256,342	119,531
144,385	-10,769	256,269	119,496
145,400	-10,679	256,144	119,504
146,414	-10,677	255,828	119,348
147,429	-10,857	255,637	119,092
148,443	-10,641	255,403	119,160
149,458	-10,792	255,357	118,997
150,473	-10,722	255,137	118,944
151,487	-10,848	254,798	118,667
152,502	-10,798	254,658	118,634
153,516	-10,822	254,614	118,583
154,531	-10,870	254,354	118,410
155,546	-10,780	254,200	118,405
156,560	-10,779	253,955	118,281
157,575	-11,068	253,857	117,977
158,589	-10,768	253,578	118,094
159,604	-10,719	253,431	118,057
160,619	-10,730	253,063	117,865
161,633	-10,964	253,022	117,635
162,648	-10,913	252,993	117,656
163,662	-10,658	252,657	117,707
164,677	-10,641	252,513	117,643
165,692	-10,680	252,393	117,544
166,706	-10,743	252,349	117,459
167,721	-10,732	251,969	117,281
168,735	-10,696	251,886	117,262
169,750	-10,750	251,646	117,094
170,764	-10,621	251,685	117,211
171,779	-10,605	251,409	117,086
172,794	-10,667	251,135	116,896
173,808	-10,779	251,093	116,771
174,823	-11,012	250,842	116,446
175,837	-11,429	250,478	115,915
176,852	-10,936	250,372	116,271
177,867	-10,723	250,347	116,429
178,881	-10,499	250,308	116,590
179,896	-10,801	250,022	116,192
180,910	-10,775	249,723	116,064
181,925	-10,699	249,553	116,039
182,940	-10,666	249,429	115,999
183,954	-10,633	249,356	115,982
184,969	-10,752	249,236	115,816
185,983	-10,605	248,980	115,810
186,998	-10,554	248,811	115,764
188,013	-10,583	248,570	115,617
189,027	-10,594	248,317	115,480
190,042	-10,667	248,335	115,417
191,056	-10,573	248,086	115,370
192,071	-10,791	248,017	115,145
193,086	-10,639	247,775	115,149
194,100	-10,785	247,618	114,944
195,115	-10,617	247,410	114,977
196,129	-10,634	247,133	114,825
197,144	-10,784	247,068	114,659
198,159	-10,690	246,766	114,587
199,173	-10,805	246,714	114,457
200,188	-10,838	246,497	114,319
201,202	-10,941	246,301	114,132
202,217	-11,194	245,848	113,703
203,232	-11,266	245,710	113,570
204,246	-10,912	245,655	113,826
205,261	-10,631	245,511	113,982
206,275	-11,524	245,280	113,128
207,290	-7,192	246,982	117,498
208,304	0,637	249,525	125,241
209,319	4,156	250,318	128,569
210,334	4,525	250,347	128,880
211,348	4,973	250,263	129,199
212,363	4,989	250,198	129,168
213,377	5,274	250,160	129,374
214,392	5,163	249,668	129,015
215,407	4,964	249,636	128,822
216,421	4,950	249,483	128,720
217,436	5,079	249,291	128,717
218,450	5,073	249,253	128,680
219,465	4,848	248,956	128,329
220,480	4,656	248,725	128,040
221,494	4,680	248,596	127,982
222,509	4,660	248,401	127,853
223,523	4,602	248,153	127,666
224,538	4,239	247,972	127,262
225,553	4,574	247,881	127,480
226,567	4,585	247,714	127,393
227,582	4,735	247,638	127,466
228,596	4,615	247,431	127,249
229,611	4,266	247,225	126,844
230,626	4,169	247,029	126,653
231,640	4,342	246,934	126,735
232,655	4,454	246,531	126,609
233,669	4,272	246,477	126,421
234,684	4,243	246,161	126,223
235,699	4,473	246,300	126,472
236,713	4,767	246,161	126,630
237,728	4,372	245,838	126,130
238,742	4,285	245,627	125,939
239,757	4,310	245,544	125,905
240,772	4,307	245,355	125,795
241,786	4,291	245,323	125,754
242,801	4,168	245,069	125,513
243,815	4,270	244,814	125,454
244,830	4,480	244,730	125,571
245,844	4,469	244,819	125,596
246,859	4,165	244,466	125,157
247,874	4,218	244,172	125,038
248,888	4,362	244,119	125,116
249,903	4,441	243,978	125,098
250,917	4,568	243,876	125,137
251,932	4,574	243,813	125,098
252,947	4,667	243,547	125,026
253,961	4,422	243,228	124,653
254,976	4,418	243,193	124,621
255,990	4,556	243,084	124,665
257,005	4,388	242,930	124,440
258,020	3,927	242,767	123,974
259,034	4,372	242,516	124,192
260,049	4,438	242,333	124,141
261,063	3,996	242,250	123,731
262,078	4,474	242,006	123,980
263,093	4,677	241,912	124,084
264,107	4,629	241,854	124,004
265,122	4,379	241,571	123,648
266,136	4,483	241,621	123,746
267,151	4,606	241,437	123,739
268,166	4,393	241,094	123,381
269,180	4,164	240,826	123,051
270,195	4,900	241,021	123,727
271,209	4,951	240,919	123,705
272,224	4,574	240,499	123,178
273,239	3,998	240,417	122,666
274,253	4,107	240,135	122,597
275,268	4,220	240,081	122,649
276,282	4,256	240,044	122,648
277,297	4,183	239,722	122,414
278,312	4,244	239,598	122,388
279,326	4,409	239,494	122,456
280,341	4,267	239,447	122,308
281,355	4,381	239,242	122,282
282,370	4,459	239,237	122,331
283,384	4,307	239,006	122,081
284,399	4,153	238,798	121,843
285,414	3,892	238,537	121,492
286,428	4,226	238,422	121,686
287,443	4,338	238,176	121,639
288,457	4,491	238,164	121,743
289,472	4,807	237,938	121,865
290,487	4,510	237,729	121,513
291,501	4,262	237,468	121,174
292,516	4,095	237,363	120,978
293,530	4,041	237,260	120,873
294,545	4,565	237,240	121,263
295,560	4,485	236,958	121,045
296,574	4,211	236,779	120,729
297,589	4,063	236,714	120,569
298,603	4,728	236,594	121,017
299,618	4,539	236,546	120,834
300,633	4,494	236,307	120,666
301,647	4,801	236,222	120,852
302,662	4,896	236,185	120,896
303,676	5,011	235,968	120,864
304,691	4,759	235,678	120,509
305,706	4,822	235,729	120,573
306,720	4,720	235,505	120,368
307,735	4,424	235,422	120,085
308,749	4,557	235,152	120,040
309,764	4,109	235,042	119,624
310,779	4,082	234,601	119,369
311,793	3,987	234,442	119,204
312,808	3,796	234,373	119,010
313,822	3,890	234,103	118,935
314,837	4,048	234,045	119,017
315,852	4,082	234,052	119,036
316,866	4,208	233,984	119,088
317,881	4,551	233,711	119,203
318,895	4,291	233,730	119,002
319,910	4,468	233,541	119,031
320,925	4,297	233,309	118,771
321,939	4,312	233,007	118,618
322,954	4,458	233,047	118,740
323,968	4,608	232,981	118,811
324,983	4,493	232,622	118,529
325,997	4,672	232,668	118,680
327,012	4,542	232,516	118,492
328,027	4,492	232,262	118,314
329,041	4,663	232,241	118,423
330,056	5,144	232,124	118,721
331,070	4,990	232,117	118,589
332,085	4,908	231,773	118,341
333,100	4,579	231,629	118,005
334,114	4,480	231,488	117,847
335,129	4,663	231,345	117,903
336,143	4,767	231,245	117,921
337,158	4,884	230,950	117,849
338,173	4,430	230,858	117,446
339,187	4,222	230,710	117,202
340,202	4,514	230,572	117,344
341,216	4,456	230,414	117,209
342,231	4,337	230,308	117,054
343,246	4,359	230,145	116,978
344,260	4,617	229,916	117,046
345,275	4,844	230,069	117,286
346,289	4,780	229,845	117,113
347,304	4,698	229,731	116,982
348,319	4,619	229,499	116,793
349,333	4,608	229,165	116,604
350,348	4,565	228,923	116,439
351,362	4,518	228,962	116,413
352,377	4,385	228,708	116,173
353,392	4,030	228,524	115,803
354,406	4,229	228,481	115,920
355,421	195,584	1319,437	1395,506
356,435	156,870	1452,310	1395,482
