DTS Sentinel unit serial number:	SN410029Multiplexer serial number:	ORYXHardware model number:	OX2-SRSoftware version number:	ORYX F/W v4,00 Oryx Data Collector v3.7.2.0data status	okinstallation	B5 Nyhavnadifferential loss correction	single-endedforward channel	channel 2reverse channel	N/Adate	2023/12/14time	05:32:13forward acquisition time	300,00reverse acquisition time	0,00gamma	499,1914k internal	0,3156k external	0,3156temperature offset calibration	1,0000default loss term (dB/km)	0,3820temperature slope calibration	1,0000multiplexer offset coefficient	1,0000multiplexer slope coefficient	1,0000fibre end	0,00T internal ref (°C)	7,75T ext. ref 1 (°C)	-8,70T ext. ref 2 (°C)	-8,81length (m)	temperature (°C)	Stokes	anti-Stokes-744,400	800,000	0,081	0,166
-743,385	-43,228	-0,189	-0,070
-742,371	-77,027	0,135	-0,034
-741,356	-200,000	-0,309	0,001
-740,342	-74,494	0,225	0,059
-739,327	-109,903	-0,468	-0,072
-738,312	12,409	0,150	0,085
-737,298	-161,411	-0,256	-0,010
-736,283	270,943	0,101	0,132
-735,269	-111,072	-0,319	-0,048
-734,254	-152,826	0,152	0,008
-733,239	-27,927	-0,678	-0,288
-732,225	-86,603	0,208	0,047
-731,210	101,261	-0,112	0,096
-730,196	118,075	-0,079	-0,072
-729,181	45,410	-0,066	-0,045
-728,167	-74,263	-0,046	-0,012
-727,152	216,408	-0,061	0,072
-726,137	-109,794	-0,111	-0,017
-725,123	800,000	-0,042	0,087
-724,108	-101,979	-0,175	-0,031
-723,094	-43,391	-0,158	0,059
-722,079	800,000	-0,094	-0,201
-721,064	621,562	-0,034	0,063
-720,050	266,776	-0,123	-0,158
-719,035	-200,000	-0,021	-0,119
-718,021	800,000	-0,068	-0,145
-717,006	-200,000	-0,015	-0,117
-715,991	-157,371	-0,154	0,007
-714,977	153,244	-0,135	-0,136
-713,962	-200,000	-0,008	-0,036
-712,948	62,923	0,143	0,106
-711,933	-200,000	0,015	0,100
-710,918	-200,000	0,008	-0,052
-709,904	-200,000	-0,008	-0,106
-708,889	-61,986	0,066	-0,020
-707,875	351,833	-0,083	-0,121
-706,860	-198,791	0,155	-0,001
-705,845	-31,985	-0,108	0,044
-704,831	411,297	0,098	-0,153
-703,816	800,000	-0,017	0,055
-702,802	-96,878	-0,071	0,014
-701,787	-85,588	-0,071	0,016
-700,772	-77,189	0,017	0,004
-699,758	-200,000	0,005	0,123
-698,743	206,711	0,023	-0,026
-697,729	-200,000	0,039	0,128
-696,714	-196,542	-0,015	0,000
-695,699	-200,000	-0,002	-0,024
-694,685	-5,425	-0,044	0,022
-693,670	-200,000	-0,008	-0,051
-692,656	339,966	-0,090	0,129
-691,641	161,173	-0,058	0,060
-690,627	800,000	-0,043	0,094
-689,612	527,858	-0,060	0,104
-688,597	-5,241	0,167	-0,084
-687,583	42,281	-0,135	-0,090
-686,568	32,929	0,100	-0,063
-685,554	-53,534	-0,022	-0,007
-684,539	403,152	0,067	0,103
-683,524	48,197	0,057	0,039
-682,510	-175,699	0,091	0,002
-681,495	765,410	-0,031	0,062
-680,481	-26,537	-0,094	0,040
-679,466	800,000	0,026	0,067
-678,451	-200,000	0,010	-0,071
-677,437	800,000	0,031	-0,096
-676,422	124,958	0,117	0,108
-675,408	800,000	-0,061	0,186
-674,393	15,071	0,094	0,054
-673,378	3,612	-0,129	0,069
-672,364	-94,565	-0,110	0,022
-671,349	-200,000	-0,019	0,131
-670,335	599,441	0,077	-0,142
-669,320	-200,000	-0,009	0,120
-668,305	-70,631	0,039	0,011
-667,291	96,558	0,036	0,031
-666,276	85,212	-0,014	-0,011
-665,262	231,446	-0,012	0,015
-664,247	456,542	-0,060	-0,098
-663,232	-7,098	-0,189	0,094
-662,218	-29,428	0,176	0,074
-661,203	582,951	-0,075	0,136
-660,189	-101,804	-0,093	0,016
-659,174	435,082	0,062	-0,100
-658,159	-176,203	-0,139	0,003
-657,145	-127,511	-0,083	0,009
-656,130	-200,000	0,026	0,094
-655,116	720,661	0,042	0,082
-654,101	-79,210	-0,107	0,026
-653,086	-136,852	-0,158	-0,013
-652,072	-200,000	-0,010	-0,105
-651,057	-21,337	-0,169	0,075
-650,043	63,562	-0,065	-0,048
-649,028	-200,000	0,011	0,067
-648,014	188,673	0,038	0,042
-646,999	355,027	-0,040	-0,059
-645,984	-200,000	0,000	-0,004
-644,970	-111,126	-0,110	0,016
-643,955	800,000	-0,023	-0,051
-642,941	-200,000	0,019	-0,203
-641,926	-11,012	0,016	-0,008
-640,911	-200,000	-0,010	0,071
-639,897	259,957	-0,066	0,083
-638,882	130,128	0,035	0,033
-637,868	-200,000	0,008	-0,075
-636,853	-200,000	-0,000	-0,083
-635,838	-200,000	0,025	-0,142
-634,824	-200,000	-0,013	0,063
-633,809	800,000	-0,054	0,113
-632,795	51,479	0,064	0,045
-631,780	-13,770	-0,129	-0,061
-630,765	-200,000	-0,014	-0,045
-629,751	-106,848	-0,028	0,005
-628,736	109,977	-0,069	-0,060
-627,722	-42,661	0,031	0,012
-626,707	800,000	-0,021	0,051
-625,692	-200,000	0,014	0,121
-624,678	-200,000	0,003	-0,009
-623,663	-122,226	-0,198	0,023
-622,649	800,000	-0,030	-0,074
-621,634	230,573	0,029	0,035
-620,619	800,000	0,067	0,173
-619,605	-200,000	-0,030	0,130
-618,590	800,000	-0,007	0,017
-617,576	-30,412	-0,066	0,027
-616,561	-115,115	-0,137	0,019
-615,546	800,000	0,039	-0,083
-614,532	-73,431	-0,111	-0,030
-613,517	167,941	-0,085	-0,088
-612,503	800,000	0,016	0,040
-611,488	-34,002	0,179	-0,072
-610,474	-50,482	-0,145	-0,050
-609,459	76,014	0,084	0,065
-608,444	-12,933	-0,078	-0,037
-607,430	-200,000	-0,034	0,130
-606,415	-200,000	-0,034	-0,159
-605,401	-200,000	0,004	0,051
-604,386	800,000	0,056	-0,131
-603,371	800,000	-0,046	0,120
-602,357	-200,000	0,006	-0,067
-601,342	-43,995	0,080	0,030
-600,328	192,770	-0,134	-0,148
-599,313	-106,283	-0,108	-0,018
-598,298	-8,257	-0,093	-0,046
-597,284	800,000	0,031	0,064
-596,269	96,778	-0,113	0,095
-595,255	-200,000	-0,011	-0,082
-594,240	-125,982	-0,158	0,017
-593,225	8,296	-0,074	-0,041
-592,211	-31,307	-0,144	-0,059
-591,196	-146,748	-0,032	0,002
-590,182	800,000	0,013	0,039
-589,167	70,489	-0,091	0,069
-588,152	-200,000	-0,021	0,100
-587,138	30,221	-0,035	-0,022
-586,123	294,137	-0,081	-0,109
-585,109	379,519	-0,066	-0,099
-584,094	129,050	0,082	-0,077
-583,079	151,490	0,099	0,099
-582,065	-200,000	0,020	0,133
-581,050	800,000	-0,063	0,163
-580,036	-107,174	-0,050	-0,008
-579,021	-154,776	-0,051	-0,002
-578,006	-23,149	-0,026	0,011
-576,992	318,268	0,100	0,139
-575,977	94,025	0,103	-0,085
-574,963	-200,000	0,010	-0,082
-573,948	-120,752	0,162	-0,020
-572,934	-46,185	0,069	0,025
-571,919	140,966	-0,046	0,044
-570,904	-200,000	0,007	0,059
-569,890	800,000	-0,035	-0,096
-568,875	-16,338	0,093	0,043
-567,861	223,501	0,081	0,096
-566,846	100,022	-0,020	-0,017
-565,831	-200,000	0,016	0,092
-564,817	-24,409	-0,173	0,075
-563,802	-120,625	-0,050	0,006
-562,788	-30,481	-0,082	0,034
-561,773	-46,756	0,087	0,031
-560,758	-114,999	-0,106	-0,015
-559,744	-83,523	-0,124	-0,029
-558,729	-200,000	0,003	-0,047
-557,715	-90,316	-0,093	-0,020
-556,700	281,490	-0,031	-0,041
-555,685	-200,000	0,013	0,081
-554,671	447,663	-0,060	0,097
-553,656	800,000	-0,035	0,092
-552,642	779,988	-0,013	-0,027
-551,627	287,319	0,090	-0,120
-550,612	138,101	0,057	0,055
-549,598	-200,000	0,027	0,093
-548,583	800,000	-0,051	-0,156
-547,569	-58,728	0,150	-0,047
-546,554	114,637	0,096	0,086
-545,539	631,071	0,045	0,083
-544,525	172,373	0,063	-0,066
-543,510	5,240	-0,049	0,026
-542,496	-82,079	0,053	-0,013
-541,481	-200,000	0,013	-0,085
-540,466	-200,000	0,019	0,089
-539,452	62,562	-0,062	0,045
-538,437	800,000	0,049	0,125
-537,423	800,000	-0,087	0,201
-536,408	232,925	-0,037	0,045
-535,393	-119,069	0,160	-0,020
-534,379	-200,000	0,003	0,010
-533,364	-63,662	-0,085	0,025
-532,350	-200,000	0,021	0,095
-531,335	800,000	0,034	-0,094
-530,321	-167,341	0,018	-0,001
-529,306	-200,000	0,052	0,170
-528,291	-134,866	0,149	-0,013
-527,277	106,977	0,048	0,042
-526,262	-200,000	0,003	0,072
-525,248	-26,034	0,217	0,093
-524,233	228,763	0,064	-0,076
-523,218	169,330	0,035	0,037
-522,204	800,000	-0,031	-0,069
-521,189	-170,171	-0,093	-0,002
-520,175	-200,000	0,000	-0,034
-519,160	-54,600	-0,121	-0,040
-518,145	-64,760	-0,049	0,015
-517,131	66,637	0,089	0,066
-516,116	-200,000	-0,004	0,088
-515,102	-45,190	-0,073	-0,026
-514,087	5,715	0,031	0,017
-513,072	308,007	-0,030	-0,040
-512,058	180,029	-0,064	-0,069
-511,043	145,670	0,147	0,144
-510,029	-107,610	0,056	-0,009
-509,014	-190,701	0,110	-0,001
-507,999	800,000	-0,024	-0,062
-506,985	-165,901	-0,052	-0,002
-505,970	27,140	-0,051	-0,031
-504,956	-62,737	0,112	0,034
-503,941	-100,190	0,136	0,024
-502,926	248,344	0,027	-0,033
-501,912	-74,384	-0,050	0,013
-500,897	-200,000	-0,025	-0,084
-499,883	73,802	-0,053	-0,041
-498,868	298,079	0,070	-0,094
-497,853	55,740	0,081	-0,057
-496,839	-118,229	-0,054	-0,007
-495,824	-163,239	0,078	-0,003
-494,810	199,616	-0,044	0,050
-493,795	800,000	-0,030	-0,095
-492,781	-73,565	0,209	-0,055
-491,766	-91,286	0,018	-0,004
-490,751	-84,895	-0,216	-0,049
-489,737	137,090	0,045	-0,043
-488,722	-200,000	-0,003	-0,041
-487,708	311,428	-0,034	0,047
-486,693	800,000	0,035	0,087
-485,678	-96,502	-0,065	-0,012
-484,664	-200,000	0,012	-0,043
-483,649	-1,436	0,049	0,025
-482,635	800,000	-0,021	-0,061
-481,620	-200,000	-0,011	0,059
-480,605	800,000	-0,038	0,094
-479,591	-20,525	0,095	-0,043
-478,576	212,867	0,015	0,018
-477,562	375,000	-0,048	0,072
-476,547	716,125	-0,049	0,095
-475,532	377,853	-0,020	0,030
-474,518	-200,000	0,012	-0,091
-473,503	-31,961	0,070	0,028
-472,489	-200,000	0,035	0,191
-471,474	209,070	0,042	0,048
-470,459	562,632	0,009	0,016
-469,445	-161,364	0,069	-0,003
-468,430	55,195	-0,096	0,068
-467,416	-200,000	0,000	-0,057
-466,401	-59,459	0,166	0,052
-465,386	-200,000	-0,019	0,104
-464,372	800,000	0,071	-0,192
-463,357	-83,287	0,030	-0,007
-462,343	800,000	-0,058	-0,125
-461,328	-76,271	0,075	-0,019
-460,313	-200,000	-0,023	-0,168
-459,299	16,059	-0,024	0,014
-458,284	-5,851	0,090	0,045
-457,270	-194,516	-0,090	-0,001
-456,255	800,000	-0,060	-0,123
-455,241	223,001	0,054	0,064
-454,226	800,000	-0,041	-0,118
-453,211	-89,852	0,036	-0,008
-452,197	-200,000	-0,005	-0,033
-451,182	239,819	0,098	0,119
-450,168	-43,530	-0,089	0,033
-449,153	-200,000	0,014	0,062
-448,138	74,220	-0,094	-0,072
-447,124	782,259	-0,057	0,115
-446,109	391,093	0,026	0,039
-445,095	-200,000	0,004	-0,093
-444,080	-127,353	-0,096	0,010
-443,065	-150,813	0,024	0,001
-442,051	519,732	0,049	-0,085
-441,036	-200,000	0,001	0,030
-440,022	-6,504	0,098	-0,048
-439,007	593,179	-0,038	0,069
-437,992	-200,000	0,012	0,045
-436,978	-127,456	0,083	-0,009
-435,963	-118,876	-0,034	0,004
-434,949	-200,000	0,015	-0,166
-433,934	-112,121	0,115	-0,017
-432,919	-200,000	-0,025	0,112
-431,905	-42,675	-0,067	0,025
-430,890	214,989	0,035	-0,040
-429,876	-200,000	0,001	-0,007
-428,861	-200,000	-0,014	0,107
-427,846	336,341	0,011	0,015
-426,832	74,947	0,085	-0,066
-425,817	-62,659	-0,062	-0,019
-424,803	221,057	0,052	-0,061
-423,788	49,840	0,089	-0,061
-422,773	-46,498	-0,136	0,048
-421,759	800,000	0,036	0,082
-420,744	-16,645	0,100	0,046
-419,730	-89,668	-0,048	0,010
-418,715	-200,000	0,026	-0,130
-417,701	440,280	0,095	0,152
-416,686	137,060	0,096	-0,092
-415,671	-200,000	-0,007	0,050
-414,657	327,111	-0,032	0,045
-413,642	-200,000	-0,005	0,135
-412,628	31,130	-0,042	0,026
-411,613	-200,000	0,011	-0,141
-410,598	-200,000	-0,026	-0,101
-409,584	-165,089	0,049	0,002
-408,569	452,751	-0,061	0,099
-407,555	199,115	0,068	-0,075
-406,540	-39,490	0,031	-0,012
-405,525	414,195	-0,067	-0,104
-404,511	800,000	-0,041	0,129
-403,496	800,000	0,033	0,081
-402,482	-52,667	0,097	-0,032
-401,467	-200,000	-0,000	0,036
-400,452	-200,000	0,022	-0,077
-399,438	-200,000	0,008	-0,032
-398,423	-97,019	0,071	-0,013
-397,409	525,023	-0,072	-0,123
-396,394	-74,552	-0,051	-0,013
-395,379	-52,163	-0,039	0,013
-394,365	19,113	0,038	0,022
-393,350	-52,651	0,013	0,004
-392,336	-113,945	-0,105	-0,015
-391,321	170,196	-0,018	0,019
-390,306	258,204	-0,091	-0,114
-389,292	-200,000	0,020	0,164
-388,277	-200,000	0,007	-0,077
-387,263	800,000	0,034	0,103
-386,248	93,441	-0,053	0,044
-385,233	18,537	-0,091	-0,053
-384,219	4,526	-0,008	-0,004
-383,204	78,398	-0,023	0,018
-382,190	8,851	-0,130	-0,071
-381,175	800,000	-0,021	-0,045
-380,160	612,009	0,020	0,037
-379,146	-37,219	0,054	-0,021
-378,131	-126,296	0,050	-0,005
-377,117	-70,249	0,109	0,030
-376,102	33,415	-0,115	0,072
-375,088	800,000	-0,044	0,122
-374,073	316,678	-0,062	-0,085
-373,058	-200,000	0,013	0,047
-372,044	467,527	0,051	0,084
-371,029	614,606	0,059	0,109
-370,015	11,879	0,095	0,053
-369,000	-38,306	-0,138	0,053
-367,985	-89,497	0,123	0,026
-366,971	-54,115	-0,042	0,014
-365,956	8,123	0,046	0,025
-364,942	137,010	0,048	0,046
-363,927	0,088	-0,122	-0,063
-362,912	-143,468	0,197	-0,013
-361,898	-200,000	-0,021	0,132
-360,883	302,638	-0,111	-0,150
-359,869	-121,725	0,206	-0,024
-358,854	371,678	-0,084	0,125
-357,839	800,000	-0,016	0,047
-356,825	-200,000	-0,028	-0,116
-355,810	365,398	0,057	-0,083
-354,796	-71,223	-0,142	0,038
-353,781	-200,000	-0,041	-0,157
-352,766	205,197	-0,103	-0,116
-351,752	-200,000	-0,031	0,155
-350,737	-200,000	0,003	0,021
-349,723	-162,162	0,087	-0,003
-348,708	221,872	-0,086	-0,101
-347,693	269,650	0,030	0,038
-346,679	603,640	-0,019	0,035
-345,664	800,000	-0,061	-0,131
-344,650	467,585	0,051	-0,083
-343,635	69,871	-0,029	-0,021
-342,620	800,000	-0,005	0,015
-341,606	493,303	-0,061	0,102
-340,591	-38,284	-0,140	-0,054
-339,577	65,881	-0,083	0,061
-338,562	193,114	-0,099	0,109
-337,548	272,857	0,087	-0,112
-336,533	626,488	0,055	0,101
-335,518	-200,000	0,014	0,051
-334,504	-82,717	-0,069	0,016
-333,489	-200,000	-0,016	-0,058
-332,475	80,360	0,082	-0,064
-331,460	-97,385	-0,177	-0,033
-330,445	-200,000	0,017	0,095
-329,431	391,612	0,082	0,124
-328,416	-65,192	0,012	-0,004
-327,402	-200,000	0,009	0,080
-326,387	392,583	0,062	0,094
-325,372	11,173	-0,114	0,063
-324,358	-200,000	-0,013	-0,061
-323,343	296,079	-0,085	-0,113
-322,329	-200,000	0,006	0,111
-321,314	356,298	0,071	0,103
-320,299	800,000	0,031	-0,079
-319,285	22,314	-0,028	0,016
-318,270	462,549	-0,024	-0,039
-317,256	-200,000	0,015	-0,096
-316,241	-200,000	-0,006	-0,118
-315,226	-200,000	0,024	0,087
-314,212	-200,000	-0,009	0,050
-313,197	15,983	0,074	0,042
-312,183	-35,461	-0,090	0,035
-311,168	-164,599	0,075	0,002
-310,153	44,964	0,083	-0,055
-309,139	800,000	-0,011	0,024
-308,124	636,254	-0,061	0,113
-307,110	392,524	-0,025	0,038
-306,095	800,000	-0,029	0,059
-305,080	180,792	-0,055	0,059
-304,066	-40,649	-0,103	0,039
-303,051	-108,005	-0,085	0,013
-302,037	-109,921	0,057	-0,009
-301,022	-200,000	-0,013	-0,134
-300,008	-92,430	0,131	0,026
-298,993	-200,000	-0,039	0,164
-297,978	331,287	0,039	-0,055
-296,964	-48,054	0,083	-0,029
-295,949	-30,058	0,046	-0,019
-294,935	-200,000	-0,012	-0,104
-293,920	10,071	-0,051	0,028
-292,905	-200,000	0,060	0,199
-291,891	306,300	0,088	0,119
-290,876	38,238	0,087	-0,056
-289,862	800,000	-0,019	-0,056
-288,847	-200,000	-0,001	0,073
-287,832	-41,668	-0,183	0,068
-286,818	109,934	0,113	-0,098
-285,803	-38,524	-0,114	0,044
-284,789	172,505	0,040	-0,042
-283,774	214,817	-0,005	-0,005
-282,759	-18,804	-0,072	0,033
-281,745	1,045	-0,036	-0,019
-280,730	-200,000	-0,020	-0,213
-279,716	-142,223	-0,092	0,007
-278,701	46,036	0,070	0,047
-277,686	118,572	0,095	0,085
-276,672	57,295	-0,042	0,030
-275,657	327,651	-0,078	0,109
-274,643	-200,000	0,012	-0,133
-273,628	76,365	0,020	0,015
-272,613	-200,000	-0,024	-0,128
-271,599	-200,000	-0,002	-0,058
-270,584	800,000	-0,035	-0,094
-269,570	-151,103	0,040	-0,002
-268,555	-200,000	-0,021	0,089
-267,540	70,831	-0,077	-0,058
-266,526	-200,000	0,000	-0,026
-265,511	16,535	0,057	-0,032
-264,497	292,364	0,088	-0,116
-263,482	-200,000	0,017	0,076
-262,467	25,711	0,098	0,059
-261,453	-2,613	0,130	-0,066
-260,438	-117,334	0,046	-0,006
-259,424	-200,000	-0,003	-0,079
-258,409	800,000	0,015	-0,039
-257,395	-200,000	-0,011	-0,083
-256,380	160,856	0,069	-0,069
-255,365	472,036	0,054	0,088
-254,351	-90,315	-0,068	0,014
-253,336	-96,123	-0,118	0,022
-252,322	-37,143	0,037	0,014
-251,307	-53,413	-0,150	-0,049
-250,292	210,769	0,049	-0,055
-249,278	-76,209	-0,029	-0,007
-248,263	124,389	0,030	0,027
-247,249	483,106	0,050	0,083
-246,234	-97,109	-0,058	0,011
-245,219	39,476	0,055	-0,035
-244,205	63,118	0,120	0,087
-243,190	-45,345	0,185	0,066
-242,176	-200,000	0,018	-0,092
-241,161	-76,481	0,145	-0,037
-240,146	-200,000	0,000	-0,135
-239,132	-82,925	-0,124	0,029
-238,117	800,000	-0,067	-0,157
-237,103	28,524	0,117	0,071
-236,088	-145,882	0,113	0,007
-235,073	133,160	-0,033	0,031
-234,059	141,750	0,049	-0,047
-233,044	800,000	-0,036	0,083
-232,030	10,103	-0,040	-0,022
-231,015	136,318	-0,076	0,072
-230,000	-131,737	-0,060	-0,006
-228,986	-200,000	-0,024	-0,155
-227,971	-23,798	0,105	0,045
-226,957	34,360	-0,043	0,027
-225,942	216,710	-0,029	-0,034
-224,927	-200,000	0,004	0,014
-223,913	622,748	-0,051	0,094
-222,898	-200,000	0,018	-0,142
-221,884	-14,715	-0,073	0,034
-220,869	75,394	0,073	-0,056
-219,855	800,000	-0,042	-0,122
-218,840	800,000	-0,029	-0,069
-217,825	208,033	0,059	0,066
-216,811	494,879	0,038	0,063
-215,796	-57,235	-0,087	0,027
-214,782	239,846	0,050	0,060
-213,767	-76,986	0,025	-0,006
-212,752	-49,631	0,142	-0,049
-211,738	-200,000	-0,035	-0,125
-210,723	25,127	-0,055	-0,033
-209,709	800,000	-0,062	-0,152
-208,694	-200,000	0,005	-0,021
-207,679	-200,000	-0,027	-0,143
-206,665	-200,000	0,053	-0,198
-205,650	-115,120	0,188	0,025
-204,636	66,349	-0,120	0,088
-203,621	218,699	0,034	0,039
-202,606	-170,565	0,058	0,001
-201,592	80,078	-0,096	0,075
-200,577	232,276	0,021	-0,025
-199,563	66,079	0,052	0,038
-198,548	297,889	0,068	-0,090
-197,533	-200,000	0,024	0,080
-196,519	-12,883	0,056	-0,026
-195,504	800,000	-0,030	-0,076
-194,490	-48,500	-0,091	-0,032
-193,475	175,369	-0,092	-0,096
-192,460	191,606	0,088	-0,096
-191,446	-200,000	-0,006	0,075
-190,431	-99,609	0,168	-0,030
-189,417	-71,278	-0,088	-0,024
-188,402	17,424	-0,026	-0,015
-187,387	-200,000	0,021	-0,129
-186,373	-200,000	0,007	-0,030
-185,358	-125,917	-0,245	0,026
-184,344	800,000	0,050	0,101
-183,329	-113,947	0,073	-0,010
-182,315	73,218	0,057	0,043
-181,300	78,173	0,007	0,005
-180,285	-39,564	-0,071	-0,027
-179,271	-40,042	0,082	0,031
-178,256	-12,068	-0,151	-0,071
-177,242	443,880	-0,057	-0,090
-176,227	489,602	-0,028	-0,046
-175,212	187,551	0,055	0,060
-174,198	-200,000	0,001	0,028
-173,183	-200,000	-0,016	-0,118
-172,169	-58,043	0,119	0,037
-171,154	-126,750	-0,055	0,006
-170,139	-127,415	0,232	-0,024
-169,125	-200,000	-0,005	0,092
-168,110	151,744	0,139	0,137
-167,096	-200,000	0,021	0,124
-166,081	-78,494	-0,039	0,010
-165,066	344,792	0,082	-0,117
-164,052	407,418	-0,025	-0,038
-163,037	-80,540	-0,139	-0,033
-162,023	79,384	0,082	0,063
-161,008	64,813	-0,095	-0,069
-159,993	-120,562	0,208	-0,025
-158,979	99,406	0,013	-0,011
-157,964	-88,026	-0,130	-0,028
-156,950	587,473	0,017	-0,030
-155,935	800,000	0,034	-0,103
-154,920	-122,757	-0,078	0,009
-153,906	-28,603	0,078	0,032
-152,891	-200,000	-0,023	-0,075
-151,877	-200,000	0,007	-0,025
-150,862	-31,149	0,106	-0,043
-149,847	-135,051	-0,175	-0,015
-148,833	221,632	-0,052	-0,060
-147,818	-53,762	0,195	0,064
-146,804	-200,000	0,007	0,049
-145,789	212,771	-0,061	0,069
-144,775	1,106	-0,056	0,029
-143,760	-64,597	-0,135	-0,039
-142,745	-27,462	0,101	0,042
-141,731	84,122	-0,064	0,051
-140,716	-57,631	-0,038	0,012
-139,702	-140,343	0,129	0,010
-138,687	29,097	-0,112	-0,068
-137,672	-90,596	0,043	0,009
-136,658	410,290	0,044	-0,068
-135,643	-200,000	-0,007	-0,120
-134,629	-200,000	-0,002	-0,025
-133,614	-46,842	0,079	0,028
-132,599	-39,544	0,122	0,046
-131,585	-102,547	-0,138	-0,024
-130,570	41,808	0,050	0,033
-129,556	9,482	0,051	0,028
-128,541	-9,345	-0,021	-0,010
-127,526	184,594	0,063	-0,068
-126,512	390,315	-0,031	0,047
-125,497	640,287	-0,032	0,059
-124,483	800,000	0,028	0,072
-123,468	-200,000	0,031	-0,120
-122,453	40,329	-0,156	-0,101
-121,439	73,426	-0,027	-0,021
-120,424	800,000	0,016	-0,045
-119,410	-65,791	0,056	0,016
-118,395	1,880	-0,070	-0,036
-117,380	-86,038	0,062	-0,014
-116,366	80,558	-0,048	-0,037
-115,351	-33,180	0,068	0,027
-114,337	98,226	-0,019	0,016
-113,322	17,952	0,089	-0,051
-112,307	-154,864	0,066	-0,003
-111,293	163,245	-0,026	0,026
-110,278	-107,052	0,070	-0,011
-109,264	211,860	0,069	0,078
-108,249	-200,000	-0,003	-0,083
-107,234	11,082	0,100	0,055
-106,220	-200,000	0,012	0,099
-105,205	800,000	0,050	0,131
-104,191	800,000	0,009	0,022
-103,176	480,815	0,033	-0,054
-102,162	-200,000	-0,004	0,033
-101,147	213,435	-0,055	-0,062
-100,132	800,000	-0,010	-0,031
-99,118	-200,000	-0,029	-0,105
-98,103	232,267	-0,058	0,069
-97,089	800,000	0,056	0,157
-96,074	521,206	-0,036	0,061
-95,059	37,359	-0,141	0,090
-94,045	800,000	0,022	-0,045
-93,030	127,690	0,046	0,042
-92,016	-200,000	-0,001	-0,076
-91,001	800,000	-0,018	0,054
-89,986	800,000	0,045	-0,097
-88,972	-175,037	-0,054	-0,001
-87,957	214,574	-0,033	-0,038
-86,943	390,328	0,043	-0,064
-85,928	-200,000	0,001	0,137
-84,913	-50,404	0,108	-0,037
-83,899	-165,362	-0,037	-0,001
-82,884	-200,000	-0,016	-0,103
-81,870	-117,981	0,095	0,012
-80,855	95,399	0,082	-0,067
-79,840	187,078	-0,052	0,055
-78,826	658,242	0,052	0,096
-77,811	800,000	-0,045	0,096
-76,797	-200,000	0,009	0,111
-75,782	-75,861	0,075	-0,019
-74,767	114,447	0,056	-0,049
-73,753	800,000	-0,016	-0,043
-72,738	-200,000	-0,003	0,045
-71,724	574,611	-0,087	-0,154
-70,709	-200,000	0,001	-0,113
-69,694	208,975	-0,066	-0,074
-68,680	800,000	-0,025	-0,062
-67,665	-200,000	-0,017	0,124
-66,651	-11,830	-0,042	0,020
-65,636	209,442	-0,074	0,084
-64,622	-35,005	-0,119	-0,046
-63,607	-36,066	-0,037	-0,014
-62,592	-97,801	0,157	0,029
-61,578	7,686	-0,189	0,101
-60,563	-200,000	0,052	0,172
-59,549	73,942	-0,133	0,100
-58,534	84,184	-2,768	-2,170
-57,519	168,327	0,316	-0,323
-56,505	-200,000	-1,713	-5,509
-55,490	357,417	1,332	1,913
-54,476	800,000	5,049	11,240
-53,461	-200,000	22,541	348,997
-52,446	800,000	761,184	2288,870
-51,432	510,062	1644,216	2755,149
-50,417	96,170	1605,714	1317,123
-49,403	64,126	1263,073	911,170
-48,388	22,551	1015,838	595,117
-47,373	19,439	983,344	565,809
-46,359	12,775	970,227	536,477
-45,344	8,438	966,944	520,455
-44,330	8,914	964,840	520,858
-43,315	7,898	963,328	516,704
-42,300	7,831	962,162	515,841
-41,286	7,833	960,959	515,182
-40,271	7,758	960,365	514,598
-39,257	7,787	959,285	514,093
-38,242	7,759	958,420	513,519
-37,227	7,791	957,492	513,104
-36,213	7,761	956,733	512,581
-35,198	7,693	956,044	511,971
-34,184	7,805	955,189	511,855
-33,169	7,779	954,201	511,220
-32,154	7,800	953,273	510,770
-31,140	7,816	952,538	510,409
-30,125	7,849	951,641	510,014
-29,111	7,764	950,880	509,313
-28,096	7,845	950,176	509,176
-27,082	7,806	949,612	508,729
-26,067	7,834	948,796	508,359
-25,052	7,746	948,136	507,705
-24,038	7,790	947,164	507,306
-23,023	7,763	946,768	506,986
-22,009	7,801	946,274	506,821
-20,994	7,738	945,841	506,370
-19,979	7,840	944,861	506,151
-18,965	7,759	944,326	505,585
-17,950	7,762	943,672	505,225
-16,936	7,721	942,997	504,712
-15,921	7,741	942,254	504,357
-14,906	7,654	941,601	503,710
-13,892	7,727	940,887	503,542
-12,877	7,690	940,442	503,166
-11,863	7,627	939,783	502,594
-10,848	7,591	939,353	502,227
-9,833	7,759	938,899	502,499
-8,819	7,750	937,898	501,914
-7,804	7,666	937,331	501,324
-6,790	7,690	936,632	501,006
-5,775	7,748	936,172	500,924
-4,760	7,691	935,851	500,554
-3,746	7,694	935,040	500,110
-2,731	7,545	934,352	499,250
-1,717	7,533	933,770	498,882
-0,702	7,562	933,039	498,562
0,313	7,356	932,433	498,341
1,327	10,803	930,051	507,878
2,342	19,470	777,938	447,479
3,356	14,476	446,201	249,147
4,371	-12,017	310,932	145,574
5,386	-15,814	293,598	133,623
6,400	-17,878	287,285	128,704
7,415	-17,916	284,599	127,451
8,429	-18,611	283,015	126,056
9,444	-18,730	282,143	125,541
10,459	-18,635	281,533	125,350
11,473	-18,705	280,862	124,973
12,488	-18,542	280,453	124,937
13,502	-18,569	279,958	124,679
14,517	-18,589	279,643	124,508
15,531	-18,559	279,078	124,275
16,546	-18,303	278,696	124,338
17,561	-18,444	278,283	124,009
18,575	-18,484	278,083	123,870
19,590	-18,473	277,760	123,725
20,604	-18,319	277,318	123,663
21,619	-18,502	277,044	123,357
22,634	-18,366	276,601	123,277
23,648	-18,412	276,293	123,086
24,663	-18,254	276,187	123,177
25,677	-18,469	275,933	122,850
26,692	-18,496	275,644	122,684
27,707	-18,432	275,356	122,605
28,721	-18,269	274,971	122,577
29,736	-18,339	274,680	122,370
30,750	-18,361	274,471	122,246
31,765	-18,284	274,149	122,163
32,780	-18,410	273,861	121,906
33,794	-18,356	273,738	121,891
34,809	-18,292	273,556	121,859
35,823	-18,380	273,321	121,662
36,838	-18,368	272,936	121,490
37,853	-18,309	272,741	121,447
38,867	-18,345	272,426	121,263
39,882	-18,271	272,274	121,253
40,896	-18,371	272,069	121,058
41,911	-18,230	271,690	121,009
42,926	-18,203	271,381	120,887
43,940	-18,326	271,165	120,666
44,955	-18,218	271,042	120,700
45,969	-18,214	270,857	120,611
46,984	-18,211	270,845	120,597
47,999	-18,323	270,411	120,290
49,013	-18,108	270,239	120,401
50,028	-18,130	270,017	120,271
51,042	-18,231	269,897	120,114
52,057	-18,253	269,666	119,980
53,071	-18,103	269,218	119,908
54,086	-18,199	269,184	119,794
55,101	-18,014	268,813	119,788
56,115	-18,252	268,624	119,475
57,130	-18,328	268,485	119,333
58,144	-18,504	268,144	119,009
59,159	-18,331	267,820	119,013
60,174	-18,313	267,605	118,923
61,188	-18,399	267,474	118,776
62,203	-18,300	267,049	118,667
63,217	-18,431	266,958	118,497
64,232	-18,358	266,689	118,433
65,247	-18,424	266,520	118,287
66,261	-18,286	266,288	118,300
67,276	-18,319	266,031	118,145
68,290	-18,254	265,729	118,058
69,305	-18,293	265,809	118,048
70,320	-18,278	265,360	117,852
71,334	-18,135	265,196	117,898
72,349	-18,227	264,895	117,670
73,363	-18,287	264,603	117,476
74,378	-18,454	264,422	117,235
75,393	-18,281	264,204	117,284
76,407	-18,241	264,004	117,221
77,422	-18,311	263,758	117,038
78,436	-18,300	263,405	116,880
79,451	-18,368	263,409	116,811
80,466	-18,369	263,054	116,642
81,480	-18,243	262,939	116,694
82,495	-18,092	262,700	116,712
83,509	-18,304	262,507	116,427
84,524	-18,076	262,271	116,515
85,539	-18,049	262,147	116,474
86,553	-18,241	262,018	116,235
87,568	-18,287	261,589	115,993
88,582	-18,200	261,472	116,009
89,597	-18,114	261,252	115,977
90,611	-18,259	260,961	115,709
91,626	-18,038	260,817	115,831
92,641	-18,253	260,686	115,571
93,655	-18,126	260,445	115,567
94,670	-18,186	260,086	115,345
95,684	-18,366	260,060	115,163
96,699	-18,277	259,710	115,076
97,714	-18,165	259,552	115,095
98,728	-18,353	259,429	114,865
99,743	-18,128	259,374	115,028
100,757	-18,108	259,010	114,874
101,772	-18,199	258,950	114,757
102,787	-18,285	258,499	114,472
103,801	-18,153	258,295	114,487
104,816	-18,241	258,247	114,378
105,830	-18,200	257,979	114,285
106,845	-18,157	257,795	114,232
107,860	-18,284	257,557	114,004
108,874	-18,298	257,489	113,952
109,889	-18,129	257,091	113,913
110,903	-18,151	256,788	113,750
111,918	-18,243	256,749	113,642
112,933	-18,159	256,409	113,555
113,947	-18,160	256,392	113,536
114,962	-18,314	256,186	113,300
115,976	-18,335	256,011	113,195
116,991	-18,207	255,810	113,207
118,006	-18,059	255,328	113,112
119,020	-18,158	255,335	113,019
120,035	-18,216	255,208	112,903
121,049	-18,168	254,896	112,796
122,064	-18,066	254,799	112,831
123,079	-18,201	254,499	112,572
124,093	-18,022	254,441	112,691
125,108	-18,322	254,341	112,377
126,122	-18,068	253,991	112,431
127,137	-18,096	253,847	112,333
128,151	-17,986	253,682	112,346
129,166	-18,248	253,390	111,981
130,181	-18,026	253,236	112,093
131,195	-18,224	253,117	111,861
132,210	-17,962	252,596	111,846
133,224	-18,061	252,598	111,752
134,239	-18,191	252,555	111,611
135,254	-18,491	252,302	111,232
136,268	-18,010	251,926	111,468
137,283	-18,023	251,952	111,458
138,297	-18,104	251,653	111,247
139,312	-18,163	251,451	111,098
140,327	-17,970	251,109	111,101
141,341	-18,064	251,033	110,977
142,356	-18,419	250,767	110,548
143,370	-18,105	250,608	110,735
144,385	-18,300	250,496	110,510
145,400	-18,120	250,114	110,484
146,414	-18,267	250,159	110,370
147,429	-18,141	249,977	110,386
148,443	-18,171	249,755	110,253
149,458	-18,233	249,532	110,092
150,473	-18,118	249,351	110,099
151,487	-17,989	248,994	110,040
152,502	-18,299	248,920	109,737
153,516	-18,251	248,794	109,712
154,531	-18,094	248,607	109,752
155,546	-18,146	248,368	109,592
156,560	-18,115	248,271	109,567
157,575	-18,166	247,936	109,366
158,589	-18,215	247,854	109,279
159,604	-18,083	247,533	109,238
160,619	-18,044	247,300	109,158
161,633	-18,070	247,174	109,071
162,648	-18,116	247,292	109,075
163,662	-18,223	247,030	108,860
164,677	-18,143	246,862	108,844
165,692	-18,042	246,470	108,745
166,706	-18,166	246,380	108,593
167,721	-18,245	246,306	108,484
168,735	-18,273	246,224	108,415
169,750	-18,237	245,844	108,268
170,764	-18,324	245,824	108,177
171,779	-18,104	245,683	108,289
172,794	-18,029	245,410	108,220
173,808	-17,913	245,331	108,272
174,823	-18,052	245,102	108,047
175,837	-18,069	245,033	107,992
176,852	-18,195	244,756	107,756
177,867	-18,110	244,609	107,752
178,881	-18,158	244,482	107,647
179,896	-18,211	244,219	107,478
180,910	-18,115	244,082	107,487
181,925	-18,161	243,754	107,296
182,940	-18,099	243,604	107,271
183,954	-18,189	243,466	107,127
184,969	-18,233	243,407	107,055
185,983	-18,156	243,184	107,010
186,998	-18,059	242,856	106,936
188,013	-18,064	242,819	106,906
189,027	-18,225	242,601	106,668
190,042	-18,227	242,319	106,533
191,056	-18,387	242,258	106,366
192,071	-18,155	242,007	106,436
193,086	-18,108	241,733	106,345
194,100	-18,087	241,695	106,336
195,115	-18,078	241,413	106,209
196,129	-18,401	241,211	105,848
197,144	-18,434	241,146	105,783
198,159	-18,237	240,889	105,821
199,173	-18,210	240,899	105,838
200,188	-18,189	240,669	105,745
201,202	-18,095	240,467	105,723
202,217	-17,943	240,185	105,712
203,232	-17,971	240,036	105,615
204,246	-18,045	239,796	105,440
205,261	-18,074	239,672	105,353
206,275	-16,803	240,019	106,524
207,290	-12,376	241,734	110,882
208,304	-6,027	243,866	117,056
209,319	-2,154	244,576	120,564
210,334	-0,986	244,967	121,704
211,348	-0,164	245,076	122,422
212,363	0,196	245,232	122,783
213,377	0,367	244,984	122,789
214,392	0,716	244,980	123,062
215,407	0,821	244,902	123,098
216,421	1,064	244,756	123,212
217,436	1,031	244,768	123,180
218,450	1,080	244,356	123,002
219,465	1,232	244,399	123,136
220,480	1,135	244,330	123,012
221,494	1,196	244,065	122,917
222,509	0,928	243,701	122,504
223,523	0,593	243,595	122,168
224,538	0,456	243,377	121,936
225,553	0,264	243,111	121,636
226,567	0,593	242,858	121,765
227,582	0,486	242,877	121,677
228,596	0,466	242,655	121,539
229,611	0,516	242,534	121,508
230,626	0,156	242,526	121,202
231,640	0,242	242,105	121,050
232,655	0,376	241,895	121,042
233,669	0,424	241,896	121,071
234,684	0,357	241,510	120,813
235,699	0,343	241,609	120,840
236,713	0,610	241,400	120,940
237,728	0,525	241,164	120,743
238,742	0,511	241,094	120,685
239,757	0,683	240,769	120,650
240,772	0,567	240,674	120,499
241,786	0,513	240,515	120,365
242,801	0,266	240,389	120,093
243,815	0,528	240,256	120,226
244,830	0,332	240,188	120,025
245,844	0,390	240,004	119,968
246,859	0,447	239,674	119,838
247,874	0,465	239,628	119,819
248,888	0,470	239,515	119,756
249,903	0,445	239,341	119,638
250,917	0,310	239,429	119,563
251,932	0,592	239,091	119,609
252,947	0,596	238,817	119,464
253,961	0,706	238,614	119,440
254,976	0,440	238,634	119,228
255,990	0,578	238,421	119,220
257,005	0,605	238,308	119,174
258,020	0,738	238,079	119,154
259,034	0,746	237,862	119,042
260,049	0,606	237,705	118,842
261,063	0,424	237,658	118,663
262,078	0,603	237,415	118,673
263,093	0,474	237,349	118,528
264,107	0,267	237,173	118,265
265,122	0,508	236,981	118,349
266,136	0,458	236,885	118,251
267,151	0,400	236,753	118,130
268,166	0,361	236,655	118,039
269,180	0,378	236,199	117,815
270,195	0,498	236,270	117,934
271,209	0,548	236,111	117,883
272,224	0,399	235,931	117,666
273,239	0,465	235,707	117,596
274,253	0,355	235,587	117,439
275,268	0,323	235,487	117,354
276,282	0,515	235,204	117,353
277,297	0,571	235,143	117,355
278,312	0,685	234,950	117,338
279,326	0,629	234,939	117,278
280,341	0,464	234,783	117,061
281,355	0,479	234,569	116,955
282,370	0,463	234,595	116,945
283,384	0,580	234,281	116,869
284,399	0,624	234,136	116,821
285,414	0,499	234,048	116,669
286,428	0,607	233,876	116,657
287,443	0,459	233,751	116,469
288,457	0,458	233,609	116,387
289,472	0,614	233,367	116,377
290,487	0,680	233,242	116,356
291,501	0,554	232,997	116,126
292,516	0,731	232,871	116,189
293,530	0,582	232,842	116,050
294,545	0,679	232,725	116,056
295,560	0,862	232,446	116,048
296,574	0,667	232,443	115,885
297,589	0,663	232,158	115,730
298,603	0,707	232,015	115,682
299,618	0,784	231,852	115,650
300,633	0,715	231,845	115,582
301,647	0,790	231,731	115,573
302,662	0,916	231,465	115,527
303,676	0,788	231,507	115,439
304,691	0,632	231,355	115,233
305,706	0,803	231,100	115,227
306,720	0,770	230,940	115,112
307,735	0,679	230,861	114,993
308,749	0,731	230,720	114,952
309,764	0,862	230,579	114,972
310,779	0,743	230,310	114,736
311,793	0,781	230,129	114,665
312,808	0,818	230,087	114,662
313,822	0,874	229,817	114,560
314,837	0,905	229,644	114,487
315,852	0,569	229,621	114,210
316,866	0,723	229,498	114,256
317,881	0,904	229,251	114,259
318,895	1,054	228,998	114,237
319,910	0,838	228,945	114,037
320,925	0,798	228,736	113,893
321,939	0,796	228,653	113,840
322,954	0,935	228,593	113,905
323,968	0,683	228,406	113,611
324,983	0,784	228,396	113,671
325,997	0,912	228,167	113,644
327,012	0,678	228,001	113,375
328,027	0,780	227,886	113,385
329,041	0,836	227,776	113,362
330,056	0,828	227,546	113,232
331,070	0,795	227,380	113,114
332,085	0,800	227,312	113,074
333,100	0,750	227,135	112,938
334,114	0,535	226,912	112,656
335,129	1,027	226,734	112,926
336,143	0,704	226,830	112,722
337,158	0,805	226,632	112,689
338,173	0,947	226,468	112,704
339,187	0,950	226,241	112,583
340,202	1,092	226,001	112,560
341,216	1,237	225,974	112,644
342,231	0,910	225,777	112,292
343,246	0,828	225,799	112,232
344,260	1,044	225,441	112,205
345,275	0,919	225,492	112,127
346,289	0,718	225,359	111,901
347,304	0,811	225,139	111,851
348,319	1,016	225,019	111,934
349,333	0,764	224,782	111,619
350,348	0,828	224,661	111,597
351,362	1,094	224,385	111,646
352,377	1,024	224,337	111,561
353,392	0,842	224,327	111,411
354,406	0,880	224,185	111,358
355,421	191,484	1311,281	1375,052
356,435	153,317	1443,573	1374,880
