DTS Sentinel unit serial number:	SN410029Multiplexer serial number:	ORYXHardware model number:	OX2-SRSoftware version number:	ORYX F/W v4,00 Oryx Data Collector v3.7.2.0data status	okinstallation	B5 Nyhavnadifferential loss correction	single-endedforward channel	channel 2reverse channel	N/Adate	2023/12/12time	02:47:13forward acquisition time	300,00reverse acquisition time	0,00gamma	499,1914k internal	0,3156k external	0,3156temperature offset calibration	1,0000default loss term (dB/km)	0,3820temperature slope calibration	1,0000multiplexer offset coefficient	1,0000multiplexer slope coefficient	1,0000fibre end	0,00T internal ref (°C)	15,75T ext. ref 1 (°C)	-0,64T ext. ref 2 (°C)	-0,93length (m)	temperature (°C)	Stokes	anti-Stokes-744,400	-137,269	0,213	-0,018
-743,385	-104,501	-0,235	0,040
-742,371	800,000	0,068	0,182
-741,356	-97,862	-0,219	0,041
-740,342	-200,000	-0,051	0,178
-739,327	-126,418	-0,313	-0,034
-738,312	-200,000	-0,010	-0,074
-737,298	-88,249	-0,268	0,059
-736,283	-51,323	0,188	0,065
-735,269	-58,207	-0,377	0,120
-734,254	-22,776	-0,096	-0,043
-733,239	-99,711	-0,424	-0,078
-732,225	289,401	0,138	0,185
-731,210	454,557	0,049	-0,081
-730,196	24,964	-0,094	-0,057
-729,181	-104,877	0,014	-0,002
-728,167	-168,161	0,099	0,003
-727,152	238,511	-0,070	-0,086
-726,137	342,042	-0,066	-0,095
-725,123	37,313	-0,059	0,039
-724,108	10,530	-0,212	0,119
-723,094	166,518	-0,110	-0,115
-722,079	-188,467	-0,027	-0,000
-721,064	87,591	-0,090	-0,073
-720,050	-74,077	-0,073	0,019
-719,035	220,332	-0,072	-0,085
-718,021	-59,298	-0,217	-0,068
-717,006	151,673	-0,055	0,055
-715,991	-9,887	-0,111	-0,054
-714,977	-102,438	-0,126	-0,022
-713,962	-156,624	-0,027	-0,001
-712,948	-36,060	-0,086	0,034
-711,933	239,767	0,067	0,083
-710,918	-121,953	-0,095	0,011
-709,904	245,851	-0,136	-0,170
-708,889	-200,000	0,012	-0,085
-707,875	8,415	-0,020	0,011
-706,860	-174,418	-0,125	-0,003
-705,845	-123,049	0,173	-0,020
-704,831	55,169	0,065	-0,047
-703,816	-200,000	-0,015	0,178
-702,802	-200,000	-0,019	0,116
-701,787	-43,293	0,198	0,073
-700,772	90,416	-0,125	-0,103
-699,758	-200,000	0,015	-0,141
-698,743	800,000	-0,096	0,205
-697,729	800,000	-0,013	0,028
-696,714	9,096	0,082	0,045
-695,699	65,928	0,027	-0,020
-694,685	24,909	-0,075	-0,046
-693,670	-56,280	-0,094	0,030
-692,656	-200,000	0,004	-0,097
-691,641	-52,896	0,095	0,032
-690,627	732,132	0,003	-0,006
-689,612	-70,871	-0,035	0,010
-688,597	800,000	0,063	-0,142
-687,583	102,156	-0,099	-0,085
-686,568	-68,584	-0,002	-0,001
-685,554	279,251	-0,053	-0,070
-684,539	150,351	0,093	-0,093
-683,524	-200,000	-0,015	0,098
-682,510	-153,185	-0,062	-0,003
-681,495	116,413	0,075	-0,068
-680,481	71,572	0,026	-0,020
-679,466	-200,000	-0,006	-0,113
-678,451	-61,074	-0,132	-0,041
-677,437	-17,875	-0,063	-0,029
-676,422	30,947	-0,075	0,047
-675,408	-17,440	0,189	-0,087
-674,393	-200,000	-0,038	-0,232
-673,378	317,114	0,032	-0,045
-672,364	-0,304	-0,016	-0,008
-671,349	-200,000	-0,021	0,135
-670,335	800,000	0,013	0,040
-669,320	17,027	0,056	0,032
-668,305	226,005	-0,054	-0,065
-667,291	-200,000	0,001	0,081
-666,276	-106,138	0,096	-0,016
-665,262	-78,729	-0,158	-0,039
-664,247	256,948	0,099	-0,125
-663,232	665,734	0,037	0,071
-662,218	146,339	0,116	0,114
-661,203	-90,035	0,075	-0,016
-660,189	11,725	-0,131	0,074
-659,174	-200,000	-0,014	-0,123
-658,159	116,281	-0,101	-0,091
-657,145	-200,000	0,038	-0,205
-656,130	579,344	-0,034	-0,061
-655,116	153,997	0,038	0,039
-654,101	-200,000	-0,018	-0,086
-653,086	-200,000	0,003	0,083
-652,072	-81,687	-0,107	0,026
-651,057	-200,000	-0,017	-0,091
-650,043	-78,671	-0,112	-0,028
-649,028	165,273	0,073	-0,076
-648,014	-53,009	0,091	-0,030
-646,999	800,000	0,082	-0,174
-645,984	-74,962	-0,060	-0,016
-644,970	-200,000	0,005	-0,076
-643,955	-94,653	-0,111	-0,022
-642,941	-139,411	-0,080	0,006
-641,926	800,000	-0,019	0,050
-640,911	571,158	-0,022	-0,039
-639,897	-17,852	0,058	-0,027
-638,882	-200,000	-0,015	0,167
-637,868	-200,000	-0,007	0,065
-636,853	-36,472	-0,178	0,070
-635,838	228,145	-0,032	-0,039
-634,824	800,000	0,010	-0,027
-633,809	-133,292	0,057	0,005
-632,795	266,288	-0,064	0,082
-631,780	-200,000	0,045	0,198
-630,765	61,661	-0,077	-0,056
-629,751	-72,756	-0,126	-0,034
-628,736	800,000	-0,064	-0,153
-627,722	258,748	0,069	-0,087
-626,707	-112,439	0,053	-0,008
-625,692	422,578	-0,028	0,044
-624,678	-200,000	-0,021	0,108
-623,663	106,036	-0,062	0,053
-622,649	-200,000	0,016	-0,055
-621,634	800,000	-0,021	0,047
-620,619	176,828	-0,066	-0,070
-619,605	16,598	-0,026	-0,015
-618,590	-200,000	-0,021	-0,073
-617,576	85,763	0,073	-0,059
-616,561	-200,000	-0,022	0,118
-615,546	-128,894	-0,050	0,005
-614,532	8,465	-0,168	-0,093
-613,517	-82,327	-0,042	0,010
-612,503	-200,000	0,008	0,165
-611,488	34,317	0,038	-0,025
-610,474	182,639	0,056	-0,061
-609,459	607,458	-0,031	0,057
-608,444	79,339	-0,053	0,041
-607,430	-20,489	-0,057	-0,026
-606,415	800,000	0,057	-0,116
-605,401	218,248	-0,021	-0,025
-604,386	-27,078	-0,044	0,019
-603,371	-200,000	-0,013	-0,120
-602,357	-48,672	-0,139	0,049
-601,342	800,000	0,045	0,133
-600,328	-14,173	0,085	-0,040
-599,313	268,146	-0,032	-0,041
-598,298	-200,000	0,008	0,063
-597,284	-126,206	-0,095	-0,010
-596,269	236,099	-0,106	0,129
-595,255	-200,000	0,010	-0,036
-594,240	507,294	-0,021	0,036
-593,225	70,874	0,044	-0,033
-592,211	-149,329	-0,113	-0,007
-591,196	-200,000	0,001	-0,122
-590,182	800,000	0,042	0,108
-589,167	146,880	0,050	0,049
-588,152	-137,834	0,090	0,007
-587,138	800,000	-0,051	0,146
-586,123	800,000	0,051	-0,119
-585,109	121,922	-0,068	-0,062
-584,094	449,031	-0,031	-0,051
-583,079	83,805	-0,076	-0,061
-582,065	800,000	0,080	0,176
-581,050	-200,000	-0,004	0,067
-580,036	672,248	-0,083	-0,158
-579,021	-200,000	0,000	-0,136
-578,006	-98,935	-0,051	-0,009
-576,992	-46,062	0,048	-0,017
-575,977	-76,298	-0,203	-0,052
-574,963	-200,000	-0,001	-0,034
-573,948	-47,381	-0,051	0,018
-572,934	212,081	0,079	0,091
-571,919	75,409	0,056	-0,043
-570,904	-97,266	-0,066	0,013
-569,890	-8,724	-0,035	0,017
-568,875	8,199	-0,028	0,015
-567,861	-11,691	0,050	0,024
-566,846	31,282	-0,089	0,056
-565,831	612,537	0,060	-0,111
-564,817	-172,716	0,091	0,002
-563,802	-200,000	-0,048	-0,166
-562,788	-200,000	0,013	-0,139
-561,773	-137,177	0,111	-0,009
-560,758	-100,735	-0,078	0,014
-559,744	323,949	0,061	0,085
-558,729	758,557	-0,035	-0,071
-557,715	-200,000	-0,012	0,073
-556,700	-200,000	-0,003	-0,147
-555,685	344,597	0,058	0,084
-554,671	-200,000	0,016	0,054
-553,656	-71,269	-0,065	-0,018
-552,642	249,265	0,034	0,042
-551,627	800,000	-0,021	0,067
-550,612	-11,484	0,027	0,013
-549,598	-200,000	0,002	-0,105
-548,583	-200,000	-0,017	0,088
-547,569	162,157	0,067	-0,069
-546,554	-200,000	-0,023	-0,149
-545,539	800,000	-0,044	0,094
-544,525	-175,455	0,033	0,001
-543,510	-39,726	0,023	-0,009
-542,496	69,072	-0,120	-0,090
-541,481	800,000	0,027	0,064
-540,466	-149,915	0,092	0,005
-539,452	159,399	-0,037	0,038
-538,437	282,131	0,028	-0,036
-537,423	-200,000	-0,001	0,072
-536,408	-200,000	-0,042	-0,168
-535,393	68,266	0,043	-0,032
-534,379	-102,830	0,133	-0,023
-533,364	260,189	-0,035	0,044
-532,350	-176,974	-0,096	-0,002
-531,335	20,741	0,111	-0,066
-530,321	187,504	0,017	-0,019
-529,306	49,163	-0,138	-0,095
-528,291	81,104	-0,142	-0,112
-527,277	163,788	0,030	-0,031
-526,262	88,039	0,070	0,057
-525,248	-200,000	-0,005	-0,102
-524,233	-94,950	-0,042	0,008
-523,218	-8,904	0,101	0,049
-522,204	109,651	-0,035	-0,030
-521,189	800,000	0,041	-0,089
-520,175	423,781	-0,023	-0,036
-519,160	221,360	0,036	-0,042
-518,145	-200,000	-0,005	-0,070
-517,131	-22,463	-0,029	0,013
-516,116	-118,358	-0,107	-0,014
-515,102	-159,301	0,066	0,003
-514,087	-155,173	0,090	0,004
-513,072	-200,000	-0,019	-0,147
-512,058	-200,000	-0,009	-0,050
-511,043	-89,329	0,100	-0,021
-510,029	254,440	0,043	0,053
-509,014	-200,000	0,014	-0,059
-507,999	642,632	0,067	0,125
-506,985	-35,477	-0,041	-0,016
-505,970	-97,045	0,114	-0,022
-504,956	-200,000	0,007	0,033
-503,941	-200,000	0,029	-0,097
-502,926	281,350	0,036	-0,048
-501,912	208,232	0,028	-0,032
-500,897	800,000	0,013	-0,029
-499,883	-40,868	-0,063	-0,024
-498,868	50,843	-0,134	-0,092
-497,853	800,000	-0,011	0,026
-496,839	332,524	-0,021	-0,030
-495,824	13,844	-0,067	0,038
-494,810	429,711	-0,022	-0,035
-493,795	-51,453	-0,098	0,033
-492,781	259,636	0,060	-0,076
-491,766	-106,414	-0,097	0,016
-490,751	246,470	0,039	-0,049
-489,737	-108,184	-0,054	0,008
-488,722	-7,244	-0,086	0,043
-487,708	-200,000	-0,002	0,087
-486,693	-147,017	-0,059	0,004
-485,678	-0,317	0,046	0,024
-484,664	-120,807	-0,139	0,017
-483,649	-200,000	0,008	-0,075
-482,635	78,733	0,034	0,026
-481,620	-56,959	0,174	-0,056
-480,605	220,766	-0,062	-0,073
-479,591	53,783	0,106	-0,074
-478,576	-78,877	0,024	-0,006
-477,562	283,044	0,013	0,017
-476,547	161,817	-0,104	-0,106
-475,532	-25,668	0,099	-0,042
-474,518	-200,000	0,004	-0,013
-473,503	800,000	-0,070	0,173
-472,489	594,265	0,016	0,030
-471,474	99,397	0,115	0,097
-470,459	-200,000	-0,043	-0,180
-469,445	-117,921	-0,052	-0,007
-468,430	-63,164	0,100	0,030
-467,416	164,230	0,137	-0,141
-466,401	800,000	-0,017	0,045
-465,386	205,138	0,074	-0,084
-464,372	-149,033	-0,072	-0,004
-463,357	204,964	-0,066	-0,074
-462,343	568,997	-0,060	-0,107
-461,328	-200,000	-0,021	-0,083
-460,313	-200,000	-0,003	-0,027
-459,299	800,000	0,018	0,043
-458,284	182,258	-0,030	-0,032
-457,270	-200,000	0,071	0,000
-456,255	103,716	0,014	-0,012
-455,241	-38,522	0,101	-0,039
-454,226	381,365	-0,019	-0,029
-453,211	-200,000	0,001	-0,012
-452,197	45,889	-0,097	-0,065
-451,182	141,451	0,052	0,050
-450,168	-200,000	0,012	-0,075
-449,153	800,000	-0,027	-0,066
-448,138	-54,591	0,027	-0,009
-447,124	-169,348	0,156	0,004
-446,109	-200,000	-0,015	-0,051
-445,095	127,265	0,081	-0,075
-444,080	800,000	0,031	-0,081
-443,065	10,621	0,041	-0,022
-442,051	27,357	-0,058	-0,036
-441,036	-142,026	0,091	-0,006
-440,022	-200,000	0,029	-0,122
-439,007	800,000	0,014	-0,034
-437,992	457,283	-0,050	0,081
-436,978	-200,000	0,049	-0,162
-435,963	3,483	-0,052	-0,027
-434,949	-76,152	0,039	-0,010
-433,934	-26,924	-0,130	0,055
-432,919	-13,334	0,047	0,022
-431,905	-13,206	0,036	-0,017
-430,890	700,874	-0,052	0,101
-429,876	134,156	0,038	-0,036
-428,861	-200,000	-0,031	0,147
-427,846	452,544	0,041	0,067
-426,832	95,184	-0,030	0,025
-425,817	82,801	0,073	-0,058
-424,803	-78,950	0,097	0,024
-423,788	800,000	-0,023	-0,065
-422,773	-200,000	-0,018	0,077
-421,759	-128,302	-0,050	0,005
-420,744	-99,847	-0,059	0,011
-419,730	800,000	-0,014	0,033
-418,715	-133,014	-0,067	0,006
-417,701	-200,000	0,012	-0,248
-416,686	-121,330	0,058	-0,007
-415,671	-200,000	-0,020	0,070
-414,657	24,365	0,097	0,058
-413,642	-53,097	-0,098	0,033
-412,628	-200,000	-0,005	-0,071
-411,613	161,441	-0,062	-0,063
-410,598	142,845	0,062	-0,060
-409,584	-126,976	-0,045	0,005
-408,569	800,000	0,021	0,047
-407,555	48,569	0,062	0,042
-406,540	-200,000	0,027	0,127
-405,525	-61,212	-0,021	-0,006
-404,511	-200,000	0,014	0,047
-403,496	97,087	-0,068	0,056
-402,482	44,943	0,099	0,066
-401,467	369,758	0,032	-0,047
-400,452	-200,000	-0,027	-0,088
-399,438	-59,360	0,104	0,032
-398,423	-200,000	-0,019	-0,098
-397,409	29,253	0,074	0,046
-396,394	800,000	-0,034	-0,097
-395,379	228,145	0,048	-0,057
-394,365	-58,854	0,041	0,013
-393,350	237,371	-0,051	0,061
-392,336	187,124	0,064	-0,069
-391,321	47,685	0,069	-0,047
-390,306	-148,189	-0,172	-0,010
-389,292	-172,836	-0,045	-0,001
-388,277	343,801	-0,015	-0,021
-387,263	538,851	0,061	0,105
-386,248	72,662	0,043	0,033
-385,233	-104,662	-0,164	0,027
-384,219	800,000	-0,028	0,069
-383,204	99,833	-0,076	0,064
-382,190	-67,601	0,074	0,021
-381,175	-9,288	0,106	-0,052
-380,160	-36,921	0,070	-0,027
-379,146	-200,000	0,028	0,121
-378,131	-200,000	-0,002	-0,031
-377,117	-200,000	-0,001	-0,040
-376,102	800,000	-0,112	-0,241
-375,088	-158,252	0,102	-0,004
-374,073	800,000	0,036	-0,087
-373,058	76,921	0,142	-0,110
-372,044	-8,395	0,143	-0,070
-371,029	-200,000	0,014	0,062
-370,015	281,460	-0,037	0,049
-369,000	47,262	0,064	-0,044
-367,985	-126,128	-0,067	0,007
-366,971	-200,000	-0,003	0,024
-365,956	-200,000	0,019	0,133
-364,942	-200,000	-0,037	0,140
-363,927	67,188	-0,055	0,040
-362,912	800,000	-0,038	0,089
-361,898	46,238	-0,050	0,034
-360,883	-16,705	-0,111	0,051
-359,869	-200,000	0,028	0,112
-358,854	-13,408	0,025	0,012
-357,839	27,178	0,083	0,050
-356,825	-100,351	0,035	0,006
-355,810	-200,000	0,018	0,071
-354,796	-200,000	-0,019	0,078
-353,781	148,682	-0,071	-0,069
-352,766	-200,000	-0,017	-0,073
-351,752	-200,000	0,003	0,040
-350,737	-102,605	0,211	-0,036
-349,723	-73,998	-0,045	-0,012
-348,708	142,606	0,018	0,018
-347,693	-200,000	-0,016	0,052
-346,679	-61,167	-0,074	-0,022
-345,664	37,191	-0,105	-0,067
-344,650	-134,532	0,067	-0,006
-343,635	-175,569	0,168	-0,003
-342,620	800,000	0,034	0,077
-341,606	-119,002	-0,059	0,007
-340,591	800,000	0,046	0,099
-339,577	-200,000	0,012	-0,101
-338,562	-200,000	0,002	0,047
-337,548	547,016	0,006	0,010
-336,533	106,533	0,074	0,064
-335,518	-156,824	0,128	0,006
-334,504	800,000	0,042	0,122
-333,489	315,969	-0,020	0,028
-332,475	-112,726	-0,239	-0,034
-331,460	-182,059	0,057	-0,001
-330,445	-200,000	-0,045	-0,210
-329,431	-146,075	0,120	-0,008
-328,416	99,822	0,123	-0,104
-327,402	-128,991	-0,111	0,011
-326,387	-98,137	0,147	0,027
-325,372	-90,986	0,107	0,022
-324,358	800,000	-0,020	0,045
-323,343	800,000	0,059	-0,160
-322,329	-200,000	-0,031	-0,121
-321,314	-97,869	0,029	-0,005
-320,299	-200,000	0,060	0,000
-319,285	59,065	0,058	-0,041
-318,270	135,905	0,051	0,048
-317,256	-200,000	0,014	0,057
-316,241	-156,046	-0,100	0,005
-315,226	29,991	0,072	0,045
-314,212	-48,437	0,023	-0,008
-313,197	800,000	-0,044	0,097
-312,183	195,202	-0,022	0,024
-311,168	136,108	0,086	-0,081
-310,153	-90,869	0,032	-0,007
-309,139	47,692	-0,088	-0,059
-308,124	-70,911	0,045	-0,012
-307,110	-200,000	-0,035	0,134
-306,095	790,878	-0,010	0,020
-305,080	800,000	0,016	0,045
-304,066	-12,827	-0,127	-0,060
-303,051	-162,239	-0,204	0,007
-302,037	-59,271	-0,134	0,041
-301,022	-110,327	0,026	-0,004
-300,008	213,244	0,100	-0,115
-298,993	-200,000	-0,017	0,213
-297,978	614,962	0,064	0,116
-296,964	-105,432	-0,070	-0,011
-295,949	12,100	0,057	-0,031
-294,935	-200,000	0,004	0,082
-293,920	-200,000	-0,009	0,087
-292,905	800,000	-0,034	0,094
-291,891	-200,000	-0,012	0,121
-290,876	490,620	0,083	0,138
-289,862	-200,000	0,009	0,086
-288,847	-200,000	0,028	-0,177
-287,832	482,180	-0,092	-0,152
-286,818	-133,587	0,151	0,013
-285,803	-200,000	0,001	-0,013
-284,789	-31,925	0,092	-0,037
-283,774	-62,515	-0,050	-0,015
-282,759	-200,000	0,006	0,085
-281,745	800,000	0,093	0,204
-280,730	-200,000	-0,031	0,210
-279,716	36,310	0,016	0,010
-278,701	800,000	0,012	0,026
-277,686	-200,000	-0,017	0,068
-276,672	-200,000	0,017	0,120
-275,657	-6,529	-0,134	0,066
-274,643	-158,435	-0,102	-0,004
-273,628	-200,000	-0,020	0,071
-272,613	-55,358	-0,016	-0,005
-271,599	-135,227	0,175	0,015
-270,584	-200,000	0,025	0,110
-269,570	-200,000	-0,014	0,070
-268,555	-65,710	-0,030	-0,009
-267,540	-163,252	-0,082	0,003
-266,526	527,069	-0,044	-0,076
-265,511	-36,692	-0,032	-0,013
-264,497	-98,285	-0,039	0,007
-263,482	-200,000	-0,009	0,056
-262,467	800,000	-0,034	0,091
-261,453	-200,000	-0,013	0,137
-260,438	-200,000	-0,027	-0,088
-259,424	-200,000	-0,001	-0,049
-258,409	528,531	-0,071	-0,121
-257,395	800,000	0,112	0,240
-256,380	339,832	0,062	0,088
-255,365	800,000	0,045	0,098
-254,351	-200,000	0,007	-0,034
-253,336	530,208	-0,009	0,016
-252,322	415,618	-0,097	-0,149
-251,307	589,956	0,039	-0,070
-250,292	-200,000	0,019	-0,133
-249,278	-200,000	0,004	-0,016
-248,263	196,421	0,090	0,099
-247,249	61,783	0,076	0,055
-246,234	-43,137	0,040	-0,015
-245,219	-200,000	0,028	-0,113
-244,205	-200,000	-0,001	0,052
-243,190	-97,724	0,061	0,011
-242,176	-200,000	0,005	-0,062
-241,161	613,015	0,034	0,062
-240,146	198,653	0,151	0,167
-239,132	-200,000	0,018	-0,214
-238,117	359,479	-0,055	-0,080
-237,103	243,795	-0,032	0,039
-236,088	-60,095	-0,119	0,037
-235,073	800,000	0,070	0,153
-234,059	800,000	0,039	0,114
-233,044	94,227	-0,108	0,089
-232,030	624,902	-0,046	-0,085
-231,015	738,009	0,003	-0,005
-230,000	800,000	-0,022	-0,065
-228,986	6,585	0,063	-0,034
-227,971	-200,000	0,000	0,003
-226,957	15,302	0,071	0,040
-225,942	-200,000	0,042	-0,164
-224,927	10,704	-0,059	-0,032
-223,913	-156,861	0,054	0,002
-222,898	-200,000	-0,008	-0,133
-221,884	-89,956	-0,048	-0,010
-220,869	-200,000	-0,001	0,051
-219,855	-44,970	-0,049	-0,017
-218,840	-200,000	0,016	0,101
-217,825	166,870	0,019	-0,020
-216,811	63,719	0,034	-0,024
-215,796	800,000	-0,024	-0,058
-214,782	432,910	0,025	0,039
-213,767	82,500	-0,045	0,035
-212,752	432,294	0,088	0,139
-211,738	-61,361	0,117	-0,035
-210,723	800,000	-0,035	0,076
-209,709	84,968	-0,061	0,048
-208,694	263,523	0,108	-0,136
-207,679	-200,000	0,019	0,119
-206,665	800,000	0,053	-0,130
-205,650	-19,506	0,139	0,062
-204,636	800,000	0,075	0,183
-203,621	-116,852	-0,141	-0,018
-202,606	-111,268	-0,143	0,021
-201,592	144,034	0,037	0,035
-200,577	133,409	-0,049	-0,046
-199,563	57,464	-0,093	-0,066
-198,548	-200,000	0,001	0,035
-197,533	-200,000	-0,013	0,075
-196,519	-71,281	-0,150	0,040
-195,504	276,666	-0,035	0,045
-194,490	450,249	-0,031	-0,050
-193,475	-70,422	-0,055	0,015
-192,460	800,000	0,033	-0,087
-191,446	-200,000	-0,009	0,071
-190,431	202,576	0,039	0,044
-189,417	-200,000	0,006	0,068
-188,402	-82,261	-0,011	0,003
-187,387	6,043	-0,097	0,052
-186,373	-200,000	-0,011	-0,072
-185,358	106,423	0,008	-0,007
-184,344	-163,398	0,070	0,002
-183,329	301,580	-0,047	0,062
-182,315	10,032	0,028	-0,015
-181,300	218,310	0,118	0,136
-180,285	165,760	0,018	-0,018
-179,271	-20,913	-0,113	-0,050
-178,256	161,941	0,058	0,059
-177,242	254,446	-0,065	-0,080
-176,227	-200,000	-0,006	0,111
-175,212	776,814	-0,045	0,088
-174,198	-200,000	-0,023	0,170
-173,183	-200,000	0,005	0,043
-172,169	248,820	-0,062	-0,076
-171,154	800,000	-0,059	0,118
-170,139	180,624	0,069	0,073
-169,125	39,884	0,070	-0,045
-168,110	340,495	0,030	0,042
-167,096	264,455	-0,016	-0,020
-166,081	-94,467	-0,105	-0,020
-165,066	800,000	0,072	-0,150
-164,052	0,566	-0,028	0,015
-163,037	-119,504	-0,137	-0,017
-162,023	-200,000	-0,020	-0,108
-161,008	-200,000	-0,001	0,026
-159,993	-119,616	0,166	0,020
-158,979	-105,200	-0,239	-0,039
-157,964	624,806	0,068	-0,123
-156,950	-13,837	-0,074	0,034
-155,935	128,644	0,118	0,109
-154,920	-200,000	0,004	0,053
-153,906	800,000	0,038	0,088
-152,891	-3,604	-0,140	-0,070
-151,877	800,000	-0,011	-0,035
-150,862	287,200	-0,047	-0,062
-149,847	-139,845	-0,075	-0,006
-148,833	800,000	-0,026	-0,056
-147,818	21,772	0,052	-0,031
-146,804	183,267	0,093	-0,099
-145,789	465,308	-0,037	-0,060
-144,775	800,000	0,018	0,044
-143,760	218,321	-0,129	-0,149
-142,745	-28,247	-0,134	-0,056
-141,731	800,000	-0,036	-0,080
-140,716	-140,645	-0,109	-0,008
-139,702	-200,000	0,020	0,083
-138,687	-46,962	-0,072	0,025
-137,672	800,000	-0,033	0,101
-136,658	770,696	0,014	0,027
-135,643	-36,016	0,045	-0,018
-134,629	46,428	-0,134	0,089
-133,614	-200,000	-0,005	0,087
-132,599	695,671	0,035	0,067
-131,585	-200,000	0,033	0,120
-130,570	143,893	-0,035	-0,033
-129,556	-200,000	-0,001	0,053
-128,541	64,314	-0,088	-0,064
-127,526	152,088	-0,094	-0,093
-126,512	261,739	0,075	0,093
-125,497	295,013	-0,104	0,138
-124,483	427,749	0,069	0,108
-123,468	-167,168	0,076	-0,002
-122,453	48,948	-0,115	-0,077
-121,439	383,406	-0,020	0,030
-120,424	42,529	-0,093	0,061
-119,410	738,058	0,060	-0,116
-118,395	800,000	-0,057	0,117
-117,380	-200,000	0,041	0,199
-116,366	144,227	-0,074	-0,071
-115,351	-200,000	0,027	-0,105
-114,337	189,759	-0,156	-0,168
-113,322	350,382	0,048	-0,069
-112,307	141,549	0,084	-0,080
-111,293	-130,694	-0,090	-0,009
-110,278	345,416	-0,029	0,041
-109,264	-200,000	0,048	0,221
-108,249	-200,000	-0,007	-0,041
-107,234	187,772	-0,039	-0,041
-106,220	-200,000	0,007	0,067
-105,205	-200,000	0,006	0,022
-104,191	800,000	-0,076	0,152
-103,176	61,525	0,122	0,087
-102,162	800,000	0,033	0,068
-101,147	-45,989	-0,125	-0,044
-100,132	-200,000	0,004	-0,096
-99,118	-200,000	0,021	0,095
-98,103	471,384	0,060	-0,097
-97,089	245,969	-0,058	0,071
-96,074	692,665	0,032	-0,061
-95,059	-200,000	0,038	0,136
-94,045	711,515	-0,125	-0,238
-93,030	68,032	-0,073	0,054
-92,016	-163,195	-0,080	0,003
-91,001	46,297	-0,023	-0,015
-89,986	242,498	-0,069	0,083
-88,972	-200,000	-0,009	0,179
-87,957	229,474	0,059	0,070
-86,943	-200,000	-0,010	0,127
-85,928	800,000	0,032	-0,081
-84,913	-200,000	-0,010	0,051
-83,899	-200,000	0,056	0,193
-82,884	-25,539	0,030	-0,013
-81,870	-157,113	0,113	-0,005
-80,855	-36,970	-0,118	-0,045
-79,840	800,000	0,038	0,090
-78,826	-88,432	-0,008	-0,002
-77,811	-200,000	-0,048	-0,159
-76,797	-34,001	0,093	-0,037
-75,782	65,739	-0,096	-0,070
-74,767	-200,000	0,003	0,080
-73,753	800,000	0,068	0,160
-72,738	-135,447	-0,038	0,003
-71,724	800,000	-0,045	0,102
-70,709	22,050	-0,030	0,017
-69,694	311,302	0,072	0,098
-68,680	87,468	-0,111	0,088
-67,665	509,277	-0,067	-0,112
-66,651	-200,000	-0,005	0,046
-65,636	-154,646	0,207	-0,010
-64,622	207,771	0,098	-0,110
-63,607	-7,010	-0,083	-0,040
-62,592	310,732	0,054	-0,072
-61,578	-177,843	0,045	0,001
-60,563	43,662	0,218	0,143
-59,549	364,335	-0,084	0,121
-58,534	-2,457	-1,883	-0,944
-57,519	800,000	-0,374	-0,916
-56,505	-200,000	-1,314	-4,833
-55,490	2,794	0,749	0,389
-54,476	800,000	5,421	12,303
-53,461	-200,000	17,376	282,932
-52,446	800,000	723,893	2222,979
-51,432	541,249	1639,965	2815,913
-50,417	111,389	1631,644	1411,936
-49,403	75,778	1286,251	974,899
-48,388	32,589	1028,075	636,610
-47,373	20,238	989,915	572,240
-46,359	18,730	978,074	560,425
-45,344	16,092	974,224	549,555
-44,330	16,224	972,798	549,162
-43,315	15,863	970,846	546,859
-42,300	15,836	969,714	546,110
-41,286	15,799	968,764	545,435
-40,271	15,753	967,727	544,678
-39,257	15,802	966,605	544,186
-38,242	15,789	966,006	543,786
-37,227	15,801	965,286	543,396
-36,213	15,771	964,536	542,855
-35,198	15,742	963,547	542,183
-34,184	15,785	962,789	541,874
-33,169	15,732	961,827	541,139
-32,154	15,805	960,990	540,883
-31,140	15,780	959,960	540,200
-30,125	15,853	959,100	539,930
-29,111	15,813	958,361	539,365
-28,096	15,786	957,875	538,983
-27,082	15,766	957,072	538,447
-26,067	15,775	956,329	538,036
-25,052	15,779	955,680	537,662
-24,038	15,798	954,916	537,271
-23,023	15,767	954,301	536,803
-22,009	15,831	953,669	536,631
-20,994	15,752	953,092	536,032
-19,979	15,755	952,479	535,678
-18,965	15,857	951,669	535,528
-17,950	15,788	951,176	535,008
-16,936	15,747	950,549	534,502
-15,921	15,740	949,805	534,041
-14,906	15,651	949,036	533,302
-13,892	15,619	948,607	532,937
-12,877	15,708	947,673	532,675
-11,863	15,633	947,157	532,126
-10,848	15,634	946,650	531,825
-9,833	15,800	946,192	532,073
-8,819	15,730	945,625	531,509
-7,804	15,715	944,830	530,995
-6,790	15,701	944,446	530,713
-5,775	15,657	943,907	530,251
-4,760	15,748	943,069	530,048
-3,746	15,717	942,486	529,601
-2,731	15,501	941,833	528,528
-1,717	15,564	941,260	528,385
-0,702	15,515	940,484	527,774
0,313	15,257	940,013	527,488
1,327	18,332	937,746	535,868
2,342	27,132	794,868	477,557
3,356	23,739	458,945	270,521
4,371	-2,963	313,607	156,537
5,386	-7,043	295,502	143,369
6,400	-9,156	289,480	138,342
7,415	-9,491	287,091	136,859
8,429	-9,625	285,506	135,959
9,444	-9,636	284,562	135,487
10,459	-9,807	284,082	135,081
11,473	-9,826	283,322	134,688
12,488	-9,512	282,887	134,774
13,502	-9,762	282,415	134,296
14,517	-9,669	282,046	134,198
15,531	-9,554	281,513	134,043
16,546	-9,419	281,081	133,955
17,561	-9,777	280,852	133,489
18,575	-9,560	280,517	133,527
19,590	-9,665	280,199	133,263
20,604	-9,494	279,774	133,212
21,619	-9,615	279,440	132,926
22,634	-9,689	279,004	132,637
23,648	-9,802	279,021	132,524
24,663	-9,730	278,621	132,391
25,677	-9,557	278,277	132,381
26,692	-9,618	278,092	132,223
27,707	-9,587	277,859	132,130
28,721	-9,478	277,519	132,061
29,736	-9,727	277,229	131,674
30,750	-9,613	276,904	131,616
31,765	-9,617	276,689	131,499
32,780	-9,714	276,583	131,344
33,794	-9,662	276,243	131,221
34,809	-9,762	275,982	130,991
35,823	-9,750	275,651	130,833
36,838	-9,739	275,495	130,757
37,853	-9,746	275,229	130,614
38,867	-9,759	274,991	130,476
39,882	-9,560	274,712	130,519
40,896	-9,755	274,491	130,220
41,911	-9,663	274,419	130,261
42,926	-9,662	274,035	130,067
43,940	-9,852	273,758	129,747
44,955	-9,764	273,604	129,744
45,969	-9,699	273,246	129,623
46,984	-9,885	272,996	129,320
47,999	-10,052	272,806	129,063
49,013	-10,136	272,649	128,899
50,028	-10,123	272,271	128,721
51,042	-10,299	272,118	128,474
52,057	-10,329	271,686	128,231
53,071	-10,335	271,644	128,194
54,086	-10,198	271,407	128,197
55,101	-10,176	271,238	128,126
56,115	-9,978	271,193	128,277
57,130	-9,692	270,933	128,407
58,144	-9,594	270,662	128,357
59,159	-9,543	270,466	128,300
60,174	-9,407	270,244	128,308
61,188	-9,744	270,159	127,946
62,203	-9,553	269,786	127,933
63,217	-9,561	269,647	127,849
64,232	-9,458	269,432	127,831
65,247	-9,658	269,223	127,536
66,261	-9,555	268,939	127,485
67,276	-9,721	268,654	127,186
68,290	-9,933	268,402	126,862
69,305	-9,947	268,111	126,700
70,320	-9,682	267,932	126,846
71,334	-9,698	267,877	126,794
72,349	-9,707	267,588	126,638
73,363	-9,433	267,474	126,822
74,378	-9,605	267,346	126,594
75,393	-9,509	267,044	126,527
76,407	-9,610	266,904	126,358
77,422	-9,506	266,664	126,327
78,436	-9,629	266,328	126,045
79,451	-9,613	266,141	125,960
80,466	-9,487	265,884	125,941
81,480	-9,644	265,670	125,686
82,495	-9,634	265,309	125,513
83,509	-9,660	265,268	125,459
84,524	-9,668	265,085	125,354
85,539	-9,779	264,760	125,090
86,553	-9,992	264,661	124,840
87,568	-9,741	264,424	124,942
88,582	-9,919	264,308	124,717
89,597	-9,667	263,978	124,776
90,611	-9,809	263,951	124,625
91,626	-9,633	263,813	124,707
92,641	-9,570	263,559	124,631
93,655	-9,720	263,399	124,411
94,670	-9,740	262,956	124,172
95,684	-9,784	262,916	124,103
96,699	-9,750	262,676	124,009
97,714	-9,896	262,660	123,860
98,728	-9,817	262,288	123,744
99,743	-9,805	262,012	123,613
100,757	-10,002	261,898	123,373
101,772	-9,830	261,541	123,347
102,787	-9,643	261,352	123,413
103,801	-9,750	261,226	123,247
104,816	-9,787	260,995	123,095
105,830	-9,675	260,996	123,183
106,845	-9,767	260,802	122,999
107,860	-9,520	260,443	123,037
108,874	-9,708	260,321	122,803
109,889	-9,544	260,164	122,863
110,903	-9,745	259,896	122,548
111,918	-9,652	259,655	122,505
112,933	-9,638	259,504	122,435
113,947	-9,561	259,306	122,399
114,962	-9,550	259,170	122,333
115,976	-9,799	258,961	122,004
116,991	-9,519	258,777	122,153
118,006	-9,606	258,605	121,985
119,020	-9,684	258,498	121,855
120,035	-9,665	258,408	121,818
121,049	-9,507	258,205	121,850
122,064	-9,591	257,876	121,610
123,079	-9,765	257,776	121,400
124,093	-9,640	257,470	121,355
125,108	-9,784	257,243	121,112
126,122	-9,835	256,970	120,927
127,137	-10,157	256,845	120,577
128,151	-9,750	256,583	120,798
129,166	-9,821	256,502	120,687
130,181	-9,857	256,319	120,559
131,195	-9,611	256,008	120,615
132,210	-9,656	255,914	120,521
133,224	-9,653	255,782	120,451
134,239	-9,481	255,637	120,521
135,254	-9,731	255,452	120,207
136,268	-9,712	255,112	120,052
137,283	-9,977	254,913	119,719
138,297	-10,068	254,756	119,556
139,312	-9,935	254,407	119,496
140,327	-9,762	254,361	119,613
141,341	-9,339	254,332	119,953
142,356	-9,372	254,133	119,820
143,370	-9,536	253,797	119,510
144,385	-9,444	253,818	119,589
145,400	-9,435	253,570	119,469
146,414	-9,508	253,467	119,347
147,429	-9,420	253,217	119,294
148,443	-9,423	253,017	119,187
149,458	-9,390	252,831	119,116
150,473	-9,390	252,756	119,070
151,487	-9,721	252,527	118,669
152,502	-9,563	252,198	118,639
153,516	-9,497	252,088	118,633
154,531	-9,354	251,831	118,623
155,546	-9,416	251,720	118,507
156,560	-9,423	251,540	118,406
157,575	-9,626	251,338	118,128
158,589	-9,406	251,271	118,272
159,604	-9,437	250,972	118,095
160,619	-9,425	250,809	118,018
161,633	-9,501	250,586	117,838
162,648	-9,524	250,595	117,812
163,662	-9,538	250,397	117,697
164,677	-9,349	250,219	117,762
165,692	-9,323	249,973	117,658
166,706	-9,504	249,936	117,477
167,721	-9,274	249,605	117,505
168,735	-9,468	249,557	117,309
169,750	-9,317	249,433	117,367
170,764	-9,376	249,264	117,228
171,779	-9,376	249,111	117,145
172,794	-9,477	248,970	116,984
173,808	-9,436	248,509	116,791
174,823	-9,685	248,395	116,518
175,837	-9,642	248,058	116,385
176,852	-9,559	248,324	116,570
177,867	-9,384	248,048	116,577
178,881	-9,366	247,831	116,479
179,896	-9,240	247,619	116,474
180,910	-9,295	247,451	116,339
181,925	-9,296	247,240	116,228
182,940	-9,399	247,065	116,050
183,954	-9,390	247,001	116,017
184,969	-9,529	246,907	115,847
185,983	-9,331	246,697	115,902
186,998	-9,307	246,484	115,812
188,013	-9,284	246,272	115,721
189,027	-9,209	246,156	115,718
190,042	-9,528	246,124	115,429
191,056	-9,460	245,756	115,302
192,071	-9,354	245,511	115,265
193,086	-9,408	245,424	115,169
194,100	-9,384	245,260	115,101
195,115	-9,418	245,108	114,992
196,129	-9,161	244,766	115,033
197,144	-9,531	244,697	114,685
198,159	-9,296	244,665	114,854
199,173	-9,173	244,312	114,779
200,188	-9,311	244,026	114,521
201,202	-9,698	243,899	114,133
202,217	-9,818	243,594	113,882
203,232	-10,045	243,453	113,620
204,246	-9,819	243,417	113,778
205,261	-9,297	243,350	114,164
206,275	-10,348	242,817	113,046
207,290	-7,149	244,178	116,296
208,304	-0,379	246,285	122,881
209,319	2,818	247,087	125,911
210,334	3,234	247,138	126,269
211,348	3,541	246,986	126,434
212,363	3,661	247,043	126,550
213,377	3,937	246,831	126,657
214,392	3,832	246,578	126,430
215,407	3,695	246,487	126,259
216,421	3,717	246,293	126,167
217,436	3,892	246,278	126,292
218,450	3,977	246,044	126,230
219,465	3,646	245,756	125,800
220,480	3,516	245,615	125,610
221,494	3,303	245,419	125,324
222,509	3,492	245,174	125,342
223,523	3,539	245,212	125,389
224,538	3,070	244,773	124,771
225,553	3,172	244,637	124,773
226,567	3,317	244,602	124,863
227,582	3,417	244,413	124,837
228,596	3,583	244,337	124,922
229,611	3,377	243,929	124,535
230,626	3,084	243,879	124,260
231,640	3,195	243,682	124,238
232,655	3,342	243,633	124,322
233,669	3,297	243,444	124,178
234,684	3,255	243,127	123,971
235,699	3,485	243,050	124,107
236,713	3,683	243,117	124,290
237,728	3,389	242,776	123,867
238,742	3,240	242,550	123,621
239,757	3,164	242,458	123,501
240,772	3,247	242,270	123,462
241,786	3,135	242,264	123,357
242,801	3,104	241,965	123,169
243,815	3,061	241,783	123,031
244,830	3,164	241,635	123,028
245,844	3,488	241,445	123,180
246,859	3,228	241,339	122,906
247,874	3,190	241,145	122,766
248,888	3,275	240,821	122,658
249,903	3,397	240,935	122,803
250,917	3,417	240,808	122,743
251,932	3,517	240,662	122,738
252,947	3,544	240,556	122,694
253,961	3,049	240,242	122,128
254,976	3,496	240,171	122,438
255,990	3,577	240,025	122,417
257,005	3,119	239,806	121,930
258,020	3,115	239,511	121,765
259,034	3,043	239,455	121,668
260,049	3,536	239,308	121,975
261,063	3,135	239,160	121,571
262,078	3,245	238,906	121,517
263,093	3,281	238,914	121,539
264,107	3,589	238,660	121,644
265,122	3,244	238,591	121,324
266,136	3,321	238,445	121,300
267,151	3,601	238,242	121,408
268,166	3,554	237,975	121,224
269,180	3,172	237,966	120,906
270,195	3,534	238,066	121,232
271,209	3,822	237,899	121,364
272,224	3,290	237,618	120,790
273,239	3,234	237,265	120,556
274,253	3,172	237,214	120,470
275,268	3,255	237,120	120,478
276,282	3,413	236,954	120,506
277,297	3,015	236,796	120,102
278,312	3,158	236,550	120,079
279,326	3,357	236,398	120,147
280,341	3,555	236,312	120,248
281,355	3,561	236,134	120,152
282,370	3,340	236,131	119,966
283,384	3,259	235,918	119,784
284,399	3,180	235,495	119,497
285,414	3,043	235,518	119,391
286,428	3,118	235,406	119,382
287,443	3,334	235,177	119,424
288,457	3,274	235,128	119,341
289,472	3,480	235,059	119,456
290,487	3,381	234,879	119,277
291,501	3,269	234,701	119,089
292,516	2,804	234,514	118,622
293,530	2,949	234,250	118,590
294,545	3,255	234,257	118,821
295,560	3,176	234,146	118,693
296,574	3,261	233,811	118,578
297,589	3,191	233,700	118,457
298,603	3,566	233,709	118,741
299,618	3,578	233,607	118,688
300,633	3,417	233,325	118,410
301,647	3,575	233,339	118,528
302,662	3,970	233,196	118,750
303,676	3,885	233,059	118,604
304,691	3,597	232,830	118,255
305,706	3,679	232,749	118,267
306,720	3,547	232,534	118,046
307,735	3,627	232,304	117,980
308,749	3,222	232,192	117,602
309,764	3,339	231,914	117,540
310,779	3,037	231,787	117,233
311,793	3,006	231,522	117,065
312,808	3,056	231,380	117,021
313,822	3,056	231,254	116,947
314,837	2,936	231,190	116,812
315,852	3,094	230,822	116,736
316,866	3,271	231,014	116,959
317,881	3,654	230,774	117,119
318,895	3,702	230,655	117,085
319,910	3,851	230,461	117,089
320,925	3,338	230,312	116,613
321,939	3,280	230,208	116,505
322,954	3,534	230,045	116,606
323,968	3,311	229,928	116,366
324,983	3,091	229,628	116,037
325,997	3,185	229,522	116,045
327,012	3,527	229,502	116,284
328,027	3,499	229,456	116,228
329,041	3,768	229,248	116,316
330,056	4,032	229,292	116,529
331,070	3,879	229,029	116,269
332,085	3,310	228,810	115,717
333,100	3,484	228,618	115,741
334,114	3,640	228,466	115,772
335,129	3,712	228,412	115,788
336,143	3,669	228,245	115,661
337,158	3,574	228,183	115,547
338,173	3,824	227,925	115,595
339,187	3,790	227,874	115,532
340,202	3,632	227,719	115,325
341,216	3,684	227,568	115,278
342,231	3,556	227,277	115,024
343,246	3,512	227,238	114,961
344,260	3,577	227,198	114,979
345,275	3,815	227,007	115,050
346,289	3,759	226,846	114,916
347,304	3,799	226,835	114,931
348,319	3,680	226,692	114,759
349,333	3,700	226,424	114,628
350,348	3,262	226,268	114,212
351,362	3,579	226,237	114,423
352,377	3,459	225,904	114,155
353,392	3,176	225,647	113,804
354,406	3,219	225,596	113,800
355,421	194,686	1325,401	1400,112
356,435	155,990	1459,388	1400,110
