DTS Sentinel unit serial number:	SN410029Multiplexer serial number:	ORYXHardware model number:	OX2-SRSoftware version number:	ORYX F/W v4,00 Oryx Data Collector v3.7.2.0data status	okinstallation	B5 Nyhavnadifferential loss correction	single-endedforward channel	channel 2reverse channel	N/Adate	2023/12/11time	21:47:13forward acquisition time	300,00reverse acquisition time	0,00gamma	499,1914k internal	0,3156k external	0,3156temperature offset calibration	1,0000default loss term (dB/km)	0,3820temperature slope calibration	1,0000multiplexer offset coefficient	1,0000multiplexer slope coefficient	1,0000fibre end	0,00T internal ref (°C)	16,26T ext. ref 1 (°C)	0,19T ext. ref 2 (°C)	-0,05length (m)	temperature (°C)	Stokes	anti-Stokes-744,400	800,000	0,054	-0,174
-743,385	-24,758	-0,243	0,106
-742,371	-200,000	0,007	-0,046
-741,356	-12,273	-0,269	0,129
-740,342	324,820	0,117	0,165
-739,327	-200,000	-0,309	0,001
-738,312	288,608	-0,059	0,079
-737,298	-25,132	-0,351	-0,153
-736,283	-32,870	0,067	0,027
-735,269	-155,040	-0,303	0,014
-734,254	187,578	0,096	0,105
-733,239	-44,922	-0,441	-0,161
-732,225	-101,075	0,134	-0,024
-731,210	-200,000	-0,002	0,145
-730,196	249,035	-0,064	0,080
-729,181	800,000	-0,065	-0,168
-728,167	-200,000	0,024	0,105
-727,152	109,966	-0,097	0,086
-726,137	-200,000	0,000	-0,126
-725,123	800,000	-0,033	-0,082
-724,108	-200,000	0,011	0,082
-723,094	166,325	-0,092	-0,096
-722,079	53,796	-0,018	-0,013
-721,064	-87,574	0,063	-0,014
-720,050	-11,790	-0,056	-0,027
-719,035	-30,195	-0,083	-0,035
-718,021	513,938	0,040	-0,068
-717,006	160,516	-0,113	-0,116
-715,991	110,653	-0,029	-0,025
-714,977	675,792	-0,104	-0,201
-713,962	621,943	-0,069	-0,129
-712,948	-85,292	-0,088	0,020
-711,933	42,894	-0,047	-0,031
-710,918	227,170	-0,044	0,053
-709,904	339,859	0,015	0,022
-708,889	-62,709	-0,100	-0,030
-707,875	94,188	-0,122	-0,102
-706,860	74,665	-0,100	-0,078
-705,845	800,000	-0,024	-0,050
-704,831	51,844	0,024	-0,017
-703,816	800,000	-0,024	-0,054
-702,802	-88,964	-0,048	-0,010
-701,787	-200,000	-0,010	-0,057
-700,772	526,479	-0,038	-0,067
-699,758	-46,397	-0,027	-0,010
-698,743	81,845	0,116	0,093
-697,729	0,259	-0,232	-0,122
-696,714	537,665	0,031	-0,054
-695,699	36,364	-0,186	-0,120
-694,685	-47,222	-0,038	0,013
-693,670	-200,000	-0,027	-0,087
-692,656	800,000	-0,041	0,090
-691,641	255,057	-0,072	-0,091
-690,627	800,000	0,033	-0,069
-689,612	-4,379	0,124	0,063
-688,597	-200,000	0,003	-0,151
-687,583	243,214	0,089	-0,110
-686,568	112,421	-0,022	-0,020
-685,554	37,225	-0,091	0,059
-684,539	-100,991	0,038	-0,007
-683,524	-200,000	0,016	0,101
-682,510	104,672	-0,028	-0,024
-681,495	174,560	-0,003	0,004
-680,481	258,398	-0,070	-0,089
-679,466	-200,000	0,015	-0,062
-678,451	-200,000	-0,003	-0,069
-677,437	-121,896	-0,071	0,008
-676,422	-200,000	0,003	0,104
-675,408	624,915	-0,090	0,167
-674,393	-200,000	0,007	0,053
-673,378	-99,710	-0,157	-0,029
-672,364	123,278	-0,092	-0,085
-671,349	207,679	-0,029	-0,034
-670,335	127,999	-0,134	0,126
-669,320	-119,577	-0,072	0,009
-668,305	193,801	0,037	-0,041
-667,291	-200,000	0,023	-0,197
-666,276	800,000	0,053	-0,114
-665,262	800,000	0,071	-0,168
-664,247	-200,000	-0,015	-0,117
-663,232	525,372	0,054	-0,094
-662,218	86,731	-0,094	0,076
-661,203	800,000	-0,026	0,076
-660,189	-200,000	0,001	-0,111
-659,174	-113,729	-0,099	-0,014
-658,159	-147,579	-0,135	0,008
-657,145	-200,000	-0,028	0,127
-656,130	-200,000	0,012	0,093
-655,116	-117,108	0,117	-0,015
-654,101	-200,000	0,001	-0,107
-653,086	-200,000	0,020	-0,141
-652,072	-144,211	0,047	0,003
-651,057	-93,694	-0,079	0,016
-650,043	-8,331	-0,124	-0,061
-649,028	101,455	-0,131	-0,112
-648,014	386,719	-0,054	0,082
-646,999	-200,000	0,006	-0,062
-645,984	139,106	-0,031	-0,030
-644,970	800,000	-0,037	-0,096
-643,955	-200,000	0,030	-0,187
-642,941	800,000	-0,064	-0,155
-641,926	-200,000	-0,010	-0,094
-640,911	177,259	-0,064	-0,068
-639,897	44,583	0,107	0,072
-638,882	-142,728	0,068	0,005
-637,868	-115,589	0,043	-0,006
-636,853	-35,336	0,063	-0,025
-635,838	243,878	0,056	-0,069
-634,824	73,171	0,030	-0,023
-633,809	-28,927	-0,101	0,042
-632,795	120,759	0,046	-0,042
-631,780	-62,650	-0,095	0,029
-630,765	-200,000	0,002	0,060
-629,751	-200,000	0,005	-0,073
-628,736	-79,029	-0,012	0,003
-627,722	254,963	0,014	0,018
-626,707	611,561	-0,041	-0,075
-625,692	-5,982	0,082	0,041
-624,678	-200,000	0,027	-0,106
-623,663	366,179	-0,098	-0,145
-622,649	-200,000	0,009	-0,080
-621,634	422,564	-0,014	-0,023
-620,619	365,214	-0,111	-0,165
-619,605	332,364	0,017	0,024
-618,590	-141,719	-0,148	-0,011
-617,576	-200,000	0,015	0,104
-616,561	136,722	0,074	-0,071
-615,546	127,927	-0,095	-0,089
-614,532	1,441	-0,020	0,011
-613,517	437,816	-0,025	-0,041
-612,503	114,495	-0,070	0,063
-611,488	426,852	0,064	0,101
-610,474	583,636	0,058	0,105
-609,459	-200,000	0,008	-0,067
-608,444	58,584	-0,067	-0,048
-607,430	-200,000	-0,015	-0,088
-606,415	0,058	-0,035	0,018
-605,401	78,615	0,036	0,028
-604,386	686,557	-0,048	-0,092
-603,371	-200,000	0,049	0,194
-602,357	451,634	-0,095	0,154
-601,342	-56,444	-0,083	0,027
-600,328	-131,148	-0,068	-0,007
-599,313	479,292	0,030	-0,050
-598,298	148,116	-0,066	0,065
-597,284	-53,954	0,090	0,030
-596,269	-42,255	-0,033	0,012
-595,255	196,485	0,053	0,060
-594,240	65,022	-0,071	0,052
-593,225	800,000	-0,022	-0,056
-592,211	75,965	-0,158	-0,123
-591,196	645,207	-0,054	-0,101
-590,182	800,000	-0,009	0,023
-589,167	800,000	0,025	0,069
-588,152	1,030	-0,116	-0,061
-587,138	-99,337	-0,067	0,012
-586,123	-200,000	0,000	-0,018
-585,109	127,349	-0,026	0,025
-584,094	128,004	-0,173	-0,162
-583,079	-200,000	-0,010	-0,060
-582,065	-200,000	0,006	-0,097
-581,050	34,028	0,047	0,030
-580,036	29,249	-0,073	-0,045
-579,021	800,000	0,045	0,122
-578,006	149,977	-0,079	0,079
-576,992	-200,000	0,008	-0,075
-575,977	42,644	0,050	0,034
-574,963	-200,000	0,022	0,112
-573,948	197,753	-0,100	0,112
-572,934	170,789	0,069	0,072
-571,919	-200,000	-0,012	-0,211
-570,904	97,253	-0,065	-0,054
-569,890	265,242	-0,056	0,072
-568,875	-19,862	-0,126	0,057
-567,861	800,000	0,022	-0,064
-566,846	800,000	-0,025	0,055
-565,831	-27,424	0,020	-0,009
-564,817	-79,669	-0,056	0,014
-563,802	-82,127	-0,163	-0,039
-562,788	-200,000	0,032	0,163
-561,773	-75,878	-0,068	-0,017
-560,758	207,440	0,037	-0,042
-559,744	-200,000	0,028	0,106
-558,729	212,207	0,041	0,048
-557,715	391,920	-0,011	0,017
-556,700	-98,513	-0,142	-0,026
-555,685	-156,602	-0,125	0,006
-554,671	-56,596	-0,018	0,006
-553,656	477,475	0,082	0,137
-552,642	65,958	0,054	0,040
-551,627	-71,817	0,070	0,019
-550,612	17,322	-0,131	-0,076
-549,598	800,000	0,058	-0,122
-548,583	-200,000	-0,053	-0,181
-547,569	-196,121	-0,058	0,000
-546,554	501,730	0,086	0,146
-545,539	176,374	0,077	-0,082
-544,525	-80,009	0,086	-0,021
-543,510	-200,000	0,006	-0,101
-542,496	-77,301	-0,131	0,033
-541,481	-131,094	0,149	-0,014
-540,466	249,775	0,067	-0,083
-539,452	340,011	0,099	-0,142
-538,437	-95,547	-0,106	-0,021
-537,423	-200,000	0,042	-0,145
-536,408	99,193	-0,079	-0,067
-535,393	-43,287	-0,088	-0,032
-534,379	-107,687	0,079	0,012
-533,364	-15,040	-0,064	-0,030
-532,350	-27,696	-0,031	0,013
-531,335	-200,000	0,013	0,103
-530,321	302,789	0,052	-0,070
-529,306	191,118	-0,050	-0,056
-528,291	-175,773	-0,165	0,003
-527,277	64,828	-0,050	0,037
-526,262	-200,000	0,032	-0,137
-525,248	261,899	-0,048	-0,061
-524,233	800,000	0,070	0,144
-523,218	235,147	0,096	-0,117
-522,204	237,354	0,096	0,116
-521,189	52,673	-0,103	-0,072
-520,175	0,297	-0,091	-0,047
-519,160	151,374	0,022	0,022
-518,145	187,386	0,012	0,013
-517,131	-55,342	0,074	0,024
-516,116	118,744	-0,038	-0,035
-515,102	158,062	-0,031	0,031
-514,087	87,484	0,041	-0,033
-513,072	-43,050	0,039	0,014
-512,058	-98,583	-0,078	-0,014
-511,043	83,122	0,054	0,043
-510,029	123,311	0,012	0,011
-509,014	-137,461	0,062	0,005
-507,999	189,397	-0,048	0,053
-506,985	715,023	0,039	0,077
-505,970	426,847	-0,060	-0,095
-504,956	173,257	-0,073	-0,076
-503,941	-15,530	0,063	0,029
-502,926	293,909	0,026	-0,035
-501,912	117,333	-0,071	0,064
-500,897	394,982	-0,052	0,080
-499,883	-200,000	0,005	-0,025
-498,868	800,000	-0,028	-0,087
-497,853	-200,000	0,002	-0,053
-496,839	-200,000	-0,025	0,091
-495,824	349,204	0,050	0,073
-494,810	378,407	0,043	-0,065
-493,795	-72,724	0,082	0,022
-492,781	744,444	-0,042	-0,083
-491,766	-143,781	-0,045	0,003
-490,751	-200,000	-0,009	0,047
-489,737	42,136	-0,065	-0,043
-488,722	-200,000	0,012	0,122
-487,708	800,000	0,040	-0,105
-486,693	27,726	-0,054	-0,033
-485,678	-200,000	-0,014	-0,152
-484,664	-94,102	0,072	0,014
-483,649	-200,000	-0,027	0,107
-482,635	-84,880	0,110	0,025
-481,620	-35,839	-0,060	0,023
-480,605	-77,977	0,113	0,028
-479,591	-200,000	0,018	0,111
-478,576	-200,000	0,032	0,135
-477,562	-200,000	0,004	-0,044
-476,547	77,699	-0,047	0,036
-475,532	800,000	-0,031	-0,072
-474,518	800,000	-0,036	0,105
-473,503	-44,324	-0,021	-0,008
-472,489	-200,000	-0,020	0,109
-471,474	-121,005	0,020	-0,002
-470,459	-184,040	-0,124	0,001
-469,445	-200,000	-0,010	0,105
-468,430	-200,000	-0,037	0,206
-467,416	-200,000	0,003	0,219
-466,401	67,195	0,151	0,112
-465,386	321,792	0,020	0,028
-464,372	800,000	0,020	0,062
-463,357	167,256	0,065	0,068
-462,343	-200,000	0,035	-0,197
-461,328	132,702	0,089	-0,084
-460,313	-110,980	-0,099	0,015
-459,299	800,000	0,027	0,068
-458,284	800,000	-0,026	-0,076
-457,270	-200,000	0,038	-0,133
-456,255	40,013	0,138	0,090
-455,241	661,440	-0,027	-0,050
-454,226	-8,772	0,048	0,023
-453,211	254,775	-0,023	0,029
-452,197	55,323	0,107	0,075
-451,182	-200,000	-0,016	-0,059
-450,168	-50,554	-0,094	-0,032
-449,153	-137,658	-0,056	-0,005
-448,138	319,398	0,091	-0,126
-447,124	66,042	-0,075	-0,056
-446,109	576,923	0,037	0,065
-445,095	64,724	0,096	-0,071
-444,080	-159,252	-0,127	-0,005
-443,065	-8,243	0,110	-0,054
-442,051	800,000	0,034	0,071
-441,036	49,620	-0,067	0,046
-440,022	552,485	-0,037	-0,064
-439,007	-120,999	-0,119	0,014
-437,992	660,458	-0,046	-0,087
-436,978	-43,785	0,087	-0,032
-435,963	457,960	-0,070	0,113
-434,949	102,709	0,111	0,095
-433,934	-44,147	-0,146	0,053
-432,919	-80,242	-0,101	0,025
-431,905	88,904	0,095	-0,077
-430,890	-143,616	-0,014	-0,001
-429,876	-118,470	-0,068	-0,009
-428,861	121,543	-0,055	0,050
-427,846	-68,864	-0,058	0,016
-426,832	-13,597	0,038	0,018
-425,817	-200,000	-0,028	0,199
-424,803	-156,807	0,093	-0,004
-423,788	-200,000	0,013	0,059
-422,773	100,246	0,183	0,155
-421,759	-6,929	0,096	0,048
-420,744	-1,963	-0,079	-0,040
-419,730	800,000	-0,053	0,110
-418,715	-200,000	0,018	0,076
-417,701	459,838	0,066	0,108
-416,686	-81,649	-0,058	-0,014
-415,671	659,963	0,064	0,121
-414,657	-155,916	0,088	0,004
-413,642	-200,000	-0,003	-0,030
-412,628	164,431	0,063	-0,064
-411,613	-200,000	0,005	0,062
-410,598	-200,000	0,013	-0,044
-409,584	-181,527	-0,065	-0,001
-408,569	72,744	0,168	-0,128
-407,555	-200,000	0,001	0,056
-406,540	95,341	-0,068	0,056
-405,525	-200,000	0,003	-0,049
-404,511	371,876	-0,041	-0,060
-403,496	495,746	-0,020	-0,034
-402,482	-67,605	0,093	-0,026
-401,467	20,079	0,120	0,070
-400,452	-94,178	0,137	0,027
-399,438	-200,000	0,018	0,106
-398,423	-68,301	-0,063	-0,018
-397,409	-200,000	0,001	-0,023
-396,394	0,968	-0,079	0,041
-395,379	-200,000	-0,030	0,155
-394,365	-200,000	0,015	0,196
-393,350	207,870	0,153	0,175
-392,336	339,310	-0,027	0,039
-391,321	-129,196	-0,051	-0,005
-390,306	-39,659	-0,138	-0,052
-389,292	-200,000	-0,000	0,113
-388,277	46,118	-0,068	0,046
-387,263	105,800	0,062	0,053
-386,248	-85,376	-0,149	0,034
-385,233	204,403	0,035	-0,040
-384,219	172,725	-0,146	-0,153
-383,204	147,405	-0,142	-0,139
-382,190	6,270	-0,068	0,037
-381,175	-18,616	0,075	0,034
-380,160	-135,426	0,127	-0,011
-379,146	519,366	-0,086	0,146
-378,131	234,653	0,009	0,011
-377,117	14,543	-0,045	0,025
-376,102	-95,914	0,054	-0,010
-375,088	173,110	0,059	-0,062
-374,073	-200,000	-0,029	-0,231
-373,058	-200,000	0,009	0,055
-372,044	-105,996	-0,119	0,019
-371,029	-75,043	0,097	-0,025
-370,015	692,939	0,004	-0,007
-369,000	721,010	-0,032	-0,062
-367,985	516,922	0,013	0,022
-366,971	164,975	-0,142	-0,146
-365,956	-200,000	0,002	-0,016
-364,942	-148,922	0,105	-0,006
-363,927	41,314	0,008	-0,005
-362,912	800,000	0,018	0,048
-361,898	-114,532	-0,086	0,012
-360,883	-200,000	-0,008	-0,105
-359,869	-72,348	0,078	0,021
-358,854	800,000	-0,016	-0,033
-357,839	-109,460	0,072	-0,011
-356,825	252,696	0,037	0,046
-355,810	212,554	0,080	-0,091
-354,796	-200,000	-0,042	0,157
-353,781	105,126	0,082	-0,070
-352,766	800,000	-0,030	-0,060
-351,752	-46,369	0,037	-0,013
-350,737	-9,600	0,199	0,096
-349,723	452,441	-0,025	-0,040
-348,708	-106,942	0,137	0,022
-347,693	533,023	0,101	-0,174
-346,679	144,346	0,062	-0,060
-345,664	800,000	0,023	-0,051
-344,650	204,841	-0,015	0,017
-343,635	-153,432	0,047	-0,002
-342,620	800,000	-0,024	-0,066
-341,606	800,000	-0,097	0,215
-340,591	-200,000	-0,014	-0,071
-339,577	-132,499	0,078	0,007
-338,562	-200,000	-0,011	0,092
-337,548	-45,808	-0,088	-0,031
-336,533	-200,000	-0,006	-0,074
-335,518	-162,979	-0,010	0,000
-334,504	4,437	0,058	0,031
-333,489	800,000	0,027	0,083
-332,475	-34,033	-0,127	-0,051
-331,460	-200,000	-0,019	-0,085
-330,445	800,000	-0,022	0,055
-329,431	-200,000	0,001	0,095
-328,416	800,000	-0,040	0,096
-327,402	-30,643	0,102	0,042
-326,387	-75,244	0,056	-0,014
-325,372	-200,000	0,011	-0,123
-324,358	-200,000	0,025	0,113
-323,343	-80,013	-0,049	0,012
-322,329	137,559	0,156	-0,149
-321,314	-58,596	0,102	-0,032
-320,299	-200,000	0,005	0,086
-319,285	-200,000	0,002	0,111
-318,270	268,571	0,058	-0,074
-317,256	298,317	-0,026	0,034
-316,241	98,956	-0,087	0,073
-315,226	-33,879	-0,053	-0,021
-314,212	9,424	-0,051	-0,028
-313,197	-96,917	0,188	-0,035
-312,183	-153,154	0,130	-0,007
-311,168	182,149	-0,131	-0,140
-310,153	9,298	-0,045	0,024
-309,139	44,855	-0,028	-0,019
-308,124	-0,163	-0,134	0,069
-307,110	-84,932	-0,021	-0,005
-306,095	-200,000	-0,003	-0,017
-305,080	18,380	-0,090	0,052
-304,066	800,000	-0,012	-0,033
-303,051	800,000	0,021	0,062
-302,037	345,368	0,049	0,070
-301,022	-200,000	-0,028	0,093
-300,008	-137,647	0,081	-0,007
-298,993	-127,330	-0,109	-0,011
-297,978	800,000	0,042	-0,120
-296,964	-112,953	-0,096	-0,014
-295,949	-84,590	-0,037	-0,008
-294,935	38,656	0,041	-0,027
-293,920	800,000	-0,014	-0,037
-292,905	30,277	0,087	0,054
-291,891	-60,359	-0,078	-0,024
-290,876	-19,763	0,105	-0,047
-289,862	-200,000	-0,011	-0,060
-288,847	-120,654	0,074	-0,009
-287,832	-200,000	0,029	-0,119
-286,818	-90,451	-0,127	0,026
-285,803	800,000	0,042	0,113
-284,789	295,559	-0,050	-0,067
-283,774	-108,952	0,034	0,005
-282,759	54,139	0,187	0,130
-281,745	-177,033	-0,065	0,001
-280,730	-200,000	0,006	-0,070
-279,716	-175,842	0,215	0,004
-278,701	-1,572	-0,044	-0,022
-277,686	-200,000	-0,029	0,094
-276,672	371,535	0,033	-0,049
-275,657	-200,000	0,001	-0,086
-274,643	-200,000	-0,033	-0,127
-273,628	-45,837	-0,137	-0,049
-272,613	-126,771	-0,104	-0,011
-271,599	-118,879	-0,111	-0,014
-270,584	353,929	0,020	-0,028
-269,570	310,957	0,027	0,037
-268,555	221,295	0,063	-0,073
-267,540	-40,612	-0,079	-0,030
-266,526	-110,091	-0,047	-0,007
-265,511	58,042	-0,087	0,061
-264,497	217,928	-0,085	0,099
-263,482	215,645	-0,016	-0,019
-262,467	-64,809	-0,056	-0,016
-261,453	485,993	-0,064	-0,106
-260,438	-200,000	-0,019	-0,128
-259,424	800,000	0,031	-0,068
-258,409	-96,303	-0,110	0,021
-257,395	-162,453	0,100	0,004
-256,380	-92,344	-0,104	0,021
-255,365	-200,000	-0,009	0,115
-254,351	-200,000	0,000	-0,065
-253,336	-25,700	-0,058	-0,024
-252,322	-42,280	0,085	-0,031
-251,307	-9,079	0,031	0,015
-250,292	214,030	-0,043	0,050
-249,278	613,825	0,033	-0,059
-248,263	-200,000	0,042	0,145
-247,249	-138,707	0,057	-0,004
-246,234	-200,000	-0,012	-0,046
-245,219	-200,000	0,022	-0,108
-244,205	36,697	-0,049	0,032
-243,190	138,956	-0,089	-0,085
-242,176	103,074	0,112	0,095
-241,161	-120,259	0,095	0,012
-240,146	36,943	0,075	0,048
-239,132	-200,000	-0,008	0,126
-238,117	-51,464	-0,014	-0,005
-237,103	32,503	0,070	0,044
-236,088	-200,000	-0,005	-0,075
-235,073	800,000	0,016	0,049
-234,059	25,740	0,176	0,106
-233,044	100,966	-0,099	0,083
-232,030	200,466	0,043	-0,048
-231,015	800,000	-0,009	-0,019
-230,000	136,768	0,053	-0,050
-228,986	800,000	-0,025	-0,064
-227,971	-200,000	-0,022	-0,077
-226,957	75,330	0,036	-0,028
-225,942	-60,046	-0,149	0,046
-224,927	292,002	0,080	-0,106
-223,913	630,175	0,038	-0,070
-222,898	29,739	0,090	0,055
-221,884	800,000	-0,030	0,076
-220,869	800,000	0,056	0,130
-219,855	-51,937	0,066	-0,022
-218,840	-44,527	0,049	-0,018
-217,825	-74,755	-0,073	0,019
-216,811	306,009	-0,045	-0,060
-215,796	-117,560	-0,227	-0,029
-214,782	42,228	-0,086	-0,056
-213,767	-154,058	0,049	-0,002
-212,752	-200,000	0,005	0,128
-211,738	-97,205	0,096	-0,018
-210,723	-71,741	0,078	-0,021
-209,709	19,384	-0,030	0,018
-208,694	800,000	-0,020	0,054
-207,679	800,000	-0,069	0,163
-206,665	14,159	0,077	0,043
-205,650	-139,581	0,125	0,010
-204,636	-78,064	-0,053	-0,013
-203,621	91,722	0,158	0,128
-202,606	800,000	-0,049	0,121
-201,592	223,314	0,043	-0,051
-200,577	123,233	0,055	-0,049
-199,563	-85,661	0,127	0,028
-198,548	10,826	-0,111	-0,061
-197,533	-172,212	0,096	0,002
-196,519	58,318	0,101	-0,071
-195,504	-200,000	-0,010	0,102
-194,490	73,507	-0,039	-0,029
-193,475	-200,000	-0,001	-0,018
-192,460	150,651	-0,023	0,023
-191,446	-147,025	0,146	0,009
-190,431	-32,271	0,092	0,037
-189,417	-110,502	0,060	-0,009
-188,402	-200,000	0,021	-0,113
-187,387	-200,000	0,006	-0,057
-186,373	60,034	0,149	0,106
-185,358	101,397	-0,016	-0,013
-184,344	289,278	0,005	0,006
-183,329	193,556	0,106	0,116
-182,315	230,589	0,090	0,106
-181,300	-41,894	-0,044	-0,016
-180,285	197,433	0,096	-0,106
-179,271	-0,482	-0,188	0,096
-178,256	800,000	0,013	-0,026
-177,242	800,000	0,046	0,106
-176,227	-200,000	0,024	0,087
-175,212	-200,000	-0,022	-0,074
-174,198	800,000	0,062	-0,152
-173,183	-60,675	-0,070	0,021
-172,169	384,782	-0,064	-0,095
-171,154	800,000	-0,026	0,067
-170,139	-200,000	0,011	-0,105
-169,125	800,000	0,029	0,087
-168,110	316,474	0,086	0,117
-167,096	204,813	-0,075	-0,084
-166,081	633,291	-0,026	-0,047
-165,066	-200,000	0,004	-0,079
-164,052	-124,134	0,125	0,014
-163,037	-21,705	-0,091	-0,040
-162,023	56,964	0,074	0,052
-161,008	4,168	0,045	-0,024
-159,993	583,587	0,049	0,087
-158,979	-1,562	0,047	0,024
-157,964	193,459	-0,009	0,010
-156,950	800,000	0,060	-0,180
-155,935	268,447	-0,049	-0,061
-154,920	64,858	-0,121	0,088
-153,906	174,994	0,034	-0,035
-152,891	197,376	0,025	-0,028
-151,877	251,313	-0,074	0,091
-150,862	-122,901	-0,132	-0,015
-149,847	800,000	0,037	-0,083
-148,833	560,567	0,049	-0,085
-147,818	-200,000	-0,008	0,049
-146,804	-15,509	-0,109	0,050
-145,789	-71,486	0,122	-0,033
-144,775	-71,976	-0,219	-0,058
-143,760	231,421	-0,070	0,083
-142,745	-115,885	-0,046	0,006
-141,731	-33,814	0,198	-0,078
-140,716	-200,000	0,026	-0,103
-139,702	-200,000	0,006	-0,140
-138,687	800,000	0,034	0,075
-137,672	225,618	0,049	0,058
-136,658	127,737	-0,042	-0,038
-135,643	-88,035	-0,130	-0,028
-134,629	-200,000	0,022	0,093
-133,614	0,606	0,037	-0,019
-132,599	48,435	-0,062	-0,042
-131,585	-200,000	-0,015	0,077
-130,570	-200,000	-0,014	-0,051
-129,556	20,217	-0,099	-0,058
-128,541	-132,849	0,051	-0,005
-127,526	-200,000	-0,016	-0,169
-126,512	226,067	0,106	0,124
-125,497	196,845	0,082	-0,090
-124,483	-200,000	0,026	0,155
-123,468	58,765	-0,039	0,027
-122,453	104,713	-0,032	-0,027
-121,439	800,000	-0,038	-0,082
-120,424	-31,357	0,040	-0,016
-119,410	-95,739	-0,060	-0,011
-118,395	515,582	-0,043	0,073
-117,380	373,386	-0,126	0,185
-116,366	-13,332	-0,091	0,043
-115,351	102,671	0,114	-0,096
-114,337	-200,000	0,006	0,061
-113,322	-23,043	0,043	-0,019
-112,307	800,000	-0,015	-0,039
-111,293	443,780	0,068	0,108
-110,278	320,778	-0,026	-0,036
-109,264	-43,215	-0,098	0,036
-108,249	-200,000	0,049	-0,317
-107,234	279,454	0,115	-0,148
-106,220	-66,876	-0,109	0,031
-105,205	-2,026	0,067	0,034
-104,191	800,000	-0,018	-0,044
-103,176	61,240	-0,053	0,038
-102,162	147,096	-0,077	-0,074
-101,147	138,660	-0,043	0,041
-100,132	-42,431	-0,215	-0,078
-99,118	-118,255	0,085	0,011
-98,103	58,218	-0,055	0,039
-97,089	-105,483	0,053	0,009
-96,074	800,000	-0,017	-0,040
-95,059	-200,000	0,011	0,045
-94,045	40,799	-0,142	0,092
-93,030	-200,000	-0,013	0,085
-92,016	52,578	-0,054	-0,037
-91,001	245,371	-0,024	0,029
-89,986	-200,000	-0,027	-0,131
-88,972	-200,000	-0,013	0,079
-87,957	415,099	-0,049	-0,076
-86,943	305,808	0,068	-0,091
-85,928	142,340	-0,063	-0,060
-84,913	-200,000	-0,000	-0,193
-83,899	-75,898	-0,149	-0,038
-82,884	-53,356	0,053	0,017
-81,870	800,000	-0,019	0,042
-80,855	11,196	0,076	-0,042
-79,840	800,000	0,034	-0,103
-78,826	628,917	-0,034	-0,063
-77,811	800,000	-0,030	0,076
-76,797	-64,195	0,094	-0,027
-75,782	-47,444	-0,178	-0,062
-74,767	87,632	0,077	0,061
-73,753	1,894	-0,033	-0,017
-72,738	-200,000	-0,043	-0,185
-71,724	-117,984	-0,144	-0,018
-70,709	-115,190	0,052	0,007
-69,694	116,307	0,065	-0,057
-68,680	-200,000	-0,003	0,044
-67,665	251,014	0,103	0,127
-66,651	639,887	-0,055	0,101
-65,636	640,090	-0,025	0,045
-64,622	31,435	0,048	-0,030
-63,607	-16,947	0,118	0,053
-62,592	58,612	0,009	-0,006
-61,578	-128,513	-0,085	0,009
-60,563	128,275	0,144	0,131
-59,549	-200,000	-0,019	0,132
-58,534	-17,847	-1,957	-0,878
-57,519	-200,000	-0,318	-1,026
-56,505	-200,000	-1,156	-4,899
-55,490	-12,274	0,810	0,379
-54,476	800,000	5,285	12,169
-53,461	-200,000	16,899	279,819
-52,446	800,000	719,842	2220,771
-51,432	544,768	1634,962	2815,377
-50,417	113,161	1629,959	1419,224
-49,403	76,632	1287,731	979,656
-48,388	33,389	1030,750	641,136
-47,373	20,386	992,377	574,285
-46,359	18,975	980,674	562,849
-45,344	16,556	976,727	552,618
-44,330	16,695	975,226	552,205
-43,315	16,322	973,368	549,906
-42,300	16,283	972,263	549,135
-41,286	16,287	971,322	548,595
-40,271	16,285	970,227	547,947
-39,257	16,344	969,382	547,640
-38,242	16,330	968,423	547,033
-37,227	16,327	967,739	546,615
-36,213	16,284	966,884	545,970
-35,198	16,326	966,008	545,589
-34,184	16,362	965,183	545,220
-33,169	16,276	964,216	544,373
-32,154	16,340	963,218	543,994
-31,140	16,326	962,350	543,438
-30,125	16,351	961,700	543,129
-29,111	16,395	960,700	542,686
-28,096	16,302	960,289	542,132
-27,082	16,270	959,415	541,514
-26,067	16,297	958,784	541,224
-25,052	16,276	957,967	540,673
-24,038	16,238	957,418	540,218
-23,023	16,289	956,648	539,926
-22,009	16,324	955,952	539,624
-20,994	16,304	955,402	539,228
-19,979	16,320	954,918	538,987
-18,965	16,360	954,152	538,659
-17,950	16,323	953,512	538,160
-16,936	16,253	952,991	537,620
-15,921	16,236	952,354	537,183
-14,906	16,159	951,609	536,496
-13,892	16,146	950,982	536,080
-12,877	16,167	950,281	535,729
-11,863	16,127	949,585	535,189
-10,848	16,150	949,126	534,983
-9,833	16,240	948,453	534,871
-8,819	16,201	947,919	534,421
-7,804	16,132	947,237	533,797
-6,790	16,157	946,558	533,471
-5,775	16,146	946,205	533,218
-4,760	16,228	945,359	532,981
-3,746	16,129	944,913	532,392
-2,731	16,091	944,141	531,816
-1,717	16,063	943,435	531,309
-0,702	16,050	942,937	530,968
0,313	15,825	942,300	530,697
1,327	19,159	939,973	539,871
2,342	28,284	797,558	482,335
3,356	25,028	461,297	273,953
4,371	-2,321	314,886	157,903
5,386	-6,575	296,752	144,482
6,400	-8,526	290,845	139,653
7,415	-8,848	288,241	138,072
8,429	-9,159	286,784	137,056
9,444	-9,026	285,721	136,666
10,459	-9,085	285,179	136,338
11,473	-9,135	284,477	135,941
12,488	-8,974	283,904	135,812
13,502	-9,089	283,589	135,537
14,517	-8,829	283,064	135,526
15,531	-9,130	282,666	135,032
16,546	-9,065	282,211	134,866
17,561	-9,201	281,861	134,555
18,575	-9,202	281,673	134,453
19,590	-9,221	281,102	134,150
20,604	-9,153	280,970	134,140
21,619	-9,061	280,618	134,048
22,634	-9,020	280,029	133,794
23,648	-9,051	279,753	133,621
24,663	-9,153	279,595	133,436
25,677	-9,045	279,306	133,389
26,692	-9,183	279,077	133,137
27,707	-9,112	278,737	133,030
28,721	-9,256	278,663	132,846
29,736	-9,129	278,251	132,759
30,750	-9,146	277,823	132,526
31,765	-9,150	277,649	132,427
32,780	-9,145	277,434	132,318
33,794	-9,204	277,203	132,140
34,809	-9,117	277,068	132,147
35,823	-9,135	276,779	131,979
36,838	-9,200	276,517	131,781
37,853	-9,244	276,139	131,548
38,867	-9,063	275,761	131,526
39,882	-9,385	275,890	131,273
40,896	-9,015	275,469	131,409
41,911	-9,143	275,123	131,112
42,926	-9,210	274,967	130,963
43,940	-9,328	274,813	130,768
44,955	-9,369	274,568	130,600
45,969	-9,535	274,409	130,358
46,984	-9,354	273,971	130,308
47,999	-9,648	273,743	129,913
49,013	-9,790	273,545	129,675
50,028	-9,757	273,310	129,583
51,042	-9,709	272,947	129,444
52,057	-9,866	272,733	129,185
53,071	-9,752	272,513	129,175
54,086	-9,774	272,198	128,994
55,101	-9,699	272,237	129,070
56,115	-9,452	272,047	129,198
57,130	-9,140	271,856	129,385
58,144	-8,985	271,711	129,447
59,159	-9,083	271,403	129,199
60,174	-9,032	271,256	129,164
61,188	-8,900	271,009	129,157
62,203	-9,160	270,947	128,876
63,217	-9,127	270,590	128,726
64,232	-9,099	270,464	128,680
65,247	-9,167	270,160	128,461
66,261	-9,169	269,965	128,355
67,276	-9,277	269,672	128,105
68,290	-9,374	269,394	127,872
69,305	-9,446	269,155	127,682
70,320	-9,353	268,848	127,610
71,334	-9,262	268,894	127,704
72,349	-9,036	268,529	127,726
73,363	-9,047	268,361	127,624
74,378	-9,118	268,081	127,415
75,393	-9,002	267,984	127,463
76,407	-8,970	267,867	127,425
77,422	-9,130	267,706	127,191
78,436	-9,185	267,409	126,989
79,451	-9,271	267,127	126,766
80,466	-9,109	267,050	126,865
81,480	-9,090	266,549	126,633
82,495	-9,200	266,357	126,430
83,509	-9,165	266,284	126,416
84,524	-9,285	266,170	126,243
85,539	-9,345	265,785	125,995
86,553	-9,440	265,596	125,808
87,568	-9,136	265,438	125,996
88,582	-9,362	265,133	125,636
89,597	-9,352	264,956	125,551
90,611	-9,110	264,780	125,674
91,626	-8,992	264,510	125,640
92,641	-8,941	264,381	125,614
93,655	-8,938	264,184	125,512
94,670	-9,328	263,893	125,012
95,684	-9,100	263,769	125,147
96,699	-9,065	263,585	125,079
97,714	-9,163	263,511	124,945
98,728	-9,405	263,119	124,533
99,743	-9,356	262,912	124,467
100,757	-9,205	262,757	124,517
101,772	-9,288	262,586	124,352
102,787	-9,229	262,298	124,256
103,801	-9,109	262,228	124,319
104,816	-9,144	262,032	124,184
105,830	-9,110	261,814	124,100
106,845	-9,119	261,683	124,018
107,860	-9,015	261,456	123,992
108,874	-9,112	261,256	123,800
109,889	-9,225	261,107	123,618
110,903	-9,017	260,831	123,660
111,918	-9,044	260,638	123,535
112,933	-9,058	260,426	123,410
113,947	-9,090	260,397	123,357
114,962	-9,111	260,105	123,190
115,976	-8,987	259,980	123,228
116,991	-9,017	259,625	123,023
118,006	-9,231	259,628	122,825
119,020	-9,109	259,607	122,912
120,035	-9,214	259,356	122,690
121,049	-9,068	259,216	122,741
122,064	-9,055	258,890	122,587
123,079	-9,072	258,653	122,448
124,093	-9,243	258,441	122,188
125,108	-9,277	258,153	122,011
126,122	-9,544	257,913	121,654
127,137	-9,680	257,810	121,475
128,151	-9,355	257,577	121,638
129,166	-9,338	257,465	121,589
130,181	-9,492	257,177	121,308
131,195	-9,358	257,046	121,352
132,210	-9,272	256,868	121,332
133,224	-9,013	256,660	121,448
134,239	-8,926	256,384	121,382
135,254	-9,033	256,251	121,216
136,268	-8,964	256,053	121,171
137,283	-9,393	255,695	120,619
138,297	-9,298	255,552	120,623
139,312	-9,532	255,477	120,374
140,327	-9,147	255,332	120,628
141,341	-8,970	255,380	120,794
142,356	-8,858	255,076	120,736
143,370	-8,861	254,853	120,616
144,385	-8,923	254,808	120,531
145,400	-8,929	254,518	120,378
146,414	-8,905	254,307	120,288
147,429	-8,726	254,032	120,301
148,443	-8,785	254,031	120,239
149,458	-8,828	253,701	120,035
150,473	-8,851	253,629	119,971
151,487	-9,026	253,454	119,727
152,502	-8,860	253,219	119,748
153,516	-8,905	253,093	119,639
154,531	-9,007	253,039	119,515
155,546	-9,026	252,806	119,378
156,560	-8,899	252,518	119,341
157,575	-8,991	252,285	119,141
158,589	-9,008	252,218	119,084
159,604	-8,893	251,954	119,047
160,619	-8,938	251,953	118,998
161,633	-8,819	251,664	118,951
162,648	-8,982	251,581	118,763
163,662	-8,822	251,263	118,739
164,677	-8,907	251,153	118,604
165,692	-9,005	250,979	118,428
166,706	-8,869	250,741	118,420
167,721	-8,790	250,681	118,448
168,735	-8,776	250,473	118,351
169,750	-8,632	250,244	118,354
170,764	-8,662	250,196	118,295
171,779	-8,822	250,098	118,104
172,794	-8,882	249,932	117,964
173,808	-8,784	249,639	117,898
174,823	-9,230	249,377	117,389
175,837	-9,387	249,123	117,126
176,852	-9,130	249,019	117,283
177,867	-8,855	249,032	117,509
178,881	-8,751	248,910	117,529
179,896	-8,832	248,600	117,304
180,910	-8,802	248,513	117,278
181,925	-8,783	248,253	117,161
182,940	-8,818	248,211	117,101
183,954	-8,781	247,828	116,940
184,969	-9,093	248,003	116,752
185,983	-8,676	247,577	116,889
186,998	-8,732	247,593	116,840
188,013	-8,659	247,296	116,750
189,027	-8,844	247,100	116,492
190,042	-8,535	246,953	116,670
191,056	-8,782	246,800	116,382
192,071	-8,681	246,688	116,403
193,086	-8,785	246,412	116,176
194,100	-8,810	246,240	116,064
195,115	-8,733	246,061	116,033
196,129	-8,812	245,978	115,918
197,144	-8,839	245,687	115,748
198,159	-8,790	245,480	115,680
199,173	-8,915	245,530	115,591
200,188	-8,638	245,087	115,600
201,202	-8,960	244,855	115,215
202,217	-9,364	244,550	114,728
203,232	-9,611	244,559	114,519
204,246	-8,901	244,435	115,035
205,261	-8,670	244,272	115,138
206,275	-9,316	243,981	114,460
207,290	-6,225	245,255	117,596
208,304	-0,540	246,951	123,108
209,319	1,566	247,578	125,154
210,334	1,982	247,520	125,458
211,348	2,313	247,386	125,652
212,363	2,764	247,363	126,002
213,377	3,129	247,174	126,195
214,392	2,857	247,206	125,977
215,407	2,487	246,998	125,554
216,421	2,839	246,717	125,690
217,436	3,030	246,719	125,837
218,450	3,092	246,523	125,777
219,465	2,875	246,240	125,443
220,480	2,671	246,114	125,200
221,494	2,753	245,887	125,141
222,509	2,875	245,787	125,179
223,523	2,869	245,621	125,078
224,538	2,334	245,423	124,528
225,553	2,335	245,097	124,352
226,567	2,654	245,057	124,582
227,582	2,690	244,908	124,524
228,596	2,646	244,734	124,388
229,611	2,358	244,525	124,036
230,626	2,538	244,331	124,074
231,640	2,700	244,228	124,142
232,655	2,457	244,090	123,863
233,669	2,570	243,879	123,837
234,684	2,722	243,481	123,747
235,699	2,924	243,657	123,990
236,713	2,825	243,717	123,929
237,728	2,532	243,440	123,539
238,742	2,505	243,083	123,325
239,757	2,578	242,880	123,270
240,772	2,430	242,816	123,107
241,786	2,625	242,695	123,192
242,801	2,460	242,350	122,873
243,815	2,292	242,181	122,640
244,830	2,462	242,327	122,841
245,844	2,639	242,183	122,900
246,859	2,634	241,894	122,738
247,874	2,380	241,704	122,426
248,888	2,443	241,607	122,417
249,903	2,411	241,531	122,342
250,917	2,730	241,432	122,537
251,932	2,786	241,277	122,492
252,947	2,760	241,008	122,325
253,961	2,507	240,723	121,966
254,976	2,796	240,597	122,123
255,990	2,830	240,447	122,062
257,005	2,563	240,185	121,705
258,020	2,261	240,088	121,404
259,034	2,432	240,010	121,491
260,049	2,630	239,851	121,558
261,063	2,394	239,733	121,298
262,078	2,373	239,553	121,180
263,093	2,729	239,471	121,411
264,107	2,508	239,404	121,190
265,122	2,489	239,149	121,035
266,136	2,675	238,939	121,066
267,151	2,870	238,843	121,161
268,166	2,575	238,539	120,763
269,180	2,398	238,464	120,573
270,195	2,800	238,550	120,924
271,209	3,269	238,268	121,143
272,224	2,603	238,085	120,512
273,239	2,360	237,730	120,129
274,253	2,391	237,465	120,009
275,268	2,448	237,533	120,078
276,282	2,792	237,405	120,274
277,297	2,467	237,150	119,877
278,312	2,540	236,967	119,832
279,326	2,499	237,108	119,861
280,341	2,698	236,830	119,866
281,355	2,597	236,641	119,680
282,370	2,786	236,644	119,819
283,384	2,443	236,516	119,475
284,399	2,430	236,141	119,264
285,414	2,370	235,965	119,118
286,428	2,623	235,844	119,244
287,443	2,746	235,713	119,263
288,457	2,995	235,623	119,402
289,472	2,655	235,600	119,113
290,487	2,696	235,246	118,956
291,501	2,574	235,002	118,727
292,516	2,181	234,871	118,344
293,530	2,082	234,816	118,228
294,545	2,516	234,868	118,582
295,560	2,679	234,461	118,493
296,574	2,480	234,289	118,241
297,589	2,235	234,354	118,073
298,603	2,845	234,007	118,361
299,618	2,948	233,884	118,368
300,633	2,574	233,871	118,061
301,647	2,819	233,761	118,185
302,662	3,200	233,672	118,424
303,676	3,288	233,488	118,388
304,691	3,074	233,361	118,148
305,706	3,131	233,228	118,114
306,720	3,098	233,005	117,965
307,735	2,945	232,814	117,740
308,749	2,542	232,713	117,368
309,764	2,582	232,478	117,269
310,779	2,255	232,305	116,920
311,793	2,400	232,022	116,879
312,808	2,529	231,911	116,911
313,822	2,408	231,664	116,684
314,837	2,278	231,565	116,524
315,852	2,313	231,520	116,518
316,866	2,528	231,426	116,625
317,881	2,718	231,400	116,747
318,895	2,912	231,169	116,768
319,910	3,060	231,035	116,803
320,925	2,712	230,843	116,429
321,939	2,514	230,794	116,243
322,954	2,833	230,479	116,318
323,968	2,478	230,450	116,022
324,983	2,478	230,220	115,896
325,997	2,797	230,193	116,115
327,012	2,663	229,941	115,875
328,027	2,280	229,662	115,434
329,041	2,837	229,813	115,923
330,056	3,471	229,849	116,412
331,070	3,512	229,675	116,344
332,085	3,050	229,225	115,757
333,100	2,877	229,121	115,562
334,114	2,745	228,994	115,388
335,129	3,065	228,871	115,558
336,143	3,199	228,671	115,548
337,158	3,235	228,622	115,540
338,173	3,001	228,604	115,344
339,187	3,014	228,274	115,177
340,202	3,128	228,082	115,156
341,216	2,893	227,977	114,916
342,231	2,950	227,852	114,885
343,246	2,856	227,780	114,768
344,260	2,769	227,641	114,622
345,275	3,358	227,479	114,973
346,289	3,153	227,465	114,801
347,304	3,388	227,162	114,815
348,319	3,397	226,997	114,728
349,333	3,083	226,778	114,371
350,348	2,593	226,892	114,052
351,362	2,792	226,610	114,049
352,377	2,873	226,354	113,970
353,392	2,692	226,253	113,775
354,406	2,909	226,194	113,897
355,421	196,044	1320,638	1399,714
356,435	157,175	1453,987	1399,722
