DTS Sentinel unit serial number:	SN410029Multiplexer serial number:	ORYXHardware model number:	OX2-SRSoftware version number:	ORYX F/W v4,00 Oryx Data Collector v3.7.2.0data status	okinstallation	B5 Nyhavnadifferential loss correction	single-endedforward channel	channel 2reverse channel	N/Adate	2023/12/12time	19:07:13forward acquisition time	300,00reverse acquisition time	0,00gamma	499,1914k internal	0,3157k external	0,3157temperature offset calibration	1,0000default loss term (dB/km)	0,3820temperature slope calibration	1,0000multiplexer offset coefficient	1,0000multiplexer slope coefficient	1,0000fibre end	0,00T internal ref (°C)	15,50T ext. ref 1 (°C)	-1,08T ext. ref 2 (°C)	-1,37length (m)	temperature (°C)	Stokes	anti-Stokes-744,400	143,860	0,088	0,087
-743,385	-133,162	-0,340	0,031
-742,371	-2,635	0,170	0,088
-741,356	12,443	-0,330	0,187
-740,342	9,823	0,075	-0,042
-739,327	-86,323	-0,302	-0,068
-738,312	80,689	-0,151	0,120
-737,298	95,244	-0,210	0,176
-736,283	-200,000	0,011	0,079
-735,269	-199,783	-0,253	0,001
-734,254	800,000	0,056	0,163
-733,239	-45,703	-0,523	-0,190
-732,225	-147,943	0,197	-0,012
-731,210	13,342	-0,047	0,027
-730,196	-32,901	-0,128	-0,052
-729,181	-75,597	-0,109	-0,028
-728,167	159,239	0,061	0,063
-727,152	128,396	0,155	-0,146
-726,137	-117,283	-0,120	0,016
-725,123	733,986	-0,057	-0,114
-724,108	142,850	-0,090	-0,089
-723,094	-107,896	-0,203	-0,032
-722,079	77,464	0,045	-0,035
-721,064	-119,233	-0,214	-0,027
-720,050	438,654	-0,046	0,074
-719,035	-99,943	0,111	-0,020
-718,021	-200,000	-0,007	-0,033
-717,006	-200,000	-0,118	-0,000
-715,991	139,188	-0,043	0,042
-714,977	110,694	-0,065	0,058
-713,962	113,326	-0,009	-0,008
-712,948	-25,844	0,075	-0,032
-711,933	-104,808	-0,051	-0,009
-710,918	800,000	-0,015	-0,048
-709,904	-145,260	-0,016	0,001
-708,889	800,000	-0,015	-0,041
-707,875	-200,000	-0,038	-0,141
-706,860	800,000	-0,014	-0,034
-705,845	346,076	0,060	0,088
-704,831	800,000	0,011	0,031
-703,816	-58,666	-0,123	-0,039
-702,802	-200,000	-0,016	-0,116
-701,787	203,988	0,070	-0,080
-700,772	-154,333	-0,196	-0,010
-699,758	-103,241	-0,132	-0,023
-698,743	-139,572	-0,090	0,007
-697,729	7,583	0,058	0,032
-696,714	-44,463	-0,043	-0,016
-695,699	-200,000	-0,034	-0,129
-694,685	-96,011	0,085	0,016
-693,670	-66,019	-0,100	-0,029
-692,656	-18,505	-0,044	0,020
-691,641	-200,000	0,004	0,165
-690,627	4,028	0,048	0,026
-689,612	-200,000	0,013	-0,144
-688,597	-31,796	-0,057	0,023
-687,583	196,992	0,139	0,157
-686,568	584,594	-0,052	-0,094
-685,554	-200,000	-0,008	-0,094
-684,539	-200,000	0,012	-0,049
-683,524	182,371	0,015	-0,017
-682,510	-200,000	-0,026	-0,127
-681,495	-43,156	-0,043	-0,016
-680,481	-7,617	0,043	-0,021
-679,466	-200,000	-0,022	-0,073
-678,451	-200,000	0,017	-0,198
-677,437	398,966	-0,024	0,038
-676,422	-109,998	0,088	0,013
-675,408	-200,000	0,001	0,184
-674,393	-35,651	0,200	-0,080
-673,378	800,000	-0,022	-0,045
-672,364	800,000	-0,019	-0,047
-671,349	-200,000	-0,002	-0,044
-670,335	-39,977	-0,016	-0,006
-669,320	-200,000	-0,006	0,128
-668,305	452,369	-0,109	-0,178
-667,291	-98,640	-0,111	-0,021
-666,276	77,637	0,053	-0,042
-665,262	-63,999	-0,076	-0,023
-664,247	-101,910	0,054	-0,009
-663,232	653,455	0,033	0,062
-662,218	768,080	0,049	0,099
-661,203	-200,000	-0,010	0,080
-660,189	13,349	0,117	-0,066
-659,174	-75,928	-0,092	-0,024
-658,159	-48,842	0,019	-0,007
-657,145	126,207	-0,038	-0,035
-656,130	-200,000	0,001	0,131
-655,116	-35,592	0,037	0,015
-654,101	-200,000	-0,018	0,128
-653,086	-200,000	-0,024	-0,119
-652,072	800,000	-0,039	-0,096
-651,057	575,112	-0,010	0,019
-650,043	145,026	0,110	-0,108
-649,028	-200,000	0,004	0,026
-648,014	-9,003	0,020	0,010
-646,999	612,609	0,061	0,112
-645,984	71,402	-0,043	-0,032
-644,970	145,225	-0,131	-0,129
-643,955	12,797	-0,225	-0,127
-642,941	-129,634	-0,126	0,013
-641,926	33,215	0,049	0,031
-640,911	-3,038	-0,097	-0,049
-639,897	156,179	-0,047	-0,048
-638,882	-200,000	-0,016	0,123
-637,868	169,423	-0,119	0,125
-636,853	-10,071	-0,030	0,014
-635,838	800,000	-0,013	0,033
-634,824	-116,425	0,041	0,005
-633,809	800,000	0,050	-0,132
-632,795	-200,000	-0,011	0,117
-631,780	-200,000	0,020	0,138
-630,765	398,988	0,099	0,153
-629,751	-200,000	0,004	0,017
-628,736	359,949	-0,090	-0,133
-627,722	-159,345	-0,135	-0,005
-626,707	13,693	-0,070	-0,040
-625,692	-163,274	-0,177	0,006
-624,678	70,571	-0,104	0,079
-623,663	-30,396	-0,138	0,057
-622,649	-49,358	-0,157	0,055
-621,634	-99,376	-0,067	-0,012
-620,619	-152,588	-0,121	0,006
-619,605	-5,485	0,039	0,020
-618,590	197,685	0,149	0,167
-617,576	-50,848	0,100	0,034
-616,561	-200,000	-0,025	-0,085
-615,546	-200,000	-0,010	-0,086
-614,532	1,896	-0,081	0,043
-613,517	700,481	0,021	-0,040
-612,503	99,186	-0,026	-0,022
-611,488	283,765	0,046	0,061
-610,474	-20,677	0,067	-0,030
-609,459	-200,000	0,022	-0,102
-608,444	-49,125	-0,099	-0,035
-607,430	666,920	0,018	-0,033
-606,415	-93,557	-0,159	0,032
-605,401	129,762	0,117	0,110
-604,386	-200,000	-0,007	0,065
-603,371	766,919	-0,042	-0,084
-602,357	-200,000	-0,019	-0,134
-601,342	20,055	-0,021	-0,013
-600,328	213,453	0,055	0,064
-599,313	11,402	-0,090	-0,050
-598,298	-45,611	-0,099	-0,036
-597,284	159,489	0,081	-0,083
-596,269	-200,000	-0,049	0,000
-595,255	-59,969	-0,123	0,038
-594,240	284,760	0,060	0,079
-593,225	-200,000	-0,024	-0,117
-592,211	6,152	-0,084	0,046
-591,196	524,678	0,036	0,062
-590,182	177,398	-0,024	-0,026
-589,167	800,000	-0,014	0,039
-588,152	294,510	-0,015	0,020
-587,138	-200,000	-0,033	0,179
-586,123	-85,467	-0,090	0,020
-585,109	183,010	-0,030	-0,032
-584,094	146,736	-0,010	0,009
-583,079	-60,167	0,117	-0,036
-582,065	23,145	0,057	0,034
-581,050	-127,113	0,037	-0,004
-580,036	105,615	-0,112	-0,097
-579,021	-31,325	0,103	-0,042
-578,006	-117,908	-0,129	-0,017
-576,992	-76,985	0,107	-0,027
-575,977	-200,000	-0,001	0,132
-574,963	-200,000	0,055	0,205
-573,948	16,857	0,131	0,076
-572,934	180,954	0,024	-0,026
-571,919	36,917	-0,067	-0,043
-570,904	63,899	0,081	-0,059
-569,890	-119,434	-0,062	-0,008
-568,875	-200,000	0,013	0,130
-567,861	73,767	0,152	0,116
-566,846	415,823	0,043	0,067
-565,831	28,181	-0,036	-0,022
-564,817	-109,195	-0,145	-0,022
-563,802	800,000	-0,019	-0,053
-562,788	-200,000	0,003	-0,021
-561,773	265,771	0,024	0,030
-560,758	-53,974	0,140	0,046
-559,744	-200,000	-0,022	-0,092
-558,729	-63,425	0,036	0,011
-557,715	60,936	0,033	-0,024
-556,700	24,746	-0,082	-0,050
-555,685	12,601	-0,120	-0,067
-554,671	-1,003	0,084	0,043
-553,656	179,914	-0,037	-0,040
-552,642	398,111	-0,060	0,092
-551,627	-68,401	0,022	0,006
-550,612	245,917	0,017	-0,022
-549,598	126,385	-0,158	-0,146
-548,583	363,723	-0,032	-0,047
-547,569	321,529	-0,044	-0,062
-546,554	-78,304	0,025	0,006
-545,539	-200,000	0,008	-0,071
-544,525	-72,985	0,119	0,032
-543,510	22,144	-0,144	0,086
-542,496	-200,000	-0,000	-0,004
-541,481	-69,600	-0,051	0,014
-540,466	-200,000	-0,009	-0,108
-539,452	521,912	-0,063	-0,108
-538,437	149,890	0,029	-0,029
-537,423	-24,983	0,103	0,045
-536,408	-119,089	-0,062	-0,008
-535,393	481,768	0,047	-0,078
-534,379	800,000	0,008	-0,023
-533,364	658,370	0,031	-0,059
-532,350	138,235	-0,053	-0,051
-531,335	86,907	-0,097	-0,078
-530,321	-89,401	0,110	-0,023
-529,306	-200,000	-0,015	-0,101
-528,291	800,000	0,089	-0,183
-527,277	72,444	0,093	-0,071
-526,262	-147,240	-0,142	0,009
-525,248	-102,852	0,058	-0,010
-524,233	36,623	0,040	0,026
-523,218	800,000	-0,046	0,098
-522,204	-35,128	-0,044	-0,017
-521,189	-200,000	-0,010	0,045
-520,175	-200,000	-0,008	0,033
-519,160	800,000	-0,033	-0,102
-518,145	-200,000	-0,003	0,025
-517,131	800,000	-0,038	0,096
-516,116	602,943	-0,034	0,062
-515,102	147,529	0,068	0,067
-514,087	800,000	-0,041	-0,087
-513,072	290,657	-0,074	-0,099
-512,058	-6,348	-0,112	0,056
-511,043	-200,000	0,010	0,046
-510,029	347,714	0,015	0,022
-509,014	443,344	-0,030	0,049
-507,999	800,000	0,033	-0,097
-506,985	193,828	-0,013	0,014
-505,970	-175,653	-0,048	-0,001
-504,956	-200,000	-0,007	0,078
-503,941	50,593	-0,074	-0,051
-502,926	-53,079	-0,083	0,028
-501,912	112,822	0,099	-0,088
-500,897	216,718	0,017	-0,020
-499,883	204,393	0,113	0,128
-498,868	-133,460	-0,089	-0,008
-497,853	104,515	-0,069	-0,059
-496,839	800,000	0,083	-0,175
-495,824	-200,000	0,030	-0,104
-494,810	-200,000	-0,012	-0,091
-493,795	-200,000	0,001	0,089
-492,781	-0,696	0,058	0,030
-491,766	-200,000	-0,021	0,071
-490,751	-200,000	0,021	0,160
-489,737	91,811	0,058	-0,048
-488,722	-167,751	-0,033	0,001
-487,708	164,752	-0,045	-0,047
-486,693	89,349	0,077	0,062
-485,678	-66,234	0,078	-0,023
-484,664	-4,639	-0,109	-0,055
-483,649	199,001	-0,052	-0,059
-482,635	249,408	-0,044	0,054
-481,620	-45,597	0,097	0,035
-480,605	50,016	0,070	0,048
-479,591	401,555	-0,095	0,146
-478,576	-200,000	-0,015	-0,052
-477,562	34,043	0,108	-0,069
-476,547	-8,390	-0,062	0,030
-475,532	-0,685	-0,145	-0,075
-474,518	-112,186	0,029	-0,004
-473,503	211,779	0,058	-0,067
-472,489	-59,458	0,102	0,032
-471,474	512,830	-0,054	-0,093
-470,459	44,497	0,068	-0,045
-469,445	326,805	0,042	0,059
-468,430	658,877	-0,034	-0,064
-467,416	144,695	0,101	-0,099
-466,401	18,356	-0,027	-0,016
-465,386	-6,617	0,060	0,030
-464,372	101,218	0,015	0,013
-463,357	76,395	-0,067	0,052
-462,343	102,984	0,063	-0,054
-461,328	244,587	-0,050	0,061
-460,313	38,134	0,098	-0,063
-459,299	800,000	0,031	0,095
-458,284	-8,416	-0,050	0,024
-457,270	102,965	0,063	0,054
-456,255	308,733	0,098	-0,134
-455,241	800,000	-0,042	0,118
-454,226	1,842	0,077	0,040
-453,211	33,801	-0,044	-0,028
-452,197	-25,710	0,080	0,034
-451,182	31,231	-0,067	0,042
-450,168	-186,054	0,044	-0,000
-449,153	563,723	0,057	-0,102
-448,138	611,284	0,067	-0,123
-447,124	-85,436	-0,062	-0,014
-446,109	85,607	0,058	-0,046
-445,095	551,267	0,002	-0,004
-444,080	-7,065	-0,113	0,056
-443,065	359,607	-0,038	0,055
-442,051	800,000	-0,078	0,169
-441,036	-200,000	0,019	-0,076
-440,022	275,693	-0,044	0,057
-439,007	150,307	0,043	-0,042
-437,992	800,000	0,032	0,100
-436,978	-73,710	0,149	-0,039
-435,963	800,000	0,023	-0,049
-434,949	80,119	-0,046	-0,036
-433,934	800,000	-0,031	0,095
-432,919	98,970	0,099	-0,083
-431,905	-200,000	0,008	-0,049
-430,890	326,399	-0,022	0,031
-429,876	-74,402	-0,113	0,029
-428,861	570,046	-0,075	-0,134
-427,846	95,942	0,083	-0,069
-426,832	-155,452	-0,120	-0,006
-425,817	-200,000	0,014	-0,055
-424,803	-94,680	0,096	0,019
-423,788	800,000	0,026	-0,072
-422,773	-77,510	-0,093	0,023
-421,759	-102,512	0,169	-0,029
-420,744	800,000	-0,021	-0,050
-419,730	187,280	-0,104	-0,113
-418,715	800,000	0,042	-0,122
-417,701	-30,684	0,060	-0,025
-416,686	-21,139	0,128	0,057
-415,671	16,582	-0,048	0,028
-414,657	750,292	0,056	0,111
-413,642	-39,395	-0,029	0,011
-412,628	44,532	-0,080	-0,054
-411,613	-3,209	-0,069	0,035
-410,598	349,271	0,056	0,080
-409,584	70,865	0,050	0,038
-408,569	-139,722	0,155	-0,012
-407,555	-150,952	-0,121	0,007
-406,540	-112,510	-0,089	0,013
-405,525	-141,792	-0,103	0,007
-404,511	-130,353	0,042	0,004
-403,496	-135,618	-0,078	0,007
-402,482	34,052	-0,109	0,069
-401,467	284,677	0,028	0,037
-400,452	-106,897	0,074	-0,012
-399,438	-75,241	-0,061	0,016
-398,423	158,974	-0,055	-0,055
-397,409	-200,000	-0,009	-0,096
-396,394	-200,000	0,004	-0,043
-395,379	239,135	0,020	-0,024
-394,365	-6,066	0,116	0,057
-393,350	349,128	0,024	0,035
-392,336	212,876	-0,126	0,145
-391,321	-200,000	-0,000	-0,014
-390,306	62,583	-0,083	-0,060
-389,292	10,386	0,027	0,015
-388,277	406,578	0,023	-0,036
-387,263	236,442	-0,048	0,057
-386,248	800,000	-0,011	0,033
-385,233	-200,000	-0,020	-0,075
-384,219	-80,850	-0,066	0,016
-383,204	800,000	0,046	0,128
-382,190	800,000	-0,038	-0,092
-381,175	289,117	0,039	0,051
-380,160	481,587	-0,036	-0,060
-379,146	800,000	-0,042	0,109
-378,131	202,935	-0,090	-0,101
-377,117	-200,000	0,005	-0,063
-376,102	-22,047	-0,082	0,036
-375,088	468,261	-0,063	-0,104
-374,073	235,021	0,103	-0,123
-373,058	624,632	0,029	-0,053
-372,044	101,251	0,084	0,071
-371,029	-200,000	-0,017	-0,078
-370,015	-107,087	0,052	0,008
-369,000	-65,529	0,075	-0,022
-367,985	525,041	0,039	-0,066
-366,971	90,252	-0,067	-0,055
-365,956	-200,000	-0,009	-0,094
-364,942	-200,000	-0,021	0,154
-363,927	-17,867	-0,022	0,010
-362,912	-200,000	0,040	-0,149
-361,898	145,889	-0,034	-0,033
-360,883	139,858	-0,135	-0,129
-359,869	37,211	0,039	-0,025
-358,854	-200,000	0,016	0,056
-357,839	-29,781	0,126	0,052
-356,825	-200,000	-0,010	0,049
-355,810	631,180	0,023	0,042
-354,796	-66,085	-0,088	0,025
-353,781	49,963	0,055	-0,037
-352,766	-162,467	-0,079	0,003
-351,752	789,489	0,011	-0,023
-350,737	800,000	0,060	0,144
-349,723	287,508	-0,098	0,129
-348,708	-200,000	-0,005	0,044
-347,693	-200,000	0,017	0,098
-346,679	25,530	-0,028	0,017
-345,664	-200,000	0,026	-0,115
-344,650	130,749	-0,045	0,042
-343,635	-86,733	0,061	0,013
-342,620	145,737	0,054	0,053
-341,606	800,000	0,037	-0,075
-340,591	750,327	0,030	-0,058
-339,577	-180,792	0,056	0,001
-338,562	-200,000	-0,022	-0,105
-337,548	-77,494	0,119	-0,030
-336,533	430,861	-0,035	0,056
-335,518	-200,000	-0,011	0,094
-334,504	800,000	-0,037	0,110
-333,489	414,182	-0,056	0,086
-332,475	184,856	0,018	0,019
-331,460	206,037	0,023	-0,026
-330,445	800,000	0,024	0,071
-329,431	-36,643	-0,041	-0,016
-328,416	800,000	-0,015	0,042
-327,402	118,442	0,043	-0,039
-326,387	-200,000	0,007	0,066
-325,372	-24,133	0,022	-0,009
-324,358	-90,977	-0,059	-0,012
-323,343	-200,000	0,014	0,089
-322,329	-99,345	0,119	0,022
-321,314	-26,001	-0,123	-0,052
-320,299	363,600	0,040	0,058
-319,285	133,537	-0,035	-0,033
-318,270	-200,000	-0,004	0,033
-317,256	-18,002	0,104	-0,047
-316,241	-138,446	0,122	0,010
-315,226	-200,000	0,040	0,148
-314,212	-200,000	0,021	0,094
-313,197	800,000	-0,035	0,081
-312,183	341,859	-0,023	-0,033
-311,168	800,000	-0,059	-0,178
-310,153	-137,448	0,141	-0,011
-309,139	187,497	0,027	-0,030
-308,124	-161,324	0,137	0,005
-307,110	-21,536	0,108	0,048
-306,095	-200,000	0,013	0,067
-305,080	-148,508	0,032	-0,002
-304,066	253,200	0,048	0,060
-303,051	-98,420	-0,078	0,014
-302,037	545,739	-0,055	-0,095
-301,022	86,003	0,052	0,042
-300,008	11,253	-0,091	0,050
-298,993	800,000	0,020	0,045
-297,978	-9,378	-0,080	-0,039
-296,964	59,382	0,045	0,032
-295,949	164,327	-0,076	0,078
-294,935	-102,662	0,046	-0,008
-293,920	-96,888	-0,137	-0,026
-292,905	-29,117	-0,015	-0,006
-291,891	800,000	0,026	0,061
-290,876	163,219	0,051	0,052
-289,862	6,524	-0,134	-0,072
-288,847	-200,000	0,047	-0,168
-287,832	-57,623	0,067	0,021
-286,818	50,322	0,063	-0,043
-285,803	-200,000	-0,003	-0,110
-284,789	800,000	0,046	-0,106
-283,774	800,000	0,031	-0,066
-282,759	117,415	0,031	0,027
-281,745	23,747	0,047	0,028
-280,730	495,359	-0,020	0,034
-279,716	800,000	0,038	-0,081
-278,701	381,275	-0,053	0,078
-277,686	-155,999	0,065	-0,003
-276,672	-200,000	-0,009	0,084
-275,657	-84,573	0,043	0,010
-274,643	800,000	-0,026	-0,055
-273,628	-182,593	0,073	0,001
-272,613	-97,069	-0,065	-0,012
-271,599	800,000	0,019	-0,039
-270,584	-200,000	-0,004	0,036
-269,570	-84,261	0,008	-0,002
-268,555	-73,693	-0,062	-0,016
-267,540	-56,382	-0,107	-0,034
-266,526	173,880	0,051	-0,054
-265,511	-2,770	0,017	0,009
-264,497	174,483	0,054	-0,057
-263,482	-162,130	0,051	0,002
-262,467	87,605	-0,055	0,044
-261,453	800,000	0,039	0,094
-260,438	-200,000	0,007	0,085
-259,424	800,000	0,055	-0,142
-258,409	-119,456	-0,098	-0,012
-257,395	-200,000	0,020	0,129
-256,380	-14,652	-0,005	-0,002
-255,365	800,000	0,038	0,091
-254,351	-200,000	0,005	0,154
-253,336	800,000	-0,028	-0,062
-252,322	-200,000	0,017	0,079
-251,307	177,152	0,129	0,136
-250,292	-200,000	0,015	-0,079
-249,278	-172,340	0,107	-0,002
-248,263	101,152	0,060	-0,050
-247,249	74,879	-0,066	0,050
-246,234	-79,150	-0,122	0,030
-245,219	-101,389	0,058	-0,010
-244,205	-60,410	-0,088	-0,027
-243,190	800,000	0,072	-0,154
-242,176	450,594	-0,038	0,061
-241,161	118,050	-0,068	0,060
-240,146	-200,000	0,006	-0,063
-239,132	-56,958	0,049	-0,016
-238,117	800,000	-0,030	-0,095
-237,103	-200,000	-0,009	-0,038
-236,088	766,537	0,076	-0,150
-235,073	-53,654	-0,030	-0,010
-234,059	273,134	0,047	0,060
-233,044	112,385	0,057	0,050
-232,030	55,174	-0,074	-0,051
-231,015	86,383	0,037	-0,030
-230,000	-49,422	-0,072	0,025
-228,986	-200,000	0,004	-0,088
-227,971	800,000	-0,039	0,085
-226,957	476,969	0,068	0,112
-225,942	-200,000	-0,006	0,048
-224,927	-145,331	-0,075	0,005
-223,913	-33,955	0,138	-0,054
-222,898	-46,805	-0,081	0,028
-221,884	-93,506	0,069	-0,014
-220,869	800,000	-0,044	-0,098
-219,855	-110,221	0,077	0,011
-218,840	371,407	0,076	0,112
-217,825	208,459	-0,098	-0,111
-216,811	-200,000	0,008	0,088
-215,796	-117,178	-0,153	0,020
-214,782	-141,180	0,131	-0,010
-213,767	-75,732	-0,077	-0,020
-212,752	617,159	0,090	0,164
-211,738	800,000	0,042	0,102
-210,723	106,945	0,031	-0,026
-209,709	128,635	-0,090	0,083
-208,694	800,000	0,011	-0,025
-207,679	67,567	-0,136	0,100
-206,665	172,992	-0,027	-0,028
-205,650	168,940	-0,042	-0,043
-204,636	623,451	-0,027	-0,049
-203,621	-200,000	0,013	0,053
-202,606	-200,000	-0,001	-0,108
-201,592	188,841	0,043	0,047
-200,577	325,198	0,058	-0,080
-199,563	-69,003	0,053	0,015
-198,548	-176,994	0,124	-0,002
-197,533	-79,747	0,033	0,008
-196,519	102,093	0,059	-0,050
-195,504	213,534	0,079	-0,090
-194,490	21,812	0,041	-0,024
-193,475	-200,000	-0,006	-0,042
-192,460	-200,000	-0,018	-0,093
-191,446	165,621	-0,065	0,067
-190,431	-200,000	-0,017	0,072
-189,417	-110,386	0,047	0,007
-188,402	263,874	0,060	-0,075
-187,387	800,000	0,065	-0,146
-186,373	-123,693	0,070	0,008
-185,358	-155,394	-0,100	0,005
-184,344	75,225	0,072	-0,055
-183,329	-90,499	0,099	0,021
-182,315	96,907	0,058	-0,048
-181,300	-200,000	-0,023	0,112
-180,285	-200,000	0,019	-0,131
-179,271	171,544	0,047	0,049
-178,256	6,081	0,078	-0,041
-177,242	235,812	-0,048	0,058
-176,227	49,665	0,058	-0,039
-175,212	800,000	-0,044	0,090
-174,198	-101,543	0,123	-0,021
-173,183	356,471	-0,066	0,095
-172,169	-122,211	-0,043	-0,005
-171,154	254,815	-0,073	-0,091
-170,139	197,524	0,026	0,029
-169,125	-131,451	-0,084	-0,008
-168,110	-89,256	0,072	-0,015
-167,096	52,617	0,098	0,067
-166,081	800,000	0,034	0,075
-165,066	3,070	-0,098	-0,051
-164,052	800,000	0,048	-0,140
-163,037	-83,846	0,075	0,017
-162,023	-97,614	0,105	0,019
-161,008	60,041	-0,050	0,036
-159,993	8,555	0,036	0,020
-158,979	446,223	-0,034	0,054
-157,964	-39,448	-0,068	0,025
-156,950	-200,000	-0,002	0,028
-155,935	-194,013	-0,032	0,000
-154,920	15,954	0,099	0,056
-153,906	407,867	0,059	0,090
-152,891	632,293	0,037	0,068
-151,877	367,874	0,076	-0,110
-150,862	-200,000	-0,008	-0,204
-149,847	305,995	0,039	0,052
-148,833	73,906	-0,041	-0,031
-147,818	132,079	0,107	0,099
-146,804	-200,000	-0,017	0,057
-145,789	-53,780	0,121	0,039
-144,775	-163,068	0,065	-0,002
-143,760	99,016	-0,107	-0,089
-142,745	434,823	0,018	-0,028
-141,731	61,635	0,079	-0,057
-140,716	754,209	-0,021	-0,041
-139,702	-200,000	-0,003	-0,043
-138,687	2,288	-0,106	-0,055
-137,672	-46,374	-0,025	-0,009
-136,658	-29,904	-0,047	0,019
-135,643	599,948	0,060	0,107
-134,629	-200,000	0,004	-0,063
-133,614	-200,000	0,021	0,168
-132,599	-200,000	-0,003	0,186
-131,585	451,488	-0,057	0,091
-130,570	-154,936	0,119	0,006
-129,556	-144,157	0,151	0,010
-128,541	210,497	-0,043	-0,049
-127,526	-200,000	0,029	-0,125
-126,512	229,699	0,114	0,134
-125,497	1,420	0,103	-0,053
-124,483	100,772	-0,046	-0,038
-123,468	-19,477	-0,109	-0,048
-122,453	-192,029	0,039	0,000
-121,439	101,071	-0,048	0,040
-120,424	150,759	-0,051	0,050
-119,410	161,309	0,085	0,086
-118,395	-92,023	0,137	-0,028
-117,380	109,204	0,073	-0,063
-116,366	543,364	0,031	-0,053
-115,351	-95,863	-0,056	0,011
-114,337	164,673	-0,068	-0,069
-113,322	389,200	-0,016	-0,024
-112,307	517,149	-0,018	-0,030
-111,293	800,000	0,022	-0,050
-110,278	800,000	0,011	-0,029
-109,264	800,000	-0,047	0,146
-108,249	299,102	-0,046	-0,062
-107,234	348,995	-0,045	-0,064
-106,220	-200,000	-0,015	-0,137
-105,205	552,694	-0,040	0,070
-104,191	800,000	-0,021	-0,052
-103,176	-200,000	-0,009	0,129
-102,162	-200,000	0,004	-0,062
-101,147	-200,000	-0,005	-0,050
-100,132	-140,617	-0,073	0,005
-99,118	-200,000	-0,009	0,071
-98,103	49,164	-0,033	0,022
-97,089	582,414	-0,078	0,138
-96,074	48,386	0,022	0,015
-95,059	-200,000	0,030	0,131
-94,045	17,438	-0,143	-0,081
-93,030	-200,000	-0,035	0,121
-92,016	113,400	-0,068	-0,059
-91,001	200,514	0,053	0,059
-89,986	23,495	0,206	0,122
-88,972	-200,000	0,030	0,160
-87,957	24,894	-0,016	0,010
-86,943	800,000	-0,043	-0,127
-85,928	-95,063	-0,068	-0,013
-84,913	-64,777	0,104	-0,030
-83,899	-200,000	0,044	-0,202
-82,884	791,384	-0,013	-0,025
-81,870	143,988	-0,068	0,065
-80,855	-32,917	-0,096	0,038
-79,840	-200,000	-0,038	0,202
-78,826	154,210	-0,078	-0,077
-77,811	-200,000	-0,006	-0,044
-76,797	-87,362	0,080	-0,017
-75,782	800,000	-0,037	0,102
-74,767	90,033	-0,040	0,032
-73,753	251,082	0,050	0,061
-72,738	-200,000	-0,013	0,121
-71,724	68,006	-0,117	-0,086
-70,709	-99,779	0,037	-0,007
-69,694	-25,350	-0,083	-0,035
-68,680	-200,000	0,016	0,108
-67,665	-178,708	0,084	0,001
-66,651	-200,000	0,001	-0,095
-65,636	-39,849	-0,032	-0,012
-64,622	-200,000	0,010	0,182
-63,607	-200,000	0,016	-0,090
-62,592	255,591	0,106	-0,131
-61,578	-147,990	0,041	-0,002
-60,563	-71,852	0,252	0,067
-59,549	-127,416	-0,086	0,009
-58,534	-12,879	-1,971	-0,918
-57,519	-200,000	-0,334	-1,061
-56,505	-200,000	-1,327	-4,989
-55,490	37,904	0,702	0,447
-54,476	800,000	5,289	12,001
-53,461	-200,000	17,462	283,730
-52,446	800,000	726,112	2218,733
-51,432	537,226	1641,801	2810,356
-50,417	110,297	1632,393	1407,299
-49,403	74,904	1285,877	971,072
-48,388	32,129	1027,688	634,772
-47,373	20,125	989,636	571,675
-46,359	18,513	977,730	559,485
-45,344	15,909	973,667	548,613
-44,330	16,076	971,997	548,199
-43,315	15,578	970,423	545,661
-42,300	15,527	969,312	544,850
-41,286	15,489	968,214	544,087
-40,271	15,496	967,257	543,549
-39,257	15,523	966,435	543,154
-38,242	15,531	965,548	542,661
-37,227	15,519	964,754	542,154
-36,213	15,541	963,909	541,727
-35,198	15,518	962,819	541,018
-34,184	15,568	962,251	540,842
-33,169	15,517	961,285	540,113
-32,154	15,573	960,401	539,772
-31,140	15,590	959,386	539,237
-30,125	15,576	958,676	538,773
-29,111	15,587	957,851	538,323
-28,096	15,531	957,404	537,867
-27,082	15,582	956,640	537,583
-26,067	15,598	955,777	537,129
-25,052	15,567	955,120	536,637
-24,038	15,514	954,533	536,117
-23,023	15,492	953,741	535,578
-22,009	15,576	953,225	535,536
-20,994	15,554	952,406	534,985
-19,979	15,498	951,950	534,528
-18,965	15,551	951,219	534,268
-17,950	15,541	950,689	533,916
-16,936	15,493	949,952	533,329
-15,921	15,475	949,397	532,937
-14,906	15,440	948,610	532,361
-13,892	15,402	947,842	531,788
-12,877	15,410	947,302	531,491
-11,863	15,348	946,760	530,968
-10,848	15,363	946,230	530,697
-9,833	15,482	945,801	530,816
-8,819	15,464	945,214	530,408
-7,804	15,402	944,434	529,750
-6,790	15,477	943,808	529,616
-5,775	15,462	943,515	529,383
-4,760	15,451	942,562	528,792
-3,746	15,480	941,890	528,487
-2,731	15,370	941,236	527,751
-1,717	15,323	940,569	527,209
-0,702	15,230	940,097	526,629
0,313	15,131	939,446	526,745
1,327	18,255	937,088	535,222
2,342	26,974	794,704	477,014
3,356	23,642	459,144	270,475
4,371	-3,414	314,288	156,386
5,386	-7,340	295,989	143,296
6,400	-9,472	289,997	138,268
7,415	-9,924	287,598	136,666
8,429	-9,871	286,075	135,983
9,444	-9,985	285,208	135,447
10,459	-9,923	284,611	135,212
11,473	-9,789	283,975	135,028
12,488	-9,827	283,459	134,734
13,502	-10,081	283,110	134,310
14,517	-9,905	282,550	134,202
15,531	-9,875	282,184	134,045
16,546	-9,700	281,750	133,996
17,561	-9,944	281,427	133,596
18,575	-9,797	281,115	133,577
19,590	-9,858	280,704	133,311
20,604	-9,890	280,404	133,126
21,619	-9,914	279,949	132,875
22,634	-9,900	279,703	132,760
23,648	-9,894	279,413	132,616
24,663	-9,850	279,029	132,464
25,677	-10,127	278,935	132,144
26,692	-9,862	278,647	132,248
27,707	-9,788	278,241	132,113
28,721	-9,908	278,063	131,904
29,736	-9,877	277,854	131,822
30,750	-9,945	277,478	131,567
31,765	-9,959	277,329	131,471
32,780	-9,957	277,169	131,386
33,794	-9,841	276,778	131,298
34,809	-9,824	276,545	131,193
35,823	-10,023	276,412	130,930
36,838	-9,709	275,993	131,016
37,853	-9,833	275,887	130,836
38,867	-9,770	275,349	130,629
39,882	-9,949	275,428	130,486
40,896	-9,836	275,155	130,452
41,911	-10,006	274,868	130,145
42,926	-9,847	274,492	130,104
43,940	-9,850	274,420	130,056
44,955	-9,934	274,047	129,788
45,969	-9,999	273,955	129,673
46,984	-10,091	273,693	129,451
47,999	-10,256	273,231	129,067
49,013	-10,454	273,097	128,808
50,028	-10,541	272,736	128,546
51,042	-10,659	272,503	128,315
52,057	-10,524	272,136	128,255
53,071	-10,544	272,065	128,192
54,086	-10,325	271,778	128,248
55,101	-10,352	271,827	128,235
56,115	-10,205	271,661	128,282
57,130	-10,069	271,455	128,298
58,144	-9,727	271,304	128,532
59,159	-9,800	271,034	128,325
60,174	-9,656	270,679	128,278
61,188	-9,736	270,606	128,159
62,203	-9,856	270,463	127,969
63,217	-9,864	270,205	127,828
64,232	-9,852	269,938	127,702
65,247	-9,810	269,755	127,642
66,261	-9,750	269,481	127,556
67,276	-9,974	269,020	127,121
68,290	-10,237	268,959	126,840
69,305	-10,178	268,664	126,744
70,320	-10,116	268,409	126,669
71,334	-10,027	268,413	126,741
72,349	-10,067	268,213	126,598
73,363	-9,920	267,963	126,603
74,378	-9,913	267,726	126,487
75,393	-9,816	267,578	126,493
76,407	-9,919	267,293	126,254
77,422	-9,823	267,178	126,275
78,436	-9,866	266,815	126,054
79,451	-9,911	266,544	125,874
80,466	-9,720	266,420	125,977
81,480	-9,930	266,048	125,600
82,495	-9,940	265,847	125,485
83,509	-9,999	265,902	125,446
84,524	-10,070	265,509	125,185
85,539	-10,207	265,427	125,012
86,553	-9,959	265,111	125,075
87,568	-10,077	264,926	124,870
88,582	-10,041	264,620	124,748
89,597	-10,013	264,558	124,732
90,611	-9,733	264,245	124,826
91,626	-9,826	264,109	124,667
92,641	-9,827	263,995	124,600
93,655	-9,657	263,789	124,645
94,670	-10,006	263,558	124,212
95,684	-9,901	263,465	124,250
96,699	-9,867	263,252	124,170
97,714	-9,818	262,953	124,062
98,728	-9,960	262,591	123,753
99,743	-9,924	262,452	123,709
100,757	-10,133	262,294	123,437
101,772	-9,912	261,992	123,480
102,787	-10,031	261,848	123,296
103,801	-9,778	261,750	123,463
104,816	-9,615	261,553	123,504
105,830	-9,703	261,398	123,342
106,845	-9,946	261,196	123,020
107,860	-10,022	261,095	122,894
108,874	-9,908	260,749	122,822
109,889	-9,993	260,632	122,681
110,903	-9,788	260,282	122,686
111,918	-10,089	260,318	122,425
112,933	-9,835	259,913	122,448
113,947	-9,979	259,867	122,288
114,962	-9,895	259,756	122,300
115,976	-9,837	259,455	122,198
116,991	-9,724	259,171	122,153
118,006	-9,967	259,140	121,913
119,020	-9,811	258,953	121,952
120,035	-9,928	258,827	121,779
121,049	-9,759	258,637	121,826
122,064	-9,820	258,526	121,710
123,079	-9,774	258,164	121,569
124,093	-10,045	258,235	121,354
125,108	-9,919	257,710	121,207
126,122	-10,161	257,448	120,862
127,137	-10,574	257,427	120,481
128,151	-10,358	257,084	120,498
129,166	-10,065	256,977	120,692
130,181	-10,075	256,728	120,555
131,195	-10,224	256,617	120,363
132,210	-9,924	256,514	120,565
133,224	-9,917	256,188	120,407
134,239	-9,862	255,955	120,334
135,254	-9,808	255,765	120,281
136,268	-10,014	255,751	120,085
137,283	-10,261	255,379	119,686
138,297	-10,258	255,066	119,532
139,312	-10,110	254,886	119,565
140,327	-10,084	254,918	119,591
141,341	-9,739	254,820	119,832
142,356	-9,649	254,523	119,759
143,370	-9,887	254,489	119,528
144,385	-9,542	254,247	119,700
145,400	-9,780	254,239	119,481
146,414	-9,797	253,912	119,302
147,429	-9,693	253,703	119,282
148,443	-9,678	253,557	119,216
149,458	-9,665	253,225	119,060
150,473	-9,615	253,137	119,052
151,487	-9,814	252,903	118,761
152,502	-9,721	252,747	118,756
153,516	-9,637	252,576	118,736
154,531	-9,671	252,377	118,603
155,546	-9,551	252,317	118,667
156,560	-9,653	252,001	118,421
157,575	-9,759	251,800	118,226
158,589	-9,820	251,694	118,113
159,604	-9,648	251,433	118,126
160,619	-9,895	251,340	117,863
161,633	-9,778	251,101	117,839
162,648	-9,723	250,974	117,815
163,662	-9,809	250,870	117,683
164,677	-9,726	250,720	117,673
165,692	-9,760	250,620	117,587
166,706	-9,694	250,351	117,506
167,721	-9,793	250,185	117,334
168,735	-9,849	250,078	117,226
169,750	-9,672	249,928	117,295
170,764	-9,693	249,771	117,193
171,779	-9,517	249,690	117,292
172,794	-9,811	249,489	116,940
173,808	-9,637	249,144	116,915
174,823	-9,875	248,872	116,576
175,837	-10,213	248,654	116,180
176,852	-10,021	248,646	116,328
177,867	-9,572	248,532	116,640
178,881	-9,792	248,408	116,387
179,896	-9,666	248,163	116,367
180,910	-9,634	248,028	116,320
181,925	-9,691	247,687	116,103
182,940	-9,703	247,741	116,108
183,954	-9,643	247,515	116,041
184,969	-9,417	247,194	116,069
185,983	-9,583	247,226	115,935
186,998	-9,664	246,891	115,700
188,013	-9,621	246,782	115,675
189,027	-9,654	246,573	115,539
190,042	-9,409	246,413	115,657
191,056	-9,453	246,354	115,582
192,071	-9,531	246,045	115,363
193,086	-9,757	245,934	115,113
194,100	-9,450	245,737	115,265
195,115	-9,441	245,617	115,205
196,129	-9,627	245,422	114,950
197,144	-9,613	245,175	114,835
198,159	-9,799	245,017	114,598
199,173	-9,739	244,840	114,555
200,188	-9,583	244,685	114,601
201,202	-9,816	244,237	114,189
202,217	-10,054	244,092	113,915
203,232	-10,064	243,856	113,786
204,246	-9,990	244,014	113,911
205,261	-9,549	243,666	114,100
206,275	-10,586	243,392	113,112
207,290	-7,289	244,477	116,317
208,304	0,106	246,985	123,624
209,319	4,122	247,989	127,444
210,334	4,630	248,078	127,899
211,348	4,603	248,125	127,889
212,363	4,933	247,854	128,011
213,377	4,915	247,744	127,927
214,392	4,689	247,573	127,642
215,407	4,880	247,244	127,618
216,421	4,659	247,161	127,381
217,436	4,957	247,092	127,580
218,450	5,139	246,936	127,638
219,465	4,759	246,596	127,138
220,480	4,429	246,424	126,767
221,494	4,414	246,284	126,672
222,509	4,354	246,208	126,572
223,523	4,313	245,993	126,416
224,538	4,010	245,572	125,941
225,553	4,173	245,534	126,044
226,567	4,316	245,350	126,055
227,582	4,237	245,298	125,953
228,596	4,470	245,120	126,040
229,611	4,158	244,864	125,643
230,626	4,177	244,542	125,482
231,640	4,284	244,450	125,511
232,655	4,328	244,430	125,525
233,669	4,116	244,153	125,199
234,684	4,137	244,076	125,165
235,699	4,443	244,037	125,383
236,713	4,505	243,847	125,325
237,728	4,323	243,556	125,016
238,742	4,012	243,384	124,665
239,757	3,966	243,315	124,581
240,772	4,106	243,037	124,541
241,786	4,329	242,963	124,672
242,801	4,184	242,793	124,457
243,815	3,923	242,760	124,218
244,830	4,354	242,622	124,484
245,844	4,434	242,333	124,389
246,859	4,226	242,195	124,140
247,874	4,122	242,068	123,980
248,888	4,329	242,004	124,102
249,903	4,248	241,849	123,947
250,917	4,310	241,589	123,852
251,932	4,763	241,501	124,160
252,947	4,459	241,341	123,823
253,961	4,089	241,106	123,395
254,976	4,185	241,118	123,466
255,990	4,492	240,746	123,511
257,005	4,220	240,597	123,206
258,020	3,983	240,622	123,018
259,034	4,067	240,314	122,917
260,049	4,269	240,144	122,980
261,063	4,247	239,901	122,827
262,078	4,134	239,819	122,684
263,093	4,391	239,805	122,871
264,107	4,463	239,608	122,816
265,122	4,042	239,277	122,300
266,136	4,288	239,395	122,546
267,151	4,531	239,230	122,643
268,166	4,190	239,003	122,246
269,180	4,089	238,741	122,021
270,195	4,495	238,841	122,383
271,209	4,851	238,638	122,550
272,224	4,118	238,455	121,865
273,239	3,923	238,130	121,534
274,253	4,005	237,933	121,487
275,268	4,266	237,875	121,653
276,282	4,460	237,749	121,730
277,297	4,238	237,425	121,379
278,312	3,952	237,664	121,265
279,326	4,382	237,319	121,416
280,341	4,272	237,107	121,211
281,355	4,151	237,006	121,053
282,370	4,385	236,800	121,121
283,384	4,185	236,632	120,867
284,399	3,964	236,400	120,564
285,414	3,840	236,289	120,400
286,428	4,037	236,415	120,608
287,443	4,020	236,209	120,479
288,457	4,241	236,007	120,538
289,472	4,502	235,824	120,637
290,487	4,224	235,694	120,343
291,501	4,109	235,427	120,107
292,516	4,018	235,199	119,909
293,530	3,658	235,213	119,625
294,545	4,151	235,200	119,991
295,560	4,214	234,925	119,889
296,574	3,989	234,728	119,604
297,589	4,013	234,596	119,544
298,603	4,350	234,559	119,776
299,618	4,508	234,287	119,749
300,633	4,370	234,194	119,584
301,647	4,511	234,098	119,634
302,662	4,593	234,061	119,667
303,676	4,382	233,892	119,407
304,691	4,559	233,496	119,330
305,706	4,700	233,579	119,472
306,720	4,398	233,331	119,102
307,735	4,517	233,089	119,059
308,749	4,406	233,046	118,941
309,764	4,098	232,735	118,534
310,779	4,141	232,576	118,476
311,793	3,841	232,510	118,201
312,808	4,129	232,145	118,226
313,822	4,081	232,129	118,170
314,837	3,713	231,885	117,754
315,852	3,672	231,847	117,692
316,866	3,824	231,652	117,699
317,881	4,382	231,669	118,125
318,895	4,782	231,531	118,349
319,910	4,825	231,530	118,372
320,925	4,457	231,081	117,850
321,939	4,026	230,954	117,446
322,954	3,974	230,955	117,397
323,968	4,155	230,579	117,333
324,983	4,260	230,527	117,376
325,997	4,565	230,625	117,648
327,012	4,690	230,371	117,602
328,027	4,620	230,075	117,388
329,041	4,638	230,141	117,425
330,056	5,032	230,106	117,696
331,070	4,795	229,953	117,427
332,085	4,623	229,584	117,098
333,100	4,559	229,481	116,986
334,114	4,425	229,268	116,766
335,129	4,603	229,243	116,877
336,143	4,603	229,185	116,837
337,158	4,537	228,990	116,677
338,173	4,558	228,762	116,567
339,187	4,224	228,690	116,268
340,202	4,385	228,476	116,270
341,216	4,617	228,167	116,277
342,231	4,235	228,080	115,935
343,246	4,187	228,015	115,856
344,260	4,395	227,937	115,962
345,275	4,670	227,899	116,139
346,289	4,373	227,809	115,860
347,304	4,681	227,734	116,043
348,319	4,778	227,314	115,890
349,333	4,630	227,073	115,647
350,348	4,142	226,901	115,184
351,362	4,486	226,870	115,415
352,377	4,236	226,676	115,119
353,392	4,076	226,623	114,963
354,406	4,076	226,366	114,822
355,421	195,562	1321,170	1398,357
356,435	156,774	1454,543	1398,352
