DTS Sentinel unit serial number:	SN410029Multiplexer serial number:	ORYXHardware model number:	OX2-SRSoftware version number:	ORYX F/W v4,00 Oryx Data Collector v3.7.2.0data status	okinstallation	B5 Nyhavnadifferential loss correction	single-endedforward channel	channel 2reverse channel	N/Adate	2023/12/12time	07:32:13forward acquisition time	300,00reverse acquisition time	0,00gamma	499,1914k internal	0,3158k external	0,3158temperature offset calibration	1,0000default loss term (dB/km)	0,3820temperature slope calibration	1,0000multiplexer offset coefficient	1,0000multiplexer slope coefficient	1,0000fibre end	0,00T internal ref (°C)	15,14T ext. ref 1 (°C)	-1,15T ext. ref 2 (°C)	-1,45length (m)	temperature (°C)	Stokes	anti-Stokes-744,400	67,367	0,113	0,085
-743,385	-133,575	-0,253	0,023
-742,371	32,177	0,144	0,092
-741,356	-69,289	-0,141	0,040
-740,342	800,000	0,052	0,162
-739,327	-144,850	-0,235	-0,016
-738,312	-73,484	0,150	0,040
-737,298	-136,497	-0,332	0,028
-736,283	144,590	0,155	0,152
-735,269	-79,234	-0,255	0,063
-734,254	-113,255	0,101	-0,014
-733,239	-11,350	-0,545	-0,264
-732,225	58,710	0,215	0,155
-731,210	-104,052	0,120	0,020
-730,196	42,438	0,012	-0,008
-729,181	406,597	-0,042	0,066
-728,167	143,894	0,046	0,045
-727,152	329,780	0,060	0,085
-726,137	319,289	-0,013	0,018
-725,123	-31,809	-0,056	0,023
-724,108	-200,000	0,038	-0,140
-723,094	-28,740	-0,179	-0,076
-722,079	81,991	0,017	0,013
-721,064	-32,042	0,065	-0,027
-720,050	-89,310	-0,034	-0,007
-719,035	751,084	0,034	-0,067
-718,021	35,119	0,050	-0,032
-717,006	-148,707	-0,156	0,009
-715,991	-142,201	-0,076	-0,005
-714,977	-79,605	-0,092	-0,023
-713,962	-112,084	0,160	-0,023
-712,948	79,105	0,111	-0,088
-711,933	2,867	-0,042	0,022
-710,918	302,216	0,084	0,115
-709,904	800,000	-0,033	-0,081
-708,889	365,727	-0,022	-0,032
-707,875	-118,095	-0,094	0,012
-706,860	286,679	0,031	-0,042
-705,845	-31,736	0,031	0,013
-704,831	403,123	-0,011	0,017
-703,816	111,261	-0,080	-0,071
-702,802	800,000	0,062	0,136
-701,787	-121,972	-0,075	-0,009
-700,772	447,752	0,015	0,024
-699,758	800,000	-0,019	0,057
-698,743	-29,488	0,088	-0,037
-697,729	148,728	-0,056	0,056
-696,714	-139,104	0,135	0,011
-695,699	-56,699	-0,113	-0,036
-694,685	-1,106	-0,081	0,042
-693,670	298,972	-0,031	0,042
-692,656	-32,594	0,002	-0,001
-691,641	800,000	-0,037	-0,075
-690,627	-200,000	0,011	0,055
-689,612	-56,933	0,134	0,043
-688,597	-91,325	-0,139	0,029
-687,583	-200,000	-0,002	-0,023
-686,568	25,961	0,041	0,025
-685,554	112,559	0,139	-0,124
-684,539	-16,017	-0,085	-0,040
-683,524	-200,000	0,000	0,024
-682,510	-49,628	0,097	0,034
-681,495	-11,269	0,080	-0,039
-680,481	48,756	-0,067	-0,046
-679,466	800,000	-0,031	-0,093
-678,451	-65,543	-0,023	0,007
-677,437	-200,000	-0,019	-0,066
-676,422	106,599	-0,123	0,108
-675,408	70,612	-0,102	-0,078
-674,393	46,853	-0,079	-0,054
-673,378	47,883	-0,120	-0,082
-672,364	-27,928	-0,054	-0,023
-671,349	466,160	-0,042	-0,069
-670,335	-200,000	-0,015	0,056
-669,320	-200,000	0,014	-0,113
-668,305	294,334	0,075	0,101
-667,291	800,000	-0,027	0,071
-666,276	-50,923	-0,098	0,033
-665,262	62,294	0,084	-0,062
-664,247	-57,442	-0,116	-0,037
-663,232	-19,525	0,046	-0,021
-662,218	-93,484	-0,097	0,020
-661,203	800,000	0,077	0,202
-660,189	287,589	-0,032	-0,043
-659,174	288,025	0,017	0,022
-658,159	83,088	-0,051	0,041
-657,145	-0,870	0,085	-0,044
-656,130	-87,926	0,075	-0,017
-655,116	800,000	-0,029	-0,063
-654,101	372,513	0,013	-0,020
-653,086	-200,000	0,019	0,104
-652,072	-200,000	0,003	0,090
-651,057	-122,125	-0,152	-0,018
-650,043	28,100	-0,071	0,044
-649,028	-200,000	-0,010	-0,051
-648,014	-43,422	0,139	0,051
-646,999	-200,000	0,004	0,044
-645,984	-14,139	-0,056	0,026
-644,970	-200,000	0,018	-0,094
-643,955	5,728	-0,068	0,037
-642,941	-200,000	0,003	-0,123
-641,926	800,000	-0,025	-0,052
-640,911	800,000	0,010	-0,025
-639,897	47,215	0,120	-0,082
-638,882	306,869	0,022	-0,030
-637,868	-147,295	-0,102	0,006
-636,853	432,832	-0,050	-0,081
-635,838	151,235	-0,050	0,050
-634,824	45,181	0,039	0,026
-633,809	85,146	0,056	0,045
-632,795	-96,343	0,125	-0,024
-631,780	-79,773	-0,146	0,036
-630,765	-200,000	-0,024	-0,143
-629,751	-200,000	-0,005	-0,082
-628,736	-130,324	-0,099	0,010
-627,722	-2,386	-0,100	-0,051
-626,707	-200,000	-0,006	0,078
-625,692	228,189	0,065	-0,077
-624,678	359,829	0,076	-0,112
-623,663	343,482	-0,067	-0,096
-622,649	-200,000	0,009	-0,128
-621,634	238,467	-0,034	-0,042
-620,619	332,923	-0,029	0,042
-619,605	-200,000	0,011	0,075
-618,590	800,000	-0,030	0,085
-617,576	-51,945	0,096	0,033
-616,561	27,849	0,101	-0,063
-615,546	30,712	-0,176	-0,111
-614,532	98,714	-0,058	-0,049
-613,517	659,155	0,037	-0,070
-612,503	-200,000	0,000	0,016
-611,488	-200,000	0,034	0,152
-610,474	800,000	-0,023	-0,057
-609,459	800,000	0,061	-0,126
-608,444	-85,402	0,079	-0,018
-607,430	-200,000	0,016	-0,113
-606,415	418,362	-0,085	0,134
-605,401	-200,000	0,005	-0,086
-604,386	-200,000	0,000	-0,029
-603,371	800,000	0,029	0,078
-602,357	-123,508	-0,090	0,010
-601,342	-102,154	-0,137	0,024
-600,328	-200,000	0,009	0,059
-599,313	263,329	-0,049	-0,063
-598,298	-200,000	0,041	0,136
-597,284	-53,414	0,067	-0,022
-596,269	-200,000	-0,002	-0,023
-595,255	-13,150	-0,126	-0,060
-594,240	-98,230	-0,135	-0,025
-593,225	212,950	0,061	-0,071
-592,211	-200,000	-0,002	-0,045
-591,196	-144,121	-0,081	-0,005
-590,182	37,093	-0,112	0,072
-589,167	-110,840	0,013	-0,002
-588,152	240,533	0,072	0,088
-587,138	-200,000	-0,005	0,036
-586,123	161,633	0,117	-0,120
-585,109	800,000	-0,014	-0,043
-584,094	-34,640	-0,115	0,046
-583,079	506,410	0,009	0,015
-582,065	-200,000	-0,012	-0,077
-581,050	-4,602	0,117	-0,059
-580,036	800,000	0,052	-0,119
-579,021	-51,690	0,084	0,029
-578,006	74,273	-0,066	-0,051
-576,992	-200,000	0,020	-0,087
-575,977	-74,844	0,080	0,021
-574,963	331,798	-0,060	0,085
-573,948	20,088	0,097	0,057
-572,934	-80,034	-0,056	0,014
-571,919	708,446	0,035	-0,068
-570,904	-200,000	-0,018	-0,141
-569,890	-128,209	-0,113	-0,012
-568,875	-53,834	-0,104	0,034
-567,861	-200,000	-0,020	0,091
-566,846	-168,517	-0,240	-0,007
-565,831	800,000	0,025	-0,066
-564,817	-200,000	0,016	-0,121
-563,802	285,998	-0,033	-0,044
-562,788	-200,000	-0,020	0,104
-561,773	-73,163	0,149	0,040
-560,758	29,253	-0,075	0,046
-559,744	-200,000	-0,003	0,088
-558,729	800,000	-0,069	0,161
-557,715	-200,000	0,005	-0,080
-556,700	-56,501	-0,130	-0,042
-555,685	399,011	-0,058	0,089
-554,671	-17,786	-0,194	-0,089
-553,656	-102,535	0,067	0,012
-552,642	197,495	0,132	0,148
-551,627	-50,715	0,071	-0,024
-550,612	10,614	0,095	-0,053
-549,598	517,500	-0,087	-0,149
-548,583	-200,000	-0,012	0,141
-547,569	-200,000	-0,022	-0,081
-546,554	63,143	0,128	0,094
-545,539	306,371	0,111	0,152
-544,525	87,744	0,125	0,102
-543,510	93,688	-0,079	-0,066
-542,496	800,000	0,068	-0,155
-541,481	-200,000	-0,016	-0,157
-540,466	800,000	-0,028	-0,059
-539,452	-200,000	0,009	-0,041
-538,437	88,994	0,071	-0,058
-537,423	800,000	0,053	0,128
-536,408	-123,205	-0,097	-0,011
-535,393	361,749	0,084	-0,124
-534,379	-200,000	0,004	0,073
-533,364	-72,468	-0,154	-0,041
-532,350	-50,051	0,030	0,010
-531,335	-116,411	0,062	0,008
-530,321	312,613	0,036	0,050
-529,306	498,769	-0,060	0,102
-528,291	-27,584	-0,058	0,025
-527,277	331,910	0,053	-0,075
-526,262	-5,153	0,141	-0,071
-525,248	95,062	0,094	0,078
-524,233	-200,000	0,022	0,143
-523,218	483,783	-0,054	0,089
-522,204	800,000	-0,037	-0,084
-521,189	-200,000	-0,014	-0,063
-520,175	-200,000	-0,015	-0,129
-519,160	83,628	0,008	-0,006
-518,145	89,613	0,057	-0,046
-517,131	56,817	-0,070	0,050
-516,116	567,930	0,088	0,156
-515,102	288,246	-0,019	-0,025
-514,087	-200,000	-0,004	0,057
-513,072	-200,000	0,001	-0,052
-512,058	-78,097	-0,112	0,028
-511,043	-200,000	-0,015	0,192
-510,029	-200,000	-0,019	0,121
-509,014	115,840	0,049	-0,044
-507,999	399,903	-0,063	-0,096
-506,985	134,504	0,045	-0,042
-505,970	-200,000	-0,016	-0,070
-504,956	-101,901	0,079	-0,014
-503,941	-200,000	-0,006	-0,053
-502,926	-71,503	0,058	-0,016
-501,912	800,000	-0,014	0,043
-500,897	17,488	0,047	-0,027
-499,883	800,000	-0,036	0,107
-498,868	95,865	0,014	-0,012
-497,853	-53,287	-0,082	0,027
-496,839	289,601	-0,093	0,123
-495,824	-21,471	0,118	0,052
-494,810	-200,000	0,016	-0,130
-493,795	-99,616	0,112	-0,020
-492,781	-200,000	-0,000	0,131
-491,766	-29,391	0,091	-0,038
-490,751	-199,464	-0,151	0,001
-489,737	-124,504	0,024	0,003
-488,722	800,000	-0,011	-0,025
-487,708	10,194	0,071	0,039
-486,693	800,000	-0,032	0,095
-485,678	782,112	0,057	-0,115
-484,664	126,905	-0,073	0,068
-483,649	38,163	-0,046	-0,030
-482,635	248,676	-0,033	-0,041
-481,620	800,000	-0,031	0,101
-480,605	15,084	-0,101	0,057
-479,591	800,000	0,067	-0,182
-478,576	-146,885	-0,157	-0,010
-477,562	-200,000	0,008	0,098
-476,547	-3,401	0,077	0,039
-475,532	-200,000	0,001	0,072
-474,518	800,000	0,023	0,053
-473,503	800,000	-0,014	0,041
-472,489	532,875	0,076	0,131
-471,474	630,417	0,037	-0,069
-470,459	-72,599	0,063	-0,017
-469,445	-200,000	0,012	-0,082
-468,430	800,000	-0,085	-0,182
-467,416	-200,000	0,006	0,075
-466,401	174,152	-0,046	0,049
-465,386	262,988	0,067	-0,085
-464,372	-200,000	-0,025	-0,093
-463,357	-98,208	-0,079	-0,015
-462,343	-200,000	0,000	-0,080
-461,328	103,344	0,033	-0,029
-460,313	570,234	0,012	-0,021
-459,299	589,847	0,049	-0,089
-458,284	-152,875	-0,083	0,004
-457,270	-18,037	0,081	0,037
-456,255	-120,774	-0,069	0,008
-455,241	-39,070	-0,038	-0,015
-454,226	-200,000	-0,009	-0,074
-453,211	800,000	0,014	-0,037
-452,197	7,711	0,092	0,050
-451,182	-200,000	-0,029	-0,117
-450,168	-200,000	-0,025	0,086
-449,153	-200,000	0,004	0,054
-448,138	165,163	0,076	-0,079
-447,124	-75,641	-0,101	0,026
-446,109	641,670	-0,030	0,055
-445,095	74,328	0,080	-0,061
-444,080	-200,000	-0,016	-0,057
-443,065	800,000	0,037	0,098
-442,051	800,000	-0,028	0,080
-441,036	-200,000	-0,002	-0,035
-440,022	-171,766	0,027	-0,001
-439,007	116,153	0,067	0,060
-437,992	800,000	-0,030	0,091
-436,978	40,527	-0,192	0,125
-435,963	242,693	0,083	0,101
-434,949	306,324	-0,012	0,016
-433,934	91,553	-0,116	-0,095
-432,919	-37,346	0,144	-0,056
-431,905	-59,534	0,094	-0,029
-430,890	800,000	0,014	-0,033
-429,876	800,000	-0,026	-0,056
-428,861	346,328	-0,024	-0,035
-427,846	-200,000	0,007	0,066
-426,832	-79,703	-0,045	0,011
-425,817	-22,338	0,154	0,068
-424,803	-33,056	-0,066	-0,027
-423,788	-200,000	0,020	-0,071
-422,773	59,503	0,058	0,041
-421,759	-71,234	0,162	-0,044
-420,744	362,264	-0,039	0,058
-419,730	800,000	0,044	0,102
-418,715	21,610	-0,053	0,031
-417,701	-59,649	0,081	0,025
-416,686	75,299	-0,030	0,023
-415,671	367,896	0,011	0,016
-414,657	800,000	0,064	0,141
-413,642	-200,000	-0,011	0,037
-412,628	800,000	-0,010	0,025
-411,613	-200,000	0,003	-0,107
-410,598	411,394	-0,111	-0,172
-409,584	-86,521	-0,124	0,027
-408,569	199,410	0,100	0,111
-407,555	800,000	0,091	0,250
-406,540	-33,142	0,074	-0,030
-405,525	-98,966	0,170	0,031
-404,511	-59,399	0,102	0,032
-403,496	140,627	0,052	-0,050
-402,482	-6,385	-0,019	0,010
-401,467	-200,000	0,015	0,061
-400,452	-200,000	0,043	0,160
-399,438	800,000	-0,038	-0,085
-398,423	5,844	-0,179	-0,096
-397,409	47,801	-0,052	-0,035
-396,394	1,289	0,078	-0,040
-395,379	-30,094	0,074	-0,030
-394,365	40,108	0,136	0,089
-393,350	293,145	0,106	0,141
-392,336	-87,570	-0,035	0,008
-391,321	268,033	0,081	0,104
-390,306	35,947	0,077	0,049
-389,292	800,000	0,047	-0,119
-388,277	800,000	0,026	-0,080
-387,263	800,000	0,014	0,042
-386,248	322,597	0,064	0,088
-385,233	253,097	0,061	0,076
-384,219	47,433	0,041	-0,028
-383,204	49,026	-0,068	-0,046
-382,190	-143,530	-0,062	-0,004
-381,175	-29,971	-0,028	0,011
-380,160	-44,736	0,085	-0,031
-379,146	-200,000	-0,008	-0,104
-378,131	-200,000	-0,007	0,072
-377,117	-67,109	-0,176	-0,050
-376,102	343,434	0,044	0,062
-375,088	-117,960	-0,132	0,017
-374,073	135,625	0,050	-0,047
-373,058	-6,482	-0,036	0,018
-372,044	800,000	-0,060	-0,124
-371,029	-90,681	0,176	0,037
-370,015	-177,527	0,099	-0,002
-369,000	-27,143	-0,136	0,057
-367,985	-200,000	0,009	-0,063
-366,971	-200,000	0,022	-0,092
-365,956	654,503	0,062	0,117
-364,942	-200,000	0,011	0,049
-363,927	155,670	-0,057	-0,057
-362,912	234,217	0,105	0,125
-361,898	-200,000	0,020	0,183
-360,883	800,000	-0,038	-0,087
-359,869	-200,000	0,018	-0,163
-358,854	-200,000	0,016	-0,110
-357,839	93,985	-0,078	-0,064
-356,825	-200,000	-0,005	0,143
-355,810	-192,052	0,113	0,001
-354,796	74,578	-0,095	-0,072
-353,781	-87,320	-0,061	-0,013
-352,766	-15,904	0,087	-0,040
-351,752	633,748	-0,012	0,023
-350,737	101,514	-0,021	0,018
-349,723	800,000	0,020	0,048
-348,708	-135,907	0,042	-0,004
-347,693	-200,000	-0,021	0,078
-346,679	785,533	0,038	-0,076
-345,664	800,000	0,019	0,054
-344,650	530,409	0,041	-0,070
-343,635	134,173	0,085	0,080
-342,620	214,679	0,039	-0,045
-341,606	-84,911	0,071	0,016
-340,591	194,029	0,072	0,079
-339,577	-121,178	-0,104	0,012
-338,562	-200,000	0,034	-0,109
-337,548	-3,399	-0,062	0,031
-336,533	170,037	0,136	0,141
-335,518	800,000	-0,010	-0,031
-334,504	486,809	0,042	0,069
-333,489	-48,912	-0,081	0,028
-332,475	-58,071	-0,130	-0,041
-331,460	-105,918	-0,089	0,014
-330,445	-71,735	-0,100	0,027
-329,431	333,935	-0,070	0,098
-328,416	120,571	0,062	0,056
-327,402	-200,000	0,007	-0,075
-326,387	-107,446	-0,093	0,015
-325,372	800,000	0,021	-0,050
-324,358	-200,000	-0,009	-0,074
-323,343	14,002	-0,149	0,084
-322,329	-200,000	0,004	-0,030
-321,314	177,665	0,117	-0,124
-320,299	59,557	0,113	0,081
-319,285	-19,700	0,079	-0,035
-318,270	120,156	0,058	-0,052
-317,256	800,000	-0,042	-0,102
-316,241	-95,724	-0,131	-0,025
-315,226	-130,088	0,126	0,012
-314,212	-35,000	-0,048	0,019
-313,197	-54,541	0,094	0,031
-312,183	-200,000	0,040	0,131
-311,168	-42,944	-0,039	0,014
-310,153	119,873	0,008	-0,007
-309,139	-200,000	0,001	0,026
-308,124	30,383	0,048	0,029
-307,110	-101,698	-0,050	0,009
-306,095	-75,220	0,008	0,002
-305,080	-200,000	0,022	0,127
-304,066	-153,696	0,039	-0,002
-303,051	-200,000	0,008	-0,093
-302,037	75,129	0,027	0,021
-301,022	-139,596	-0,127	-0,010
-300,008	800,000	0,042	0,085
-298,993	437,693	-0,070	0,110
-297,978	-158,822	-0,139	0,006
-296,964	162,927	0,073	0,074
-295,949	800,000	-0,068	-0,156
-294,935	10,930	-0,029	0,016
-293,920	24,323	-0,099	-0,059
-292,905	82,760	0,052	-0,041
-291,891	617,785	-0,012	0,023
-290,876	69,595	0,104	-0,078
-289,862	-107,408	-0,078	-0,012
-288,847	52,942	-0,067	0,046
-287,832	800,000	-0,025	-0,061
-286,818	-200,000	-0,005	0,084
-285,803	102,385	0,110	-0,093
-284,789	800,000	-0,016	0,046
-283,774	-200,000	0,021	0,070
-282,759	-119,264	-0,049	-0,006
-281,745	194,881	-0,078	0,086
-280,730	230,628	-0,019	0,023
-279,716	-200,000	-0,022	0,109
-278,701	-85,401	0,120	-0,027
-277,686	-71,939	-0,107	-0,028
-276,672	72,921	-0,044	0,033
-275,657	-200,000	-0,000	0,020
-274,643	5,359	-0,112	0,060
-273,628	-33,936	0,054	-0,021
-272,613	103,058	-0,008	-0,007
-271,599	205,477	0,029	0,033
-270,584	-200,000	-0,024	0,170
-269,570	519,868	-0,093	0,158
-268,555	-200,000	-0,007	0,036
-267,540	65,434	-0,073	-0,054
-266,526	-200,000	0,010	-0,121
-265,511	553,478	0,019	-0,033
-264,497	-138,951	0,142	-0,011
-263,482	-200,000	0,026	0,121
-262,467	204,890	0,012	0,013
-261,453	800,000	-0,073	0,163
-260,438	800,000	-0,017	-0,043
-259,424	-2,451	-0,028	0,014
-258,409	800,000	-0,009	0,024
-257,395	-113,241	0,063	-0,009
-256,380	98,887	-0,081	0,068
-255,365	-200,000	0,012	0,156
-254,351	200,363	0,108	0,121
-253,336	-48,082	-0,089	-0,031
-252,322	-104,257	-0,069	-0,011
-251,307	-200,000	-0,093	-0,000
-250,292	-106,068	-0,118	0,019
-249,278	800,000	0,056	0,123
-248,263	-200,000	-0,015	0,084
-247,249	-121,562	0,141	0,017
-246,234	-103,305	-0,121	-0,020
-245,219	-65,117	-0,095	-0,028
-244,205	-49,896	0,018	-0,006
-243,190	91,008	0,069	-0,056
-242,176	-0,687	-0,141	-0,072
-241,161	72,385	0,092	-0,069
-240,146	146,324	-0,082	0,080
-239,132	58,823	-0,023	0,016
-238,117	800,000	-0,037	0,077
-237,103	12,841	-0,033	0,018
-236,088	263,185	0,044	-0,056
-235,073	-153,059	0,091	0,005
-234,059	616,061	-0,044	-0,079
-233,044	105,978	0,084	0,072
-232,030	50,667	0,053	-0,036
-231,015	-200,000	-0,006	-0,086
-230,000	435,824	-0,024	-0,039
-228,986	-46,204	-0,115	-0,041
-227,971	289,216	-0,034	-0,045
-226,957	-200,000	0,008	-0,063
-225,942	800,000	-0,068	0,140
-224,927	744,735	0,034	0,066
-223,913	-87,475	-0,114	-0,025
-222,898	151,279	0,010	-0,010
-221,884	-124,192	0,187	-0,021
-220,869	800,000	0,013	-0,033
-219,855	-51,703	0,023	-0,008
-218,840	153,060	0,090	-0,089
-217,825	800,000	-0,058	-0,127
-216,811	588,675	0,042	-0,074
-215,796	210,688	-0,111	-0,127
-214,782	423,409	-0,026	0,040
-213,767	800,000	-0,020	-0,059
-212,752	188,490	-0,059	0,064
-211,738	-96,318	0,192	0,036
-210,723	270,191	0,052	-0,066
-209,709	800,000	0,035	-0,089
-208,694	25,122	-0,122	-0,073
-207,679	114,047	-0,160	0,140
-206,665	78,100	0,097	-0,074
-205,650	507,550	0,035	-0,059
-204,636	-57,023	0,028	0,009
-203,621	273,036	0,104	0,133
-202,606	-107,276	-0,049	0,008
-201,592	554,557	0,052	-0,090
-200,577	-200,000	0,003	0,051
-199,563	-200,000	0,006	0,079
-198,548	62,955	0,025	0,018
-197,533	-200,000	0,008	0,082
-196,519	-117,793	0,066	-0,008
-195,504	-200,000	-0,003	-0,016
-194,490	-110,608	-0,090	-0,013
-193,475	-13,732	0,116	-0,054
-192,460	800,000	-0,024	-0,076
-191,446	84,193	-0,103	-0,081
-190,431	-200,000	0,021	0,078
-189,417	800,000	0,030	0,079
-188,402	-72,466	-0,153	0,041
-187,387	-73,879	0,117	-0,030
-186,373	-140,473	0,114	-0,008
-185,358	800,000	0,053	-0,121
-184,344	529,644	-0,043	0,073
-183,329	103,919	0,017	-0,014
-182,315	442,378	-0,043	-0,068
-181,300	117,011	-0,062	-0,055
-180,285	20,274	-0,085	-0,049
-179,271	-200,000	-0,031	-0,109
-178,256	-80,894	-0,087	0,021
-177,242	5,483	0,039	0,021
-176,227	373,337	-0,035	0,051
-175,212	-200,000	-0,003	0,052
-174,198	-124,895	-0,095	0,010
-173,183	-12,621	-0,081	0,038
-172,169	588,142	-0,045	-0,080
-171,154	196,766	0,067	-0,074
-170,139	39,124	0,122	0,079
-169,125	-27,222	-0,024	-0,010
-168,110	800,000	0,037	-0,114
-167,096	-1,726	0,155	-0,079
-166,081	800,000	-0,068	-0,155
-165,066	-200,000	-0,034	-0,127
-164,052	800,000	-0,047	0,141
-163,037	108,906	0,062	0,054
-162,023	28,005	-0,075	-0,045
-161,008	244,532	0,037	0,045
-159,993	51,697	0,085	0,058
-158,979	-146,543	0,044	0,003
-157,964	3,841	-0,142	-0,074
-156,950	-101,797	-0,131	0,023
-155,935	424,082	0,060	-0,093
-154,920	89,010	-0,050	-0,040
-153,906	-90,023	0,136	0,028
-152,891	590,624	0,038	-0,068
-151,877	571,927	0,031	0,055
-150,862	44,522	-0,010	-0,007
-149,847	-18,599	-0,155	0,069
-148,833	177,836	0,091	0,096
-147,818	-8,078	-0,064	0,031
-146,804	37,881	-0,026	-0,016
-145,789	-39,223	-0,032	0,012
-144,775	299,042	-0,071	0,094
-143,760	737,025	-0,060	-0,116
-142,745	35,951	-0,165	0,104
-141,731	-23,460	0,058	0,025
-140,716	291,751	0,054	0,071
-139,702	-0,034	-0,097	-0,050
-138,687	261,323	0,029	0,036
-137,672	5,150	-0,094	-0,050
-136,658	-200,000	-0,014	-0,136
-135,643	-200,000	-0,009	-0,072
-134,629	81,288	0,070	0,055
-133,614	720,445	0,015	-0,030
-132,599	6,831	0,118	0,063
-131,585	800,000	0,030	0,076
-130,570	142,241	-0,114	0,109
-129,556	-200,000	0,019	-0,089
-128,541	800,000	-0,052	-0,113
-127,526	-200,000	0,029	-0,162
-126,512	-200,000	0,003	0,126
-125,497	39,562	0,092	0,059
-124,483	-200,000	0,030	0,170
-123,468	-38,270	0,117	-0,044
-122,453	-200,000	-0,017	0,079
-121,439	800,000	0,043	-0,117
-120,424	783,620	-0,007	0,014
-119,410	-93,434	-0,073	-0,014
-118,395	23,803	0,020	-0,012
-117,380	-28,963	0,080	-0,033
-116,366	103,207	0,043	0,036
-115,351	183,493	0,096	-0,102
-114,337	-102,954	-0,076	-0,013
-113,322	-135,266	-0,035	-0,003
-112,307	-129,608	0,049	-0,005
-111,293	344,993	-0,021	-0,030
-110,278	-0,389	0,035	-0,018
-109,264	-200,000	-0,014	-0,088
-108,249	48,772	0,074	-0,050
-107,234	-200,000	-0,004	-0,045
-106,220	199,333	0,050	0,055
-105,205	70,410	-0,135	0,100
-104,191	-200,000	-0,003	0,026
-103,176	155,523	0,061	0,061
-102,162	800,000	-0,015	0,046
-101,147	-200,000	-0,001	-0,132
-100,132	342,614	0,059	-0,084
-99,118	-92,217	-0,033	-0,007
-98,103	148,958	0,062	0,061
-97,089	524,009	0,115	0,195
-96,074	210,430	-0,083	0,094
-95,059	276,670	-0,141	0,180
-94,045	143,104	-0,072	0,069
-93,030	-200,000	-0,014	-0,051
-92,016	755,993	-0,029	0,056
-91,001	91,595	0,077	-0,062
-89,986	-61,163	0,125	-0,038
-88,972	693,481	-0,056	0,105
-87,957	788,614	0,010	0,019
-86,943	-46,635	-0,015	0,005
-85,928	58,534	0,053	-0,037
-84,913	253,051	0,088	-0,108
-83,899	51,460	-0,064	-0,043
-82,884	141,446	0,032	-0,031
-81,870	11,308	0,093	0,051
-80,855	-46,757	0,071	-0,025
-79,840	-100,997	-0,124	0,022
-78,826	-200,000	-0,002	-0,071
-77,811	-200,000	-0,020	-0,091
-76,797	-200,000	-0,003	0,101
-75,782	78,373	0,060	0,046
-74,767	132,057	0,122	0,112
-73,753	77,510	-0,082	-0,063
-72,738	173,007	0,068	-0,070
-71,724	41,045	-0,097	-0,063
-70,709	227,259	0,062	0,073
-69,694	800,000	-0,018	0,056
-68,680	-74,082	0,072	0,019
-67,665	37,043	0,123	0,078
-66,651	800,000	-0,023	0,057
-65,636	-84,177	0,133	-0,030
-64,622	-49,169	-0,104	-0,035
-63,607	-200,000	-0,010	0,060
-62,592	800,000	-0,039	0,094
-61,578	-200,000	-0,025	0,128
-60,563	-200,000	0,025	0,000
-59,549	800,000	-0,045	0,134
-58,534	4,297	-1,929	-1,011
-57,519	-200,000	-0,238	-0,936
-56,505	-200,000	-1,361	-4,786
-55,490	14,415	0,748	0,418
-54,476	800,000	5,332	12,288
-53,461	-200,000	17,815	286,391
-52,446	800,000	728,643	2223,230
-51,432	536,462	1644,591	2812,649
-50,417	109,896	1635,036	1407,235
-49,403	75,949	1286,891	975,723
-48,388	31,971	1027,291	633,799
-47,373	20,175	989,168	571,397
-46,359	18,382	976,918	558,422
-45,344	15,488	973,049	546,721
-44,330	15,702	971,662	546,621
-43,315	15,246	969,524	543,908
-42,300	15,118	968,609	542,956
-41,286	15,131	967,548	542,382
-40,271	15,233	966,483	542,094
-39,257	15,190	965,610	541,443
-38,242	15,189	964,712	540,916
-37,227	15,149	963,863	540,289
-36,213	15,200	963,100	540,006
-35,198	15,126	962,162	539,217
-34,184	15,206	961,470	539,068
-33,169	15,099	960,563	538,191
-32,154	15,202	959,594	537,960
-31,140	15,191	958,521	537,302
-30,125	15,186	957,967	536,953
-29,111	15,144	957,156	536,342
-28,096	15,185	956,493	536,081
-27,082	15,219	955,830	535,798
-26,067	15,159	955,066	535,155
-25,052	15,125	954,279	534,584
-24,038	15,180	953,532	534,320
-23,023	15,168	952,970	533,946
-22,009	15,220	952,349	533,745
-20,994	15,192	951,779	533,314
-19,979	15,153	951,277	532,888
-18,965	15,157	950,508	532,446
-17,950	15,186	949,755	532,096
-16,936	15,089	949,297	531,509
-15,921	15,134	948,425	531,144
-14,906	15,027	947,959	530,522
-13,892	15,076	947,201	530,232
-12,877	15,033	946,410	529,632
-11,863	15,048	946,020	529,438
-10,848	15,038	945,292	528,978
-9,833	15,151	944,918	529,108
-8,819	15,081	944,274	528,505
-7,804	15,119	943,439	528,137
-6,790	15,079	942,988	527,735
-5,775	15,130	942,322	527,505
-4,760	15,144	941,727	527,195
-3,746	15,099	941,150	526,707
-2,731	14,984	940,451	525,931
-1,717	14,939	939,830	525,422
-0,702	14,907	939,201	524,948
0,313	14,702	938,569	524,741
1,327	18,080	936,291	534,055
2,342	27,278	793,239	476,794
3,356	23,920	458,443	270,407
4,371	-3,409	314,127	156,265
5,386	-7,713	296,153	142,955
6,400	-9,456	290,040	138,262
7,415	-9,790	287,609	136,763
8,429	-10,074	286,023	135,718
9,444	-10,098	285,153	135,270
10,459	-10,190	284,568	134,891
11,473	-10,157	283,893	134,591
12,488	-10,047	283,498	134,498
13,502	-10,177	282,913	134,083
14,517	-9,981	282,346	133,991
15,531	-10,056	281,768	133,633
16,546	-10,185	281,715	133,471
17,561	-10,011	281,060	133,317
18,575	-10,129	280,858	133,095
19,590	-10,222	280,571	132,859
20,604	-10,031	280,154	132,832
21,619	-10,245	280,046	132,565
22,634	-10,078	279,490	132,449
23,648	-10,049	279,153	132,305
24,663	-10,069	279,013	132,208
25,677	-10,006	278,647	132,083
26,692	-10,157	278,582	131,896
27,707	-10,098	278,220	131,770
28,721	-10,144	277,987	131,604
29,736	-10,265	277,601	131,294
30,750	-10,128	277,232	131,238
31,765	-10,242	277,148	131,078
32,780	-10,025	276,751	131,084
33,794	-10,243	276,739	130,860
34,809	-10,133	276,396	130,791
35,823	-10,344	276,172	130,474
36,838	-10,204	275,830	130,433
37,853	-10,192	275,682	130,362
38,867	-10,200	275,463	130,239
39,882	-10,200	275,309	130,155
40,896	-10,061	274,934	130,096
41,911	-10,228	274,785	129,858
42,926	-10,136	274,469	129,783
43,940	-10,177	274,129	129,573
44,955	-10,307	273,922	129,342
45,969	-10,156	273,675	129,355
46,984	-10,471	273,427	128,932
47,999	-10,598	273,165	128,679
49,013	-10,624	272,909	128,523
50,028	-10,696	272,616	128,306
51,042	-10,796	272,348	128,075
52,057	-10,975	272,095	127,779
53,071	-10,888	271,932	127,772
54,086	-10,617	271,639	127,874
55,101	-10,541	271,572	127,901
56,115	-10,469	271,546	127,945
57,130	-10,084	271,115	128,085
58,144	-10,003	271,022	128,105
59,159	-9,944	270,784	128,036
60,174	-9,996	270,584	127,881
61,188	-9,988	270,332	127,758
62,203	-10,125	270,231	127,573
63,217	-9,979	269,990	127,582
64,232	-10,002	269,767	127,444
65,247	-10,013	269,389	127,244
66,261	-10,073	269,242	127,109
67,276	-10,218	268,943	126,823
68,290	-10,301	268,708	126,625
69,305	-10,482	268,522	126,361
70,320	-10,458	268,310	126,272
71,334	-10,195	268,026	126,367
72,349	-10,003	267,938	126,489
73,363	-10,046	267,599	126,279
74,378	-10,142	267,554	126,159
75,393	-9,971	267,353	126,208
76,407	-10,146	267,099	125,918
77,422	-10,036	266,940	125,932
78,436	-9,921	266,520	125,826
79,451	-9,901	266,311	125,735
80,466	-10,124	266,150	125,446
81,480	-10,135	265,901	125,307
82,495	-10,122	265,652	125,190
83,509	-10,259	265,590	125,026
84,524	-10,364	265,212	124,743
85,539	-10,267	265,138	124,784
86,553	-10,351	264,815	124,545
87,568	-10,200	264,570	124,555
88,582	-10,274	264,441	124,416
89,597	-10,319	264,131	124,219
90,611	-10,179	264,157	124,346
91,626	-9,898	263,936	124,482
92,641	-10,206	263,676	124,073
93,655	-9,947	263,439	124,182
94,670	-10,139	263,304	123,935
95,684	-10,175	263,071	123,783
96,699	-10,014	262,850	123,811
97,714	-10,069	262,600	123,634
98,728	-10,221	262,336	123,363
99,743	-10,326	262,228	123,208
100,757	-10,415	262,113	123,063
101,772	-10,240	261,813	123,067
102,787	-10,113	261,637	123,087
103,801	-10,080	261,551	123,064
104,816	-10,278	261,477	122,843
105,830	-10,124	261,247	122,860
106,845	-10,058	260,950	122,768
107,860	-9,948	260,638	122,708
108,874	-9,953	260,495	122,624
109,889	-9,984	260,336	122,512
110,903	-10,148	260,163	122,275
111,918	-10,133	259,901	122,154
112,933	-10,086	259,746	122,111
113,947	-10,030	259,606	122,084
114,962	-10,192	259,429	121,847
115,976	-10,040	259,169	121,848
116,991	-9,997	259,047	121,818
118,006	-10,122	258,800	121,581
119,020	-10,008	258,825	121,682
120,035	-10,192	258,633	121,419
121,049	-9,967	258,324	121,461
122,064	-10,055	258,128	121,280
123,079	-10,020	257,936	121,210
124,093	-10,159	257,565	120,904
125,108	-10,339	257,606	120,755
126,122	-10,455	257,349	120,523
127,137	-10,574	257,139	120,309
128,151	-10,581	256,856	120,161
129,166	-10,253	256,643	120,335
130,181	-10,292	256,413	120,183
131,195	-10,147	256,259	120,226
132,210	-10,044	256,177	120,266
133,224	-10,087	255,943	120,108
134,239	-10,132	255,787	119,986
135,254	-10,085	255,769	120,007
136,268	-10,069	255,269	119,775
137,283	-10,359	255,130	119,449
138,297	-10,386	254,744	119,235
139,312	-10,397	254,634	119,163
140,327	-10,189	254,612	119,321
141,341	-10,009	254,643	119,480
142,356	-9,955	254,445	119,423
143,370	-10,039	254,239	119,243
144,385	-9,775	253,908	119,305
145,400	-9,907	253,895	119,174
146,414	-9,911	253,622	119,032
147,429	-9,837	253,427	118,993
148,443	-9,962	253,273	118,803
149,458	-10,107	253,064	118,571
150,473	-10,090	253,075	118,579
151,487	-10,192	252,859	118,381
152,502	-9,959	252,578	118,437
153,516	-9,902	252,300	118,346
154,531	-9,914	252,214	118,284
155,546	-9,769	252,008	118,300
156,560	-9,975	251,846	118,039
157,575	-10,040	251,566	117,842
158,589	-9,920	251,481	117,893
159,604	-9,874	251,212	117,796
160,619	-9,833	250,892	117,670
161,633	-9,937	250,845	117,549
162,648	-9,796	250,759	117,618
163,662	-9,736	250,472	117,523
164,677	-9,941	250,490	117,348
165,692	-9,913	250,329	117,286
166,706	-9,700	250,057	117,328
167,721	-9,778	249,953	117,203
168,735	-9,743	249,683	117,095
169,750	-9,865	249,686	116,983
170,764	-9,911	249,561	116,875
171,779	-9,927	249,322	116,740
172,794	-9,769	249,105	116,760
173,808	-9,734	248,971	116,716
174,823	-10,130	248,673	116,235
175,837	-10,449	248,336	115,800
176,852	-10,033	248,384	116,160
177,867	-9,871	248,201	116,200
178,881	-9,817	248,134	116,203
179,896	-9,846	247,915	116,066
180,910	-9,721	247,653	116,037
181,925	-9,947	247,544	115,788
182,940	-9,891	247,368	115,741
183,954	-9,878	247,114	115,623
184,969	-9,853	247,129	115,640
185,983	-9,718	246,947	115,657
186,998	-9,724	246,675	115,515
188,013	-9,684	246,383	115,400
189,027	-9,694	246,240	115,315
190,042	-9,771	246,159	115,203
191,056	-9,756	245,952	115,108
192,071	-9,829	245,830	114,981
193,086	-9,862	245,697	114,881
194,100	-9,708	245,341	114,831
195,115	-9,777	245,373	114,779
196,129	-9,809	245,055	114,594
197,144	-9,794	244,925	114,535
198,159	-9,663	244,648	114,503
199,173	-9,815	244,495	114,296
200,188	-9,877	244,487	114,231
201,202	-10,268	244,123	113,730
202,217	-10,261	243,782	113,566
203,232	-10,454	243,740	113,378
204,246	-10,044	243,561	113,621
205,261	-9,574	243,453	113,945
206,275	-10,561	243,138	112,981
207,290	-7,369	244,430	116,194
208,304	-0,154	246,675	123,217
209,319	3,350	247,517	126,526
210,334	4,021	247,585	127,103
211,348	4,262	247,399	127,195
212,363	4,193	247,610	127,235
213,377	4,398	247,373	127,271
214,392	4,229	246,984	126,920
215,407	4,070	247,000	126,786
216,421	4,133	246,697	126,671
217,436	4,349	246,586	126,781
218,450	4,276	246,572	126,703
219,465	3,962	246,251	126,268
220,480	3,822	246,051	126,040
221,494	3,872	245,987	126,037
222,509	3,927	245,822	125,986
223,523	3,688	245,561	125,646
224,538	3,471	245,280	125,313
225,553	3,548	245,161	125,304
226,567	3,670	244,965	125,292
227,582	3,724	244,938	125,311
228,596	3,821	244,755	125,286
229,611	3,617	244,469	124,962
230,626	3,623	244,287	124,863
231,640	3,237	244,271	124,529
232,655	3,663	243,959	124,705
233,669	3,681	243,709	124,580
234,684	3,497	243,714	124,423
235,699	3,805	243,635	124,621
236,713	3,730	243,552	124,507
237,728	3,558	243,273	124,213
238,742	3,521	242,969	124,018
239,757	3,616	242,847	124,022
240,772	3,318	242,733	123,712
241,786	3,522	242,567	123,780
242,801	3,610	242,340	123,724
243,815	3,385	242,260	123,491
244,830	3,775	242,230	123,779
245,844	3,837	241,993	123,697
246,859	3,615	241,822	123,420
247,874	3,540	241,716	123,294
248,888	3,513	241,533	123,168
249,903	3,590	241,421	123,162
250,917	3,823	241,218	123,235
251,932	3,840	241,229	123,243
252,947	3,746	240,807	122,941
253,961	3,534	240,694	122,703
254,976	3,763	240,551	122,802
255,990	3,890	240,460	122,846
257,005	3,630	240,186	122,487
258,020	3,573	239,933	122,302
259,034	3,486	239,888	122,199
260,049	3,750	239,675	122,290
261,063	3,524	239,609	122,065
262,078	3,533	239,347	121,928
263,093	3,784	239,388	122,137
264,107	4,027	239,140	122,194
265,122	3,486	239,000	121,681
266,136	3,620	238,969	121,761
267,151	3,899	238,839	121,905
268,166	3,495	238,658	121,482
269,180	3,318	238,398	121,199
270,195	4,133	238,497	121,883
271,209	4,124	238,207	121,717
272,224	3,736	237,978	121,282
273,239	3,239	237,854	120,817
274,253	3,441	237,605	120,838
275,268	3,509	237,530	120,843
276,282	3,657	237,390	120,878
277,297	3,486	237,125	120,598
278,312	3,555	236,936	120,545
279,326	3,614	236,816	120,520
280,341	3,530	236,828	120,449
281,355	3,758	236,566	120,484
282,370	3,689	236,418	120,343
283,384	3,739	236,276	120,300
284,399	3,428	236,164	119,989
285,414	3,308	235,997	119,799
286,428	3,340	235,906	119,767
287,443	3,594	235,653	119,826
288,457	3,668	235,565	119,829
289,472	3,859	235,364	119,865
290,487	3,737	235,231	119,691
291,501	3,485	235,069	119,402
292,516	3,305	234,888	119,159
293,530	3,286	234,694	119,035
294,545	3,573	234,793	119,298
295,560	3,682	234,513	119,230
296,574	3,376	234,304	118,876
297,589	3,492	234,060	118,831
298,603	3,835	234,085	119,099
299,618	3,814	234,025	119,041
300,633	3,658	233,933	118,863
301,647	3,802	233,611	118,801
302,662	3,948	233,706	118,951
303,676	4,139	233,338	118,901
304,691	4,070	233,177	118,755
305,706	3,979	233,166	118,668
306,720	4,095	232,962	118,643
307,735	3,989	232,733	118,435
308,749	3,770	232,523	118,149
309,764	3,686	232,399	118,011
310,779	3,341	232,122	117,594
311,793	3,363	232,010	117,544
312,808	3,393	231,801	117,451
313,822	3,525	231,511	117,395
314,837	3,271	231,579	117,224
315,852	3,371	231,382	117,191
316,866	3,656	231,359	117,386
317,881	3,774	231,204	117,387
318,895	3,723	231,136	117,304
319,910	4,039	230,965	117,447
320,925	3,552	230,800	116,982
321,939	3,611	230,405	116,816
322,954	3,553	230,403	116,760
323,968	3,261	230,321	116,486
324,983	3,637	230,200	116,700
325,997	3,620	230,279	116,718
327,012	3,848	229,809	116,641
328,027	3,479	229,702	116,297
329,041	3,497	229,644	116,271
330,056	4,126	229,681	116,756
331,070	4,367	229,546	116,860
332,085	4,204	229,379	116,641
333,100	3,973	229,063	116,296
334,114	3,916	228,922	116,170
335,129	3,995	228,740	116,127
336,143	4,095	228,622	116,132
337,158	4,249	228,582	116,217
338,173	4,138	228,356	116,009
339,187	3,772	228,180	115,634
340,202	3,946	228,125	115,727
341,216	3,765	227,917	115,475
342,231	3,545	227,717	115,198
343,246	3,753	227,618	115,293
344,260	3,772	227,639	115,308
345,275	4,088	227,421	115,424
346,289	4,147	227,324	115,408
347,304	4,165	227,102	115,299
348,319	4,041	226,942	115,115
349,333	4,032	226,717	114,984
350,348	3,732	226,678	114,730
351,362	3,855	226,536	114,739
352,377	3,678	226,228	114,441
353,392	3,503	226,100	114,236
354,406	3,555	226,077	114,253
355,421	192,970	1323,553	1392,186
356,435	154,565	1457,263	1392,172
