DTS Sentinel unit serial number:	SN410029Multiplexer serial number:	ORYXHardware model number:	OX2-SRSoftware version number:	ORYX F/W v4,00 Oryx Data Collector v3.7.2.0data status	okinstallation	B5 Nyhavnadifferential loss correction	single-endedforward channel	channel 2reverse channel	N/Adate	2023/12/12time	00:57:13forward acquisition time	300,00reverse acquisition time	0,00gamma	499,1914k internal	0,3156k external	0,3156temperature offset calibration	1,0000default loss term (dB/km)	0,3820temperature slope calibration	1,0000multiplexer offset coefficient	1,0000multiplexer slope coefficient	1,0000fibre end	0,00T internal ref (°C)	16,01T ext. ref 1 (°C)	-0,41T ext. ref 2 (°C)	-0,69length (m)	temperature (°C)	Stokes	anti-Stokes-744,400	-200,000	0,013	-0,045
-743,385	-116,616	-0,303	0,041
-742,371	-70,003	0,140	0,039
-741,356	39,227	-0,276	0,182
-740,342	-200,000	0,016	0,060
-739,327	-50,488	-0,256	0,089
-738,312	-159,998	0,094	0,004
-737,298	-13,046	-0,221	0,105
-736,283	37,980	0,166	0,109
-735,269	-35,878	-0,165	0,065
-734,254	-7,880	0,059	-0,029
-733,239	-55,573	-0,454	-0,149
-732,225	-37,344	0,085	-0,033
-731,210	-200,000	-0,013	0,120
-730,196	-23,477	-0,077	0,034
-729,181	472,807	0,084	-0,141
-728,167	583,721	0,050	-0,091
-727,152	263,140	-0,044	0,056
-726,137	670,318	-0,049	-0,093
-725,123	800,000	0,022	-0,048
-724,108	-200,000	0,016	-0,165
-723,094	28,142	-0,022	0,013
-722,079	-36,601	-0,040	-0,016
-721,064	-20,558	0,036	-0,016
-720,050	141,581	-0,047	-0,046
-719,035	800,000	-0,059	-0,151
-718,021	800,000	0,026	-0,059
-717,006	-157,229	-0,056	-0,002
-715,991	183,536	-0,107	-0,117
-714,977	39,338	0,043	0,028
-713,962	-200,000	0,002	-0,011
-712,948	21,655	-0,061	-0,036
-711,933	800,000	0,058	-0,162
-710,918	-177,608	-0,159	-0,003
-709,904	299,265	-0,044	-0,059
-708,889	148,768	0,027	0,027
-707,875	-52,471	-0,066	0,022
-706,860	199,558	0,058	0,066
-705,845	9,263	0,023	-0,013
-704,831	64,369	0,096	-0,071
-703,816	219,948	-0,082	0,097
-702,802	126,960	0,062	0,058
-701,787	-20,746	-0,099	-0,045
-700,772	-140,945	-0,037	-0,003
-699,758	44,440	0,091	-0,061
-698,743	-56,722	-0,047	-0,015
-697,729	-10,520	-0,099	-0,048
-696,714	-174,303	-0,103	-0,002
-695,699	-25,887	-0,046	0,020
-694,685	-70,155	-0,094	-0,026
-693,670	-200,000	-0,008	-0,126
-692,656	-200,000	-0,030	-0,134
-691,641	800,000	-0,046	0,126
-690,627	-117,166	0,141	0,019
-689,612	-200,000	0,025	0,106
-688,597	-152,169	-0,192	0,010
-687,583	-200,000	-0,007	-0,154
-686,568	-96,554	-0,085	-0,016
-685,554	158,400	0,035	-0,036
-684,539	301,392	0,038	0,052
-683,524	-28,263	-0,012	0,005
-682,510	267,993	0,107	0,139
-681,495	-129,254	-0,052	-0,005
-680,481	-200,000	0,001	0,044
-679,466	-160,366	-0,099	0,004
-678,451	-197,762	-0,121	-0,001
-677,437	177,200	0,068	0,072
-676,422	-70,931	-0,042	0,012
-675,408	560,519	0,048	-0,086
-674,393	302,116	-0,025	0,034
-673,378	800,000	-0,023	-0,063
-672,364	20,346	-0,130	-0,077
-671,349	-165,701	0,050	-0,002
-670,335	-200,000	-0,018	0,161
-669,320	216,183	0,069	-0,081
-668,305	-166,805	-0,138	-0,004
-667,291	-200,000	-0,021	0,115
-666,276	-200,000	-0,035	-0,136
-665,262	-200,000	-0,039	-0,141
-664,247	291,658	-0,088	-0,118
-663,232	76,190	-0,102	-0,080
-662,218	-61,011	0,080	0,025
-661,203	-76,448	0,118	0,030
-660,189	-90,595	-0,057	0,012
-659,174	-200,000	-0,004	-0,050
-658,159	132,040	-0,138	0,131
-657,145	-200,000	-0,013	-0,072
-656,130	777,141	-0,060	0,122
-655,116	606,514	0,069	0,127
-654,101	800,000	0,034	-0,084
-653,086	31,672	-0,152	0,096
-652,072	-150,339	-0,093	0,005
-651,057	-200,000	-0,023	-0,148
-650,043	89,909	-0,083	-0,068
-649,028	-169,923	-0,082	0,002
-648,014	-20,592	0,079	0,036
-646,999	-200,000	-0,008	0,062
-645,984	-14,918	-0,069	0,032
-644,970	4,075	0,068	-0,037
-643,955	665,711	-0,023	-0,044
-642,941	50,928	-0,089	0,062
-641,926	800,000	-0,024	-0,061
-640,911	9,908	-0,064	0,035
-639,897	-25,216	0,083	-0,036
-638,882	-200,000	-0,007	-0,131
-637,868	-14,834	-0,072	-0,034
-636,853	-179,293	-0,174	0,003
-635,838	176,088	-0,099	-0,105
-634,824	49,324	-0,081	0,056
-633,809	-87,182	-0,094	-0,021
-632,795	37,767	-0,084	-0,055
-631,780	40,760	0,056	-0,037
-630,765	-48,857	0,107	0,038
-629,751	223,334	0,042	-0,049
-628,736	221,576	0,075	-0,088
-627,722	239,571	-0,088	-0,108
-626,707	73,086	0,063	0,048
-625,692	-200,000	0,005	0,016
-624,678	-200,000	0,021	0,158
-623,663	-200,000	0,001	-0,011
-622,649	302,924	-0,025	0,034
-621,634	-6,960	0,042	-0,021
-620,619	39,349	0,086	0,056
-619,605	29,366	0,098	-0,061
-618,590	-200,000	0,014	0,130
-617,576	-43,353	0,073	0,027
-616,561	-200,000	0,037	-0,146
-615,546	420,785	-0,067	-0,106
-614,532	-200,000	0,002	-0,051
-613,517	800,000	-0,011	-0,025
-612,503	173,909	-0,049	-0,052
-611,488	143,007	0,019	-0,019
-610,474	75,264	-0,054	0,042
-609,459	-200,000	0,044	0,182
-608,444	-127,334	-0,093	-0,010
-607,430	-200,000	-0,001	-0,109
-606,415	-4,200	-0,112	-0,057
-605,401	-200,000	0,004	0,112
-604,386	149,682	0,039	-0,039
-603,371	320,443	-0,031	0,044
-602,357	-63,460	-0,048	0,014
-601,342	-29,007	-0,132	0,055
-600,328	-110,429	-0,076	-0,011
-599,313	-138,134	-0,182	0,015
-598,298	345,299	0,053	0,076
-597,284	15,110	0,103	0,059
-596,269	-200,000	0,007	0,055
-595,255	-56,626	-0,070	-0,023
-594,240	-200,000	-0,031	-0,101
-593,225	-50,089	-0,102	0,035
-592,211	522,179	0,032	-0,055
-591,196	29,691	0,019	0,012
-590,182	-58,585	0,112	0,035
-589,167	110,199	0,024	-0,021
-588,152	-24,072	0,016	-0,007
-587,138	289,710	0,030	0,041
-586,123	-60,982	-0,057	0,017
-585,109	-200,000	0,003	0,109
-584,094	244,334	0,054	-0,067
-583,079	216,550	0,063	0,074
-582,065	-200,000	0,020	0,099
-581,050	-200,000	0,022	0,169
-580,036	-31,830	-0,070	0,029
-579,021	-200,000	0,002	-0,086
-578,006	-200,000	0,015	-0,075
-576,992	79,724	-0,057	-0,045
-575,977	30,755	0,038	-0,024
-574,963	354,752	-0,085	0,124
-573,948	-46,381	-0,109	0,039
-572,934	-187,853	0,068	-0,001
-571,919	-82,200	-0,093	-0,022
-570,904	41,410	-0,062	-0,041
-569,890	-200,000	0,036	-0,134
-568,875	-124,891	-0,083	0,009
-567,861	-43,846	-0,069	0,025
-566,846	800,000	-0,108	-0,254
-565,831	-200,000	0,006	-0,073
-564,817	-24,677	0,164	0,071
-563,802	118,353	-0,086	-0,077
-562,788	402,894	-0,091	-0,140
-561,773	-77,584	-0,072	-0,018
-560,758	22,886	-0,057	-0,034
-559,744	-161,155	-0,028	0,001
-558,729	113,608	0,052	0,046
-557,715	-103,065	-0,086	0,015
-556,700	-200,000	-0,002	0,041
-555,685	800,000	0,067	0,162
-554,671	-14,977	0,071	0,033
-553,656	9,585	0,078	0,043
-552,642	-81,624	-0,172	-0,041
-551,627	422,499	0,035	0,055
-550,612	348,102	0,007	0,010
-549,598	-115,970	-0,119	-0,016
-548,583	-200,000	-0,001	0,077
-547,569	158,087	0,009	0,009
-546,554	-24,275	0,123	0,054
-545,539	358,353	0,033	0,049
-544,525	-200,000	0,004	0,044
-543,510	33,464	0,051	0,033
-542,496	42,299	-0,087	-0,058
-541,481	169,512	-0,018	-0,019
-540,466	322,378	-0,018	0,025
-539,452	39,453	0,071	0,046
-538,437	112,356	0,045	0,040
-537,423	800,000	-0,017	-0,052
-536,408	-200,000	0,004	-0,106
-535,393	-200,000	0,003	0,016
-534,379	-59,758	-0,111	0,035
-533,364	-54,572	-0,047	-0,015
-532,350	-120,584	0,298	-0,036
-531,335	456,992	-0,027	-0,044
-530,321	-200,000	-0,015	0,063
-529,306	-200,000	-0,012	0,108
-528,291	-119,118	-0,067	-0,008
-527,277	208,080	0,030	0,034
-526,262	217,278	0,070	-0,082
-525,248	800,000	-0,015	0,048
-524,233	23,038	-0,043	-0,025
-523,218	354,692	0,071	0,103
-522,204	800,000	0,075	0,205
-521,189	381,572	-0,058	0,087
-520,175	345,542	-0,020	-0,029
-519,160	-200,000	0,017	-0,121
-518,145	-56,126	0,058	0,019
-517,131	-200,000	0,015	0,121
-516,116	-147,917	0,108	0,006
-515,102	429,404	0,042	0,067
-514,087	-200,000	0,003	-0,061
-513,072	-179,853	-0,116	-0,002
-512,058	40,982	-0,057	-0,038
-511,043	90,859	-0,080	0,066
-510,029	579,039	0,048	-0,086
-509,014	-200,000	0,022	-0,120
-507,999	800,000	0,016	0,036
-506,985	268,796	-0,037	-0,048
-505,970	491,712	-0,081	-0,136
-504,956	-27,853	0,107	-0,045
-503,941	-73,622	0,074	-0,020
-502,926	69,099	0,109	-0,082
-501,912	-87,766	-0,110	0,024
-500,897	-114,181	0,102	0,014
-499,883	12,027	-0,082	0,046
-498,868	196,890	-0,100	-0,111
-497,853	-21,623	0,111	0,049
-496,839	-200,000	0,012	-0,113
-495,824	137,412	0,112	-0,107
-494,810	-29,369	-0,104	0,043
-493,795	-200,000	-0,005	0,029
-492,781	30,828	-0,081	-0,050
-491,766	-68,310	0,124	-0,035
-490,751	-200,000	0,048	-0,159
-489,737	116,567	-0,019	-0,017
-488,722	-25,002	0,105	-0,045
-487,708	800,000	0,066	-0,146
-486,693	-66,041	-0,175	-0,051
-485,678	241,061	-0,141	-0,173
-484,664	-110,191	0,017	0,003
-483,649	-63,590	-0,056	0,017
-482,635	105,537	0,093	-0,080
-481,620	217,288	0,075	0,088
-480,605	474,524	-0,048	-0,079
-479,591	-103,785	0,108	-0,018
-478,576	204,259	-0,014	-0,015
-477,562	540,768	-0,014	0,024
-476,547	-75,394	-0,128	-0,033
-475,532	-200,000	0,018	-0,105
-474,518	800,000	0,018	0,058
-473,503	-39,695	-0,089	0,034
-472,489	-200,000	0,001	0,039
-471,474	800,000	0,043	0,131
-470,459	27,685	-0,108	0,066
-469,445	-115,231	-0,022	-0,003
-468,430	-80,469	-0,117	0,028
-467,416	595,361	0,035	0,064
-466,401	-120,684	0,035	0,004
-465,386	654,600	-0,053	0,099
-464,372	41,252	0,022	0,014
-463,357	-124,828	0,085	0,009
-462,343	800,000	0,018	-0,054
-461,328	800,000	-0,021	0,067
-460,313	-200,000	-0,001	-0,025
-459,299	800,000	0,077	0,156
-458,284	-143,700	-0,077	0,005
-457,270	-111,834	-0,071	-0,010
-456,255	-200,000	0,001	0,077
-455,241	800,000	-0,026	0,075
-454,226	214,383	0,080	0,093
-453,211	-104,127	-0,066	0,011
-452,197	-200,000	-0,023	0,089
-451,182	-35,538	-0,055	0,022
-450,168	-200,000	-0,001	-0,026
-449,153	800,000	-0,039	-0,099
-448,138	800,000	0,032	-0,081
-447,124	-47,690	-0,040	0,014
-446,109	-110,216	-0,119	-0,018
-445,095	5,584	0,036	-0,019
-444,080	272,970	0,018	-0,023
-443,065	696,463	0,041	0,079
-442,051	276,737	-0,039	-0,051
-441,036	17,714	0,101	-0,058
-440,022	-48,581	0,027	0,009
-439,007	102,425	0,091	-0,078
-437,992	-96,555	-0,033	-0,006
-436,978	204,173	-0,045	-0,051
-435,963	-111,676	0,121	0,018
-434,949	102,182	-0,090	0,076
-433,934	123,221	0,032	-0,029
-432,919	140,123	-0,051	-0,049
-431,905	635,774	-0,026	0,048
-430,890	800,000	-0,020	-0,050
-429,876	800,000	-0,028	0,086
-428,861	618,655	0,016	0,029
-427,846	-153,039	0,035	-0,002
-426,832	-200,000	-0,004	0,161
-425,817	454,922	-0,040	-0,065
-424,803	607,654	0,061	-0,111
-423,788	-101,336	0,033	-0,006
-422,773	800,000	-0,032	0,075
-421,759	-17,969	0,095	-0,043
-420,744	-120,853	0,054	0,007
-419,730	-96,242	-0,111	-0,021
-418,715	800,000	0,054	-0,141
-417,701	292,531	0,080	-0,106
-416,686	273,588	0,075	0,096
-415,671	402,842	-0,129	0,199
-414,657	-162,953	0,022	0,001
-413,642	-18,127	0,056	-0,025
-412,628	-200,000	-0,001	0,158
-411,613	56,636	0,064	-0,045
-410,598	409,513	-0,081	0,125
-409,584	-46,789	0,053	-0,019
-408,569	270,889	0,106	0,137
-407,555	-40,626	0,011	0,004
-406,540	-161,078	0,044	0,002
-405,525	-200,000	-0,001	-0,006
-404,511	122,810	-0,061	-0,055
-403,496	345,873	0,051	-0,073
-402,482	-30,256	-0,116	-0,048
-401,467	175,843	0,104	-0,110
-400,452	-143,907	-0,105	-0,007
-399,438	367,937	0,054	-0,080
-398,423	-200,000	-0,020	0,100
-397,409	-9,406	0,008	-0,004
-396,394	-200,000	-0,006	0,021
-395,379	-153,104	0,040	0,002
-394,365	260,156	0,088	-0,111
-393,350	624,205	-0,040	-0,074
-392,336	148,295	0,056	0,055
-391,321	-29,756	-0,029	-0,012
-390,306	614,971	-0,087	0,159
-389,292	-200,000	0,010	-0,083
-388,277	212,019	0,046	0,053
-387,263	800,000	0,024	0,075
-386,248	165,321	0,037	-0,038
-385,233	-200,000	-0,017	0,130
-384,219	11,172	-0,051	0,029
-383,204	-200,000	-0,011	-0,071
-382,190	-200,000	0,013	0,095
-381,175	149,738	0,046	-0,046
-380,160	800,000	0,020	-0,043
-379,146	-88,666	0,071	-0,015
-378,131	625,405	-0,070	0,128
-377,117	-200,000	0,017	0,074
-376,102	-45,148	-0,150	0,054
-375,088	94,161	-0,183	-0,151
-374,073	-200,000	0,003	-0,016
-373,058	-74,132	0,038	0,010
-372,044	-200,000	-0,020	0,117
-371,029	-139,138	0,083	0,006
-370,015	-116,955	0,067	-0,009
-369,000	-133,845	0,126	-0,011
-367,985	351,832	-0,031	-0,045
-366,971	256,753	-0,056	0,070
-365,956	-200,000	0,028	0,108
-364,942	-119,694	0,071	0,009
-363,927	-76,057	0,265	0,067
-362,912	-120,120	0,077	-0,009
-361,898	388,204	0,064	0,096
-360,883	195,529	-0,056	0,062
-359,869	-50,153	0,141	0,048
-358,854	800,000	-0,046	0,139
-357,839	-200,000	0,017	-0,136
-356,825	800,000	-0,053	0,137
-355,810	-200,000	0,023	0,079
-354,796	-141,569	-0,054	-0,004
-353,781	-200,000	0,008	0,137
-352,766	146,670	-0,080	0,078
-351,752	-109,585	-0,026	0,004
-350,737	229,352	0,066	0,078
-349,723	-200,000	0,002	-0,022
-348,708	-200,000	-0,014	-0,050
-347,693	44,373	0,072	0,048
-346,679	-200,000	-0,007	0,029
-345,664	-94,877	-0,079	0,015
-344,650	0,583	0,060	0,031
-343,635	-4,638	-0,109	0,054
-342,620	-110,280	0,150	-0,023
-341,606	124,699	0,105	0,096
-340,591	-200,000	0,013	-0,108
-339,577	91,702	0,049	-0,040
-338,562	-200,000	-0,000	-0,017
-337,548	267,007	-0,057	-0,073
-336,533	52,405	0,084	0,058
-335,518	-181,796	0,105	0,001
-334,504	-134,174	0,020	-0,002
-333,489	765,071	-0,036	-0,072
-332,475	-200,000	-0,003	0,065
-331,460	17,726	-0,056	-0,032
-330,445	-200,000	-0,021	0,117
-329,431	204,147	-0,091	-0,103
-328,416	-200,000	0,013	0,144
-327,402	-200,000	0,002	0,029
-326,387	-200,000	0,034	-0,185
-325,372	107,617	0,041	-0,036
-324,358	-27,941	-0,065	-0,027
-323,343	800,000	0,040	-0,081
-322,329	188,247	0,019	-0,021
-321,314	-200,000	-0,021	0,101
-320,299	301,326	0,085	0,115
-319,285	-84,329	-0,030	-0,007
-318,270	-200,000	-0,003	0,033
-317,256	113,850	0,118	-0,104
-316,241	-200,000	0,017	0,142
-315,226	-9,450	0,055	0,026
-314,212	65,873	0,056	-0,042
-313,197	-19,360	0,104	0,046
-312,183	-33,718	-0,157	-0,062
-311,168	-200,000	0,005	-0,076
-310,153	159,494	0,023	-0,023
-309,139	7,551	-0,068	-0,037
-308,124	654,803	0,037	0,070
-307,110	218,034	0,015	0,017
-306,095	178,993	0,095	0,101
-305,080	137,971	0,061	0,058
-304,066	358,362	-0,059	-0,086
-303,051	89,155	0,029	0,023
-302,037	-175,629	-0,149	-0,003
-301,022	436,129	0,081	0,128
-300,008	800,000	-0,018	0,049
-298,993	800,000	0,037	0,107
-297,978	-10,333	0,078	0,037
-296,964	-131,654	0,075	0,007
-295,949	-97,946	0,052	0,010
-294,935	5,865	-0,143	0,076
-293,920	18,993	-0,081	0,047
-292,905	203,602	0,071	0,080
-291,891	486,930	0,040	-0,067
-290,876	4,179	-0,184	-0,097
-289,862	-21,283	0,045	-0,020
-288,847	-200,000	0,029	-0,134
-287,832	-177,612	-0,054	0,001
-286,818	800,000	-0,022	0,053
-285,803	25,524	0,100	0,060
-284,789	-76,822	0,155	0,039
-283,774	800,000	0,073	0,179
-282,759	-45,503	0,013	0,005
-281,745	118,245	-0,104	-0,093
-280,730	800,000	-0,029	0,061
-279,716	135,670	-0,081	-0,076
-278,701	8,579	-0,044	-0,024
-277,686	302,735	-0,029	0,039
-276,672	-99,106	0,035	0,006
-275,657	-136,868	0,118	0,010
-274,643	-156,668	-0,089	0,004
-273,628	-200,000	0,018	-0,067
-272,613	117,296	0,084	0,075
-271,599	204,014	-0,041	0,046
-270,584	800,000	0,042	0,113
-269,570	-15,083	-0,101	0,046
-268,555	-164,720	-0,095	0,003
-267,540	300,111	0,051	-0,068
-266,526	-200,000	-0,072	-0,239
-265,511	-4,219	0,050	-0,025
-264,497	129,955	-0,094	-0,087
-263,482	-33,624	0,089	-0,036
-262,467	800,000	-0,032	0,074
-261,453	-74,898	-0,028	-0,007
-260,438	-145,025	-0,100	0,006
-259,424	121,697	0,031	-0,028
-258,409	-0,428	0,053	0,027
-257,395	-200,000	0,018	0,150
-256,380	-35,595	-0,120	0,047
-255,365	-103,388	-0,005	0,001
-254,351	266,675	0,021	0,026
-253,336	-60,983	0,038	-0,011
-252,322	-36,404	-0,164	-0,064
-251,307	-200,000	0,017	0,056
-250,292	-85,339	0,022	0,005
-249,278	800,000	-0,026	0,078
-248,263	417,207	0,046	0,072
-247,249	-107,856	0,184	0,029
-246,234	315,971	-0,029	-0,040
-245,219	-200,000	0,000	0,037
-244,205	-76,199	-0,110	-0,028
-243,190	-60,469	-0,063	0,019
-242,176	-200,000	0,008	-0,189
-241,161	-200,000	0,029	-0,122
-240,146	800,000	0,042	-0,089
-239,132	-32,082	-0,162	0,065
-238,117	800,000	-0,049	-0,113
-237,103	-200,000	-0,002	-0,011
-236,088	-5,832	0,036	-0,018
-235,073	-31,644	0,050	-0,020
-234,059	-200,000	-0,025	-0,116
-233,044	800,000	0,010	-0,023
-232,030	108,532	0,089	0,077
-231,015	-200,000	0,005	-0,027
-230,000	115,174	-0,089	-0,078
-228,986	-152,375	-0,052	0,003
-227,971	-200,000	-0,013	0,046
-226,957	-25,967	0,109	-0,046
-225,942	-5,494	0,036	0,018
-224,927	77,915	-0,101	0,078
-223,913	800,000	-0,050	-0,148
-222,898	-200,000	0,018	-0,061
-221,884	-200,000	0,016	-0,053
-220,869	19,525	0,114	0,066
-219,855	800,000	0,038	0,086
-218,840	412,937	-0,041	-0,064
-217,825	-159,796	-0,149	-0,006
-216,811	-49,866	-0,059	0,020
-215,796	-200,000	-0,019	-0,076
-214,782	-118,666	-0,076	-0,010
-213,767	800,000	0,021	-0,062
-212,752	54,382	0,093	-0,064
-211,738	479,051	-0,091	-0,150
-210,723	-46,738	-0,066	0,023
-209,709	800,000	-0,053	-0,129
-208,694	-200,000	0,021	-0,143
-207,679	-200,000	-0,005	0,081
-206,665	245,162	0,105	0,128
-205,650	739,003	-0,037	-0,073
-204,636	-200,000	0,001	0,054
-203,621	800,000	0,045	-0,112
-202,606	152,287	0,038	0,037
-201,592	-200,000	-0,005	0,112
-200,577	-143,023	-0,103	0,007
-199,563	-180,966	0,032	0,000
-198,548	-200,000	0,001	0,065
-197,533	-200,000	0,005	-0,016
-196,519	-200,000	-0,003	-0,089
-195,504	-51,002	-0,083	0,028
-194,490	125,623	-0,091	-0,083
-193,475	-39,778	0,053	-0,020
-192,460	-83,579	-0,172	0,039
-191,446	-13,338	0,126	0,059
-190,431	137,164	0,073	0,069
-189,417	-177,926	-0,129	0,002
-188,402	-46,886	-0,077	-0,027
-187,387	-200,000	0,012	-0,093
-186,373	-200,000	0,001	-0,167
-185,358	-1,534	0,035	-0,018
-184,344	252,911	-0,028	-0,035
-183,329	800,000	-0,038	0,102
-182,315	800,000	0,004	-0,008
-181,300	-60,765	0,119	-0,036
-180,285	392,117	-0,009	-0,013
-179,271	103,650	-0,122	-0,104
-178,256	-157,269	-0,051	-0,002
-177,242	-200,000	0,018	0,112
-176,227	-110,022	-0,102	0,015
-175,212	800,000	-0,013	-0,031
-174,198	271,025	0,056	0,072
-173,183	159,186	0,022	-0,022
-172,169	301,091	0,072	-0,096
-171,154	-200,000	0,006	-0,084
-170,139	80,835	0,114	-0,089
-169,125	800,000	-0,032	0,075
-168,110	664,789	0,044	0,083
-167,096	381,171	0,014	0,021
-166,081	269,004	0,023	0,030
-165,066	222,283	0,051	0,060
-164,052	394,663	0,055	-0,082
-163,037	161,803	0,021	0,022
-162,023	-11,468	0,060	0,028
-161,008	-53,286	0,035	-0,012
-159,993	800,000	0,022	-0,048
-158,979	-200,000	-0,004	-0,113
-157,964	800,000	-0,028	-0,079
-156,950	-200,000	-0,009	-0,087
-155,935	-108,597	0,033	0,005
-154,920	-23,218	0,149	-0,065
-153,906	-27,366	0,131	-0,055
-152,891	-200,000	0,024	-0,139
-151,877	-200,000	-0,003	-0,042
-150,862	-22,199	-0,097	-0,042
-149,847	383,187	0,107	0,160
-148,833	788,819	-0,049	-0,098
-147,818	-40,037	0,173	-0,065
-146,804	16,619	0,133	0,076
-145,789	800,000	0,044	0,101
-144,775	-73,414	-0,077	0,020
-143,760	-74,479	-0,164	-0,042
-142,745	-163,302	0,095	-0,003
-141,731	61,136	-0,022	-0,015
-140,716	800,000	-0,034	-0,082
-139,702	-200,000	-0,000	0,221
-138,687	113,420	-0,131	0,114
-137,672	674,258	0,047	0,088
-136,658	-200,000	0,010	0,060
-135,643	-156,391	-0,155	0,007
-134,629	-45,654	0,044	-0,015
-133,614	743,196	-0,046	0,089
-132,599	313,974	0,086	0,117
-131,585	201,109	-0,025	0,028
-130,570	-11,579	-0,094	-0,044
-129,556	800,000	-0,047	0,144
-128,541	-12,544	-0,037	0,017
-127,526	673,709	0,030	0,056
-126,512	800,000	-0,040	-0,089
-125,497	-200,000	0,000	0,004
-124,483	114,909	0,022	-0,020
-123,468	800,000	0,021	0,053
-122,453	38,820	0,002	0,002
-121,439	-54,322	0,117	-0,038
-120,424	-116,992	-0,095	0,012
-119,410	326,714	0,082	0,114
-118,395	48,386	0,036	0,024
-117,380	-73,703	0,172	0,045
-116,366	800,000	0,040	0,084
-115,351	-75,691	0,070	-0,018
-114,337	-62,786	0,007	-0,002
-113,322	-200,000	-0,031	0,100
-112,307	-73,833	0,099	0,026
-111,293	-200,000	-0,009	0,106
-110,278	517,851	0,041	-0,070
-109,264	-28,263	-0,089	-0,037
-108,249	123,448	-0,086	0,078
-107,234	-200,000	-0,010	-0,076
-106,220	-66,567	0,071	-0,020
-105,205	-200,000	-0,007	0,024
-104,191	-52,060	0,052	0,017
-103,176	491,321	0,043	0,071
-102,162	-114,798	-0,044	-0,006
-101,147	128,845	-0,053	-0,048
-100,132	-200,000	-0,001	-0,062
-99,118	284,507	0,042	-0,055
-98,103	57,163	0,119	-0,083
-97,089	16,423	-0,065	-0,037
-96,074	30,155	-0,097	0,059
-95,059	-200,000	0,019	0,063
-94,045	-163,137	-0,058	0,002
-93,030	218,679	0,079	-0,091
-92,016	79,335	0,073	-0,056
-91,001	-58,041	0,078	0,024
-89,986	-184,186	-0,092	-0,001
-88,972	236,863	-0,056	-0,067
-87,957	-200,000	-0,034	0,178
-86,943	-59,947	-0,075	0,023
-85,928	7,628	-0,071	0,038
-84,913	-109,490	-0,133	-0,020
-83,899	138,174	-0,070	0,066
-82,884	-200,000	-0,022	0,115
-81,870	-200,000	0,005	0,031
-80,855	800,000	-0,014	0,030
-79,840	-200,000	0,008	-0,074
-78,826	-200,000	0,013	-0,059
-77,811	458,079	0,055	-0,088
-76,797	79,402	-0,108	-0,083
-75,782	-200,000	-0,020	-0,092
-74,767	30,427	0,218	0,134
-73,753	200,889	0,032	0,036
-72,738	92,796	0,036	0,030
-71,724	136,602	0,065	-0,061
-70,709	147,252	-0,091	-0,088
-69,694	-5,139	0,083	-0,041
-68,680	35,217	0,132	0,083
-67,665	-129,550	-0,162	0,016
-66,651	101,292	-0,031	-0,026
-65,636	223,017	-0,049	-0,057
-64,622	-24,570	-0,122	-0,052
-63,607	-200,000	-0,007	-0,070
-62,592	-44,670	0,155	0,055
-61,578	800,000	0,013	0,033
-60,563	800,000	-0,040	0,080
-59,549	-200,000	-0,002	0,063
-58,534	0,553	-1,877	-0,961
-57,519	-200,000	-0,295	-0,939
-56,505	-200,000	-1,215	-4,954
-55,490	-61,106	0,931	0,280
-54,476	800,000	5,324	12,084
-53,461	-200,000	17,160	282,984
-52,446	800,000	722,051	2228,363
-51,432	545,028	1638,077	2821,430
-50,417	112,415	1631,166	1416,802
-49,403	76,631	1286,615	978,855
-48,388	33,028	1029,314	639,049
-47,373	20,314	990,984	573,267
-46,359	18,797	979,285	561,493
-45,344	16,285	975,476	551,049
-44,330	16,496	973,835	550,791
-43,315	16,032	972,092	548,266
-42,300	16,011	970,875	547,490
-41,286	16,005	969,986	546,948
-40,271	16,065	968,809	546,456
-39,257	16,033	967,947	545,844
-38,242	16,047	967,132	545,407
-37,227	16,112	966,171	545,058
-36,213	16,045	965,554	544,470
-35,198	16,041	964,578	543,883
-34,184	16,037	963,817	543,419
-33,169	15,994	962,734	542,648
-32,154	16,095	961,834	542,447
-31,140	16,015	961,097	541,751
-30,125	16,018	960,517	541,411
-29,111	16,090	959,356	540,970
-28,096	16,040	958,840	540,494
-27,082	16,032	958,035	539,995
-26,067	16,060	957,144	539,562
-25,052	16,041	956,494	539,113
-24,038	16,050	955,879	538,773
-23,023	15,966	955,480	538,255
-22,009	16,075	954,706	538,150
-20,994	16,075	953,979	537,717
-19,979	16,053	953,330	537,259
-18,965	16,053	952,844	536,964
-17,950	16,022	952,187	536,473
-16,936	16,036	951,587	536,158
-15,921	15,933	951,045	535,505
-14,906	15,909	950,056	534,849
-13,892	15,965	949,445	534,664
-12,877	15,908	948,913	534,161
-11,863	15,907	948,253	533,765
-10,848	15,940	947,772	533,578
-9,833	15,985	947,134	533,340
-8,819	15,992	946,519	532,994
-7,804	15,870	946,059	532,326
-6,790	15,927	945,195	532,000
-5,775	16,007	944,725	531,970
-4,760	16,042	944,085	531,700
-3,746	15,947	943,447	531,017
-2,731	15,833	942,736	530,234
-1,717	15,746	942,172	529,620
-0,702	15,784	941,504	529,343
0,313	15,620	940,879	529,273
1,327	18,644	938,765	537,583
2,342	27,430	796,250	479,310
3,356	24,069	460,617	272,089
4,371	-2,874	315,210	157,477
5,386	-6,898	296,958	144,262
6,400	-8,894	290,910	139,325
7,415	-9,438	288,542	137,640
8,429	-9,378	286,983	136,944
9,444	-9,406	286,054	136,461
10,459	-9,404	285,351	136,116
11,473	-9,541	284,920	135,764
12,488	-9,487	284,538	135,623
13,502	-9,504	283,973	135,324
14,517	-9,364	283,430	135,190
15,531	-9,374	282,967	134,947
16,546	-9,472	282,666	134,697
17,561	-9,324	282,140	134,577
18,575	-9,363	281,917	134,420
19,590	-9,489	281,658	134,164
20,604	-9,217	281,335	134,260
21,619	-9,440	280,903	133,828
22,634	-9,297	280,521	133,771
23,648	-9,500	280,258	133,438
24,663	-9,529	280,056	133,303
25,677	-9,394	279,647	133,226
26,692	-9,445	279,425	133,059
27,707	-9,385	279,254	133,023
28,721	-9,335	278,957	132,917
29,736	-9,328	278,487	132,689
30,750	-9,468	278,389	132,496
31,765	-9,351	278,263	132,536
32,780	-9,311	277,800	132,342
33,794	-9,518	277,654	132,064
34,809	-9,482	277,489	132,008
35,823	-9,510	277,017	131,745
36,838	-9,499	276,841	131,660
37,853	-9,414	276,591	131,610
38,867	-9,458	276,392	131,462
39,882	-9,376	276,014	131,348
40,896	-9,622	275,956	131,076
41,911	-9,461	275,633	131,062
42,926	-9,398	275,344	130,973
43,940	-9,467	275,087	130,774
44,955	-9,396	274,852	130,718
45,969	-9,568	274,660	130,453
46,984	-9,840	274,485	130,104
47,999	-9,751	274,076	129,982
49,013	-9,982	273,892	129,666
50,028	-10,101	273,684	129,446
51,042	-10,094	273,373	129,294
52,057	-10,258	273,148	129,023
53,071	-10,139	273,018	129,060
54,086	-9,921	272,768	129,134
55,101	-9,887	272,545	129,048
56,115	-9,547	272,318	129,245
57,130	-9,273	272,222	129,442
58,144	-9,245	272,104	129,400
59,159	-9,289	271,781	129,195
60,174	-9,324	271,755	129,139
61,188	-9,389	271,586	128,986
62,203	-9,416	271,199	128,767
63,217	-9,347	270,947	128,698
64,232	-9,367	270,863	128,629
65,247	-9,253	270,481	128,541
66,261	-9,351	270,342	128,374
67,276	-9,658	270,103	127,965
68,290	-9,514	269,725	127,908
69,305	-9,785	269,632	127,603
70,320	-9,667	269,533	127,653
71,334	-9,293	269,025	127,744
72,349	-9,404	269,108	127,670
73,363	-9,343	268,787	127,562
74,378	-9,426	268,508	127,343
75,393	-9,438	268,334	127,238
76,407	-9,240	268,139	127,314
77,422	-9,472	267,840	126,949
78,436	-9,319	267,706	127,015
79,451	-9,432	267,544	126,824
80,466	-9,510	267,311	126,631
81,480	-9,500	266,943	126,454
82,495	-9,422	266,686	126,391
83,509	-9,447	266,650	126,341
84,524	-9,462	266,321	126,160
85,539	-9,649	266,034	125,844
86,553	-9,668	265,940	125,771
87,568	-9,588	265,774	125,754
88,582	-9,551	265,478	125,636
89,597	-9,511	265,160	125,510
90,611	-9,495	265,244	125,553
91,626	-9,229	264,948	125,641
92,641	-9,316	264,864	125,512
93,655	-9,355	264,530	125,307
94,670	-9,371	264,233	125,141
95,684	-9,462	264,175	125,021
96,699	-9,432	264,064	124,984
97,714	-9,477	263,659	124,741
98,728	-9,487	263,530	124,660
99,743	-9,560	263,227	124,441
100,757	-9,832	263,066	124,109
101,772	-9,691	262,994	124,191
102,787	-9,459	262,715	124,255
103,801	-9,580	262,622	124,092
104,816	-9,612	262,337	123,918
105,830	-9,390	262,221	124,049
106,845	-9,441	262,046	123,910
107,860	-9,328	261,762	123,865
108,874	-9,332	261,627	123,787
109,889	-9,431	261,448	123,603
110,903	-9,558	261,216	123,370
111,918	-9,512	260,946	123,272
112,933	-9,291	260,783	123,380
113,947	-9,274	260,496	123,248
114,962	-9,212	260,292	123,195
115,976	-9,378	260,250	123,018
116,991	-9,411	260,100	122,907
118,006	-9,279	259,867	122,902
119,020	-9,237	259,686	122,843
120,035	-9,214	259,499	122,763
121,049	-9,220	259,478	122,737
122,064	-9,350	259,195	122,478
123,079	-9,481	259,078	122,297
124,093	-9,261	258,760	122,329
125,108	-9,571	258,559	121,951
126,122	-9,620	258,247	121,751
127,137	-9,697	258,068	121,588
128,151	-9,766	258,035	121,501
129,166	-9,607	257,711	121,477
130,181	-9,522	257,486	121,434
131,195	-9,625	257,295	121,243
132,210	-9,548	257,228	121,268
133,224	-9,267	257,019	121,403
134,239	-9,541	256,919	121,106
135,254	-9,366	256,808	121,196
136,268	-9,596	256,473	120,827
137,283	-9,586	256,136	120,666
138,297	-9,752	255,946	120,422
139,312	-9,713	255,730	120,343
140,327	-9,486	255,707	120,518
141,341	-9,315	255,732	120,667
142,356	-9,419	255,419	120,419
143,370	-9,248	255,160	120,434
144,385	-9,297	255,138	120,370
145,400	-9,329	254,842	120,192
146,414	-9,211	254,785	120,257
147,429	-9,330	254,403	119,964
148,443	-9,208	254,228	119,975
149,458	-9,329	254,150	119,823
150,473	-9,216	253,855	119,771
151,487	-9,328	253,815	119,645
152,502	-9,381	253,632	119,503
153,516	-9,412	253,381	119,347
154,531	-9,108	253,207	119,515
155,546	-9,016	253,000	119,485
156,560	-9,276	252,667	119,095
157,575	-9,158	252,585	119,146
158,589	-9,194	252,376	119,007
159,604	-9,204	252,240	118,923
160,619	-9,070	252,068	118,946
161,633	-9,014	251,802	118,857
162,648	-9,072	251,674	118,736
163,662	-9,092	251,560	118,655
164,677	-9,333	251,464	118,395
165,692	-9,309	251,412	118,380
166,706	-9,175	251,063	118,319
167,721	-9,179	250,897	118,227
168,735	-9,248	250,690	118,061
169,750	-9,195	250,640	118,071
170,764	-9,319	250,561	117,918
171,779	-9,069	250,297	117,995
172,794	-9,244	250,176	117,780
173,808	-9,243	249,988	117,681
174,823	-9,471	249,576	117,285
175,837	-9,708	249,421	117,002
176,852	-9,498	249,568	117,238
177,867	-9,312	249,241	117,230
178,881	-9,128	249,143	117,328
179,896	-9,013	248,977	117,336
180,910	-9,214	248,760	117,054
181,925	-9,193	248,665	117,017
182,940	-9,126	248,374	116,926
183,954	-9,162	248,386	116,891
184,969	-9,153	248,137	116,771
185,983	-9,123	247,961	116,702
186,998	-9,173	247,744	116,548
188,013	-8,993	247,376	116,515
189,027	-9,217	247,430	116,343
190,042	-9,164	247,325	116,327
191,056	-9,011	247,001	116,292
192,071	-9,070	246,839	116,156
193,086	-9,167	246,697	115,998
194,100	-9,125	246,354	115,862
195,115	-8,976	246,327	115,962
196,129	-9,005	246,143	115,842
197,144	-9,101	245,987	115,678
198,159	-9,206	245,936	115,557
199,173	-9,222	245,619	115,384
200,188	-9,081	245,438	115,405
201,202	-9,653	245,224	114,823
202,217	-9,559	244,997	114,783
203,232	-9,683	244,717	114,540
204,246	-9,443	244,750	114,743
205,261	-9,157	244,573	114,885
206,275	-9,843	244,228	114,149
207,290	-6,518	245,564	117,509
208,304	-0,403	247,493	123,498
209,319	2,563	248,254	126,329
210,334	2,716	248,232	126,434
211,348	3,207	248,084	126,754
212,363	3,516	248,045	126,979
213,377	3,538	247,895	126,908
214,392	3,689	247,579	126,860
215,407	3,374	247,583	126,591
216,421	3,282	247,486	126,454
217,436	3,679	247,313	126,682
218,450	3,798	246,994	126,606
219,465	3,417	246,833	126,198
220,480	3,104	246,718	125,870
221,494	3,316	246,457	125,900
222,509	3,569	246,361	126,048
223,523	3,508	246,058	125,832
224,538	2,859	246,102	125,309
225,553	2,946	245,756	125,194
226,567	3,065	245,597	125,199
227,582	3,234	245,563	125,309
228,596	3,310	245,425	125,290
229,611	2,944	245,037	124,781
230,626	2,957	244,944	124,734
231,640	3,176	244,673	124,763
232,655	3,033	244,809	124,704
233,669	2,854	244,510	124,395
234,684	3,028	244,212	124,374
235,699	3,305	244,252	124,609
236,713	3,436	244,298	124,728
237,728	3,110	243,779	124,187
238,742	3,028	243,684	124,061
239,757	2,873	243,467	123,814
240,772	2,988	243,358	123,840
241,786	3,038	243,245	123,812
242,801	2,897	242,926	123,525
243,815	3,013	242,761	123,524
244,830	3,121	242,697	123,568
245,844	3,249	242,586	123,603
246,859	3,167	242,312	123,387
247,874	3,009	242,210	123,196
248,888	3,169	242,141	123,280
249,903	3,073	242,123	123,181
250,917	3,321	241,928	123,271
251,932	3,495	241,819	123,345
252,947	3,443	241,526	123,143
253,961	3,208	241,241	122,797
254,976	3,093	241,304	122,726
255,990	3,192	241,248	122,766
257,005	3,203	240,787	122,530
258,020	2,857	240,696	122,195
259,034	3,095	240,545	122,298
260,049	3,222	240,401	122,315
261,063	2,783	240,393	121,950
262,078	3,070	239,966	121,951
263,093	3,223	239,911	122,034
264,107	3,366	239,866	122,115
265,122	3,112	239,526	121,729
266,136	3,083	239,689	121,777
267,151	3,155	239,586	121,771
268,166	2,977	239,246	121,446
269,180	2,793	238,999	121,164
270,195	3,334	239,032	121,599
271,209	3,577	238,908	121,718
272,224	3,018	238,590	121,103
273,239	2,620	238,438	120,700
274,253	2,836	238,346	120,813
275,268	2,972	238,129	120,799
276,282	3,250	238,059	120,973
277,297	3,098	237,696	120,658
278,312	2,850	237,582	120,394
279,326	3,117	237,600	120,603
280,341	3,166	237,410	120,534
281,355	3,176	237,315	120,483
282,370	3,224	237,159	120,431
283,384	3,256	236,857	120,292
284,399	2,949	236,655	119,937
285,414	2,875	236,580	119,830
286,428	3,059	236,420	119,883
287,443	3,129	236,405	119,919
288,457	3,132	236,328	119,873
289,472	3,185	236,127	119,802
290,487	3,279	235,779	119,687
291,501	3,044	235,557	119,380
292,516	2,758	235,552	119,144
293,530	2,839	235,265	119,052
294,545	2,995	235,395	119,228
295,560	3,238	235,200	119,309
296,574	2,819	234,940	118,840
297,589	2,976	234,759	118,860
298,603	3,493	234,751	119,247
299,618	3,358	234,670	119,090
300,633	3,186	234,389	118,804
301,647	3,369	234,360	118,920
302,662	3,522	234,268	118,982
303,676	3,764	233,993	119,019
304,691	3,550	233,805	118,747
305,706	3,469	233,782	118,662
306,720	3,494	233,509	118,532
307,735	3,443	233,418	118,436
308,749	3,194	233,323	118,186
309,764	3,053	232,999	117,902
310,779	2,918	232,743	117,657
311,793	2,788	232,505	117,427
312,808	2,844	232,373	117,392
313,822	2,775	232,358	117,321
314,837	2,841	232,273	117,319
315,852	2,837	232,084	117,210
316,866	3,355	231,963	117,536
317,881	3,409	231,915	117,542
318,895	3,526	231,651	117,489
319,910	3,599	231,529	117,471
320,925	3,038	231,488	117,011
321,939	2,741	231,322	116,689
322,954	3,135	231,273	116,956
323,968	3,128	230,973	116,788
324,983	2,884	230,727	116,467
325,997	3,137	230,690	116,631
327,012	3,034	230,598	116,495
328,027	3,394	230,353	116,635
329,041	3,540	230,324	116,721
330,056	4,185	230,269	117,174
331,070	3,718	230,051	116,698
332,085	3,356	229,803	116,286
333,100	3,278	229,678	116,154
334,114	3,536	229,542	116,270
335,129	3,569	229,482	116,255
336,143	3,516	229,332	116,128
337,158	3,654	229,121	116,115
338,173	3,494	229,003	115,924
339,187	3,441	228,891	115,817
340,202	3,633	228,604	115,806
341,216	3,537	228,583	115,713
342,231	3,177	228,390	115,334
343,246	3,189	228,256	115,265
344,260	3,414	228,181	115,386
345,275	3,612	228,088	115,478
346,289	3,741	227,907	115,472
347,304	3,708	227,669	115,317
348,319	3,683	227,509	115,207
349,333	3,684	227,359	115,121
350,348	3,253	227,211	114,713
351,362	3,374	227,194	114,785
352,377	3,240	226,959	114,556
353,392	3,098	226,755	114,336
354,406	3,256	226,616	114,374
355,421	195,183	1322,326	1398,834
356,435	156,459	1455,826	1398,854
