DTS Sentinel unit serial number:	SN410029Multiplexer serial number:	ORYXHardware model number:	OX2-SRSoftware version number:	ORYX F/W v4,00 Oryx Data Collector v3.7.2.0data status	okinstallation	B5 Nyhavnadifferential loss correction	single-endedforward channel	channel 2reverse channel	N/Adate	2023/12/13time	14:42:13forward acquisition time	300,00reverse acquisition time	0,00gamma	499,1914k internal	0,3161k external	0,3161temperature offset calibration	1,0000default loss term (dB/km)	0,3820temperature slope calibration	1,0000multiplexer offset coefficient	1,0000multiplexer slope coefficient	1,0000fibre end	0,00T internal ref (°C)	14,98T ext. ref 1 (°C)	-1,26T ext. ref 2 (°C)	-1,57length (m)	temperature (°C)	Stokes	anti-Stokes-744,400	-200,000	0,007	-0,089
-743,385	-103,368	-0,275	-0,047
-742,371	97,510	0,095	0,080
-741,356	-82,825	-0,427	0,101
-740,342	-57,456	0,144	0,046
-739,327	-139,231	-0,375	0,029
-738,312	14,540	0,135	0,077
-737,298	-105,643	-0,259	-0,043
-736,283	-24,062	0,193	0,085
-735,269	-79,455	-0,360	0,089
-734,254	-200,000	0,006	-0,046
-733,239	-59,488	-0,555	-0,175
-732,225	-117,469	0,066	-0,009
-731,210	19,439	-0,097	0,058
-730,196	-200,000	-0,033	0,159
-729,181	404,917	-0,043	0,067
-728,167	81,019	-0,114	-0,091
-727,152	800,000	-0,016	-0,051
-726,137	-138,146	-0,168	0,014
-725,123	74,470	-0,169	-0,131
-724,108	800,000	-0,014	-0,040
-723,094	800,000	-0,038	-0,097
-722,079	-200,000	0,011	0,039
-721,064	-200,000	-0,022	-0,078
-720,050	211,620	0,082	-0,095
-719,035	-200,000	-0,017	-0,074
-718,021	-200,000	0,020	0,182
-717,006	-59,920	-0,107	0,034
-715,991	-200,000	-0,011	-0,047
-714,977	292,297	-0,087	-0,117
-713,962	-124,104	-0,109	0,012
-712,948	-200,000	0,002	0,024
-711,933	-200,000	0,008	-0,048
-710,918	-96,443	-0,105	0,020
-709,904	800,000	-0,072	-0,155
-708,889	65,759	-0,166	-0,124
-707,875	-153,025	-0,041	0,002
-706,860	-46,083	0,075	-0,027
-705,845	-200,000	-0,005	-0,064
-704,831	-200,000	0,013	0,066
-703,816	-82,479	0,065	0,015
-702,802	-200,000	-0,010	-0,145
-701,787	-200,000	-0,003	-0,144
-700,772	204,118	0,056	-0,064
-699,758	-50,032	-0,047	0,016
-698,743	-59,793	0,046	0,015
-697,729	800,000	-0,013	-0,041
-696,714	800,000	0,018	0,049
-695,699	-120,948	0,029	0,004
-694,685	-119,477	-0,097	0,012
-693,670	604,262	0,031	-0,057
-692,656	283,800	0,069	-0,092
-691,641	800,000	-0,004	-0,009
-690,627	145,753	-0,156	0,154
-689,612	-200,000	0,034	0,172
-688,597	-74,682	-0,069	0,018
-687,583	2,160	-0,142	0,075
-686,568	117,895	0,072	0,065
-685,554	172,528	0,044	-0,047
-684,539	-44,117	0,075	-0,027
-683,524	580,758	0,037	0,067
-682,510	13,265	0,143	0,081
-681,495	-161,280	-0,067	0,002
-680,481	154,524	0,051	0,052
-679,466	-170,252	-0,178	-0,005
-678,451	-58,431	-0,179	0,057
-677,437	-200,000	0,005	-0,046
-676,422	137,197	-0,016	0,015
-675,408	-7,328	-0,133	0,066
-674,393	118,141	-0,065	-0,059
-673,378	-200,000	0,016	-0,157
-672,364	-37,140	-0,144	-0,056
-671,349	183,500	-0,113	-0,123
-670,335	491,867	0,039	0,066
-669,320	-59,003	0,005	0,002
-668,305	138,782	-0,021	-0,020
-667,291	-8,135	0,013	0,006
-666,276	191,480	-0,022	0,025
-665,262	79,856	-0,059	0,047
-664,247	-1,205	-0,119	-0,062
-663,232	800,000	0,037	-0,082
-662,218	-200,000	0,003	-0,105
-661,203	800,000	0,034	-0,080
-660,189	-92,605	-0,080	-0,016
-659,174	366,655	-0,164	-0,243
-658,159	11,992	0,047	0,027
-657,145	4,444	-0,076	-0,041
-656,130	201,215	-0,022	-0,025
-655,116	-200,000	-0,000	-0,026
-654,101	-48,299	0,067	-0,024
-653,086	5,910	0,048	0,026
-652,072	-200,000	-0,000	0,035
-651,057	443,452	-0,052	-0,085
-650,043	-200,000	0,010	-0,093
-649,028	-99,898	-0,131	0,024
-648,014	196,480	0,068	0,077
-646,999	35,670	-0,091	0,059
-645,984	190,136	0,104	0,115
-644,970	-200,000	0,011	-0,140
-643,955	293,593	-0,073	-0,098
-642,941	126,089	0,052	-0,049
-641,926	49,422	-0,112	0,077
-640,911	260,504	0,055	-0,070
-639,897	135,975	-0,066	0,063
-638,882	-2,348	-0,114	-0,058
-637,868	-200,000	-0,017	0,058
-636,853	-50,758	0,042	0,014
-635,838	-200,000	0,001	-0,031
-634,824	771,273	0,042	-0,083
-633,809	-105,282	0,047	0,008
-632,795	-110,165	0,039	0,006
-631,780	-193,824	-0,100	-0,001
-630,765	225,082	0,035	-0,041
-629,751	523,181	0,035	-0,060
-628,736	-46,906	-0,192	0,068
-627,722	205,672	0,080	-0,091
-626,707	151,764	-0,008	0,008
-625,692	21,277	-0,087	-0,052
-624,678	184,229	0,107	-0,116
-623,663	-200,000	-0,020	-0,093
-622,649	108,859	-0,103	-0,090
-621,634	14,301	-0,044	-0,025
-620,619	-64,315	-0,126	-0,037
-619,605	800,000	-0,015	0,047
-618,590	-43,549	0,087	0,032
-617,576	-200,000	-0,031	0,122
-616,561	85,489	-0,063	-0,050
-615,546	-200,000	-0,006	0,031
-614,532	800,000	-0,062	-0,157
-613,517	-200,000	0,006	-0,078
-612,503	184,571	-0,062	0,067
-611,488	-74,210	0,111	0,029
-610,474	-200,000	0,035	0,114
-609,459	-29,771	-0,079	-0,033
-608,444	800,000	-0,064	-0,149
-607,430	280,508	-0,016	-0,021
-606,415	33,565	-0,108	-0,068
-605,401	800,000	-0,037	-0,116
-604,386	-200,000	0,057	0,188
-603,371	-57,300	-0,060	0,019
-602,357	81,205	0,035	0,028
-601,342	483,191	-0,028	-0,047
-600,328	-127,267	-0,033	-0,003
-599,313	-193,244	-0,146	0,001
-598,298	94,785	0,057	0,048
-597,284	800,000	-0,043	-0,108
-596,269	186,467	0,095	0,103
-595,255	-14,073	0,055	0,026
-594,240	431,290	-0,025	0,039
-593,225	60,639	0,035	-0,025
-592,211	800,000	0,013	0,031
-591,196	-111,002	0,072	-0,011
-590,182	-82,566	-0,051	-0,012
-589,167	-16,279	0,057	0,026
-588,152	-23,029	0,093	-0,041
-587,138	426,159	-0,042	0,066
-586,123	199,528	-0,048	-0,055
-585,109	-15,756	-0,080	-0,037
-584,094	-200,000	-0,003	-0,117
-583,079	800,000	0,042	0,087
-582,065	256,765	-0,095	0,120
-581,050	-200,000	0,014	-0,097
-580,036	800,000	-0,044	-0,118
-579,021	51,038	-0,043	0,030
-578,006	39,873	-0,075	-0,049
-576,992	-141,098	-0,039	0,003
-575,977	800,000	-0,035	0,080
-574,963	-200,000	-0,024	-0,094
-573,948	-101,793	0,108	-0,019
-572,934	-124,411	0,053	-0,006
-571,919	16,815	-0,100	-0,058
-570,904	738,067	-0,011	0,021
-569,890	800,000	-0,020	0,054
-568,875	13,366	0,059	0,034
-567,861	-43,828	-0,068	-0,025
-566,846	-200,000	-0,016	-0,057
-565,831	451,220	-0,056	-0,091
-564,817	-125,361	-0,086	-0,009
-563,802	-200,000	-0,010	0,089
-562,788	7,682	-0,029	0,016
-561,773	-44,083	-0,032	-0,012
-560,758	-80,596	0,028	-0,007
-559,744	-200,000	0,020	-0,093
-558,729	-39,288	-0,071	0,027
-557,715	-43,064	-0,106	0,039
-556,700	800,000	-0,070	-0,183
-555,685	116,109	0,074	-0,067
-554,671	161,866	-0,084	0,086
-553,656	514,174	-0,045	0,078
-552,642	-200,000	-0,014	-0,047
-551,627	-45,002	-0,062	-0,023
-550,612	-7,173	-0,047	-0,023
-549,598	590,898	-0,121	-0,220
-548,583	-200,000	-0,014	-0,085
-547,569	-79,428	0,061	0,015
-546,554	800,000	-0,045	-0,104
-545,539	705,332	-0,023	-0,045
-544,525	800,000	-0,025	0,063
-543,510	-104,724	-0,134	-0,022
-542,496	75,986	-0,067	-0,052
-541,481	72,713	0,043	-0,032
-540,466	-200,000	0,023	0,094
-539,452	331,173	-0,038	0,053
-538,437	-102,605	0,115	0,020
-537,423	-200,000	-0,049	0,162
-536,408	1,215	-0,098	0,051
-535,393	264,776	-0,095	-0,121
-534,379	83,089	-0,066	-0,052
-533,364	109,283	0,101	-0,089
-532,350	124,336	0,064	-0,059
-531,335	800,000	0,005	0,015
-530,321	-200,000	0,006	0,169
-529,306	-200,000	0,007	0,086
-528,291	591,319	-0,045	-0,081
-527,277	-138,149	0,120	0,010
-526,262	-22,247	-0,032	0,014
-525,248	-106,471	0,070	-0,011
-524,233	650,987	-0,047	-0,088
-523,218	800,000	-0,018	0,053
-522,204	205,629	0,068	-0,077
-521,189	-35,786	0,035	0,014
-520,175	-121,345	-0,095	-0,011
-519,160	-161,847	-0,208	0,008
-518,145	-65,547	-0,046	0,013
-517,131	-200,000	0,013	-0,041
-516,116	36,693	0,075	-0,048
-515,102	-200,000	0,012	-0,039
-514,087	-127,770	-0,065	-0,007
-513,072	-33,134	-0,105	-0,042
-512,058	196,704	-0,057	-0,064
-511,043	53,429	0,109	-0,076
-510,029	-200,000	0,039	0,138
-509,014	-10,474	-0,041	0,020
-507,999	119,681	-0,039	0,035
-506,985	-104,231	-0,121	0,020
-505,970	800,000	0,044	-0,095
-504,956	-70,928	-0,029	-0,008
-503,941	620,898	0,040	-0,074
-502,926	103,916	-0,087	0,075
-501,912	-124,289	0,113	0,013
-500,897	-11,382	0,007	0,003
-499,883	-200,000	0,004	-0,084
-498,868	554,465	-0,030	0,053
-497,853	-200,000	0,038	-0,212
-496,839	389,862	0,052	0,079
-495,824	-83,792	-0,104	-0,024
-494,810	-62,083	0,094	-0,028
-493,795	-200,000	0,009	0,206
-492,781	-200,000	-0,055	-0,187
-491,766	-200,000	0,010	0,080
-490,751	216,640	-0,081	-0,094
-489,737	-130,460	0,108	0,011
-488,722	192,469	0,104	0,114
-487,708	194,491	0,017	0,019
-486,693	47,908	-0,073	0,049
-485,678	-200,000	0,000	-0,046
-484,664	36,300	-0,142	0,091
-483,649	275,828	-0,035	-0,046
-482,635	624,395	-0,025	-0,046
-481,620	-200,000	-0,013	-0,048
-480,605	-104,147	-0,023	0,004
-479,591	-74,080	0,069	-0,018
-478,576	209,267	0,098	-0,112
-477,562	711,083	0,044	0,086
-476,547	-55,670	-0,035	0,011
-475,532	64,558	-0,053	0,039
-474,518	19,468	0,056	0,033
-473,503	-143,017	0,071	0,005
-472,489	-69,909	-0,098	-0,027
-471,474	-130,384	0,091	0,009
-470,459	365,494	0,013	0,019
-469,445	168,966	-0,057	-0,060
-468,430	583,210	0,049	-0,088
-467,416	116,156	0,131	-0,117
-466,401	185,342	0,076	0,082
-465,386	-200,000	-0,014	0,109
-464,372	-200,000	-0,034	0,157
-463,357	-100,925	-0,045	0,008
-462,343	-195,756	-0,151	0,001
-461,328	213,983	-0,063	0,073
-460,313	408,868	0,053	0,083
-459,299	-83,503	0,207	0,048
-458,284	111,562	0,085	-0,074
-457,270	21,455	0,082	-0,049
-456,255	82,239	-0,150	-0,119
-455,241	-200,000	-0,000	0,006
-454,226	-102,079	0,065	-0,011
-453,211	630,142	0,022	-0,040
-452,197	46,246	0,100	0,067
-451,182	-69,030	0,073	-0,020
-450,168	-200,000	-0,004	-0,048
-449,153	-200,000	0,015	-0,095
-448,138	-186,041	-0,022	0,000
-447,124	-200,000	-0,000	-0,060
-446,109	737,087	0,058	0,113
-445,095	800,000	0,033	0,084
-444,080	79,920	0,042	-0,032
-443,065	-200,000	0,004	-0,091
-442,051	136,173	0,076	0,072
-441,036	661,740	-0,079	0,149
-440,022	-50,551	-0,048	-0,016
-439,007	-200,000	-0,005	0,025
-437,992	387,621	-0,025	-0,038
-436,978	23,509	-0,048	0,029
-435,963	800,000	-0,010	0,022
-434,949	631,479	-0,006	0,010
-433,934	307,265	-0,087	-0,118
-432,919	-20,733	0,045	0,020
-431,905	-200,000	-0,036	0,152
-430,890	-200,000	-0,020	0,080
-429,876	-90,325	0,049	-0,010
-428,861	-200,000	-0,001	0,120
-427,846	282,693	0,032	-0,042
-426,832	-200,000	0,018	-0,089
-425,817	-102,939	-0,104	-0,018
-424,803	800,000	0,042	-0,092
-423,788	-200,000	0,016	0,068
-422,773	-200,000	0,010	0,059
-421,759	-200,000	0,026	0,143
-420,744	395,449	-0,038	0,058
-419,730	-104,061	-0,092	-0,015
-418,715	-116,159	-0,165	-0,022
-417,701	800,000	0,047	0,113
-416,686	-200,000	-0,003	-0,035
-415,671	800,000	0,018	0,050
-414,657	448,368	0,045	0,072
-413,642	-57,374	0,043	0,014
-412,628	366,424	0,059	0,087
-411,613	-15,866	-0,051	-0,023
-410,598	25,250	0,017	-0,010
-409,584	-88,953	0,079	0,017
-408,569	61,095	0,114	0,082
-407,555	-200,000	0,000	0,076
-406,540	-200,000	0,013	0,102
-405,525	-79,672	0,084	-0,021
-404,511	202,960	-0,080	-0,090
-403,496	593,421	0,024	-0,043
-402,482	-200,000	-0,009	0,084
-401,467	-116,576	0,099	0,013
-400,452	345,000	0,023	0,033
-399,438	-45,542	-0,073	0,026
-398,423	19,444	0,010	-0,006
-397,409	800,000	0,026	0,059
-396,394	74,785	-0,134	-0,103
-395,379	800,000	0,039	-0,085
-394,365	-3,135	0,108	-0,055
-393,350	-200,000	0,033	0,120
-392,336	-200,000	0,003	0,058
-391,321	367,034	-0,023	-0,034
-390,306	-200,000	-0,004	-0,027
-389,292	250,511	-0,024	-0,029
-388,277	-200,000	-0,012	0,042
-387,263	78,289	0,140	-0,108
-386,248	-200,000	0,001	0,069
-385,233	-200,000	-0,087	0,000
-384,219	-200,000	-0,022	0,161
-383,204	59,320	-0,140	-0,100
-382,190	-200,000	0,011	-0,080
-381,175	4,352	0,069	-0,036
-380,160	-200,000	-0,000	-0,083
-379,146	800,000	0,025	0,050
-378,131	-200,000	-0,016	-0,069
-377,117	80,393	0,041	-0,032
-376,102	-41,370	-0,035	0,013
-375,088	800,000	0,025	-0,077
-374,073	-129,185	-0,156	-0,016
-373,058	11,473	-0,011	0,006
-372,044	800,000	0,073	0,170
-371,029	800,000	-0,014	-0,029
-370,015	275,455	-0,024	0,031
-369,000	-100,253	-0,102	0,018
-367,985	6,071	-0,046	-0,025
-366,971	-200,000	0,017	-0,067
-365,956	800,000	0,033	0,084
-364,942	800,000	0,048	-0,119
-363,927	-42,594	0,037	-0,014
-362,912	-200,000	-0,003	0,051
-361,898	316,815	0,022	-0,030
-360,883	182,389	0,089	0,095
-359,869	-200,000	0,002	-0,077
-358,854	93,921	0,090	0,074
-357,839	-44,959	0,106	-0,038
-356,825	800,000	0,037	0,095
-355,810	-84,857	0,064	0,015
-354,796	800,000	0,029	-0,060
-353,781	-200,000	-0,002	0,013
-352,766	457,327	0,061	0,098
-351,752	2,866	0,067	0,035
-350,737	-38,700	0,143	-0,054
-349,723	-51,756	-0,032	0,011
-348,708	800,000	0,016	-0,035
-347,693	115,581	0,017	-0,015
-346,679	-56,110	-0,139	-0,045
-345,664	0,854	0,112	0,058
-344,650	777,106	-0,047	0,094
-343,635	576,050	0,070	0,125
-342,620	800,000	0,025	0,075
-341,606	-43,350	-0,038	-0,014
-340,591	-16,166	0,021	-0,010
-339,577	800,000	0,024	0,070
-338,562	-200,000	0,001	-0,058
-337,548	-200,000	0,017	0,106
-336,533	223,992	0,063	0,074
-335,518	7,373	0,124	-0,067
-334,504	-16,004	-0,062	0,029
-333,489	800,000	-0,022	-0,059
-332,475	-200,000	-0,030	-0,103
-331,460	-56,610	-0,088	0,028
-330,445	-136,429	0,109	-0,009
-329,431	800,000	-0,040	0,102
-328,416	-200,000	-0,023	-0,078
-327,402	-141,129	-0,093	-0,007
-326,387	132,217	-0,041	0,038
-325,372	-200,000	0,030	-0,111
-324,358	-22,367	0,120	-0,053
-323,343	-30,779	-0,129	0,052
-322,329	-146,215	0,140	0,009
-321,314	111,130	0,060	0,052
-320,299	154,489	-0,096	0,096
-319,285	175,839	0,039	-0,041
-318,270	800,000	0,019	-0,045
-317,256	-97,786	0,015	-0,003
-316,241	392,791	0,125	0,189
-315,226	-175,722	-0,088	-0,002
-314,212	-151,012	-0,052	0,003
-313,197	648,264	0,082	0,153
-312,183	-134,390	-0,045	0,004
-311,168	800,000	0,059	-0,144
-310,153	654,088	-0,045	-0,083
-309,139	47,153	-0,088	-0,059
-308,124	36,412	-0,152	-0,097
-307,110	456,608	0,089	0,143
-306,095	-38,902	0,172	0,065
-305,080	126,740	-0,024	0,022
-304,066	157,949	0,128	-0,128
-303,051	-200,000	0,016	0,053
-302,037	-139,870	-0,200	0,015
-301,022	163,001	0,053	-0,054
-300,008	701,021	0,059	0,113
-298,993	-140,925	0,111	0,008
-297,978	81,481	0,073	0,057
-296,964	-7,130	-0,047	0,023
-295,949	-200,000	-0,007	-0,025
-294,935	77,760	-0,026	0,020
-293,920	800,000	-0,041	0,097
-292,905	23,617	-0,068	-0,040
-291,891	143,766	0,052	0,050
-290,876	14,186	-0,119	-0,067
-289,862	-43,809	0,083	0,030
-288,847	-200,000	-0,001	0,024
-287,832	800,000	0,051	-0,126
-286,818	165,136	0,041	0,042
-285,803	-200,000	0,040	0,155
-284,789	-200,000	0,004	0,071
-283,774	-156,443	0,166	0,007
-282,759	251,749	-0,056	0,069
-281,745	-14,778	-0,198	0,092
-280,730	-104,199	0,115	-0,019
-279,716	800,000	-0,057	-0,116
-278,701	-5,448	-0,053	-0,026
-277,686	-200,000	-0,008	0,044
-276,672	-200,000	0,010	-0,076
-275,657	61,291	-0,091	-0,065
-274,643	-200,000	-0,016	-0,067
-273,628	30,763	-0,068	-0,042
-272,613	106,117	-0,089	0,076
-271,599	-10,979	0,044	0,021
-270,584	800,000	0,071	0,145
-269,570	-200,000	0,047	-0,154
-268,555	367,492	0,039	-0,057
-267,540	721,983	0,018	-0,034
-266,526	32,190	-0,088	0,055
-265,511	45,927	0,082	0,054
-264,497	111,192	0,051	0,044
-263,482	-110,527	0,160	0,024
-262,467	749,036	0,019	0,037
-261,453	241,900	-0,012	0,014
-260,438	800,000	0,066	-0,157
-259,424	-200,000	0,008	0,029
-258,409	433,914	-0,087	-0,136
-257,395	-131,395	0,188	-0,018
-256,380	8,706	0,143	0,078
-255,365	-200,000	-0,072	0,000
-254,351	37,398	-0,059	0,038
-253,336	177,451	0,025	0,026
-252,322	-107,265	-0,059	0,009
-251,307	800,000	0,027	-0,061
-250,292	480,722	-0,046	-0,075
-249,278	-24,285	0,024	0,010
-248,263	255,738	-0,036	0,045
-247,249	172,343	-0,105	0,109
-246,234	-125,267	-0,099	0,011
-245,219	-15,871	0,023	0,010
-244,205	40,893	-0,085	0,055
-243,190	248,405	-0,048	0,059
-242,176	96,993	0,117	0,097
-241,161	800,000	0,037	0,082
-240,146	419,408	0,015	0,024
-239,132	577,017	0,017	-0,030
-238,117	-200,000	-0,047	-0,153
-237,103	227,583	-0,081	0,096
-236,088	124,437	0,147	-0,133
-235,073	290,009	-0,070	-0,092
-234,059	-200,000	-0,020	0,102
-233,044	497,279	0,027	0,045
-232,030	-90,385	-0,066	0,014
-231,015	-8,198	-0,114	0,055
-230,000	58,761	-0,059	0,042
-228,986	273,199	-0,115	0,147
-227,971	68,078	0,056	0,041
-226,957	333,897	-0,035	0,049
-225,942	45,664	0,098	-0,065
-224,927	64,787	-0,080	-0,058
-223,913	-200,000	0,007	-0,136
-222,898	-200,000	-0,019	-0,122
-221,884	800,000	0,025	-0,052
-220,869	136,797	0,089	0,083
-219,855	-120,220	0,144	0,018
-218,840	-200,000	0,007	0,048
-217,825	435,282	-0,076	0,120
-216,811	423,016	0,089	-0,138
-215,796	466,846	0,037	-0,060
-214,782	-53,906	-0,030	-0,010
-213,767	-200,000	0,004	0,028
-212,752	-113,146	0,174	-0,025
-211,738	101,753	0,084	0,071
-210,723	-200,000	-0,015	0,133
-209,709	-118,882	-0,088	0,011
-208,694	-200,000	0,015	-0,135
-207,679	530,873	0,035	-0,060
-206,665	-200,000	-0,001	-0,032
-205,650	0,587	0,092	0,047
-204,636	552,383	0,015	0,026
-203,621	-151,733	-0,051	0,003
-202,606	81,517	-0,079	-0,062
-201,592	670,915	0,084	-0,158
-200,577	-79,897	0,084	0,020
-199,563	362,031	-0,058	-0,084
-198,548	239,685	0,062	0,075
-197,533	393,498	-0,063	0,095
-196,519	36,520	0,100	-0,064
-195,504	-76,793	-0,043	0,011
-194,490	-200,000	-0,025	0,118
-193,475	-133,788	-0,043	-0,004
-192,460	96,458	0,021	-0,017
-191,446	144,326	0,079	-0,076
-190,431	-88,473	0,113	0,024
-189,417	-8,923	0,066	0,032
-188,402	-29,496	-0,062	-0,025
-187,387	124,466	-0,100	-0,091
-186,373	800,000	0,022	0,055
-185,358	-18,812	-0,090	-0,040
-184,344	-200,000	-0,004	0,027
-183,329	64,636	-0,069	0,050
-182,315	-200,000	0,015	-0,066
-181,300	27,136	-0,143	-0,087
-180,285	12,501	0,112	0,062
-179,271	619,869	0,122	-0,223
-178,256	800,000	0,013	0,028
-177,242	-200,000	0,001	0,160
-176,227	800,000	-0,006	0,015
-175,212	-200,000	0,000	-0,076
-174,198	-83,580	0,086	0,020
-173,183	-39,011	-0,115	-0,043
-172,169	489,719	-0,015	-0,025
-171,154	212,069	0,049	-0,055
-170,139	297,325	-0,064	-0,085
-169,125	40,783	0,087	0,057
-168,110	100,876	0,047	-0,039
-167,096	348,428	-0,080	0,114
-166,081	5,528	0,123	-0,065
-165,066	20,111	0,115	0,067
-164,052	-46,367	0,016	0,006
-163,037	172,714	0,022	-0,023
-162,023	-200,000	0,012	0,105
-161,008	-129,450	-0,062	0,006
-159,993	-29,170	0,049	-0,020
-158,979	800,000	0,034	-0,105
-157,964	143,618	0,056	-0,054
-156,950	-11,738	0,022	-0,010
-155,935	28,463	-0,045	0,027
-154,920	82,801	0,142	0,111
-153,906	-117,713	-0,142	-0,018
-152,891	149,573	0,046	0,045
-151,877	-200,000	0,013	0,113
-150,862	-200,000	0,003	0,090
-149,847	-108,018	-0,038	-0,006
-148,833	35,839	0,071	-0,045
-147,818	215,774	0,075	0,086
-146,804	140,009	-0,105	0,100
-145,789	-16,541	0,059	0,027
-144,775	800,000	0,029	-0,074
-143,760	-200,000	-0,004	-0,017
-142,745	268,722	-0,088	0,112
-141,731	287,568	0,019	0,025
-140,716	-84,337	0,124	-0,028
-139,702	800,000	0,014	0,040
-138,687	586,751	-0,068	0,121
-137,672	800,000	-0,042	0,086
-136,658	250,415	0,053	-0,065
-135,643	-113,602	-0,026	0,004
-134,629	-43,223	-0,060	-0,022
-133,614	-44,706	-0,046	0,016
-132,599	-200,000	0,012	-0,092
-131,585	-200,000	0,017	0,119
-130,570	-165,003	-0,125	0,004
-129,556	-66,941	0,152	-0,043
-128,541	-200,000	0,004	-0,069
-127,526	16,291	-0,128	-0,072
-126,512	15,929	0,088	-0,050
-125,497	-142,181	0,123	0,009
-124,483	102,793	0,151	-0,127
-123,468	800,000	-0,034	-0,099
-122,453	190,475	-0,030	0,032
-121,439	-200,000	0,010	0,131
-120,424	-200,000	0,001	-0,128
-119,410	237,874	0,064	-0,076
-118,395	-129,613	0,030	-0,003
-117,380	-63,031	0,098	0,029
-116,366	-200,000	-0,037	0,145
-115,351	-21,147	-0,074	-0,032
-114,337	-43,942	-0,067	0,024
-113,322	761,421	-0,045	-0,088
-112,307	13,272	0,143	-0,079
-111,293	47,643	-0,028	0,019
-110,278	504,217	-0,012	-0,020
-109,264	600,218	0,082	0,146
-108,249	-51,911	0,144	-0,048
-107,234	-200,000	-0,000	0,011
-106,220	314,244	0,008	-0,011
-105,205	690,214	0,015	0,029
-104,191	800,000	-0,041	0,091
-103,176	-200,000	-0,003	-0,086
-102,162	-128,215	0,114	-0,012
-101,147	-154,834	-0,171	0,008
-100,132	-200,000	-0,010	-0,038
-99,118	-200,000	0,029	0,131
-98,103	-134,528	-0,132	-0,011
-97,089	-90,941	0,092	-0,019
-96,074	-200,000	-0,016	0,149
-95,059	788,541	0,023	-0,045
-94,045	800,000	0,027	-0,071
-93,030	-74,838	-0,099	0,025
-92,016	42,616	0,102	-0,066
-91,001	-200,000	-0,008	0,119
-89,986	242,313	-0,039	0,047
-88,972	153,350	0,072	-0,071
-87,957	96,403	-0,047	0,038
-86,943	-86,403	-0,117	-0,026
-85,928	800,000	0,015	0,033
-84,913	708,361	-0,080	-0,152
-83,899	-82,619	-0,065	0,015
-82,884	-66,875	-0,038	0,011
-81,870	800,000	0,028	0,081
-80,855	800,000	0,053	0,120
-79,840	108,295	-0,177	-0,151
-78,826	15,334	-0,089	-0,050
-77,811	-15,512	-0,075	0,034
-76,797	635,377	-0,071	-0,130
-75,782	-129,803	-0,074	-0,007
-74,767	344,084	-0,030	0,043
-73,753	800,000	0,035	0,078
-72,738	-200,000	-0,017	0,164
-71,724	-45,287	-0,095	-0,034
-70,709	153,056	0,054	-0,053
-69,694	-6,406	-0,039	-0,019
-68,680	168,526	0,024	0,025
-67,665	-122,981	-0,052	-0,006
-66,651	-44,902	-0,077	0,027
-65,636	-62,633	-0,094	0,028
-64,622	-200,000	0,008	0,043
-63,607	330,082	0,089	-0,123
-62,592	-36,883	-0,079	-0,030
-61,578	800,000	0,023	-0,062
-60,563	-39,523	0,111	0,041
-59,549	-200,000	-0,048	0,166
-58,534	7,410	-1,972	-1,054
-57,519	-200,000	-0,242	-0,930
-56,505	-200,000	-1,201	-5,048
-55,490	86,533	0,774	0,612
-54,476	800,000	5,414	11,910
-53,461	-200,000	17,789	288,258
-52,446	800,000	729,401	2226,216
-51,432	534,975	1644,847	2807,285
-50,417	109,447	1634,899	1403,659
-49,403	75,207	1286,759	971,752
-48,388	31,656	1027,251	632,117
-47,373	20,058	989,115	570,449
-46,359	18,237	976,601	557,248
-45,344	15,286	972,875	545,456
-44,330	15,559	971,382	545,489
-43,315	15,008	969,462	542,592
-42,300	14,958	968,494	541,866
-41,286	14,905	967,587	541,165
-40,271	14,980	966,590	540,827
-39,257	14,977	965,667	540,279
-38,242	15,088	964,347	539,881
-37,227	15,005	963,910	539,347
-36,213	15,004	962,887	538,749
-35,198	15,026	961,982	538,291
-34,184	15,035	961,237	537,881
-33,169	14,939	960,330	537,043
-32,154	15,018	959,508	536,819
-31,140	15,006	958,503	536,196
-30,125	15,013	957,734	535,767
-29,111	15,005	956,882	535,244
-28,096	15,023	956,256	534,930
-27,082	15,041	955,407	534,491
-26,067	15,029	954,714	534,044
-25,052	15,000	954,041	533,554
-24,038	15,019	953,333	533,197
-23,023	15,002	952,723	532,779
-22,009	15,062	952,043	532,571
-20,994	15,040	951,541	532,198
-19,979	15,066	950,664	531,770
-18,965	15,024	950,221	531,368
-17,950	15,007	949,800	531,056
-16,936	14,901	948,985	530,241
-15,921	14,914	948,300	529,877
-14,906	14,896	947,520	529,366
-13,892	14,897	946,836	528,966
-12,877	14,897	946,162	528,566
-11,863	14,909	945,709	528,331
-10,848	14,927	945,086	528,019
-9,833	14,959	944,669	527,866
-8,819	14,984	944,009	527,557
-7,804	14,922	943,329	526,959
-6,790	14,933	942,667	526,605
-5,775	14,950	942,181	526,365
-4,760	14,906	941,569	525,863
-3,746	14,908	940,855	525,449
-2,731	14,768	940,359	524,709
-1,717	14,714	939,483	524,029
-0,702	14,759	939,066	523,917
0,313	14,593	938,165	523,683
1,327	17,810	936,185	532,650
2,342	26,711	792,674	474,519
3,356	23,479	457,840	269,127
4,371	-3,574	314,002	155,881
5,386	-7,507	295,883	142,900
6,400	-9,628	289,904	137,899
7,415	-9,963	287,169	136,257
8,429	-10,119	285,743	135,415
9,444	-10,307	284,939	134,840
10,459	-10,147	284,183	134,625
11,473	-10,354	283,674	134,171
12,488	-10,311	283,174	133,965
13,502	-10,303	282,687	133,730
14,517	-10,223	282,285	133,605
15,531	-10,315	281,779	133,265
16,546	-10,298	281,299	133,042
17,561	-10,184	280,862	132,933
18,575	-10,029	280,479	132,889
19,590	-10,453	280,219	132,347
20,604	-10,214	279,871	132,400
21,619	-10,356	279,653	132,149
22,634	-10,284	279,256	132,019
23,648	-10,429	278,738	131,624
24,663	-10,347	278,688	131,666
25,677	-10,236	278,472	131,659
26,692	-10,244	278,060	131,445
27,707	-10,215	277,743	131,310
28,721	-10,346	277,563	131,089
29,736	-10,298	277,322	131,009
30,750	-10,373	277,055	130,800
31,765	-10,267	276,821	130,779
32,780	-10,251	276,544	130,651
33,794	-10,293	276,336	130,501
34,809	-10,265	275,962	130,339
35,823	-10,396	275,717	130,089
36,838	-10,269	275,548	130,117
37,853	-10,549	275,278	129,716
38,867	-10,476	275,011	129,646
39,882	-10,396	274,805	129,613
40,896	-10,335	274,682	129,600
41,911	-10,341	274,205	129,358
42,926	-10,291	274,006	129,300
43,940	-10,293	273,827	129,201
44,955	-10,278	273,585	129,090
45,969	-10,462	273,299	128,772
46,984	-10,595	273,218	128,598
47,999	-10,626	272,820	128,370
49,013	-10,856	272,631	128,057
50,028	-11,122	272,325	127,654
51,042	-11,068	272,003	127,542
52,057	-11,137	271,688	127,319
53,071	-11,045	271,548	127,328
54,086	-10,919	271,443	127,383
55,101	-10,760	271,200	127,405
56,115	-10,509	271,001	127,531
57,130	-10,218	271,045	127,809
58,144	-10,109	270,677	127,725
59,159	-10,212	270,583	127,574
60,174	-10,227	270,331	127,430
61,188	-10,181	270,053	127,330
62,203	-10,365	269,980	127,115
63,217	-10,215	269,748	127,133
64,232	-10,131	269,303	126,988
65,247	-10,093	269,236	126,981
66,261	-10,156	268,888	126,747
67,276	-10,326	268,663	126,475
68,290	-10,505	268,386	126,169
69,305	-10,459	268,156	126,092
70,320	-10,713	268,062	125,805
71,334	-10,364	267,812	125,994
72,349	-10,256	267,633	125,998
73,363	-10,000	267,354	126,088
74,378	-10,208	267,230	125,828
75,393	-10,087	266,993	125,816
76,407	-10,363	266,869	125,495
77,422	-10,043	266,584	125,641
78,436	-10,124	266,245	125,396
79,451	-10,131	266,120	125,320
80,466	-10,165	265,809	125,131
81,480	-10,261	265,603	124,937
82,495	-10,411	265,434	124,711
83,509	-10,538	265,305	124,525
84,524	-10,426	264,818	124,386
85,539	-10,547	264,829	124,271
86,553	-10,714	264,687	124,043
87,568	-10,435	264,309	124,105
88,582	-10,346	264,238	124,141
89,597	-10,528	264,043	123,875
90,611	-10,090	263,789	124,137
91,626	-10,203	263,877	124,066
92,641	-10,280	263,552	123,833
93,655	-10,258	263,303	123,725
94,670	-10,182	263,119	123,695
95,684	-10,464	262,891	123,325
96,699	-10,238	262,640	123,398
97,714	-10,218	262,433	123,308
98,728	-10,667	262,335	122,851
99,743	-10,433	261,991	122,887
100,757	-10,471	261,737	122,723
101,772	-10,332	261,676	122,807
102,787	-10,370	261,465	122,663
103,801	-10,221	261,237	122,677
104,816	-10,150	261,052	122,642
105,830	-10,043	260,868	122,639
106,845	-10,243	260,784	122,412
107,860	-10,399	260,596	122,175
108,874	-10,203	260,325	122,211
109,889	-9,985	259,988	122,233
110,903	-10,133	259,861	122,032
111,918	-10,144	259,542	121,862
112,933	-10,243	259,572	121,778
113,947	-10,106	259,335	121,777
114,962	-10,419	259,103	121,382
115,976	-10,258	259,024	121,475
116,991	-10,378	258,919	121,310
118,006	-10,291	258,578	121,216
119,020	-10,346	258,448	121,096
120,035	-10,138	258,263	121,181
121,049	-9,964	258,055	121,224
122,064	-10,204	257,911	120,936
123,079	-10,103	257,710	120,919
124,093	-10,213	257,436	120,684
125,108	-10,507	257,201	120,307
126,122	-10,649	256,941	120,051
127,137	-10,653	256,799	119,971
128,151	-10,585	256,598	119,925
129,166	-10,374	256,514	120,058
130,181	-10,560	256,333	119,801
131,195	-10,638	256,126	119,626
132,210	-10,232	256,072	119,942
133,224	-10,361	255,698	119,645
134,239	-10,091	255,539	119,793
135,254	-10,146	255,404	119,671
136,268	-10,323	255,066	119,349
137,283	-10,485	254,842	119,095
138,297	-10,691	254,745	118,862
139,312	-10,554	254,377	118,797
140,327	-10,246	254,447	119,084
141,341	-10,124	254,305	119,111
142,356	-10,219	254,213	118,976
143,370	-10,102	254,014	118,973
144,385	-9,959	253,921	119,042
145,400	-9,954	253,532	118,853
146,414	-10,017	253,428	118,740
147,429	-9,968	253,189	118,659
148,443	-10,169	253,044	118,408
149,458	-9,938	252,832	118,496
150,473	-9,948	252,606	118,371
151,487	-10,135	252,403	118,106
152,502	-10,121	252,133	117,981
153,516	-10,142	252,139	117,956
154,531	-10,098	251,955	117,896
155,546	-10,003	251,779	117,885
156,560	-9,997	251,528	117,761
157,575	-10,044	251,278	117,594
158,589	-10,124	251,093	117,429
159,604	-9,880	250,967	117,566
160,619	-10,013	250,838	117,383
161,633	-9,851	250,564	117,381
162,648	-9,979	250,572	117,266
163,662	-9,937	250,314	117,170
164,677	-9,922	250,084	117,065
165,692	-10,020	250,007	116,936
166,706	-9,805	249,852	117,034
167,721	-9,928	249,575	116,791
168,735	-9,827	249,495	116,828
169,750	-9,985	249,331	116,608
170,764	-10,020	249,269	116,539
171,779	-9,921	249,094	116,530
172,794	-9,783	248,855	116,523
173,808	-10,265	248,741	116,055
174,823	-10,206	248,362	115,917
175,837	-10,455	248,080	115,568
176,852	-10,221	248,158	115,789
177,867	-9,929	247,955	115,928
178,881	-10,056	247,957	115,812
179,896	-9,788	247,549	115,835
180,910	-9,913	247,443	115,671
181,925	-9,957	247,221	115,520
182,940	-9,953	247,065	115,440
183,954	-9,826	246,944	115,479
184,969	-9,745	246,692	115,418
185,983	-9,896	246,770	115,319
186,998	-9,781	246,552	115,302
188,013	-9,985	246,376	115,041
189,027	-9,764	246,131	115,099
190,042	-9,988	246,005	114,845
191,056	-9,951	245,778	114,759
192,071	-9,853	245,584	114,739
193,086	-9,964	245,405	114,554
194,100	-10,131	245,372	114,390
195,115	-9,813	245,059	114,496
196,129	-9,847	244,779	114,327
197,144	-9,976	244,737	114,191
198,159	-9,838	244,487	114,177
199,173	-10,034	244,458	113,993
200,188	-9,896	244,174	113,964
201,202	-10,034	243,675	113,607
202,217	-10,419	243,591	113,243
203,232	-10,599	243,479	113,034
204,246	-10,118	243,361	113,362
205,261	-9,513	243,256	113,798
206,275	-10,452	243,026	112,913
207,290	-6,401	244,493	116,910
208,304	0,921	247,117	124,212
209,319	4,408	247,790	127,421
210,334	5,012	247,676	127,849
211,348	4,943	247,760	127,824
212,363	5,306	247,615	128,037
213,377	5,582	247,548	128,219
214,392	5,360	247,156	127,822
215,407	5,017	247,065	127,481
216,421	5,307	247,004	127,676
217,436	5,377	246,962	127,701
218,450	5,459	246,700	127,621
219,465	5,244	246,477	127,318
220,480	5,025	246,338	127,056
221,494	5,028	246,206	126,979
222,509	4,957	246,052	126,830
223,523	4,807	245,810	126,571
224,538	4,418	245,661	126,165
225,553	4,855	245,365	126,359
226,567	5,043	245,322	126,479
227,582	5,069	245,108	126,378
228,596	4,723	244,932	125,995
229,611	4,723	244,690	125,859
230,626	4,575	244,479	125,619
231,640	4,472	244,384	125,475
232,655	4,874	244,110	125,650
233,669	4,495	244,065	125,308
234,684	4,291	243,871	125,031
235,699	4,799	243,844	125,418
236,713	5,076	243,703	125,559
237,728	4,753	243,398	125,129
238,742	4,643	243,121	124,887
239,757	4,598	242,999	124,777
240,772	4,353	242,861	124,497
241,786	4,548	242,918	124,672
242,801	4,523	242,549	124,452
243,815	4,456	242,538	124,381
244,830	4,735	242,432	124,540
245,844	5,001	242,296	124,673
246,859	4,700	242,054	124,296
247,874	4,495	241,890	124,036
248,888	4,591	241,763	124,037
249,903	4,729	241,577	124,041
250,917	4,842	241,401	124,030
251,932	5,063	241,379	124,184
252,947	4,943	241,093	123,931
253,961	4,788	240,917	123,705
254,976	4,694	240,895	123,608
255,990	4,731	240,767	123,560
257,005	4,739	240,443	123,390
258,020	4,599	240,316	123,202
259,034	4,498	240,176	123,038
260,049	4,763	240,083	123,191
261,063	4,362	239,855	122,744
262,078	4,481	239,692	122,744
263,093	4,797	239,593	122,934
264,107	4,937	239,528	123,000
265,122	4,658	239,246	122,624
266,136	4,743	239,059	122,584
267,151	4,928	238,961	122,669
268,166	4,629	238,695	122,285
269,180	4,383	238,567	122,014
270,195	5,009	238,720	122,577
271,209	5,604	238,450	122,897
272,224	4,884	238,259	122,220
273,239	4,144	238,005	121,495
274,253	4,300	237,910	121,558
275,268	4,563	237,813	121,705
276,282	4,607	237,636	121,638
277,297	4,522	237,338	121,408
278,312	4,616	237,110	121,355
279,326	4,517	237,133	121,278
280,341	4,438	237,011	121,143
281,355	4,513	236,900	121,134
282,370	4,830	236,605	121,221
283,384	4,826	236,509	121,158
284,399	4,395	236,259	120,682
285,414	4,375	236,097	120,572
286,428	4,553	236,033	120,668
287,443	4,385	236,046	120,533
288,457	4,532	235,823	120,523
289,472	4,922	235,672	120,739
290,487	4,705	235,565	120,504
291,501	4,466	235,320	120,182
292,516	4,368	235,133	120,000
293,530	4,483	234,878	119,948
294,545	4,704	234,866	120,103
295,560	4,586	234,685	119,908
296,574	4,472	234,510	119,719
297,589	4,481	234,384	119,651
298,603	4,765	234,493	119,917
299,618	4,881	234,133	119,812
300,633	4,836	233,976	119,686
301,647	4,761	234,026	119,642
302,662	5,144	233,840	119,833
303,676	4,992	233,720	119,643
304,691	4,929	233,489	119,466
305,706	5,146	233,371	119,562
306,720	5,222	233,268	119,557
307,735	4,822	233,100	119,152
308,749	4,660	232,886	118,908
309,764	4,508	232,665	118,668
310,779	4,377	232,403	118,422
311,793	4,311	232,166	118,241
312,808	3,988	231,997	117,896
313,822	4,363	232,076	118,214
314,837	4,812	232,040	118,529
315,852	4,782	231,697	118,321
316,866	4,833	231,630	118,314
317,881	4,952	231,479	118,318
318,895	5,128	231,452	118,428
319,910	5,002	231,238	118,211
320,925	4,822	230,930	117,907
321,939	4,477	230,744	117,538
322,954	4,660	230,665	117,627
323,968	4,592	230,617	117,540
324,983	4,603	230,426	117,441
325,997	5,187	230,413	117,868
327,012	4,815	230,340	117,537
328,027	4,885	229,950	117,380
329,041	5,003	229,975	117,472
330,056	5,319	230,032	117,731
331,070	5,344	229,794	117,617
332,085	4,875	229,686	117,197
333,100	4,757	229,334	116,917
334,114	4,752	229,168	116,818
335,129	5,148	229,206	117,127
336,143	5,044	229,007	116,936
337,158	5,157	228,764	116,886
338,173	4,792	228,640	116,538
339,187	4,780	228,375	116,384
340,202	4,677	228,265	116,239
341,216	4,415	228,249	116,024
342,231	4,949	228,069	116,323
343,246	4,747	227,924	116,087
344,260	4,960	227,751	116,149
345,275	4,959	227,752	116,138
346,289	4,907	227,704	116,064
347,304	4,987	227,483	116,000
348,319	4,986	227,214	115,853
349,333	4,972	227,167	115,808
350,348	4,832	226,826	115,520
351,362	5,005	226,664	115,555
352,377	4,519	226,505	115,102
353,392	4,518	226,370	115,023
354,406	4,518	226,415	115,035
355,421	194,611	1317,974	1390,244
356,435	155,991	1450,942	1390,225
