DTS Sentinel unit serial number:	SN410029Multiplexer serial number:	ORYXHardware model number:	OX2-SRSoftware version number:	ORYX F/W v4,00 Oryx Data Collector v3.7.2.0data status	okinstallation	B5 Nyhavnadifferential loss correction	single-endedforward channel	channel 2reverse channel	N/Adate	2023/12/12time	14:37:13forward acquisition time	300,00reverse acquisition time	0,00gamma	499,1914k internal	0,3157k external	0,3157temperature offset calibration	1,0000default loss term (dB/km)	0,3820temperature slope calibration	1,0000multiplexer offset coefficient	1,0000multiplexer slope coefficient	1,0000fibre end	0,00T internal ref (°C)	15,87T ext. ref 1 (°C)	-0,34T ext. ref 2 (°C)	-0,58length (m)	temperature (°C)	Stokes	anti-Stokes-744,400	-150,076	0,108	0,006
-743,385	62,745	-0,206	0,152
-742,371	-52,438	0,206	0,070
-741,356	-81,606	-0,172	0,041
-740,342	-200,000	-0,026	-0,100
-739,327	-67,275	-0,285	0,082
-738,312	395,815	-0,042	0,064
-737,298	-164,508	-0,390	0,013
-736,283	-166,233	0,176	0,005
-735,269	-146,029	-0,405	-0,026
-734,254	123,613	0,102	-0,095
-733,239	-68,951	-0,641	-0,181
-732,225	-13,499	0,145	-0,069
-731,210	-117,085	-0,099	0,013
-730,196	-200,000	-0,005	-0,138
-729,181	-131,180	-0,062	0,006
-728,167	-176,272	-0,151	-0,003
-727,152	132,430	-0,133	-0,126
-726,137	247,732	-0,072	-0,090
-725,123	70,207	-0,132	-0,101
-724,108	-130,322	0,127	-0,013
-723,094	105,381	-0,071	-0,061
-722,079	-19,463	-0,055	-0,025
-721,064	-189,133	-0,092	-0,001
-720,050	266,823	0,052	-0,067
-719,035	347,681	-0,034	-0,050
-718,021	287,202	-0,100	-0,133
-717,006	556,781	-0,052	-0,093
-715,991	686,798	0,055	-0,106
-714,977	800,000	0,056	-0,172
-713,962	800,000	0,062	-0,186
-712,948	800,000	0,039	-0,117
-711,933	-200,000	0,007	-0,044
-710,918	-28,734	-0,043	-0,018
-709,904	800,000	-0,030	-0,077
-708,889	800,000	0,040	-0,100
-707,875	652,779	-0,027	0,051
-706,860	800,000	-0,010	-0,027
-705,845	571,804	-0,049	0,087
-704,831	243,117	0,058	0,071
-703,816	329,903	0,061	-0,087
-702,802	94,893	0,029	-0,024
-701,787	-51,855	-0,095	0,032
-700,772	-103,653	0,148	0,025
-699,758	5,940	-0,111	-0,060
-698,743	-200,000	-0,009	-0,126
-697,729	800,000	-0,016	0,048
-696,714	-65,850	-0,113	-0,033
-695,699	661,644	-0,021	0,040
-694,685	113,458	0,083	-0,074
-693,670	-81,502	0,099	0,024
-692,656	-200,000	0,033	-0,111
-691,641	-5,719	-0,024	-0,012
-690,627	487,137	0,064	0,108
-689,612	46,402	0,074	-0,051
-688,597	-200,000	-0,011	0,061
-687,583	-200,000	-0,003	-0,127
-686,568	-40,911	-0,055	-0,021
-685,554	-66,648	-0,033	0,009
-684,539	800,000	0,027	-0,067
-683,524	800,000	0,035	-0,078
-682,510	-200,000	-0,034	-0,132
-681,495	-200,000	0,009	0,113
-680,481	-200,000	0,005	-0,093
-679,466	-52,966	-0,130	-0,044
-678,451	317,065	0,026	0,036
-677,437	-200,000	0,015	-0,057
-676,422	-200,000	-0,009	-0,201
-675,408	83,324	-0,100	-0,080
-674,393	800,000	-0,031	-0,078
-673,378	32,025	-0,068	-0,043
-672,364	-100,617	0,113	-0,020
-671,349	27,625	-0,038	-0,024
-670,335	-13,986	0,103	0,049
-669,320	182,245	0,092	-0,099
-668,305	3,296	-0,110	-0,059
-667,291	-31,868	0,068	-0,028
-666,276	151,318	0,034	-0,034
-665,262	800,000	0,027	0,070
-664,247	-200,000	0,001	0,009
-663,232	-70,496	0,108	-0,030
-662,218	439,355	0,018	0,029
-661,203	11,036	0,014	0,008
-660,189	34,829	0,065	-0,041
-659,174	-200,000	0,005	0,035
-658,159	13,964	0,034	-0,019
-657,145	24,433	-0,133	-0,081
-656,130	278,773	-0,081	-0,107
-655,116	557,270	0,028	-0,049
-654,101	-160,160	-0,089	-0,003
-653,086	800,000	0,037	-0,078
-652,072	800,000	-0,062	-0,142
-651,057	250,113	-0,150	-0,187
-650,043	-151,804	-0,091	0,005
-649,028	800,000	0,044	0,127
-648,014	335,037	-0,031	0,044
-646,999	-181,124	-0,078	-0,001
-645,984	94,524	-0,029	-0,024
-644,970	-200,000	-0,015	-0,122
-643,955	625,500	0,076	-0,141
-642,941	-200,000	0,012	-0,213
-641,926	728,937	-0,017	0,034
-640,911	214,941	-0,124	-0,145
-639,897	-145,179	0,017	-0,001
-638,882	155,202	-0,075	-0,076
-637,868	-103,793	-0,089	0,015
-636,853	100,687	-0,064	0,054
-635,838	-119,741	0,054	0,007
-634,824	-200,000	-0,004	0,051
-633,809	-200,000	0,010	0,068
-632,795	-104,090	0,090	-0,015
-631,780	800,000	-0,038	0,082
-630,765	-70,949	0,112	0,031
-629,751	24,901	-0,023	-0,014
-628,736	-200,000	-0,001	0,060
-627,722	-40,299	-0,057	-0,022
-626,707	-46,434	0,131	0,047
-625,692	-200,000	-0,034	0,144
-624,678	-178,479	-0,128	0,002
-623,663	-200,000	-0,001	-0,033
-622,649	800,000	0,022	-0,051
-621,634	-137,526	-0,102	-0,008
-620,619	69,430	-0,061	-0,046
-619,605	-146,023	-0,071	0,005
-618,590	800,000	0,046	-0,136
-617,576	167,009	-0,085	0,089
-616,561	64,972	-0,078	-0,058
-615,546	740,081	0,010	0,020
-614,532	-200,000	-0,001	0,023
-613,517	-200,000	0,001	-0,083
-612,503	-200,000	-0,010	-0,105
-611,488	425,033	-0,046	0,074
-610,474	-92,033	-0,010	0,002
-609,459	74,916	0,025	0,019
-608,444	-200,000	0,005	0,100
-607,430	235,435	-0,098	-0,119
-606,415	53,301	-0,070	0,049
-605,401	100,322	0,027	0,023
-604,386	800,000	-0,016	0,045
-603,371	280,762	0,052	-0,068
-602,357	231,839	0,057	-0,069
-601,342	87,107	-0,038	0,031
-600,328	430,864	0,063	0,100
-599,313	800,000	-0,054	-0,127
-598,298	-57,488	-0,162	-0,052
-597,284	800,000	-0,037	0,096
-596,269	-19,198	0,124	0,056
-595,255	-200,000	-0,014	0,094
-594,240	-89,147	-0,184	0,039
-593,225	-42,744	-0,135	-0,050
-592,211	286,746	-0,025	-0,033
-591,196	-200,000	0,005	0,145
-590,182	-200,000	0,034	0,167
-589,167	-32,889	-0,095	0,039
-588,152	217,495	-0,011	-0,013
-587,138	-142,961	-0,132	-0,009
-586,123	-68,300	0,075	-0,021
-585,109	-200,000	0,017	-0,099
-584,094	15,674	-0,112	-0,065
-583,079	-16,047	0,067	-0,031
-582,065	-200,000	0,009	0,033
-581,050	-36,462	0,156	-0,061
-580,036	-3,540	-0,042	-0,021
-579,021	-12,719	-0,129	-0,061
-578,006	112,846	-0,100	-0,089
-576,992	367,075	-0,032	-0,048
-575,977	150,873	-0,073	-0,073
-574,963	-200,000	0,018	-0,118
-573,948	662,536	-0,009	-0,018
-572,934	131,636	-0,033	0,031
-571,919	-3,954	-0,044	-0,022
-570,904	-200,000	0,010	0,038
-569,890	-200,000	0,002	-0,080
-568,875	-42,307	-0,124	-0,046
-567,861	-81,826	-0,075	-0,018
-566,846	322,846	-0,032	-0,045
-565,831	471,327	0,045	0,075
-564,817	-66,354	-0,042	0,012
-563,802	422,292	-0,064	-0,100
-562,788	-138,883	-0,044	-0,003
-561,773	172,506	-0,086	-0,091
-560,758	2,926	0,025	-0,013
-559,744	-49,108	0,138	0,048
-558,729	-17,565	0,146	0,067
-557,715	-200,000	-0,002	-0,079
-556,700	-82,485	-0,059	0,014
-555,685	171,572	-0,054	-0,056
-554,671	-200,000	0,006	-0,050
-553,656	41,649	0,060	0,040
-552,642	800,000	0,006	0,012
-551,627	-200,000	0,006	-0,079
-550,612	-62,935	-0,099	-0,030
-549,598	-90,738	0,098	-0,020
-548,583	-163,029	-0,114	0,004
-547,569	112,126	-0,064	0,057
-546,554	-200,000	-0,001	0,050
-545,539	800,000	0,014	-0,030
-544,525	237,334	0,053	-0,065
-543,510	800,000	0,005	-0,012
-542,496	-14,727	0,029	0,014
-541,481	532,923	-0,026	0,045
-540,466	26,276	-0,053	0,032
-539,452	-50,231	-0,075	-0,026
-538,437	481,984	-0,032	-0,053
-537,423	-200,000	0,000	0,023
-536,408	156,246	-0,045	-0,045
-535,393	800,000	-0,011	-0,032
-534,379	-80,655	0,063	0,015
-533,364	-200,000	-0,003	-0,018
-532,350	20,973	-0,067	0,039
-531,335	181,963	-0,147	-0,159
-530,321	124,791	0,107	-0,099
-529,306	800,000	0,020	0,065
-528,291	-105,616	-0,093	-0,015
-527,277	30,016	-0,100	0,062
-526,262	1,476	-0,092	-0,048
-525,248	20,908	-0,092	0,054
-524,233	-67,961	0,105	-0,030
-523,218	-200,000	-0,007	0,131
-522,204	-20,596	0,035	0,016
-521,189	-106,960	-0,106	0,017
-520,175	-200,000	0,001	-0,019
-519,160	51,115	-0,143	-0,099
-518,145	-200,000	-0,024	0,087
-517,131	-200,000	0,012	0,070
-516,116	562,130	-0,053	0,094
-515,102	208,969	-0,090	0,104
-514,087	-200,000	-0,021	0,216
-513,072	99,849	-0,086	-0,073
-512,058	164,823	0,100	0,103
-511,043	800,000	0,072	-0,149
-510,029	-142,641	-0,084	0,006
-509,014	-177,645	-0,114	-0,002
-507,999	-200,000	0,040	0,196
-506,985	-200,000	-0,001	-0,026
-505,970	-200,000	-0,001	-0,072
-504,956	-200,000	0,032	0,149
-503,941	-134,928	-0,086	-0,007
-502,926	103,506	0,029	0,024
-501,912	141,624	-0,054	-0,052
-500,897	-10,282	0,097	-0,047
-499,883	-200,000	0,016	-0,114
-498,868	53,395	0,020	-0,014
-497,853	62,360	0,047	0,034
-496,839	32,336	-0,039	0,024
-495,824	61,251	0,013	-0,010
-494,810	-200,000	-0,008	0,099
-493,795	-40,992	0,085	0,032
-492,781	-109,520	0,014	-0,002
-491,766	1,847	-0,057	0,030
-490,751	-115,050	0,094	0,013
-489,737	-130,210	-0,116	-0,011
-488,722	-200,000	-0,007	-0,031
-487,708	69,793	0,116	0,087
-486,693	-200,000	-0,033	0,118
-485,678	-200,000	0,003	-0,048
-484,664	-200,000	-0,040	-0,184
-483,649	-200,000	0,018	-0,128
-482,635	800,000	0,012	0,026
-481,620	-200,000	-0,012	0,151
-480,605	-200,000	-0,019	-0,074
-479,591	800,000	0,028	0,075
-478,576	-27,756	-0,061	-0,026
-477,562	-56,162	0,054	0,017
-476,547	191,027	-0,029	0,032
-475,532	428,059	0,046	-0,073
-474,518	-200,000	0,022	0,156
-473,503	92,743	-0,019	0,016
-472,489	354,682	-0,039	0,056
-471,474	75,809	-0,098	-0,075
-470,459	-108,453	0,079	-0,012
-469,445	800,000	-0,051	0,127
-468,430	-105,032	-0,048	-0,008
-467,416	-200,000	0,013	0,091
-466,401	-25,597	-0,055	0,024
-465,386	-69,789	0,095	-0,026
-464,372	48,961	0,114	-0,078
-463,357	-177,410	-0,070	-0,001
-462,343	-200,000	0,032	-0,142
-461,328	-158,345	0,172	-0,007
-460,313	800,000	-0,053	-0,144
-459,299	72,769	0,012	-0,009
-458,284	-55,165	-0,151	-0,049
-457,270	-59,404	0,086	0,027
-456,255	-65,936	-0,100	-0,029
-455,241	800,000	0,037	-0,079
-454,226	64,227	-0,029	0,021
-453,211	-110,226	0,050	-0,007
-452,197	-162,219	-0,111	0,004
-451,182	167,139	0,052	-0,054
-450,168	-6,582	-0,128	0,063
-449,153	255,897	0,007	0,009
-448,138	-51,224	-0,097	-0,033
-447,124	263,798	-0,048	0,061
-446,109	-99,400	-0,079	0,014
-445,095	220,331	0,081	0,095
-444,080	-120,373	0,098	0,012
-443,065	-200,000	0,033	0,000
-442,051	-200,000	0,030	-0,103
-441,036	57,805	0,069	-0,049
-440,022	138,216	0,067	-0,064
-439,007	800,000	0,034	0,070
-437,992	46,404	-0,139	0,094
-436,978	-102,428	0,163	-0,028
-435,963	96,038	-0,079	-0,065
-434,949	85,697	-0,044	0,035
-433,934	-200,000	-0,004	-0,030
-432,919	-200,000	0,012	-0,104
-431,905	-98,340	-0,104	-0,019
-430,890	278,376	0,052	-0,067
-429,876	644,767	-0,017	-0,032
-428,861	375,177	0,030	0,045
-427,846	646,803	-0,009	-0,017
-426,832	87,974	0,066	-0,054
-425,817	-200,000	-0,024	-0,086
-424,803	6,919	0,088	-0,048
-423,788	-200,000	0,035	0,111
-422,773	-52,502	0,027	-0,009
-421,759	4,829	-0,121	0,065
-420,744	800,000	0,024	0,067
-419,730	252,862	-0,043	-0,053
-418,715	800,000	-0,019	-0,048
-417,701	212,216	-0,025	0,029
-416,686	800,000	0,003	-0,010
-415,671	-200,000	0,009	0,051
-414,657	-97,480	-0,038	-0,007
-413,642	-165,068	0,183	0,006
-412,628	-200,000	0,006	-0,082
-411,613	238,892	0,018	-0,022
-410,598	800,000	0,036	-0,115
-409,584	364,817	-0,036	0,053
-408,569	353,396	0,089	0,128
-407,555	295,462	0,033	0,044
-406,540	800,000	0,058	0,154
-405,525	668,211	0,018	-0,035
-404,511	129,358	0,038	-0,035
-403,496	-64,735	-0,072	-0,021
-402,482	-182,184	-0,095	0,001
-401,467	-200,000	0,010	0,044
-400,452	26,120	-0,050	-0,030
-399,438	63,964	0,058	0,043
-398,423	684,753	0,058	-0,110
-397,409	369,869	-0,056	-0,083
-396,394	-11,021	-0,079	-0,038
-395,379	-172,572	-0,079	-0,002
-394,365	245,185	0,079	0,097
-393,350	-200,000	-0,006	0,084
-392,336	184,266	-0,043	0,047
-391,321	800,000	0,012	-0,039
-390,306	800,000	-0,035	-0,080
-389,292	-200,000	-0,026	-0,135
-388,277	-182,121	-0,108	-0,001
-387,263	121,644	0,044	0,040
-386,248	273,637	0,102	0,132
-385,233	72,892	0,078	0,059
-384,219	-44,344	0,107	0,039
-383,204	-200,000	0,013	0,135
-382,190	-39,193	-0,107	-0,041
-381,175	-186,987	0,151	0,001
-380,160	64,487	0,087	-0,064
-379,146	-96,889	0,108	-0,020
-378,131	-48,607	0,015	-0,005
-377,117	-200,000	0,039	0,141
-376,102	10,311	0,051	0,028
-375,088	-47,040	-0,065	0,023
-374,073	96,315	-0,109	0,091
-373,058	-200,000	0,002	0,162
-372,044	243,871	-0,090	0,110
-371,029	-64,026	0,080	-0,024
-370,015	594,372	0,076	0,137
-369,000	-7,817	0,054	0,027
-367,985	242,247	-0,101	0,123
-366,971	141,689	-0,168	-0,162
-365,956	222,963	0,019	0,022
-364,942	-11,277	0,062	-0,030
-363,927	-200,000	-0,013	0,109
-362,912	444,383	0,047	0,075
-361,898	13,860	-0,048	0,027
-360,883	-100,454	-0,095	-0,017
-359,869	-200,000	-0,019	0,067
-358,854	-19,475	0,104	0,046
-357,839	-120,135	0,132	0,016
-356,825	78,592	-0,049	-0,038
-355,810	-64,849	0,142	0,041
-354,796	-200,000	-0,014	0,169
-353,781	28,928	0,033	0,020
-352,766	185,208	0,028	0,030
-351,752	-200,000	-0,031	-0,132
-350,737	-200,000	-0,003	0,011
-349,723	533,888	-0,045	0,077
-348,708	164,305	0,072	0,074
-347,693	379,728	0,078	-0,117
-346,679	464,944	0,022	-0,035
-345,664	-200,000	-0,009	-0,048
-344,650	-9,897	0,084	0,040
-343,635	-143,796	-0,063	-0,004
-342,620	-18,788	0,184	0,083
-341,606	-200,000	-0,050	-0,213
-340,591	253,936	-0,085	0,105
-339,577	10,487	-0,048	-0,026
-338,562	800,000	-0,047	-0,095
-337,548	-200,000	0,009	0,125
-336,533	133,351	0,084	-0,079
-335,518	800,000	-0,048	-0,128
-334,504	-90,452	0,165	0,034
-333,489	-110,465	-0,063	-0,009
-332,475	-8,508	0,091	-0,044
-331,460	-102,396	0,181	-0,031
-330,445	-200,000	0,015	0,183
-329,431	-18,435	0,096	-0,043
-328,416	-59,557	0,054	0,017
-327,402	-200,000	-0,030	0,138
-326,387	-134,620	0,190	0,017
-325,372	665,115	-0,009	-0,017
-324,358	-200,000	0,030	-0,170
-323,343	-200,000	0,005	0,017
-322,329	-200,000	-0,047	-0,173
-321,314	-200,000	0,004	-0,052
-320,299	-101,166	-0,044	0,008
-319,285	-200,000	-0,025	-0,136
-318,270	125,372	0,037	-0,034
-317,256	-136,454	-0,127	0,011
-316,241	-200,000	0,028	0,121
-315,226	110,116	0,090	0,078
-314,212	-0,938	0,152	0,078
-313,197	-79,079	-0,080	0,020
-312,183	29,306	0,148	0,091
-311,168	95,746	-0,069	-0,057
-310,153	-113,041	0,142	-0,020
-309,139	-125,352	0,061	0,007
-308,124	-77,119	0,098	-0,025
-307,110	321,452	0,110	0,153
-306,095	47,354	0,076	0,051
-305,080	-200,000	0,020	-0,110
-304,066	41,562	0,096	-0,063
-303,051	89,713	0,140	-0,113
-302,037	599,502	-0,103	-0,186
-301,022	-3,100	0,132	0,066
-300,008	572,267	-0,009	0,016
-298,993	-101,853	-0,122	0,021
-297,978	515,647	-0,058	0,099
-296,964	-37,665	-0,124	-0,048
-295,949	26,580	0,015	-0,009
-294,935	-147,499	-0,032	0,002
-293,920	-37,147	0,081	0,031
-292,905	34,907	0,080	-0,050
-291,891	800,000	-0,012	0,029
-290,876	-200,000	0,022	0,133
-289,862	14,071	0,034	0,019
-288,847	-156,818	-0,034	0,001
-287,832	-200,000	-0,006	-0,040
-286,818	10,994	0,039	-0,022
-285,803	-5,222	0,105	0,052
-284,789	0,408	0,057	0,029
-283,774	-46,947	0,131	-0,046
-282,759	147,680	-0,048	0,047
-281,745	-200,000	-0,011	0,069
-280,730	95,627	0,074	-0,061
-279,716	-59,203	-0,043	-0,013
-278,701	-87,612	-0,065	-0,014
-277,686	62,707	0,052	-0,038
-276,672	410,540	0,037	-0,058
-275,657	-40,243	-0,090	0,034
-274,643	-200,000	-0,034	-0,132
-273,628	75,877	-0,107	0,082
-272,613	-151,201	-0,036	0,002
-271,599	-200,000	-0,001	0,013
-270,584	-78,162	0,108	-0,027
-269,570	-200,000	0,004	0,064
-268,555	800,000	-0,016	-0,040
-267,540	-200,000	0,015	-0,081
-266,526	-200,000	-0,000	-0,084
-265,511	-200,000	-0,006	0,020
-264,497	235,473	0,076	0,091
-263,482	359,264	0,056	-0,081
-262,467	681,794	-0,060	0,114
-261,453	-200,000	0,014	-0,073
-260,438	32,516	-0,135	0,084
-259,424	120,640	-0,131	-0,118
-258,409	57,165	-0,061	-0,043
-257,395	140,670	0,024	0,023
-256,380	129,703	-0,045	0,042
-255,365	-128,023	0,158	0,016
-254,351	800,000	0,073	0,176
-253,336	-93,894	-0,018	0,004
-252,322	300,544	-0,024	-0,032
-251,307	18,255	-0,079	0,046
-250,292	800,000	-0,025	0,062
-249,278	-200,000	0,007	0,132
-248,263	800,000	-0,047	-0,095
-247,249	-200,000	0,008	-0,112
-246,234	-165,321	-0,043	-0,001
-245,219	800,000	-0,079	-0,163
-244,205	16,915	-0,137	-0,079
-243,190	150,408	-0,006	0,006
-242,176	-200,000	-0,003	-0,117
-241,161	2,297	0,130	-0,068
-240,146	-200,000	0,004	-0,074
-239,132	-200,000	0,024	0,120
-238,117	244,988	0,066	-0,080
-237,103	187,193	-0,132	0,143
-236,088	16,510	0,108	0,062
-235,073	-200,000	0,017	0,110
-234,059	237,180	-0,051	-0,062
-233,044	-200,000	0,025	0,123
-232,030	-200,000	0,010	-0,077
-231,015	2,141	-0,065	0,034
-230,000	335,368	0,059	0,082
-228,986	133,323	0,028	0,026
-227,971	136,877	0,088	0,083
-226,957	624,362	0,048	0,088
-225,942	-146,553	0,068	0,004
-224,927	73,313	-0,064	-0,048
-223,913	-23,021	0,078	0,034
-222,898	-200,000	0,005	0,119
-221,884	161,214	-0,025	0,025
-220,869	-5,001	0,022	-0,011
-219,855	-25,861	0,107	-0,045
-218,840	-99,589	0,104	0,019
-217,825	385,622	0,011	0,017
-216,811	-104,270	0,092	0,015
-215,796	338,577	0,072	-0,102
-214,782	-24,251	0,051	0,022
-213,767	320,637	0,019	-0,026
-212,752	-49,693	0,086	-0,029
-211,738	-200,000	-0,001	-0,081
-210,723	9,376	0,077	0,042
-209,709	64,429	-0,035	0,025
-208,694	223,260	-0,098	-0,115
-207,679	-200,000	-0,012	-0,076
-206,665	623,455	-0,039	-0,071
-205,650	54,250	0,172	0,119
-204,636	576,961	-0,055	0,098
-203,621	-5,126	0,092	0,045
-202,606	-200,000	0,007	-0,071
-201,592	-110,858	0,012	0,002
-200,577	138,715	0,095	-0,090
-199,563	96,554	0,086	-0,071
-198,548	-29,474	0,165	0,068
-197,533	101,950	-0,085	0,072
-196,519	416,820	0,055	0,085
-195,504	-200,000	-0,035	-0,150
-194,490	112,453	-0,093	0,081
-193,475	41,721	-0,084	0,055
-192,460	-200,000	0,012	-0,083
-191,446	56,232	-0,113	-0,079
-190,431	-200,000	0,003	-0,035
-189,417	193,636	-0,028	0,031
-188,402	1,877	-0,110	-0,057
-187,387	568,288	0,081	0,143
-186,373	103,708	-0,028	-0,023
-185,358	181,152	0,029	-0,031
-184,344	-200,000	0,007	0,022
-183,329	540,582	0,019	0,033
-182,315	60,539	0,109	0,078
-181,300	-150,168	-0,097	-0,005
-180,285	432,875	-0,015	-0,024
-179,271	-40,958	-0,107	-0,040
-178,256	454,284	0,083	-0,133
-177,242	118,940	0,076	-0,068
-176,227	326,067	0,039	-0,054
-175,212	159,763	-0,073	0,073
-174,198	588,208	-0,045	0,081
-173,183	234,658	0,034	0,040
-172,169	-200,000	-0,030	-0,138
-171,154	47,805	0,066	-0,045
-170,139	-119,404	-0,087	0,011
-169,125	-53,969	0,031	-0,010
-168,110	483,095	0,032	-0,053
-167,096	482,836	0,035	-0,058
-166,081	800,000	-0,028	-0,066
-165,066	104,010	0,033	-0,028
-164,052	49,287	-0,098	0,066
-163,037	-200,000	-0,006	0,023
-162,023	800,000	0,031	0,082
-161,008	-134,733	-0,135	-0,012
-159,993	-60,449	-0,009	-0,003
-158,979	800,000	-0,072	-0,229
-157,964	-200,000	0,017	-0,085
-156,950	-0,210	-0,061	-0,031
-155,935	-95,243	0,187	0,036
-154,920	-65,004	-0,056	-0,016
-153,906	800,000	-0,062	0,133
-152,891	-200,000	0,000	0,118
-151,877	-112,263	0,012	0,002
-150,862	256,722	-0,035	-0,044
-149,847	-200,000	0,002	-0,042
-148,833	11,527	0,029	-0,016
-147,818	800,000	-0,003	0,008
-146,804	204,084	-0,047	0,053
-145,789	94,185	0,115	0,094
-144,775	800,000	-0,025	0,052
-143,760	-200,000	-0,011	-0,159
-142,745	5,932	-0,125	-0,066
-141,731	-200,000	-0,014	0,074
-140,716	568,738	-0,093	0,163
-139,702	-66,195	0,030	-0,009
-138,687	-162,051	0,074	-0,003
-137,672	-3,780	-0,131	-0,065
-136,658	270,295	-0,101	-0,128
-135,643	800,000	-0,066	-0,148
-134,629	-200,000	0,009	0,055
-133,614	-200,000	-0,001	-0,178
-132,599	-111,074	-0,099	-0,014
-131,585	800,000	-0,034	0,095
-130,570	751,985	0,040	-0,079
-129,556	103,569	-0,109	0,092
-128,541	800,000	-0,034	0,088
-127,526	-200,000	0,048	-0,171
-126,512	-200,000	0,009	-0,072
-125,497	89,986	0,036	0,029
-124,483	101,758	-0,037	0,031
-123,468	-200,000	0,031	0,155
-122,453	-200,000	0,019	-0,090
-121,439	800,000	-0,046	-0,132
-120,424	49,722	0,033	0,022
-119,410	-200,000	-0,007	0,032
-118,395	81,993	0,084	0,065
-117,380	525,954	-0,023	0,039
-116,366	177,272	0,041	-0,043
-115,351	800,000	-0,046	0,116
-114,337	225,346	-0,058	-0,068
-113,322	800,000	-0,072	-0,184
-112,307	-200,000	0,018	-0,137
-111,293	1,838	0,105	-0,054
-110,278	452,822	-0,044	-0,070
-109,264	-22,523	0,052	-0,022
-108,249	152,846	-0,134	-0,132
-107,234	77,644	-0,063	-0,048
-106,220	-51,998	-0,084	-0,028
-105,205	-125,411	-0,050	0,005
-104,191	-37,929	-0,063	-0,024
-103,176	235,174	-0,019	0,022
-102,162	372,475	-0,052	-0,076
-101,147	241,964	0,060	-0,072
-100,132	-4,881	0,082	-0,040
-99,118	27,826	-0,128	-0,077
-98,103	-200,000	-0,019	-0,213
-97,089	-66,602	0,094	-0,027
-96,074	800,000	0,021	0,059
-95,059	126,418	0,072	-0,066
-94,045	800,000	-0,037	0,096
-93,030	800,000	0,033	-0,082
-92,016	468,335	-0,039	-0,062
-91,001	-128,550	-0,137	0,014
-89,986	-83,066	0,038	0,009
-88,972	-200,000	-0,003	0,170
-87,957	-59,629	-0,202	0,062
-86,943	106,522	0,094	-0,080
-85,928	-89,689	-0,096	-0,020
-84,913	-25,084	0,006	-0,003
-83,899	-200,000	-0,014	-0,156
-82,884	370,124	-0,037	-0,054
-81,870	800,000	-0,030	0,079
-80,855	587,416	0,005	-0,008
-79,840	-200,000	-0,033	-0,181
-78,826	-88,471	0,087	-0,018
-77,811	-63,633	-0,189	0,055
-76,797	276,830	0,089	0,114
-75,782	800,000	-0,019	-0,054
-74,767	0,084	0,074	-0,038
-73,753	-29,634	0,095	-0,039
-72,738	107,356	0,099	0,085
-71,724	-200,000	0,001	-0,088
-70,709	335,240	-0,055	0,077
-69,694	71,681	-0,046	-0,034
-68,680	290,633	0,035	-0,046
-67,665	-136,565	0,105	0,009
-66,651	800,000	0,075	0,162
-65,636	-121,962	0,034	-0,004
-64,622	-123,561	-0,207	0,023
-63,607	593,697	-0,026	0,047
-62,592	-81,907	-0,070	0,016
-61,578	-200,000	-0,004	0,022
-60,563	-148,021	0,069	0,004
-59,549	162,278	-0,052	0,052
-58,534	-34,931	-1,922	-0,749
-57,519	800,000	-0,337	-0,960
-56,505	-200,000	-1,293	-4,834
-55,490	-19,456	0,886	0,393
-54,476	800,000	5,325	12,036
-53,461	-200,000	17,222	285,189
-52,446	800,000	723,285	2231,146
-51,432	544,441	1639,090	2820,853
-50,417	112,123	1631,230	1414,921
-49,403	76,330	1286,426	977,130
-48,388	32,805	1028,935	637,809
-47,373	20,369	990,588	573,000
-46,359	18,755	979,060	561,010
-45,344	16,213	974,859	550,253
-44,330	16,372	973,318	549,881
-43,315	15,870	971,941	547,438
-42,300	15,874	970,663	546,710
-41,286	15,883	969,633	546,139
-40,271	15,872	968,563	545,480
-39,257	15,884	967,657	544,986
-38,242	15,911	966,549	544,427
-37,227	15,894	965,929	544,002
-36,213	15,955	965,012	543,662
-35,198	15,883	964,248	542,978
-34,184	15,899	963,510	542,590
-33,169	15,881	962,375	541,873
-32,154	15,924	961,544	541,521
-31,140	15,888	960,694	540,905
-30,125	15,924	959,920	540,565
-29,111	15,952	959,013	540,122
-28,096	15,935	958,498	539,756
-27,082	15,917	957,772	539,267
-26,067	15,919	956,926	538,776
-25,052	15,908	956,289	538,362
-24,038	15,889	955,633	537,911
-23,023	15,864	955,065	537,489
-22,009	15,862	954,329	537,046
-20,994	15,912	953,651	536,803
-19,979	15,974	953,031	536,633
-18,965	15,909	952,420	536,058
-17,950	15,925	951,823	535,752
-16,936	15,865	951,188	535,182
-15,921	15,854	950,567	534,775
-14,906	15,781	949,897	534,145
-13,892	15,840	949,009	533,813
-12,877	15,774	948,514	533,303
-11,863	15,762	947,870	532,880
-10,848	15,784	947,397	532,663
-9,833	15,909	946,822	532,718
-8,819	15,874	946,219	532,244
-7,804	15,826	945,620	531,734
-6,790	15,784	944,949	531,202
-5,775	15,850	944,371	531,067
-4,760	15,880	943,671	530,748
-3,746	15,792	943,196	530,178
-2,731	15,688	942,432	529,401
-1,717	15,613	941,870	528,826
-0,702	15,635	941,168	528,480
0,313	15,468	940,591	528,425
1,327	18,590	938,274	536,924
2,342	27,400	795,795	478,771
3,356	24,278	459,616	271,713
4,371	-2,527	314,136	157,252
5,386	-6,664	295,894	143,927
6,400	-8,635	290,002	139,094
7,415	-8,961	287,423	137,523
8,429	-9,172	285,967	136,608
9,444	-9,382	285,022	135,939
10,459	-9,175	284,394	135,829
11,473	-9,366	283,880	135,387
12,488	-9,293	283,204	135,123
13,502	-9,239	282,761	134,952
14,517	-9,294	282,253	134,643
15,531	-9,298	281,981	134,498
16,546	-9,373	281,492	134,181
17,561	-9,262	281,086	134,082
18,575	-9,288	280,797	133,907
19,590	-9,506	280,397	133,496
20,604	-9,283	280,275	133,639
21,619	-9,254	279,685	133,374
22,634	-9,315	279,390	133,163
23,648	-9,506	279,214	132,884
24,663	-9,486	278,909	132,747
25,677	-9,437	278,688	132,677
26,692	-9,414	278,367	132,534
27,707	-9,143	277,977	132,594
28,721	-9,359	277,790	132,288
29,736	-9,302	277,357	132,124
30,750	-9,384	277,327	132,020
31,765	-9,361	277,032	131,889
32,780	-9,479	276,702	131,609
33,794	-9,381	276,438	131,564
34,809	-9,279	276,163	131,518
35,823	-9,282	275,969	131,411
36,838	-9,374	275,632	131,152
37,853	-9,414	275,488	131,035
38,867	-9,413	275,409	130,986
39,882	-9,395	275,115	130,851
40,896	-9,359	274,682	130,667
41,911	-9,297	274,587	130,669
42,926	-9,299	274,148	130,447
43,940	-9,280	274,015	130,389
44,955	-9,420	273,721	130,107
45,969	-9,406	273,649	130,074
46,984	-9,597	273,383	129,758
47,999	-9,853	273,266	129,452
49,013	-9,940	272,795	129,137
50,028	-10,211	272,572	128,768
51,042	-10,266	272,325	128,588
52,057	-10,220	271,889	128,414
53,071	-10,172	271,827	128,418
54,086	-9,927	271,671	128,559
55,101	-9,868	271,410	128,479
56,115	-9,567	271,382	128,733
57,130	-9,358	271,243	128,848
58,144	-9,199	271,061	128,897
59,159	-9,233	270,773	128,718
60,174	-9,182	270,579	128,661
61,188	-9,120	270,387	128,615
62,203	-9,217	270,030	128,345
63,217	-9,112	269,845	128,341
64,232	-9,471	269,702	127,933
65,247	-9,277	269,508	128,007
66,261	-9,226	269,245	127,918
67,276	-9,459	268,955	127,555
68,290	-9,600	268,662	127,276
69,305	-9,703	268,336	127,016
70,320	-9,686	268,246	126,978
71,334	-9,579	268,146	127,016
72,349	-9,194	267,946	127,261
73,363	-9,255	267,899	127,172
74,378	-9,125	267,482	127,082
75,393	-9,268	267,288	126,848
76,407	-9,267	267,026	126,713
77,422	-9,254	266,878	126,644
78,436	-9,230	266,677	126,559
79,451	-9,335	266,544	126,389
80,466	-9,273	266,267	126,302
81,480	-9,391	265,999	126,058
82,495	-9,549	265,928	125,870
83,509	-9,322	265,484	125,852
84,524	-9,277	265,294	125,792
85,539	-9,832	265,001	125,142
86,553	-9,719	264,945	125,207
87,568	-9,604	264,760	125,211
88,582	-9,556	264,467	125,105
89,597	-9,409	264,198	125,098
90,611	-9,504	264,191	124,999
91,626	-9,356	264,097	125,076
92,641	-9,143	263,770	125,100
93,655	-9,262	263,460	124,836
94,670	-9,440	263,362	124,619
95,684	-9,206	263,066	124,676
96,699	-9,301	262,949	124,525
97,714	-9,400	262,763	124,338
98,728	-9,506	262,451	124,084
99,743	-9,746	262,247	123,764
100,757	-9,764	262,061	123,648
101,772	-9,608	262,033	123,763
102,787	-9,485	261,629	123,671
103,801	-9,380	261,557	123,719
104,816	-9,517	261,396	123,510
105,830	-9,310	261,321	123,647
106,845	-9,286	261,075	123,541
107,860	-9,227	260,913	123,505
108,874	-9,390	260,528	123,168
109,889	-9,282	260,293	123,141
110,903	-9,419	260,168	122,950
111,918	-9,417	259,915	122,822
112,933	-9,399	259,790	122,768
113,947	-9,491	259,664	122,616
114,962	-9,304	259,420	122,654
115,976	-9,236	259,249	122,622
116,991	-9,181	259,020	122,552
118,006	-9,199	258,756	122,399
119,020	-9,401	258,676	122,174
120,035	-9,269	258,715	122,297
121,049	-9,302	258,554	122,181
122,064	-9,362	258,261	121,979
123,079	-9,319	257,951	121,860
124,093	-9,394	257,699	121,664
125,108	-9,591	257,539	121,406
126,122	-9,673	257,332	121,226
127,137	-9,627	257,030	121,113
128,151	-9,568	256,910	121,097
129,166	-9,458	256,720	121,092
130,181	-9,521	256,469	120,909
131,195	-9,643	256,340	120,731
132,210	-9,467	256,126	120,772
133,224	-9,195	256,056	120,964
134,239	-9,299	255,834	120,758
135,254	-9,488	255,765	120,552
136,268	-9,422	255,398	120,425
137,283	-9,489	255,131	120,230
138,297	-9,371	254,837	120,183
139,312	-9,797	254,773	119,775
140,327	-9,420	254,667	120,039
141,341	-9,295	254,707	120,154
142,356	-9,295	254,511	120,052
143,370	-9,028	254,207	120,127
144,385	-8,824	254,055	120,220
145,400	-8,969	253,945	120,033
146,414	-9,008	253,516	119,786
147,429	-9,068	253,489	119,710
148,443	-9,020	253,358	119,679
149,458	-9,060	253,088	119,507
150,473	-9,169	252,976	119,350
151,487	-9,050	252,670	119,297
152,502	-9,135	252,505	119,136
153,516	-9,047	252,456	119,177
154,531	-9,009	252,206	119,080
155,546	-9,041	252,036	118,962
156,560	-9,091	251,941	118,865
157,575	-9,300	251,513	118,474
158,589	-9,269	251,412	118,442
159,604	-9,039	251,327	118,587
160,619	-9,184	251,164	118,377
161,633	-9,294	251,003	118,197
162,648	-9,083	250,683	118,214
163,662	-9,158	250,767	118,180
164,677	-9,200	250,556	118,034
165,692	-8,967	250,258	118,081
166,706	-9,238	250,115	117,774
167,721	-9,083	249,942	117,813
168,735	-9,086	249,921	117,789
169,750	-9,093	249,812	117,722
170,764	-8,962	249,469	117,659
171,779	-9,134	249,585	117,559
172,794	-8,926	249,301	117,590
173,808	-9,218	249,116	117,246
174,823	-9,382	248,758	116,930
175,837	-9,616	248,549	116,626
176,852	-9,219	248,533	116,940
177,867	-8,967	248,227	116,997
178,881	-9,109	248,264	116,885
179,896	-8,959	247,939	116,847
180,910	-8,976	247,923	116,815
181,925	-9,297	247,854	116,504
182,940	-9,102	247,613	116,543
183,954	-9,109	247,373	116,413
184,969	-8,984	247,136	116,395
185,983	-8,954	246,969	116,332
186,998	-9,028	246,850	116,204
188,013	-8,822	246,626	116,259
189,027	-8,813	246,422	116,160
190,042	-8,807	246,238	116,068
191,056	-8,798	246,026	115,965
192,071	-8,871	246,029	115,895
193,086	-8,973	245,728	115,659
194,100	-8,927	245,675	115,662
195,115	-8,828	245,378	115,594
196,129	-8,849	245,219	115,491
197,144	-9,078	245,164	115,266
198,159	-9,294	245,030	115,014
199,173	-9,013	244,739	115,099
200,188	-9,095	244,581	114,947
201,202	-9,188	244,075	114,622
202,217	-9,456	244,103	114,405
203,232	-9,565	243,900	114,211
204,246	-9,353	243,740	114,299
205,261	-8,600	243,686	114,881
206,275	-9,503	243,237	113,920
207,290	-6,177	244,655	117,309
208,304	0,667	246,832	124,004
209,319	3,852	247,554	126,990
210,334	4,070	247,631	127,198
211,348	4,453	247,588	127,481
212,363	4,706	247,320	127,541
213,377	4,678	247,333	127,513
214,392	4,549	247,243	127,349
215,407	4,515	246,812	127,088
216,421	4,382	246,856	126,989
217,436	4,733	246,684	127,178
218,450	4,672	246,610	127,079
219,465	4,561	246,299	126,816
220,480	4,327	246,171	126,546
221,494	4,203	246,009	126,350
222,509	4,304	245,695	126,260
223,523	4,138	245,679	126,105
224,538	3,937	245,297	125,734
225,553	3,971	245,130	125,664
226,567	4,129	245,051	125,742
227,582	4,148	244,890	125,664
228,596	4,093	244,730	125,525
229,611	3,976	244,546	125,325
230,626	3,644	244,422	124,980
231,640	3,970	244,028	125,032
232,655	4,212	244,027	125,217
233,669	3,830	244,008	124,886
234,684	3,883	243,692	124,756
235,699	4,257	243,586	124,993
236,713	4,455	243,477	125,087
237,728	3,988	243,355	124,635
238,742	3,943	242,933	124,371
239,757	3,907	242,835	124,281
240,772	3,821	242,827	124,196
241,786	4,031	242,675	124,276
242,801	3,852	242,531	124,047
243,815	3,879	242,288	123,934
244,830	3,813	242,275	123,863
245,844	4,019	241,996	123,876
246,859	3,992	241,923	123,805
247,874	3,877	241,688	123,581
248,888	3,845	241,620	123,510
249,903	3,877	241,501	123,464
250,917	4,089	241,401	123,572
251,932	4,377	241,142	123,659
252,947	4,363	240,936	123,531
253,961	4,150	240,779	123,269
254,976	4,151	240,653	123,195
255,990	4,128	240,520	123,097
257,005	3,991	240,321	122,875
258,020	3,617	240,253	122,530
259,034	3,744	240,060	122,523
260,049	4,209	239,869	122,785
261,063	3,805	239,526	122,276
262,078	3,904	239,489	122,326
263,093	4,086	239,540	122,486
264,107	4,141	239,314	122,403
265,122	4,039	238,972	122,136
266,136	4,068	238,960	122,142
267,151	4,277	238,831	122,230
268,166	3,910	238,612	121,817
269,180	3,861	238,432	121,675
270,195	4,377	238,435	122,074
271,209	4,598	238,269	122,153
272,224	4,102	238,079	121,653
273,239	3,654	237,751	121,122
274,253	3,666	237,548	121,016
275,268	3,942	237,471	121,184
276,282	4,078	237,306	121,196
277,297	3,719	237,238	120,868
278,312	4,098	237,080	121,075
279,326	3,966	237,036	120,938
280,341	3,898	236,811	120,759
281,355	4,110	236,598	120,806
282,370	4,060	236,515	120,713
283,384	3,965	236,354	120,546
284,399	3,860	236,160	120,354
285,414	3,542	235,968	119,997
286,428	3,807	235,925	120,171
287,443	3,859	235,747	120,111
288,457	4,156	235,544	120,228
289,472	4,310	235,541	120,337
290,487	4,093	235,276	120,021
291,501	3,812	235,200	119,753
292,516	3,756	234,919	119,555
293,530	3,585	234,684	119,293
294,545	3,926	234,739	119,575
295,560	4,021	234,563	119,548
296,574	3,863	234,274	119,267
297,589	3,878	234,095	119,177
298,603	4,233	234,165	119,478
299,618	4,302	234,038	119,456
300,633	4,067	233,915	119,200
301,647	4,308	233,773	119,304
302,662	4,362	233,690	119,293
303,676	4,356	233,417	119,138
304,691	4,238	233,279	118,966
305,706	4,451	233,201	119,080
306,720	4,524	232,892	118,968
307,735	4,166	232,796	118,632
308,749	4,152	232,670	118,547
309,764	3,932	232,367	118,212
310,779	3,793	232,248	118,034
311,793	3,666	232,077	117,840
312,808	3,654	231,823	117,691
313,822	3,659	231,693	117,619
314,837	3,894	231,439	117,659
315,852	3,489	231,535	117,387
316,866	3,798	231,547	117,620
317,881	3,956	231,323	117,616
318,895	4,038	231,071	117,540
319,910	4,065	231,127	117,579
320,925	4,329	230,940	117,674
321,939	4,065	230,654	117,317
322,954	4,298	230,628	117,470
323,968	3,957	230,411	117,090
324,983	3,601	230,130	116,666
325,997	3,855	230,107	116,837
327,012	4,452	230,027	117,239
328,027	4,426	229,890	117,140
329,041	4,384	229,844	117,074
330,056	4,803	229,770	117,344
331,070	4,995	229,528	117,355
332,085	4,370	229,305	116,758
333,100	4,199	229,109	116,518
334,114	4,237	228,996	116,479
335,129	4,372	229,005	116,575
336,143	4,672	228,794	116,684
337,158	4,534	228,724	116,534
338,173	4,322	228,547	116,274
339,187	4,243	228,315	116,085
340,202	4,324	228,250	116,102
341,216	4,200	228,010	115,877
342,231	4,308	227,752	115,817
343,246	4,225	227,607	115,670
344,260	4,304	227,539	115,685
345,275	4,604	227,469	115,864
346,289	4,485	227,288	115,672
347,304	4,431	227,278	115,616
348,319	4,366	227,143	115,489
349,333	4,159	226,923	115,212
350,348	4,225	226,712	115,143
351,362	4,205	226,535	115,028
352,377	4,030	226,494	114,867
353,392	3,819	226,222	114,562
354,406	3,968	226,011	114,556
355,421	195,115	1323,775	1399,613
356,435	156,369	1457,527	1399,610
