DTS Sentinel unit serial number:	SN410029Multiplexer serial number:	ORYXHardware model number:	OX2-SRSoftware version number:	ORYX F/W v4,00 Oryx Data Collector v3.7.2.0data status	okinstallation	B5 Nyhavnadifferential loss correction	single-endedforward channel	channel 2reverse channel	N/Adate	2023/12/14time	04:52:13forward acquisition time	300,00reverse acquisition time	0,00gamma	499,1914k internal	0,3156k external	0,3156temperature offset calibration	1,0000default loss term (dB/km)	0,3820temperature slope calibration	1,0000multiplexer offset coefficient	1,0000multiplexer slope coefficient	1,0000fibre end	0,00T internal ref (°C)	7,81T ext. ref 1 (°C)	-8,71T ext. ref 2 (°C)	-8,74length (m)	temperature (°C)	Stokes	anti-Stokes-744,400	800,000	0,082	0,173
-743,385	-16,122	-0,244	-0,114
-742,371	126,243	0,093	0,087
-741,356	-160,669	-0,363	0,014
-740,342	-122,940	0,225	0,026
-739,327	-127,325	-0,478	-0,051
-738,312	-102,719	0,255	0,044
-737,298	-119,876	-0,375	-0,047
-736,283	211,029	0,082	0,095
-735,269	-139,773	-0,429	-0,033
-734,254	-78,303	0,094	-0,024
-733,239	60,296	-0,589	-0,429
-732,225	94,622	0,132	0,110
-731,210	800,000	0,038	0,079
-730,196	529,639	0,054	-0,094
-729,181	387,354	-0,072	-0,109
-728,167	-89,205	-0,151	0,032
-727,152	-200,000	-0,006	0,115
-726,137	-200,000	-0,003	-0,102
-725,123	9,060	-0,134	-0,074
-724,108	-70,794	-0,069	0,019
-723,094	-25,832	-0,195	-0,084
-722,079	800,000	0,026	-0,072
-721,064	-107,077	-0,142	0,023
-720,050	276,802	-0,082	-0,108
-719,035	229,590	-0,043	-0,051
-718,021	257,312	0,044	-0,056
-717,006	547,703	0,010	0,017
-715,991	-77,361	-0,032	0,008
-714,977	-98,820	-0,121	-0,023
-713,962	690,556	-0,021	0,040
-712,948	164,225	0,020	-0,021
-711,933	-200,000	-0,031	-0,113
-710,918	-200,000	-0,007	0,075
-709,904	-60,175	-0,120	-0,037
-708,889	-200,000	0,009	0,051
-707,875	-113,637	-0,118	0,017
-706,860	84,287	0,027	-0,022
-705,845	268,128	0,079	0,103
-704,831	19,575	0,051	-0,030
-703,816	800,000	-0,042	-0,100
-702,802	-139,155	0,112	0,009
-701,787	118,485	0,116	0,105
-700,772	10,947	-0,134	0,075
-699,758	-200,000	-0,000	-0,024
-698,743	800,000	0,027	-0,078
-697,729	96,779	-0,040	0,033
-696,714	9,355	0,145	0,081
-695,699	-200,000	-0,002	-0,191
-694,685	364,323	-0,030	-0,044
-693,670	99,275	0,014	0,012
-692,656	-109,402	0,055	0,008
-691,641	206,729	0,116	0,133
-690,627	-97,353	0,077	-0,015
-689,612	-31,521	0,078	-0,032
-688,597	-103,445	0,033	0,006
-687,583	222,839	-0,014	-0,016
-686,568	58,602	0,076	-0,055
-685,554	46,535	-0,083	-0,056
-684,539	800,000	0,039	0,102
-683,524	-73,392	-0,113	-0,030
-682,510	148,519	0,033	-0,033
-681,495	800,000	-0,030	0,077
-680,481	33,383	-0,061	0,039
-679,466	-92,319	-0,203	0,042
-678,451	58,749	0,148	0,107
-677,437	-65,305	0,135	-0,040
-676,422	17,624	-0,027	-0,016
-675,408	-152,189	0,117	0,006
-674,393	-200,000	-0,004	-0,022
-673,378	-200,000	-0,003	-0,140
-672,364	123,127	-0,137	-0,126
-671,349	-200,000	0,005	-0,101
-670,335	-57,853	0,052	0,017
-669,320	54,667	-0,016	0,011
-668,305	-200,000	0,002	-0,194
-667,291	-59,549	0,092	0,029
-666,276	476,909	-0,033	0,055
-665,262	108,998	-0,083	-0,073
-664,247	290,674	-0,060	-0,081
-663,232	201,993	0,063	-0,071
-662,218	-54,125	-0,030	0,010
-661,203	-5,579	-0,106	-0,053
-660,189	-200,000	-0,002	0,055
-659,174	104,182	0,068	-0,059
-658,159	356,325	-0,040	-0,058
-657,145	-200,000	-0,045	-0,155
-656,130	151,578	0,016	-0,016
-655,116	-200,000	0,012	-0,048
-654,101	-173,236	-0,078	-0,002
-653,086	-31,914	0,103	-0,042
-652,072	-14,062	-0,038	0,018
-651,057	-200,000	0,003	-0,166
-650,043	-62,970	-0,052	0,016
-649,028	330,140	0,152	-0,215
-648,014	-200,000	-0,016	0,148
-646,999	500,736	0,033	0,056
-645,984	161,373	-0,062	-0,063
-644,970	68,203	-0,157	-0,118
-643,955	307,918	-0,117	-0,161
-642,941	-200,000	-0,016	-0,183
-641,926	-200,000	-0,014	-0,065
-640,911	-200,000	-0,001	-0,063
-639,897	248,042	-0,023	-0,029
-638,882	-106,934	0,125	0,020
-637,868	800,000	0,030	-0,076
-636,853	129,161	0,082	-0,077
-635,838	284,299	0,025	0,033
-634,824	660,838	0,034	-0,064
-633,809	800,000	0,031	0,079
-632,795	490,358	0,034	-0,057
-631,780	-46,130	-0,163	0,059
-630,765	661,221	0,071	0,135
-629,751	-84,472	0,074	-0,017
-628,736	128,955	-0,103	-0,097
-627,722	155,495	0,058	-0,059
-626,707	-134,458	-0,109	0,010
-625,692	-200,000	-0,021	-0,155
-624,678	-200,000	0,004	0,031
-623,663	-200,000	-0,062	-0,000
-622,649	8,757	-0,067	0,037
-621,634	283,763	-0,090	-0,119
-620,619	-136,650	-0,045	0,004
-619,605	800,000	0,075	-0,162
-618,590	87,365	-0,065	0,052
-617,576	-200,000	0,003	0,178
-616,561	-200,000	0,011	0,045
-615,546	27,796	-0,042	-0,026
-614,532	800,000	-0,029	-0,077
-613,517	-7,839	-0,077	0,038
-612,503	79,807	0,086	0,068
-611,488	800,000	0,065	0,153
-610,474	69,861	-0,084	-0,063
-609,459	-200,000	-0,026	-0,088
-608,444	-98,398	0,035	-0,007
-607,430	145,532	-0,095	-0,093
-606,415	-25,421	-0,042	-0,018
-605,401	-101,185	0,085	-0,015
-604,386	-200,000	-0,007	0,050
-603,371	72,061	-0,071	-0,054
-602,357	-32,361	-0,128	-0,052
-601,342	-200,000	0,027	-0,178
-600,328	22,100	0,072	0,043
-599,313	-200,000	-0,010	-0,139
-598,298	-69,281	0,126	-0,035
-597,284	800,000	-0,034	0,091
-596,269	-200,000	0,018	-0,080
-595,255	704,001	0,032	-0,063
-594,240	166,960	-0,062	-0,064
-593,225	-106,069	0,108	-0,018
-592,211	-200,000	-0,018	-0,061
-591,196	53,163	0,047	0,033
-590,182	-36,337	0,123	-0,048
-589,167	-26,799	-0,091	0,039
-588,152	312,851	-0,057	0,078
-587,138	-92,006	0,033	0,007
-586,123	-104,783	-0,043	0,007
-585,109	201,216	-0,039	-0,044
-584,094	-200,000	-0,001	-0,012
-583,079	603,734	-0,012	-0,021
-582,065	-112,484	0,042	0,006
-581,050	190,031	0,023	0,026
-580,036	-36,960	-0,099	0,039
-579,021	62,809	-0,050	-0,036
-578,006	-94,841	0,135	-0,027
-576,992	-53,125	0,103	-0,034
-575,977	384,975	0,014	0,021
-574,963	241,661	0,033	0,041
-573,948	-200,000	-0,011	-0,062
-572,934	118,693	-0,061	0,055
-571,919	116,173	-0,132	-0,118
-570,904	358,774	0,034	0,050
-569,890	-200,000	-0,004	0,072
-568,875	800,000	0,065	0,164
-567,861	555,537	0,114	-0,201
-566,846	-200,000	0,017	0,090
-565,831	-200,000	0,185	0,000
-564,817	121,871	-0,035	-0,032
-563,802	670,246	-0,034	0,065
-562,788	1,574	-0,059	-0,031
-561,773	5,169	-0,052	0,028
-560,758	462,874	0,059	0,096
-559,744	800,000	-0,005	0,014
-558,729	800,000	0,013	0,028
-557,715	108,057	-0,047	-0,041
-556,700	422,092	-0,051	-0,080
-555,685	33,097	-0,110	-0,069
-554,671	-98,833	-0,106	0,020
-553,656	800,000	-0,037	-0,102
-552,642	-26,007	0,051	-0,022
-551,627	106,617	0,113	0,098
-550,612	20,705	-0,019	-0,011
-549,598	-27,010	-0,119	-0,050
-548,583	207,891	0,071	-0,081
-547,569	800,000	-0,023	-0,068
-546,554	800,000	0,035	-0,107
-545,539	-48,843	-0,199	-0,070
-544,525	181,833	0,081	0,087
-543,510	145,714	-0,061	0,060
-542,496	-51,069	-0,037	0,013
-541,481	800,000	-0,021	0,046
-540,466	66,176	0,069	-0,051
-539,452	-200,000	0,006	0,077
-538,437	764,790	0,066	0,133
-537,423	346,173	0,022	-0,032
-536,408	49,883	-0,089	0,061
-535,393	397,085	-0,080	0,123
-534,379	44,461	0,109	0,073
-533,364	2,259	-0,059	-0,031
-532,350	-200,000	-0,001	-0,047
-531,335	173,955	0,031	-0,033
-530,321	56,294	-0,024	-0,017
-529,306	158,298	-0,087	0,088
-528,291	233,242	0,069	-0,083
-527,277	25,736	-0,162	-0,099
-526,262	121,394	-0,081	-0,074
-525,248	800,000	-0,040	0,089
-524,233	800,000	-0,044	0,116
-523,218	-92,433	0,063	-0,013
-522,204	494,553	0,049	-0,082
-521,189	179,081	-0,027	-0,029
-520,175	-80,276	-0,021	0,005
-519,160	33,702	0,097	-0,062
-518,145	-122,755	0,081	-0,009
-517,131	800,000	0,031	0,064
-516,116	-18,527	0,080	-0,037
-515,102	-200,000	0,016	-0,058
-514,087	-139,953	0,132	0,010
-513,072	-35,645	-0,138	-0,054
-512,058	787,297	0,057	0,115
-511,043	419,703	0,024	-0,038
-510,029	-200,000	-0,017	0,072
-509,014	119,632	0,109	-0,099
-507,999	-200,000	-0,021	-0,128
-506,985	-200,000	-0,001	0,047
-505,970	250,694	-0,035	-0,044
-504,956	-90,797	-0,077	-0,016
-503,941	-5,404	0,111	-0,056
-502,926	657,922	0,078	0,147
-501,912	-33,228	0,087	0,035
-500,897	355,919	0,032	0,046
-499,883	-102,858	-0,058	-0,010
-498,868	29,337	-0,116	-0,072
-497,853	-200,000	-0,018	-0,067
-496,839	195,784	0,108	0,120
-495,824	-200,000	0,014	-0,054
-494,810	-200,000	0,037	0,229
-493,795	800,000	0,040	0,115
-492,781	-185,114	0,096	0,001
-491,766	134,538	-0,076	-0,072
-490,751	278,495	-0,052	-0,067
-489,737	-23,887	0,116	-0,050
-488,722	206,295	-0,072	-0,082
-487,708	713,213	-0,011	0,022
-486,693	24,779	0,129	0,078
-485,678	800,000	0,023	0,069
-484,664	-99,161	0,078	0,014
-483,649	-154,325	-0,158	-0,008
-482,635	-200,000	0,009	0,062
-481,620	630,300	0,027	0,049
-480,605	-200,000	0,011	0,084
-479,591	35,391	-0,048	0,030
-478,576	357,109	-0,030	0,044
-477,562	122,656	0,085	0,077
-476,547	71,702	-0,121	0,091
-475,532	-28,438	-0,077	-0,032
-474,518	800,000	-0,030	0,078
-473,503	-81,337	0,054	-0,013
-472,489	-102,348	0,109	-0,019
-471,474	-200,000	-0,008	-0,117
-470,459	-30,970	-0,096	-0,039
-469,445	-200,000	-0,011	-0,119
-468,430	6,075	-0,103	-0,056
-467,416	27,528	0,126	0,077
-466,401	-200,000	-0,003	-0,012
-465,386	48,436	-0,054	-0,037
-464,372	78,882	0,063	-0,049
-463,357	-118,977	-0,063	-0,008
-462,343	-200,000	-0,016	-0,115
-461,328	800,000	0,028	0,090
-460,313	-109,230	-0,042	0,006
-459,299	4,772	-0,034	0,018
-458,284	800,000	0,038	0,102
-457,270	-10,040	0,016	0,008
-456,255	-78,895	-0,099	-0,024
-455,241	-200,000	-0,001	0,025
-454,226	425,430	0,099	0,156
-453,211	-200,000	0,004	0,097
-452,197	343,673	0,052	0,074
-451,182	-139,025	-0,134	-0,010
-450,168	120,133	-0,076	-0,069
-449,153	-156,492	-0,078	0,003
-448,138	409,047	0,064	-0,099
-447,124	-115,426	-0,122	-0,017
-446,109	800,000	0,019	0,058
-445,095	-200,000	0,034	-0,153
-444,080	146,642	0,058	0,057
-443,065	312,257	0,073	0,099
-442,051	-200,000	0,016	-0,157
-441,036	800,000	-0,048	-0,115
-440,022	590,404	-0,032	-0,058
-439,007	295,013	-0,060	0,080
-437,992	61,774	-0,130	0,094
-436,978	-76,628	0,198	0,050
-435,963	93,256	0,015	-0,012
-434,949	374,964	-0,051	-0,077
-433,934	251,068	0,032	-0,040
-432,919	-75,050	-0,138	0,036
-431,905	795,494	0,020	-0,040
-430,890	262,250	-0,073	0,093
-429,876	-200,000	0,014	0,052
-428,861	50,236	-0,075	0,052
-427,846	664,796	0,032	-0,061
-426,832	12,322	0,051	-0,028
-425,817	-33,574	-0,115	-0,046
-424,803	-200,000	-0,055	0,192
-423,788	-200,000	0,011	0,065
-422,773	-2,341	0,078	-0,040
-421,759	17,158	0,065	-0,037
-420,744	0,764	0,106	0,055
-419,730	87,571	0,069	0,056
-418,715	-62,044	0,085	-0,026
-417,701	-42,020	-0,092	-0,034
-416,686	-164,400	0,070	0,002
-415,671	508,045	-0,031	-0,053
-414,657	8,945	0,027	-0,015
-413,642	62,290	-0,051	0,037
-412,628	441,954	0,041	-0,066
-411,613	-200,000	0,008	-0,031
-410,598	-179,125	0,073	-0,001
-409,584	-200,000	-0,017	0,068
-408,569	800,000	-0,029	0,059
-407,555	280,085	0,027	-0,035
-406,540	-200,000	-0,006	0,054
-405,525	-200,000	-0,029	0,096
-404,511	-123,467	0,145	-0,017
-403,496	-116,680	-0,138	0,018
-402,482	-66,942	-0,036	0,010
-401,467	637,231	0,052	-0,097
-400,452	16,183	0,043	-0,024
-399,438	-200,000	0,006	-0,092
-398,423	-200,000	0,038	-0,140
-397,409	-90,200	-0,146	-0,031
-396,394	-200,000	-0,010	-0,044
-395,379	142,987	-0,089	-0,086
-394,365	150,033	-0,046	0,045
-393,350	193,895	0,032	-0,035
-392,336	-38,367	0,002	0,001
-391,321	-40,035	-0,087	0,033
-390,306	173,090	-0,070	-0,074
-389,292	-200,000	-0,013	-0,072
-388,277	36,575	0,150	-0,096
-387,263	-166,307	-0,108	-0,003
-386,248	247,837	-0,098	0,121
-385,233	292,695	0,100	0,133
-384,219	65,030	-0,093	0,068
-383,204	149,583	0,049	-0,048
-382,190	-41,548	-0,142	-0,053
-381,175	80,370	-0,038	0,030
-380,160	-200,000	0,001	0,078
-379,146	122,932	0,078	0,071
-378,131	-73,446	-0,086	-0,023
-377,117	-200,000	-0,025	0,248
-376,102	-200,000	0,010	-0,094
-375,088	3,098	-0,093	0,049
-374,073	57,380	0,034	-0,024
-373,058	-101,696	0,108	-0,019
-372,044	-37,427	0,057	0,022
-371,029	265,227	0,035	-0,045
-370,015	800,000	-0,049	-0,105
-369,000	800,000	0,041	-0,086
-367,985	85,027	-0,073	-0,058
-366,971	-66,985	-0,077	-0,022
-365,956	-68,217	0,084	0,023
-364,942	171,161	-0,062	-0,064
-363,927	6,109	0,031	-0,016
-362,912	-200,000	-0,025	0,139
-361,898	285,679	-0,057	-0,075
-360,883	-10,296	0,107	0,051
-359,869	-118,453	-0,051	-0,006
-358,854	-200,000	-0,003	0,060
-357,839	312,163	-0,079	-0,108
-356,825	17,059	0,047	-0,027
-355,810	757,935	-0,101	0,199
-354,796	24,990	0,117	0,071
-353,781	-26,184	0,047	-0,020
-352,766	215,437	0,054	-0,062
-351,752	-68,942	0,009	0,003
-350,737	244,827	0,075	-0,092
-349,723	-200,000	0,002	0,007
-348,708	7,435	-0,029	0,016
-347,693	66,444	-0,039	-0,029
-346,679	336,724	0,065	0,092
-345,664	-200,000	0,014	0,060
-344,650	-25,116	-0,086	0,037
-343,635	150,891	0,100	0,099
-342,620	35,406	0,129	0,082
-341,606	800,000	0,091	0,187
-340,591	204,729	-0,074	0,083
-339,577	622,941	0,018	0,034
-338,562	377,905	0,020	0,030
-337,548	591,057	-0,073	0,132
-336,533	37,051	0,062	0,040
-335,518	-30,335	0,127	-0,052
-334,504	-7,989	-0,084	-0,041
-333,489	52,659	0,040	-0,027
-332,475	-200,000	-0,007	-0,225
-331,460	-200,000	0,007	0,061
-330,445	213,004	0,052	0,060
-329,431	209,253	0,097	-0,110
-328,416	227,377	-0,058	0,068
-327,402	-100,695	0,093	0,017
-326,387	-166,992	-0,119	-0,003
-325,372	375,623	0,092	-0,137
-324,358	227,878	-0,065	-0,077
-323,343	77,746	-0,061	-0,047
-322,329	-200,000	-0,019	0,168
-321,314	-200,000	0,023	0,083
-320,299	526,671	-0,053	-0,091
-319,285	28,667	0,099	-0,061
-318,270	-200,000	-0,004	-0,070
-317,256	77,769	-0,105	-0,081
-316,241	496,437	-0,021	-0,035
-315,226	466,868	-0,021	0,035
-314,212	493,490	0,040	0,067
-313,197	-200,000	-0,001	0,009
-312,183	-113,654	0,149	-0,021
-311,168	-23,038	-0,026	0,011
-310,153	382,941	0,033	-0,050
-309,139	75,690	-0,113	-0,086
-308,124	-200,000	-0,009	0,030
-307,110	180,388	0,095	-0,101
-306,095	-118,571	0,118	0,015
-305,080	-126,112	-0,130	0,014
-304,066	800,000	0,033	0,093
-303,051	-81,338	-0,125	0,030
-302,037	-125,969	0,078	0,008
-301,022	800,000	0,034	0,104
-300,008	228,072	0,064	0,075
-298,993	-200,000	-0,024	0,092
-297,978	800,000	0,050	-0,135
-296,964	-28,569	-0,051	-0,021
-295,949	-2,886	-0,080	-0,040
-294,935	4,705	0,054	0,029
-293,920	462,207	0,055	-0,089
-292,905	-119,470	-0,089	0,011
-291,891	-200,000	-0,029	0,107
-290,876	-200,000	0,008	-0,183
-289,862	-168,071	-0,141	-0,004
-288,847	-23,712	0,024	-0,010
-287,832	-15,059	-0,069	0,032
-286,818	800,000	0,032	0,095
-285,803	-200,000	-0,029	0,117
-284,789	-1,707	0,209	0,106
-283,774	800,000	0,030	0,084
-282,759	57,367	-0,021	0,015
-281,745	-11,775	-0,045	0,021
-280,730	133,227	-0,193	-0,181
-279,716	51,579	0,075	0,051
-278,701	92,034	-0,144	0,118
-277,686	509,901	-0,034	0,057
-276,672	75,794	-0,066	0,051
-275,657	800,000	-0,042	-0,100
-274,643	-0,223	-0,077	-0,039
-273,628	-200,000	0,017	-0,072
-272,613	49,427	-0,048	-0,033
-271,599	453,897	0,040	0,064
-270,584	-200,000	-0,003	-0,013
-269,570	-168,367	0,134	0,004
-268,555	-45,747	-0,179	0,064
-267,540	52,723	-0,010	-0,007
-266,526	66,928	-0,047	-0,035
-265,511	425,239	0,052	-0,081
-264,497	-158,646	-0,139	-0,006
-263,482	-200,000	0,002	0,041
-262,467	466,771	0,085	0,138
-261,453	-200,000	-0,025	-0,105
-260,438	800,000	-0,022	-0,046
-259,424	549,835	0,037	0,065
-258,409	800,000	0,023	0,070
-257,395	800,000	0,040	-0,081
-256,380	800,000	-0,022	-0,066
-255,365	379,201	-0,066	0,098
-254,351	-34,671	0,052	0,021
-253,336	-51,324	0,098	-0,033
-252,322	800,000	0,068	0,169
-251,307	-200,000	0,013	0,062
-250,292	-23,881	0,137	0,059
-249,278	800,000	0,069	0,164
-248,263	234,693	0,021	0,026
-247,249	800,000	-0,017	0,051
-246,234	164,263	0,111	0,113
-245,219	4,691	0,085	-0,045
-244,205	86,296	-0,099	-0,078
-243,190	543,520	0,059	-0,103
-242,176	-200,000	-0,029	0,151
-241,161	-146,221	0,014	-0,001
-240,146	800,000	-0,024	-0,067
-239,132	-105,440	0,173	-0,028
-238,117	800,000	-0,030	0,064
-237,103	9,212	-0,049	0,027
-236,088	57,909	0,051	-0,036
-235,073	800,000	0,051	-0,137
-234,059	-165,705	0,096	0,003
-233,044	14,195	0,102	0,057
-232,030	80,645	-0,020	0,016
-231,015	112,325	-0,063	0,055
-230,000	-141,992	0,029	-0,002
-228,986	238,420	0,064	0,077
-227,971	800,000	0,032	-0,071
-226,957	-69,613	-0,039	0,011
-225,942	-77,602	-0,173	0,043
-224,927	800,000	-0,027	-0,057
-223,913	-34,137	-0,004	0,002
-222,898	63,407	-0,037	0,027
-221,884	22,988	0,033	0,020
-220,869	351,115	-0,027	-0,039
-219,855	-200,000	0,000	-0,016
-218,840	460,587	0,016	0,026
-217,825	346,534	0,042	0,060
-216,811	-54,500	-0,049	0,016
-215,796	57,765	-0,131	-0,092
-214,782	-200,000	-0,014	-0,104
-213,767	-85,802	0,106	0,024
-212,752	-200,000	0,009	-0,057
-211,738	-130,966	0,169	-0,016
-210,723	372,864	-0,063	0,092
-209,709	146,581	-0,075	0,073
-208,694	291,384	0,089	0,117
-207,679	270,669	0,094	-0,119
-206,665	-28,598	0,003	0,001
-205,650	-200,000	-0,016	0,066
-204,636	249,822	0,038	0,047
-203,621	27,292	-0,098	-0,059
-202,606	800,000	-0,019	-0,050
-201,592	-200,000	0,006	-0,029
-200,577	-200,000	-0,030	-0,098
-199,563	-59,978	0,133	0,041
-198,548	-200,000	-0,008	0,090
-197,533	-200,000	-0,004	-0,128
-196,519	800,000	0,026	0,064
-195,504	-104,692	-0,159	-0,026
-194,490	0,251	-0,036	-0,018
-193,475	-76,803	0,056	-0,014
-192,460	698,333	-0,027	0,051
-191,446	143,072	-0,031	0,030
-190,431	-139,291	-0,096	0,007
-189,417	685,379	0,073	-0,138
-188,402	-84,998	0,099	-0,022
-187,387	-92,087	-0,081	0,016
-186,373	425,617	-0,110	-0,172
-185,358	26,424	-0,121	-0,073
-184,344	-60,408	0,109	-0,033
-183,329	83,107	0,101	0,080
-182,315	14,222	0,124	0,070
-181,300	-157,558	-0,176	0,007
-180,285	293,394	-0,014	0,018
-179,271	164,559	-0,025	-0,025
-178,256	57,582	0,077	-0,054
-177,242	105,746	0,043	-0,037
-176,227	207,934	0,033	0,037
-175,212	800,000	0,050	0,126
-174,198	22,806	-0,054	0,032
-173,183	-126,602	-0,139	-0,015
-172,169	310,827	-0,015	-0,020
-171,154	-200,000	0,023	-0,081
-170,139	299,140	-0,068	0,090
-169,125	-200,000	-0,005	-0,036
-168,110	5,194	0,043	-0,023
-167,096	176,358	-0,025	-0,026
-166,081	5,020	-0,152	0,081
-165,066	-200,000	-0,013	0,135
-164,052	228,087	0,075	-0,088
-163,037	800,000	-0,032	-0,091
-162,023	-200,000	-0,010	-0,075
-161,008	-121,389	0,088	-0,010
-159,993	250,198	-0,049	0,060
-158,979	14,251	0,157	0,088
-157,964	26,863	-0,019	-0,012
-156,950	-47,323	-0,023	-0,008
-155,935	800,000	0,006	0,012
-154,920	162,934	0,106	0,107
-153,906	-119,761	0,062	0,008
-152,891	1,321	0,196	0,101
-151,877	354,534	0,018	-0,026
-150,862	-54,758	-0,104	-0,034
-149,847	-65,524	0,118	-0,034
-148,833	284,453	0,043	0,056
-147,818	288,619	0,037	0,049
-146,804	-54,557	0,039	0,013
-145,789	-200,000	-0,005	0,102
-144,775	-81,381	-0,145	-0,034
-143,760	-183,801	-0,053	0,001
-142,745	8,552	-0,144	0,078
-141,731	406,147	0,032	0,048
-140,716	-2,430	0,034	0,017
-139,702	-200,000	-0,006	0,194
-138,687	218,670	-0,068	0,079
-137,672	-200,000	0,026	-0,115
-136,658	103,959	0,097	-0,082
-135,643	283,717	0,177	-0,230
-134,629	-51,511	0,062	-0,021
-133,614	474,066	0,066	-0,107
-132,599	8,286	-0,090	-0,049
-131,585	-23,249	0,030	-0,013
-130,570	33,261	-0,093	-0,058
-129,556	200,477	-0,056	0,062
-128,541	-200,000	0,006	-0,094
-127,526	322,958	0,058	0,080
-126,512	-56,483	0,084	-0,027
-125,497	-132,169	0,081	-0,007
-124,483	97,864	0,058	0,048
-123,468	-200,000	-0,003	0,037
-122,453	294,202	-0,085	-0,112
-121,439	800,000	0,025	0,056
-120,424	191,768	-0,114	-0,124
-119,410	-200,000	0,028	0,096
-118,395	800,000	0,040	0,107
-117,380	-72,934	-0,088	0,023
-116,366	195,312	0,060	0,066
-115,351	304,286	-0,053	0,071
-114,337	-200,000	0,023	-0,078
-113,322	-200,000	0,012	0,074
-112,307	-42,074	0,124	0,045
-111,293	10,253	-0,067	0,037
-110,278	800,000	-0,038	0,086
-109,264	500,365	0,027	0,045
-108,249	491,996	-0,032	0,053
-107,234	57,791	0,059	-0,041
-106,220	800,000	-0,024	0,074
-105,205	-12,848	0,057	0,026
-104,191	157,544	-0,042	0,042
-103,176	-200,000	0,032	0,000
-102,162	-96,456	0,132	0,025
-101,147	-200,000	0,021	0,159
-100,132	-200,000	0,000	-0,042
-99,118	-21,972	0,058	0,025
-98,103	-200,000	0,029	-0,127
-97,089	39,776	0,180	-0,116
-96,074	-161,555	-0,068	-0,002
-95,059	-102,558	0,105	0,018
-94,045	-107,552	0,068	0,011
-93,030	-200,000	0,007	0,023
-92,016	82,190	-0,085	0,066
-91,001	800,000	0,020	-0,046
-89,986	-200,000	0,018	-0,079
-88,972	-200,000	-0,000	0,020
-87,957	800,000	-0,027	0,066
-86,943	141,440	-0,152	-0,144
-85,928	-200,000	0,023	-0,138
-84,913	126,294	-0,078	0,071
-83,899	-181,994	-0,067	0,001
-82,884	-200,000	0,029	0,207
-81,870	252,535	-0,102	0,125
-80,855	800,000	-0,060	-0,179
-79,840	-200,000	-0,029	0,108
-78,826	-152,245	0,053	-0,003
-77,811	-200,000	-0,029	-0,095
-76,797	192,455	0,039	0,043
-75,782	20,147	0,134	0,077
-74,767	800,000	-0,024	-0,054
-73,753	800,000	0,013	-0,028
-72,738	800,000	-0,055	-0,139
-71,724	-200,000	-0,025	-0,153
-70,709	-132,965	-0,203	0,018
-69,694	-33,028	-0,111	0,044
-68,680	171,547	-0,025	0,026
-67,665	64,611	0,076	0,055
-66,651	-166,228	-0,084	-0,003
-65,636	113,603	-0,049	-0,043
-64,622	-200,000	-0,023	-0,134
-63,607	-200,000	0,020	-0,111
-62,592	167,461	0,027	0,027
-61,578	-130,425	0,068	0,007
-60,563	60,728	-0,018	-0,013
-59,549	-200,000	0,005	0,106
-58,534	78,505	-2,735	-2,097
-57,519	201,975	0,296	-0,328
-56,505	-200,000	-1,680	-5,449
-55,490	477,731	1,198	1,953
-54,476	800,000	5,278	11,311
-53,461	-200,000	22,232	348,351
-52,446	800,000	760,341	2294,681
-51,432	513,577	1644,627	2763,853
-50,417	96,765	1607,046	1321,159
-49,403	64,486	1264,187	913,464
-48,388	22,723	1016,638	596,204
-47,373	19,373	983,885	565,934
-46,359	12,777	971,048	536,968
-45,344	8,483	967,683	521,029
-44,330	8,939	965,615	521,388
-43,315	8,008	963,873	517,387
-42,300	7,911	962,824	516,484
-41,286	7,864	961,780	515,750
-40,271	7,795	961,207	515,198
-39,257	7,870	960,016	514,784
-38,242	7,825	959,049	514,098
-37,227	7,858	958,156	513,707
-36,213	7,858	957,282	513,218
-35,198	7,803	956,630	512,669
-34,184	7,878	955,656	512,370
-33,169	7,810	954,967	511,761
-32,154	7,881	953,934	511,416
-31,140	7,939	953,041	511,103
-30,125	7,934	952,359	510,702
-29,111	7,878	951,399	509,986
-28,096	7,930	950,911	509,872
-27,082	7,810	950,429	509,207
-26,067	7,810	949,660	508,775
-25,052	7,769	948,604	508,058
-24,038	7,809	948,005	507,843
-23,023	7,809	947,375	507,486
-22,009	7,825	946,875	507,250
-20,994	7,826	946,172	506,857
-19,979	7,816	945,432	506,409
-18,965	7,808	944,895	506,075
-17,950	7,879	944,212	505,915
-16,936	7,759	943,813	505,299
-15,921	7,812	942,943	504,983
-14,906	7,721	942,298	504,326
-13,892	7,743	941,661	504,036
-12,877	7,732	940,857	503,549
-11,863	7,737	940,363	503,283
-10,848	7,750	939,896	503,053
-9,833	7,893	939,260	503,146
-8,819	7,772	938,840	502,518
-7,804	7,760	937,944	501,980
-6,790	7,657	937,526	501,410
-5,775	7,796	936,864	501,475
-4,760	7,804	936,415	501,242
-3,746	7,730	935,864	500,694
-2,731	7,611	935,065	499,867
-1,717	7,580	934,369	499,377
-0,702	7,619	933,692	499,120
0,313	7,454	933,126	499,049
1,327	10,877	930,782	508,540
2,342	19,711	778,797	448,627
3,356	14,798	446,508	249,817
4,371	-12,061	311,556	145,827
5,386	-15,644	293,812	133,899
6,400	-17,598	287,611	129,133
7,415	-17,855	285,294	127,829
8,429	-18,521	283,487	126,361
9,444	-18,624	282,495	125,807
10,459	-18,234	281,838	125,881
11,473	-18,554	281,418	125,373
12,488	-18,322	280,835	125,325
13,502	-18,310	280,419	125,140
14,517	-18,453	280,188	124,888
15,531	-18,481	279,644	124,608
16,546	-18,180	279,246	124,708
17,561	-18,338	278,872	124,379
18,575	-18,105	278,401	124,380
19,590	-18,309	278,133	124,054
20,604	-18,113	277,844	124,102
21,619	-18,350	277,566	123,741
22,634	-18,038	277,134	123,833
23,648	-18,113	276,776	123,591
24,663	-18,134	276,600	123,482
25,677	-18,164	276,326	123,321
26,692	-18,204	276,134	123,186
27,707	-18,155	275,752	123,051
28,721	-18,160	275,426	122,890
29,736	-18,281	275,215	122,670
30,750	-18,141	275,085	122,733
31,765	-18,386	274,755	122,345
32,780	-18,021	274,329	122,487
33,794	-18,098	274,185	122,339
34,809	-18,062	273,810	122,195
35,823	-18,139	273,674	122,051
36,838	-18,156	273,489	121,941
37,853	-18,222	273,239	121,758
38,867	-18,250	272,991	121,610
39,882	-18,115	272,709	121,600
40,896	-18,092	272,440	121,490
41,911	-18,098	272,220	121,376
42,926	-17,888	271,932	121,432
43,940	-18,167	271,709	121,062
44,955	-18,163	271,568	120,993
45,969	-18,199	271,458	120,899
46,984	-18,059	271,266	120,932
47,999	-17,988	271,023	120,879
49,013	-18,068	270,784	120,688
50,028	-17,970	270,622	120,695
51,042	-17,980	270,362	120,559
52,057	-18,073	269,966	120,287
53,071	-17,930	269,874	120,367
54,086	-17,878	269,471	120,224
55,101	-17,926	269,367	120,123
56,115	-17,902	269,121	120,025
57,130	-18,099	268,858	119,716
58,144	-18,323	268,613	119,390
59,159	-18,162	268,208	119,347
60,174	-18,129	267,967	119,259
61,188	-18,247	267,941	119,129
62,203	-18,123	267,639	119,097
63,217	-18,107	267,530	119,053
64,232	-18,154	267,233	118,868
65,247	-18,266	267,089	118,691
66,261	-18,256	266,837	118,577
67,276	-18,129	266,572	118,565
68,290	-18,175	266,386	118,429
69,305	-17,963	266,072	118,472
70,320	-18,044	265,883	118,303
71,334	-17,944	265,711	118,307
72,349	-18,104	265,371	118,000
73,363	-18,175	265,199	117,849
74,378	-18,283	264,998	117,651
75,393	-18,163	264,708	117,621
76,407	-18,075	264,452	117,575
77,422	-18,160	264,293	117,417
78,436	-17,984	264,006	117,439
79,451	-18,096	263,756	117,216
80,466	-18,204	263,540	117,013
81,480	-18,100	263,366	117,018
82,495	-17,976	263,177	117,035
83,509	-17,866	262,963	117,028
84,524	-18,086	262,647	116,680
85,539	-18,024	262,564	116,688
86,553	-17,951	262,360	116,652
87,568	-18,098	262,086	116,389
88,582	-18,018	261,894	116,365
89,597	-17,922	261,741	116,372
90,611	-18,039	261,544	116,169
91,626	-18,103	261,447	116,059
92,641	-18,107	261,109	115,896
93,655	-18,077	260,836	115,791
94,670	-18,088	260,635	115,681
95,684	-18,012	260,478	115,668
96,699	-18,123	260,360	115,508
97,714	-17,990	260,007	115,459
98,728	-18,020	259,960	115,400
99,743	-18,042	259,661	115,238
100,757	-17,997	259,590	115,236
101,772	-18,069	259,077	114,934
102,787	-18,065	258,981	114,885
103,801	-18,000	258,717	114,815
104,816	-18,065	258,709	114,744
105,830	-17,989	258,312	114,625
106,845	-18,111	258,177	114,448
107,860	-18,060	258,014	114,409
108,874	-18,129	257,769	114,231
109,889	-18,005	257,554	114,233
110,903	-18,230	257,385	113,951
111,918	-18,067	257,197	114,000
112,933	-18,203	256,993	113,781
113,947	-18,219	256,818	113,679
114,962	-18,132	256,559	113,630
115,976	-18,161	256,396	113,523
116,991	-18,044	256,139	113,501
118,006	-18,098	256,059	113,408
119,020	-18,025	255,843	113,366
120,035	-17,870	255,630	113,397
121,049	-18,202	255,535	113,055
122,064	-18,105	255,487	113,109
123,079	-18,016	255,090	113,000
124,093	-18,110	254,902	112,825
125,108	-17,863	254,707	112,942
126,122	-17,863	254,499	112,840
127,137	-17,923	254,335	112,706
128,151	-17,809	254,216	112,741
129,166	-17,950	253,924	112,480
130,181	-17,919	253,673	112,385
131,195	-18,087	253,555	112,178
132,210	-17,932	253,250	112,167
133,224	-17,749	252,966	112,188
134,239	-17,941	253,025	112,040
135,254	-18,212	252,684	111,646
136,268	-17,845	252,507	111,872
137,283	-17,766	252,320	111,847
138,297	-17,789	252,024	111,687
139,312	-17,729	251,795	111,626
140,327	-17,942	251,776	111,426
141,341	-18,078	251,522	111,187
142,356	-17,947	251,113	111,109
143,370	-17,916	251,126	111,131
144,385	-17,881	250,926	111,062
145,400	-18,001	250,627	110,817
146,414	-18,020	250,625	110,790
147,429	-17,968	250,344	110,701
148,443	-18,087	250,305	110,573
149,458	-17,969	249,947	110,505
150,473	-18,078	249,866	110,367
151,487	-17,817	249,533	110,430
152,502	-17,756	249,391	110,409
153,516	-18,002	249,180	110,099
154,531	-18,012	248,992	109,997
155,546	-17,846	248,832	110,056
156,560	-18,095	248,778	109,814
157,575	-17,898	248,296	109,756
158,589	-17,877	248,188	109,717
159,604	-17,955	248,107	109,605
160,619	-17,842	247,850	109,577
161,633	-18,049	247,770	109,358
162,648	-18,150	247,536	109,161
163,662	-17,945	247,434	109,277
164,677	-17,991	247,218	109,134
165,692	-17,915	246,824	109,014
166,706	-18,007	246,969	108,991
167,721	-18,242	246,761	108,693
168,735	-18,100	246,523	108,697
169,750	-17,885	246,378	108,802
170,764	-17,887	246,234	108,727
171,779	-17,992	246,052	108,551
172,794	-17,905	246,004	108,591
173,808	-17,914	245,732	108,455
174,823	-17,674	245,630	108,599
175,837	-17,777	245,405	108,405
176,852	-18,016	245,315	108,157
177,867	-17,977	244,965	108,025
178,881	-17,983	244,928	107,994
179,896	-17,820	244,606	107,977
180,910	-18,160	244,563	107,667
181,925	-18,148	244,255	107,532
182,940	-17,791	244,124	107,760
183,954	-18,058	243,906	107,434
184,969	-18,130	243,747	107,295
185,983	-17,921	243,579	107,384
186,998	-17,826	243,476	107,406
188,013	-18,009	243,309	107,173
189,027	-18,108	243,188	107,029
190,042	-18,162	242,871	106,835
191,056	-18,081	242,691	106,813
192,071	-17,989	242,390	106,746
193,086	-18,156	242,330	106,574
194,100	-18,139	242,253	106,545
195,115	-18,209	242,003	106,368
196,129	-17,867	241,665	106,488
197,144	-17,856	241,580	106,451
198,159	-18,059	241,347	106,173
199,173	-18,020	241,238	106,147
200,188	-18,058	241,078	106,036
201,202	-17,778	240,878	106,167
202,217	-17,705	240,853	106,206
203,232	-17,889	240,510	105,896
204,246	-18,146	240,290	105,581
205,261	-18,193	240,178	105,484
206,275	-16,924	240,619	106,698
207,290	-12,352	242,259	111,149
208,304	-5,683	244,154	117,483
209,319	-2,360	245,368	120,791
210,334	-0,923	245,313	121,934
211,348	-0,210	245,578	122,641
212,363	0,204	245,516	122,939
213,377	0,608	245,284	123,144
214,392	0,534	245,434	123,147
215,407	1,004	245,499	123,555
216,421	1,267	245,224	123,621
217,436	1,149	245,196	123,499
218,450	1,212	245,021	123,451
219,465	1,351	244,794	123,439
220,480	1,282	244,677	123,313
221,494	1,321	244,496	123,243
222,509	0,870	244,167	122,698
223,523	0,685	243,864	122,384
224,538	0,702	243,748	122,329
225,553	0,446	243,708	122,090
226,567	0,542	243,375	121,990
227,582	0,507	243,328	121,927
228,596	0,595	243,159	121,903
229,611	0,660	242,871	121,800
230,626	0,665	242,757	121,737
231,640	0,726	242,580	121,686
232,655	0,598	242,326	121,445
233,669	0,418	242,356	121,303
234,684	0,478	242,053	121,189
235,699	0,570	241,888	121,170
236,713	0,471	241,870	121,070
237,728	0,462	241,745	120,990
238,742	0,490	241,426	120,842
239,757	0,532	241,397	120,850
240,772	0,416	241,308	120,702
241,786	0,423	241,108	120,596
242,801	0,564	240,798	120,544
243,815	0,488	240,755	120,450
244,830	0,323	240,546	120,203
245,844	0,540	240,338	120,263
246,859	0,699	240,126	120,272
247,874	0,655	240,001	120,164
248,888	0,283	239,987	119,849
249,903	0,497	239,702	119,867
250,917	0,532	239,760	119,913
251,932	0,572	239,614	119,861
252,947	0,573	239,342	119,715
253,961	0,838	239,042	119,766
254,976	0,478	239,071	119,482
255,990	0,587	238,848	119,447
257,005	0,531	238,695	119,316
258,020	0,652	238,541	119,324
259,034	0,671	238,418	119,267
260,049	0,602	238,138	119,062
261,063	0,561	237,984	118,942
262,078	0,575	237,919	118,909
263,093	0,348	237,820	118,670
264,107	0,516	237,738	118,751
265,122	0,517	237,510	118,628
266,136	0,424	237,480	118,529
267,151	0,624	237,084	118,478
268,166	0,640	236,964	118,420
269,180	0,508	236,823	118,235
270,195	0,760	236,627	118,325
271,209	0,543	236,589	118,124
272,224	0,581	236,316	118,008
273,239	0,649	236,125	117,955
274,253	0,566	236,065	117,850
275,268	0,347	235,991	117,630
276,282	0,480	235,576	117,517
277,297	0,645	235,622	117,659
278,312	0,589	235,465	117,526
279,326	0,555	235,473	117,493
280,341	0,510	235,259	117,341
281,355	0,687	235,010	117,345
282,370	0,770	234,932	117,360
283,384	0,564	234,765	117,105
284,399	0,657	234,534	117,052
285,414	0,514	234,503	116,914
286,428	0,583	234,274	116,843
287,443	0,773	234,060	116,874
288,457	0,659	233,988	116,739
289,472	0,739	233,760	116,677
290,487	0,630	233,666	116,535
291,501	0,743	233,530	116,544
292,516	0,602	233,351	116,336
293,530	0,689	233,299	116,367
294,545	0,623	233,167	116,240
295,560	0,725	232,953	116,201
296,574	0,730	232,724	116,081
297,589	0,689	232,685	116,019
298,603	0,605	232,383	115,793
299,618	0,757	232,146	115,782
300,633	0,603	232,209	115,684
301,647	0,787	232,232	115,827
302,662	1,035	231,838	115,811
303,676	0,842	231,863	115,665
304,691	0,831	231,608	115,519
305,706	0,964	231,435	115,525
306,720	0,691	231,354	115,265
307,735	0,821	231,115	115,235
308,749	0,920	231,076	115,281
309,764	0,838	230,926	115,132
310,779	0,769	230,725	114,969
311,793	0,723	230,613	114,868
312,808	0,957	230,310	114,886
313,822	0,684	230,291	114,657
314,837	0,834	230,110	114,672
315,852	0,681	230,025	114,502
316,866	0,683	229,888	114,426
317,881	0,945	229,670	114,507
318,895	0,736	229,631	114,318
319,910	0,774	229,407	114,224
320,925	0,861	229,269	114,212
321,939	0,840	229,170	114,137
322,954	0,970	228,838	114,059
323,968	0,695	228,893	113,868
324,983	0,799	228,804	113,892
325,997	0,687	228,619	113,706
327,012	0,876	228,360	113,709
328,027	0,717	228,410	113,605
329,041	0,841	228,222	113,594
330,056	0,741	228,010	113,403
331,070	0,862	227,733	113,346
332,085	0,854	227,780	113,354
333,100	0,931	227,393	113,209
334,114	0,973	227,085	113,076
335,129	0,815	227,224	113,018
336,143	0,892	227,053	112,980
337,158	0,841	227,094	112,952
338,173	0,971	226,914	112,950
339,187	1,028	226,650	112,851
340,202	0,934	226,518	112,705
341,216	0,907	226,336	112,584
342,231	0,975	226,179	112,547
343,246	0,895	225,987	112,381
344,260	1,171	226,023	112,595
345,275	1,071	225,896	112,447
346,289	1,118	225,599	112,325
347,304	1,134	225,497	112,275
348,319	1,038	225,313	112,103
349,333	1,066	225,258	112,086
350,348	1,024	225,046	111,940
351,362	0,943	224,994	111,844
352,377	0,875	224,723	111,648
353,392	1,210	224,627	111,839
354,406	1,055	224,532	111,667
355,421	192,665	1310,192	1377,735
356,435	154,333	1442,310	1377,581
