DTS Sentinel unit serial number:	SN410029Multiplexer serial number:	ORYXHardware model number:	OX2-SRSoftware version number:	ORYX F/W v4,00 Oryx Data Collector v3.7.2.0data status	okinstallation	B5 Nyhavnadifferential loss correction	single-endedforward channel	channel 2reverse channel	N/Adate	2023/12/13time	02:27:13forward acquisition time	300,00reverse acquisition time	0,00gamma	499,1914k internal	0,3160k external	0,3160temperature offset calibration	1,0000default loss term (dB/km)	0,3820temperature slope calibration	1,0000multiplexer offset coefficient	1,0000multiplexer slope coefficient	1,0000fibre end	0,00T internal ref (°C)	14,01T ext. ref 1 (°C)	-2,45T ext. ref 2 (°C)	-2,77length (m)	temperature (°C)	Stokes	anti-Stokes-744,400	-23,079	0,082	0,036
-743,385	-100,307	-0,280	0,051
-742,371	-96,019	0,158	0,031
-741,356	-137,691	-0,310	-0,025
-740,342	-122,682	0,126	-0,015
-739,327	-56,813	-0,225	-0,073
-738,312	-52,588	0,087	0,029
-737,298	-82,393	-0,305	0,072
-736,283	-69,007	0,108	-0,030
-735,269	-94,065	-0,297	0,060
-734,254	94,375	0,132	0,111
-733,239	-58,529	-0,450	-0,143
-732,225	55,427	0,130	-0,092
-731,210	117,638	-0,022	-0,020
-730,196	-86,206	-0,062	0,014
-729,181	800,000	-0,037	0,110
-728,167	52,846	-0,075	-0,053
-727,152	800,000	0,051	-0,140
-726,137	-200,000	-0,033	-0,159
-725,123	-20,013	-0,094	0,043
-724,108	139,894	0,029	-0,028
-723,094	168,139	-0,132	-0,138
-722,079	-151,286	0,014	-0,001
-721,064	-123,710	-0,145	0,017
-720,050	-110,599	-0,118	-0,018
-719,035	295,370	-0,024	-0,033
-718,021	-167,718	0,056	0,002
-717,006	22,194	0,029	-0,017
-715,991	800,000	-0,053	-0,108
-714,977	800,000	-0,042	-0,120
-713,962	-106,590	-0,072	0,012
-712,948	9,776	0,063	0,035
-711,933	657,092	-0,037	-0,070
-710,918	479,949	-0,017	-0,029
-709,904	51,453	-0,180	-0,126
-708,889	800,000	0,026	-0,054
-707,875	-1,499	-0,123	-0,063
-706,860	-200,000	0,007	-0,042
-705,845	66,762	0,049	0,037
-704,831	428,433	0,055	-0,087
-703,816	-13,474	-0,180	-0,085
-702,802	96,088	-0,029	0,024
-701,787	-200,000	0,009	0,047
-700,772	41,157	0,096	0,064
-699,758	11,973	0,041	0,023
-698,743	-200,000	0,033	-0,160
-697,729	-200,000	-0,011	0,072
-696,714	-87,096	0,164	0,036
-695,699	-200,000	-0,013	-0,146
-694,685	-18,341	-0,054	-0,025
-693,670	794,649	-0,090	-0,184
-692,656	-64,589	0,107	-0,032
-691,641	155,181	-0,051	0,051
-690,627	51,692	0,057	0,040
-689,612	34,502	0,028	0,018
-688,597	-88,572	-0,072	0,016
-687,583	800,000	0,059	-0,187
-686,568	-126,714	0,069	0,007
-685,554	733,109	-0,061	-0,120
-684,539	800,000	-0,034	-0,090
-683,524	123,876	-0,051	0,047
-682,510	-127,272	-0,071	0,008
-681,495	-15,949	0,098	-0,046
-680,481	19,074	-0,096	-0,056
-679,466	732,062	-0,023	-0,045
-678,451	-200,000	-0,017	-0,073
-677,437	-200,000	-0,022	0,090
-676,422	304,059	0,032	0,044
-675,408	160,352	-0,079	0,081
-674,393	194,457	-0,027	0,030
-673,378	800,000	-0,022	-0,060
-672,364	-17,339	-0,081	0,038
-671,349	800,000	0,015	-0,039
-670,335	800,000	0,046	-0,139
-669,320	520,949	-0,080	0,139
-668,305	-200,000	0,001	0,065
-667,291	202,541	-0,058	0,066
-666,276	136,772	-0,084	-0,081
-665,262	-160,794	-0,187	-0,007
-664,247	94,765	-0,045	0,037
-663,232	16,044	0,033	0,019
-662,218	-200,000	-0,012	0,058
-661,203	800,000	-0,046	-0,104
-660,189	-148,815	-0,051	-0,003
-659,174	-200,000	0,010	-0,069
-658,159	-91,219	-0,067	0,014
-657,145	-18,110	-0,018	0,008
-656,130	-200,000	0,005	0,110
-655,116	349,280	-0,038	-0,055
-654,101	277,302	-0,008	0,010
-653,086	-28,305	-0,148	-0,063
-652,072	153,745	0,056	-0,056
-651,057	800,000	-0,029	-0,087
-650,043	-113,082	0,114	-0,016
-649,028	646,963	0,029	0,054
-648,014	118,405	-0,038	-0,035
-646,999	184,524	0,142	0,155
-645,984	67,289	-0,088	0,066
-644,970	157,139	-0,054	-0,055
-643,955	-116,340	-0,071	-0,010
-642,941	-108,099	-0,097	0,015
-641,926	-200,000	-0,004	-0,030
-640,911	52,726	0,053	0,037
-639,897	-54,330	-0,083	-0,028
-638,882	-200,000	-0,001	-0,018
-637,868	800,000	-0,045	-0,095
-636,853	529,958	-0,064	-0,112
-635,838	166,721	-0,127	-0,132
-634,824	-38,185	0,064	-0,025
-633,809	800,000	0,010	0,022
-632,795	-200,000	-0,004	-0,028
-631,780	-200,000	0,006	0,145
-630,765	576,623	0,035	-0,063
-629,751	314,847	0,060	0,083
-628,736	-117,228	0,083	-0,011
-627,722	496,794	-0,010	-0,018
-626,707	-200,000	0,017	-0,060
-625,692	123,515	0,029	-0,027
-624,678	371,656	-0,042	-0,062
-623,663	800,000	0,008	-0,026
-622,649	147,081	-0,044	0,043
-621,634	-200,000	-0,035	-0,144
-620,619	253,464	0,015	0,019
-619,605	-200,000	-0,003	0,040
-618,590	-200,000	-0,016	0,052
-617,576	190,454	0,092	-0,101
-616,561	-200,000	0,001	0,077
-615,546	39,731	-0,111	-0,073
-614,532	-200,000	-0,008	0,120
-613,517	-35,039	-0,033	0,013
-612,503	-200,000	-0,023	0,164
-611,488	800,000	0,035	0,081
-610,474	104,621	-0,054	-0,046
-609,459	156,506	-0,099	0,100
-608,444	30,908	-0,123	-0,077
-607,430	378,628	-0,075	-0,113
-606,415	800,000	0,022	-0,057
-605,401	-200,000	-0,012	0,059
-604,386	637,244	-0,037	-0,069
-603,371	261,568	-0,065	-0,083
-602,357	-200,000	-0,017	-0,071
-601,342	-46,898	-0,103	0,037
-600,328	99,295	-0,090	-0,076
-599,313	300,989	-0,081	-0,109
-598,298	238,221	0,060	0,073
-597,284	800,000	0,024	-0,055
-596,269	-200,000	-0,014	-0,122
-595,255	-6,895	0,042	0,021
-594,240	-37,514	-0,098	0,038
-593,225	-77,992	-0,102	-0,026
-592,211	-49,204	-0,175	0,061
-591,196	-106,746	0,086	0,014
-590,182	-63,112	-0,107	0,032
-589,167	-200,000	-0,012	0,047
-588,152	-10,514	0,045	0,022
-587,138	800,000	-0,030	0,090
-586,123	-200,000	-0,009	0,129
-585,109	-200,000	0,015	-0,117
-584,094	676,158	-0,023	-0,045
-583,079	-200,000	-0,017	-0,114
-582,065	-200,000	0,041	0,000
-581,050	-200,000	0,007	-0,075
-580,036	163,295	-0,035	0,036
-579,021	-50,332	-0,022	0,008
-578,006	-40,708	0,129	0,049
-576,992	607,434	0,065	-0,118
-575,977	800,000	0,031	0,081
-574,963	297,525	-0,088	0,118
-573,948	-78,551	0,046	-0,011
-572,934	800,000	-0,052	-0,108
-571,919	-107,647	-0,083	-0,013
-570,904	-200,000	-0,044	-0,165
-569,890	12,736	0,033	-0,019
-568,875	314,506	0,104	0,143
-567,861	-28,739	0,104	0,044
-566,846	800,000	-0,028	0,072
-565,831	455,369	-0,035	0,056
-564,817	800,000	0,023	-0,068
-563,802	77,369	-0,099	-0,077
-562,788	800,000	-0,051	-0,112
-561,773	800,000	0,017	0,043
-560,758	232,822	-0,024	0,029
-559,744	313,654	-0,020	-0,027
-558,729	800,000	0,033	-0,076
-557,715	-15,835	-0,026	-0,012
-556,700	-200,000	0,002	-0,092
-555,685	557,565	0,046	-0,082
-554,671	-27,020	0,157	0,067
-553,656	-55,308	0,111	0,036
-552,642	62,799	-0,063	0,046
-551,627	-180,128	-0,071	0,001
-550,612	-151,645	0,125	-0,007
-549,598	-42,879	-0,121	0,045
-548,583	-200,000	0,003	-0,074
-547,569	-200,000	0,011	-0,106
-546,554	154,549	-0,012	-0,012
-545,539	-125,692	0,102	-0,011
-544,525	-63,961	0,114	-0,034
-543,510	800,000	0,045	-0,095
-542,496	533,862	0,030	-0,051
-541,481	26,578	-0,096	-0,059
-540,466	-68,529	-0,206	-0,058
-539,452	-200,000	0,029	-0,121
-538,437	-130,164	0,071	-0,007
-537,423	-200,000	-0,023	0,117
-536,408	800,000	-0,019	-0,050
-535,393	-200,000	-0,009	0,047
-534,379	4,132	0,150	-0,080
-533,364	-200,000	-0,011	-0,121
-532,350	-132,226	0,116	-0,011
-531,335	118,811	0,084	0,076
-530,321	-200,000	0,020	0,107
-529,306	396,036	0,062	-0,095
-528,291	225,799	-0,061	-0,073
-527,277	-7,700	-0,040	-0,020
-526,262	-200,000	0,007	0,057
-525,248	-200,000	0,014	0,072
-524,233	-29,219	-0,084	0,035
-523,218	70,709	-0,071	-0,054
-522,204	800,000	0,041	-0,118
-521,189	397,664	0,013	-0,020
-520,175	-55,790	-0,159	-0,052
-519,160	87,495	-0,005	-0,004
-518,145	-200,000	-0,018	0,100
-517,131	139,629	-0,052	0,050
-516,116	-200,000	0,027	-0,127
-515,102	97,039	0,074	0,062
-514,087	-128,501	0,048	0,005
-513,072	800,000	-0,004	0,011
-512,058	800,000	-0,014	0,044
-511,043	-77,664	0,049	-0,012
-510,029	-200,000	0,009	-0,132
-509,014	27,918	-0,080	-0,049
-507,999	800,000	0,034	0,071
-506,985	405,582	-0,032	-0,050
-505,970	800,000	0,049	-0,134
-504,956	349,896	-0,019	0,027
-503,941	-200,000	0,062	0,221
-502,926	748,217	0,017	-0,033
-501,912	-18,933	-0,049	0,022
-500,897	594,039	-0,038	0,068
-499,883	-200,000	0,013	0,065
-498,868	117,799	-0,073	-0,065
-497,853	130,923	-0,105	-0,098
-496,839	103,770	0,095	0,081
-495,824	66,256	-0,134	0,100
-494,810	-200,000	0,007	-0,035
-493,795	26,373	0,138	0,084
-492,781	800,000	-0,034	0,071
-491,766	95,107	-0,086	-0,072
-490,751	-200,000	-0,010	-0,085
-489,737	-200,000	0,004	-0,083
-488,722	-124,093	0,063	0,007
-487,708	479,394	0,113	0,187
-486,693	-28,077	-0,149	0,063
-485,678	-200,000	0,033	0,129
-484,664	-63,620	0,076	-0,022
-483,649	-200,000	0,012	-0,057
-482,635	-181,707	-0,062	0,001
-481,620	369,368	0,059	0,087
-480,605	75,725	0,035	-0,027
-479,591	800,000	-0,028	0,081
-478,576	-120,306	-0,123	-0,015
-477,562	566,525	-0,050	-0,089
-476,547	-200,000	0,014	-0,112
-475,532	134,864	0,142	-0,135
-474,518	160,386	0,086	0,087
-473,503	-200,000	-0,025	0,113
-472,489	92,633	0,014	0,011
-471,474	800,000	-0,042	0,109
-470,459	39,100	0,047	0,031
-469,445	800,000	0,016	0,049
-468,430	278,549	-0,095	0,123
-467,416	800,000	0,010	-0,031
-466,401	-200,000	-0,018	-0,143
-465,386	-9,733	0,093	0,045
-464,372	312,987	-0,093	0,128
-463,357	-200,000	0,012	-0,089
-462,343	-200,000	-0,003	-0,015
-461,328	-12,859	-0,142	0,067
-460,313	-200,000	0,063	0,213
-459,299	-200,000	0,011	0,079
-458,284	108,123	-0,068	0,059
-457,270	69,704	-0,042	0,031
-456,255	-200,000	-0,039	-0,148
-455,241	108,663	0,037	-0,032
-454,226	412,011	0,047	-0,073
-453,211	600,097	0,054	-0,099
-452,197	128,454	0,084	-0,078
-451,182	678,250	-0,031	0,058
-450,168	439,970	-0,130	-0,208
-449,153	41,881	0,062	0,041
-448,138	-184,124	-0,065	-0,001
-447,124	349,823	0,009	-0,012
-446,109	800,000	0,028	-0,073
-445,095	-200,000	-0,014	0,084
-444,080	-200,000	0,015	0,108
-443,065	240,565	0,071	-0,087
-442,051	-128,278	-0,065	0,007
-441,036	800,000	0,051	-0,105
-440,022	-200,000	-0,001	-0,056
-439,007	77,487	0,056	0,043
-437,992	-121,046	-0,028	0,003
-436,978	-189,186	-0,096	-0,001
-435,963	800,000	-0,026	0,074
-434,949	116,268	0,114	0,102
-433,934	800,000	-0,055	0,114
-432,919	800,000	0,043	0,111
-431,905	58,204	-0,061	0,043
-430,890	532,364	0,024	-0,041
-429,876	240,244	0,052	0,063
-428,861	-200,000	0,014	-0,079
-427,846	58,662	0,081	0,058
-426,832	800,000	0,046	-0,094
-425,817	279,127	-0,066	-0,085
-424,803	-200,000	-0,027	0,117
-423,788	573,756	-0,019	0,034
-422,773	104,242	0,139	0,119
-421,759	544,294	0,007	-0,012
-420,744	-11,392	0,071	0,034
-419,730	261,252	-0,074	-0,094
-418,715	83,734	0,046	0,036
-417,701	193,025	-0,064	-0,071
-416,686	-60,496	0,120	-0,037
-415,671	-200,000	0,010	0,081
-414,657	445,568	-0,030	0,048
-413,642	190,840	-0,021	0,023
-412,628	384,624	-0,127	0,191
-411,613	139,900	-0,082	0,079
-410,598	800,000	0,010	-0,024
-409,584	-200,000	0,001	-0,029
-408,569	261,704	0,079	0,099
-407,555	389,139	-0,076	0,114
-406,540	-7,492	0,106	0,052
-405,525	129,539	0,052	-0,048
-404,511	426,365	-0,092	-0,144
-403,496	119,461	0,018	-0,016
-402,482	-200,000	-0,010	0,043
-401,467	-111,068	0,160	0,024
-400,452	-40,942	0,068	-0,025
-399,438	-200,000	0,017	0,086
-398,423	800,000	0,032	-0,066
-397,409	122,049	-0,010	0,009
-396,394	-38,118	-0,084	0,032
-395,379	-200,000	-0,001	0,080
-394,365	-103,213	0,079	-0,013
-393,350	-115,924	-0,079	0,011
-392,336	442,337	0,028	0,045
-391,321	-200,000	-0,006	-0,058
-390,306	-162,053	-0,023	-0,001
-389,292	-200,000	-0,011	-0,106
-388,277	109,067	-0,084	-0,073
-387,263	54,457	0,144	-0,101
-386,248	-200,000	0,016	0,081
-385,233	328,145	-0,052	0,073
-384,219	-78,904	0,091	0,022
-383,204	-43,453	-0,031	0,011
-382,190	-200,000	0,018	-0,064
-381,175	650,239	0,086	-0,160
-380,160	-86,469	0,197	-0,044
-379,146	-135,958	0,086	0,007
-378,131	-106,810	0,075	-0,012
-377,117	-99,044	-0,091	0,017
-376,102	800,000	-0,016	0,043
-375,088	-200,000	-0,048	-0,165
-374,073	106,240	0,088	0,075
-373,058	-82,061	0,134	0,031
-372,044	84,078	0,032	-0,025
-371,029	-200,000	0,027	0,109
-370,015	173,733	-0,080	0,084
-369,000	-25,926	-0,058	0,025
-367,985	-108,490	0,090	0,014
-366,971	-200,000	-0,001	-0,036
-365,956	108,448	-0,036	0,031
-364,942	742,676	0,007	-0,014
-363,927	-200,000	0,003	0,053
-362,912	311,958	-0,016	-0,022
-361,898	-200,000	-0,018	-0,111
-360,883	363,057	-0,018	-0,026
-359,869	800,000	0,046	-0,092
-358,854	-52,760	0,119	0,040
-357,839	613,623	0,010	0,018
-356,825	-28,085	0,087	0,036
-355,810	312,105	-0,091	-0,125
-354,796	700,674	-0,011	-0,021
-353,781	50,331	0,025	0,017
-352,766	800,000	-0,013	0,028
-351,752	-200,000	-0,028	0,150
-350,737	-12,606	0,171	0,081
-349,723	-200,000	0,013	0,099
-348,708	-110,203	-0,048	0,007
-347,693	-162,579	-0,131	-0,005
-346,679	210,238	0,045	-0,051
-345,664	-55,131	-0,091	-0,030
-344,650	800,000	-0,014	0,039
-343,635	-67,319	0,080	-0,023
-342,620	-200,000	0,013	0,071
-341,606	800,000	0,008	-0,021
-340,591	-200,000	0,024	0,126
-339,577	-81,766	0,094	0,022
-338,562	282,885	-0,053	-0,070
-337,548	-79,545	0,046	0,011
-336,533	-200,000	0,010	0,102
-335,518	55,050	0,007	-0,005
-334,504	800,000	0,026	0,067
-333,489	-107,095	-0,085	-0,013
-332,475	418,452	0,076	-0,118
-331,460	-80,364	-0,053	-0,013
-330,445	65,627	-0,119	-0,087
-329,431	83,463	0,100	-0,079
-328,416	134,424	-0,116	-0,109
-327,402	225,665	0,058	-0,068
-326,387	-47,758	-0,054	-0,019
-325,372	-126,457	-0,082	0,009
-324,358	-106,535	0,143	-0,023
-323,343	130,590	-0,073	0,067
-322,329	800,000	-0,031	0,093
-321,314	171,731	0,045	0,047
-320,299	401,950	-0,085	0,130
-319,285	18,192	0,074	-0,043
-318,270	-200,000	0,025	-0,164
-317,256	537,183	-0,020	0,035
-316,241	229,479	0,050	-0,059
-315,226	-200,000	-0,004	-0,126
-314,212	175,663	0,044	0,046
-313,197	-20,788	0,085	0,037
-312,183	31,900	0,063	0,039
-311,168	53,018	-0,040	-0,028
-310,153	220,544	-0,075	-0,087
-309,139	800,000	0,032	-0,095
-308,124	509,328	-0,060	-0,101
-307,110	31,299	-0,054	0,034
-306,095	-31,591	0,074	0,030
-305,080	-100,160	-0,043	-0,008
-304,066	-176,638	-0,090	-0,002
-303,051	800,000	-0,029	0,084
-302,037	30,752	-0,081	-0,050
-301,022	50,466	0,066	0,045
-300,008	800,000	-0,060	-0,147
-298,993	-85,138	0,170	0,038
-297,978	176,494	0,016	0,017
-296,964	-77,259	-0,044	0,011
-295,949	800,000	0,018	-0,045
-294,935	100,822	-0,072	-0,061
-293,920	-23,616	-0,097	-0,042
-292,905	579,621	-0,066	0,117
-291,891	39,447	0,090	-0,058
-290,876	-200,000	-0,024	0,123
-289,862	711,970	0,044	0,086
-288,847	19,848	-0,131	0,076
-287,832	211,885	0,016	0,018
-286,818	66,061	-0,033	-0,024
-285,803	-135,668	0,139	0,012
-284,789	42,180	-0,083	-0,055
-283,774	296,520	-0,045	0,060
-282,759	-200,000	0,008	0,053
-281,745	-22,234	-0,063	-0,027
-280,730	-20,931	-0,101	0,045
-279,716	-62,080	0,165	0,049
-278,701	-200,000	0,009	-0,111
-277,686	800,000	-0,048	-0,122
-276,672	89,183	0,081	0,065
-275,657	189,294	0,056	-0,061
-274,643	10,991	-0,076	0,042
-273,628	-51,296	0,082	-0,027
-272,613	405,834	0,024	-0,037
-271,599	131,480	0,034	-0,031
-270,584	-136,422	0,154	-0,013
-269,570	800,000	-0,028	-0,065
-268,555	-111,084	0,042	-0,006
-267,540	800,000	-0,040	-0,127
-266,526	-130,858	-0,034	0,003
-265,511	74,606	0,040	-0,031
-264,497	-200,000	-0,004	0,033
-263,482	98,547	0,064	0,053
-262,467	800,000	0,028	0,088
-261,453	-200,000	-0,012	-0,064
-260,438	131,311	-0,089	-0,083
-259,424	800,000	0,042	0,094
-258,409	200,882	-0,088	0,098
-257,395	-110,218	0,160	-0,024
-256,380	737,551	0,069	0,135
-255,365	69,452	0,117	0,087
-254,351	-200,000	-0,007	0,047
-253,336	72,171	0,032	0,024
-252,322	165,693	-0,040	-0,041
-251,307	-200,000	0,004	-0,050
-250,292	800,000	0,045	0,095
-249,278	-30,194	0,171	0,070
-248,263	-200,000	-0,011	0,094
-247,249	-99,257	0,065	-0,012
-246,234	231,012	-0,053	0,063
-245,219	-200,000	0,009	0,066
-244,205	-200,000	0,007	0,081
-243,190	-49,540	-0,016	-0,006
-242,176	-106,314	0,131	-0,021
-241,161	-51,335	-0,075	0,025
-240,146	28,094	-0,072	-0,044
-239,132	-200,000	0,000	-0,091
-238,117	-184,503	0,014	-0,000
-237,103	39,452	-0,148	-0,095
-236,088	-101,744	-0,027	-0,005
-235,073	-174,641	0,097	-0,002
-234,059	48,307	-0,086	0,058
-233,044	397,278	0,050	0,076
-232,030	800,000	0,048	0,119
-231,015	-25,350	-0,043	-0,018
-230,000	-5,146	-0,054	0,027
-228,986	-200,000	0,035	0,194
-227,971	-200,000	-0,013	-0,054
-226,957	45,921	0,020	0,013
-225,942	-58,644	0,154	0,048
-224,927	-20,554	-0,087	0,039
-223,913	360,719	0,035	-0,051
-222,898	-159,704	0,044	-0,002
-221,884	281,878	-0,041	-0,053
-220,869	-73,715	-0,050	-0,013
-219,855	213,229	0,069	0,079
-218,840	-11,944	-0,103	0,048
-217,825	-44,443	0,096	0,035
-216,811	-100,029	-0,137	-0,024
-215,796	-200,000	-0,018	-0,064
-214,782	800,000	-0,002	0,005
-213,767	-200,000	-0,002	-0,046
-212,752	50,112	0,187	0,127
-211,738	-200,000	0,018	0,169
-210,723	-119,078	0,075	-0,009
-209,709	-200,000	-0,015	-0,069
-208,694	115,131	0,049	-0,043
-207,679	-200,000	-0,004	-0,024
-206,665	800,000	-0,022	0,052
-205,650	45,217	0,036	-0,024
-204,636	164,384	0,086	0,087
-203,621	-200,000	0,010	0,053
-202,606	-200,000	0,008	-0,053
-201,592	159,152	0,043	-0,043
-200,577	107,526	0,054	-0,046
-199,563	309,779	0,070	-0,095
-198,548	-200,000	0,005	0,064
-197,533	71,867	-0,034	0,025
-196,519	-200,000	-0,013	-0,047
-195,504	-38,261	-0,050	-0,019
-194,490	307,863	-0,039	-0,053
-193,475	46,411	-0,134	-0,089
-192,460	207,120	0,055	0,062
-191,446	-106,250	-0,102	-0,016
-190,431	-178,994	-0,136	0,002
-189,417	-200,000	-0,011	-0,043
-188,402	1,122	-0,093	-0,048
-187,387	661,852	0,013	-0,025
-186,373	11,808	-0,114	0,063
-185,358	800,000	0,037	-0,095
-184,344	-200,000	-0,002	-0,057
-183,329	-116,675	0,061	-0,008
-182,315	236,365	-0,104	0,124
-181,300	-146,568	-0,097	-0,006
-180,285	154,700	-0,062	0,062
-179,271	230,657	-0,093	-0,110
-178,256	-46,687	0,034	0,012
-177,242	66,377	-0,019	0,014
-176,227	96,198	0,060	0,049
-175,212	800,000	0,048	0,100
-174,198	-200,000	-0,011	0,077
-173,183	800,000	-0,025	-0,051
-172,169	128,620	-0,159	-0,146
-171,154	-200,000	-0,014	0,069
-170,139	-110,385	-0,086	0,013
-169,125	227,046	-0,032	-0,037
-168,110	636,889	0,074	-0,137
-167,096	234,645	-0,031	-0,037
-166,081	800,000	0,060	-0,131
-165,066	-49,039	-0,093	-0,032
-164,052	-200,000	0,001	0,030
-163,037	-200,000	0,009	-0,142
-162,023	-17,283	0,036	-0,016
-161,008	-27,120	-0,112	-0,047
-159,993	250,155	0,037	0,045
-158,979	118,726	-0,056	-0,050
-157,964	800,000	0,080	0,178
-156,950	12,625	0,090	-0,050
-155,935	458,024	0,052	0,084
-154,920	-114,311	-0,007	0,001
-153,906	-16,362	0,121	-0,055
-152,891	7,679	-0,055	0,030
-151,877	-200,000	0,031	0,186
-150,862	-200,000	-0,002	-0,054
-149,847	-17,644	-0,103	-0,046
-148,833	800,000	0,040	-0,107
-147,818	122,953	-0,048	0,044
-146,804	95,954	-0,095	-0,078
-145,789	-200,000	-0,014	-0,050
-144,775	-200,000	0,005	0,109
-143,760	-22,493	0,072	-0,031
-142,745	-15,197	0,088	-0,040
-141,731	47,004	-0,127	0,085
-140,716	-1,572	-0,136	0,069
-139,702	569,198	0,080	-0,141
-138,687	-200,000	-0,021	0,077
-137,672	53,606	-0,057	0,040
-136,658	-200,000	0,032	-0,119
-135,643	44,228	0,140	0,092
-134,629	-155,672	0,094	-0,004
-133,614	-63,811	0,089	-0,026
-132,599	-200,000	-0,021	0,119
-131,585	-3,154	-0,043	-0,022
-130,570	-77,662	-0,121	0,030
-129,556	-76,561	-0,128	-0,032
-128,541	43,945	-0,129	-0,085
-127,526	177,356	0,060	0,063
-126,512	166,050	-0,116	0,119
-125,497	-107,084	0,137	0,021
-124,483	-200,000	-0,006	0,181
-123,468	62,144	0,046	0,033
-122,453	-155,041	-0,146	-0,007
-121,439	214,776	-0,029	-0,033
-120,424	800,000	-0,071	-0,204
-119,410	211,982	0,085	-0,097
-118,395	129,139	0,035	0,032
-117,380	30,870	-0,055	-0,034
-116,366	-185,124	-0,114	0,001
-115,351	189,869	-0,046	0,049
-114,337	-200,000	-0,015	0,065
-113,322	221,590	0,027	0,031
-112,307	-21,345	-0,084	0,037
-111,293	124,308	0,081	0,073
-110,278	-93,530	0,099	0,019
-109,264	-70,002	-0,064	-0,018
-108,249	48,393	-0,074	-0,049
-107,234	-200,000	0,002	0,013
-106,220	-121,909	-0,077	0,009
-105,205	516,051	0,051	0,086
-104,191	26,683	0,094	-0,056
-103,176	-19,428	-0,154	0,068
-102,162	-67,069	0,125	-0,035
-101,147	-200,000	-0,002	-0,019
-100,132	-80,581	0,022	-0,005
-99,118	-168,977	-0,164	0,004
-98,103	19,680	-0,054	0,031
-97,089	55,601	0,132	0,092
-96,074	800,000	-0,008	0,023
-95,059	800,000	-0,013	-0,029
-94,045	-89,875	-0,020	-0,004
-93,030	-129,176	-0,046	-0,005
-92,016	371,336	0,054	-0,078
-91,001	-99,310	0,093	-0,017
-89,986	472,850	-0,059	0,096
-88,972	105,158	-0,117	0,099
-87,957	49,564	0,053	0,036
-86,943	-70,039	-0,122	0,033
-85,928	-135,710	-0,129	0,011
-84,913	-200,000	-0,011	0,056
-83,899	13,642	0,050	-0,028
-82,884	-107,661	0,020	-0,003
-81,870	20,477	-0,102	-0,059
-80,855	73,220	-0,041	0,031
-79,840	-200,000	0,014	-0,045
-78,826	800,000	-0,033	-0,096
-77,811	37,403	-0,133	0,085
-76,797	-66,551	0,050	0,014
-75,782	-200,000	0,008	0,141
-74,767	-200,000	0,018	0,059
-73,753	103,586	0,060	0,050
-72,738	-133,277	0,097	0,009
-71,724	-200,000	-0,022	0,098
-70,709	-200,000	0,046	-0,182
-69,694	301,541	-0,047	0,063
-68,680	75,370	0,062	-0,047
-67,665	-87,392	-0,052	-0,011
-66,651	103,107	0,038	-0,032
-65,636	-200,000	-0,006	-0,073
-64,622	800,000	0,050	-0,127
-63,607	752,339	0,024	-0,046
-62,592	-11,476	-0,031	-0,014
-61,578	800,000	-0,050	0,101
-60,563	800,000	0,034	0,069
-59,549	43,771	0,047	0,031
-58,534	10,891	-2,099	-1,146
-57,519	-200,000	-0,180	-0,725
-56,505	-200,000	-1,299	-4,928
-55,490	126,302	0,780	0,708
-54,476	800,000	5,442	12,055
-53,461	-200,000	18,603	310,671
-52,446	800,000	739,693	2316,201
-51,432	556,177	1655,977	2871,975
-50,417	110,736	1640,381	1414,896
-49,403	74,918	1290,207	973,436
-48,388	30,557	1030,812	630,716
-47,373	19,971	993,248	572,681
-46,359	17,664	981,001	558,008
-45,344	14,392	976,941	544,928
-44,330	14,692	975,506	545,093
-43,315	14,072	973,554	541,947
-42,300	14,056	972,518	541,298
-41,286	14,042	971,457	540,637
-40,271	14,031	970,631	540,122
-39,257	13,978	969,949	539,547
-38,242	13,987	968,995	539,025
-37,227	14,045	968,026	538,655
-36,213	14,034	967,146	538,108
-35,198	14,023	966,223	537,536
-34,184	14,086	965,467	537,299
-33,169	14,049	964,320	536,519
-32,154	14,089	963,544	536,197
-31,140	14,049	962,882	535,678
-30,125	14,042	962,073	535,182
-29,111	14,059	961,224	534,743
-28,096	14,007	960,696	534,260
-27,082	14,078	959,900	534,027
-26,067	14,078	959,024	533,518
-25,052	14,012	958,505	532,995
-24,038	14,010	957,720	532,533
-23,023	14,055	956,745	532,113
-22,009	14,044	956,530	531,938
-20,994	14,073	955,749	531,573
-19,979	14,056	955,029	531,099
-18,965	13,958	954,534	530,488
-17,950	14,062	953,909	530,452
-16,936	13,962	953,279	529,761
-15,921	14,000	952,475	529,414
-14,906	13,963	951,814	528,907
-13,892	13,942	951,136	528,442
-12,877	13,958	950,492	528,115
-11,863	13,933	949,813	527,635
-10,848	13,933	949,326	527,345
-9,833	14,050	948,786	527,399
-8,819	14,018	948,218	526,960
-7,804	13,961	947,463	526,337
-6,790	13,898	947,032	525,876
-5,775	13,982	946,559	525,861
-4,760	13,922	945,821	525,238
-3,746	13,958	945,304	525,044
-2,731	13,842	944,550	524,238
-1,717	13,754	943,869	523,558
-0,702	13,766	943,252	523,235
0,313	13,586	942,671	523,129
1,327	16,929	940,290	532,337
2,342	25,873	795,607	474,175
3,356	22,306	460,518	268,965
4,371	-4,521	317,437	156,598
5,386	-8,586	299,258	143,462
6,400	-10,565	293,243	138,581
7,415	-10,741	290,679	137,182
8,429	-11,082	289,216	136,143
9,444	-11,278	288,335	135,522
10,459	-11,308	287,696	135,180
11,473	-11,390	287,082	134,799
12,488	-11,177	286,484	134,715
13,502	-11,178	285,980	134,465
14,517	-11,135	285,555	134,295
15,531	-11,140	285,084	134,057
16,546	-11,006	284,757	134,022
17,561	-11,056	284,358	133,774
18,575	-10,966	283,815	133,593
19,590	-11,142	283,762	133,385
20,604	-11,231	283,301	133,071
21,619	-11,230	282,983	132,910
22,634	-11,105	282,623	132,850
23,648	-11,147	282,257	132,626
24,663	-11,122	282,032	132,532
25,677	-11,136	281,619	132,314
26,692	-11,207	281,456	132,157
27,707	-11,036	281,094	132,139
28,721	-11,107	281,011	132,020
29,736	-11,148	280,618	131,784
30,750	-11,079	280,262	131,671
31,765	-11,274	280,209	131,448
32,780	-11,164	279,929	131,410
33,794	-11,100	279,555	131,284
34,809	-11,254	279,435	131,069
35,823	-11,203	278,934	130,871
36,838	-11,148	278,832	130,864
37,853	-11,253	278,729	130,704
38,867	-11,101	278,412	130,688
39,882	-11,362	278,195	130,327
40,896	-11,207	277,871	130,310
41,911	-11,264	277,565	130,101
42,926	-11,314	277,341	129,938
43,940	-11,284	277,059	129,822
44,955	-11,309	276,813	129,672
45,969	-11,403	276,677	129,508
46,984	-11,399	276,376	129,359
47,999	-11,567	276,139	129,078
49,013	-11,545	275,897	128,974
50,028	-11,706	275,532	128,641
51,042	-11,869	275,281	128,359
52,057	-11,789	274,931	128,260
53,071	-11,726	274,822	128,256
54,086	-11,797	274,581	128,066
55,101	-11,600	274,608	128,252
56,115	-11,457	274,391	128,273
57,130	-11,201	274,174	128,399
58,144	-10,951	273,914	128,499
59,159	-11,075	273,863	128,348
60,174	-10,877	273,430	128,318
61,188	-11,162	273,201	127,934
62,203	-11,103	273,082	127,922
63,217	-11,017	272,834	127,874
64,232	-11,039	272,552	127,710
65,247	-11,029	272,476	127,673
66,261	-11,096	272,156	127,448
67,276	-11,302	271,890	127,122
68,290	-11,399	271,659	126,913
69,305	-11,396	271,313	126,743
70,320	-11,363	271,112	126,668
71,334	-11,171	270,988	126,776
72,349	-10,959	270,794	126,869
73,363	-11,194	270,602	126,551
74,378	-10,967	270,342	126,628
75,393	-11,079	270,218	126,455
76,407	-10,992	269,893	126,372
77,422	-11,036	269,636	126,199
78,436	-10,946	269,535	126,224
79,451	-10,901	269,235	126,113
80,466	-11,038	268,996	125,864
81,480	-11,142	268,906	125,716
82,495	-11,074	268,448	125,552
83,509	-11,257	268,402	125,353
84,524	-11,100	268,043	125,317
85,539	-11,338	267,889	125,018
86,553	-11,426	267,741	124,857
87,568	-11,262	267,499	124,883
88,582	-11,237	267,198	124,754
89,597	-11,221	267,039	124,683
90,611	-10,991	266,817	124,776
91,626	-11,044	266,843	124,730
92,641	-10,977	266,724	124,723
93,655	-11,097	266,301	124,406
94,670	-11,194	266,244	124,280
95,684	-11,030	265,531	124,085
96,699	-10,966	265,582	124,155
97,714	-11,167	265,473	123,912
98,728	-11,216	265,358	123,803
99,743	-11,359	265,033	123,511
100,757	-11,330	264,796	123,416
101,772	-11,364	264,732	123,344
102,787	-11,221	264,360	123,288
103,801	-11,094	264,277	123,353
104,816	-11,039	264,040	123,280
105,830	-10,949	263,939	123,303
106,845	-10,965	263,823	123,223
107,860	-11,065	263,603	123,020
108,874	-11,076	263,299	122,857
109,889	-11,009	263,110	122,818
110,903	-11,235	262,917	122,515
111,918	-11,199	262,694	122,432
112,933	-11,111	262,437	122,381
113,947	-11,149	262,337	122,289
114,962	-10,941	261,909	122,263
115,976	-11,141	262,023	122,128
116,991	-11,134	261,738	121,990
118,006	-11,070	261,601	121,972
119,020	-10,951	261,409	121,978
120,035	-11,228	261,270	121,656
121,049	-11,023	261,041	121,720
122,064	-10,955	260,991	121,746
123,079	-10,954	260,662	121,583
124,093	-11,286	260,393	121,154
125,108	-11,460	260,189	120,895
126,122	-11,268	259,817	120,881
127,137	-11,365	259,690	120,725
128,151	-11,231	259,484	120,736
129,166	-11,348	259,345	120,558
130,181	-11,295	259,317	120,581
131,195	-11,178	258,948	120,501
132,210	-11,184	258,674	120,358
133,224	-10,945	258,627	120,534
134,239	-10,988	258,420	120,389
135,254	-11,120	258,327	120,220
136,268	-11,127	258,003	120,052
137,283	-11,419	257,767	119,677
138,297	-11,575	257,655	119,478
139,312	-11,510	257,403	119,407
140,327	-11,239	257,375	119,619
141,341	-10,920	257,183	119,797
142,356	-11,123	257,106	119,574
143,370	-10,851	256,818	119,666
144,385	-10,750	256,586	119,635
145,400	-10,829	256,579	119,553
146,414	-10,860	256,348	119,407
147,429	-10,828	255,938	119,233
148,443	-10,905	255,902	119,139
149,458	-10,880	255,833	119,118
150,473	-10,855	255,530	118,988
151,487	-10,874	255,473	118,934
152,502	-11,099	255,136	118,573
153,516	-10,751	254,845	118,727
154,531	-10,750	254,724	118,660
155,546	-10,877	254,547	118,458
156,560	-10,850	254,508	118,453
157,575	-10,904	254,083	118,199
158,589	-11,094	254,073	118,020
159,604	-10,882	253,632	117,986
160,619	-11,058	253,664	117,840
161,633	-10,890	253,445	117,872
162,648	-10,834	253,320	117,850
163,662	-10,843	253,063	117,713
164,677	-10,628	252,934	117,825
165,692	-10,796	252,869	117,641
166,706	-10,963	252,719	117,419
167,721	-10,934	252,422	117,295
168,735	-10,637	252,166	117,418
169,750	-10,852	252,151	117,218
170,764	-10,918	252,120	117,137
171,779	-10,795	251,955	117,154
172,794	-10,726	251,659	117,065
173,808	-10,737	251,432	116,939
174,823	-11,262	251,246	116,397
175,837	-11,198	250,896	116,279
176,852	-11,166	250,893	116,295
177,867	-10,755	250,856	116,615
178,881	-10,832	250,786	116,507
179,896	-10,868	250,493	116,330
180,910	-10,681	250,103	116,296
181,925	-10,929	249,990	116,024
182,940	-10,969	249,972	115,971
183,954	-11,027	249,824	115,844
184,969	-10,758	249,608	115,960
185,983	-10,942	249,335	115,668
186,998	-10,641	249,420	115,950
188,013	-10,709	249,141	115,753
189,027	-10,712	248,746	115,556
190,042	-10,685	248,853	115,618
191,056	-10,573	248,331	115,459
192,071	-10,777	248,450	115,333
193,086	-10,709	248,065	115,201
194,100	-10,704	247,826	115,084
195,115	-10,712	247,796	115,054
196,129	-10,708	247,518	114,918
197,144	-10,795	247,375	114,768
198,159	-10,947	247,314	114,603
199,173	-10,732	246,960	114,608
200,188	-10,864	246,801	114,414
201,202	-11,088	246,589	114,120
202,217	-11,473	246,407	113,707
203,232	-11,287	246,088	113,703
204,246	-10,873	246,088	114,035
205,261	-10,644	245,867	114,113
206,275	-11,462	245,628	113,316
207,290	-7,230	247,436	117,658
208,304	0,616	249,930	125,402
209,319	4,322	250,758	128,907
210,334	4,644	250,921	129,249
211,348	4,872	250,706	129,317
212,363	5,155	250,529	129,450
213,377	5,111	250,556	129,416
214,392	5,048	250,337	129,238
215,407	4,779	250,176	128,920
216,421	4,737	249,983	128,774
217,436	5,169	249,842	129,049
218,450	5,240	249,723	129,035
219,465	4,704	249,446	128,436
220,480	4,682	249,209	128,283
221,494	4,387	249,102	127,973
222,509	4,651	248,904	128,078
223,523	4,800	248,684	128,077
224,538	4,589	248,303	127,695
225,553	4,548	248,340	127,669
226,567	4,562	248,226	127,610
227,582	4,691	248,045	127,612
228,596	4,504	248,012	127,430
229,611	4,181	247,703	126,993
230,626	4,310	247,545	127,007
231,640	4,324	247,320	126,892
232,655	4,396	247,086	126,820
233,669	4,418	246,972	126,768
234,684	3,997	246,862	126,355
235,699	4,558	246,758	126,750
236,713	4,718	246,636	126,807
237,728	4,426	246,318	126,394
238,742	4,365	246,173	126,258
239,757	4,432	245,873	126,148
240,772	4,201	245,802	125,911
241,786	4,337	245,605	125,911
242,801	4,148	245,582	125,733
243,815	4,353	245,392	125,792
244,830	4,417	245,340	125,805
245,844	4,497	245,167	125,771
246,859	4,206	244,969	125,421
247,874	4,397	244,691	125,424
248,888	4,482	244,575	125,422
249,903	4,439	244,478	125,326
250,917	4,422	244,388	125,255
251,932	4,764	244,161	125,405
252,947	4,536	244,031	125,142
253,961	4,532	243,810	125,015
254,976	4,582	243,579	124,925
255,990	4,534	243,629	124,900
257,005	4,280	243,292	124,512
258,020	4,224	243,119	124,366
259,034	4,324	243,055	124,404
260,049	4,499	242,892	124,450
261,063	4,360	242,711	124,235
262,078	4,232	242,512	124,018
263,093	4,348	242,546	124,118
264,107	4,673	242,288	124,236
265,122	4,286	242,094	123,815
266,136	4,453	242,013	123,897
267,151	4,804	241,898	124,108
268,166	4,580	241,583	123,756
269,180	4,286	241,535	123,485
270,195	4,859	241,427	123,877
271,209	5,034	241,302	123,942
272,224	4,534	240,954	123,353
273,239	4,028	240,806	122,862
274,253	4,038	240,577	122,742
275,268	4,511	240,471	123,054
276,282	4,276	240,581	122,912
277,297	4,059	240,175	122,521
278,312	4,298	239,941	122,581
279,326	4,225	240,004	122,545
280,341	4,377	239,686	122,492
281,355	4,369	239,566	122,413
282,370	4,667	239,484	122,596
283,384	4,169	239,314	122,104
284,399	4,147	239,104	121,968
285,414	4,371	238,885	122,023
286,428	4,281	238,905	121,951
287,443	4,438	238,715	121,967
288,457	4,579	238,654	122,037
289,472	4,465	238,615	121,916
290,487	4,481	238,161	121,686
291,501	4,116	237,957	121,283
292,516	4,100	237,934	121,248
293,530	4,303	237,625	121,239
294,545	4,292	237,819	121,319
295,560	4,521	237,520	121,336
296,574	4,113	237,271	120,878
297,589	4,423	237,161	121,054
298,603	4,613	237,169	121,196
299,618	4,827	236,935	121,233
300,633	4,494	236,859	120,923
301,647	4,461	236,860	120,887
302,662	4,846	236,577	121,032
303,676	4,670	236,526	120,858
304,691	4,574	236,319	120,666
305,706	4,750	236,287	120,777
306,720	4,878	235,999	120,718
307,735	4,671	235,814	120,452
308,749	4,436	235,594	120,145
309,764	4,293	235,341	119,895
310,779	4,170	235,100	119,666
311,793	3,969	234,850	119,373
312,808	4,051	234,814	119,406
313,822	4,134	234,649	119,377
314,837	4,024	234,598	119,255
315,852	3,960	234,300	119,043
316,866	4,245	234,364	119,286
317,881	4,453	234,215	119,360
318,895	4,300	233,973	119,108
319,910	4,356	234,061	119,185
320,925	4,406	233,637	118,998
321,939	4,342	233,630	118,934
322,954	4,644	233,525	119,102
323,968	4,591	233,426	119,000
324,983	4,466	233,324	118,841
325,997	4,762	233,253	119,022
327,012	4,740	232,918	118,824
328,027	4,405	232,815	118,504
329,041	4,599	232,841	118,655
330,056	5,205	232,719	119,047
331,070	5,256	232,562	118,996
332,085	4,566	232,277	118,311
333,100	4,412	232,075	118,080
334,114	4,542	231,889	118,074
335,129	5,050	231,584	118,296
336,143	4,808	231,659	118,139
337,158	4,843	231,547	118,098
338,173	4,408	231,312	117,636
339,187	4,104	231,074	117,273
340,202	4,561	230,956	117,551
341,216	4,667	230,831	117,557
342,231	4,529	230,621	117,335
343,246	4,385	230,593	117,200
344,260	4,396	230,428	117,114
345,275	4,717	230,411	117,339
346,289	4,756	230,235	117,269
347,304	4,730	230,049	117,143
348,319	4,737	229,944	117,085
349,333	4,587	229,631	116,801
350,348	4,417	229,628	116,661
351,362	4,502	229,383	116,591
352,377	4,384	229,162	116,379
353,392	4,185	229,008	116,140
354,406	4,215	228,945	116,120
355,421	195,170	1319,619	1394,097
356,435	156,530	1452,468	1394,064
