DTS Sentinel unit serial number:	SN410029Multiplexer serial number:	ORYXHardware model number:	OX2-SRSoftware version number:	ORYX F/W v4,00 Oryx Data Collector v3.7.2.0data status	okinstallation	B5 Nyhavnadifferential loss correction	single-endedforward channel	channel 2reverse channel	N/Adate	2023/12/14time	07:57:13forward acquisition time	300,00reverse acquisition time	0,00gamma	499,1914k internal	0,3160k external	0,3160temperature offset calibration	1,0000default loss term (dB/km)	0,3820temperature slope calibration	1,0000multiplexer offset coefficient	1,0000multiplexer slope coefficient	1,0000fibre end	0,00T internal ref (°C)	7,06T ext. ref 1 (°C)	-9,22T ext. ref 2 (°C)	-9,29length (m)	temperature (°C)	Stokes	anti-Stokes-744,400	-157,834	0,211	-0,009
-743,385	-16,382	-0,273	-0,127
-742,371	-66,132	0,211	0,062
-741,356	-141,479	-0,393	0,029
-740,342	90,705	0,166	0,137
-739,327	-181,367	-0,448	-0,006
-738,312	12,977	0,209	0,119
-737,298	-80,467	-0,432	-0,105
-736,283	252,733	0,147	0,185
-735,269	31,588	-0,328	-0,208
-734,254	59,079	0,255	0,184
-733,239	3,102	-0,465	-0,248
-732,225	338,078	0,076	0,110
-731,210	102,850	0,075	0,064
-730,196	-43,129	-0,135	0,050
-729,181	92,646	-0,083	0,069
-728,167	-200,000	0,010	-0,050
-727,152	34,176	0,052	-0,034
-726,137	800,000	-0,044	-0,125
-725,123	255,967	-0,039	-0,050
-724,108	-200,000	-0,019	-0,113
-723,094	87,692	-0,090	-0,073
-722,079	-138,502	0,107	0,009
-721,064	-35,462	0,197	-0,078
-720,050	229,992	0,005	-0,006
-719,035	19,020	-0,106	-0,062
-718,021	800,000	-0,041	-0,087
-717,006	739,452	0,037	-0,073
-715,991	800,000	-0,038	-0,085
-714,977	-58,637	-0,172	-0,054
-713,962	17,686	0,105	-0,061
-712,948	329,360	0,075	0,107
-711,933	-200,000	-0,036	-0,134
-710,918	800,000	0,068	-0,191
-709,904	22,493	-0,154	-0,093
-708,889	-200,000	0,020	-0,065
-707,875	800,000	-0,080	-0,240
-706,860	800,000	-0,027	0,069
-705,845	73,450	-0,072	-0,055
-704,831	-126,325	-0,083	0,009
-703,816	579,904	-0,041	-0,074
-702,802	153,286	0,051	0,052
-701,787	-141,801	-0,058	0,004
-700,772	397,751	0,078	0,120
-699,758	-56,481	0,076	0,025
-698,743	-200,000	0,015	-0,048
-697,729	-40,824	-0,156	0,059
-696,714	800,000	0,009	0,026
-695,699	-200,000	-0,020	0,091
-694,685	-3,114	-0,139	-0,071
-693,670	0,752	-0,040	0,021
-692,656	28,768	-0,086	0,053
-691,641	169,017	-0,015	-0,016
-690,627	406,464	0,073	-0,114
-689,612	278,498	0,043	-0,056
-688,597	-112,460	-0,165	-0,024
-687,583	562,459	-0,104	-0,186
-686,568	-200,000	-0,010	0,063
-685,554	387,645	-0,038	0,057
-684,539	-14,516	0,052	0,025
-683,524	-200,000	-0,020	-0,098
-682,510	-179,201	-0,018	-0,000
-681,495	163,905	-0,236	-0,244
-680,481	800,000	-0,022	0,060
-679,466	-121,989	-0,059	0,007
-678,451	2,480	0,025	0,013
-677,437	117,760	-0,047	-0,042
-676,422	-103,158	0,072	-0,012
-675,408	-122,402	-0,108	0,013
-674,393	-73,941	-0,090	0,024
-673,378	53,110	-0,099	-0,070
-672,364	-93,808	0,083	-0,017
-671,349	-48,632	0,024	-0,008
-670,335	-108,504	0,043	0,007
-669,320	357,971	0,052	0,077
-668,305	800,000	0,039	-0,081
-667,291	176,954	0,018	0,020
-666,276	-200,000	0,003	-0,061
-665,262	-156,516	-0,154	0,007
-664,247	-200,000	0,012	-0,063
-663,232	13,181	-0,049	0,028
-662,218	-200,000	0,006	0,126
-661,203	-200,000	-0,049	0,167
-660,189	800,000	0,022	-0,062
-659,174	208,030	-0,058	-0,067
-658,159	-138,588	-0,198	-0,016
-657,145	194,264	0,031	-0,035
-656,130	800,000	0,038	-0,122
-655,116	187,649	-0,080	-0,088
-654,101	-95,913	0,056	-0,011
-653,086	800,000	-0,044	-0,139
-652,072	-188,465	-0,068	-0,001
-651,057	800,000	0,038	-0,079
-650,043	-200,000	-0,004	0,020
-649,028	-162,689	-0,119	0,004
-648,014	-200,000	-0,021	-0,085
-646,999	100,964	-0,088	0,075
-645,984	171,083	0,044	-0,046
-644,970	800,000	-0,040	-0,105
-643,955	311,587	0,007	-0,010
-642,941	-200,000	0,018	-0,063
-641,926	-200,000	-0,000	-0,143
-640,911	-168,475	0,075	0,002
-639,897	800,000	-0,013	-0,042
-638,882	51,383	-0,023	0,016
-637,868	800,000	-0,039	-0,110
-636,853	-200,000	-0,011	-0,042
-635,838	338,493	-0,043	-0,062
-634,824	-0,040	-0,112	0,058
-633,809	-103,717	-0,064	-0,011
-632,795	-116,443	-0,127	-0,017
-631,780	205,789	-0,068	0,077
-630,765	711,860	-0,066	-0,129
-629,751	800,000	-0,045	-0,112
-628,736	-200,000	-0,002	0,013
-627,722	328,040	0,037	0,052
-626,707	-114,260	0,145	-0,020
-625,692	443,462	-0,034	0,055
-624,678	180,020	-0,043	-0,046
-623,663	-93,790	-0,069	0,014
-622,649	241,017	-0,021	-0,026
-621,634	-73,032	0,134	-0,036
-620,619	62,905	-0,044	-0,033
-619,605	-200,000	0,004	0,054
-618,590	800,000	0,015	0,039
-617,576	9,613	0,095	0,053
-616,561	-37,783	-0,085	-0,033
-615,546	520,076	-0,050	-0,086
-614,532	88,306	-0,125	-0,102
-613,517	135,471	-0,056	0,053
-612,503	-200,000	-0,002	0,028
-611,488	-200,000	-0,006	0,025
-610,474	183,323	-0,030	0,032
-609,459	-64,090	-0,125	-0,037
-608,444	-122,971	-0,072	0,008
-607,430	-74,436	-0,081	0,021
-606,415	-200,000	-0,006	0,050
-605,401	267,233	0,055	0,070
-604,386	461,663	-0,021	0,034
-603,371	278,599	-0,087	0,114
-602,357	-67,433	0,059	-0,017
-601,342	-122,548	-0,115	-0,014
-600,328	381,133	-0,058	-0,088
-599,313	29,466	-0,155	0,096
-598,298	60,649	-0,056	0,040
-597,284	162,454	0,102	-0,105
-596,269	92,595	0,040	0,033
-595,255	15,597	0,075	-0,043
-594,240	-200,000	0,008	-0,090
-593,225	-200,000	0,025	-0,110
-592,211	-200,000	0,011	0,055
-591,196	113,766	0,040	0,035
-590,182	188,232	0,084	-0,092
-589,167	87,781	-0,044	-0,035
-588,152	800,000	0,014	0,040
-587,138	-52,862	-0,106	0,036
-586,123	-8,301	0,079	-0,039
-585,109	-200,000	-0,037	-0,122
-584,094	-119,959	-0,083	-0,010
-583,079	800,000	-0,069	-0,174
-582,065	-56,743	-0,105	-0,034
-581,050	-94,776	0,164	0,032
-580,036	43,450	0,043	-0,029
-579,021	-200,000	-0,017	-0,109
-578,006	15,408	0,058	-0,033
-576,992	-81,316	-0,076	0,018
-575,977	132,448	0,098	0,093
-574,963	321,001	-0,053	0,074
-573,948	-104,673	-0,028	0,005
-572,934	-161,789	-0,085	-0,003
-571,919	-138,624	0,156	0,012
-570,904	-107,523	-0,075	-0,012
-569,890	-77,279	-0,156	0,039
-568,875	-86,358	0,130	-0,029
-567,861	-200,000	0,012	-0,096
-566,846	146,119	-0,035	0,035
-565,831	304,786	0,101	0,138
-564,817	452,637	0,076	0,123
-563,802	5,138	-0,148	-0,079
-562,788	87,219	-0,042	0,034
-561,773	287,831	0,068	-0,091
-560,758	-74,111	-0,017	0,005
-559,744	-111,856	0,152	-0,022
-558,729	297,446	0,057	0,076
-557,715	800,000	0,030	-0,065
-556,700	-137,270	-0,069	0,006
-555,685	-200,000	0,002	-0,057
-554,671	800,000	0,028	-0,074
-553,656	-200,000	-0,009	-0,061
-552,642	800,000	0,027	0,082
-551,627	764,237	-0,046	-0,093
-550,612	-39,336	-0,170	0,065
-549,598	86,242	-0,016	0,013
-548,583	800,000	-0,053	-0,112
-547,569	148,478	0,055	0,054
-546,554	8,668	0,084	-0,046
-545,539	328,769	0,024	0,034
-544,525	-200,000	-0,002	0,047
-543,510	800,000	-0,039	-0,115
-542,496	-200,000	-0,026	-0,096
-541,481	-176,906	-0,036	-0,001
-540,466	-200,000	-0,012	0,040
-539,452	-97,121	0,087	0,016
-538,437	-36,073	-0,060	0,023
-537,423	800,000	0,021	-0,049
-536,408	748,977	-0,037	-0,073
-535,393	4,590	-0,124	-0,066
-534,379	327,418	-0,011	0,016
-533,364	-50,366	-0,041	0,014
-532,350	363,061	-0,020	-0,029
-531,335	-154,564	0,140	0,007
-530,321	126,504	0,019	-0,018
-529,306	-87,997	0,104	0,023
-528,291	-14,448	-0,108	0,051
-527,277	50,135	-0,177	0,122
-526,262	61,203	0,056	-0,040
-525,248	800,000	0,078	0,162
-524,233	-200,000	-0,011	-0,054
-523,218	-81,906	0,078	-0,019
-522,204	488,715	0,029	-0,048
-521,189	147,861	-0,088	-0,087
-520,175	88,940	-0,108	0,088
-519,160	-77,545	-0,143	-0,036
-518,145	399,447	-0,055	-0,084
-517,131	-200,000	0,026	0,087
-516,116	376,423	0,076	0,114
-515,102	-70,495	0,194	0,053
-514,087	157,341	-0,053	-0,053
-513,072	123,275	-0,061	-0,056
-512,058	183,922	0,071	-0,077
-511,043	-200,000	0,005	0,020
-510,029	-200,000	-0,005	0,124
-509,014	125,173	0,060	-0,055
-507,999	168,970	-0,106	-0,110
-506,985	-106,278	-0,114	0,018
-505,970	-177,722	0,040	0,001
-504,956	-163,061	-0,040	-0,001
-503,941	-200,000	0,015	0,054
-502,926	109,397	0,125	0,109
-501,912	-98,341	0,094	-0,017
-500,897	693,551	-0,057	0,110
-499,883	419,424	0,076	0,120
-498,868	155,851	-0,034	-0,034
-497,853	9,875	0,021	0,011
-496,839	70,190	-0,005	0,004
-495,824	281,316	-0,119	0,155
-494,810	778,885	0,065	-0,130
-493,795	53,958	0,158	0,110
-492,781	-82,214	-0,107	-0,025
-491,766	3,265	-0,188	-0,099
-490,751	595,555	-0,041	0,074
-489,737	23,840	0,072	0,043
-488,722	-100,461	0,139	0,025
-487,708	17,691	-0,023	0,013
-486,693	272,384	-0,027	0,035
-485,678	155,699	0,073	-0,074
-484,664	72,216	-0,086	0,066
-483,649	-200,000	0,005	-0,127
-482,635	-49,556	-0,067	0,023
-481,620	800,000	0,002	0,005
-480,605	800,000	-0,023	-0,048
-479,591	430,031	-0,029	0,046
-478,576	-200,000	0,016	0,106
-477,562	-112,900	-0,106	-0,015
-476,547	309,828	-0,069	-0,094
-475,532	602,509	0,060	-0,108
-474,518	-200,000	0,002	-0,087
-473,503	-16,914	0,110	0,051
-472,489	147,745	0,019	0,019
-471,474	-76,963	-0,142	0,036
-470,459	-13,454	-0,091	-0,043
-469,445	800,000	-0,061	-0,130
-468,430	-200,000	0,008	-0,121
-467,416	-200,000	0,003	-0,100
-466,401	185,252	0,084	-0,091
-465,386	800,000	0,035	0,099
-464,372	419,846	0,040	0,063
-463,357	-200,000	-0,029	-0,143
-462,343	800,000	-0,014	-0,032
-461,328	310,007	0,068	-0,093
-460,313	277,511	-0,030	0,039
-459,299	-44,079	0,113	0,041
-458,284	-83,789	0,057	-0,013
-457,270	7,306	-0,087	0,047
-456,255	710,670	-0,010	0,019
-455,241	-125,946	0,031	0,003
-454,226	-16,157	0,115	0,053
-453,211	-103,161	0,066	0,011
-452,197	139,084	-0,054	0,052
-451,182	346,967	0,073	0,105
-450,168	-78,571	-0,021	-0,005
-449,153	339,356	0,039	0,055
-448,138	70,954	-0,169	-0,128
-447,124	-200,000	0,001	0,021
-446,109	26,053	0,123	0,075
-445,095	142,816	0,066	-0,064
-444,080	-60,065	0,031	0,010
-443,065	778,478	-0,038	0,076
-442,051	-200,000	0,004	0,033
-441,036	39,840	-0,029	-0,019
-440,022	70,316	-0,061	0,046
-439,007	102,774	-0,043	0,037
-437,992	482,830	0,029	-0,049
-436,978	-200,000	0,006	-0,021
-435,963	-200,000	-0,009	0,077
-434,949	8,705	-0,093	-0,051
-433,934	195,097	0,023	0,026
-432,919	800,000	-0,040	-0,089
-431,905	349,008	-0,024	-0,034
-430,890	-60,945	0,044	0,013
-429,876	-200,000	-0,006	0,020
-428,861	-200,000	-0,007	0,077
-427,846	186,201	0,015	-0,017
-426,832	475,914	0,054	0,090
-425,817	-200,000	-0,007	0,046
-424,803	-200,000	-0,014	0,063
-423,788	-200,000	-0,014	0,049
-422,773	77,160	0,067	0,052
-421,759	323,343	-0,041	-0,057
-420,744	-102,528	-0,065	0,011
-419,730	800,000	-0,039	0,106
-418,715	258,079	-0,067	0,084
-417,701	-13,789	0,121	-0,057
-416,686	800,000	0,053	-0,131
-415,671	-200,000	-0,018	0,082
-414,657	-106,349	0,036	-0,006
-413,642	-8,958	0,093	-0,045
-412,628	-34,113	-0,064	-0,025
-411,613	-200,000	-0,004	-0,081
-410,598	800,000	0,021	-0,044
-409,584	-51,432	0,091	-0,031
-408,569	-200,000	0,025	0,121
-407,555	-200,000	-0,024	0,090
-406,540	-200,000	-0,002	0,035
-405,525	-15,809	0,042	-0,020
-404,511	-103,947	0,048	0,008
-403,496	-200,000	-0,000	-0,042
-402,482	-200,000	0,012	0,135
-401,467	3,137	0,098	0,052
-400,452	334,446	0,083	0,117
-399,438	800,000	-0,024	0,050
-398,423	479,417	-0,111	-0,184
-397,409	-8,979	-0,163	-0,079
-396,394	40,160	-0,132	-0,086
-395,379	-200,000	-0,001	-0,028
-394,365	-129,187	-0,091	-0,009
-393,350	-200,000	-0,028	0,093
-392,336	-200,000	-0,005	-0,178
-391,321	-200,000	-0,013	-0,091
-390,306	37,975	0,007	0,005
-389,292	-200,000	-0,016	-0,053
-388,277	189,527	-0,038	0,042
-387,263	128,820	0,005	-0,004
-386,248	-84,746	0,074	-0,017
-385,233	133,545	-0,095	0,090
-384,219	800,000	-0,011	-0,030
-383,204	-153,849	0,068	-0,003
-382,190	-200,000	-0,012	-0,058
-381,175	-200,000	-0,032	-0,107
-380,160	198,443	0,043	0,047
-379,146	-146,344	0,076	0,005
-378,131	109,417	-0,031	0,027
-377,117	167,983	0,038	0,039
-376,102	-200,000	0,011	-0,084
-375,088	-165,225	-0,096	-0,003
-374,073	-171,886	0,067	0,002
-373,058	-137,959	0,053	0,004
-372,044	-200,000	-0,035	0,123
-371,029	10,897	0,081	-0,045
-370,015	549,762	-0,036	-0,063
-369,000	-200,000	-0,006	-0,171
-367,985	-200,000	-0,005	-0,067
-366,971	-200,000	-0,006	0,033
-365,956	666,757	-0,021	-0,040
-364,942	800,000	-0,023	-0,058
-363,927	-77,031	0,067	-0,017
-362,912	-200,000	0,008	0,111
-361,898	225,171	0,046	0,054
-360,883	-200,000	0,012	-0,045
-359,869	-200,000	-0,009	0,041
-358,854	38,822	-0,047	0,030
-357,839	-20,485	0,110	0,049
-356,825	199,495	-0,034	0,038
-355,810	-90,929	0,053	-0,011
-354,796	-145,919	-0,104	0,007
-353,781	184,867	0,023	-0,025
-352,766	-66,532	0,065	-0,019
-351,752	-200,000	0,004	-0,039
-350,737	253,271	0,052	0,065
-349,723	-200,000	0,002	0,133
-348,708	-200,000	-0,006	0,036
-347,693	74,289	-0,076	0,058
-346,679	800,000	-0,035	0,108
-345,664	3,995	-0,085	0,045
-344,650	78,827	0,077	-0,059
-343,635	402,691	0,113	0,173
-342,620	121,856	-0,026	-0,024
-341,606	-47,345	0,106	0,037
-340,591	435,504	-0,046	0,073
-339,577	246,643	-0,061	0,075
-338,562	-22,937	-0,120	0,052
-337,548	800,000	0,030	0,086
-336,533	384,192	0,068	0,103
-335,518	-128,693	0,082	0,008
-334,504	131,398	0,080	0,074
-333,489	800,000	0,043	-0,129
-332,475	-200,000	-0,020	-0,127
-331,460	800,000	-0,085	-0,191
-330,445	53,060	0,063	0,044
-329,431	-200,000	0,046	0,154
-328,416	800,000	0,052	0,121
-327,402	409,848	-0,031	0,047
-326,387	-55,622	-0,123	0,040
-325,372	136,061	0,054	0,051
-324,358	672,265	-0,060	-0,114
-323,343	-200,000	0,012	-0,165
-322,329	69,786	0,049	-0,037
-321,314	-200,000	-0,015	-0,052
-320,299	-115,971	-0,109	0,015
-319,285	-84,691	0,239	0,054
-318,270	-117,107	-0,033	0,004
-317,256	24,638	-0,007	-0,004
-316,241	371,305	-0,048	-0,071
-315,226	405,784	0,022	-0,034
-314,212	78,155	-0,116	-0,090
-313,197	1,985	-0,048	-0,025
-312,183	10,958	0,187	0,103
-311,168	-51,875	-0,133	-0,045
-310,153	97,530	-0,116	-0,097
-309,139	188,767	0,042	0,046
-308,124	186,941	0,106	0,114
-307,110	-200,000	0,004	0,087
-306,095	-200,000	0,020	0,070
-305,080	-153,624	-0,188	0,009
-304,066	133,244	-0,117	-0,109
-303,051	800,000	0,045	-0,101
-302,037	197,392	0,026	0,029
-301,022	-64,110	0,021	-0,006
-300,008	-128,594	0,107	0,011
-298,993	104,608	0,046	-0,039
-297,978	73,281	0,092	0,070
-296,964	-66,148	-0,117	0,033
-295,949	-119,748	-0,073	0,009
-294,935	378,161	0,075	-0,111
-293,920	128,287	0,047	0,043
-292,905	-75,042	0,159	-0,041
-291,891	800,000	0,056	0,116
-290,876	-200,000	-0,005	0,070
-289,862	66,483	0,159	-0,117
-288,847	41,197	-0,058	0,038
-287,832	158,266	0,019	-0,019
-286,818	800,000	0,031	-0,094
-285,803	197,148	-0,081	-0,089
-284,789	-38,495	-0,027	0,010
-283,774	51,904	0,015	0,010
-282,759	74,401	-0,105	0,080
-281,745	178,314	-0,068	-0,072
-280,730	12,561	0,043	-0,024
-279,716	-110,580	0,053	-0,008
-278,701	-110,554	0,159	0,024
-277,686	167,706	0,036	-0,037
-276,672	800,000	0,037	0,091
-275,657	179,251	0,065	0,069
-274,643	800,000	-0,020	0,050
-273,628	434,257	-0,096	-0,151
-272,613	800,000	0,042	0,093
-271,599	-200,000	-0,005	0,062
-270,584	70,950	0,059	-0,044
-269,570	5,845	-0,050	-0,027
-268,555	746,503	0,046	-0,089
-267,540	51,966	-0,066	0,045
-266,526	1,097	-0,044	-0,023
-265,511	90,359	-0,069	-0,056
-264,497	30,544	-0,049	0,030
-263,482	91,226	-0,095	0,077
-262,467	-129,538	0,154	-0,015
-261,453	25,978	-0,085	0,051
-260,438	262,170	0,031	-0,039
-259,424	384,736	-0,047	0,070
-258,409	-200,000	-0,015	-0,049
-257,395	800,000	0,021	-0,046
-256,380	-73,706	0,138	-0,036
-255,365	800,000	0,125	0,298
-254,351	-200,000	-0,049	0,172
-253,336	34,925	-0,163	-0,103
-252,322	6,643	-0,150	-0,081
-251,307	800,000	0,042	0,087
-250,292	-146,898	-0,070	-0,004
-249,278	-59,023	-0,165	0,051
-248,263	800,000	0,054	0,116
-247,249	-200,000	-0,004	0,181
-246,234	800,000	0,043	-0,125
-245,219	-115,087	0,018	0,002
-244,205	-68,489	0,053	-0,015
-243,190	111,586	-0,067	0,059
-242,176	-200,000	-0,006	0,031
-241,161	19,671	0,061	0,036
-240,146	800,000	0,087	0,194
-239,132	-42,982	0,039	-0,014
-238,117	116,975	-0,056	-0,050
-237,103	-200,000	0,007	0,027
-236,088	-49,006	0,149	-0,051
-235,073	297,044	0,017	0,023
-234,059	223,978	0,070	0,082
-233,044	-200,000	0,015	-0,080
-232,030	405,631	-0,013	-0,020
-231,015	428,402	-0,076	-0,119
-230,000	-200,000	-0,017	-0,053
-228,986	23,525	0,094	0,056
-227,971	-200,000	0,018	0,066
-226,957	-46,696	0,122	0,043
-225,942	-86,762	0,026	0,006
-224,927	37,218	-0,015	-0,010
-223,913	-200,000	-0,010	-0,162
-222,898	-62,597	0,070	0,021
-221,884	-30,038	-0,187	-0,076
-220,869	49,349	-0,019	-0,013
-219,855	800,000	-0,036	0,114
-218,840	-100,820	-0,180	-0,032
-217,825	-62,836	-0,064	0,019
-216,811	186,181	-0,020	0,022
-215,796	-200,000	-0,038	-0,136
-214,782	368,181	-0,055	-0,081
-213,767	87,456	0,065	0,052
-212,752	-76,354	0,221	-0,056
-211,738	-163,451	0,056	0,002
-210,723	-200,000	-0,007	-0,172
-209,709	370,201	0,016	0,023
-208,694	-167,342	-0,046	0,001
-207,679	-200,000	0,008	-0,086
-206,665	293,153	0,031	0,041
-205,650	-200,000	0,012	0,082
-204,636	-200,000	-0,044	0,149
-203,621	32,626	0,103	0,064
-202,606	201,167	0,116	-0,129
-201,592	126,033	-0,110	-0,100
-200,577	-126,586	-0,186	-0,020
-199,563	-78,691	0,070	0,017
-198,548	800,000	0,024	-0,063
-197,533	-103,421	0,138	0,023
-196,519	15,938	0,079	0,045
-195,504	656,675	-0,033	-0,061
-194,490	800,000	0,058	-0,119
-193,475	0,721	0,050	-0,026
-192,460	-70,987	0,075	0,020
-191,446	17,411	-0,072	0,041
-190,431	206,976	0,038	0,043
-189,417	9,438	0,063	-0,034
-188,402	-4,438	-0,017	-0,008
-187,387	-96,281	-0,244	0,046
-186,373	27,413	0,051	0,031
-185,358	-37,377	0,094	0,036
-184,344	303,123	0,031	-0,041
-183,329	228,494	0,093	0,110
-182,315	-200,000	-0,005	-0,032
-181,300	-200,000	0,002	-0,010
-180,285	-162,473	0,133	-0,005
-179,271	-200,000	0,016	0,077
-178,256	-200,000	0,005	0,020
-177,242	-200,000	-0,018	0,070
-176,227	800,000	0,050	-0,125
-175,212	-200,000	0,005	-0,035
-174,198	-134,341	0,174	-0,015
-173,183	7,681	-0,094	0,050
-172,169	-62,229	-0,080	0,024
-171,154	-81,461	0,021	-0,005
-170,139	-13,258	0,073	-0,034
-169,125	538,762	-0,001	-0,001
-168,110	124,463	-0,120	0,109
-167,096	800,000	0,017	0,047
-166,081	800,000	-0,017	0,043
-165,066	-20,200	-0,109	-0,048
-164,052	-200,000	0,006	0,023
-163,037	415,993	0,034	-0,052
-162,023	-111,227	0,061	-0,009
-161,008	-106,833	0,145	-0,023
-159,993	800,000	0,058	0,130
-158,979	240,681	0,097	0,117
-157,964	-200,000	0,036	-0,167
-156,950	11,367	0,001	-0,001
-155,935	-43,708	0,094	0,034
-154,920	160,381	0,053	0,053
-153,906	641,577	0,075	0,139
-152,891	35,623	-0,185	-0,117
-151,877	223,730	-0,072	-0,084
-150,862	-200,000	-0,002	0,057
-149,847	0,856	-0,096	-0,049
-148,833	800,000	0,042	-0,116
-147,818	-34,470	0,059	-0,023
-146,804	-200,000	-0,012	0,076
-145,789	186,634	-0,107	0,114
-144,775	-61,806	-0,069	-0,021
-143,760	-200,000	0,000	0,117
-142,745	-19,910	-0,067	-0,030
-141,731	-200,000	-0,014	-0,055
-140,716	-200,000	0,002	-0,035
-139,702	199,846	0,065	0,072
-138,687	216,008	0,021	0,024
-137,672	-132,779	-0,119	-0,011
-136,658	787,641	-0,047	-0,093
-135,643	5,396	0,088	-0,047
-134,629	800,000	0,009	-0,023
-133,614	197,828	-0,078	0,086
-132,599	251,467	-0,063	0,077
-131,585	-200,000	-0,048	0,224
-130,570	-67,601	0,085	-0,024
-129,556	-96,515	-0,033	-0,006
-128,541	-200,000	-0,036	-0,158
-127,526	293,656	0,056	-0,074
-126,512	104,961	-0,025	-0,021
-125,497	44,704	-0,089	0,059
-124,483	37,271	-0,101	-0,064
-123,468	-200,000	-0,048	0,203
-122,453	-88,782	-0,077	-0,016
-121,439	64,295	0,062	-0,045
-120,424	612,596	-0,020	-0,036
-119,410	740,080	0,051	-0,098
-118,395	800,000	0,032	0,102
-117,380	25,651	-0,034	0,020
-116,366	-27,940	0,050	-0,021
-115,351	-106,043	0,149	0,024
-114,337	-200,000	-0,011	-0,138
-113,322	-52,666	-0,059	0,020
-112,307	693,973	0,082	0,155
-111,293	-200,000	0,004	0,054
-110,278	171,079	0,050	-0,052
-109,264	13,720	0,087	0,049
-108,249	-200,000	-0,002	-0,019
-107,234	188,320	0,058	-0,063
-106,220	800,000	-0,028	0,071
-105,205	335,442	0,053	-0,074
-104,191	-142,922	-0,024	0,002
-103,176	-200,000	0,014	-0,089
-102,162	201,537	0,057	0,064
-101,147	20,271	0,061	-0,035
-100,132	-123,869	-0,186	0,021
-99,118	-163,519	0,045	-0,002
-98,103	-200,000	-0,010	-0,060
-97,089	800,000	0,047	-0,118
-96,074	-200,000	-0,052	0,192
-95,059	800,000	0,035	0,106
-94,045	-64,501	-0,027	0,008
-93,030	236,529	-0,017	0,020
-92,016	185,103	-0,073	0,078
-91,001	-200,000	-0,032	-0,117
-89,986	-200,000	0,010	0,096
-88,972	-127,742	-0,080	0,008
-87,957	-137,792	0,045	0,004
-86,943	709,724	-0,050	0,096
-85,928	409,096	-0,093	-0,142
-84,913	-76,492	-0,050	-0,012
-83,899	800,000	-0,059	-0,129
-82,884	16,211	0,060	0,034
-81,870	43,692	0,020	-0,013
-80,855	192,845	0,024	-0,026
-79,840	-45,772	0,086	0,030
-78,826	-67,805	-0,032	-0,009
-77,811	-15,613	0,082	0,037
-76,797	-200,000	0,022	-0,146
-75,782	-99,484	0,010	-0,002
-74,767	-181,981	0,048	-0,001
-73,753	440,515	0,069	-0,109
-72,738	-200,000	0,013	-0,064
-71,724	43,293	-0,118	-0,077
-70,709	-35,080	-0,103	-0,040
-69,694	425,135	-0,036	0,055
-68,680	-154,181	-0,043	-0,002
-67,665	-200,000	-0,011	-0,099
-66,651	800,000	0,016	0,044
-65,636	275,576	-0,049	-0,063
-64,622	175,626	-0,083	-0,087
-63,607	-46,871	-0,021	0,007
-62,592	-13,647	-0,068	-0,032
-61,578	-98,784	0,067	0,012
-60,563	349,516	-0,031	0,044
-59,549	-200,000	-0,079	0,289
-58,534	94,698	-2,825	-2,303
-57,519	-112,819	0,623	-0,088
-56,505	800,000	-1,729	-5,462
-55,490	514,653	1,267	2,130
-54,476	800,000	5,240	11,270
-53,461	-200,000	22,916	347,372
-52,446	800,000	765,188	2263,228
-51,432	497,260	1643,193	2721,731
-50,417	93,254	1599,627	1296,806
-49,403	60,978	1254,891	891,848
-48,388	21,159	1006,819	584,564
-47,373	18,349	974,837	556,794
-46,359	11,895	961,621	528,335
-45,344	7,727	958,401	513,038
-44,330	8,109	956,113	513,029
-43,315	7,173	954,372	509,051
-42,300	7,121	953,334	508,310
-41,286	7,087	952,454	507,709
-40,271	7,137	951,331	507,250
-39,257	7,112	950,703	506,816
-38,242	7,068	949,854	506,200
-37,227	7,094	949,012	505,818
-36,213	7,071	948,058	505,214
-35,198	7,004	947,355	504,605
-34,184	7,129	946,371	504,462
-33,169	7,057	945,617	503,807
-32,154	7,111	944,743	503,496
-31,140	7,097	943,938	503,003
-30,125	7,154	943,226	502,785
-29,111	7,107	942,292	502,115
-28,096	7,106	941,746	501,801
-27,082	7,157	941,030	501,564
-26,067	7,110	940,344	501,028
-25,052	7,046	939,579	500,398
-24,038	7,111	938,721	500,126
-23,023	7,057	938,194	499,656
-22,009	7,154	937,479	499,561
-20,994	7,097	936,977	499,093
-19,979	7,087	936,435	498,753
-18,965	7,058	935,753	498,278
-17,950	7,139	935,099	498,169
-16,936	7,047	934,273	497,418
-15,921	7,096	933,808	497,303
-14,906	6,993	933,171	496,621
-13,892	6,982	932,610	496,268
-12,877	6,943	931,988	495,794
-11,863	6,943	931,372	495,446
-10,848	6,994	930,758	495,259
-9,833	7,080	930,260	495,248
-8,819	6,996	929,739	494,685
-7,804	7,017	928,844	494,255
-6,790	6,967	928,319	493,800
-5,775	7,074	927,923	493,905
-4,760	7,099	927,091	493,521
-3,746	6,966	926,793	492,926
-2,731	6,876	925,861	492,128
-1,717	6,788	925,423	491,602
-0,702	6,859	924,563	491,346
0,313	6,694	923,938	491,239
1,327	10,122	921,504	500,592
2,342	18,655	770,520	440,669
3,356	13,626	442,500	245,569
4,371	-12,259	309,450	144,479
5,386	-16,021	292,155	132,627
6,400	-18,118	286,237	127,871
7,415	-18,210	283,514	126,554
8,429	-18,938	281,665	125,015
9,444	-19,120	280,812	124,449
10,459	-18,889	280,217	124,397
11,473	-19,169	279,659	123,870
12,488	-18,949	279,294	123,907
13,502	-18,882	278,734	123,712
14,517	-18,957	278,367	123,467
15,531	-18,921	277,875	123,271
16,546	-18,936	277,565	123,109
17,561	-18,822	276,946	122,931
18,575	-18,796	276,765	122,865
19,590	-18,945	276,384	122,543
20,604	-18,894	275,993	122,407
21,619	-18,851	275,730	122,321
22,634	-18,797	275,306	122,173
23,648	-19,001	275,174	121,911
24,663	-18,686	274,720	121,995
25,677	-18,872	274,727	121,812
26,692	-18,724	274,210	121,711
27,707	-18,771	274,039	121,581
28,721	-18,727	273,721	121,470
29,736	-18,904	273,542	121,214
30,750	-18,719	273,322	121,278
31,765	-18,789	272,876	121,005
32,780	-18,734	272,661	120,949
33,794	-18,864	272,426	120,714
34,809	-18,834	272,295	120,672
35,823	-18,709	271,993	120,645
36,838	-18,805	271,722	120,424
37,853	-18,957	271,599	120,218
38,867	-18,777	271,196	120,195
39,882	-18,685	270,984	120,176
40,896	-18,825	270,805	119,957
41,911	-18,689	270,607	119,983
42,926	-18,811	270,404	119,770
43,940	-18,880	270,033	119,531
44,955	-18,814	269,779	119,469
45,969	-18,778	269,565	119,398
46,984	-18,635	269,429	119,458
47,999	-18,677	269,247	119,328
49,013	-18,673	268,981	119,203
50,028	-18,561	268,796	119,213
51,042	-18,666	268,582	119,012
52,057	-18,592	268,457	119,013
53,071	-18,462	268,093	118,960
54,086	-18,578	267,801	118,714
55,101	-18,579	267,690	118,654
56,115	-18,679	267,515	118,474
57,130	-18,717	267,089	118,240
58,144	-18,808	266,701	117,974
59,159	-18,762	266,602	117,962
60,174	-18,823	266,299	117,763
61,188	-18,869	266,247	117,687
62,203	-18,822	266,112	117,659
63,217	-18,721	265,705	117,560
64,232	-18,668	265,449	117,485
65,247	-18,655	265,148	117,353
66,261	-18,784	265,028	117,173
67,276	-18,712	264,744	117,102
68,290	-18,596	264,590	117,127
69,305	-18,680	264,440	116,975
70,320	-18,688	264,239	116,868
71,334	-18,687	263,971	116,740
72,349	-18,805	263,659	116,487
73,363	-18,632	263,469	116,548
74,378	-18,767	263,204	116,298
75,393	-18,678	263,016	116,284
76,407	-18,627	262,729	116,194
77,422	-18,663	262,513	116,055
78,436	-18,988	262,278	115,650
79,451	-18,753	262,068	115,758
80,466	-18,689	261,763	115,670
81,480	-18,482	261,593	115,768
82,495	-18,744	261,532	115,498
83,509	-18,685	261,209	115,397
84,524	-18,749	261,072	115,270
85,539	-18,531	260,896	115,376
86,553	-18,624	260,647	115,172
87,568	-18,829	260,270	114,814
88,582	-18,622	260,228	114,969
89,597	-18,735	259,995	114,755
90,611	-18,557	259,756	114,797
91,626	-18,793	259,513	114,471
92,641	-18,779	259,368	114,409
93,655	-18,569	259,176	114,499
94,670	-18,671	258,942	114,296
95,684	-18,878	258,723	114,006
96,699	-18,719	258,436	114,010
97,714	-18,696	258,426	114,016
98,728	-18,584	258,244	114,024
99,743	-18,630	257,934	113,836
100,757	-18,576	257,707	113,773
101,772	-18,730	257,549	113,559
102,787	-18,708	257,281	113,449
103,801	-18,773	257,106	113,305
104,816	-18,673	256,935	113,307
105,830	-18,766	256,807	113,159
106,845	-18,585	256,480	113,163
107,860	-18,684	256,413	113,037
108,874	-18,658	256,145	112,932
109,889	-18,511	255,816	112,904
110,903	-18,739	255,565	112,585
111,918	-18,843	255,553	112,480
112,933	-18,736	255,234	112,422
113,947	-18,618	255,131	112,469
114,962	-18,586	254,895	112,383
115,976	-18,612	254,720	112,273
116,991	-18,595	254,548	112,202
118,006	-18,624	254,339	112,075
119,020	-18,699	254,106	111,897
120,035	-18,361	253,977	112,122
121,049	-18,666	253,875	111,804
122,064	-18,647	253,623	111,699
123,079	-18,730	253,397	111,518
124,093	-18,746	253,180	111,399
125,108	-18,637	252,965	111,388
126,122	-18,453	252,752	111,443
127,137	-18,405	252,625	111,418
128,151	-18,293	252,447	111,425
129,166	-18,524	252,290	111,148
130,181	-18,338	252,028	111,182
131,195	-18,547	251,778	110,884
132,210	-18,569	251,528	110,744
133,224	-18,701	251,387	110,560
134,239	-18,470	251,222	110,674
135,254	-18,655	250,980	110,400
136,268	-18,389	250,715	110,500
137,283	-18,431	250,659	110,430
138,297	-18,343	250,442	110,399
139,312	-18,550	250,246	110,127
140,327	-18,777	250,005	109,819
141,341	-18,642	249,915	109,884
142,356	-18,635	249,593	109,739
143,370	-18,599	249,454	109,698
144,385	-18,502	249,171	109,646
145,400	-18,566	249,025	109,518
146,414	-18,368	248,789	109,571
147,429	-18,732	248,780	109,251
148,443	-18,553	248,651	109,335
149,458	-18,592	248,248	109,115
150,473	-18,586	248,181	109,081
151,487	-18,552	247,956	109,001
152,502	-18,517	247,806	108,955
153,516	-18,530	247,559	108,825
154,531	-18,628	247,245	108,596
155,546	-18,511	247,264	108,692
156,560	-18,551	246,976	108,522
157,575	-18,506	246,838	108,490
158,589	-18,532	246,723	108,408
159,604	-18,490	246,429	108,304
160,619	-18,670	246,208	108,047
161,633	-18,556	245,930	108,011
162,648	-18,647	245,948	107,933
163,662	-18,679	245,786	107,826
164,677	-18,562	245,667	107,861
165,692	-18,574	245,414	107,731
166,706	-18,436	245,203	107,742
167,721	-18,434	244,992	107,642
168,735	-18,504	244,815	107,497
169,750	-18,466	244,822	107,522
170,764	-18,603	244,591	107,298
171,779	-18,699	244,530	107,182
172,794	-18,512	244,242	107,200
173,808	-18,415	244,002	107,166
174,823	-18,353	243,967	107,191
175,837	-18,431	243,784	107,037
176,852	-18,543	243,635	106,870
177,867	-18,565	243,380	106,731
178,881	-18,587	243,227	106,636
179,896	-18,289	242,976	106,762
180,910	-18,527	242,851	106,502
181,925	-18,448	242,658	106,472
182,940	-18,544	242,490	106,310
183,954	-18,707	242,281	106,076
184,969	-18,574	242,092	106,092
185,983	-18,672	242,043	105,981
186,998	-18,489	241,881	106,050
188,013	-18,689	241,631	105,768
189,027	-18,690	241,428	105,669
190,042	-18,418	241,168	105,767
191,056	-18,548	241,124	105,633
192,071	-18,544	240,898	105,528
193,086	-18,344	240,690	105,589
194,100	-18,652	240,566	105,276
195,115	-18,413	240,426	105,399
196,129	-18,433	240,007	105,190
197,144	-18,463	239,828	105,077
198,159	-18,568	239,802	104,972
199,173	-18,547	239,654	104,915
200,188	-18,378	239,411	104,935
201,202	-18,350	239,340	104,917
202,217	-18,156	238,947	104,892
203,232	-18,346	238,927	104,721
204,246	-18,412	238,607	104,518
205,261	-18,570	238,500	104,335
206,275	-17,152	239,059	105,713
207,290	-12,444	240,710	110,247
208,304	-6,129	242,727	116,311
209,319	-2,179	243,629	119,958
210,334	-1,060	243,984	121,035
211,348	-0,231	243,966	121,692
212,363	0,123	244,000	121,987
213,377	0,348	243,926	122,122
214,392	0,736	243,813	122,370
215,407	1,102	243,723	122,612
216,421	1,107	243,636	122,562
217,436	1,069	243,510	122,457
218,450	1,132	243,369	122,426
219,465	1,137	243,298	122,383
220,480	1,092	243,152	122,262
221,494	1,036	242,936	122,097
222,509	0,912	242,577	121,806
223,523	0,480	242,417	121,365
224,538	0,604	242,186	121,339
225,553	0,308	242,117	121,054
226,567	0,473	241,892	121,065
227,582	0,400	241,855	120,976
228,596	0,641	241,549	121,006
229,611	0,417	241,465	120,773
230,626	0,339	241,277	120,605
231,640	0,463	241,072	120,592
232,655	0,418	240,891	120,454
233,669	0,602	240,792	120,542
234,684	0,470	240,598	120,329
235,699	0,484	240,563	120,311
236,713	0,286	240,487	120,103
237,728	0,482	240,160	120,086
238,742	0,579	239,949	120,048
239,757	0,252	239,874	119,738
240,772	0,517	239,709	119,856
241,786	0,634	239,415	119,793
242,801	0,461	239,438	119,656
243,815	0,304	239,176	119,388
244,830	0,490	239,033	119,455
245,844	0,496	238,834	119,349
246,859	0,505	238,747	119,303
247,874	0,371	238,498	119,061
248,888	0,403	238,401	119,027
249,903	0,513	238,288	119,047
250,917	0,575	238,151	119,018
251,932	0,613	238,151	119,038
252,947	0,703	237,816	118,930
253,961	0,568	237,770	118,790
254,976	0,424	237,381	118,472
255,990	0,523	237,401	118,549
257,005	0,578	237,268	118,515
258,020	0,506	237,061	118,344
259,034	0,291	236,909	118,089
260,049	0,440	236,704	118,093
261,063	0,364	236,424	117,884
262,078	0,624	236,384	118,057
263,093	0,406	236,235	117,801
264,107	0,479	236,084	117,773
265,122	0,417	236,113	117,728
266,136	0,722	235,752	117,777
267,151	0,593	235,644	117,611
268,166	0,440	235,490	117,403
269,180	0,565	235,174	117,334
270,195	0,598	235,228	117,376
271,209	0,546	234,938	117,180
272,224	0,431	234,929	117,075
273,239	0,424	234,743	116,966
274,253	0,458	234,552	116,888
275,268	0,369	234,361	116,713
276,282	0,399	234,244	116,667
277,297	0,265	234,112	116,487
278,312	0,506	233,922	116,569
279,326	0,625	233,809	116,595
280,341	0,564	233,619	116,442
281,355	0,213	233,551	116,126
282,370	0,609	233,347	116,321
283,384	0,524	233,136	116,140
284,399	0,264	233,196	115,958
285,414	0,360	232,994	115,921
286,428	0,818	232,790	116,163
287,443	0,487	232,610	115,808
288,457	0,543	232,561	115,816
289,472	0,769	232,303	115,851
290,487	0,346	232,183	115,456
291,501	0,641	231,904	115,533
292,516	0,456	231,978	115,418
293,530	0,649	231,788	115,461
294,545	0,486	231,672	115,268
295,560	0,361	231,615	115,133
296,574	0,667	231,262	115,182
297,589	0,631	231,098	115,063
298,603	0,842	231,013	115,172
299,618	0,810	230,755	115,008
300,633	0,717	230,706	114,903
301,647	0,850	230,722	115,002
302,662	0,584	230,615	114,735
303,676	0,928	230,370	114,865
304,691	0,646	230,235	114,573
305,706	0,676	230,014	114,476
306,720	0,797	229,862	114,482
307,735	0,655	229,773	114,319
308,749	0,796	229,523	114,292
309,764	0,770	229,467	114,234
310,779	0,711	229,350	114,120
311,793	0,741	229,076	113,997
312,808	0,726	228,916	113,896
313,822	0,757	228,751	113,827
314,837	0,822	228,707	113,844
315,852	1,045	228,451	113,875
316,866	0,769	228,339	113,601
317,881	0,945	228,172	113,640
318,895	0,822	228,102	113,503
319,910	0,774	227,970	113,391
320,925	0,868	227,731	113,332
321,939	0,826	227,640	113,246
322,954	0,791	227,480	113,130
323,968	0,765	227,358	113,039
324,983	0,971	227,273	113,141
325,997	0,868	227,077	112,956
327,012	0,705	227,036	112,804
328,027	0,705	226,972	112,762
329,041	0,840	226,578	112,657
330,056	0,940	226,455	112,661
331,070	0,864	226,379	112,556
332,085	0,742	226,219	112,375
333,100	0,886	226,102	112,414
334,114	0,894	226,014	112,367
335,129	0,811	225,744	112,161
336,143	1,019	225,666	112,267
337,158	1,077	225,474	112,204
338,173	0,867	225,416	112,010
339,187	1,146	225,138	112,069
340,202	0,830	225,222	111,866
341,216	1,137	224,937	111,942
342,231	0,784	224,856	111,630
343,246	0,824	224,827	111,635
344,260	1,098	224,509	111,670
345,275	1,003	224,531	111,601
346,289	1,119	224,190	111,508
347,304	0,791	224,272	111,296
348,319	0,928	224,056	111,279
349,333	1,042	223,924	111,289
350,348	0,951	223,708	111,104
351,362	1,089	223,506	111,095
352,377	1,066	223,422	111,027
353,392	1,060	223,307	110,956
354,406	1,039	223,097	110,825
355,421	192,274	1312,147	1377,106
356,435	153,944	1444,675	1376,933
