DTS Sentinel unit serial number:	SN410029Multiplexer serial number:	ORYXHardware model number:	OX2-SRSoftware version number:	ORYX F/W v4,00 Oryx Data Collector v3.7.2.0data status	okinstallation	B5 Nyhavnadifferential loss correction	single-endedforward channel	channel 2reverse channel	N/Adate	2023/12/13time	13:32:13forward acquisition time	300,00reverse acquisition time	0,00gamma	499,1914k internal	0,3161k external	0,3161temperature offset calibration	1,0000default loss term (dB/km)	0,3820temperature slope calibration	1,0000multiplexer offset coefficient	1,0000multiplexer slope coefficient	1,0000fibre end	0,00T internal ref (°C)	14,63T ext. ref 1 (°C)	-1,22T ext. ref 2 (°C)	-1,49length (m)	temperature (°C)	Stokes	anti-Stokes-744,400	-41,349	0,166	0,063
-743,385	-64,042	-0,204	0,061
-742,371	673,335	0,040	0,077
-741,356	-18,414	-0,240	0,110
-740,342	81,073	0,065	0,051
-739,327	-111,781	-0,355	-0,052
-738,312	76,908	0,098	0,077
-737,298	-110,775	-0,196	-0,030
-736,283	-152,518	0,163	0,008
-735,269	-153,791	-0,175	-0,009
-734,254	-155,942	0,066	0,003
-733,239	-132,957	-0,445	-0,041
-732,225	799,943	0,104	0,212
-731,210	-200,000	0,039	0,000
-730,196	800,000	0,036	-0,101
-729,181	-200,000	-0,014	-0,187
-728,167	-144,479	-0,078	-0,005
-727,152	33,809	0,038	-0,025
-726,137	800,000	-0,011	-0,022
-725,123	394,001	-0,035	-0,053
-724,108	245,163	0,040	-0,050
-723,094	148,758	-0,164	-0,163
-722,079	-200,000	0,004	-0,044
-721,064	-31,596	-0,061	-0,025
-720,050	-200,000	-0,011	-0,079
-719,035	267,913	-0,100	0,129
-718,021	178,131	-0,030	0,032
-717,006	203,608	-0,083	-0,095
-715,991	-82,163	-0,105	-0,025
-714,977	-84,995	-0,079	-0,018
-713,962	383,947	-0,017	-0,026
-712,948	146,680	0,058	0,057
-711,933	104,666	-0,029	0,025
-710,918	195,294	-0,053	-0,059
-709,904	25,798	-0,030	0,019
-708,889	669,236	-0,042	-0,081
-707,875	196,337	-0,063	-0,071
-706,860	800,000	0,025	0,073
-705,845	116,925	0,082	0,074
-704,831	-200,000	-0,003	-0,079
-703,816	-200,000	-0,026	-0,090
-702,802	144,028	-0,079	0,077
-701,787	-137,360	-0,111	-0,009
-700,772	-104,136	-0,096	-0,016
-699,758	398,719	-0,021	-0,032
-698,743	-200,000	-0,000	0,018
-697,729	291,573	0,045	0,061
-696,714	-200,000	0,005	-0,068
-695,699	-200,000	-0,006	0,025
-694,685	79,763	-0,080	-0,063
-693,670	-161,799	-0,157	0,006
-692,656	47,231	0,058	-0,039
-691,641	-42,516	-0,096	0,036
-690,627	-116,013	0,101	-0,014
-689,612	-200,000	-0,025	-0,082
-688,597	-17,685	-0,019	0,009
-687,583	800,000	-0,066	-0,184
-686,568	-200,000	-0,021	-0,127
-685,554	31,312	0,071	-0,045
-684,539	-200,000	0,001	0,052
-683,524	-109,434	0,010	-0,001
-682,510	800,000	-0,029	-0,068
-681,495	-136,956	-0,074	0,006
-680,481	84,778	0,120	0,097
-679,466	-200,000	-0,027	0,089
-678,451	800,000	0,034	-0,079
-677,437	-200,000	0,013	-0,105
-676,422	64,989	0,020	0,015
-675,408	-141,228	-0,079	-0,006
-674,393	11,307	0,045	0,025
-673,378	-200,000	-0,007	-0,046
-672,364	20,836	-0,088	-0,052
-671,349	-164,455	0,062	-0,002
-670,335	200,322	-0,146	0,165
-669,320	19,579	0,065	0,038
-668,305	-200,000	-0,005	-0,066
-667,291	-34,203	-0,018	-0,007
-666,276	-158,703	-0,153	0,006
-665,262	560,560	0,024	-0,043
-664,247	22,235	0,084	0,050
-663,232	800,000	-0,072	-0,171
-662,218	-78,907	0,109	0,027
-661,203	-200,000	0,022	-0,098
-660,189	800,000	-0,048	0,142
-659,174	-40,972	-0,009	-0,003
-658,159	-17,481	-0,143	0,066
-657,145	-68,416	0,077	0,022
-656,130	73,641	0,102	0,079
-655,116	-42,347	-0,089	-0,033
-654,101	-200,000	0,006	0,105
-653,086	-200,000	-0,033	0,125
-652,072	-200,000	-0,023	-0,079
-651,057	13,934	-0,112	-0,064
-650,043	470,464	0,019	0,031
-649,028	-115,540	0,010	-0,001
-648,014	-171,916	0,047	-0,001
-646,999	-100,855	0,024	-0,004
-645,984	-92,137	0,133	-0,027
-644,970	-191,480	0,056	-0,000
-643,955	-200,000	0,001	0,028
-642,941	-17,933	-0,116	-0,053
-641,926	61,842	0,044	0,032
-640,911	92,152	-0,032	-0,027
-639,897	-102,808	0,160	0,028
-638,882	-21,499	-0,185	0,082
-637,868	369,475	0,036	-0,054
-636,853	127,896	-0,040	-0,037
-635,838	-200,000	-0,011	0,128
-634,824	-200,000	-0,002	0,064
-633,809	-200,000	-0,015	0,068
-632,795	-200,000	-0,007	-0,047
-631,780	-200,000	-0,003	0,076
-630,765	33,716	0,034	-0,021
-629,751	229,144	-0,123	-0,148
-628,736	-8,942	-0,037	-0,018
-627,722	31,723	-0,058	-0,037
-626,707	177,977	-0,083	-0,089
-625,692	-113,136	-0,046	-0,007
-624,678	-200,000	-0,006	-0,152
-623,663	99,893	0,097	-0,082
-622,649	187,267	0,030	0,033
-621,634	-200,000	0,008	-0,095
-620,619	800,000	-0,058	0,150
-619,605	-25,715	-0,123	-0,053
-618,590	-30,825	-0,104	-0,043
-617,576	-200,000	-0,009	0,144
-616,561	-149,647	-0,128	0,007
-615,546	-126,845	-0,087	-0,009
-614,532	800,000	-0,044	-0,137
-613,517	-36,974	0,060	0,023
-612,503	-21,058	-0,042	0,019
-611,488	53,849	-0,031	0,022
-610,474	461,522	-0,048	0,079
-609,459	-26,102	0,133	0,057
-608,444	-200,000	-0,008	0,031
-607,430	36,461	0,015	0,010
-606,415	60,744	0,060	-0,043
-605,401	-200,000	-0,001	-0,049
-604,386	-23,525	-0,053	-0,023
-603,371	-133,265	-0,167	0,015
-602,357	-114,564	-0,085	0,012
-601,342	178,705	0,095	-0,102
-600,328	207,503	-0,107	-0,122
-599,313	60,172	-0,125	-0,091
-598,298	259,787	-0,033	-0,042
-597,284	232,774	-0,036	0,044
-596,269	187,614	0,017	0,019
-595,255	257,777	0,043	-0,054
-594,240	71,540	0,059	0,045
-593,225	77,754	-0,042	0,033
-592,211	-29,362	-0,114	-0,047
-591,196	161,088	-0,055	0,057
-590,182	-158,476	-0,077	-0,003
-589,167	-16,587	0,108	0,050
-588,152	-116,297	-0,065	0,009
-587,138	-48,665	-0,083	0,029
-586,123	515,787	0,039	0,066
-585,109	-163,005	-0,080	0,003
-584,094	203,601	-0,037	0,042
-583,079	361,085	-0,013	-0,018
-582,065	-136,688	-0,181	0,015
-581,050	-97,723	-0,108	-0,020
-580,036	289,223	0,053	-0,070
-579,021	51,513	-0,145	0,101
-578,006	-101,649	0,098	0,017
-576,992	-200,000	-0,017	0,159
-575,977	800,000	-0,008	-0,019
-574,963	26,563	-0,075	0,046
-573,948	467,429	-0,053	0,087
-572,934	-200,000	-0,019	-0,072
-571,919	74,575	0,016	0,013
-570,904	-106,578	0,021	0,003
-569,890	-50,845	0,019	0,007
-568,875	800,000	0,043	0,108
-567,861	-200,000	-0,001	0,115
-566,846	137,665	-0,040	0,039
-565,831	55,336	-0,125	0,088
-564,817	46,565	0,059	0,040
-563,802	-200,000	0,025	-0,240
-562,788	142,170	-0,047	0,045
-561,773	-200,000	0,014	-0,182
-560,758	800,000	0,042	0,134
-559,744	-200,000	-0,006	0,187
-558,729	-139,208	0,033	0,003
-557,715	-179,700	-0,072	0,001
-556,700	259,289	0,042	-0,054
-555,685	-74,537	0,174	0,045
-554,671	-200,000	-0,025	0,151
-553,656	243,791	-0,024	0,029
-552,642	-200,000	0,036	0,189
-551,627	-200,000	-0,012	0,063
-550,612	-19,562	-0,057	0,026
-549,598	190,920	-0,076	-0,084
-548,583	-200,000	0,014	-0,084
-547,569	70,132	0,107	-0,081
-546,554	650,884	-0,031	0,058
-545,539	-200,000	0,027	0,091
-544,525	113,950	0,052	-0,046
-543,510	-107,697	0,123	0,019
-542,496	166,044	0,085	-0,088
-541,481	800,000	-0,067	-0,153
-540,466	85,342	-0,104	-0,083
-539,452	-47,318	0,134	-0,047
-538,437	-25,245	-0,044	0,019
-537,423	297,074	0,134	-0,180
-536,408	-101,952	0,076	-0,013
-535,393	82,855	0,047	0,037
-534,379	-200,000	-0,009	-0,031
-533,364	298,798	0,018	-0,024
-532,350	800,000	0,015	0,032
-531,335	-15,558	0,038	0,017
-530,321	-194,001	0,105	0,001
-529,306	20,031	0,103	-0,060
-528,291	-200,000	-0,003	-0,095
-527,277	-200,000	-0,033	-0,165
-526,262	-200,000	0,012	-0,097
-525,248	163,322	0,033	-0,034
-524,233	-53,650	0,073	0,024
-523,218	-153,715	-0,067	-0,003
-522,204	-200,000	0,014	0,053
-521,189	60,633	-0,089	0,064
-520,175	85,140	-0,070	0,056
-519,160	102,151	-0,011	-0,009
-518,145	249,185	-0,034	0,042
-517,131	800,000	0,003	-0,008
-516,116	773,185	0,056	-0,112
-515,102	-200,000	-0,027	0,145
-514,087	-37,654	0,087	-0,034
-513,072	-178,929	0,032	-0,001
-512,058	97,122	-0,062	-0,052
-511,043	665,988	-0,065	0,124
-510,029	-113,476	0,120	0,017
-509,014	-200,000	-0,006	0,091
-507,999	146,872	0,070	0,069
-506,985	43,663	-0,075	-0,050
-505,970	-97,681	-0,118	-0,022
-504,956	42,629	0,053	-0,035
-503,941	-78,208	0,060	-0,015
-502,926	-200,000	-0,031	0,125
-501,912	-10,404	0,093	0,045
-500,897	4,877	0,052	0,028
-499,883	86,518	-0,022	0,018
-498,868	97,537	0,065	-0,054
-497,853	127,729	0,121	-0,112
-496,839	469,672	-0,009	-0,015
-495,824	384,952	0,089	0,134
-494,810	100,688	0,029	0,025
-493,795	800,000	0,058	0,141
-492,781	-6,248	0,039	-0,020
-491,766	398,647	-0,007	0,011
-490,751	-200,000	0,010	-0,085
-489,737	-138,807	-0,017	-0,001
-488,722	-35,642	0,134	-0,053
-487,708	291,954	-0,097	0,129
-486,693	800,000	0,098	0,200
-485,678	-33,831	0,174	0,070
-484,664	-116,060	-0,117	0,016
-483,649	67,606	-0,063	0,047
-482,635	-200,000	0,001	-0,048
-481,620	800,000	0,032	-0,070
-480,605	207,198	-0,036	0,040
-479,591	260,973	0,054	0,068
-478,576	800,000	0,038	0,118
-477,562	-81,218	-0,037	-0,009
-476,547	358,361	-0,086	-0,125
-475,532	-34,744	-0,139	-0,055
-474,518	800,000	0,009	-0,028
-473,503	-3,021	0,085	0,043
-472,489	720,323	0,054	-0,106
-471,474	441,937	-0,008	0,012
-470,459	84,398	0,094	-0,075
-469,445	-73,088	0,047	-0,012
-468,430	558,733	0,056	-0,099
-467,416	167,350	-0,013	0,013
-466,401	-200,000	0,005	0,133
-465,386	-11,942	0,031	-0,015
-464,372	-12,360	-0,066	0,031
-463,357	800,000	-0,049	-0,127
-462,343	348,087	-0,014	0,020
-461,328	-105,908	0,022	-0,004
-460,313	-88,945	0,121	-0,026
-459,299	-99,806	0,010	-0,002
-458,284	203,708	0,044	0,050
-457,270	-0,753	-0,116	0,059
-456,255	800,000	-0,037	-0,083
-455,241	236,640	0,051	0,062
-454,226	295,952	-0,113	0,150
-453,211	-200,000	0,010	-0,036
-452,197	-113,619	0,066	0,009
-451,182	-125,202	-0,061	-0,007
-450,168	5,108	0,102	0,054
-449,153	-200,000	0,014	0,216
-448,138	-200,000	-0,038	-0,151
-447,124	800,000	0,032	-0,088
-446,109	-200,000	0,033	0,270
-445,095	61,578	0,157	-0,114
-444,080	-200,000	0,007	0,099
-443,065	87,360	-0,039	-0,031
-442,051	-32,806	0,049	-0,020
-441,036	-62,044	-0,022	0,007
-440,022	163,329	0,036	0,037
-439,007	-25,708	-0,175	-0,075
-437,992	-77,941	0,070	-0,017
-436,978	-200,000	-0,008	-0,065
-435,963	-200,000	0,000	0,042
-434,949	-200,000	-0,004	0,034
-433,934	-200,000	-0,002	-0,150
-432,919	800,000	0,032	0,081
-431,905	-200,000	-0,015	-0,062
-430,890	60,403	-0,102	-0,073
-429,876	-200,000	0,009	-0,066
-428,861	488,353	-0,041	0,069
-427,846	-14,771	-0,047	0,022
-426,832	412,193	-0,064	-0,099
-425,817	199,079	-0,025	-0,028
-424,803	-27,665	-0,098	-0,041
-423,788	15,655	0,078	0,044
-422,773	800,000	-0,020	-0,045
-421,759	363,140	0,055	-0,081
-420,744	-62,694	0,135	-0,041
-419,730	-65,015	-0,070	0,020
-418,715	-200,000	-0,006	-0,062
-417,701	63,977	-0,029	0,021
-416,686	-31,464	0,067	0,027
-415,671	93,822	0,135	-0,111
-414,657	-65,306	-0,071	-0,021
-413,642	800,000	-0,026	0,076
-412,628	-66,431	-0,101	-0,029
-411,613	377,371	0,144	-0,215
-410,598	228,789	0,034	0,040
-409,584	800,000	0,033	0,075
-408,569	122,605	-0,074	-0,067
-407,555	-96,813	-0,052	-0,010
-406,540	759,180	0,025	-0,049
-405,525	98,785	0,039	0,033
-404,511	16,530	-0,017	0,010
-403,496	-100,714	0,049	-0,009
-402,482	-200,000	0,016	-0,110
-401,467	13,028	0,049	-0,028
-400,452	257,131	0,068	0,086
-399,438	-200,000	-0,021	0,102
-398,423	-112,235	-0,038	-0,006
-397,409	11,823	-0,009	0,005
-396,394	-58,225	0,137	-0,043
-395,379	-200,000	0,029	-0,125
-394,365	87,680	-0,051	0,041
-393,350	-200,000	-0,017	0,091
-392,336	78,979	-0,106	-0,083
-391,321	93,785	0,113	0,093
-390,306	-128,208	-0,072	-0,007
-389,292	141,624	-0,098	-0,094
-388,277	37,096	0,024	0,016
-387,263	500,904	0,081	-0,136
-386,248	-200,000	-0,001	-0,007
-385,233	800,000	0,061	0,134
-384,219	551,201	0,061	-0,107
-383,204	156,830	0,038	-0,038
-382,190	0,445	-0,063	0,033
-381,175	-44,884	0,173	0,062
-380,160	-37,154	-0,103	-0,040
-379,146	-16,933	0,007	0,003
-378,131	584,163	0,067	0,120
-377,117	-200,000	-0,015	-0,047
-376,102	100,983	-0,122	0,103
-375,088	315,999	-0,055	-0,076
-374,073	622,056	0,060	-0,111
-373,058	800,000	0,029	-0,072
-372,044	145,668	0,060	0,058
-371,029	-84,794	0,029	0,007
-370,015	-200,000	-0,004	-0,105
-369,000	-200,000	-0,016	0,076
-367,985	800,000	-0,015	-0,038
-366,971	50,107	0,082	-0,056
-365,956	-200,000	0,021	0,077
-364,942	-140,904	-0,127	-0,009
-363,927	-200,000	0,009	0,076
-362,912	139,525	-0,061	-0,058
-361,898	149,531	0,051	0,050
-360,883	9,338	0,052	0,028
-359,869	106,372	0,026	-0,022
-358,854	239,816	-0,056	-0,068
-357,839	800,000	0,025	-0,066
-356,825	548,057	0,022	0,038
-355,810	575,347	-0,044	-0,078
-354,796	-200,000	0,009	-0,068
-353,781	800,000	-0,064	-0,204
-352,766	-55,868	-0,072	0,023
-351,752	414,584	-0,092	-0,142
-350,737	-200,000	0,007	0,038
-349,723	191,525	-0,038	-0,041
-348,708	18,397	-0,043	-0,025
-347,693	-200,000	-0,019	-0,062
-346,679	94,583	0,095	-0,078
-345,664	800,000	0,041	-0,132
-344,650	-163,067	0,067	0,002
-343,635	-200,000	-0,011	0,094
-342,620	46,031	0,121	0,081
-341,606	-69,209	0,089	0,025
-340,591	240,031	0,032	-0,039
-339,577	243,665	0,024	0,029
-338,562	-200,000	-0,002	0,121
-337,548	128,829	-0,082	-0,076
-336,533	33,912	0,132	0,083
-335,518	552,673	-0,019	0,034
-334,504	136,205	-0,098	0,092
-333,489	-55,528	-0,141	0,046
-332,475	393,455	-0,050	-0,075
-331,460	-200,000	-0,019	-0,185
-330,445	-10,102	-0,067	0,032
-329,431	30,258	-0,053	-0,033
-328,416	232,094	-0,030	0,035
-327,402	-1,889	0,209	0,106
-326,387	126,741	0,033	0,030
-325,372	-200,000	0,003	0,139
-324,358	-30,384	-0,164	-0,067
-323,343	-200,000	-0,023	-0,106
-322,329	-200,000	0,018	0,094
-321,314	-77,031	0,013	-0,003
-320,299	-200,000	0,007	0,153
-319,285	-200,000	0,025	-0,089
-318,270	163,286	-0,045	-0,046
-317,256	-200,000	0,018	0,084
-316,241	800,000	0,041	0,107
-315,226	448,165	-0,009	0,015
-314,212	-200,000	-0,011	0,036
-313,197	12,049	0,026	0,015
-312,183	-138,695	0,068	0,005
-311,168	-200,000	0,002	0,088
-310,153	-18,396	-0,101	0,045
-309,139	293,266	0,048	0,064
-308,124	800,000	-0,027	-0,060
-307,110	-200,000	0,018	0,074
-306,095	662,067	0,048	0,091
-305,080	149,269	0,082	0,081
-304,066	-71,666	-0,043	-0,012
-303,051	234,152	0,038	-0,045
-302,037	642,573	-0,036	-0,066
-301,022	-200,000	0,043	-0,150
-300,008	-200,000	0,033	-0,111
-298,993	394,339	0,138	0,209
-297,978	402,259	0,035	0,053
-296,964	-32,455	-0,130	0,052
-295,949	-5,813	-0,072	0,035
-294,935	622,205	-0,045	-0,083
-293,920	-146,995	-0,252	0,015
-292,905	-20,556	-0,102	0,045
-291,891	89,712	0,049	0,039
-290,876	651,766	-0,023	0,043
-289,862	77,272	-0,091	0,070
-288,847	422,810	0,054	-0,084
-287,832	800,000	0,022	-0,055
-286,818	395,092	-0,033	0,050
-285,803	250,694	-0,016	0,019
-284,789	16,338	-0,015	-0,008
-283,774	-158,995	-0,066	-0,003
-282,759	129,582	-0,044	0,041
-281,745	153,362	0,053	-0,053
-280,730	800,000	0,047	-0,099
-279,716	-200,000	0,026	0,092
-278,701	216,310	0,120	-0,138
-277,686	-52,406	-0,034	-0,011
-276,672	-200,000	-0,008	0,196
-275,657	-200,000	0,004	0,128
-274,643	-17,039	-0,065	-0,030
-273,628	-87,994	-0,055	-0,012
-272,613	-200,000	-0,043	0,143
-271,599	33,397	0,042	-0,026
-270,584	-0,387	0,112	0,057
-269,570	800,000	-0,025	0,069
-268,555	-119,854	-0,116	-0,014
-267,540	358,637	-0,024	-0,035
-266,526	72,234	-0,045	0,034
-265,511	-79,075	-0,129	-0,031
-264,497	-200,000	0,008	-0,101
-263,482	-18,085	0,157	0,071
-262,467	334,904	-0,066	0,092
-261,453	20,427	0,054	0,032
-260,438	279,836	0,051	-0,065
-259,424	255,830	0,114	-0,142
-258,409	-87,918	-0,021	-0,004
-257,395	186,484	-0,037	0,040
-256,380	67,176	-0,018	0,013
-255,365	-74,945	0,037	-0,009
-254,351	-180,692	0,095	0,001
-253,336	-100,663	-0,089	0,016
-252,322	-56,236	0,051	-0,016
-251,307	-200,000	0,012	-0,040
-250,292	-49,179	0,076	-0,026
-249,278	217,504	0,028	0,033
-248,263	43,691	-0,048	-0,032
-247,249	26,831	0,092	-0,056
-246,234	-200,000	-0,010	-0,073
-245,219	-176,337	-0,043	0,001
-244,205	-35,298	-0,107	-0,042
-243,190	-144,779	0,127	-0,008
-242,176	125,062	-0,079	0,072
-241,161	313,836	0,049	0,067
-240,146	-90,191	0,132	-0,028
-239,132	-78,870	-0,138	-0,034
-238,117	164,504	0,010	-0,010
-237,103	-68,841	-0,123	0,034
-236,088	48,902	-0,095	0,065
-235,073	-147,405	0,019	-0,001
-234,059	100,673	0,068	-0,057
-233,044	-200,000	0,032	0,200
-232,030	-129,443	0,055	-0,005
-231,015	46,941	-0,109	0,073
-230,000	-200,000	0,026	-0,128
-228,986	43,686	0,088	0,058
-227,971	272,860	0,023	-0,029
-226,957	-40,141	0,028	-0,011
-225,942	9,689	0,038	-0,021
-224,927	-35,769	0,039	-0,015
-223,913	-42,329	0,157	-0,057
-222,898	132,717	0,062	-0,058
-221,884	-200,000	-0,028	-0,162
-220,869	76,470	-0,068	-0,052
-219,855	-200,000	-0,001	0,114
-218,840	-106,469	0,104	-0,017
-217,825	-17,267	-0,098	0,045
-216,811	264,343	-0,024	0,030
-215,796	-180,541	-0,106	-0,002
-214,782	-101,072	0,118	-0,021
-213,767	-200,000	-0,093	0,000
-212,752	-63,477	0,065	0,019
-211,738	800,000	0,030	0,091
-210,723	-200,000	-0,001	-0,115
-209,709	-108,679	-0,147	-0,022
-208,694	16,894	-0,101	-0,058
-207,679	800,000	-0,018	-0,038
-206,665	-113,745	0,176	-0,024
-205,650	-200,000	-0,039	0,125
-204,636	-200,000	0,014	-0,046
-203,621	2,891	0,066	0,035
-202,606	-5,116	0,046	0,023
-201,592	59,265	0,017	0,012
-200,577	-200,000	-0,037	-0,132
-199,563	-200,000	-0,004	0,045
-198,548	-42,065	0,058	-0,021
-197,533	-200,000	0,010	0,135
-196,519	78,948	-0,129	-0,099
-195,504	-67,027	-0,044	-0,012
-194,490	-19,065	-0,118	-0,053
-193,475	-159,198	-0,131	-0,005
-192,460	-200,000	-0,011	0,064
-191,446	-200,000	-0,003	-0,089
-190,431	-37,073	0,119	-0,046
-189,417	-200,000	-0,011	-0,251
-188,402	-200,000	0,001	0,054
-187,387	-40,440	-0,022	-0,008
-186,373	-50,436	0,036	-0,012
-185,358	11,816	0,185	0,102
-184,344	34,431	0,156	0,098
-183,329	800,000	-0,026	0,060
-182,315	-200,000	-0,031	0,103
-181,300	746,260	-0,035	-0,069
-180,285	-118,417	-0,035	0,004
-179,271	144,116	0,043	-0,041
-178,256	-62,365	-0,083	0,025
-177,242	492,089	0,064	-0,107
-176,227	-114,904	0,084	-0,011
-175,212	-200,000	0,031	0,147
-174,198	-149,353	-0,066	0,004
-173,183	-200,000	0,007	-0,048
-172,169	79,773	-0,083	-0,064
-171,154	-123,728	0,033	0,004
-170,139	62,475	-0,118	-0,085
-169,125	-143,048	-0,166	-0,011
-168,110	-200,000	0,007	-0,081
-167,096	191,766	0,124	0,135
-166,081	-200,000	-0,000	-0,020
-165,066	800,000	-0,028	-0,082
-164,052	60,034	-0,090	0,064
-163,037	-200,000	0,031	0,131
-162,023	132,880	0,035	-0,032
-161,008	-187,871	0,104	0,001
-159,993	800,000	0,007	0,022
-158,979	157,455	-0,025	0,025
-157,964	-150,763	-0,180	-0,010
-156,950	800,000	0,027	-0,085
-155,935	-200,000	0,003	-0,026
-154,920	-144,295	0,104	0,007
-153,906	800,000	0,057	0,158
-152,891	-200,000	0,004	-0,101
-151,877	-200,000	0,060	-0,202
-150,862	-127,502	-0,051	0,005
-149,847	-200,000	-0,041	-0,133
-148,833	-112,387	0,059	-0,008
-147,818	-200,000	-0,002	0,129
-146,804	-86,657	-0,057	-0,012
-145,789	-80,915	-0,048	0,011
-144,775	-200,000	-0,004	-0,127
-143,760	800,000	-0,035	0,103
-142,745	76,380	0,062	-0,047
-141,731	-88,632	-0,048	0,010
-140,716	-42,456	-0,171	0,062
-139,702	3,867	-0,121	0,064
-138,687	556,911	0,048	0,084
-137,672	-5,284	-0,074	0,037
-136,658	-46,335	-0,042	-0,015
-135,643	511,109	0,039	-0,066
-134,629	611,314	0,060	-0,108
-133,614	-135,212	0,085	0,007
-132,599	-43,875	-0,099	0,036
-131,585	800,000	-0,059	0,165
-130,570	108,730	-0,051	-0,044
-129,556	800,000	0,006	0,016
-128,541	144,266	-0,060	-0,058
-127,526	345,745	0,022	0,032
-126,512	800,000	-0,040	0,095
-125,497	-137,350	-0,059	0,005
-124,483	-19,622	-0,063	0,028
-123,468	-83,659	0,076	0,017
-122,453	584,201	-0,011	0,019
-121,439	8,773	-0,100	-0,054
-120,424	800,000	0,055	0,158
-119,410	-182,590	0,137	0,002
-118,395	488,594	0,081	0,134
-117,380	24,334	0,088	0,052
-116,366	33,642	0,079	0,049
-115,351	-56,560	0,068	0,021
-114,337	-200,000	0,009	-0,116
-113,322	-28,832	0,075	-0,031
-112,307	-3,212	0,073	0,037
-111,293	-200,000	0,001	-0,029
-110,278	-134,872	0,009	-0,001
-109,264	442,592	-0,068	0,108
-108,249	37,108	0,118	0,075
-107,234	800,000	-0,022	0,055
-106,220	95,676	-0,098	0,080
-105,205	310,878	0,011	0,015
-104,191	800,000	0,073	0,196
-103,176	800,000	0,026	0,060
-102,162	111,811	0,045	0,039
-101,147	800,000	-0,022	-0,048
-100,132	-16,731	-0,101	0,046
-99,118	800,000	0,014	-0,041
-98,103	-134,874	-0,043	-0,004
-97,089	-73,440	0,046	-0,012
-96,074	24,253	-0,049	0,029
-95,059	-140,409	0,120	0,009
-94,045	409,927	-0,100	-0,153
-93,030	800,000	0,004	-0,009
-92,016	528,983	-0,027	-0,045
-91,001	-78,538	0,071	0,017
-89,986	481,279	0,038	0,062
-88,972	-200,000	0,025	0,194
-87,957	800,000	0,042	0,100
-86,943	-200,000	-0,011	-0,126
-85,928	43,950	-0,095	0,062
-84,913	7,593	0,048	0,026
-83,899	87,913	-0,070	-0,055
-82,884	27,229	0,044	-0,026
-81,870	274,919	0,012	0,016
-80,855	655,737	0,065	0,120
-79,840	-200,000	-0,016	0,141
-78,826	-108,883	-0,145	0,022
-77,811	136,975	-0,073	-0,069
-76,797	-200,000	0,000	-0,050
-75,782	81,242	-0,027	0,021
-74,767	166,011	0,085	0,087
-73,753	-200,000	0,016	0,095
-72,738	-200,000	0,028	-0,101
-71,724	-108,790	-0,063	-0,010
-70,709	21,417	0,073	-0,043
-69,694	-74,365	-0,101	0,026
-68,680	88,848	0,114	0,091
-67,665	-56,443	0,125	-0,040
-66,651	5,075	0,112	-0,059
-65,636	16,451	-0,080	0,045
-64,622	109,787	0,103	-0,089
-63,607	800,000	-0,031	0,072
-62,592	186,654	0,058	-0,063
-61,578	309,009	-0,067	0,091
-60,563	800,000	0,038	-0,117
-59,549	6,331	-0,111	-0,059
-58,534	22,151	-2,055	-1,200
-57,519	-200,000	-0,250	-0,797
-56,505	-200,000	-1,396	-4,957
-55,490	52,245	0,837	0,571
-54,476	800,000	5,246	11,947
-53,461	-200,000	17,828	294,081
-52,446	800,000	730,572	2245,867
-51,432	539,787	1646,237	2819,576
-50,417	108,884	1636,097	1401,803
-49,403	73,793	1286,900	966,070
-48,388	31,105	1026,979	629,996
-47,373	19,989	988,662	569,883
-46,359	18,087	976,508	556,628
-45,344	14,963	972,458	544,093
-44,330	15,281	970,957	544,268
-43,315	14,733	969,180	541,466
-42,300	14,645	968,028	540,515
-41,286	14,690	967,103	540,121
-40,271	14,660	966,098	539,440
-39,257	14,630	965,272	538,861
-38,242	14,619	964,414	538,324
-37,227	14,691	963,589	538,075
-36,213	14,665	962,442	537,331
-35,198	14,633	961,729	536,807
-34,184	14,722	960,984	536,657
-33,169	14,632	959,903	535,744
-32,154	14,722	959,117	535,573
-31,140	14,696	958,164	534,937
-30,125	14,751	957,442	534,688
-29,111	14,681	956,610	533,979
-28,096	14,682	956,032	533,637
-27,082	14,654	955,446	533,198
-26,067	14,647	954,462	532,608
-25,052	14,684	953,817	532,342
-24,038	14,629	953,237	531,823
-23,023	14,619	952,663	531,448
-22,009	14,658	951,967	531,164
-20,994	14,651	951,370	530,788
-19,979	14,673	950,618	530,416
-18,965	14,669	950,046	530,064
-17,950	14,702	949,375	529,776
-16,936	14,565	948,836	529,015
-15,921	14,633	947,981	528,734
-14,906	14,558	947,374	528,135
-13,892	14,519	946,551	527,534
-12,877	14,526	946,143	527,305
-11,863	14,533	945,461	526,929
-10,848	14,493	945,011	526,528
-9,833	14,622	944,492	526,628
-8,819	14,691	943,668	526,367
-7,804	14,542	943,347	525,695
-6,790	14,598	942,546	525,406
-5,775	14,632	941,962	525,167
-4,760	14,573	941,294	524,586
-3,746	14,578	940,622	524,206
-2,731	14,446	940,198	523,533
-1,717	14,434	939,393	523,027
-0,702	14,399	938,764	522,545
0,313	14,213	937,940	522,289
1,327	17,512	935,752	531,398
2,342	26,363	792,789	473,609
3,356	23,171	458,411	268,956
4,371	-3,393	314,810	156,454
5,386	-7,495	296,775	143,324
6,400	-9,339	290,625	138,510
7,415	-9,870	288,195	136,817
8,429	-10,109	286,469	135,751
9,444	-10,051	285,501	135,337
10,459	-10,077	284,952	135,040
11,473	-10,153	284,361	134,674
12,488	-10,120	283,816	134,435
13,502	-10,199	283,297	134,101
14,517	-10,132	282,816	133,927
15,531	-10,211	282,323	133,605
16,546	-10,305	281,890	133,297
17,561	-10,358	281,561	133,078
18,575	-10,276	281,296	133,021
19,590	-10,427	280,839	132,647
20,604	-10,406	280,583	132,535
21,619	-10,410	280,182	132,330
22,634	-10,426	279,916	132,177
23,648	-10,406	279,749	132,106
24,663	-10,363	279,203	131,877
25,677	-10,238	279,090	131,932
26,692	-10,453	278,917	131,633
27,707	-10,392	278,525	131,494
28,721	-10,456	278,354	131,341
29,736	-10,327	277,937	131,255
30,750	-10,531	277,737	130,955
31,765	-10,387	277,330	130,888
32,780	-10,515	277,263	130,724
33,794	-10,457	276,959	130,623
34,809	-10,480	276,768	130,500
35,823	-10,330	276,398	130,456
36,838	-10,421	276,218	130,273
37,853	-10,379	276,026	130,211
38,867	-10,458	275,837	130,035
39,882	-10,462	275,490	129,856
40,896	-10,248	275,195	129,907
41,911	-10,470	275,111	129,647
42,926	-10,255	274,671	129,630
43,940	-10,495	274,516	129,320
44,955	-10,511	274,318	129,200
45,969	-10,587	274,094	129,012
46,984	-10,803	273,893	128,705
47,999	-10,909	273,508	128,413
49,013	-11,033	273,229	128,156
50,028	-11,149	272,994	127,926
51,042	-11,204	272,680	127,716
52,057	-11,337	272,413	127,456
53,071	-11,175	272,322	127,553
54,086	-11,125	272,028	127,450
55,101	-10,853	271,920	127,640
56,115	-10,635	271,921	127,831
57,130	-10,379	271,829	128,014
58,144	-10,276	271,466	127,926
59,159	-10,174	271,346	127,952
60,174	-10,152	270,940	127,770
61,188	-10,262	270,916	127,645
62,203	-10,391	270,622	127,377
63,217	-10,343	270,360	127,286
64,232	-10,126	269,978	127,294
65,247	-10,212	270,018	127,223
66,261	-10,257	269,771	127,054
67,276	-10,353	269,418	126,789
68,290	-10,716	269,032	126,263
69,305	-10,592	268,847	126,278
70,320	-10,743	268,772	126,094
71,334	-10,430	268,427	126,207
72,349	-10,199	268,369	126,379
73,363	-10,277	268,135	126,186
74,378	-10,296	267,866	126,031
75,393	-10,241	267,764	126,022
76,407	-10,417	267,443	125,700
77,422	-10,198	267,194	125,770
78,436	-10,417	267,181	125,554
79,451	-9,980	266,816	125,768
80,466	-10,150	266,564	125,484
81,480	-10,470	266,258	125,039
82,495	-10,404	266,028	124,979
83,509	-10,420	265,954	124,920
84,524	-10,437	265,779	124,811
85,539	-10,740	265,434	124,364
86,553	-10,460	265,137	124,466
87,568	-10,450	265,080	124,437
88,582	-10,301	264,783	124,420
89,597	-10,341	264,650	124,312
90,611	-10,384	264,684	124,278
91,626	-10,300	264,375	124,196
92,641	-10,271	264,160	124,111
93,655	-10,313	263,933	123,955
94,670	-10,378	263,588	123,724
95,684	-10,367	263,470	123,668
96,699	-10,289	263,199	123,599
97,714	-10,433	263,126	123,425
98,728	-10,539	262,605	123,075
99,743	-10,738	262,631	122,899
100,757	-10,622	262,383	122,875
101,772	-10,595	262,275	122,837
102,787	-10,412	262,095	122,905
103,801	-10,360	261,889	122,844
104,816	-10,263	261,756	122,857
105,830	-10,198	261,632	122,845
106,845	-10,142	261,398	122,774
107,860	-10,150	261,228	122,676
108,874	-10,234	260,926	122,449
109,889	-10,349	260,660	122,212
110,903	-10,192	260,460	122,246
111,918	-10,359	260,487	122,100
112,933	-10,150	260,210	122,143
113,947	-10,183	259,938	121,976
114,962	-10,234	259,968	121,934
115,976	-10,254	259,698	121,779
116,991	-10,220	259,366	121,642
118,006	-10,296	259,249	121,509
119,020	-10,164	259,069	121,531
120,035	-10,361	259,020	121,324
121,049	-10,112	258,799	121,428
122,064	-10,107	258,450	121,258
123,079	-10,129	258,245	121,132
124,093	-10,313	258,146	120,913
125,108	-10,532	257,826	120,561
126,122	-10,761	257,591	120,241
127,137	-10,878	257,541	120,105
128,151	-10,829	257,252	120,003
129,166	-10,508	256,997	120,152
130,181	-10,594	256,889	120,016
131,195	-10,577	256,600	119,884
132,210	-10,238	256,404	120,077
133,224	-10,285	256,318	119,985
134,239	-10,042	255,964	120,019
135,254	-10,145	256,038	119,954
136,268	-10,268	255,608	119,635
137,283	-10,539	255,462	119,322
138,297	-10,729	255,253	119,050
139,312	-10,538	254,959	119,067
140,327	-10,219	254,877	119,292
141,341	-10,014	254,888	119,464
142,356	-10,065	254,762	119,350
143,370	-9,918	254,557	119,370
144,385	-10,018	254,293	119,149
145,400	-10,197	254,152	118,919
146,414	-9,945	254,003	119,055
147,429	-10,000	253,811	118,907
148,443	-10,102	253,587	118,704
149,458	-9,935	253,542	118,815
150,473	-9,953	253,339	118,695
151,487	-10,103	252,908	118,354
152,502	-10,063	252,913	118,380
153,516	-10,286	252,707	118,083
154,531	-9,952	252,396	118,211
155,546	-9,990	252,274	118,111
156,560	-10,042	252,090	117,971
157,575	-10,074	251,893	117,841
158,589	-9,990	251,779	117,848
159,604	-9,887	251,477	117,783
160,619	-10,118	251,439	117,559
161,633	-9,975	251,252	117,583
162,648	-10,107	251,195	117,434
163,662	-10,072	250,909	117,319
164,677	-9,901	250,665	117,339
165,692	-9,832	250,604	117,359
166,706	-10,023	250,428	117,104
167,721	-10,064	250,199	116,952
168,735	-9,944	250,032	116,965
169,750	-9,962	249,932	116,892
170,764	-9,763	249,776	116,976
171,779	-9,779	249,699	116,916
172,794	-9,824	249,460	116,757
173,808	-10,095	249,233	116,412
174,823	-10,547	248,988	115,908
175,837	-10,799	248,788	115,593
176,852	-10,199	248,713	116,051
177,867	-10,000	248,693	116,198
178,881	-10,043	248,531	116,076
179,896	-9,788	248,249	116,147
180,910	-9,976	248,172	115,943
181,925	-9,891	247,874	115,865
182,940	-9,904	247,699	115,762
183,954	-9,909	247,430	115,622
184,969	-9,892	247,410	115,616
185,983	-9,925	247,150	115,457
186,998	-9,827	247,142	115,525
188,013	-9,871	246,942	115,385
189,027	-9,772	246,667	115,327
190,042	-9,927	246,634	115,173
191,056	-9,842	246,390	115,120
192,071	-9,739	246,190	115,102
193,086	-9,938	246,129	114,898
194,100	-9,760	245,851	114,905
195,115	-9,737	245,696	114,841
196,129	-9,890	245,556	114,639
197,144	-9,818	245,253	114,547
198,159	-9,940	245,120	114,374
199,173	-9,877	244,908	114,317
200,188	-9,841	244,722	114,249
201,202	-9,828	244,440	114,118
202,217	-10,355	244,123	113,528
203,232	-10,550	243,990	113,296
204,246	-10,030	243,922	113,681
205,261	-9,420	244,032	114,222
206,275	-10,164	243,765	113,477
207,290	-6,203	245,269	117,428
208,304	1,231	247,596	124,692
209,319	4,513	248,393	127,802
210,334	4,989	248,453	128,214
211,348	5,203	248,372	128,338
212,363	5,596	248,304	128,617
213,377	5,622	248,139	128,541
214,392	5,489	248,008	128,352
215,407	5,109	247,765	127,902
216,421	5,109	247,619	127,815
217,436	5,477	247,438	128,012
218,450	5,563	247,386	128,045
219,465	5,424	247,041	127,741
220,480	5,059	246,849	127,330
221,494	4,971	246,924	127,285
222,509	5,278	246,602	127,360
223,523	5,171	246,221	127,064
224,538	4,624	246,103	126,544
225,553	4,746	246,108	126,635
226,567	5,053	245,853	126,744
227,582	4,860	245,790	126,543
228,596	4,939	245,574	126,485
229,611	4,720	245,105	126,053
230,626	4,617	244,986	125,897
231,640	4,662	244,786	125,820
232,655	4,603	244,923	125,830
233,669	4,870	244,561	125,850
234,684	4,365	244,500	125,397
235,699	4,820	244,418	125,713
236,713	4,956	244,344	125,775
237,728	4,624	244,001	125,318
238,742	4,745	243,772	125,287
239,757	4,422	243,682	124,969
240,772	4,482	243,686	125,007
241,786	4,717	243,346	125,012
242,801	4,415	243,370	124,769
243,815	4,443	243,080	124,632
244,830	4,844	242,954	124,879
245,844	4,915	242,879	124,887
246,859	4,789	242,476	124,568
247,874	4,562	242,486	124,378
248,888	4,787	242,515	124,564
249,903	4,889	242,200	124,473
250,917	4,883	242,118	124,415
251,932	4,988	242,005	124,430
252,947	5,125	241,767	124,406
253,961	4,612	241,565	123,880
254,976	4,849	241,467	124,009
255,990	4,807	241,269	123,862
257,005	4,518	241,111	123,539
258,020	4,474	240,983	123,428
259,034	4,583	240,894	123,458
260,049	4,749	240,659	123,459
261,063	4,620	240,493	123,260
262,078	4,601	240,389	123,180
263,093	4,963	240,103	123,311
264,107	4,808	239,973	123,110
265,122	4,725	239,799	122,944
266,136	4,722	239,835	122,948
267,151	5,053	239,637	123,099
268,166	4,630	239,431	122,647
269,180	4,242	239,202	122,211
270,195	5,065	239,197	122,850
271,209	5,279	239,223	123,022
272,224	4,609	238,894	122,311
273,239	4,387	238,500	121,924
274,253	4,452	238,411	121,918
275,268	4,719	238,416	122,121
276,282	4,641	238,127	121,900
277,297	4,702	237,933	121,838
278,312	4,535	237,870	121,664
279,326	4,767	237,767	121,783
280,341	4,581	237,579	121,530
281,355	4,868	237,302	121,602
282,370	4,837	237,425	121,630
283,384	4,749	237,109	121,388
284,399	4,463	236,891	121,042
285,414	4,540	236,621	120,953
286,428	4,588	236,550	120,943
287,443	4,689	236,505	120,989
288,457	4,773	236,427	121,004
289,472	4,959	236,239	121,042
290,487	4,936	236,084	120,934
291,501	4,444	235,823	120,406
292,516	4,389	235,570	120,223
293,530	4,240	235,499	120,060
294,545	4,682	235,505	120,397
295,560	4,742	235,222	120,288
296,574	4,447	235,028	119,949
297,589	4,253	235,119	119,834
298,603	5,075	234,811	120,304
299,618	4,964	234,829	120,216
300,633	4,778	234,756	120,024
301,647	4,837	234,593	119,975
302,662	5,261	234,407	120,198
303,676	4,945	234,232	119,854
304,691	5,140	233,895	119,821
305,706	5,124	234,028	119,866
306,720	4,922	233,763	119,563
307,735	5,071	233,592	119,580
308,749	4,763	233,363	119,215
309,764	4,698	233,131	119,036
310,779	4,379	233,075	118,751
311,793	4,202	232,731	118,429
312,808	4,144	232,543	118,278
313,822	4,342	232,494	118,395
314,837	4,676	232,548	118,669
315,852	4,731	232,410	118,629
316,866	4,893	232,235	118,654
317,881	5,043	232,152	118,715
318,895	5,180	231,964	118,714
319,910	5,098	231,925	118,621
320,925	4,751	231,521	118,139
321,939	4,262	231,485	117,736
322,954	4,665	231,319	117,949
323,968	4,756	231,133	117,913
324,983	4,706	231,083	117,839
325,997	4,984	230,975	117,984
327,012	5,099	230,817	117,981
328,027	4,886	230,576	117,685
329,041	4,807	230,598	117,626
330,056	5,266	230,552	117,940
331,070	5,206	230,523	117,869
332,085	4,963	230,238	117,529
333,100	4,727	229,961	117,198
334,114	4,916	229,748	117,223
335,129	5,144	229,763	117,392
336,143	5,192	229,525	117,297
337,158	5,052	229,326	117,079
338,173	5,083	229,109	116,981
339,187	4,611	228,999	116,558
340,202	5,071	228,916	116,853
341,216	4,834	228,685	116,546
342,231	4,839	228,469	116,429
343,246	4,747	228,457	116,343
344,260	5,019	228,330	116,473
345,275	5,131	228,311	116,537
346,289	5,029	228,154	116,370
347,304	5,169	227,880	116,324
348,319	5,190	227,753	116,265
349,333	4,821	227,604	115,902
350,348	4,715	227,386	115,701
351,362	4,853	227,281	115,741
352,377	4,655	227,118	115,500
353,392	4,633	227,003	115,414
354,406	4,656	226,782	115,309
355,421	195,165	1318,623	1392,499
356,435	156,466	1451,633	1392,493
