DTS Sentinel unit serial number:	SN410029Multiplexer serial number:	ORYXHardware model number:	OX2-SRSoftware version number:	ORYX F/W v4,00 Oryx Data Collector v3.7.2.0data status	okinstallation	B5 Nyhavnadifferential loss correction	single-endedforward channel	channel 2reverse channel	N/Adate	2023/12/14time	13:22:13forward acquisition time	300,00reverse acquisition time	0,00gamma	499,1914k internal	0,3157k external	0,3157temperature offset calibration	1,0000default loss term (dB/km)	0,3820temperature slope calibration	1,0000multiplexer offset coefficient	1,0000multiplexer slope coefficient	1,0000fibre end	0,00T internal ref (°C)	8,06T ext. ref 1 (°C)	-7,74T ext. ref 2 (°C)	-7,81length (m)	temperature (°C)	Stokes	anti-Stokes-744,400	-122,440	0,174	-0,021
-743,385	-108,754	-0,372	-0,058
-742,371	800,000	0,094	0,220
-741,356	-87,380	-0,308	-0,068
-740,342	-179,816	0,287	0,004
-739,327	200,886	-0,246	-0,280
-738,312	-77,594	0,104	0,026
-737,298	-7,112	-0,332	-0,165
-736,283	-200,000	0,022	0,181
-735,269	-76,695	-0,384	-0,098
-734,254	-77,699	0,048	0,012
-733,239	-68,687	-0,504	-0,143
-732,225	522,537	0,038	0,065
-731,210	103,017	-0,107	0,092
-730,196	-200,000	-0,005	0,142
-729,181	146,556	-0,061	0,061
-728,167	-9,971	-0,025	0,012
-727,152	-200,000	-0,016	-0,077
-726,137	-99,199	-0,065	-0,012
-725,123	-61,025	-0,108	0,033
-724,108	158,781	-0,031	-0,032
-723,094	-200,000	0,032	-0,152
-722,079	613,767	-0,045	-0,083
-721,064	-200,000	0,021	-0,076
-720,050	800,000	0,041	-0,100
-719,035	800,000	-0,042	-0,112
-718,021	-200,000	0,006	0,148
-717,006	-200,000	-0,023	-0,091
-715,991	136,491	-0,098	-0,095
-714,977	-93,690	-0,148	0,030
-713,962	402,202	-0,038	-0,059
-712,948	188,359	-0,107	0,118
-711,933	98,476	0,088	-0,075
-710,918	-200,000	-0,012	0,183
-709,904	-200,000	-0,034	-0,136
-708,889	56,370	-0,162	-0,116
-707,875	-74,760	0,065	0,017
-706,860	398,544	-0,063	-0,098
-705,845	551,852	-0,032	-0,056
-704,831	800,000	-0,065	0,191
-703,816	-12,858	0,111	0,053
-702,802	599,639	-0,080	-0,147
-701,787	150,646	-0,107	-0,107
-700,772	479,973	0,062	0,103
-699,758	800,000	0,029	0,076
-698,743	705,883	0,072	-0,140
-697,729	200,456	0,071	-0,081
-696,714	276,500	0,065	-0,086
-695,699	83,566	-0,021	0,017
-694,685	19,878	-0,051	0,030
-693,670	-157,022	-0,031	-0,001
-692,656	-127,962	-0,091	0,009
-691,641	43,635	0,073	0,049
-690,627	-200,000	0,037	0,127
-689,612	137,280	-0,098	0,094
-688,597	84,510	-0,085	0,068
-687,583	298,575	0,037	-0,051
-686,568	-200,000	-0,005	0,029
-685,554	-13,470	-0,057	-0,027
-684,539	800,000	-0,046	0,097
-683,524	224,359	0,099	0,118
-682,510	-200,000	0,005	0,159
-681,495	47,078	0,093	0,064
-680,481	-200,000	0,016	-0,117
-679,466	-119,370	-0,112	0,014
-678,451	-200,000	-0,003	-0,066
-677,437	257,725	0,062	-0,079
-676,422	193,400	-0,059	-0,066
-675,408	770,109	0,029	-0,058
-674,393	264,161	0,020	-0,026
-673,378	800,000	-0,034	0,075
-672,364	106,547	-0,020	0,018
-671,349	-200,000	0,001	0,024
-670,335	189,098	0,076	0,084
-669,320	-200,000	-0,021	0,125
-668,305	-68,940	-0,076	0,021
-667,291	123,686	-0,107	0,099
-666,276	-18,098	-0,227	-0,104
-665,262	89,860	-0,058	-0,048
-664,247	-78,969	-0,087	0,022
-663,232	1,652	0,181	0,096
-662,218	800,000	0,072	0,168
-661,203	53,071	0,177	0,125
-660,189	172,873	-0,039	0,042
-659,174	533,579	-0,044	-0,078
-658,159	-6,464	-0,128	0,064
-657,145	347,831	0,045	0,065
-656,130	800,000	-0,018	0,054
-655,116	-200,000	0,005	-0,090
-654,101	203,335	-0,039	-0,044
-653,086	800,000	0,011	0,024
-652,072	24,559	-0,090	-0,054
-651,057	-200,000	0,003	-0,091
-650,043	127,091	-0,072	-0,067
-649,028	-200,000	0,005	0,060
-648,014	-81,894	0,088	-0,021
-646,999	51,786	-0,019	-0,013
-645,984	800,000	-0,063	0,193
-644,970	-84,456	-0,083	0,019
-643,955	-13,577	-0,025	-0,012
-642,941	-200,000	0,003	0,017
-641,926	105,399	0,048	0,041
-640,911	-200,000	-0,019	0,077
-639,897	-53,666	0,025	-0,008
-638,882	-200,000	0,018	-0,134
-637,868	-200,000	-0,010	-0,199
-636,853	800,000	-0,016	-0,042
-635,838	88,389	-0,035	-0,029
-634,824	-158,241	-0,120	-0,005
-633,809	-200,000	-0,004	-0,017
-632,795	-143,733	0,160	-0,011
-631,780	-5,983	-0,033	0,016
-630,765	-2,315	-0,089	-0,046
-629,751	-87,787	-0,053	0,012
-628,736	-200,000	-0,017	-0,067
-627,722	-200,000	0,002	0,044
-626,707	-154,186	0,042	-0,002
-625,692	800,000	0,058	-0,169
-624,678	78,077	-0,090	-0,070
-623,663	-200,000	0,004	0,059
-622,649	-47,936	-0,114	0,040
-621,634	27,393	0,091	0,056
-620,619	-200,000	-0,001	0,125
-619,605	-200,000	0,001	-0,158
-618,590	180,253	0,063	0,068
-617,576	-124,481	0,119	-0,013
-616,561	678,728	0,012	0,023
-615,546	-200,000	-0,005	0,134
-614,532	800,000	-0,033	0,079
-613,517	-200,000	-0,001	0,074
-612,503	-200,000	0,036	-0,130
-611,488	800,000	-0,038	0,093
-610,474	-200,000	0,040	0,000
-609,459	144,796	-0,053	0,052
-608,444	800,000	-0,058	-0,123
-607,430	-43,478	-0,192	-0,071
-606,415	28,470	0,094	-0,058
-605,401	800,000	0,081	-0,168
-604,386	-9,529	-0,109	-0,053
-603,371	-4,350	-0,022	0,011
-602,357	-110,301	0,082	0,012
-601,342	467,514	-0,060	-0,099
-600,328	-114,625	0,104	0,014
-599,313	625,501	-0,040	-0,075
-598,298	797,297	0,064	-0,130
-597,284	179,684	-0,027	0,029
-596,269	230,434	0,086	0,104
-595,255	-200,000	0,006	-0,047
-594,240	492,689	-0,038	-0,064
-593,225	-79,868	-0,176	-0,043
-592,211	-146,966	-0,166	0,010
-591,196	159,006	0,019	0,019
-590,182	55,988	-0,044	-0,031
-589,167	27,140	-0,047	-0,029
-588,152	388,538	-0,066	0,101
-587,138	-93,175	0,070	0,014
-586,123	-96,043	-0,031	0,006
-585,109	103,868	0,033	-0,029
-584,094	-200,000	0,013	0,197
-583,079	-82,597	0,161	-0,038
-582,065	-157,752	0,020	-0,001
-581,050	800,000	0,007	0,016
-580,036	800,000	-0,079	0,201
-579,021	130,127	-0,027	-0,025
-578,006	-22,254	-0,113	0,050
-576,992	-200,000	-0,018	-0,062
-575,977	-6,920	0,039	0,019
-574,963	-41,003	0,137	0,052
-573,948	-200,000	0,003	0,028
-572,934	651,646	-0,009	0,016
-571,919	-160,728	-0,169	-0,006
-570,904	-24,372	-0,036	-0,015
-569,890	142,711	-0,078	-0,076
-568,875	76,896	0,058	0,045
-567,861	-121,974	0,083	0,010
-566,846	-200,000	-0,027	0,095
-565,831	511,263	0,031	0,053
-564,817	-200,000	0,000	-0,035
-563,802	-121,680	-0,140	0,017
-562,788	203,110	-0,068	0,077
-561,773	206,541	0,057	-0,066
-560,758	205,987	-0,047	-0,053
-559,744	-48,796	-0,055	-0,019
-558,729	163,308	-0,056	0,058
-557,715	-200,000	-0,000	-0,067
-556,700	-182,035	-0,093	0,001
-555,685	800,000	0,008	-0,018
-554,671	-200,000	0,001	-0,013
-553,656	-109,140	0,095	0,015
-552,642	-47,150	-0,029	-0,010
-551,627	-200,000	-0,009	0,097
-550,612	800,000	0,016	0,038
-549,598	7,331	0,095	-0,052
-548,583	396,963	-0,049	-0,076
-547,569	-104,534	-0,052	-0,009
-546,554	-200,000	0,004	-0,058
-545,539	615,057	-0,057	-0,105
-544,525	-38,226	0,083	-0,032
-543,510	-22,602	-0,062	-0,027
-542,496	6,481	-0,072	-0,039
-541,481	414,624	0,046	0,072
-540,466	130,905	0,085	-0,079
-539,452	-96,975	0,071	-0,014
-538,437	-200,000	-0,024	-0,199
-537,423	-7,058	0,103	0,051
-536,408	32,232	-0,091	-0,058
-535,393	568,496	0,077	-0,137
-534,379	270,295	-0,064	-0,083
-533,364	-26,942	0,069	-0,029
-532,350	336,118	-0,010	-0,015
-531,335	-200,000	-0,025	0,097
-530,321	-54,606	0,069	0,023
-529,306	-200,000	0,011	-0,113
-528,291	800,000	-0,016	-0,046
-527,277	-200,000	0,010	0,058
-526,262	216,091	0,105	0,122
-525,248	-200,000	-0,001	-0,033
-524,233	197,710	0,018	-0,020
-523,218	634,478	-0,038	-0,071
-522,204	-200,000	0,034	0,213
-521,189	-32,444	-0,182	-0,074
-520,175	-28,853	-0,038	-0,016
-519,160	-74,218	0,153	0,040
-518,145	-200,000	-0,005	0,056
-517,131	6,197	-0,100	0,054
-516,116	-200,000	0,015	0,146
-515,102	131,186	0,060	0,056
-514,087	8,072	-0,089	0,049
-513,072	190,889	0,033	-0,036
-512,058	172,901	0,119	-0,126
-511,043	-200,000	-0,006	-0,026
-510,029	167,061	-0,112	0,117
-509,014	360,125	0,051	-0,074
-507,999	59,500	0,019	-0,014
-506,985	-80,279	-0,088	-0,021
-505,970	-60,313	-0,119	0,037
-504,956	800,000	0,066	0,202
-503,941	-60,379	0,101	0,031
-502,926	-200,000	0,010	0,067
-501,912	323,501	-0,044	-0,062
-500,897	95,097	0,077	0,064
-499,883	-64,409	0,088	-0,026
-498,868	-98,472	-0,075	-0,014
-497,853	-106,560	-0,079	-0,013
-496,839	105,187	-0,019	-0,016
-495,824	-200,000	0,017	0,154
-494,810	-200,000	-0,014	0,075
-493,795	523,512	0,104	0,180
-492,781	380,674	-0,021	0,032
-491,766	-163,081	-0,058	0,002
-490,751	399,132	0,020	-0,031
-489,737	6,489	-0,188	0,102
-488,722	-200,000	0,013	0,143
-487,708	800,000	0,039	-0,086
-486,693	216,192	-0,050	0,058
-485,678	-200,000	0,022	0,090
-484,664	-52,292	-0,142	-0,048
-483,649	441,808	0,032	-0,051
-482,635	389,788	0,029	0,045
-481,620	109,111	-0,102	0,089
-480,605	-23,430	-0,058	-0,025
-479,591	-200,000	-0,011	0,036
-478,576	-45,123	-0,176	0,063
-477,562	-200,000	-0,049	-0,207
-476,547	-200,000	-0,021	-0,153
-475,532	-200,000	0,011	-0,072
-474,518	-200,000	-0,001	0,093
-473,503	13,757	-0,038	-0,021
-472,489	403,062	0,065	0,099
-471,474	-166,762	-0,078	-0,002
-470,459	-200,000	0,001	-0,022
-469,445	462,557	-0,045	-0,073
-468,430	-173,580	-0,097	0,002
-467,416	263,030	0,082	0,104
-466,401	-35,568	0,059	0,023
-465,386	6,834	0,070	0,038
-464,372	297,555	-0,039	0,052
-463,357	-187,533	-0,062	-0,001
-462,343	-61,453	0,144	0,044
-461,328	-200,000	-0,012	-0,113
-460,313	437,668	0,047	-0,075
-459,299	-200,000	0,013	-0,150
-458,284	107,874	0,141	0,123
-457,270	-200,000	-0,005	0,021
-456,255	353,956	-0,057	-0,082
-455,241	800,000	0,045	-0,099
-454,226	79,334	-0,077	-0,060
-453,211	-200,000	0,011	-0,105
-452,197	-61,560	0,037	-0,011
-451,182	-200,000	-0,012	-0,094
-450,168	-45,890	-0,101	0,036
-449,153	125,381	0,032	0,029
-448,138	52,250	-0,124	-0,086
-447,124	-200,000	0,026	-0,127
-446,109	800,000	-0,015	-0,038
-445,095	-200,000	-0,006	0,096
-444,080	-200,000	-0,014	0,050
-443,065	-200,000	-0,001	-0,034
-442,051	-61,799	-0,068	0,021
-441,036	-93,532	-0,109	0,022
-440,022	800,000	0,023	0,072
-439,007	-200,000	-0,014	-0,054
-437,992	-200,000	0,125	0,000
-436,978	-73,097	0,038	-0,010
-435,963	-0,538	0,148	-0,076
-434,949	-200,000	-0,018	0,069
-433,934	-99,769	0,065	0,012
-432,919	800,000	-0,026	-0,064
-431,905	26,848	-0,060	-0,037
-430,890	-53,979	0,116	0,038
-429,876	-189,088	-0,054	0,000
-428,861	-200,000	-0,028	0,128
-427,846	-87,855	-0,134	-0,029
-426,832	284,091	-0,037	-0,049
-425,817	-200,000	-0,009	-0,068
-424,803	55,690	-0,065	-0,046
-423,788	-163,653	0,020	0,001
-422,773	403,392	0,068	-0,105
-421,759	-142,697	0,051	-0,004
-420,744	170,316	0,036	0,038
-419,730	-74,679	-0,123	-0,032
-418,715	-200,000	-0,001	0,004
-417,701	202,062	-0,039	0,043
-416,686	685,349	0,020	0,038
-415,671	-119,055	0,174	0,022
-414,657	-47,985	0,054	-0,019
-413,642	-16,931	-0,053	0,024
-412,628	29,092	-0,049	0,030
-411,613	-92,683	0,057	0,012
-410,598	-40,711	0,102	-0,038
-409,584	-200,000	0,011	0,072
-408,569	-200,000	-0,015	0,141
-407,555	23,279	0,135	0,080
-406,540	65,299	-0,084	-0,062
-405,525	32,066	0,079	0,049
-404,511	31,428	0,028	0,018
-403,496	-200,000	-0,002	-0,022
-402,482	-7,341	0,019	0,009
-401,467	87,572	0,038	0,031
-400,452	322,265	-0,044	-0,061
-399,438	199,288	-0,055	0,061
-398,423	90,440	0,097	0,079
-397,409	-121,984	0,024	-0,003
-396,394	13,508	-0,069	-0,039
-395,379	46,523	-0,025	0,017
-394,365	-200,000	0,008	0,059
-393,350	-176,664	0,129	-0,002
-392,336	170,955	-0,051	-0,053
-391,321	486,392	0,029	-0,047
-390,306	598,742	-0,029	-0,052
-389,292	366,295	-0,022	0,033
-388,277	34,675	-0,070	0,045
-387,263	44,699	-0,106	0,071
-386,248	776,884	-0,086	0,172
-385,233	60,847	-0,025	-0,018
-384,219	-66,970	0,063	-0,018
-383,204	106,681	0,017	0,015
-382,190	135,805	0,028	0,026
-381,175	-168,405	-0,090	-0,002
-380,160	246,034	-0,032	-0,039
-379,146	-86,819	0,183	-0,040
-378,131	-200,000	-0,020	0,087
-377,117	225,898	0,045	-0,053
-376,102	-117,794	-0,084	0,011
-375,088	156,029	0,107	0,108
-374,073	800,000	-0,032	0,073
-373,058	4,256	0,139	0,074
-372,044	-82,570	0,140	0,033
-371,029	800,000	0,066	-0,161
-370,015	-86,646	0,110	-0,024
-369,000	48,502	-0,066	0,045
-367,985	579,296	-0,065	-0,116
-366,971	800,000	-0,005	-0,011
-365,956	-141,120	-0,144	-0,011
-364,942	547,026	0,047	0,082
-363,927	800,000	-0,015	-0,030
-362,912	-200,000	-0,026	0,093
-361,898	-200,000	0,006	-0,112
-360,883	317,103	-0,061	-0,084
-359,869	25,554	0,128	0,077
-358,854	13,090	0,165	0,093
-357,839	-200,000	0,008	0,108
-356,825	132,431	0,064	-0,060
-355,810	99,645	0,039	0,033
-354,796	524,750	-0,053	-0,090
-353,781	146,300	0,038	-0,037
-352,766	-200,000	-0,022	-0,100
-351,752	3,783	0,094	0,050
-350,737	72,805	0,058	0,044
-349,723	-200,000	0,002	-0,015
-348,708	-200,000	0,021	-0,137
-347,693	38,992	-0,138	-0,089
-346,679	-64,730	-0,080	-0,023
-345,664	-13,836	0,049	-0,023
-344,650	372,210	-0,028	0,042
-343,635	-200,000	-0,003	0,125
-342,620	-1,154	-0,064	0,033
-341,606	-200,000	-0,040	0,242
-340,591	-94,726	-0,073	0,014
-339,577	-164,460	-0,085	-0,003
-338,562	-200,000	-0,011	0,039
-337,548	86,231	0,060	0,048
-336,533	-82,205	-0,064	-0,015
-335,518	218,389	0,044	0,051
-334,504	578,590	0,017	-0,030
-333,489	-200,000	-0,004	-0,082
-332,475	-41,305	-0,041	-0,015
-331,460	-175,571	-0,137	-0,003
-330,445	106,108	-0,060	0,052
-329,431	19,477	0,038	0,022
-328,416	-68,680	0,141	-0,039
-327,402	3,467	0,125	0,066
-326,387	-200,000	0,006	0,081
-325,372	-200,000	0,002	-0,045
-324,358	-157,723	0,091	-0,004
-323,343	800,000	-0,089	-0,184
-322,329	135,445	-0,064	-0,060
-321,314	800,000	-0,027	-0,057
-320,299	46,686	0,161	-0,108
-319,285	62,649	0,063	-0,045
-318,270	61,026	0,021	0,015
-317,256	112,876	-0,071	0,062
-316,241	800,000	-0,029	0,074
-315,226	-200,000	-0,023	0,094
-314,212	-20,545	0,067	-0,030
-313,197	800,000	-0,014	0,038
-312,183	-4,516	-0,089	-0,045
-311,168	469,901	0,034	-0,055
-310,153	-129,974	-0,122	-0,012
-309,139	51,805	0,031	-0,021
-308,124	800,000	0,025	0,060
-307,110	15,600	0,064	-0,036
-306,095	-200,000	0,011	0,108
-305,080	-200,000	0,034	0,134
-304,066	-44,764	-0,182	-0,066
-303,051	-64,717	-0,016	0,005
-302,037	6,846	0,167	0,090
-301,022	-76,804	-0,089	-0,022
-300,008	-114,078	0,094	0,013
-298,993	-200,000	0,014	-0,137
-297,978	-112,326	-0,014	0,002
-296,964	417,419	0,023	0,036
-295,949	162,810	0,077	0,079
-294,935	-1,251	-0,095	-0,049
-293,920	-23,608	-0,070	-0,030
-292,905	3,574	-0,061	-0,032
-291,891	-200,000	0,020	-0,069
-290,876	-105,370	-0,071	0,012
-289,862	-200,000	-0,005	-0,114
-288,847	72,236	-0,096	0,072
-287,832	-200,000	-0,005	0,049
-286,818	-141,911	-0,042	-0,003
-285,803	103,893	0,012	-0,010
-284,789	4,579	0,054	0,029
-283,774	91,458	-0,047	0,038
-282,759	-64,098	-0,078	0,023
-281,745	246,909	0,045	-0,055
-280,730	24,517	0,041	-0,024
-279,716	85,966	-0,025	-0,020
-278,701	-16,448	0,112	-0,051
-277,686	-200,000	-0,024	0,089
-276,672	128,240	-0,047	0,044
-275,657	800,000	0,021	-0,060
-274,643	278,160	0,061	-0,079
-273,628	800,000	-0,040	-0,110
-272,613	-52,998	-0,105	-0,035
-271,599	-200,000	0,000	-0,009
-270,584	159,941	0,117	-0,119
-269,570	800,000	0,017	0,036
-268,555	-108,322	0,149	-0,023
-267,540	-73,124	-0,037	-0,010
-266,526	-200,000	-0,009	-0,118
-265,511	-81,332	-0,044	-0,010
-264,497	5,446	0,034	-0,018
-263,482	57,778	0,044	0,031
-262,467	-39,391	0,117	0,044
-261,453	-200,000	-0,013	0,092
-260,438	800,000	0,011	0,026
-259,424	800,000	0,089	-0,235
-258,409	800,000	-0,023	-0,070
-257,395	-192,129	-0,067	0,000
-256,380	800,000	0,025	0,059
-255,365	-200,000	0,027	0,120
-254,351	800,000	0,045	0,100
-253,336	800,000	0,010	-0,024
-252,322	-42,852	-0,108	-0,039
-251,307	25,957	-0,109	-0,066
-250,292	-26,701	-0,091	0,038
-249,278	-42,575	-0,031	0,011
-248,263	94,769	0,054	0,045
-247,249	-28,630	-0,142	-0,059
-246,234	800,000	0,009	0,027
-245,219	-45,665	-0,132	-0,047
-244,205	209,543	-0,064	-0,073
-243,190	-57,798	0,092	0,029
-242,176	-185,760	0,015	-0,000
-241,161	-25,641	0,134	0,057
-240,146	-36,981	0,065	-0,025
-239,132	88,565	0,077	0,062
-238,117	125,374	-0,090	-0,082
-237,103	-48,698	-0,056	-0,019
-236,088	22,106	0,056	0,033
-235,073	-150,532	-0,044	0,002
-234,059	800,000	0,049	0,155
-233,044	-44,429	-0,124	-0,045
-232,030	-200,000	0,025	0,084
-231,015	-101,395	-0,108	-0,019
-230,000	-200,000	0,013	-0,087
-228,986	-200,000	0,036	-0,116
-227,971	599,496	-0,076	-0,136
-226,957	800,000	0,023	0,048
-225,942	242,845	0,104	-0,126
-224,927	103,873	-0,072	0,061
-223,913	-200,000	0,000	0,074
-222,898	-200,000	-0,015	-0,120
-221,884	-200,000	-0,012	-0,057
-220,869	91,749	0,088	-0,072
-219,855	272,845	0,085	0,109
-218,840	57,462	-0,062	-0,044
-217,825	-91,521	0,041	-0,008
-216,811	-177,427	0,132	0,002
-215,796	800,000	0,021	-0,053
-214,782	-200,000	-0,008	0,026
-213,767	-84,890	0,065	0,015
-212,752	169,210	0,088	0,091
-211,738	-129,777	0,150	-0,015
-210,723	-200,000	0,007	0,065
-209,709	527,060	0,082	0,140
-208,694	52,522	-0,063	0,043
-207,679	-137,533	-0,163	0,013
-206,665	-200,000	0,012	0,084
-205,650	-40,451	0,125	-0,047
-204,636	354,267	0,029	-0,042
-203,621	436,360	0,077	0,122
-202,606	-150,416	-0,038	0,002
-201,592	433,500	-0,090	-0,141
-200,577	-115,912	-0,063	-0,008
-199,563	-50,740	0,049	-0,017
-198,548	37,386	-0,059	-0,038
-197,533	-200,000	-0,006	0,068
-196,519	-143,588	0,095	-0,006
-195,504	-200,000	0,026	0,093
-194,490	16,597	-0,075	-0,043
-193,475	-200,000	-0,008	0,049
-192,460	186,724	0,033	-0,036
-191,446	-73,919	0,104	0,027
-190,431	-9,392	0,051	0,025
-189,417	68,814	-0,090	-0,067
-188,402	34,886	0,085	0,053
-187,387	-200,000	0,007	0,102
-186,373	474,558	0,069	0,113
-185,358	-65,818	0,081	0,023
-184,344	-200,000	0,035	-0,166
-183,329	-200,000	-0,000	-0,076
-182,315	-154,404	0,134	0,006
-181,300	-139,949	-0,183	0,014
-180,285	94,046	-0,117	0,095
-179,271	-200,000	-0,003	-0,036
-178,256	9,221	0,041	-0,022
-177,242	364,441	-0,083	0,121
-176,227	124,892	0,092	0,084
-175,212	61,913	0,041	-0,029
-174,198	102,007	-0,073	-0,061
-173,183	18,475	0,024	-0,014
-172,169	645,461	-0,085	-0,157
-171,154	-200,000	-0,006	-0,034
-170,139	695,282	0,050	0,094
-169,125	81,422	0,032	0,025
-168,110	-200,000	-0,000	0,018
-167,096	130,222	0,104	0,096
-166,081	205,465	-0,118	-0,132
-165,066	45,926	-0,050	0,033
-164,052	-63,409	0,073	-0,022
-163,037	-162,129	0,075	0,003
-162,023	-132,534	-0,038	-0,003
-161,008	-66,740	0,064	0,018
-159,993	800,000	0,068	-0,170
-158,979	800,000	-0,009	0,023
-157,964	800,000	-0,006	-0,016
-156,950	164,494	-0,030	0,030
-155,935	-81,017	0,109	0,026
-154,920	25,081	0,002	-0,001
-153,906	800,000	0,017	-0,051
-152,891	-86,816	-0,018	-0,004
-151,877	416,872	-0,112	0,173
-150,862	437,059	-0,018	0,028
-149,847	-200,000	0,001	-0,038
-148,833	-13,991	-0,120	-0,056
-147,818	-122,247	-0,086	0,010
-146,804	622,994	0,027	0,048
-145,789	325,309	0,006	-0,009
-144,775	450,067	-0,091	0,145
-143,760	-128,084	-0,077	0,008
-142,745	800,000	-0,038	0,100
-141,731	73,789	0,034	-0,026
-140,716	-200,000	-0,019	0,118
-139,702	292,059	0,039	0,052
-138,687	-200,000	0,003	-0,038
-137,672	600,020	-0,046	0,082
-136,658	123,401	-0,072	0,065
-135,643	522,218	-0,048	-0,082
-134,629	-149,765	0,061	-0,003
-133,614	141,106	0,017	-0,016
-132,599	-146,900	-0,043	0,003
-131,585	-77,046	-0,080	0,020
-130,570	-200,000	0,062	-0,225
-129,556	-200,000	-0,030	0,096
-128,541	-79,301	-0,038	-0,009
-127,526	445,632	0,055	-0,087
-126,512	-200,000	0,011	-0,072
-125,497	-47,233	-0,101	-0,035
-124,483	-71,121	0,030	-0,008
-123,468	-200,000	-0,003	0,036
-122,453	800,000	-0,021	-0,066
-121,439	19,329	0,064	-0,037
-120,424	405,168	0,089	0,135
-119,410	-108,615	-0,053	0,008
-118,395	-200,000	0,005	0,080
-117,380	-33,516	-0,138	0,055
-116,366	-41,080	-0,072	-0,026
-115,351	70,153	-0,054	0,040
-114,337	115,165	0,053	-0,047
-113,322	800,000	-0,050	-0,143
-112,307	-103,046	0,060	0,010
-111,293	157,713	0,055	-0,055
-110,278	-200,000	-0,009	-0,096
-109,264	-200,000	0,030	0,149
-108,249	800,000	0,028	0,071
-107,234	63,697	-0,071	0,051
-106,220	223,434	-0,104	-0,120
-105,205	270,499	0,089	0,112
-104,191	114,336	-0,029	-0,025
-103,176	-200,000	-0,012	-0,076
-102,162	-74,087	0,085	0,022
-101,147	-130,018	0,019	0,002
-100,132	-93,114	0,054	-0,011
-99,118	-177,284	-0,076	0,001
-98,103	800,000	0,026	0,079
-97,089	14,007	0,024	-0,013
-96,074	118,293	0,085	-0,075
-95,059	-200,000	-0,001	-0,029
-94,045	-107,424	0,081	-0,013
-93,030	-200,000	0,000	0,022
-92,016	-200,000	-0,028	-0,121
-91,001	800,000	-0,061	0,134
-89,986	800,000	0,022	0,054
-88,972	223,720	-0,031	-0,036
-87,957	-200,000	-0,020	0,133
-86,943	-200,000	-0,024	0,095
-85,928	39,794	-0,041	0,026
-84,913	-61,020	-0,102	-0,031
-83,899	212,711	-0,017	0,020
-82,884	-29,072	-0,096	-0,039
-81,870	296,767	-0,066	0,087
-80,855	-200,000	0,001	0,084
-79,840	-113,741	0,060	-0,008
-78,826	-99,789	-0,071	0,013
-77,811	-200,000	0,025	-0,086
-76,797	-94,588	0,091	-0,018
-75,782	-200,000	0,001	0,029
-74,767	800,000	0,051	0,116
-73,753	136,259	0,035	0,033
-72,738	800,000	0,017	-0,039
-71,724	536,128	-0,065	0,112
-70,709	608,628	-0,037	0,067
-69,694	-200,000	0,009	-0,047
-68,680	45,279	0,153	0,101
-67,665	40,882	0,094	0,061
-66,651	177,690	0,126	0,132
-65,636	800,000	0,043	0,112
-64,622	92,906	0,128	-0,104
-63,607	94,618	-0,092	-0,075
-62,592	12,128	0,106	-0,058
-61,578	11,231	-0,054	0,030
-60,563	-68,862	0,091	-0,025
-59,549	356,194	-0,081	0,116
-58,534	76,364	-2,637	-2,004
-57,519	154,288	0,351	-0,346
-56,505	800,000	-1,758	-5,431
-55,490	438,153	1,321	2,076
-54,476	800,000	5,203	11,248
-53,461	-200,000	22,166	347,321
-52,446	800,000	760,260	2299,751
-51,432	515,473	1646,550	2770,854
-50,417	98,579	1610,392	1332,442
-49,403	66,619	1267,313	924,111
-48,388	23,423	1017,997	599,285
-47,373	19,278	985,348	566,368
-46,359	12,896	972,356	537,993
-45,344	8,714	968,891	522,352
-44,330	9,198	966,833	522,805
-43,315	8,109	965,208	518,347
-42,300	8,115	964,142	517,772
-41,286	8,084	962,997	517,035
-40,271	8,136	961,893	516,593
-39,257	8,088	961,055	515,968
-38,242	8,091	960,255	515,525
-37,227	8,093	959,552	515,135
-36,213	8,080	958,812	514,674
-35,198	8,078	957,731	514,067
-34,184	8,155	957,100	513,959
-33,169	8,027	956,028	512,949
-32,154	8,109	955,203	512,749
-31,140	8,095	954,355	512,228
-30,125	8,122	953,543	511,858
-29,111	8,097	952,619	511,265
-28,096	8,122	952,181	511,089
-27,082	8,173	951,293	510,756
-26,067	8,079	950,820	510,180
-25,052	8,116	949,840	509,753
-24,038	8,059	949,284	509,249
-23,023	8,159	948,370	509,059
-22,009	8,092	948,135	508,699
-20,994	8,018	947,359	508,025
-19,979	8,060	946,858	507,872
-18,965	8,064	945,924	507,363
-17,950	8,060	945,386	507,043
-16,936	8,010	944,904	506,602
-15,921	8,111	944,067	506,457
-14,906	8,004	943,358	505,714
-13,892	7,984	942,706	505,282
-12,877	7,952	942,109	504,839
-11,863	7,972	941,671	504,649
-10,848	8,000	940,864	504,285
-9,833	8,109	940,600	504,470
-8,819	8,032	939,818	503,785
-7,804	8,002	939,071	503,271
-6,790	7,913	938,802	502,822
-5,775	8,025	938,109	502,788
-4,760	8,015	937,605	502,464
-3,746	7,972	937,067	502,022
-2,731	7,848	936,157	501,122
-1,717	7,796	935,627	500,654
-0,702	7,799	934,976	500,295
0,313	7,628	934,253	500,121
1,327	11,124	931,891	509,837
2,342	19,818	780,246	449,668
3,356	14,895	448,521	251,048
4,371	-11,429	313,273	147,284
5,386	-14,870	295,552	135,455
6,400	-17,066	289,610	130,538
7,415	-17,295	286,965	129,109
8,429	-18,144	285,079	127,418
9,444	-18,270	284,234	126,907
10,459	-17,912	283,412	126,876
11,473	-18,307	282,947	126,273
12,488	-17,966	282,272	126,291
13,502	-18,018	281,918	126,071
14,517	-18,083	281,472	125,797
15,531	-18,238	281,046	125,446
16,546	-18,065	280,696	125,446
17,561	-18,252	280,223	125,044
18,575	-18,089	279,843	125,019
19,590	-18,301	279,713	124,747
20,604	-18,017	279,017	124,697
21,619	-18,226	278,910	124,438
22,634	-18,115	278,519	124,358
23,648	-18,141	278,266	124,210
24,663	-18,179	277,960	124,025
25,677	-18,175	277,731	123,916
26,692	-18,023	277,368	123,888
27,707	-18,224	277,266	123,640
28,721	-18,146	276,801	123,496
29,736	-17,975	276,586	123,551
30,750	-18,237	276,394	123,206
31,765	-18,044	276,008	123,205
32,780	-18,194	275,859	122,986
33,794	-18,044	275,457	122,937
34,809	-18,133	275,401	122,817
35,823	-18,029	274,974	122,714
36,838	-18,161	274,725	122,468
37,853	-18,028	274,428	122,450
38,867	-18,186	274,262	122,216
39,882	-18,102	273,945	122,142
40,896	-17,992	273,674	122,114
41,911	-18,085	273,447	121,915
42,926	-18,197	273,231	121,703
43,940	-17,917	272,986	121,845
44,955	-18,154	272,741	121,503
45,969	-18,286	272,527	121,274
46,984	-18,070	272,378	121,399
47,999	-18,095	272,222	121,295
49,013	-17,965	271,889	121,256
50,028	-17,917	271,759	121,232
51,042	-17,980	271,488	121,042
52,057	-18,128	271,247	120,786
53,071	-18,013	271,055	120,797
54,086	-18,015	270,785	120,664
55,101	-18,049	270,630	120,552
56,115	-18,043	270,423	120,455
57,130	-18,082	270,101	120,265
58,144	-18,124	269,721	120,046
59,159	-18,169	269,607	119,944
60,174	-18,016	269,345	119,957
61,188	-18,046	269,214	119,860
62,203	-18,279	268,988	119,534
63,217	-18,044	268,756	119,636
64,232	-18,303	268,656	119,344
65,247	-18,013	268,277	119,430
66,261	-18,139	267,977	119,171
67,276	-17,934	267,599	119,180
68,290	-17,986	267,465	119,061
69,305	-17,935	267,346	119,045
70,320	-17,974	267,072	118,877
71,334	-17,987	266,660	118,671
72,349	-18,007	266,591	118,611
73,363	-17,978	266,414	118,548
74,378	-18,064	266,074	118,309
75,393	-17,947	265,918	118,335
76,407	-18,146	265,830	118,104
77,422	-18,168	265,639	117,989
78,436	-18,057	265,217	117,891
79,451	-18,191	264,914	117,626
80,466	-18,092	264,863	117,682
81,480	-17,890	264,560	117,719
82,495	-18,114	264,374	117,424
83,509	-18,030	264,263	117,440
84,524	-18,080	264,004	117,269
85,539	-18,185	263,854	117,098
86,553	-17,902	263,333	117,110
87,568	-18,070	263,302	116,935
88,582	-18,057	263,084	116,839
89,597	-17,876	262,891	116,905
90,611	-18,033	262,819	116,722
91,626	-18,159	262,686	116,540
92,641	-17,949	262,211	116,507
93,655	-18,190	262,146	116,252
94,670	-18,074	261,820	116,201
95,684	-18,054	261,748	116,176
96,699	-18,117	261,386	115,949
97,714	-17,863	261,217	116,090
98,728	-18,059	261,042	115,827
99,743	-17,804	260,810	115,940
100,757	-18,051	260,732	115,676
101,772	-17,971	260,453	115,613
102,787	-17,982	260,219	115,489
103,801	-17,912	259,929	115,412
104,816	-18,097	259,972	115,257
105,830	-17,800	259,521	115,309
106,845	-17,876	259,501	115,223
107,860	-17,933	259,177	115,018
108,874	-17,992	259,071	114,909
109,889	-18,018	258,840	114,774
110,903	-17,903	258,659	114,785
111,918	-17,723	258,275	114,762
112,933	-17,973	258,285	114,536
113,947	-18,098	258,123	114,344
114,962	-17,917	257,731	114,319
115,976	-17,879	257,617	114,291
116,991	-17,895	257,283	114,119
118,006	-17,892	257,149	114,052
119,020	-17,876	256,945	113,966
120,035	-18,041	256,836	113,763
121,049	-17,925	256,659	113,776
122,064	-18,006	256,494	113,622
123,079	-17,947	256,283	113,570
124,093	-17,982	255,921	113,369
125,108	-17,869	255,725	113,370
126,122	-18,002	255,774	113,266
127,137	-17,828	255,471	113,273
128,151	-17,695	255,323	113,312
129,166	-18,014	254,989	112,878
130,181	-17,829	254,768	112,930
131,195	-17,868	254,732	112,870
132,210	-17,937	254,367	112,639
133,224	-17,975	254,313	112,572
134,239	-17,845	254,155	112,604
135,254	-17,958	253,965	112,413
136,268	-17,683	253,567	112,463
137,283	-17,914	253,475	112,214
138,297	-17,875	253,417	112,212
139,312	-17,888	252,963	111,989
140,327	-17,687	252,800	112,080
141,341	-17,730	252,492	111,896
142,356	-17,828	252,459	111,788
143,370	-17,768	252,233	111,729
144,385	-17,796	252,125	111,647
145,400	-17,999	251,774	111,308
146,414	-17,901	251,697	111,348
147,429	-17,857	251,480	111,279
148,443	-17,802	251,202	111,194
149,458	-17,977	251,243	111,053
150,473	-17,863	251,006	111,035
151,487	-17,849	250,767	110,931
152,502	-17,872	250,645	110,848
153,516	-17,886	250,324	110,684
154,531	-18,098	250,263	110,468
155,546	-17,918	250,142	110,557
156,560	-17,871	249,959	110,506
157,575	-17,715	249,607	110,473
158,589	-18,045	249,533	110,151
159,604	-17,878	249,285	110,173
160,619	-17,744	249,024	110,161
161,633	-17,697	248,999	110,179
162,648	-17,757	248,760	110,013
163,662	-17,898	248,565	109,798
164,677	-17,968	248,637	109,762
165,692	-17,872	248,153	109,619
166,706	-17,785	248,079	109,649
167,721	-17,872	247,975	109,521
168,735	-17,687	247,641	109,518
169,750	-17,782	247,552	109,389
170,764	-17,891	247,539	109,283
171,779	-17,817	247,334	109,244
172,794	-17,754	247,133	109,199
173,808	-17,899	246,957	108,990
174,823	-17,689	246,730	109,055
175,837	-17,844	246,540	108,832
176,852	-17,945	246,457	108,702
177,867	-17,763	246,243	108,749
178,881	-17,845	246,160	108,635
179,896	-17,909	246,003	108,502
180,910	-17,861	245,804	108,444
181,925	-17,810	245,491	108,339
182,940	-17,765	245,304	108,285
183,954	-17,865	245,192	108,142
184,969	-17,870	245,113	108,094
185,983	-17,838	244,939	108,034
186,998	-17,587	244,634	108,098
188,013	-17,795	244,352	107,792
189,027	-17,776	244,369	107,805
190,042	-17,687	244,049	107,728
191,056	-17,810	244,095	107,637
192,071	-17,788	243,891	107,556
193,086	-17,843	243,682	107,408
194,100	-17,821	243,365	107,277
195,115	-17,656	243,200	107,331
196,129	-17,883	242,949	107,024
197,144	-17,928	242,852	106,935
198,159	-17,881	242,720	106,906
199,173	-17,747	242,465	106,893
200,188	-17,829	242,304	106,746
201,202	-17,761	242,038	106,675
202,217	-17,672	241,967	106,707
203,232	-17,713	241,811	106,595
204,246	-17,703	241,582	106,492
205,261	-17,644	241,395	106,449
206,275	-16,058	241,992	107,996
207,290	-10,989	243,849	112,978
208,304	-5,106	245,696	118,681
209,319	-3,196	245,965	120,377
210,334	-2,418	246,072	121,060
211,348	-1,840	246,276	121,626
212,363	-1,209	246,251	122,123
213,377	-0,601	246,396	122,685
214,392	0,037	246,433	123,219
215,407	0,528	246,313	123,553
216,421	0,435	246,287	123,451
217,436	0,544	246,061	123,416
218,450	0,578	245,891	123,349
219,465	0,765	245,805	123,448
220,480	0,628	245,708	123,276
221,494	0,551	245,553	123,124
222,509	0,381	245,345	122,869
223,523	0,063	244,941	122,396
224,538	0,098	244,801	122,343
225,553	0,086	244,759	122,302
226,567	0,222	244,421	122,233
227,582	0,023	244,333	122,016
228,596	0,026	244,144	121,913
229,611	0,055	244,014	121,861
230,626	0,133	243,829	121,821
231,640	0,096	243,755	121,743
232,655	0,084	243,379	121,535
233,669	0,072	243,190	121,420
234,684	-0,123	243,136	121,223
235,699	0,118	243,039	121,360
236,713	0,242	242,825	121,343
237,728	0,152	242,676	121,185
238,742	0,023	242,583	121,023
239,757	0,161	242,385	121,025
240,772	0,235	242,065	120,914
241,786	0,101	241,993	120,759
242,801	0,073	241,947	120,703
243,815	0,052	241,828	120,616
244,830	0,061	241,593	120,495
245,844	-0,060	241,410	120,295
246,859	0,039	241,184	120,252
247,874	0,206	241,016	120,292
248,888	0,132	240,955	120,191
249,903	0,057	240,863	120,074
250,917	-0,055	240,839	119,961
251,932	0,087	240,624	119,958
252,947	0,269	240,360	119,961
253,961	0,022	240,257	119,701
254,976	0,099	240,000	119,625
255,990	0,051	239,864	119,507
257,005	0,013	239,680	119,374
258,020	0,121	239,508	119,364
259,034	0,172	239,435	119,358
260,049	0,171	239,181	119,220
261,063	-0,123	239,101	118,936
262,078	-0,071	238,924	118,878
263,093	0,134	238,529	118,834
264,107	0,090	238,546	118,797
265,122	-0,069	238,519	118,647
266,136	0,045	238,377	118,656
267,151	0,152	238,161	118,622
268,166	0,182	237,929	118,520
269,180	0,022	237,822	118,329
270,195	0,259	237,506	118,349
271,209	0,076	237,438	118,160
272,224	0,287	237,312	118,253
273,239	0,026	237,315	118,038
274,253	0,015	237,079	117,902
275,268	0,073	236,807	117,802
276,282	0,149	236,802	117,849
277,297	0,026	236,484	117,583
278,312	0,067	236,519	117,623
279,326	0,318	236,385	117,742
280,341	0,363	236,157	117,654
281,355	0,280	236,080	117,540
282,370	0,242	235,787	117,354
283,384	0,315	235,642	117,328
284,399	0,294	235,550	117,255
285,414	0,118	235,524	117,094
286,428	0,125	235,233	116,944
287,443	0,186	235,097	116,914
288,457	0,291	234,896	116,885
289,472	0,135	234,785	116,698
290,487	0,219	234,622	116,673
291,501	0,323	234,467	116,666
292,516	0,262	234,255	116,503
293,530	0,276	234,313	116,532
294,545	0,220	234,113	116,378
295,560	0,199	233,957	116,274
296,574	0,327	233,788	116,280
297,589	0,193	233,613	116,078
298,603	0,293	233,353	116,016
299,618	0,389	233,261	116,034
300,633	0,359	233,268	116,004
301,647	0,220	233,167	115,836
302,662	0,387	233,108	115,925
303,676	0,395	232,729	115,733
304,691	0,497	232,549	115,711
305,706	0,287	232,510	115,520
306,720	0,419	232,452	115,582
307,735	0,263	232,317	115,385
308,749	0,357	232,070	115,324
309,764	0,577	231,834	115,366
310,779	0,237	231,834	115,094
311,793	0,098	231,688	114,905
312,808	0,171	231,537	114,875
313,822	0,211	231,371	114,814
314,837	0,434	231,208	114,893
315,852	0,561	231,077	114,915
316,866	0,376	230,923	114,687
317,881	0,378	230,643	114,540
318,895	0,631	230,471	114,637
319,910	0,574	230,258	114,477
320,925	0,591	230,133	114,418
321,939	0,475	230,174	114,340
322,954	0,433	230,093	114,257
323,968	0,504	229,917	114,213
324,983	0,643	229,748	114,225
325,997	0,479	229,443	113,939
327,012	0,500	229,235	113,841
328,027	0,377	229,263	113,751
329,041	0,324	229,030	113,586
330,056	0,434	228,994	113,641
331,070	0,469	228,829	113,576
332,085	0,516	228,682	113,528
333,100	0,631	228,452	113,490
334,114	0,574	228,362	113,392
335,129	0,451	228,283	113,251
336,143	0,509	227,978	113,133
337,158	0,555	227,980	113,159
338,173	0,678	227,710	113,107
339,187	0,714	227,716	113,127
340,202	0,676	227,452	112,957
341,216	0,435	227,420	112,750
342,231	0,546	227,219	112,724
343,246	0,484	227,162	112,639
344,260	0,621	226,985	112,644
345,275	0,564	226,884	112,541
346,289	0,606	226,769	112,506
347,304	0,614	226,492	112,363
348,319	0,491	226,411	112,222
349,333	0,688	226,239	112,273
350,348	0,554	226,087	112,088
351,362	0,690	226,029	112,151
352,377	0,777	225,905	112,144
353,392	0,529	225,734	111,865
354,406	0,566	225,574	111,803
355,421	192,586	1312,490	1379,672
356,435	154,282	1444,773	1379,517
