DTS Sentinel unit serial number:	SN410029Multiplexer serial number:	ORYXHardware model number:	OX2-SRSoftware version number:	ORYX F/W v4,00 Oryx Data Collector v3.7.2.0data status	okinstallation	B5 Nyhavnadifferential loss correction	single-endedforward channel	channel 2reverse channel	N/Adate	2023/12/13time	09:32:13forward acquisition time	300,00reverse acquisition time	0,00gamma	499,1914k internal	0,3160k external	0,3160temperature offset calibration	1,0000default loss term (dB/km)	0,3820temperature slope calibration	1,0000multiplexer offset coefficient	1,0000multiplexer slope coefficient	1,0000fibre end	0,00T internal ref (°C)	13,67T ext. ref 1 (°C)	-2,73T ext. ref 2 (°C)	-3,03length (m)	temperature (°C)	Stokes	anti-Stokes-744,400	211,843	0,057	0,067
-743,385	133,304	-0,156	0,148
-742,371	16,886	0,161	0,094
-741,356	-122,524	-0,298	-0,035
-740,342	-169,757	0,081	-0,002
-739,327	-78,263	-0,367	-0,092
-738,312	66,076	0,112	0,083
-737,298	-118,754	-0,358	-0,046
-736,283	-16,758	0,072	-0,033
-735,269	-110,150	-0,305	0,046
-734,254	206,681	0,058	-0,066
-733,239	1,650	-0,501	-0,265
-732,225	62,502	0,160	0,118
-731,210	341,428	0,056	0,081
-730,196	267,121	-0,033	0,042
-729,181	657,056	0,079	0,151
-728,167	-104,881	-0,148	0,025
-727,152	-200,000	0,004	-0,087
-726,137	422,799	-0,051	-0,080
-725,123	208,748	-0,012	-0,014
-724,108	-200,000	0,016	-0,060
-723,094	-200,000	0,010	-0,095
-722,079	-200,000	-0,020	0,083
-721,064	-73,255	0,038	-0,010
-720,050	-200,000	0,026	0,131
-719,035	-95,824	-0,161	0,031
-718,021	-54,739	0,107	-0,035
-717,006	-200,000	0,006	-0,092
-715,991	-17,019	-0,058	0,027
-714,977	-39,750	-0,038	-0,015
-713,962	-42,274	0,211	-0,079
-712,948	-35,339	-0,146	0,058
-711,933	-171,460	-0,057	-0,001
-710,918	533,500	-0,025	-0,044
-709,904	-168,729	-0,089	0,002
-708,889	-52,143	-0,117	0,040
-707,875	-5,071	-0,077	-0,039
-706,860	800,000	-0,023	0,069
-705,845	-134,401	0,061	-0,005
-704,831	45,552	-0,026	0,018
-703,816	-200,000	0,021	0,107
-702,802	71,655	-0,110	0,084
-701,787	-153,753	-0,049	0,002
-700,772	433,082	0,027	-0,043
-699,758	420,613	-0,079	-0,125
-698,743	284,914	0,054	-0,071
-697,729	-200,000	0,005	-0,037
-696,714	-61,369	-0,081	-0,025
-695,699	-200,000	-0,006	-0,084
-694,685	154,642	-0,051	-0,052
-693,670	230,980	-0,031	-0,038
-692,656	800,000	-0,060	-0,180
-691,641	46,111	0,048	-0,033
-690,627	-200,000	0,020	-0,068
-689,612	-152,875	0,082	-0,004
-688,597	16,435	-0,118	0,068
-687,583	-109,545	0,110	-0,017
-686,568	332,599	-0,092	0,131
-685,554	-67,299	-0,132	0,038
-684,539	3,719	-0,076	0,041
-683,524	-198,660	0,091	0,000
-682,510	583,301	-0,023	-0,042
-681,495	423,184	-0,032	0,050
-680,481	602,653	0,045	-0,083
-679,466	-200,000	-0,001	-0,032
-678,451	17,605	0,078	-0,046
-677,437	-200,000	0,060	-0,197
-676,422	376,887	0,032	0,049
-675,408	747,020	0,059	0,117
-674,393	370,003	-0,067	-0,100
-673,378	-99,590	0,065	-0,012
-672,364	329,155	-0,033	-0,047
-671,349	411,049	-0,137	-0,214
-670,335	-28,422	-0,076	0,032
-669,320	-53,224	0,154	-0,051
-668,305	-101,272	0,084	0,015
-667,291	800,000	-0,045	-0,134
-666,276	79,082	-0,031	0,024
-665,262	-179,541	-0,085	0,001
-664,247	-74,164	-0,107	-0,028
-663,232	-36,547	0,071	-0,028
-662,218	-33,468	0,119	0,048
-661,203	-64,812	-0,102	0,030
-660,189	344,224	0,032	-0,047
-659,174	182,002	-0,078	-0,085
-658,159	72,163	-0,050	-0,038
-657,145	-200,000	0,011	-0,086
-656,130	27,592	0,053	0,032
-655,116	-200,000	0,007	0,063
-654,101	-115,118	0,099	-0,014
-653,086	-200,000	-0,009	0,032
-652,072	226,641	-0,041	-0,049
-651,057	-188,042	0,075	0,001
-650,043	135,818	-0,080	0,077
-649,028	-200,000	0,003	-0,154
-648,014	-16,982	0,013	-0,006
-646,999	145,163	0,066	-0,064
-645,984	-200,000	0,000	-0,158
-644,970	223,889	0,009	-0,011
-643,955	-23,790	0,021	-0,009
-642,941	-200,000	0,014	-0,130
-641,926	72,238	0,019	0,014
-640,911	202,726	-0,104	0,118
-639,897	-200,000	-0,019	0,062
-638,882	-44,453	0,070	-0,025
-637,868	124,980	-0,114	-0,106
-636,853	425,140	-0,062	-0,098
-635,838	-200,000	-0,007	0,078
-634,824	226,642	0,090	-0,107
-633,809	117,239	0,019	-0,017
-632,795	164,605	-0,070	-0,072
-631,780	-149,918	0,041	-0,002
-630,765	246,263	-0,093	-0,115
-629,751	-200,000	0,033	-0,161
-628,736	514,351	0,027	-0,047
-627,722	-200,000	-0,029	-0,112
-626,707	-140,465	0,078	-0,006
-625,692	-90,988	0,089	-0,019
-624,678	-50,480	-0,021	0,007
-623,663	-200,000	-0,000	0,072
-622,649	800,000	0,029	0,068
-621,634	69,565	-0,084	-0,064
-620,619	-200,000	0,030	-0,120
-619,605	-200,000	-0,013	-0,164
-618,590	67,220	0,159	-0,119
-617,576	269,896	0,060	0,078
-616,561	4,679	0,132	-0,071
-615,546	-200,000	0,002	-0,061
-614,532	-143,169	0,018	-0,001
-613,517	760,766	-0,040	-0,080
-612,503	328,791	0,074	0,104
-611,488	169,937	-0,062	-0,065
-610,474	800,000	0,012	0,025
-609,459	-200,000	-0,013	-0,089
-608,444	220,975	0,060	-0,070
-607,430	340,438	-0,094	-0,134
-606,415	262,412	-0,134	-0,170
-605,401	287,639	0,021	0,028
-604,386	-200,000	0,007	-0,123
-603,371	111,556	-0,098	0,087
-602,357	-200,000	-0,029	0,136
-601,342	67,125	-0,102	-0,076
-600,328	134,328	-0,043	-0,041
-599,313	-84,445	-0,079	0,018
-598,298	-56,564	0,058	0,019
-597,284	-112,526	0,162	0,023
-596,269	55,159	0,063	-0,044
-595,255	-200,000	0,032	0,176
-594,240	-200,000	-0,034	0,132
-593,225	217,166	0,032	0,037
-592,211	-200,000	-0,006	-0,087
-591,196	800,000	0,020	-0,054
-590,182	800,000	0,029	-0,065
-589,167	-200,000	0,004	-0,102
-588,152	192,620	-0,028	-0,031
-587,138	-4,152	-0,104	-0,053
-586,123	-154,845	-0,060	0,003
-585,109	116,796	0,040	-0,036
-584,094	-150,184	0,055	-0,003
-583,079	145,086	0,102	0,100
-582,065	283,045	0,103	0,136
-581,050	94,352	0,043	0,036
-580,036	142,935	-0,075	0,073
-579,021	-37,663	-0,067	0,026
-578,006	800,000	-0,024	-0,077
-576,992	-200,000	-0,010	0,081
-575,977	-159,383	0,150	-0,006
-574,963	800,000	0,048	0,102
-573,948	-200,000	-0,014	-0,055
-572,934	-52,325	0,152	-0,051
-571,919	800,000	-0,021	-0,043
-570,904	-75,421	-0,173	-0,045
-569,890	800,000	-0,015	0,037
-568,875	98,769	0,068	-0,057
-567,861	-57,958	0,119	0,038
-566,846	39,622	0,056	0,037
-565,831	6,844	-0,062	-0,034
-564,817	-34,640	0,003	0,001
-563,802	800,000	0,005	-0,012
-562,788	-12,813	0,068	-0,032
-561,773	121,710	-0,046	-0,042
-560,758	120,134	0,124	0,112
-559,744	-86,482	0,046	0,010
-558,729	42,600	-0,059	0,039
-557,715	-200,000	0,022	-0,101
-556,700	-71,010	-0,140	0,038
-555,685	194,369	0,107	-0,119
-554,671	351,693	-0,036	0,052
-553,656	-29,019	-0,038	-0,016
-552,642	112,133	0,048	-0,042
-551,627	-200,000	-0,003	0,013
-550,612	-200,000	0,014	-0,128
-549,598	800,000	0,068	-0,154
-548,583	6,632	0,033	-0,018
-547,569	-200,000	-0,001	0,099
-546,554	800,000	0,040	0,081
-545,539	800,000	-0,035	0,086
-544,525	-50,704	-0,076	-0,026
-543,510	7,835	-0,070	0,038
-542,496	800,000	0,069	-0,142
-541,481	-158,294	0,058	-0,002
-540,466	255,702	-0,026	0,032
-539,452	800,000	0,011	0,027
-538,437	800,000	0,028	-0,075
-537,423	-53,993	0,044	0,015
-536,408	800,000	0,041	-0,097
-535,393	800,000	-0,046	0,104
-534,379	-200,000	-0,016	-0,094
-533,364	785,666	-0,056	0,113
-532,350	227,311	0,047	0,055
-531,335	19,370	0,045	-0,027
-530,321	-200,000	-0,006	0,022
-529,306	247,432	0,152	-0,188
-528,291	30,905	-0,033	0,021
-527,277	-200,000	-0,017	-0,097
-526,262	559,397	-0,037	-0,066
-525,248	-106,539	-0,133	0,021
-524,233	-142,731	0,047	0,003
-523,218	70,962	-0,102	-0,077
-522,204	-200,000	-0,025	0,103
-521,189	-13,885	-0,095	-0,045
-520,175	-32,346	-0,064	0,026
-519,160	-40,766	-0,051	0,019
-518,145	128,442	0,118	-0,110
-517,131	34,317	0,078	-0,049
-516,116	147,044	0,052	-0,051
-515,102	-117,541	0,075	0,010
-514,087	-40,547	-0,065	0,024
-513,072	800,000	-0,019	-0,041
-512,058	-200,000	-0,010	0,054
-511,043	-90,702	0,079	0,016
-510,029	-200,000	-0,003	0,043
-509,014	383,594	-0,054	-0,081
-507,999	372,163	-0,033	-0,049
-506,985	-200,000	0,001	0,047
-505,970	-73,154	-0,038	-0,010
-504,956	346,878	-0,047	0,067
-503,941	800,000	0,010	0,027
-502,926	-200,000	0,001	0,041
-501,912	121,932	0,033	-0,030
-500,897	-47,382	0,060	-0,021
-499,883	-59,200	-0,104	-0,032
-498,868	-72,867	-0,116	0,031
-497,853	22,769	0,049	-0,029
-496,839	295,510	0,037	-0,049
-495,824	-200,000	-0,008	-0,180
-494,810	575,604	-0,019	0,034
-493,795	-200,000	-0,000	0,103
-492,781	-200,000	0,030	0,199
-491,766	-200,000	-0,016	-0,052
-490,751	800,000	0,041	-0,092
-489,737	-200,000	-0,009	0,140
-488,722	800,000	-0,051	0,109
-487,708	-51,790	0,076	0,026
-486,693	294,876	0,008	-0,010
-485,678	-5,433	-0,080	-0,040
-484,664	-151,016	-0,089	-0,005
-483,649	532,857	0,035	-0,060
-482,635	800,000	0,014	0,040
-481,620	43,699	0,101	0,067
-480,605	800,000	-0,042	0,098
-479,591	-200,000	0,041	0,221
-478,576	-47,524	-0,063	-0,022
-477,562	-200,000	0,007	0,041
-476,547	800,000	-0,035	-0,083
-475,532	-38,358	0,148	-0,057
-474,518	112,240	0,112	0,099
-473,503	-200,000	0,007	0,116
-472,489	-106,683	-0,078	-0,012
-471,474	351,161	0,063	0,091
-470,459	800,000	-0,009	0,027
-469,445	-200,000	0,023	-0,109
-468,430	-52,406	0,016	0,005
-467,416	800,000	0,079	0,183
-466,401	118,331	-0,045	-0,040
-465,386	155,542	-0,036	0,036
-464,372	-98,780	-0,101	0,019
-463,357	-200,000	0,042	-0,192
-462,343	468,586	0,037	0,061
-461,328	-110,764	0,123	-0,018
-460,313	-200,000	0,000	0,012
-459,299	402,612	0,122	0,188
-458,284	-89,533	0,058	-0,012
-457,270	-200,000	-0,005	-0,048
-456,255	-200,000	-0,008	0,047
-455,241	-51,114	-0,015	0,005
-454,226	-200,000	0,008	-0,031
-453,211	70,259	0,090	0,068
-452,197	-173,720	0,129	0,003
-451,182	74,042	0,069	0,052
-450,168	146,850	-0,039	0,038
-449,153	-122,762	-0,103	0,012
-448,138	124,621	-0,089	-0,082
-447,124	-68,453	0,106	-0,030
-446,109	353,413	-0,048	0,070
-445,095	97,492	-0,051	-0,043
-444,080	-65,967	0,083	0,024
-443,065	800,000	0,037	0,099
-442,051	-144,159	0,022	-0,001
-441,036	800,000	-0,025	-0,070
-440,022	-15,595	-0,047	-0,022
-439,007	-118,407	-0,172	0,022
-437,992	800,000	0,021	0,057
-436,978	-200,000	-0,015	0,172
-435,963	800,000	0,020	-0,045
-434,949	800,000	-0,045	-0,100
-433,934	-135,713	0,071	-0,006
-432,919	39,748	-0,057	0,037
-431,905	-52,725	0,146	-0,049
-430,890	-200,000	-0,011	-0,135
-429,876	-56,916	0,016	-0,005
-428,861	800,000	-0,035	-0,082
-427,846	43,336	0,076	-0,050
-426,832	800,000	-0,005	-0,011
-425,817	-200,000	-0,047	0,000
-424,803	-200,000	-0,005	-0,134
-423,788	123,849	-0,062	0,056
-422,773	-102,573	0,143	-0,025
-421,759	311,945	0,043	0,059
-420,744	-200,000	0,023	-0,089
-419,730	-200,000	-0,017	-0,083
-418,715	45,246	-0,079	0,053
-417,701	-67,721	-0,088	-0,025
-416,686	-105,043	0,036	-0,006
-415,671	-200,000	-0,015	-0,070
-414,657	-94,078	-0,140	0,028
-413,642	187,371	-0,058	0,064
-412,628	493,901	-0,029	0,049
-411,613	-15,172	0,071	0,033
-410,598	73,534	0,031	0,024
-409,584	-200,000	0,027	0,100
-408,569	5,377	-0,071	-0,038
-407,555	-102,269	0,134	-0,023
-406,540	31,590	-0,061	0,038
-405,525	29,619	0,068	-0,042
-404,511	108,031	-0,060	-0,052
-403,496	800,000	-0,051	0,141
-402,482	800,000	-0,011	0,032
-401,467	-200,000	0,001	-0,025
-400,452	253,377	0,013	0,016
-399,438	-200,000	0,000	-0,072
-398,423	199,472	0,069	-0,076
-397,409	-200,000	0,004	0,028
-396,394	-200,000	-0,005	-0,083
-395,379	-51,075	-0,022	0,007
-394,365	152,252	0,076	-0,076
-393,350	-200,000	-0,003	-0,092
-392,336	601,542	0,026	0,047
-391,321	-140,814	-0,078	-0,006
-390,306	376,488	-0,033	0,049
-389,292	-78,185	-0,079	-0,020
-388,277	8,465	-0,034	-0,019
-387,263	800,000	0,016	-0,039
-386,248	-7,561	-0,104	0,051
-385,233	-200,000	0,014	0,060
-384,219	477,838	0,008	-0,013
-383,204	800,000	-0,031	0,089
-382,190	114,255	0,015	0,013
-381,175	291,836	0,091	0,120
-380,160	-200,000	0,004	-0,118
-379,146	115,616	0,086	0,076
-378,131	-92,010	0,071	0,015
-377,117	800,000	0,054	0,126
-376,102	256,584	0,057	0,071
-375,088	-121,201	-0,048	0,006
-374,073	-200,000	-0,006	0,019
-373,058	800,000	0,031	-0,072
-372,044	800,000	-0,043	0,108
-371,029	800,000	0,068	-0,154
-370,015	-200,000	0,029	-0,126
-369,000	141,705	-0,029	-0,028
-367,985	-76,087	-0,068	0,017
-366,971	-200,000	-0,025	-0,095
-365,956	-24,421	0,131	-0,056
-364,942	-91,038	0,166	0,034
-363,927	479,605	-0,089	0,147
-362,912	55,872	-0,046	-0,032
-361,898	-200,000	-0,001	-0,034
-360,883	330,419	-0,032	-0,045
-359,869	129,704	0,063	0,059
-358,854	614,026	-0,060	0,110
-357,839	65,897	-0,067	0,049
-356,825	228,831	0,052	0,062
-355,810	10,992	-0,160	-0,088
-354,796	275,274	0,049	-0,063
-353,781	-170,757	0,028	-0,001
-352,766	57,468	0,077	0,054
-351,752	255,624	-0,077	-0,096
-350,737	-46,219	0,061	0,022
-349,723	800,000	0,045	0,113
-348,708	175,547	-0,067	-0,071
-347,693	-200,000	-0,007	-0,052
-346,679	112,552	-0,100	-0,088
-345,664	191,496	-0,021	0,023
-344,650	-200,000	0,013	-0,072
-343,635	-200,000	0,013	0,051
-342,620	176,061	0,106	0,112
-341,606	135,593	0,045	0,042
-340,591	251,196	-0,076	-0,094
-339,577	36,028	-0,077	0,049
-338,562	74,330	-0,076	0,058
-337,548	-200,000	0,000	0,111
-336,533	512,988	0,043	-0,073
-335,518	212,213	0,107	-0,122
-334,504	-200,000	-0,027	0,115
-333,489	-58,951	-0,031	-0,010
-332,475	-61,040	-0,206	-0,063
-331,460	86,369	-0,084	-0,067
-330,445	0,672	-0,081	-0,042
-329,431	-178,687	-0,082	-0,001
-328,416	69,547	0,190	0,141
-327,402	209,474	-0,106	0,120
-326,387	-107,559	-0,091	-0,014
-325,372	-200,000	0,019	0,089
-324,358	-200,000	0,021	0,118
-323,343	44,854	0,148	0,098
-322,329	685,442	0,052	-0,099
-321,314	-142,081	0,046	-0,003
-320,299	800,000	-0,009	-0,024
-319,285	800,000	0,039	-0,118
-318,270	-200,000	-0,002	0,032
-317,256	-93,774	-0,076	-0,015
-316,241	-200,000	-0,010	-0,080
-315,226	800,000	-0,017	0,034
-314,212	-200,000	0,001	0,018
-313,197	-37,663	-0,037	0,014
-312,183	800,000	-0,062	0,192
-311,168	365,927	0,051	0,075
-310,153	63,604	0,116	-0,084
-309,139	286,318	-0,026	-0,035
-308,124	30,222	-0,071	0,044
-307,110	-121,559	0,049	0,006
-306,095	800,000	0,026	0,058
-305,080	-51,484	-0,117	0,039
-304,066	168,272	-0,057	-0,059
-303,051	-69,021	-0,158	-0,044
-302,037	800,000	0,033	-0,072
-301,022	60,483	0,025	-0,018
-300,008	278,615	0,081	0,105
-298,993	800,000	-0,059	0,188
-297,978	-200,000	-0,031	0,100
-296,964	14,121	0,133	-0,075
-295,949	800,000	-0,024	0,063
-294,935	-28,920	0,052	0,022
-293,920	-179,057	-0,052	-0,001
-292,905	6,580	0,019	-0,010
-291,891	-49,547	0,137	0,047
-290,876	-200,000	-0,024	0,131
-289,862	401,539	0,120	0,183
-288,847	-2,083	-0,081	0,041
-287,832	-200,000	0,015	-0,095
-286,818	108,166	0,098	-0,084
-285,803	219,557	0,081	-0,093
-284,789	-69,168	0,173	-0,048
-283,774	-173,472	0,069	-0,001
-282,759	560,277	-0,030	-0,053
-281,745	153,119	-0,068	-0,068
-280,730	187,040	-0,058	-0,063
-279,716	133,559	0,018	-0,017
-278,701	800,000	-0,039	0,116
-277,686	498,936	-0,051	-0,086
-276,672	133,724	0,071	0,067
-275,657	-126,323	-0,075	-0,008
-274,643	-200,000	0,010	-0,115
-273,628	70,915	-0,047	0,035
-272,613	-99,650	0,098	-0,018
-271,599	-200,000	-0,010	0,047
-270,584	285,590	0,018	0,023
-269,570	-182,101	-0,192	-0,003
-268,555	-168,620	-0,122	-0,003
-267,540	800,000	0,047	-0,142
-266,526	112,373	-0,031	-0,027
-265,511	-117,112	-0,062	0,008
-264,497	800,000	-0,014	-0,040
-263,482	800,000	-0,012	-0,035
-262,467	800,000	0,009	0,018
-261,453	-139,244	-0,071	-0,005
-260,438	259,005	0,009	-0,011
-259,424	-139,454	-0,099	-0,008
-258,409	14,545	0,013	0,008
-257,395	424,872	-0,054	0,084
-256,380	116,849	0,082	0,073
-255,365	-200,000	-0,020	-0,088
-254,351	-130,564	0,050	-0,005
-253,336	19,234	-0,082	-0,047
-252,322	228,177	0,034	0,040
-251,307	105,753	-0,138	0,118
-250,292	-200,000	0,010	-0,091
-249,278	90,053	0,048	0,039
-248,263	10,331	0,026	0,014
-247,249	-93,189	-0,113	-0,022
-246,234	366,946	0,032	-0,047
-245,219	800,000	-0,087	-0,193
-244,205	-54,347	-0,163	-0,053
-243,190	50,070	0,137	0,093
-242,176	800,000	-0,014	-0,032
-241,161	-200,000	-0,006	0,133
-240,146	-200,000	-0,011	-0,039
-239,132	-200,000	-0,008	0,072
-238,117	-200,000	-0,009	0,032
-237,103	316,226	-0,046	0,063
-236,088	-200,000	-0,010	0,037
-235,073	-200,000	-0,033	0,118
-234,059	-106,814	-0,016	-0,003
-233,044	-166,202	0,037	0,001
-232,030	52,845	-0,181	0,125
-231,015	42,762	0,041	-0,027
-230,000	83,165	0,042	0,033
-228,986	-111,010	0,066	0,010
-227,971	171,058	0,045	0,046
-226,957	-200,000	-0,012	0,128
-225,942	737,516	-0,076	0,149
-224,927	800,000	-0,061	0,162
-223,913	800,000	0,006	-0,013
-222,898	268,903	0,037	0,047
-221,884	402,224	0,013	0,019
-220,869	-84,148	0,041	0,009
-219,855	628,829	-0,048	0,088
-218,840	800,000	-0,028	0,060
-217,825	-200,000	0,006	0,033
-216,811	150,951	-0,038	0,037
-215,796	-44,061	-0,079	-0,029
-214,782	587,523	-0,035	-0,063
-213,767	800,000	0,010	0,030
-212,752	-57,561	0,047	-0,015
-211,738	-200,000	0,013	-0,217
-210,723	342,300	0,102	-0,144
-209,709	-165,985	0,117	0,004
-208,694	-69,583	-0,070	0,019
-207,679	800,000	-0,041	0,093
-206,665	-200,000	-0,006	-0,026
-205,650	201,208	0,101	0,113
-204,636	254,336	-0,035	0,044
-203,621	-40,619	0,047	0,018
-202,606	-72,323	-0,060	-0,016
-201,592	-30,130	-0,012	0,005
-200,577	41,976	-0,081	0,053
-199,563	-88,673	0,118	0,025
-198,548	61,487	-0,081	-0,058
-197,533	-102,845	0,031	-0,005
-196,519	320,597	0,058	-0,080
-195,504	-99,382	-0,013	0,002
-194,490	27,305	-0,078	-0,047
-193,475	28,703	-0,015	0,009
-192,460	-200,000	0,004	0,081
-191,446	-200,000	-0,004	-0,141
-190,431	800,000	0,090	0,200
-189,417	614,185	-0,007	-0,013
-188,402	-66,066	-0,050	-0,014
-187,387	-129,490	-0,118	0,012
-186,373	-134,473	0,158	-0,014
-185,358	-17,155	-0,056	0,025
-184,344	-148,699	-0,072	0,004
-183,329	-140,007	0,172	-0,013
-182,315	-134,620	-0,089	-0,008
-181,300	328,709	0,074	-0,103
-180,285	369,263	0,021	-0,031
-179,271	-110,248	-0,153	-0,023
-178,256	800,000	-0,044	-0,134
-177,242	-107,296	-0,108	-0,017
-176,227	800,000	-0,026	0,061
-175,212	-200,000	-0,025	0,120
-174,198	-68,030	0,005	-0,001
-173,183	501,035	0,034	-0,057
-172,169	318,216	-0,013	0,018
-171,154	10,338	-0,111	-0,061
-170,139	175,164	0,187	0,195
-169,125	167,862	0,072	0,074
-168,110	10,995	0,108	0,059
-167,096	-200,000	0,047	0,173
-166,081	-13,845	0,008	0,004
-165,066	-63,845	-0,041	-0,012
-164,052	800,000	0,019	-0,047
-163,037	-0,012	-0,141	-0,072
-162,023	4,937	0,095	0,050
-161,008	-200,000	0,012	0,081
-159,993	-75,528	-0,125	-0,032
-158,979	290,831	0,052	-0,068
-157,964	6,069	-0,032	0,017
-156,950	800,000	-0,020	-0,060
-155,935	-86,826	-0,043	-0,009
-154,920	-173,524	0,059	0,001
-153,906	-58,404	-0,067	-0,021
-152,891	708,811	-0,006	0,011
-151,877	153,069	0,072	0,071
-150,862	-154,822	-0,121	-0,006
-149,847	482,248	0,071	0,116
-148,833	32,580	-0,064	-0,040
-147,818	134,256	0,148	0,139
-146,804	-200,000	-0,076	0,241
-145,789	339,395	-0,085	0,120
-144,775	-161,249	-0,080	-0,003
-143,760	-4,378	0,047	0,023
-142,745	413,135	-0,053	0,082
-141,731	800,000	-0,013	0,033
-140,716	128,255	0,025	-0,023
-139,702	-47,896	0,021	-0,007
-138,687	630,064	-0,022	-0,040
-137,672	374,803	-0,093	0,137
-136,658	437,370	-0,056	-0,088
-135,643	-200,000	-0,011	-0,086
-134,629	-25,885	-0,078	0,033
-133,614	-81,524	0,083	0,019
-132,599	22,043	0,029	0,017
-131,585	117,029	0,115	0,101
-130,570	160,829	-0,043	-0,043
-129,556	691,728	-0,046	-0,087
-128,541	410,316	0,099	-0,152
-127,526	94,475	-0,088	-0,072
-126,512	-80,457	0,030	-0,007
-125,497	-67,402	0,096	0,027
-124,483	244,857	-0,040	0,049
-123,468	640,547	-0,031	-0,058
-122,453	544,982	0,037	-0,064
-121,439	-106,061	-0,184	-0,029
-120,424	-200,000	-0,004	-0,013
-119,410	-42,344	-0,077	-0,028
-118,395	161,025	-0,028	0,029
-117,380	-151,935	0,083	-0,004
-116,366	-200,000	0,008	-0,083
-115,351	-200,000	-0,028	-0,144
-114,337	-70,855	-0,043	-0,011
-113,322	194,115	0,034	0,037
-112,307	-69,285	0,044	-0,012
-111,293	139,552	0,050	0,048
-110,278	-200,000	0,042	0,152
-109,264	-79,083	0,080	-0,019
-108,249	413,499	-0,067	-0,103
-107,234	-35,054	-0,137	0,053
-106,220	242,669	0,097	0,117
-105,205	-200,000	-0,011	-0,138
-104,191	37,168	0,153	0,097
-103,176	-200,000	0,059	-0,000
-102,162	108,095	0,059	0,051
-101,147	147,094	-0,112	0,109
-100,132	-67,992	-0,015	0,004
-99,118	-105,652	0,026	0,004
-98,103	800,000	-0,007	-0,021
-97,089	135,473	0,061	0,057
-96,074	784,858	0,021	-0,041
-95,059	-109,058	-0,052	0,008
-94,045	432,180	0,011	0,018
-93,030	-12,288	-0,044	-0,021
-92,016	89,721	-0,079	0,063
-91,001	800,000	-0,005	0,013
-89,986	16,502	-0,029	0,016
-88,972	-87,206	0,072	0,016
-87,957	606,275	-0,008	0,015
-86,943	378,005	-0,059	-0,087
-85,928	-106,711	0,055	-0,009
-84,913	393,966	0,021	0,031
-83,899	675,184	-0,043	-0,081
-82,884	354,138	-0,134	-0,191
-81,870	-200,000	0,008	0,136
-80,855	203,616	-0,067	0,074
-79,840	-35,944	-0,034	-0,013
-78,826	22,689	-0,071	-0,042
-77,811	-110,423	-0,078	-0,011
-76,797	800,000	-0,090	0,191
-75,782	-200,000	-0,020	-0,092
-74,767	53,730	0,085	-0,058
-73,753	119,314	-0,078	0,069
-72,738	32,285	-0,062	0,038
-71,724	-200,000	0,030	-0,232
-70,709	-200,000	-0,026	-0,110
-69,694	800,000	0,020	-0,042
-68,680	225,023	-0,075	-0,088
-67,665	800,000	0,014	-0,039
-66,651	800,000	-0,028	0,082
-65,636	-200,000	0,025	0,083
-64,622	48,833	-0,038	0,026
-63,607	182,899	-0,040	-0,042
-62,592	-200,000	-0,021	0,127
-61,578	-200,000	-0,030	0,112
-60,563	513,921	0,044	-0,073
-59,549	126,286	-0,061	-0,055
-58,534	40,739	-2,025	-1,307
-57,519	-200,000	-0,165	-0,821
-56,505	-200,000	-1,358	-4,942
-55,490	91,129	0,928	0,747
-54,476	800,000	5,283	11,992
-53,461	-200,000	18,643	318,184
-52,446	800,000	741,800	2335,441
-51,432	558,242	1657,586	2878,589
-50,417	111,096	1641,300	1417,182
-49,403	75,412	1291,243	976,040
-48,388	30,278	1031,888	630,316
-47,373	19,931	994,340	573,085
-46,359	17,338	982,246	557,549
-45,344	14,085	978,334	544,604
-44,330	14,402	976,728	544,731
-43,315	13,724	974,801	541,409
-42,300	13,681	973,784	540,681
-41,286	13,655	972,894	540,081
-40,271	13,685	971,721	539,505
-39,257	13,751	970,854	539,221
-38,242	13,732	969,969	538,644
-37,227	13,688	969,106	537,999
-36,213	13,690	968,194	537,480
-35,198	13,617	967,468	536,816
-34,184	13,744	966,667	536,765
-33,169	13,674	965,862	536,068
-32,154	13,667	964,874	535,476
-31,140	13,728	963,883	535,102
-30,125	13,696	963,184	534,590
-29,111	13,668	962,351	534,016
-28,096	13,692	961,774	533,751
-27,082	13,728	961,016	533,428
-26,067	13,647	960,386	532,795
-25,052	13,683	959,487	532,390
-24,038	13,687	958,838	532,024
-23,023	13,725	958,283	531,816
-22,009	13,742	957,445	531,384
-20,994	13,727	956,781	530,945
-19,979	13,688	956,254	530,507
-18,965	13,724	955,635	530,259
-17,950	13,725	955,127	529,958
-16,936	13,677	954,390	529,375
-15,921	13,685	953,647	528,968
-14,906	13,634	952,812	528,320
-13,892	13,575	952,386	527,873
-12,877	13,576	951,713	527,482
-11,863	13,536	951,085	526,985
-10,848	13,553	950,549	526,722
-9,833	13,665	949,973	526,741
-8,819	13,624	949,507	526,331
-7,804	13,611	948,460	525,689
-6,790	13,609	948,086	525,452
-5,775	13,612	947,724	525,242
-4,760	13,589	947,042	524,769
-3,746	13,595	946,362	524,392
-2,731	13,445	945,736	523,546
-1,717	13,389	944,912	522,889
-0,702	13,420	944,362	522,664
0,313	13,216	943,574	522,369
1,327	16,557	941,186	531,580
2,342	25,554	796,080	473,535
3,356	22,017	460,332	268,368
4,371	-4,776	317,537	156,346
5,386	-8,906	299,570	143,261
6,400	-10,870	293,493	138,371
7,415	-11,220	290,851	136,764
8,429	-11,525	289,282	135,713
9,444	-11,420	288,248	135,319
10,459	-11,458	287,734	135,028
11,473	-11,342	287,031	134,800
12,488	-11,454	286,622	134,487
13,502	-11,541	286,042	134,117
14,517	-11,589	285,604	133,852
15,531	-11,424	285,097	133,763
16,546	-11,549	284,795	133,489
17,561	-11,501	284,322	133,302
18,575	-11,450	284,024	133,199
19,590	-11,414	283,506	132,980
20,604	-11,338	283,346	132,966
21,619	-11,540	282,990	132,593
22,634	-11,457	282,680	132,515
23,648	-11,402	282,287	132,372
24,663	-11,551	282,092	132,126
25,677	-11,531	281,878	132,033
26,692	-11,431	281,563	131,969
27,707	-11,425	281,257	131,820
28,721	-11,584	281,063	131,565
29,736	-11,413	280,623	131,511
30,750	-11,406	280,395	131,399
31,765	-11,357	280,130	131,310
32,780	-11,453	279,955	131,125
33,794	-11,524	279,629	130,893
34,809	-11,532	279,550	130,836
35,823	-11,465	279,117	130,686
36,838	-11,436	278,815	130,560
37,853	-11,592	278,587	130,293
38,867	-11,645	278,404	130,146
39,882	-11,331	278,138	130,308
40,896	-11,239	277,790	130,221
41,911	-11,478	277,658	129,921
42,926	-11,615	277,420	129,668
43,940	-11,541	277,142	129,597
44,955	-11,618	276,899	129,399
45,969	-11,631	276,651	129,259
46,984	-11,812	276,532	129,021
47,999	-11,816	276,063	128,787
49,013	-12,042	275,939	128,505
50,028	-11,985	275,705	128,438
51,042	-12,204	275,152	127,963
52,057	-12,188	275,052	127,921
53,071	-12,130	274,808	127,850
54,086	-11,934	274,634	127,941
55,101	-11,933	274,478	127,858
56,115	-11,622	274,398	128,101
57,130	-11,321	274,264	128,307
58,144	-11,409	274,156	128,163
59,159	-11,431	273,848	127,987
60,174	-11,412	273,664	127,908
61,188	-11,105	273,074	127,906
62,203	-11,298	273,071	127,714
63,217	-11,332	272,918	127,599
64,232	-11,359	272,685	127,454
65,247	-11,288	272,456	127,401
66,261	-11,273	272,150	127,261
67,276	-11,610	272,065	126,898
68,290	-11,543	271,647	126,753
69,305	-11,858	271,476	126,372
70,320	-11,662	271,191	126,408
71,334	-11,532	271,045	126,449
72,349	-11,313	270,718	126,487
73,363	-11,169	270,582	126,544
74,378	-11,418	270,497	126,264
75,393	-11,103	270,216	126,411
76,407	-11,311	270,049	126,131
77,422	-11,367	270,022	126,056
78,436	-11,388	269,588	125,822
79,451	-11,550	269,413	125,581
80,466	-11,309	268,836	125,521
81,480	-11,493	268,702	125,280
82,495	-11,651	268,671	125,110
83,509	-11,706	268,474	124,956
84,524	-11,667	268,131	124,821
85,539	-11,607	267,890	124,753
86,553	-11,638	267,770	124,657
87,568	-11,820	267,700	124,448
88,582	-11,570	267,248	124,454
89,597	-11,541	267,127	124,413
90,611	-11,256	266,914	124,560
91,626	-11,389	267,081	124,507
92,641	-11,550	266,569	124,112
93,655	-11,436	266,558	124,198
94,670	-11,418	266,023	123,954
95,684	-11,313	265,966	124,012
96,699	-11,514	265,762	123,724
97,714	-11,538	265,600	123,616
98,728	-11,523	265,236	123,449
99,743	-11,682	265,160	123,260
100,757	-11,703	264,920	123,118
101,772	-11,648	264,712	123,060
102,787	-11,489	264,378	123,036
103,801	-11,294	264,340	123,183
104,816	-11,316	264,112	123,046
105,830	-11,594	263,973	122,721
106,845	-11,274	263,731	122,884
107,860	-11,232	263,614	122,856
108,874	-11,331	263,387	122,651
109,889	-11,453	263,225	122,455
110,903	-11,424	262,944	122,340
111,918	-11,295	262,821	122,386
112,933	-11,396	262,519	122,145
113,947	-11,286	262,309	122,134
114,962	-11,267	262,164	122,073
115,976	-11,212	261,904	121,989
116,991	-11,357	261,703	121,756
118,006	-11,198	261,582	121,830
119,020	-11,475	261,406	121,491
120,035	-11,291	261,344	121,615
121,049	-11,316	261,098	121,467
122,064	-11,326	260,895	121,354
123,079	-11,278	260,751	121,318
124,093	-11,441	260,366	120,985
125,108	-11,545	260,227	120,817
126,122	-11,780	259,993	120,491
127,137	-11,809	259,693	120,316
128,151	-11,563	259,600	120,479
129,166	-11,538	259,356	120,376
130,181	-11,631	259,068	120,151
131,195	-11,830	259,054	119,959
132,210	-11,627	258,869	120,040
133,224	-11,516	258,773	120,082
134,239	-11,326	258,511	120,116
135,254	-11,314	258,286	120,011
136,268	-11,452	257,993	119,744
137,283	-11,669	257,789	119,449
138,297	-11,798	257,557	119,219
139,312	-11,691	257,240	119,155
140,327	-11,468	257,189	119,314
141,341	-11,272	257,196	119,477
142,356	-11,315	257,014	119,345
143,370	-11,120	256,813	119,410
144,385	-11,271	256,636	119,186
145,400	-11,207	256,414	119,128
146,414	-11,188	256,252	119,058
147,429	-11,247	256,097	118,925
148,443	-11,122	255,923	118,942
149,458	-11,090	255,689	118,850
150,473	-11,184	255,562	118,699
151,487	-11,442	255,376	118,380
152,502	-11,211	255,156	118,466
153,516	-11,234	255,006	118,366
154,531	-11,310	254,835	118,211
155,546	-11,248	254,632	118,160
156,560	-11,346	254,498	118,002
157,575	-11,358	254,237	117,861
158,589	-11,221	253,881	117,802
159,604	-11,094	253,825	117,875
160,619	-11,226	253,688	117,687
161,633	-11,213	253,369	117,540
162,648	-10,991	253,331	117,702
163,662	-11,172	253,238	117,494
164,677	-11,161	253,096	117,427
165,692	-11,194	252,899	117,297
166,706	-11,113	252,660	117,244
167,721	-11,305	252,580	117,033
168,735	-11,177	252,304	117,004
169,750	-11,137	252,146	116,954
170,764	-10,937	252,041	117,065
171,779	-11,140	251,938	116,834
172,794	-11,055	251,668	116,771
173,808	-11,068	251,436	116,642
174,823	-11,469	251,222	116,193
175,837	-11,850	251,065	115,787
176,852	-11,364	250,952	116,136
177,867	-11,139	250,813	116,251
178,881	-11,114	250,569	116,149
179,896	-11,050	250,430	116,128
180,910	-11,360	250,337	115,813
181,925	-10,941	249,982	115,991
182,940	-11,177	249,891	115,740
183,954	-11,234	249,861	115,668
184,969	-11,120	249,552	115,611
185,983	-11,309	249,438	115,388
186,998	-10,954	249,181	115,557
188,013	-11,184	249,136	115,332
189,027	-11,005	248,876	115,353
190,042	-11,043	248,530	115,150
191,056	-11,152	248,541	115,053
192,071	-11,362	248,359	114,784
193,086	-11,164	248,386	114,951
194,100	-10,977	248,016	114,926
195,115	-11,065	247,862	114,771
196,129	-10,931	247,711	114,803
197,144	-10,927	247,412	114,657
198,159	-11,131	247,269	114,410
199,173	-11,149	247,061	114,289
200,188	-11,221	246,976	114,180
201,202	-11,260	246,650	113,987
202,217	-11,534	246,408	113,637
203,232	-11,799	246,156	113,292
204,246	-11,363	246,243	113,683
205,261	-10,954	245,861	113,834
206,275	-11,885	245,707	112,984
207,290	-7,540	247,423	117,374
208,304	0,787	250,107	125,612
209,319	4,108	250,985	128,824
210,334	4,672	250,918	129,249
211,348	4,903	250,840	129,391
212,363	5,091	250,844	129,538
213,377	5,061	250,800	129,479
214,392	5,163	250,491	129,392
215,407	4,872	250,446	129,116
216,421	4,992	250,200	129,076
217,436	4,902	250,117	128,948
218,450	5,148	249,960	129,060
219,465	4,789	249,798	128,666
220,480	4,853	249,416	128,512
221,494	4,830	249,252	128,397
222,509	4,962	249,097	128,414
223,523	4,609	249,028	128,075
224,538	4,322	248,641	127,627
225,553	4,573	248,525	127,763
226,567	4,727	248,285	127,756
227,582	4,829	248,086	127,727
228,596	4,718	248,078	127,619
229,611	4,444	247,831	127,254
230,626	4,159	247,622	126,902
231,640	4,376	247,437	126,974
232,655	4,473	247,315	126,980
233,669	4,539	247,116	126,921
234,684	4,234	246,880	126,538
235,699	4,672	246,898	126,895
236,713	4,989	246,825	127,106
237,728	4,430	246,485	126,462
238,742	4,311	246,357	126,288
239,757	4,178	246,137	126,054
240,772	4,224	245,995	126,008
241,786	4,408	245,916	126,107
242,801	4,358	245,633	125,909
243,815	4,378	245,564	125,879
244,830	4,685	245,493	126,082
245,844	4,569	245,345	125,900
246,859	4,551	245,011	125,703
247,874	4,570	244,816	125,607
248,888	4,564	244,654	125,509
249,903	4,392	244,747	125,405
250,917	4,649	244,584	125,518
251,932	4,868	244,408	125,595
252,947	4,825	244,212	125,449
253,961	4,342	244,007	124,941
254,976	4,506	244,006	125,062
255,990	4,727	243,718	125,082
257,005	4,568	243,470	124,815
258,020	4,323	243,311	124,524
259,034	4,510	243,170	124,591
260,049	4,591	243,168	124,645
261,063	4,346	242,849	124,273
262,078	4,378	242,786	124,256
263,093	4,618	242,672	124,379
264,107	4,745	242,399	124,331
265,122	4,408	242,231	123,962
266,136	4,568	242,250	124,090
267,151	4,568	242,127	124,016
268,166	4,374	241,814	123,689
269,180	4,373	241,711	123,624
270,195	4,791	241,737	123,962
271,209	5,067	241,602	124,102
272,224	4,535	241,291	123,506
273,239	4,322	240,981	123,166
274,253	4,261	240,977	123,104
275,268	4,525	240,810	123,219
276,282	4,593	240,610	123,160
277,297	4,293	240,394	122,799
278,312	4,157	240,322	122,643
279,326	4,562	240,101	122,842
280,341	4,492	239,981	122,714
281,355	4,776	239,776	122,824
282,370	4,713	239,690	122,718
283,384	4,447	239,567	122,434
284,399	4,318	239,265	122,166
285,414	4,393	239,153	122,157
286,428	4,337	239,017	122,032
287,443	4,561	238,828	122,102
288,457	4,677	238,772	122,154
289,472	4,954	238,738	122,345
290,487	4,452	238,565	121,849
291,501	4,297	238,231	121,546
292,516	4,052	238,026	121,237
293,530	3,913	237,939	121,073
294,545	4,537	237,780	121,472
295,560	4,458	237,721	121,368
296,574	4,219	237,450	121,032
297,589	4,267	237,381	121,023
298,603	4,708	237,406	121,372
299,618	4,589	237,316	121,221
300,633	4,552	237,029	121,035
301,647	4,766	236,980	121,167
302,662	4,952	236,891	121,256
303,676	4,865	236,642	121,050
304,691	4,833	236,411	120,895
305,706	4,819	236,391	120,864
306,720	5,087	235,996	120,860
307,735	4,780	236,013	120,619
308,749	4,626	235,742	120,349
309,764	4,269	235,594	119,986
310,779	4,179	235,445	119,829
311,793	4,105	235,235	119,654
312,808	4,057	234,905	119,438
313,822	3,941	234,931	119,351
314,837	3,975	234,619	119,208
315,852	4,085	234,616	119,281
316,866	4,789	234,493	119,752
317,881	4,738	234,542	119,727
318,895	4,823	234,481	119,751
319,910	4,818	234,340	119,665
320,925	4,464	233,944	119,179
321,939	4,182	233,826	118,890
322,954	4,486	233,748	119,074
323,968	4,473	233,529	118,942
324,983	4,416	233,555	118,901
325,997	4,946	233,371	119,205
327,012	4,650	233,227	118,893
328,027	4,633	232,924	118,715
329,041	4,616	232,998	118,729
330,056	5,033	232,899	118,988
331,070	5,368	232,729	119,147
332,085	4,951	232,408	118,653
333,100	4,872	232,126	118,438
334,114	4,843	232,032	118,357
335,129	5,014	232,023	118,473
336,143	4,898	231,897	118,309
337,158	4,798	231,643	118,093
338,173	4,759	231,483	117,971
339,187	4,461	231,263	117,622
340,202	4,677	231,273	117,780
341,216	4,655	231,065	117,647
342,231	4,541	230,932	117,482
343,246	4,362	230,783	117,260
344,260	4,540	230,636	117,311
345,275	4,986	230,529	117,584
346,289	4,991	230,467	117,545
347,304	4,875	230,412	117,419
348,319	5,117	230,154	117,460
349,333	4,707	229,869	116,994
350,348	4,552	229,755	116,809
351,362	4,566	229,729	116,796
352,377	4,327	229,441	116,458
353,392	4,109	229,345	116,234
354,406	4,200	229,072	116,155
355,421	195,407	1318,216	1393,133
356,435	156,742	1450,873	1393,099
