DTS Sentinel unit serial number:	SN410029Multiplexer serial number:	ORYXHardware model number:	OX2-SRSoftware version number:	ORYX F/W v4,00 Oryx Data Collector v3.7.2.0data status	okinstallation	B5 Nyhavnadifferential loss correction	single-endedforward channel	channel 2reverse channel	N/Adate	2023/12/12time	01:02:13forward acquisition time	300,00reverse acquisition time	0,00gamma	499,1914k internal	0,3156k external	0,3156temperature offset calibration	1,0000default loss term (dB/km)	0,3820temperature slope calibration	1,0000multiplexer offset coefficient	1,0000multiplexer slope coefficient	1,0000fibre end	0,00T internal ref (°C)	16,00T ext. ref 1 (°C)	-0,42T ext. ref 2 (°C)	-0,72length (m)	temperature (°C)	Stokes	anti-Stokes-744,400	60,586	0,077	-0,056
-743,385	-62,413	-0,141	0,043
-742,371	-163,407	-0,026	0,001
-741,356	-160,542	-0,220	-0,009
-740,342	-50,086	0,239	0,083
-739,327	-139,755	-0,247	-0,019
-738,312	405,709	0,061	-0,095
-737,298	-95,519	-0,346	0,068
-736,283	-23,557	0,061	0,027
-735,269	-38,159	-0,244	0,095
-734,254	-93,311	0,094	0,019
-733,239	-18,448	-0,397	-0,182
-732,225	-75,924	0,188	0,049
-731,210	542,429	0,026	0,046
-730,196	-142,384	-0,105	0,007
-729,181	-108,834	0,101	0,016
-728,167	249,086	-0,034	-0,043
-727,152	-72,456	0,151	0,041
-726,137	-200,000	-0,004	-0,123
-725,123	40,597	-0,171	-0,113
-724,108	483,370	0,050	-0,083
-723,094	-200,000	-0,016	-0,207
-722,079	-52,564	-0,105	-0,035
-721,064	-39,084	-0,137	-0,053
-720,050	244,229	-0,043	-0,054
-719,035	-200,000	-0,022	0,108
-718,021	-200,000	-0,039	-0,137
-717,006	-35,354	-0,115	-0,046
-715,991	-29,787	0,063	0,026
-714,977	-23,544	-0,115	-0,051
-713,962	-44,396	0,066	-0,024
-712,948	-120,105	0,102	-0,013
-711,933	-200,000	0,010	-0,034
-710,918	38,407	-0,036	-0,023
-709,904	-200,000	-0,034	-0,128
-708,889	-75,369	-0,169	-0,044
-707,875	-22,443	-0,073	0,032
-706,860	-80,401	0,135	0,033
-705,845	37,602	-0,042	0,027
-704,831	-200,000	0,002	-0,053
-703,816	370,613	-0,043	-0,064
-702,802	-200,000	0,006	0,029
-701,787	-17,917	0,022	0,010
-700,772	-55,003	-0,164	-0,054
-699,758	-200,000	0,030	0,136
-698,743	140,614	-0,076	0,074
-697,729	800,000	0,030	0,067
-696,714	-21,366	0,059	0,026
-695,699	238,105	0,026	0,032
-694,685	-79,405	-0,155	-0,038
-693,670	164,734	0,088	-0,092
-692,656	383,435	-0,029	0,044
-691,641	-8,636	-0,110	-0,054
-690,627	-12,791	0,113	0,054
-689,612	38,150	-0,089	-0,058
-688,597	800,000	-0,034	-0,090
-687,583	-127,597	-0,130	0,014
-686,568	800,000	-0,076	-0,178
-685,554	185,658	-0,105	-0,115
-684,539	800,000	0,022	0,067
-683,524	266,700	0,059	-0,076
-682,510	-200,000	0,000	-0,074
-681,495	380,192	-0,053	-0,080
-680,481	800,000	-0,026	0,065
-679,466	76,704	-0,136	0,106
-678,451	-57,715	0,105	-0,034
-677,437	-20,708	0,066	0,030
-676,422	-132,239	0,104	0,010
-675,408	-55,600	-0,054	0,018
-674,393	800,000	-0,044	-0,134
-673,378	747,327	0,037	-0,073
-672,364	191,663	0,139	-0,154
-671,349	87,840	-0,128	0,104
-670,335	800,000	-0,020	0,048
-669,320	16,432	-0,068	-0,039
-668,305	800,000	-0,040	-0,096
-667,291	100,732	0,051	-0,043
-666,276	170,565	-0,070	0,073
-665,262	742,727	0,039	-0,077
-664,247	-58,208	-0,113	-0,036
-663,232	-97,156	-0,053	-0,010
-662,218	-200,000	0,028	0,137
-661,203	-145,123	-0,095	-0,006
-660,189	-200,000	-0,042	0,161
-659,174	767,502	0,082	-0,164
-658,159	-200,000	0,003	-0,034
-657,145	87,412	-0,114	0,093
-656,130	-200,000	0,014	0,060
-655,116	-62,640	-0,120	-0,036
-654,101	-78,970	0,070	-0,017
-653,086	-2,007	0,049	0,025
-652,072	-10,439	-0,073	-0,035
-651,057	-126,530	-0,123	0,013
-650,043	-200,000	-0,019	-0,142
-649,028	40,662	-0,137	-0,090
-648,014	112,863	0,050	0,044
-646,999	225,615	0,091	0,109
-645,984	200,915	0,016	0,018
-644,970	800,000	-0,048	0,152
-643,955	58,635	-0,083	-0,059
-642,941	800,000	-0,074	-0,233
-641,926	84,194	-0,068	-0,055
-640,911	800,000	-0,014	0,030
-639,897	-148,977	-0,049	0,003
-638,882	800,000	0,065	0,178
-637,868	-11,966	0,048	-0,023
-636,853	-200,000	-0,025	0,095
-635,838	-25,121	0,036	-0,016
-634,824	88,402	-0,110	-0,090
-633,809	-140,322	0,123	0,009
-632,795	258,260	-0,044	-0,056
-631,780	353,563	0,077	0,112
-630,765	-150,383	0,115	0,006
-629,751	611,208	-0,031	0,057
-628,736	265,268	-0,099	0,128
-627,722	-70,938	0,049	-0,013
-626,707	142,211	0,015	-0,015
-625,692	-200,000	-0,029	0,115
-624,678	53,619	0,193	0,136
-623,663	-200,000	0,014	-0,062
-622,649	-200,000	0,029	-0,152
-621,634	135,783	-0,090	-0,086
-620,619	-200,000	-0,008	-0,081
-619,605	-97,919	-0,020	0,004
-618,590	-200,000	0,005	-0,050
-617,576	62,328	0,103	-0,075
-616,561	-200,000	-0,017	-0,083
-615,546	0,612	-0,095	0,050
-614,532	-189,502	-0,147	0,001
-613,517	-162,650	-0,159	0,006
-612,503	2,457	0,053	-0,028
-611,488	184,817	-0,047	0,051
-610,474	-75,236	0,038	-0,010
-609,459	800,000	0,010	-0,029
-608,444	31,883	-0,059	-0,037
-607,430	589,211	0,026	-0,048
-606,415	-113,221	0,095	0,014
-605,401	-45,748	0,157	-0,057
-604,386	678,737	-0,046	0,088
-603,371	494,298	0,099	0,168
-602,357	-82,137	-0,093	0,022
-601,342	175,445	-0,090	0,096
-600,328	800,000	0,013	0,042
-599,313	800,000	0,058	-0,118
-598,298	-134,717	-0,191	-0,017
-597,284	66,388	-0,029	0,022
-596,269	-200,000	-0,005	-0,093
-595,255	33,272	-0,072	0,045
-594,240	-101,962	-0,179	-0,031
-593,225	2,439	-0,128	-0,068
-592,211	215,269	0,058	0,068
-591,196	800,000	0,043	-0,119
-590,182	7,407	0,072	-0,039
-589,167	800,000	-0,008	-0,019
-588,152	238,473	-0,075	0,091
-587,138	-66,174	0,021	0,006
-586,123	-75,954	-0,078	0,020
-585,109	11,766	-0,059	-0,033
-584,094	-37,332	-0,061	-0,024
-583,079	-200,000	0,008	0,074
-582,065	292,132	-0,072	0,096
-581,050	-200,000	0,007	0,025
-580,036	800,000	0,038	-0,082
-579,021	14,580	-0,078	0,044
-578,006	-78,428	-0,052	0,013
-576,992	-200,000	0,002	-0,129
-575,977	-62,607	0,101	0,030
-574,963	-92,925	0,063	-0,013
-573,948	-119,496	-0,131	0,016
-572,934	800,000	-0,048	-0,146
-571,919	199,120	-0,074	0,084
-570,904	-90,933	-0,049	-0,010
-569,890	-96,043	0,131	-0,025
-568,875	800,000	-0,033	0,092
-567,861	-116,072	-0,042	-0,006
-566,846	705,966	0,060	-0,116
-565,831	-67,295	-0,070	-0,020
-564,817	344,806	-0,073	0,105
-563,802	-28,700	0,059	-0,025
-562,788	-72,513	0,035	-0,009
-561,773	6,065	0,120	0,065
-560,758	-200,000	0,005	0,153
-559,744	-17,646	0,016	0,007
-558,729	46,140	0,117	0,079
-557,715	800,000	-0,025	-0,062
-556,700	-200,000	-0,029	-0,130
-555,685	197,624	0,070	-0,078
-554,671	25,288	-0,139	-0,084
-553,656	-44,867	0,154	-0,056
-552,642	-85,990	0,076	0,017
-551,627	800,000	0,028	0,072
-550,612	-77,399	-0,066	-0,017
-549,598	190,533	0,032	0,035
-548,583	800,000	-0,065	-0,139
-547,569	-31,420	-0,137	-0,056
-546,554	86,160	0,085	-0,068
-545,539	1,578	0,022	0,012
-544,525	-200,000	-0,002	0,031
-543,510	-79,831	0,108	-0,026
-542,496	78,938	-0,114	-0,089
-541,481	-200,000	-0,014	-0,059
-540,466	800,000	-0,009	0,022
-539,452	-131,819	0,134	-0,013
-538,437	800,000	0,028	-0,070
-537,423	28,483	-0,005	0,003
-536,408	54,681	-0,042	0,029
-535,393	-200,000	0,001	-0,109
-534,379	-45,178	-0,072	-0,026
-533,364	-107,155	-0,035	0,006
-532,350	122,045	-0,024	-0,022
-531,335	-76,360	0,084	-0,021
-530,321	-137,635	-0,195	0,016
-529,306	-50,506	-0,074	0,026
-528,291	123,763	-0,040	-0,037
-527,277	5,022	-0,027	-0,015
-526,262	255,368	0,034	0,042
-525,248	138,376	-0,061	0,058
-524,233	341,189	0,087	-0,124
-523,218	800,000	-0,036	0,094
-522,204	223,175	-0,082	0,096
-521,189	-99,276	-0,054	-0,010
-520,175	-81,746	-0,127	-0,030
-519,160	28,733	-0,084	-0,052
-518,145	259,910	0,048	-0,060
-517,131	-188,181	0,199	-0,002
-516,116	32,110	0,018	-0,012
-515,102	36,635	0,093	-0,060
-514,087	800,000	0,037	-0,114
-513,072	-200,000	-0,022	-0,149
-512,058	-89,962	-0,119	-0,025
-511,043	451,777	-0,043	-0,070
-510,029	125,300	0,056	0,052
-509,014	-146,737	0,083	-0,005
-507,999	-151,518	-0,077	-0,004
-506,985	83,628	-0,132	-0,105
-505,970	117,820	-0,067	0,060
-504,956	205,231	0,093	0,105
-503,941	-200,000	-0,003	0,055
-502,926	22,406	-0,057	0,034
-501,912	-200,000	0,013	-0,089
-500,897	-200,000	-0,029	-0,116
-499,883	-200,000	-0,001	-0,062
-498,868	-113,443	0,089	0,013
-497,853	-86,293	-0,163	-0,036
-496,839	-27,783	-0,076	-0,032
-495,824	-74,958	0,072	0,019
-494,810	-66,495	0,040	-0,012
-493,795	105,922	-0,109	0,094
-492,781	22,353	0,022	-0,013
-491,766	-88,097	-0,142	0,031
-490,751	187,636	-0,052	-0,057
-489,737	26,266	0,108	-0,066
-488,722	800,000	-0,058	0,176
-487,708	1,464	-0,053	-0,028
-486,693	-136,476	0,091	-0,008
-485,678	61,369	0,071	-0,052
-484,664	91,274	-0,045	0,037
-483,649	-120,185	-0,033	-0,004
-482,635	48,559	0,064	0,044
-481,620	-200,000	-0,005	0,032
-480,605	-78,016	-0,086	-0,021
-479,591	-32,199	0,116	0,047
-478,576	800,000	-0,060	0,130
-477,562	-139,451	0,136	0,010
-476,547	-44,102	0,139	-0,051
-475,532	-90,911	-0,013	0,003
-474,518	800,000	-0,064	-0,154
-473,503	-132,071	0,113	0,011
-472,489	776,590	0,063	0,126
-471,474	-109,180	0,058	0,009
-470,459	344,045	0,037	-0,053
-469,445	1,453	0,090	0,047
-468,430	800,000	0,028	0,069
-467,416	21,006	-0,074	0,043
-466,401	-56,215	0,133	0,043
-465,386	-31,902	0,219	0,089
-464,372	-200,000	-0,041	-0,170
-463,357	-200,000	0,006	0,030
-462,343	-123,286	-0,036	0,004
-461,328	800,000	0,035	0,089
-460,313	134,460	-0,057	0,054
-459,299	238,431	0,067	-0,082
-458,284	-3,710	-0,081	-0,041
-457,270	79,181	-0,071	-0,055
-456,255	-71,663	-0,048	0,013
-455,241	-200,000	-0,029	-0,099
-454,226	74,542	0,114	0,087
-453,211	-200,000	-0,002	0,040
-452,197	800,000	0,017	-0,048
-451,182	656,011	-0,060	0,112
-450,168	-56,423	0,150	0,048
-449,153	566,219	-0,014	0,025
-448,138	60,890	-0,062	0,045
-447,124	217,045	-0,063	-0,074
-446,109	-55,224	0,078	-0,025
-445,095	292,509	0,068	-0,090
-444,080	-200,000	-0,022	-0,071
-443,065	800,000	0,034	0,082
-442,051	800,000	0,035	-0,094
-441,036	-200,000	-0,023	-0,077
-440,022	-200,000	0,001	0,004
-439,007	-165,614	0,055	-0,002
-437,992	-25,799	0,101	0,043
-436,978	-200,000	0,014	0,177
-435,963	140,050	0,058	-0,055
-434,949	-14,065	-0,130	0,061
-433,934	2,910	-0,102	0,054
-432,919	-76,031	-0,060	0,015
-431,905	20,975	0,114	-0,067
-430,890	61,892	0,044	0,032
-429,876	-193,440	0,065	-0,000
-428,861	568,479	-0,059	0,105
-427,846	135,707	0,065	0,062
-426,832	-123,219	0,056	0,007
-425,817	800,000	0,038	-0,085
-424,803	-200,000	0,010	-0,156
-423,788	-112,399	0,110	0,016
-422,773	800,000	0,031	0,071
-421,759	800,000	-0,058	0,143
-420,744	800,000	0,038	0,094
-419,730	58,526	-0,054	-0,039
-418,715	-136,017	-0,095	0,008
-417,701	-200,000	-0,005	-0,088
-416,686	646,806	0,044	-0,083
-415,671	800,000	-0,030	0,062
-414,657	-200,000	0,029	0,103
-413,642	800,000	-0,022	-0,044
-412,628	-156,561	0,089	-0,004
-411,613	-77,570	-0,056	-0,014
-410,598	800,000	0,015	-0,034
-409,584	23,738	-0,123	0,074
-408,569	800,000	0,059	0,167
-407,555	57,533	0,076	0,054
-406,540	-82,139	0,125	-0,029
-405,525	101,045	-0,147	-0,125
-404,511	-200,000	0,000	-0,054
-403,496	-75,201	0,084	-0,022
-402,482	-188,926	0,098	-0,001
-401,467	-96,987	-0,081	-0,015
-400,452	800,000	0,051	0,134
-399,438	-200,000	-0,029	0,099
-398,423	18,895	0,065	0,038
-397,409	-200,000	-0,034	0,000
-396,394	411,754	0,027	0,042
-395,379	-200,000	-0,014	-0,113
-394,365	68,983	-0,069	0,051
-393,350	-200,000	0,014	0,068
-392,336	800,000	0,020	0,053
-391,321	-158,821	0,033	0,001
-390,306	-200,000	-0,130	0,000
-389,292	-200,000	0,017	0,102
-388,277	-200,000	-0,046	0,163
-387,263	80,961	0,069	-0,054
-386,248	80,769	0,076	0,059
-385,233	458,265	-0,035	0,057
-384,219	47,644	-0,030	0,020
-383,204	-200,000	-0,003	0,054
-382,190	800,000	0,031	-0,093
-381,175	302,891	-0,069	0,094
-380,160	800,000	0,017	-0,044
-379,146	-111,121	-0,029	0,004
-378,131	299,026	-0,047	-0,063
-377,117	-118,900	-0,088	0,011
-376,102	800,000	0,029	0,059
-375,088	-121,499	0,115	-0,014
-374,073	-200,000	0,023	-0,127
-373,058	800,000	0,010	0,026
-372,044	228,339	0,096	-0,113
-371,029	0,887	0,132	-0,069
-370,015	134,513	0,046	-0,043
-369,000	169,932	0,025	-0,026
-367,985	-200,000	-0,016	-0,139
-366,971	-158,376	0,109	-0,005
-365,956	800,000	-0,060	-0,173
-364,942	112,340	0,072	-0,063
-363,927	800,000	0,031	0,070
-362,912	518,953	0,018	-0,030
-361,898	-200,000	0,012	-0,064
-360,883	587,972	-0,047	-0,085
-359,869	800,000	0,012	0,026
-358,854	-200,000	0,010	0,039
-357,839	800,000	0,015	0,037
-356,825	-96,710	0,077	0,015
-355,810	165,224	-0,055	0,057
-354,796	-200,000	0,012	-0,062
-353,781	-123,143	-0,042	0,005
-352,766	-176,685	-0,052	-0,001
-351,752	408,159	-0,062	-0,095
-350,737	-200,000	0,016	0,127
-349,723	396,121	-0,042	0,064
-348,708	800,000	0,015	-0,047
-347,693	246,827	0,034	0,042
-346,679	25,394	0,070	0,042
-345,664	-200,000	0,006	-0,024
-344,650	800,000	0,039	-0,087
-343,635	161,312	0,027	-0,027
-342,620	-200,000	0,003	-0,011
-341,606	-200,000	0,007	0,041
-340,591	-200,000	-0,031	0,147
-339,577	306,067	0,096	-0,130
-338,562	747,228	-0,019	0,038
-337,548	172,547	-0,015	-0,016
-336,533	588,671	-0,040	0,073
-335,518	-200,000	0,013	-0,058
-334,504	-200,000	-0,028	0,151
-333,489	800,000	-0,042	-0,115
-332,475	800,000	0,037	-0,078
-331,460	300,260	0,053	0,071
-330,445	800,000	-0,054	-0,111
-329,431	-176,404	0,134	-0,002
-328,416	-14,327	0,077	-0,036
-327,402	800,000	-0,055	0,138
-326,387	-200,000	0,019	0,123
-325,372	-200,000	0,009	-0,182
-324,358	117,369	-0,106	0,094
-323,343	118,919	0,044	-0,039
-322,329	250,997	0,046	-0,057
-321,314	-200,000	0,024	-0,146
-320,299	-46,679	0,034	-0,012
-319,285	-79,346	-0,040	-0,010
-318,270	164,476	-0,048	0,049
-317,256	231,694	-0,044	-0,052
-316,241	176,349	-0,059	-0,062
-315,226	-200,000	0,000	0,080
-314,212	-200,000	0,007	-0,039
-313,197	800,000	-0,026	0,052
-312,183	-200,000	0,025	0,213
-311,168	-200,000	-0,006	0,047
-310,153	139,437	-0,109	0,104
-309,139	800,000	0,008	0,023
-308,124	-200,000	-0,028	-0,130
-307,110	-198,262	0,100	-0,000
-306,095	-126,496	0,086	0,009
-305,080	359,664	0,044	0,064
-304,066	-200,000	0,008	-0,054
-303,051	-200,000	0,005	-0,027
-302,037	-143,458	-0,087	-0,006
-301,022	800,000	-0,004	-0,012
-300,008	-200,000	0,011	-0,075
-298,993	-153,659	0,160	-0,008
-297,978	281,708	-0,036	-0,047
-296,964	-200,000	-0,001	-0,048
-295,949	-200,000	-0,032	0,140
-294,935	-200,000	0,002	0,033
-293,920	44,966	-0,054	0,036
-292,905	-200,000	0,011	0,154
-291,891	-200,000	0,013	0,057
-290,876	-32,389	0,049	-0,020
-289,862	90,230	-0,052	-0,042
-288,847	5,198	0,096	0,051
-287,832	111,661	-0,057	0,050
-286,818	-56,476	0,084	-0,027
-285,803	-140,042	0,086	-0,006
-284,789	35,542	0,044	-0,028
-283,774	81,617	-0,041	-0,032
-282,759	-169,992	-0,042	-0,001
-281,745	690,170	-0,015	0,029
-280,730	33,211	-0,119	0,075
-279,716	14,887	0,107	-0,060
-278,701	800,000	-0,024	0,065
-277,686	-172,426	0,080	-0,002
-276,672	-200,000	0,007	0,044
-275,657	142,266	-0,085	-0,081
-274,643	165,864	-0,054	0,056
-273,628	-20,121	-0,054	-0,024
-272,613	-200,000	0,010	-0,040
-271,599	-116,850	0,170	0,022
-270,584	-28,183	0,075	0,031
-269,570	275,504	-0,059	0,076
-268,555	-200,000	-0,017	0,101
-267,540	800,000	-0,047	-0,119
-266,526	-161,152	-0,093	-0,003
-265,511	54,603	0,111	0,077
-264,497	-200,000	-0,036	0,126
-263,482	102,833	0,061	-0,052
-262,467	800,000	0,060	0,128
-261,453	800,000	0,005	0,016
-260,438	220,015	-0,092	-0,107
-259,424	800,000	-0,041	0,092
-258,409	800,000	-0,057	0,156
-257,395	-200,000	0,001	0,004
-256,380	3,842	0,079	-0,042
-255,365	366,684	-0,025	0,037
-254,351	-200,000	-0,013	0,078
-253,336	197,138	-0,047	-0,052
-252,322	56,551	-0,116	-0,081
-251,307	-200,000	0,011	-0,093
-250,292	-0,245	-0,072	-0,037
-249,278	132,327	-0,079	-0,074
-248,263	-82,071	0,222	-0,052
-247,249	-200,000	-0,004	0,069
-246,234	-200,000	-0,022	-0,077
-245,219	0,418	-0,095	-0,049
-244,205	-48,095	-0,097	0,034
-243,190	66,054	0,076	-0,055
-242,176	-32,276	-0,035	-0,014
-241,161	-59,772	-0,053	-0,016
-240,146	800,000	0,057	0,133
-239,132	-200,000	-0,001	-0,093
-238,117	-3,872	-0,074	-0,037
-237,103	-75,760	0,049	-0,012
-236,088	-115,046	0,104	0,014
-235,073	-64,602	0,079	0,023
-234,059	-200,000	0,002	0,020
-233,044	-3,305	0,081	-0,041
-232,030	108,494	0,067	0,058
-231,015	204,964	0,055	-0,062
-230,000	36,944	-0,076	0,048
-228,986	-200,000	0,006	0,048
-227,971	-116,320	0,096	0,013
-226,957	-200,000	-0,004	0,068
-225,942	-39,010	-0,057	0,022
-224,927	630,152	0,017	0,032
-223,913	-200,000	0,006	-0,042
-222,898	800,000	-0,005	-0,013
-221,884	-79,833	-0,094	0,023
-220,869	14,625	-0,094	0,053
-219,855	-111,377	-0,064	0,009
-218,840	-200,000	0,001	-0,054
-217,825	169,107	0,091	-0,094
-216,811	-200,000	-0,001	-0,086
-215,796	800,000	-0,025	-0,057
-214,782	63,851	-0,155	-0,112
-213,767	289,833	0,033	0,043
-212,752	-9,140	0,091	-0,044
-211,738	165,935	0,033	-0,033
-210,723	800,000	0,023	0,057
-209,709	-200,000	0,016	-0,123
-208,694	-158,764	-0,121	0,005
-207,679	362,008	0,053	-0,077
-206,665	465,762	-0,107	0,173
-205,650	474,186	0,023	0,037
-204,636	800,000	0,037	0,094
-203,621	-200,000	0,011	-0,042
-202,606	-200,000	0,001	-0,110
-201,592	186,106	-0,066	0,071
-200,577	-13,439	-0,093	-0,043
-199,563	95,492	-0,078	0,064
-198,548	649,005	0,036	-0,066
-197,533	800,000	0,013	0,029
-196,519	114,282	0,126	0,111
-195,504	2,377	-0,079	-0,041
-194,490	800,000	0,015	0,032
-193,475	44,255	0,039	0,026
-192,460	-6,475	-0,017	0,008
-191,446	-169,995	0,042	-0,001
-190,431	-159,326	-0,187	-0,007
-189,417	-16,807	0,081	-0,037
-188,402	217,086	-0,091	-0,105
-187,387	-200,000	-0,030	0,239
-186,373	-111,358	-0,191	-0,028
-185,358	800,000	0,016	0,042
-184,344	568,196	0,045	0,079
-183,329	800,000	0,008	-0,025
-182,315	-71,623	0,120	0,032
-181,300	-200,000	-0,024	0,102
-180,285	-8,079	-0,172	0,083
-179,271	-200,000	0,023	-0,113
-178,256	-176,815	0,058	-0,001
-177,242	800,000	0,020	-0,058
-176,227	97,279	0,148	0,123
-175,212	-119,701	0,032	-0,004
-174,198	-152,952	0,031	0,002
-173,183	33,370	-0,094	-0,059
-172,169	117,507	0,035	0,031
-171,154	-20,179	-0,090	-0,040
-170,139	-25,282	0,041	0,018
-169,125	325,380	-0,063	0,087
-168,110	-200,000	-0,000	0,085
-167,096	107,487	-0,015	0,013
-166,081	-200,000	-0,005	-0,105
-165,066	-200,000	0,007	-0,137
-164,052	800,000	0,038	-0,100
-163,037	-200,000	0,001	0,005
-162,023	152,731	0,061	0,061
-161,008	-72,143	-0,048	-0,013
-159,993	-155,406	0,051	-0,002
-158,979	227,805	0,037	-0,043
-157,964	-23,582	0,025	0,011
-156,950	-200,000	-0,032	-0,103
-155,935	-200,000	0,011	0,057
-154,920	35,552	-0,057	0,036
-153,906	800,000	-0,044	-0,090
-152,891	800,000	0,020	-0,062
-151,877	446,073	0,074	-0,117
-150,862	17,301	-0,032	-0,018
-149,847	119,821	-0,045	0,040
-148,833	52,036	0,057	-0,039
-147,818	69,107	-0,132	-0,098
-146,804	-78,983	0,067	-0,016
-145,789	-66,607	0,055	-0,016
-144,775	-5,949	-0,048	-0,023
-143,760	656,930	0,022	-0,041
-142,745	-200,000	0,008	0,158
-141,731	800,000	0,030	-0,065
-140,716	-14,157	0,063	0,029
-139,702	-163,634	-0,076	0,003
-138,687	-200,000	-0,015	-0,087
-137,672	800,000	-0,003	-0,008
-136,658	78,513	0,057	0,044
-135,643	-154,435	-0,181	-0,009
-134,629	-34,294	0,037	0,015
-133,614	-200,000	0,007	0,042
-132,599	87,029	0,096	0,076
-131,585	-33,300	0,129	-0,051
-130,570	-133,824	-0,034	0,003
-129,556	-200,000	0,003	0,059
-128,541	234,950	-0,056	0,066
-127,526	134,508	-0,055	0,051
-126,512	75,641	-0,079	0,060
-125,497	83,752	0,060	0,047
-124,483	-8,182	-0,057	-0,028
-123,468	155,166	0,084	0,084
-122,453	-200,000	-0,015	0,000
-121,439	-23,342	0,023	0,010
-120,424	-31,707	-0,078	0,031
-119,410	-200,000	-0,021	0,118
-118,395	-84,694	0,123	-0,028
-117,380	800,000	-0,014	0,044
-116,366	-200,000	0,004	-0,025
-115,351	-200,000	-0,014	0,113
-114,337	-60,795	-0,057	-0,017
-113,322	-200,000	-0,019	0,101
-112,307	70,919	0,171	0,127
-111,293	-144,935	0,102	0,007
-110,278	-86,795	0,148	-0,032
-109,264	-8,075	-0,133	0,064
-108,249	122,155	0,104	-0,094
-107,234	800,000	-0,010	-0,025
-106,220	15,411	0,144	-0,081
-105,205	-200,000	-0,002	0,086
-104,191	71,122	-0,110	-0,082
-103,176	-63,366	0,257	-0,076
-102,162	-68,943	0,059	-0,016
-101,147	580,957	-0,044	-0,078
-100,132	-176,757	0,137	-0,002
-99,118	50,132	-0,122	0,082
-98,103	16,860	-0,016	0,009
-97,089	800,000	-0,040	-0,103
-96,074	800,000	0,043	0,106
-95,059	72,851	-0,040	-0,030
-94,045	315,597	-0,044	0,060
-93,030	-200,000	-0,008	-0,200
-92,016	-47,055	-0,049	0,017
-91,001	800,000	-0,061	-0,125
-89,986	5,411	0,080	-0,042
-88,972	800,000	0,034	0,084
-87,957	88,604	0,068	-0,054
-86,943	-24,258	0,159	-0,068
-85,928	178,124	0,022	-0,023
-84,913	-7,436	-0,070	-0,034
-83,899	168,099	0,014	-0,014
-82,884	-200,000	-0,013	0,088
-81,870	-30,464	0,036	0,015
-80,855	282,977	-0,043	0,056
-79,840	118,047	-0,057	0,050
-78,826	1,319	-0,097	-0,050
-77,811	800,000	-0,027	-0,061
-76,797	-104,988	0,130	-0,021
-75,782	218,518	-0,080	-0,093
-74,767	-121,094	0,099	-0,012
-73,753	-106,857	-0,103	-0,016
-72,738	800,000	0,030	0,070
-71,724	239,287	-0,025	0,029
-70,709	-6,407	0,026	0,013
-69,694	272,502	0,042	-0,054
-68,680	-200,000	0,010	0,137
-67,665	-39,428	-0,065	0,024
-66,651	-200,000	0,000	0,040
-65,636	274,359	0,080	-0,102
-64,622	800,000	-0,039	-0,121
-63,607	-200,000	0,010	0,097
-62,592	236,422	0,030	0,036
-61,578	-11,589	0,070	0,033
-60,563	169,819	0,067	0,069
-59,549	588,866	-0,046	0,081
-58,534	-32,446	-1,952	-0,778
-57,519	-200,000	-0,314	-1,048
-56,505	-200,000	-1,322	-4,977
-55,490	-30,934	0,693	0,280
-54,476	800,000	5,345	12,288
-53,461	-200,000	17,186	283,112
-52,446	800,000	722,132	2228,239
-51,432	545,017	1638,267	2821,496
-50,417	112,413	1631,323	1416,807
-49,403	76,565	1286,874	978,704
-48,388	33,057	1029,179	639,010
-47,373	20,372	991,000	573,421
-46,359	18,863	979,382	561,718
-45,344	16,302	975,226	550,917
-44,330	16,533	973,683	550,780
-43,315	16,060	971,925	548,217
-42,300	16,011	970,916	547,467
-41,286	16,012	969,832	546,838
-40,271	15,962	969,046	546,209
-39,257	15,997	967,905	545,657
-38,242	16,057	966,968	545,304
-37,227	16,042	966,415	544,921
-36,213	16,047	965,292	544,283
-35,198	16,010	964,501	543,696
-34,184	16,101	963,841	543,596
-33,169	15,997	962,704	542,595
-32,154	16,073	961,843	542,335
-31,140	16,102	960,828	541,835
-30,125	16,096	960,062	541,364
-29,111	16,041	959,279	540,723
-28,096	16,005	959,065	540,463
-27,082	16,066	957,966	540,020
-26,067	15,973	957,265	539,303
-25,052	16,019	956,539	539,020
-24,038	15,988	955,808	538,487
-23,023	16,002	955,329	538,241
-22,009	16,039	954,580	537,918
-20,994	16,019	953,943	537,472
-19,979	15,998	953,584	537,182
-18,965	16,066	952,797	536,934
-17,950	16,054	952,291	536,592
-16,936	15,987	951,564	535,946
-15,921	15,950	950,936	535,450
-14,906	15,861	950,206	534,735
-13,892	15,958	949,358	534,545
-12,877	15,946	948,888	534,221
-11,863	15,873	948,336	533,657
-10,848	15,905	947,696	533,379
-9,833	16,036	947,426	533,623
-8,819	15,993	946,555	532,973
-7,804	15,969	945,863	532,488
-6,790	15,871	945,469	531,932
-5,775	15,912	944,744	531,634
-4,760	15,934	944,056	531,294
-3,746	15,890	943,444	530,789
-2,731	15,793	942,809	530,104
-1,717	15,739	942,302	529,628
-0,702	15,727	941,545	529,141
0,313	15,561	940,917	529,063
1,327	18,616	938,633	537,372
2,342	27,258	796,374	478,887
3,356	24,000	460,430	271,849
4,371	-2,840	314,960	157,377
5,386	-6,842	296,811	144,236
6,400	-8,793	290,637	139,283
7,415	-9,621	288,465	137,412
8,429	-9,242	286,687	136,924
9,444	-9,563	285,903	136,224
10,459	-9,523	285,346	135,985
11,473	-9,406	284,612	135,737
12,488	-9,374	284,234	135,576
13,502	-9,398	283,617	135,246
14,517	-9,427	283,450	135,126
15,531	-9,576	282,931	134,723
16,546	-9,331	282,554	134,769
17,561	-9,327	281,998	134,494
18,575	-9,287	281,705	134,381
19,590	-9,373	281,305	134,096
20,604	-9,248	281,184	134,146
21,619	-9,348	280,856	133,882
22,634	-9,491	280,480	133,554
23,648	-9,383	280,041	133,436
24,663	-9,463	279,887	133,274
25,677	-9,521	279,557	133,050
26,692	-9,370	279,184	133,005
27,707	-9,310	278,990	132,957
28,721	-9,548	278,918	132,684
29,736	-9,442	278,486	132,568
30,750	-9,546	278,378	132,406
31,765	-9,475	278,041	132,301
32,780	-9,331	277,667	132,248
33,794	-9,534	277,502	131,965
34,809	-9,527	277,293	131,861
35,823	-9,343	276,939	131,855
36,838	-9,347	276,666	131,709
37,853	-9,353	276,329	131,531
38,867	-9,329	276,262	131,511
39,882	-9,616	276,077	131,140
40,896	-9,515	275,726	131,057
41,911	-9,317	275,516	131,131
42,926	-9,482	275,314	130,869
43,940	-9,597	274,980	130,590
44,955	-9,416	274,877	130,700
45,969	-9,574	274,582	130,400
46,984	-9,720	274,343	130,138
47,999	-9,917	274,138	129,844
49,013	-9,938	273,733	129,622
50,028	-9,946	273,369	129,430
51,042	-10,074	273,224	129,230
52,057	-10,263	272,907	128,894
53,071	-10,089	272,817	129,001
54,086	-9,878	272,526	129,048
55,101	-9,830	272,563	129,099
56,115	-9,804	272,319	128,996
57,130	-9,483	272,163	129,208
58,144	-9,492	272,078	129,148
59,159	-9,168	271,638	129,228
60,174	-9,385	271,597	128,996
61,188	-9,388	271,336	128,858
62,203	-9,455	271,137	128,690
63,217	-9,270	270,721	128,652
64,232	-9,328	270,520	128,491
65,247	-9,273	270,444	128,494
66,261	-9,538	270,126	128,088
67,276	-9,295	269,815	128,153
68,290	-9,597	269,758	127,836
69,305	-9,809	269,361	127,442
70,320	-9,782	269,247	127,402
71,334	-9,498	269,091	127,577
72,349	-9,451	268,963	127,547
73,363	-9,325	268,649	127,502
74,378	-9,307	268,249	127,318
75,393	-9,322	268,215	127,276
76,407	-9,348	268,169	127,219
77,422	-9,359	267,884	127,063
78,436	-9,180	267,550	127,057
79,451	-9,185	267,406	126,972
80,466	-9,416	267,136	126,622
81,480	-9,518	266,912	126,413
82,495	-9,391	266,529	126,335
83,509	-9,299	266,334	126,315
84,524	-9,570	266,229	126,009
85,539	-9,741	266,030	125,748
86,553	-9,792	265,937	125,647
87,568	-9,525	265,573	125,705
88,582	-9,507	265,345	125,602
89,597	-9,629	265,132	125,379
90,611	-9,623	265,138	125,377
91,626	-9,328	264,916	125,526
92,641	-9,428	264,677	125,312
93,655	-9,462	264,503	125,188
94,670	-9,450	264,296	125,089
95,684	-9,294	263,989	125,073
96,699	-9,312	263,778	124,946
97,714	-9,416	263,639	124,775
98,728	-9,572	263,372	124,498
99,743	-9,682	263,042	124,233
100,757	-9,685	262,990	124,195
101,772	-9,605	263,005	124,262
102,787	-9,720	262,693	124,001
103,801	-9,344	262,413	124,193
104,816	-9,417	262,278	124,053
105,830	-9,424	262,063	123,934
106,845	-9,383	262,000	123,929
107,860	-9,326	261,627	123,793
108,874	-9,462	261,483	123,593
109,889	-9,500	261,314	123,469
110,903	-9,455	261,066	123,380
111,918	-9,501	260,842	123,222
112,933	-9,361	260,629	123,235
113,947	-9,402	260,535	123,143
114,962	-9,453	260,354	123,002
115,976	-9,281	260,143	123,042
116,991	-9,453	259,909	122,769
118,006	-9,403	259,788	122,745
119,020	-9,467	259,568	122,574
120,035	-9,388	259,340	122,525
121,049	-9,452	259,343	122,459
122,064	-9,408	259,119	122,381
123,079	-9,286	258,746	122,301
124,093	-9,404	258,513	122,077
125,108	-9,542	258,365	121,875
126,122	-9,624	258,071	121,654
127,137	-9,806	257,867	121,388
128,151	-9,649	257,809	121,487
129,166	-9,671	257,606	121,361
130,181	-9,687	257,327	121,204
131,195	-9,722	257,134	121,073
132,210	-9,437	256,999	121,246
133,224	-9,307	256,824	121,266
134,239	-9,454	256,798	121,115
135,254	-9,396	256,559	121,042
136,268	-9,486	256,308	120,835
137,283	-9,626	255,974	120,545
138,297	-9,652	255,635	120,352
139,312	-9,671	255,395	120,212
140,327	-9,424	255,303	120,371
141,341	-9,315	255,394	120,497
142,356	-9,247	255,353	120,526
143,370	-9,163	255,061	120,450
144,385	-9,164	254,723	120,279
145,400	-9,054	254,621	120,314
146,414	-8,940	254,414	120,305
147,429	-9,237	254,341	120,004
148,443	-9,249	254,195	119,913
149,458	-9,191	253,991	119,856
150,473	-9,130	253,720	119,771
151,487	-9,388	253,666	119,513
152,502	-9,308	253,545	119,514
153,516	-9,115	253,071	119,445
154,531	-9,271	253,066	119,298
155,546	-9,198	252,864	119,256
156,560	-9,094	252,662	119,238
157,575	-9,530	252,540	118,797
158,589	-9,378	252,371	118,837
159,604	-9,276	252,034	118,755
160,619	-9,305	251,998	118,702
161,633	-9,259	251,859	118,665
162,648	-9,194	251,609	118,592
163,662	-9,121	251,427	118,558
164,677	-9,228	251,303	118,398
165,692	-9,120	251,101	118,384
166,706	-9,160	250,974	118,280
167,721	-9,290	250,921	118,134
168,735	-9,194	250,731	118,116
169,750	-9,195	250,521	118,005
170,764	-9,061	250,410	118,055
171,779	-9,185	250,174	117,829
172,794	-9,179	250,136	117,805
173,808	-9,098	249,762	117,687
174,823	-9,512	249,473	117,192
175,837	-9,509	249,209	117,061
176,852	-9,331	249,246	117,217
177,867	-9,219	249,084	117,224
178,881	-9,190	248,947	117,173
179,896	-9,197	248,850	117,111
180,910	-9,119	248,607	117,053
181,925	-9,208	248,400	116,870
182,940	-8,936	248,193	116,990
183,954	-9,239	248,130	116,696
184,969	-9,198	247,938	116,630
185,983	-9,047	247,776	116,669
186,998	-9,313	247,784	116,440
188,013	-8,965	247,319	116,502
189,027	-9,108	247,213	116,322
190,042	-9,248	246,996	116,093
191,056	-9,352	246,944	115,972
192,071	-9,128	246,592	115,982
193,086	-9,202	246,499	115,866
194,100	-9,262	246,386	115,753
195,115	-9,092	246,231	115,811
196,129	-9,057	245,985	115,714
197,144	-9,105	245,809	115,582
198,159	-9,224	245,698	115,421
199,173	-9,181	245,494	115,350
200,188	-9,253	245,371	115,222
201,202	-9,510	244,972	114,812
202,217	-9,822	244,707	114,421
203,232	-9,696	244,635	114,481
204,246	-9,346	244,456	114,675
205,261	-9,135	244,478	114,849
206,275	-9,788	243,821	113,994
207,290	-6,849	245,207	117,055
208,304	-0,255	247,346	123,536
209,319	2,626	247,906	126,194
210,334	2,898	248,084	126,499
211,348	3,391	247,910	126,807
212,363	3,401	247,921	126,810
213,377	3,644	247,694	126,882
214,392	3,624	247,583	126,798
215,407	3,449	247,270	126,482
216,421	3,601	247,104	126,511
217,436	3,663	246,938	126,466
218,450	3,819	246,846	126,536
219,465	3,480	246,691	126,166
220,480	3,401	246,391	125,937
221,494	3,239	246,360	125,776
222,509	3,373	246,193	125,790
223,523	3,138	246,052	125,514
224,538	2,976	245,724	125,202
225,553	3,086	245,562	125,199
226,567	3,188	245,402	125,190
227,582	3,448	245,316	125,348
228,596	3,427	245,284	125,303
229,611	2,854	245,015	124,686
230,626	2,983	244,804	124,673
231,640	2,988	244,646	124,585
232,655	3,176	244,551	124,679
233,669	3,234	244,246	124,560
234,684	3,083	244,028	124,315
235,699	3,353	244,084	124,552
236,713	3,321	244,017	124,481
237,728	3,020	243,715	124,071
238,742	3,013	243,510	123,950
239,757	3,216	243,318	124,005
240,772	3,037	243,104	123,741
241,786	3,188	243,085	123,842
242,801	3,133	242,832	123,658
243,815	2,852	242,752	123,379
244,830	3,094	242,547	123,459
245,844	3,211	242,489	123,512
246,859	3,206	242,216	123,359
247,874	3,044	242,179	123,199
248,888	2,900	241,940	122,950
249,903	3,153	241,823	123,083
250,917	3,193	241,702	123,043
251,932	3,277	241,658	123,077
252,947	3,188	241,464	122,895
253,961	2,886	241,223	122,519
254,976	3,429	241,064	122,863
255,990	3,364	240,927	122,730
257,005	2,994	240,666	122,291
258,020	2,906	240,594	122,173
259,034	2,978	240,270	122,054
260,049	3,202	240,314	122,245
261,063	2,851	240,091	121,840
262,078	3,085	239,938	121,939
263,093	3,310	239,797	122,036
264,107	3,290	239,724	121,971
265,122	2,986	239,492	121,601
266,136	3,108	239,475	121,678
267,151	3,329	239,259	121,733
268,166	2,990	238,971	121,307
269,180	2,964	238,758	121,167
270,195	3,458	238,805	121,573
271,209	3,815	238,800	121,842
272,224	3,056	238,530	121,092
273,239	2,795	238,220	120,717
274,253	3,086	238,012	120,831
275,268	3,106	237,995	120,827
276,282	3,281	237,889	120,901
277,297	2,995	237,639	120,538
278,312	2,927	237,544	120,425
279,326	3,067	237,429	120,466
280,341	3,147	237,255	120,430
281,355	3,241	237,206	120,469
282,370	3,182	237,031	120,323
283,384	3,259	236,746	120,228
284,399	3,063	236,597	119,987
285,414	2,722	236,373	119,596
286,428	2,899	236,317	119,695
287,443	3,078	236,325	119,829
288,457	3,315	236,068	119,874
289,472	3,418	235,946	119,882
290,487	3,162	235,799	119,596
291,501	2,941	235,517	119,270
292,516	2,663	235,376	118,971
293,530	2,765	235,128	118,914
294,545	2,983	235,209	119,114
295,560	3,083	235,023	119,088
296,574	2,877	234,785	118,797
297,589	3,193	234,558	118,916
298,603	3,374	234,727	119,133
299,618	3,204	234,438	118,843
300,633	3,372	234,272	118,878
301,647	3,342	234,240	118,829
302,662	3,571	234,153	118,951
303,676	3,756	233,929	118,970
304,691	3,587	233,699	118,712
305,706	3,677	233,477	118,658
306,720	3,373	233,429	118,389
307,735	3,399	233,288	118,326
308,749	3,300	233,106	118,147
309,764	2,981	232,907	117,789
310,779	2,906	232,786	117,661
311,793	2,723	232,400	117,314
312,808	2,780	232,383	117,338
313,822	2,761	232,209	117,226
314,837	2,875	232,046	117,221
315,852	2,723	231,891	117,015
316,866	3,057	231,797	117,213
317,881	3,226	231,909	117,389
318,895	3,488	231,483	117,364
319,910	3,510	231,498	117,378
320,925	3,087	231,280	116,933
321,939	2,965	231,164	116,770
322,954	3,061	231,153	116,828
323,968	3,108	230,696	116,623
324,983	3,060	230,512	116,483
325,997	2,800	230,615	116,326
327,012	3,284	230,317	116,534
328,027	3,294	230,223	116,483
329,041	3,504	230,058	116,549
330,056	3,897	230,173	116,896
331,070	3,841	229,873	116,691
332,085	3,186	229,651	116,070
333,100	3,402	229,491	116,143
334,114	3,446	229,475	116,158
335,129	3,733	229,341	116,298
336,143	3,339	229,274	115,955
337,158	3,285	229,092	115,811
338,173	3,525	228,920	115,895
339,187	3,390	228,727	115,685
340,202	3,578	228,386	115,645
341,216	3,343	228,337	115,433
342,231	3,147	228,105	115,157
343,246	3,370	228,053	115,289
344,260	3,391	227,927	115,230
345,275	3,598	227,895	115,359
346,289	3,520	227,857	115,271
347,304	3,706	227,562	115,252
348,319	3,549	227,631	115,158
349,333	3,282	227,300	114,780
350,348	3,194	226,967	114,536
351,362	3,500	226,915	114,729
352,377	3,503	226,760	114,642
353,392	3,139	226,658	114,308
354,406	3,185	226,405	114,205
355,421	195,507	1321,316	1398,677
356,435	156,723	1454,720	1398,672
