DTS Sentinel unit serial number:	SN410029Multiplexer serial number:	ORYXHardware model number:	OX2-SRSoftware version number:	ORYX F/W v4,00 Oryx Data Collector v3.7.2.0data status	okinstallation	B5 Nyhavnadifferential loss correction	single-endedforward channel	channel 2reverse channel	N/Adate	2023/12/14time	12:27:13forward acquisition time	300,00reverse acquisition time	0,00gamma	499,1914k internal	0,3158k external	0,3158temperature offset calibration	1,0000default loss term (dB/km)	0,3820temperature slope calibration	1,0000multiplexer offset coefficient	1,0000multiplexer slope coefficient	1,0000fibre end	0,00T internal ref (°C)	7,81T ext. ref 1 (°C)	-7,64T ext. ref 2 (°C)	-7,73length (m)	temperature (°C)	Stokes	anti-Stokes-744,400	42,624	0,066	0,044
-743,385	-40,573	-0,427	-0,163
-742,371	-116,036	0,227	0,031
-741,356	-95,025	-0,346	-0,068
-740,342	221,324	0,140	0,167
-739,327	5,895	-0,495	-0,269
-738,312	-12,732	0,230	0,110
-737,298	24,450	-0,235	-0,143
-736,283	-91,601	0,168	0,035
-735,269	-162,133	-0,341	-0,012
-734,254	-200,000	-0,014	0,084
-733,239	-21,361	-0,644	-0,288
-732,225	20,595	0,230	0,137
-731,210	-200,000	0,050	0,178
-730,196	800,000	-0,032	-0,067
-729,181	-114,908	-0,091	-0,013
-728,167	-200,000	0,005	0,057
-727,152	157,194	-0,053	-0,054
-726,137	-200,000	0,011	-0,161
-725,123	-126,907	-0,132	-0,014
-724,108	-200,000	0,008	-0,107
-723,094	366,463	-0,025	-0,038
-722,079	-28,176	-0,223	-0,094
-721,064	-126,484	0,073	-0,008
-720,050	-200,000	-0,020	0,097
-719,035	-19,549	0,075	-0,034
-718,021	-200,000	0,004	0,026
-717,006	29,438	-0,081	-0,050
-715,991	252,800	-0,167	-0,210
-714,977	59,454	-0,168	-0,122
-713,962	95,448	0,069	0,058
-712,948	76,172	0,146	0,114
-711,933	79,252	-0,113	-0,089
-710,918	22,436	-0,059	0,035
-709,904	-174,863	-0,155	0,003
-708,889	-200,000	-0,010	-0,048
-707,875	800,000	-0,052	-0,115
-706,860	590,100	-0,032	-0,059
-705,845	-200,000	0,004	-0,042
-704,831	2,157	0,071	0,038
-703,816	-118,208	0,059	0,008
-702,802	-17,447	0,105	-0,048
-701,787	137,844	-0,112	0,109
-700,772	167,094	-0,061	-0,063
-699,758	591,512	0,036	-0,066
-698,743	215,655	0,035	0,041
-697,729	-200,000	-0,033	0,123
-696,714	-96,179	0,083	0,016
-695,699	-109,887	-0,127	-0,019
-694,685	97,608	-0,025	-0,021
-693,670	493,262	-0,051	0,087
-692,656	-132,422	-0,162	0,015
-691,641	-29,069	0,018	-0,007
-690,627	128,445	0,058	-0,054
-689,612	-200,000	0,000	0,097
-688,597	-72,109	0,059	-0,016
-687,583	86,205	-0,116	-0,094
-686,568	102,562	0,034	0,029
-685,554	800,000	-0,067	-0,177
-684,539	-200,000	0,000	-0,001
-683,524	1,734	-0,063	0,033
-682,510	-85,707	-0,004	0,001
-681,495	235,354	-0,052	-0,064
-680,481	-94,232	-0,043	-0,009
-679,466	-200,000	0,001	0,012
-678,451	-107,758	-0,183	-0,029
-677,437	319,717	-0,075	0,105
-676,422	107,078	0,071	0,062
-675,408	675,752	-0,025	-0,048
-674,393	310,746	-0,049	0,068
-673,378	476,180	-0,111	-0,185
-672,364	-200,000	0,008	0,043
-671,349	-133,447	-0,188	-0,017
-670,335	-95,733	0,077	0,015
-669,320	498,813	-0,047	-0,079
-668,305	-116,569	0,159	-0,021
-667,291	642,488	-0,064	0,121
-666,276	-130,143	-0,064	0,006
-665,262	-50,202	0,032	0,011
-664,247	-97,093	-0,009	-0,002
-663,232	-200,000	-0,026	-0,087
-662,218	800,000	0,018	0,041
-661,203	614,026	-0,055	0,102
-660,189	-102,489	-0,067	0,012
-659,174	81,837	0,010	0,008
-658,159	800,000	-0,028	-0,081
-657,145	128,677	-0,087	-0,081
-656,130	800,000	-0,002	0,003
-655,116	-200,000	-0,036	0,205
-654,101	-1,486	-0,043	-0,022
-653,086	123,745	-0,039	-0,036
-652,072	800,000	0,039	-0,102
-651,057	38,389	-0,099	-0,065
-650,043	235,001	-0,094	-0,114
-649,028	-53,257	0,066	0,022
-648,014	-200,000	0,003	0,026
-646,999	-200,000	0,003	0,077
-645,984	-200,000	-0,000	0,155
-644,970	-15,974	-0,131	0,061
-643,955	-51,353	0,055	-0,019
-642,941	-109,912	-0,061	0,009
-641,926	1,613	0,130	-0,069
-640,911	-200,000	0,014	-0,120
-639,897	-200,000	-0,007	-0,172
-638,882	-118,740	-0,153	0,020
-637,868	-117,230	0,054	0,007
-636,853	-178,339	-0,090	-0,002
-635,838	186,928	0,090	-0,099
-634,824	800,000	0,105	-0,227
-633,809	-200,000	-0,012	-0,139
-632,795	-32,854	-0,047	-0,019
-631,780	-200,000	-0,008	0,032
-630,765	-166,770	-0,186	0,006
-629,751	-40,378	0,030	-0,011
-628,736	-133,725	0,042	0,004
-627,722	-200,000	0,013	-0,059
-626,707	626,063	-0,055	0,101
-625,692	74,964	-0,016	0,012
-624,678	-136,165	0,101	-0,009
-623,663	94,531	-0,105	-0,087
-622,649	-120,838	0,013	0,002
-621,634	-79,659	-0,082	-0,020
-620,619	-200,000	0,007	-0,117
-619,605	-100,474	0,101	-0,018
-618,590	7,243	-0,049	-0,027
-617,576	-200,000	-0,018	0,061
-616,561	39,944	-0,103	-0,068
-615,546	-105,167	-0,119	0,020
-614,532	739,141	-0,014	-0,028
-613,517	-113,219	-0,017	-0,002
-612,503	-200,000	-0,035	0,163
-611,488	197,033	-0,015	0,017
-610,474	-200,000	0,007	-0,070
-609,459	51,365	0,005	0,004
-608,444	-200,000	0,028	-0,185
-607,430	-200,000	0,036	-0,191
-606,415	-123,640	-0,095	-0,011
-605,401	800,000	0,065	-0,145
-604,386	-9,978	0,061	-0,030
-603,371	-200,000	0,007	0,046
-602,357	-42,256	0,105	0,039
-601,342	800,000	-0,029	0,083
-600,328	-200,000	0,000	-0,129
-599,313	-200,000	-0,019	-0,135
-598,298	420,957	-0,057	0,089
-597,284	110,527	-0,016	-0,014
-596,269	137,146	0,079	0,075
-595,255	-71,170	-0,022	-0,006
-594,240	800,000	0,103	-0,222
-593,225	415,823	-0,116	-0,182
-592,211	800,000	0,036	-0,111
-591,196	270,364	0,089	0,114
-590,182	-18,877	-0,040	-0,018
-589,167	25,921	0,143	-0,087
-588,152	-181,848	-0,118	-0,002
-587,138	-200,000	-0,002	0,016
-586,123	-133,061	0,055	-0,005
-585,109	-63,788	-0,075	-0,022
-584,094	211,994	0,090	-0,104
-583,079	800,000	0,027	-0,077
-582,065	-85,147	-0,199	0,045
-581,050	424,156	0,031	0,049
-580,036	38,735	0,109	-0,071
-579,021	-157,064	-0,021	-0,001
-578,006	-8,496	0,079	0,039
-576,992	800,000	0,036	-0,083
-575,977	608,084	0,058	0,106
-574,963	46,730	-0,080	0,054
-573,948	2,170	-0,104	-0,055
-572,934	-200,000	-0,026	0,172
-571,919	-175,366	0,077	0,002
-570,904	173,966	-0,089	0,095
-569,890	436,524	-0,026	0,042
-568,875	-200,000	0,022	-0,071
-567,861	378,927	0,043	0,065
-566,846	800,000	0,061	0,152
-565,831	-95,455	0,055	-0,011
-564,817	-200,000	-0,027	-0,129
-563,802	11,034	-0,010	-0,006
-562,788	16,989	0,100	0,058
-561,773	389,998	-0,054	0,082
-560,758	317,757	-0,062	0,087
-559,744	407,690	0,007	-0,011
-558,729	49,479	-0,070	-0,048
-557,715	-200,000	-0,002	-0,044
-556,700	13,142	0,084	0,047
-555,685	3,670	-0,080	-0,043
-554,671	-200,000	0,002	0,056
-553,656	20,519	0,079	-0,047
-552,642	-200,000	0,009	0,114
-551,627	20,022	-0,084	0,050
-550,612	84,288	0,075	0,060
-549,598	120,430	-0,094	0,086
-548,583	-103,940	0,160	-0,027
-547,569	-41,648	-0,115	0,043
-546,554	-35,592	-0,056	-0,022
-545,539	-200,000	-0,001	-0,016
-544,525	-87,818	0,116	0,025
-543,510	-200,000	-0,030	-0,160
-542,496	68,425	0,130	-0,097
-541,481	98,366	-0,074	0,062
-540,466	-200,000	0,002	0,097
-539,452	-150,786	-0,046	0,002
-538,437	-200,000	0,034	-0,173
-537,423	-107,163	0,063	0,010
-536,408	188,184	0,020	0,022
-535,393	-200,000	0,023	0,146
-534,379	-136,323	-0,069	0,006
-533,364	800,000	-0,024	0,067
-532,350	545,509	0,021	-0,037
-531,335	32,131	-0,128	0,080
-530,321	-200,000	-0,056	-0,207
-529,306	66,629	-0,097	-0,072
-528,291	46,995	0,131	0,089
-527,277	-200,000	0,004	-0,134
-526,262	-200,000	-0,002	-0,100
-525,248	800,000	0,026	-0,080
-524,233	-61,048	-0,056	0,017
-523,218	-46,760	0,035	-0,012
-522,204	-93,611	-0,064	0,013
-521,189	203,988	0,033	-0,037
-520,175	120,911	-0,084	0,076
-519,160	110,862	0,046	-0,040
-518,145	448,933	-0,031	0,050
-517,131	437,112	-0,009	0,014
-516,116	-95,160	-0,152	-0,030
-515,102	800,000	0,032	0,084
-514,087	-141,483	0,054	-0,004
-513,072	-36,470	-0,107	0,042
-512,058	54,760	-0,029	0,020
-511,043	-41,088	-0,040	-0,015
-510,029	-122,480	-0,113	0,013
-509,014	-66,680	0,045	0,013
-507,999	800,000	0,024	-0,051
-506,985	-91,208	0,014	-0,003
-505,970	-200,000	-0,007	-0,050
-504,956	-200,000	-0,008	-0,069
-503,941	-20,784	0,098	-0,044
-502,926	-84,396	0,177	-0,040
-501,912	90,165	0,037	0,030
-500,897	800,000	0,028	-0,089
-499,883	162,605	0,044	0,045
-498,868	118,818	-0,115	-0,104
-497,853	15,865	0,031	-0,018
-496,839	-118,889	0,081	-0,010
-495,824	106,232	0,095	-0,083
-494,810	-31,387	0,045	-0,018
-493,795	-200,000	-0,005	-0,019
-492,781	316,691	0,069	-0,095
-491,766	800,000	-0,012	-0,032
-490,751	-11,498	-0,139	-0,067
-489,737	800,000	-0,015	0,044
-488,722	-32,440	-0,072	-0,029
-487,708	-200,000	0,014	0,061
-486,693	98,980	0,078	-0,066
-485,678	-135,870	-0,113	-0,010
-484,664	-126,174	0,111	-0,012
-483,649	-141,321	-0,049	0,004
-482,635	336,750	-0,016	0,023
-481,620	-19,789	-0,140	-0,063
-480,605	188,386	0,104	0,114
-479,591	48,739	-0,110	0,075
-478,576	116,322	0,127	0,113
-477,562	15,271	-0,069	0,039
-476,547	800,000	-0,083	-0,169
-475,532	-200,000	-0,007	-0,089
-474,518	-89,563	0,128	0,027
-473,503	6,814	-0,120	-0,065
-472,489	231,645	-0,036	0,043
-471,474	800,000	-0,005	0,015
-470,459	-200,000	0,002	0,077
-469,445	191,529	0,065	0,072
-468,430	-94,308	-0,129	0,025
-467,416	-69,594	0,028	-0,008
-466,401	-135,198	-0,195	0,017
-465,386	-63,728	0,041	0,012
-464,372	181,129	0,031	0,033
-463,357	81,489	0,114	-0,090
-462,343	-200,000	0,005	-0,052
-461,328	39,332	0,063	-0,041
-460,313	-200,000	0,010	-0,101
-459,299	56,252	0,061	-0,043
-458,284	-200,000	0,005	0,092
-457,270	-103,085	0,089	-0,015
-456,255	-200,000	-0,051	0,186
-455,241	-200,000	-0,020	0,074
-454,226	84,255	-0,086	-0,068
-453,211	-65,930	-0,085	-0,025
-452,197	55,274	0,181	-0,127
-451,182	107,550	0,085	0,074
-450,168	-200,000	0,004	-0,019
-449,153	-47,646	-0,174	-0,061
-448,138	121,438	0,014	0,013
-447,124	-200,000	-0,003	0,046
-446,109	-200,000	0,024	0,103
-445,095	-200,000	0,014	0,090
-444,080	-164,580	0,147	0,005
-443,065	-11,902	-0,067	0,032
-442,051	-200,000	-0,013	0,135
-441,036	-58,866	-0,015	-0,005
-440,022	-200,000	-0,013	-0,100
-439,007	403,440	0,022	0,034
-437,992	11,020	-0,136	-0,075
-436,978	-72,048	0,118	-0,032
-435,963	559,352	0,018	0,032
-434,949	37,693	0,082	-0,053
-433,934	120,979	-0,084	0,076
-432,919	-62,138	-0,095	-0,029
-431,905	-82,507	-0,141	-0,033
-430,890	800,000	-0,010	-0,022
-429,876	223,766	-0,043	0,051
-428,861	44,824	0,148	-0,099
-427,846	-200,000	0,024	-0,091
-426,832	-74,204	-0,215	-0,056
-425,817	-200,000	-0,001	-0,012
-424,803	397,328	0,048	-0,073
-423,788	-200,000	0,001	0,051
-422,773	-101,434	0,097	-0,017
-421,759	118,557	0,053	-0,048
-420,744	800,000	0,042	0,120
-419,730	-32,334	-0,182	-0,074
-418,715	541,754	0,012	-0,020
-417,701	-117,838	0,130	0,017
-416,686	-200,000	0,037	0,237
-415,671	-180,860	0,105	-0,002
-414,657	330,180	0,042	0,059
-413,642	-82,243	-0,125	0,029
-412,628	316,810	0,053	-0,073
-411,613	25,969	0,107	-0,065
-410,598	-200,000	0,053	-0,222
-409,584	570,016	-0,021	-0,038
-408,569	167,294	0,080	0,083
-407,555	89,897	0,027	-0,022
-406,540	121,090	0,048	0,043
-405,525	-9,899	-0,069	0,033
-404,511	-51,901	0,064	-0,022
-403,496	-200,000	-0,173	-0,000
-402,482	62,988	-0,043	0,031
-401,467	-200,000	0,007	0,195
-400,452	377,343	-0,081	-0,120
-399,438	-200,000	-0,014	-0,063
-398,423	-83,652	0,129	0,030
-397,409	461,928	-0,067	0,109
-396,394	-132,591	-0,091	0,008
-395,379	-98,600	0,067	0,012
-394,365	78,698	0,047	-0,036
-393,350	441,164	0,078	0,125
-392,336	-200,000	0,037	0,226
-391,321	-144,831	0,155	0,010
-390,306	-200,000	0,017	-0,093
-389,292	-200,000	0,027	0,117
-388,277	6,601	-0,064	-0,035
-387,263	-20,236	-0,077	0,034
-386,248	134,773	0,159	-0,151
-385,233	800,000	0,029	-0,081
-384,219	-200,000	0,008	-0,071
-383,204	39,615	-0,094	-0,061
-382,190	199,321	0,098	-0,110
-381,175	-15,033	-0,048	-0,022
-380,160	-124,169	0,128	0,014
-379,146	241,241	0,056	0,069
-378,131	192,414	0,052	0,057
-377,117	25,162	-0,038	0,023
-376,102	-104,602	0,011	0,002
-375,088	800,000	0,027	0,060
-374,073	103,549	0,080	0,069
-373,058	510,874	-0,023	0,039
-372,044	-200,000	-0,001	0,049
-371,029	-80,593	0,087	0,021
-370,015	-200,000	0,029	0,108
-369,000	71,587	-0,045	0,034
-367,985	-9,837	-0,171	-0,082
-366,971	-149,956	0,163	0,009
-365,956	106,291	-0,075	0,065
-364,942	208,571	-0,018	0,021
-363,927	-200,000	0,040	-0,154
-362,912	146,533	0,064	-0,063
-361,898	-87,637	-0,086	0,019
-360,883	-3,256	0,095	-0,048
-359,869	185,507	0,028	-0,030
-358,854	140,390	-0,050	0,048
-357,839	402,895	0,127	0,194
-356,825	800,000	-0,053	0,110
-355,810	112,710	0,082	0,072
-354,796	800,000	-0,007	-0,019
-353,781	-200,000	0,019	-0,064
-352,766	101,688	0,067	0,057
-351,752	-146,021	-0,098	-0,006
-350,737	228,610	0,038	-0,045
-349,723	-200,000	0,037	0,214
-348,708	191,858	-0,054	0,060
-347,693	-24,902	0,048	-0,021
-346,679	-87,026	-0,070	-0,015
-345,664	-200,000	0,017	-0,083
-344,650	-160,524	0,105	-0,004
-343,635	-136,529	0,116	0,010
-342,620	287,647	0,041	0,054
-341,606	438,534	-0,095	0,152
-340,591	-84,362	0,146	-0,033
-339,577	-145,388	-0,162	0,010
-338,562	-200,000	0,004	0,106
-337,548	-94,873	-0,055	-0,011
-336,533	-46,259	-0,028	-0,010
-335,518	385,973	0,040	0,061
-334,504	125,357	0,059	-0,054
-333,489	-200,000	-0,017	0,098
-332,475	6,318	-0,125	0,067
-331,460	-200,000	0,037	0,169
-330,445	70,448	0,036	0,027
-329,431	142,483	0,067	0,065
-328,416	769,179	0,061	0,121
-327,402	49,065	0,094	-0,064
-326,387	-31,113	0,098	-0,040
-325,372	390,632	-0,114	0,173
-324,358	-200,000	-0,014	-0,141
-323,343	-20,317	-0,127	0,056
-322,329	126,446	0,062	0,057
-321,314	-54,479	0,031	0,010
-320,299	599,309	0,052	-0,093
-319,285	-87,543	0,113	0,025
-318,270	-112,631	-0,062	-0,009
-317,256	-200,000	0,002	-0,068
-316,241	800,000	-0,023	-0,058
-315,226	-200,000	0,011	-0,264
-314,212	-82,815	-0,162	0,038
-313,197	443,776	0,010	-0,015
-312,183	73,022	-0,032	-0,025
-311,168	44,929	-0,096	-0,064
-310,153	144,828	-0,077	0,075
-309,139	502,558	-0,047	-0,078
-308,124	-35,273	-0,049	-0,019
-307,110	176,228	0,079	0,083
-306,095	-129,207	0,030	0,003
-305,080	164,487	0,078	-0,080
-304,066	646,387	0,041	-0,076
-303,051	-200,000	-0,016	-0,122
-302,037	117,016	0,030	-0,026
-301,022	800,000	-0,058	0,142
-300,008	128,261	-0,029	0,027
-298,993	800,000	-0,032	0,076
-297,978	-61,749	-0,032	0,010
-296,964	532,563	-0,014	0,024
-295,949	-200,000	-0,015	-0,073
-294,935	800,000	-0,050	0,139
-293,920	-155,071	-0,058	-0,003
-292,905	338,809	0,027	-0,038
-291,891	-200,000	-0,003	0,065
-290,876	63,525	0,114	0,083
-289,862	-65,571	-0,098	-0,028
-288,847	-200,000	-0,031	-0,243
-287,832	-11,971	0,078	0,037
-286,818	-63,955	-0,019	-0,005
-285,803	54,086	-0,011	-0,008
-284,789	60,330	0,064	-0,046
-283,774	-97,583	-0,119	-0,022
-282,759	-100,636	0,072	0,013
-281,745	-81,741	-0,142	-0,033
-280,730	-200,000	-0,002	-0,094
-279,716	-151,472	0,076	0,004
-278,701	800,000	0,040	0,081
-277,686	-104,190	0,052	-0,009
-276,672	418,401	-0,051	0,080
-275,657	-166,500	0,062	-0,002
-274,643	800,000	0,040	-0,082
-273,628	800,000	0,025	-0,063
-272,613	224,275	0,055	-0,065
-271,599	-108,657	0,073	0,011
-270,584	81,964	-0,023	0,018
-269,570	-31,959	-0,159	0,064
-268,555	78,758	-0,114	0,088
-267,540	296,738	-0,102	-0,136
-266,526	-200,000	-0,033	-0,139
-265,511	-200,000	0,000	-0,026
-264,497	534,754	0,008	0,013
-263,482	-76,513	-0,027	0,007
-262,467	-22,045	0,086	0,038
-261,453	-8,199	-0,081	0,039
-260,438	-58,688	-0,032	-0,010
-259,424	-17,723	0,009	-0,004
-258,409	-200,000	0,028	-0,158
-257,395	172,202	0,021	-0,021
-256,380	262,941	-0,055	0,069
-255,365	9,056	0,056	-0,030
-254,351	-4,456	0,089	-0,045
-253,336	-126,835	0,064	0,007
-252,322	29,642	-0,051	-0,031
-251,307	800,000	-0,021	-0,051
-250,292	-200,000	0,022	-0,088
-249,278	-136,294	0,094	0,008
-248,263	-200,000	-0,023	0,087
-247,249	176,769	-0,050	0,052
-246,234	-10,936	-0,075	-0,036
-245,219	47,711	-0,048	0,033
-244,205	-55,237	0,100	0,032
-243,190	-200,000	-0,004	0,079
-242,176	99,924	-0,054	0,045
-241,161	-77,978	0,119	0,029
-240,146	63,664	-0,074	0,054
-239,132	-200,000	0,023	0,083
-238,117	297,817	-0,039	0,052
-237,103	-200,000	-0,006	0,020
-236,088	124,318	-0,037	-0,034
-235,073	312,612	0,049	-0,067
-234,059	71,587	0,046	-0,034
-233,044	79,156	-0,037	0,029
-232,030	-102,749	0,010	-0,002
-231,015	800,000	-0,026	-0,072
-230,000	-200,000	0,019	-0,107
-228,986	-52,586	0,070	0,023
-227,971	-98,094	0,036	-0,007
-226,957	139,276	-0,017	0,016
-225,942	48,631	0,006	-0,004
-224,927	-200,000	-0,015	0,081
-223,913	125,085	-0,097	-0,088
-222,898	-200,000	0,011	-0,039
-221,884	777,734	0,044	0,087
-220,869	315,841	-0,028	0,038
-219,855	234,972	0,066	0,079
-218,840	229,916	-0,020	0,023
-217,825	-112,972	0,039	0,006
-216,811	-200,000	-0,027	-0,107
-215,796	-52,315	-0,105	-0,035
-214,782	793,595	0,042	-0,084
-213,767	207,779	-0,076	0,085
-212,752	-67,909	0,120	0,033
-211,738	-200,000	-0,004	0,129
-210,723	800,000	-0,034	0,080
-209,709	49,156	-0,166	0,113
-208,694	52,022	0,089	-0,061
-207,679	-200,000	0,016	-0,166
-206,665	105,486	-0,018	0,016
-205,650	-113,224	0,066	0,009
-204,636	-200,000	0,020	0,116
-203,621	398,143	0,045	0,068
-202,606	-15,302	-0,034	-0,015
-201,592	800,000	-0,010	0,028
-200,577	-200,000	-0,004	-0,042
-199,563	212,459	-0,065	-0,074
-198,548	800,000	0,039	-0,090
-197,533	-97,480	-0,076	0,014
-196,519	-25,951	-0,069	0,029
-195,504	150,022	-0,044	0,043
-194,490	473,146	-0,052	-0,084
-193,475	-200,000	0,009	-0,113
-192,460	-21,606	-0,056	-0,025
-191,446	-159,162	-0,099	0,004
-190,431	-56,504	0,087	0,028
-189,417	488,077	-0,035	0,058
-188,402	-91,689	0,067	-0,014
-187,387	800,000	-0,034	0,070
-186,373	741,034	0,049	0,095
-185,358	150,968	0,015	-0,015
-184,344	402,437	0,053	0,081
-183,329	738,848	-0,055	0,107
-182,315	-200,000	-0,024	-0,081
-181,300	754,497	-0,030	0,059
-180,285	-141,214	-0,161	-0,012
-179,271	530,526	-0,031	-0,053
-178,256	-200,000	-0,023	-0,131
-177,242	4,924	0,090	-0,048
-176,227	-104,424	0,109	0,018
-175,212	207,457	0,092	0,104
-174,198	-137,754	0,102	0,008
-173,183	-73,873	-0,206	-0,054
-172,169	1,917	-0,082	-0,043
-171,154	281,618	-0,027	0,035
-170,139	-79,765	0,038	0,009
-169,125	140,819	-0,070	0,067
-168,110	3,494	0,080	0,042
-167,096	-98,214	-0,110	0,020
-166,081	800,000	0,018	0,058
-165,066	-147,082	-0,088	0,005
-164,052	377,960	0,072	0,107
-163,037	-80,239	-0,083	0,020
-162,023	174,102	0,092	0,096
-161,008	-78,873	-0,115	0,028
-159,993	-40,494	0,063	0,023
-158,979	706,200	-0,037	0,070
-157,964	3,321	0,066	0,034
-156,950	-200,000	-0,003	-0,027
-155,935	-119,542	0,087	-0,011
-154,920	292,387	0,083	0,109
-153,906	-200,000	-0,029	0,142
-152,891	14,269	-0,015	-0,008
-151,877	-200,000	0,014	0,066
-150,862	-200,000	-0,016	0,115
-149,847	-200,000	0,011	0,149
-148,833	-22,410	0,112	0,049
-147,818	800,000	-0,010	0,025
-146,804	-200,000	-0,002	0,130
-145,789	-200,000	0,001	0,065
-144,775	-200,000	-0,014	-0,078
-143,760	494,452	-0,023	-0,038
-142,745	-149,181	-0,100	-0,006
-141,731	-200,000	-0,003	0,058
-140,716	0,684	0,031	0,016
-139,702	5,241	0,035	-0,018
-138,687	47,843	-0,093	-0,062
-137,672	222,412	-0,058	-0,067
-136,658	-200,000	0,032	-0,104
-135,643	-107,822	-0,065	-0,010
-134,629	-13,785	0,031	-0,015
-133,614	-35,798	0,045	0,017
-132,599	-49,838	0,051	0,017
-131,585	308,448	-0,032	-0,043
-130,570	42,027	-0,045	0,030
-129,556	74,445	-0,075	-0,056
-128,541	800,000	-0,042	-0,102
-127,526	-115,224	-0,040	-0,005
-126,512	-200,000	0,015	0,051
-125,497	529,384	0,050	0,086
-124,483	-61,240	0,152	0,046
-123,468	800,000	0,014	0,038
-122,453	-138,622	0,159	-0,012
-121,439	11,665	-0,050	-0,028
-120,424	562,984	0,066	-0,116
-119,410	85,837	0,122	0,096
-118,395	62,996	-0,113	0,081
-117,380	-200,000	0,003	0,060
-116,366	601,145	0,057	0,103
-115,351	-200,000	-0,006	0,108
-114,337	364,258	-0,013	-0,019
-113,322	13,431	0,058	0,033
-112,307	292,567	-0,061	-0,081
-111,293	126,887	0,080	0,073
-110,278	-200,000	-0,006	0,023
-109,264	-71,061	-0,057	-0,015
-108,249	-49,664	0,150	-0,051
-107,234	39,608	0,086	-0,055
-106,220	-59,044	-0,059	0,018
-105,205	-200,000	0,016	0,121
-104,191	-76,779	-0,126	-0,031
-103,176	-200,000	-0,018	0,060
-102,162	-200,000	0,004	-0,101
-101,147	24,456	-0,101	-0,060
-100,132	-162,288	-0,143	-0,005
-99,118	290,905	0,065	-0,086
-98,103	-102,926	0,047	-0,008
-97,089	-200,000	0,040	0,198
-96,074	-107,766	-0,087	-0,013
-95,059	53,456	-0,114	0,078
-94,045	180,048	0,090	-0,095
-93,030	217,289	-0,110	-0,126
-92,016	99,696	-0,167	-0,139
-91,001	413,652	0,073	-0,111
-89,986	-200,000	0,002	0,056
-88,972	386,328	0,056	0,084
-87,957	201,474	0,008	0,009
-86,943	80,328	0,018	0,014
-85,928	-44,070	0,113	-0,041
-84,913	-16,653	0,066	0,030
-83,899	77,537	0,089	0,068
-82,884	-200,000	-0,002	0,024
-81,870	-156,525	0,048	0,002
-80,855	800,000	0,024	0,058
-79,840	472,972	-0,059	-0,095
-78,826	63,273	-0,097	0,070
-77,811	-127,145	0,091	0,009
-76,797	-200,000	0,009	0,056
-75,782	290,337	0,043	-0,056
-74,767	-200,000	-0,012	0,091
-73,753	73,190	0,093	-0,070
-72,738	800,000	0,063	-0,151
-71,724	-145,602	-0,255	0,016
-70,709	333,529	0,037	-0,051
-69,694	1,079	-0,092	0,047
-68,680	-63,324	0,126	0,037
-67,665	163,954	-0,098	-0,099
-66,651	-200,000	-0,014	0,068
-65,636	215,709	-0,059	-0,068
-64,622	-13,928	-0,065	-0,030
-63,607	-200,000	-0,001	-0,080
-62,592	196,340	-0,067	-0,074
-61,578	129,167	0,103	0,094
-60,563	-6,568	-0,227	0,111
-59,549	488,619	0,055	0,091
-58,534	77,630	-2,690	-2,054
-57,519	297,402	0,307	-0,406
-56,505	800,000	-1,757	-5,455
-55,490	669,435	1,115	2,080
-54,476	800,000	5,124	11,133
-53,461	-200,000	22,259	348,508
-52,446	800,000	761,201	2290,700
-51,432	511,240	1645,422	2758,571
-50,417	96,593	1607,337	1319,902
-49,403	64,356	1264,490	912,700
-48,388	22,709	1016,667	595,872
-47,373	19,423	984,176	565,980
-46,359	12,804	971,182	536,859
-45,344	8,466	967,824	520,786
-44,330	8,977	965,795	521,343
-43,315	7,912	964,170	516,968
-42,300	7,872	963,098	516,243
-41,286	7,916	961,921	515,736
-40,271	7,857	960,912	514,981
-39,257	7,886	960,089	514,614
-38,242	7,819	959,241	513,920
-37,227	7,794	958,599	513,475
-36,213	7,834	957,707	513,109
-35,198	7,771	956,894	512,446
-34,184	7,938	955,936	512,455
-33,169	7,772	955,238	511,522
-32,154	7,945	954,071	511,438
-31,140	7,920	953,210	510,875
-30,125	7,901	952,455	510,388
-29,111	7,862	951,715	509,846
-28,096	7,885	951,131	509,587
-27,082	7,827	950,512	509,048
-26,067	7,801	949,824	508,575
-25,052	7,780	948,871	507,979
-24,038	7,781	948,082	507,538
-23,023	7,793	947,517	507,254
-22,009	7,874	946,943	507,188
-20,994	7,851	946,376	506,791
-19,979	7,774	945,709	506,165
-18,965	7,777	945,311	505,943
-17,950	7,860	944,463	505,732
-16,936	7,787	943,739	505,093
-15,921	7,847	943,056	504,897
-14,906	7,746	942,442	504,228
-13,892	7,730	941,856	503,844
-12,877	7,703	941,309	503,446
-11,863	7,669	940,751	503,018
-10,848	7,709	940,114	502,783
-9,833	7,792	939,500	502,700
-8,819	7,813	938,902	502,428
-7,804	7,718	938,263	501,765
-6,790	7,787	937,596	501,604
-5,775	7,803	937,190	501,420
-4,760	7,773	936,476	500,922
-3,746	7,751	936,139	500,653
-2,731	7,618	935,194	499,707
-1,717	7,613	934,669	499,391
-0,702	7,564	934,105	498,915
0,313	7,445	933,287	498,854
1,327	10,879	930,855	508,328
2,342	19,659	779,037	448,402
3,356	14,905	447,438	250,371
4,371	-11,078	312,483	147,238
5,386	-14,700	294,949	135,304
6,400	-16,848	288,853	130,368
7,415	-17,195	286,010	128,733
8,429	-18,089	284,286	127,074
9,444	-18,169	283,374	126,578
10,459	-18,192	282,702	126,244
11,473	-18,301	282,135	125,874
12,488	-18,058	281,631	125,872
13,502	-18,308	281,159	125,409
14,517	-17,945	280,428	125,421
15,531	-18,348	280,114	124,882
16,546	-18,412	279,756	124,650
17,561	-18,377	279,297	124,468
18,575	-18,314	278,984	124,378
19,590	-18,300	278,542	124,183
20,604	-18,239	278,404	124,168
21,619	-18,295	278,071	123,956
22,634	-18,491	277,665	123,577
23,648	-18,179	277,361	123,728
24,663	-18,019	276,980	123,698
25,677	-18,436	276,788	123,206
26,692	-18,215	276,531	123,290
27,707	-18,154	276,005	123,102
28,721	-18,257	275,991	122,987
29,736	-18,222	275,766	122,909
30,750	-18,336	275,323	122,593
31,765	-18,327	275,210	122,541
32,780	-18,234	274,886	122,473
33,794	-18,286	274,794	122,372
34,809	-18,150	274,310	122,273
35,823	-18,252	274,132	122,087
36,838	-18,265	273,899	121,961
37,853	-18,442	273,736	121,711
38,867	-18,476	273,424	121,530
39,882	-18,353	273,032	121,460
40,896	-18,338	272,942	121,423
41,911	-18,187	272,438	121,328
42,926	-18,015	272,359	121,442
43,940	-18,343	272,167	121,041
44,955	-18,257	271,942	121,011
45,969	-18,447	271,909	120,808
46,984	-18,312	271,573	120,774
47,999	-18,354	271,347	120,623
49,013	-18,160	271,055	120,662
50,028	-18,097	270,916	120,648
51,042	-18,100	270,749	120,560
52,057	-18,130	270,299	120,321
53,071	-18,016	270,162	120,354
54,086	-18,278	269,848	119,963
55,101	-18,182	269,757	119,999
56,115	-18,144	269,556	119,935
57,130	-18,130	269,307	119,826
58,144	-18,110	268,946	119,673
59,159	-18,193	268,556	119,413
60,174	-18,147	268,471	119,407
61,188	-18,124	268,328	119,353
62,203	-18,352	268,120	119,042
63,217	-18,148	267,851	119,098
64,232	-18,284	267,602	118,852
65,247	-18,066	267,266	118,891
66,261	-18,150	267,141	118,749
67,276	-18,157	266,875	118,614
68,290	-18,371	266,787	118,370
69,305	-18,091	266,511	118,490
70,320	-18,054	266,160	118,357
71,334	-18,273	266,066	118,107
72,349	-18,122	265,918	118,168
73,363	-18,066	265,541	118,040
74,378	-18,204	265,372	117,829
75,393	-18,155	265,134	117,757
76,407	-18,172	264,903	117,629
77,422	-18,149	264,699	117,549
78,436	-18,183	264,480	117,410
79,451	-18,206	264,285	117,293
80,466	-18,172	263,854	117,122
81,480	-18,244	263,620	116,943
82,495	-18,207	263,539	116,929
83,509	-18,195	263,434	116,883
84,524	-18,277	263,148	116,673
85,539	-17,984	262,894	116,812
86,553	-18,039	262,772	116,698
87,568	-18,017	262,528	116,599
88,582	-18,395	262,349	116,171
89,597	-18,256	262,170	116,206
90,611	-18,128	261,968	116,220
91,626	-18,174	261,804	116,096
92,641	-18,041	261,550	116,091
93,655	-18,076	261,327	115,951
94,670	-18,164	261,015	115,724
95,684	-18,117	260,670	115,602
96,699	-18,298	260,674	115,433
97,714	-18,175	260,537	115,471
98,728	-18,239	260,345	115,319
99,743	-18,033	260,067	115,368
100,757	-17,966	259,850	115,320
101,772	-18,055	259,678	115,155
102,787	-18,342	259,470	114,799
103,801	-18,251	259,388	114,833
104,816	-18,184	258,938	114,683
105,830	-18,170	258,917	114,676
106,845	-18,005	258,619	114,678
107,860	-18,038	258,326	114,510
108,874	-18,092	258,176	114,385
109,889	-18,004	258,000	114,374
110,903	-17,943	257,640	114,258
111,918	-18,166	257,675	114,068
112,933	-18,086	257,440	114,024
113,947	-17,996	257,242	114,004
114,962	-18,081	256,941	113,787
115,976	-18,101	256,788	113,692
116,991	-18,160	256,497	113,501
118,006	-18,134	256,477	113,505
119,020	-18,186	256,361	113,398
120,035	-17,988	256,043	113,419
121,049	-18,051	255,910	113,296
122,064	-17,917	255,587	113,259
123,079	-18,144	255,540	113,031
124,093	-18,164	255,426	112,953
125,108	-18,072	255,052	112,857
126,122	-17,936	254,870	112,884
127,137	-18,180	254,653	112,567
128,151	-18,036	254,528	112,627
129,166	-18,115	254,343	112,466
130,181	-18,241	254,243	112,303
131,195	-18,163	253,830	112,178
132,210	-18,157	253,575	112,061
133,224	-18,137	253,519	112,043
134,239	-17,917	253,326	112,137
135,254	-18,040	253,105	111,923
136,268	-17,879	252,690	111,868
137,283	-18,011	252,721	111,758
138,297	-18,122	252,439	111,528
139,312	-18,103	252,387	111,512
140,327	-18,171	252,082	111,310
141,341	-18,159	251,934	111,244
142,356	-17,941	251,634	111,287
143,370	-17,906	251,564	111,277
144,385	-18,011	251,377	111,095
145,400	-18,123	251,075	110,856
146,414	-18,130	250,913	110,769
147,429	-17,984	250,676	110,778
148,443	-18,014	250,616	110,716
149,458	-18,102	250,405	110,538
150,473	-17,828	250,166	110,655
151,487	-17,763	249,992	110,624
152,502	-17,905	249,582	110,312
153,516	-18,248	249,601	110,020
154,531	-17,885	249,438	110,246
155,546	-17,960	249,348	110,133
156,560	-18,006	248,958	109,912
157,575	-17,940	248,877	109,922
158,589	-17,755	248,528	109,914
159,604	-17,976	248,461	109,688
160,619	-17,997	248,198	109,545
161,633	-18,035	248,056	109,440
162,648	-17,794	247,897	109,563
163,662	-18,067	247,881	109,317
164,677	-17,954	247,680	109,314
165,692	-18,059	247,470	109,123
166,706	-18,047	247,344	109,068
167,721	-17,968	247,070	109,003
168,735	-17,718	246,770	109,069
169,750	-17,982	246,760	108,835
170,764	-17,947	246,864	108,901
171,779	-17,849	246,492	108,808
172,794	-17,763	246,432	108,845
173,808	-17,867	246,072	108,589
174,823	-17,900	245,943	108,495
175,837	-17,831	245,702	108,436
176,852	-17,932	245,714	108,348
177,867	-18,034	245,560	108,186
178,881	-17,683	245,263	108,336
179,896	-17,955	245,066	108,014
180,910	-17,899	244,808	107,937
181,925	-17,815	244,601	107,906
182,940	-17,944	244,573	107,777
183,954	-18,019	244,446	107,649
184,969	-17,917	244,255	107,640
185,983	-17,745	244,002	107,661
186,998	-17,820	243,798	107,499
188,013	-17,946	243,702	107,344
189,027	-17,783	243,648	107,445
190,042	-17,886	243,360	107,224
191,056	-17,819	243,221	107,207
192,071	-17,837	243,088	107,124
193,086	-17,728	242,779	107,068
194,100	-17,902	242,806	106,928
195,115	-17,836	242,383	106,786
196,129	-17,869	242,226	106,680
197,144	-17,811	242,065	106,647
198,159	-17,658	241,708	106,605
199,173	-17,786	241,815	106,538
200,188	-18,070	241,683	106,239
201,202	-17,966	241,473	106,223
202,217	-18,014	241,323	106,108
203,232	-17,877	240,902	106,025
204,246	-17,927	240,957	105,998
205,261	-17,506	240,654	106,197
206,275	-15,880	241,466	107,869
207,290	-10,296	243,197	113,205
208,304	-4,901	244,899	118,424
209,319	-3,142	245,420	120,113
210,334	-2,548	245,449	120,605
211,348	-1,538	245,350	121,375
212,363	-1,074	245,691	121,915
213,377	-0,235	245,662	122,579
214,392	0,034	245,808	122,861
215,407	0,463	245,739	123,169
216,421	0,661	245,505	123,203
217,436	0,700	245,335	123,138
218,450	0,557	245,285	122,985
219,465	0,736	245,202	123,079
220,480	0,746	244,849	122,899
221,494	0,812	244,696	122,866
222,509	0,522	244,519	122,528
223,523	0,175	244,296	122,123
224,538	0,139	244,018	121,944
225,553	0,090	244,040	121,904
226,567	0,062	243,748	121,725
227,582	0,218	243,556	121,744
228,596	0,280	243,497	121,755
229,611	0,055	243,328	121,477
230,626	0,116	243,175	121,439
231,640	0,241	242,911	121,397
232,655	0,048	242,724	121,137
233,669	0,025	242,611	121,051
234,684	0,101	242,507	121,050
235,699	0,314	242,230	121,073
236,713	0,299	242,279	121,075
237,728	0,188	242,011	120,840
238,742	0,181	241,870	120,753
239,757	0,227	241,636	120,663
240,772	0,173	241,512	120,547
241,786	-0,052	241,395	120,297
242,801	0,253	240,999	120,334
243,815	0,141	241,075	120,271
244,830	0,033	240,914	120,093
245,844	0,287	240,596	120,127
246,859	0,052	240,681	119,970
247,874	0,174	240,435	119,935
248,888	0,250	240,111	119,824
249,903	0,253	240,247	119,883
250,917	0,235	239,940	119,704
251,932	0,288	239,818	119,676
252,947	0,323	239,586	119,577
253,961	0,474	239,436	119,612
254,976	0,325	239,215	119,372
255,990	0,538	239,059	119,453
257,005	0,064	239,087	119,079
258,020	0,228	238,920	119,116
259,034	0,358	238,631	119,065
260,049	0,163	238,576	118,872
261,063	0,319	238,297	118,845
262,078	0,287	238,211	118,766
263,093	0,311	238,091	118,715
264,107	0,278	237,899	118,583
265,122	0,342	237,787	118,567
266,136	0,409	237,646	118,540
267,151	0,286	237,484	118,351
268,166	0,041	237,350	118,080
269,180	-0,044	237,170	117,913
270,195	0,317	236,914	118,060
271,209	0,177	236,820	117,892
272,224	0,501	236,605	118,030
273,239	0,046	236,630	117,673
274,253	0,369	236,370	117,787
275,268	0,242	236,232	117,608
276,282	0,286	236,109	117,571
277,297	0,167	235,916	117,371
278,312	0,234	235,678	117,295
279,326	0,304	235,795	117,397
280,341	0,382	235,620	117,361
281,355	0,278	235,332	117,126
282,370	0,419	235,209	117,164
283,384	0,226	235,057	116,927
284,399	0,103	234,871	116,728
285,414	0,236	234,689	116,731
286,428	0,220	234,653	116,690
287,443	0,486	234,358	116,740
288,457	0,480	234,301	116,696
289,472	0,355	234,122	116,500
290,487	0,476	234,002	116,524
291,501	0,436	233,871	116,418
292,516	0,327	233,734	116,254
293,530	0,240	233,582	116,101
294,545	0,214	233,498	116,028
295,560	0,320	233,265	115,984
296,574	0,451	233,142	116,014
297,589	0,376	232,916	115,834
298,603	0,413	232,859	115,824
299,618	0,294	232,676	115,630
300,633	0,291	232,592	115,575
301,647	0,372	232,543	115,604
302,662	0,558	232,258	115,595
303,676	0,505	232,205	115,517
304,691	0,228	231,918	115,152
305,706	0,192	231,789	115,049
306,720	0,564	231,673	115,267
307,735	0,393	231,468	115,023
308,749	0,650	231,309	115,132
309,764	0,463	231,223	114,935
310,779	0,479	231,075	114,863
311,793	0,417	230,870	114,704
312,808	0,490	230,667	114,649
313,822	0,619	230,613	114,710
314,837	0,602	230,411	114,587
315,852	0,712	230,168	114,539
316,866	0,336	230,232	114,274
317,881	0,603	230,000	114,352
318,895	0,654	229,893	114,328
319,910	0,577	229,757	114,192
320,925	0,649	229,546	114,131
321,939	0,408	229,550	113,940
322,954	0,503	229,341	113,898
323,968	0,610	229,136	113,867
324,983	0,577	228,940	113,735
325,997	0,465	228,795	113,568
327,012	0,749	228,605	113,678
328,027	0,420	228,637	113,435
329,041	0,682	228,487	113,548
330,056	0,528	228,285	113,321
331,070	0,559	228,160	113,273
332,085	0,591	227,939	113,177
333,100	0,913	227,836	113,358
334,114	0,861	227,599	113,191
335,129	0,596	227,549	112,957
336,143	0,626	227,360	112,875
337,158	0,669	227,299	112,868
338,173	0,668	227,117	112,766
339,187	0,794	226,949	112,767
340,202	0,573	226,795	112,515
341,216	0,800	226,733	112,645
342,231	0,574	226,601	112,400
343,246	0,599	226,504	112,360
344,260	0,729	226,273	112,333
345,275	0,753	226,134	112,272
346,289	0,955	225,993	112,342
347,304	0,703	225,908	112,102
348,319	0,695	225,811	112,038
349,333	0,627	225,577	111,861
350,348	0,781	225,455	111,905
351,362	0,705	225,255	111,740
352,377	0,639	225,218	111,662
353,392	1,057	224,871	111,791
354,406	0,802	224,699	111,505
355,421	192,731	1312,460	1379,630
356,435	154,372	1444,850	1379,459
