DTS Sentinel unit serial number:	SN410029Multiplexer serial number:	ORYXHardware model number:	OX2-SRSoftware version number:	ORYX F/W v4,00 Oryx Data Collector v3.7.2.0data status	okinstallation	B5 Nyhavnadifferential loss correction	single-endedforward channel	channel 2reverse channel	N/Adate	2023/12/13time	11:57:13forward acquisition time	300,00reverse acquisition time	0,00gamma	499,1914k internal	0,3161k external	0,3161temperature offset calibration	1,0000default loss term (dB/km)	0,3820temperature slope calibration	1,0000multiplexer offset coefficient	1,0000multiplexer slope coefficient	1,0000fibre end	0,00T internal ref (°C)	13,92T ext. ref 1 (°C)	-1,98T ext. ref 2 (°C)	-2,28length (m)	temperature (°C)	Stokes	anti-Stokes-744,400	127,499	0,057	0,053
-743,385	-92,429	-0,200	0,041
-742,371	-55,823	0,189	0,062
-741,356	-66,619	-0,436	0,126
-740,342	-158,764	0,265	0,011
-739,327	-113,298	-0,324	-0,046
-738,312	-200,000	0,031	0,118
-737,298	-160,317	-0,156	0,006
-736,283	37,506	0,138	0,090
-735,269	-52,370	-0,256	0,087
-734,254	800,000	0,059	0,142
-733,239	-90,149	-0,526	-0,112
-732,225	-152,387	0,132	0,007
-731,210	800,000	0,059	0,153
-730,196	116,445	-0,080	-0,072
-729,181	800,000	-0,058	-0,146
-728,167	-51,375	-0,051	0,018
-727,152	-20,811	-0,094	-0,042
-726,137	71,981	-0,145	-0,111
-725,123	-166,125	0,156	0,005
-724,108	800,000	-0,046	-0,140
-723,094	456,417	-0,043	-0,070
-722,079	507,907	-0,042	0,073
-721,064	-22,402	-0,040	0,018
-720,050	430,940	-0,030	-0,048
-719,035	96,953	-0,032	-0,027
-718,021	-55,406	-0,060	-0,020
-717,006	-200,000	0,005	0,086
-715,991	-200,000	0,022	-0,119
-714,977	-154,981	-0,079	-0,004
-713,962	-94,421	-0,076	0,015
-712,948	-133,791	0,152	0,014
-711,933	33,639	0,035	0,022
-710,918	-93,193	0,042	0,008
-709,904	-135,492	-0,095	-0,008
-708,889	-200,000	-0,004	0,027
-707,875	-200,000	-0,003	-0,023
-706,860	-55,909	0,067	0,022
-705,845	-45,579	0,064	-0,023
-704,831	-200,000	-0,019	-0,171
-703,816	-85,338	0,088	-0,020
-702,802	-10,674	0,033	0,016
-701,787	82,351	-0,059	-0,047
-700,772	-200,000	-0,004	-0,098
-699,758	317,686	0,057	-0,079
-698,743	71,500	0,028	-0,021
-697,729	311,713	-0,073	0,100
-696,714	251,542	0,023	0,029
-695,699	-129,873	0,110	0,011
-694,685	3,625	-0,133	0,071
-693,670	-155,222	0,031	0,001
-692,656	-137,985	-0,048	-0,004
-691,641	-200,000	0,019	-0,083
-690,627	800,000	-0,031	-0,081
-689,612	-200,000	-0,009	-0,064
-688,597	800,000	0,047	-0,108
-687,583	9,093	0,096	-0,053
-686,568	-200,000	0,018	-0,094
-685,554	-5,486	-0,043	-0,022
-684,539	413,275	-0,079	0,123
-683,524	-200,000	0,010	0,073
-682,510	-200,000	0,022	0,079
-681,495	-18,841	-0,042	-0,019
-680,481	800,000	0,039	-0,093
-679,466	432,976	0,040	-0,064
-678,451	-92,565	-0,068	-0,014
-677,437	64,771	0,080	0,059
-676,422	-103,438	0,135	-0,023
-675,408	22,164	-0,013	-0,008
-674,393	-200,000	0,013	-0,043
-673,378	-35,658	-0,103	0,041
-672,364	-41,084	-0,062	0,024
-671,349	800,000	0,016	-0,037
-670,335	-43,238	0,110	-0,041
-669,320	-200,000	0,016	-0,092
-668,305	104,792	-0,030	-0,026
-667,291	-43,420	-0,058	-0,021
-666,276	800,000	0,057	-0,117
-665,262	-200,000	-0,023	-0,102
-664,247	76,823	0,051	0,040
-663,232	-200,000	0,021	-0,143
-662,218	-117,669	0,037	-0,005
-661,203	719,788	-0,035	-0,068
-660,189	228,424	0,049	-0,059
-659,174	78,607	-0,074	-0,058
-658,159	-120,176	-0,065	0,008
-657,145	87,319	0,134	0,109
-656,130	800,000	0,030	0,067
-655,116	-51,447	-0,072	-0,025
-654,101	21,011	0,018	0,011
-653,086	-200,000	-0,025	-0,102
-652,072	-200,000	-0,012	-0,109
-651,057	80,313	0,082	-0,064
-650,043	800,000	0,064	-0,156
-649,028	-10,537	-0,174	-0,084
-648,014	-117,509	-0,056	-0,007
-646,999	78,952	-0,010	0,008
-645,984	734,423	-0,011	-0,022
-644,970	-49,486	-0,034	0,012
-643,955	-105,696	-0,096	-0,016
-642,941	-62,291	0,029	0,009
-641,926	-200,000	-0,003	-0,152
-640,911	800,000	0,033	-0,104
-639,897	-200,000	0,013	-0,048
-638,882	-200,000	-0,011	0,210
-637,868	8,274	0,026	0,014
-636,853	151,504	-0,048	-0,048
-635,838	657,917	-0,051	-0,096
-634,824	-51,505	0,043	0,015
-633,809	-135,033	0,124	0,011
-632,795	36,754	0,054	0,035
-631,780	112,759	0,032	0,029
-630,765	139,730	0,071	-0,069
-629,751	-200,000	-0,000	0,069
-628,736	80,826	-0,065	-0,051
-627,722	64,253	0,045	0,033
-626,707	-67,655	-0,181	-0,052
-625,692	800,000	0,011	0,031
-624,678	-98,358	0,073	0,014
-623,663	-113,575	-0,078	-0,011
-622,649	203,257	0,036	-0,041
-621,634	-75,945	-0,029	-0,007
-620,619	240,122	-0,068	-0,083
-619,605	146,350	0,034	-0,034
-618,590	245,012	-0,095	0,118
-617,576	-123,984	0,207	-0,024
-616,561	18,247	-0,138	0,080
-615,546	-200,000	-0,031	-0,121
-614,532	143,108	-0,132	-0,129
-613,517	-42,955	0,020	0,008
-612,503	-200,000	-0,013	0,067
-611,488	581,433	0,035	0,064
-610,474	-102,866	0,087	-0,015
-609,459	387,329	-0,047	0,071
-608,444	-10,581	-0,087	-0,042
-607,430	800,000	-0,020	0,048
-606,415	-200,000	-0,024	-0,112
-605,401	-200,000	0,031	0,103
-604,386	800,000	-0,038	-0,082
-603,371	-134,170	0,064	-0,006
-602,357	-63,397	-0,100	0,030
-601,342	-92,076	-0,194	0,040
-600,328	210,441	-0,057	-0,065
-599,313	-200,000	0,007	-0,030
-598,298	-200,000	0,001	0,026
-597,284	-200,000	-0,032	0,129
-596,269	23,351	-0,048	-0,029
-595,255	57,334	0,085	0,060
-594,240	-200,000	-0,015	-0,094
-593,225	800,000	0,058	-0,161
-592,211	-147,559	-0,171	-0,010
-591,196	-72,410	-0,091	-0,025
-590,182	-60,577	0,126	-0,039
-589,167	495,761	0,062	-0,104
-588,152	131,442	-0,058	0,055
-587,138	-200,000	0,027	-0,109
-586,123	-144,134	0,186	-0,013
-585,109	-104,218	-0,098	0,016
-584,094	-6,327	-0,046	0,023
-583,079	95,628	-0,091	0,076
-582,065	39,096	-0,037	0,024
-581,050	-200,000	-0,003	-0,139
-580,036	53,404	-0,128	0,089
-579,021	-50,922	-0,137	-0,047
-578,006	126,630	0,095	-0,088
-576,992	78,759	-0,085	-0,067
-575,977	-62,664	-0,077	0,023
-574,963	-121,634	-0,113	-0,014
-573,948	-2,941	-0,017	0,009
-572,934	153,498	0,046	-0,046
-571,919	763,922	0,074	-0,148
-570,904	299,398	-0,094	-0,127
-569,890	800,000	0,075	-0,158
-568,875	718,237	-0,073	0,142
-567,861	172,909	0,073	-0,077
-566,846	-200,000	0,009	-0,060
-565,831	-50,640	-0,088	0,030
-564,817	456,172	-0,089	-0,145
-563,802	-140,199	-0,137	0,010
-562,788	-76,289	-0,066	-0,017
-561,773	75,081	0,128	0,098
-560,758	800,000	0,007	-0,020
-559,744	-200,000	-0,016	-0,061
-558,729	62,112	0,093	0,068
-557,715	360,818	-0,080	0,117
-556,700	-95,773	0,056	0,011
-555,685	37,254	-0,210	-0,136
-554,671	25,139	-0,052	0,031
-553,656	-122,022	0,014	0,002
-552,642	162,400	0,068	0,070
-551,627	800,000	-0,015	-0,034
-550,612	-200,000	0,012	-0,057
-549,598	-47,505	-0,122	0,043
-548,583	29,764	0,133	-0,083
-547,569	800,000	0,044	-0,121
-546,554	-200,000	0,008	-0,113
-545,539	-37,509	-0,015	-0,006
-544,525	-104,436	-0,120	0,020
-543,510	-200,000	0,014	-0,125
-542,496	-200,000	0,021	-0,232
-541,481	189,685	-0,049	-0,053
-540,466	-165,174	0,102	-0,003
-539,452	470,557	0,027	0,044
-538,437	-70,319	0,191	0,053
-537,423	-3,989	-0,077	0,039
-536,408	323,614	0,068	0,095
-535,393	52,470	-0,084	-0,058
-534,379	-103,431	-0,147	-0,025
-533,364	-200,000	-0,016	0,104
-532,350	96,770	0,082	0,068
-531,335	43,165	0,098	-0,065
-530,321	44,616	0,101	0,067
-529,306	-54,764	0,115	0,038
-528,291	-67,513	-0,080	-0,023
-527,277	-200,000	0,001	-0,030
-526,262	173,183	-0,039	-0,041
-525,248	16,775	0,146	0,084
-524,233	-36,816	-0,068	0,027
-523,218	-32,508	-0,032	-0,013
-522,204	-200,000	0,012	-0,187
-521,189	-160,802	-0,153	0,006
-520,175	800,000	-0,048	-0,133
-519,160	-115,017	0,162	-0,022
-518,145	229,442	0,033	-0,039
-517,131	-104,954	0,110	-0,018
-516,116	422,352	0,025	-0,039
-515,102	-173,693	0,141	0,003
-514,087	-200,000	-0,016	0,101
-513,072	800,000	0,022	0,045
-512,058	49,605	-0,086	-0,059
-511,043	800,000	0,036	0,076
-510,029	800,000	0,126	0,278
-509,014	-52,282	-0,034	0,011
-507,999	455,867	0,070	-0,114
-506,985	54,662	-0,110	-0,077
-505,970	244,811	-0,089	0,109
-504,956	87,187	0,135	0,109
-503,941	253,440	-0,102	-0,128
-502,926	-100,083	0,171	-0,031
-501,912	-42,349	-0,019	-0,007
-500,897	221,800	-0,037	0,044
-499,883	38,207	0,029	0,019
-498,868	634,412	-0,052	-0,097
-497,853	-87,016	0,087	-0,019
-496,839	-200,000	0,018	-0,057
-495,824	-134,502	-0,140	0,012
-494,810	281,377	-0,077	0,100
-493,795	-200,000	-0,037	0,129
-492,781	-165,732	0,065	0,002
-491,766	202,761	-0,037	-0,041
-490,751	-91,577	-0,086	-0,018
-489,737	-114,588	-0,126	0,017
-488,722	-30,009	-0,116	0,048
-487,708	-200,000	0,015	0,065
-486,693	-155,768	0,150	0,007
-485,678	376,642	0,044	-0,066
-484,664	438,948	0,033	-0,053
-483,649	288,963	0,043	-0,056
-482,635	160,338	0,038	0,039
-481,620	-82,739	-0,086	-0,020
-480,605	213,568	0,140	0,162
-479,591	-71,783	-0,009	0,002
-478,576	470,083	0,087	-0,144
-477,562	55,622	-0,071	0,050
-476,547	-200,000	0,007	0,095
-475,532	86,247	-0,064	0,052
-474,518	169,961	-0,103	0,108
-473,503	714,486	-0,045	0,086
-472,489	73,044	0,101	0,077
-471,474	95,450	0,023	0,019
-470,459	390,908	-0,092	-0,139
-469,445	117,680	0,080	0,072
-468,430	6,826	-0,075	0,041
-467,416	94,930	0,055	-0,045
-466,401	-200,000	0,010	0,082
-465,386	800,000	0,010	-0,024
-464,372	-18,944	0,117	-0,053
-463,357	119,211	-0,052	-0,047
-462,343	582,885	-0,040	-0,072
-461,328	-188,875	0,165	0,001
-460,313	-153,870	0,217	-0,011
-459,299	25,412	0,092	-0,056
-458,284	800,000	-0,024	0,066
-457,270	466,970	0,037	-0,060
-456,255	-200,000	0,002	0,062
-455,241	800,000	-0,010	-0,031
-454,226	800,000	-0,040	-0,113
-453,211	94,067	-0,062	-0,051
-452,197	-200,000	0,009	0,080
-451,182	800,000	0,048	0,108
-450,168	-200,000	0,000	0,035
-449,153	-200,000	0,013	-0,047
-448,138	94,200	-0,089	-0,074
-447,124	60,478	0,052	-0,037
-446,109	26,303	-0,114	0,069
-445,095	-52,246	-0,107	0,036
-444,080	800,000	-0,055	0,111
-443,065	-8,422	-0,042	-0,020
-442,051	-26,511	-0,080	0,034
-441,036	-36,201	-0,171	-0,067
-440,022	552,469	0,122	-0,214
-439,007	346,684	0,053	0,076
-437,992	-61,204	-0,111	0,034
-436,978	-26,586	0,201	0,085
-435,963	-200,000	-0,019	-0,092
-434,949	59,012	0,018	0,013
-433,934	800,000	-0,017	0,050
-432,919	-200,000	-0,016	0,106
-431,905	209,367	0,002	-0,002
-430,890	-80,884	0,058	-0,014
-429,876	-180,684	-0,017	-0,000
-428,861	-25,258	0,168	0,072
-427,846	-121,846	-0,031	0,004
-426,832	-200,000	0,011	0,085
-425,817	381,431	-0,109	-0,163
-424,803	-200,000	-0,011	0,106
-423,788	-200,000	-0,029	0,099
-422,773	-125,633	0,084	-0,009
-421,759	-44,350	-0,053	0,019
-420,744	-35,369	0,087	-0,034
-419,730	709,900	-0,075	-0,144
-418,715	-34,817	-0,035	0,014
-417,701	94,810	-0,033	-0,027
-416,686	800,000	-0,020	-0,044
-415,671	16,332	-0,051	-0,029
-414,657	-96,880	0,132	-0,025
-413,642	-16,689	0,144	-0,066
-412,628	186,346	0,047	-0,051
-411,613	800,000	0,032	-0,086
-410,598	-200,000	0,001	-0,020
-409,584	800,000	-0,020	-0,061
-408,569	-200,000	0,016	0,076
-407,555	-64,330	0,184	-0,054
-406,540	800,000	0,065	-0,133
-405,525	62,068	0,049	-0,035
-404,511	-200,000	0,005	-0,070
-403,496	-200,000	0,000	-0,072
-402,482	-34,036	0,103	-0,041
-401,467	485,635	-0,050	-0,083
-400,452	-200,000	0,001	-0,007
-399,438	21,259	0,084	0,049
-398,423	-108,601	0,057	0,009
-397,409	-85,469	0,159	-0,036
-396,394	241,390	-0,097	-0,118
-395,379	-200,000	-0,012	0,095
-394,365	106,933	-0,045	0,039
-393,350	-36,356	0,145	-0,056
-392,336	-200,000	-0,028	0,185
-391,321	-124,625	0,126	-0,014
-390,306	4,180	0,070	-0,037
-389,292	-200,000	0,021	-0,181
-388,277	-23,608	-0,102	-0,044
-387,263	6,339	0,062	0,033
-386,248	-184,783	0,097	0,001
-385,233	161,608	0,033	0,033
-384,219	-200,000	0,006	-0,109
-383,204	161,016	0,047	-0,048
-382,190	-136,017	-0,104	-0,009
-381,175	220,103	-0,037	-0,043
-380,160	-57,915	0,035	-0,011
-379,146	-200,000	-0,006	0,089
-378,131	169,027	0,084	0,087
-377,117	-41,140	-0,126	0,047
-376,102	182,979	-0,103	-0,110
-375,088	454,974	-0,066	-0,107
-374,073	-200,000	-0,007	0,032
-373,058	800,000	-0,076	0,233
-372,044	51,423	0,121	0,083
-371,029	800,000	0,046	0,100
-370,015	52,463	0,050	-0,035
-369,000	800,000	-0,035	0,103
-367,985	-87,194	-0,117	-0,026
-366,971	-200,000	0,027	0,184
-365,956	-92,782	0,040	-0,008
-364,942	800,000	-0,009	0,020
-363,927	264,332	0,095	0,120
-362,912	-51,105	0,070	0,024
-361,898	-200,000	-0,016	-0,073
-360,883	-104,592	-0,120	0,020
-359,869	687,710	-0,014	-0,028
-358,854	-200,000	-0,016	0,184
-357,839	224,783	0,027	0,031
-356,825	-200,000	0,023	-0,075
-355,810	-47,851	0,139	0,048
-354,796	-37,325	-0,096	-0,037
-353,781	-0,442	-0,077	0,039
-352,766	-41,410	0,036	-0,013
-351,752	745,205	-0,054	0,106
-350,737	-63,104	-0,017	0,005
-349,723	-200,000	-0,021	-0,168
-348,708	43,975	0,142	0,094
-347,693	-200,000	-0,013	0,061
-346,679	396,544	0,017	-0,026
-345,664	-44,750	-0,082	-0,029
-344,650	487,582	0,074	-0,123
-343,635	7,941	0,021	0,012
-342,620	8,154	0,011	0,006
-341,606	-133,449	0,044	-0,004
-340,591	-200,000	0,032	0,108
-339,577	125,734	-0,088	0,081
-338,562	-200,000	-0,010	-0,113
-337,548	255,782	-0,042	-0,053
-336,533	42,933	-0,042	-0,028
-335,518	800,000	-0,037	0,092
-334,504	527,405	0,039	-0,066
-333,489	-134,048	0,117	0,010
-332,475	225,364	0,018	-0,022
-331,460	-55,320	-0,127	0,041
-330,445	89,939	0,096	0,078
-329,431	-200,000	0,000	0,014
-328,416	107,545	-0,024	-0,021
-327,402	-155,914	-0,108	0,005
-326,387	31,053	0,068	-0,042
-325,372	530,635	-0,030	0,051
-324,358	546,126	-0,064	-0,111
-323,343	-144,953	-0,114	-0,007
-322,329	205,472	0,129	0,146
-321,314	-22,329	0,038	0,017
-320,299	-92,532	0,037	-0,007
-319,285	55,485	-0,066	-0,047
-318,270	400,001	0,055	-0,084
-317,256	-76,273	-0,109	0,028
-316,241	102,607	-0,002	-0,001
-315,226	319,559	-0,009	0,013
-314,212	-52,728	0,127	0,042
-313,197	223,473	-0,138	0,162
-312,183	-200,000	0,026	0,114
-311,168	-200,000	-0,022	-0,093
-310,153	-200,000	0,025	0,094
-309,139	10,523	-0,032	0,018
-308,124	459,335	0,088	-0,143
-307,110	163,459	0,059	0,061
-306,095	-200,000	-0,007	0,139
-305,080	-98,877	0,127	0,023
-304,066	-200,000	0,015	0,062
-303,051	176,853	-0,115	-0,121
-302,037	-106,450	-0,083	-0,013
-301,022	-200,000	-0,009	0,054
-300,008	800,000	0,047	-0,104
-298,993	-200,000	0,005	-0,025
-297,978	768,083	0,064	-0,127
-296,964	-154,546	-0,050	0,002
-295,949	104,712	-0,110	-0,094
-294,935	-96,129	-0,023	-0,004
-293,920	112,225	-0,099	-0,086
-292,905	-124,309	-0,109	-0,012
-291,891	-82,058	-0,131	0,031
-290,876	772,108	0,066	0,132
-289,862	-200,000	-0,001	-0,124
-288,847	-200,000	0,001	-0,005
-287,832	165,693	-0,080	-0,081
-286,818	81,831	-0,079	0,062
-285,803	715,176	-0,050	0,095
-284,789	284,161	0,042	0,055
-283,774	149,755	0,053	-0,052
-282,759	-77,069	0,068	0,017
-281,745	300,085	-0,043	0,058
-280,730	-164,018	-0,096	0,003
-279,716	11,206	-0,139	0,077
-278,701	271,897	0,078	-0,100
-277,686	-68,137	-0,051	0,014
-276,672	-51,925	-0,076	-0,025
-275,657	483,306	0,041	0,067
-274,643	-73,977	-0,062	-0,016
-273,628	-87,093	-0,040	0,009
-272,613	-44,697	0,045	0,016
-271,599	172,071	0,054	0,056
-270,584	601,398	-0,066	-0,120
-269,570	-200,000	0,002	0,074
-268,555	-118,244	0,212	-0,027
-267,540	-37,110	-0,105	0,040
-266,526	64,181	-0,068	-0,049
-265,511	-127,184	-0,068	0,007
-264,497	339,122	0,035	0,049
-263,482	800,000	-0,087	0,188
-262,467	-12,435	0,055	-0,026
-261,453	-200,000	0,012	0,072
-260,438	60,809	-0,087	0,062
-259,424	-200,000	-0,009	-0,108
-258,409	236,147	-0,060	-0,072
-257,395	-58,329	0,152	0,047
-256,380	800,000	0,049	0,103
-255,365	331,851	0,083	0,116
-254,351	-0,812	-0,028	-0,014
-253,336	10,057	-0,051	-0,028
-252,322	294,543	-0,013	0,018
-251,307	-140,906	0,065	0,005
-250,292	-200,000	0,005	-0,114
-249,278	330,232	-0,042	0,059
-248,263	800,000	-0,020	-0,041
-247,249	-200,000	0,021	0,071
-246,234	244,672	-0,066	0,080
-245,219	-104,187	-0,151	0,025
-244,205	-4,686	0,018	-0,009
-243,190	-69,329	-0,079	0,022
-242,176	800,000	0,028	-0,056
-241,161	598,423	-0,034	0,061
-240,146	-103,786	0,144	-0,024
-239,132	79,524	-0,030	-0,023
-238,117	-200,000	0,005	-0,021
-237,103	-81,630	0,065	-0,015
-236,088	403,047	-0,042	0,065
-235,073	320,631	-0,050	-0,068
-234,059	-200,000	0,002	0,038
-233,044	-109,187	0,091	0,014
-232,030	-137,409	-0,082	0,007
-231,015	422,544	-0,048	-0,075
-230,000	130,027	-0,021	0,020
-228,986	-74,354	0,156	0,040
-227,971	-149,029	0,019	-0,001
-226,957	76,330	0,098	0,075
-225,942	-200,000	0,009	0,047
-224,927	-131,605	0,065	0,006
-223,913	69,912	0,103	0,077
-222,898	177,117	-0,119	-0,125
-221,884	800,000	0,056	-0,120
-220,869	73,739	-0,031	0,024
-219,855	590,307	0,051	0,092
-218,840	-152,424	0,071	0,004
-217,825	-142,132	0,035	0,003
-216,811	43,983	-0,015	0,010
-215,796	163,215	0,099	0,100
-214,782	22,584	0,076	0,045
-213,767	800,000	0,024	-0,050
-212,752	451,730	0,028	0,044
-211,738	2,664	-0,127	0,066
-210,723	-200,000	0,031	0,117
-209,709	92,579	-0,094	0,076
-208,694	-41,294	0,027	-0,010
-207,679	-200,000	0,022	-0,090
-206,665	-9,082	0,059	-0,028
-205,650	326,582	0,034	-0,047
-204,636	-200,000	-0,001	-0,069
-203,621	44,047	0,043	-0,028
-202,606	800,000	-0,028	-0,063
-201,592	800,000	0,010	-0,029
-200,577	1,361	-0,104	-0,054
-199,563	-90,839	-0,046	0,010
-198,548	800,000	0,008	0,016
-197,533	192,875	0,074	0,081
-196,519	308,658	0,031	-0,041
-195,504	-138,198	0,062	0,005
-194,490	434,756	0,042	0,067
-193,475	263,321	0,032	0,041
-192,460	12,382	0,038	0,021
-191,446	2,731	0,032	0,017
-190,431	800,000	-0,032	0,093
-189,417	138,048	0,017	0,016
-188,402	-200,000	-0,034	-0,159
-187,387	96,545	0,072	-0,059
-186,373	451,103	-0,048	-0,076
-185,358	800,000	0,024	-0,057
-184,344	-200,000	-0,014	-0,058
-183,329	131,180	0,052	0,048
-182,315	193,105	0,069	0,076
-181,300	-113,162	0,109	-0,015
-180,285	36,845	-0,032	0,020
-179,271	456,426	0,042	0,067
-178,256	-147,966	0,046	-0,003
-177,242	-70,168	-0,084	-0,023
-176,227	327,737	0,139	0,193
-175,212	357,421	-0,018	-0,025
-174,198	60,492	0,120	0,085
-173,183	2,530	-0,070	0,037
-172,169	-2,951	-0,218	-0,109
-171,154	-116,808	-0,040	-0,005
-170,139	63,006	0,058	-0,042
-169,125	800,000	-0,026	0,058
-168,110	-162,114	0,092	-0,003
-167,096	800,000	-0,011	-0,033
-166,081	-172,289	-0,071	0,002
-165,066	-200,000	0,012	0,127
-164,052	800,000	-0,021	0,067
-163,037	-200,000	0,026	0,136
-162,023	800,000	-0,025	0,065
-161,008	239,161	0,085	-0,102
-159,993	-64,021	0,041	-0,012
-158,979	184,571	-0,096	-0,103
-157,964	-200,000	0,002	-0,064
-156,950	-200,000	0,009	0,085
-155,935	-200,000	0,004	0,109
-154,920	-200,000	-0,004	0,142
-153,906	300,134	0,069	0,091
-152,891	800,000	-0,033	-0,074
-151,877	-200,000	0,020	0,139
-150,862	-200,000	-0,003	0,061
-149,847	-200,000	0,038	-0,140
-148,833	108,648	-0,111	-0,095
-147,818	-58,901	0,044	-0,014
-146,804	800,000	-0,027	0,068
-145,789	-200,000	0,049	0,000
-144,775	-200,000	-0,026	-0,097
-143,760	47,066	-0,091	-0,061
-142,745	55,597	-0,015	0,010
-141,731	384,733	0,059	0,088
-140,716	177,554	0,073	0,077
-139,702	51,244	-0,116	0,079
-138,687	-28,190	0,060	-0,025
-137,672	-200,000	0,017	0,104
-136,658	-135,061	0,025	-0,002
-135,643	61,561	-0,074	0,053
-134,629	-100,033	0,117	0,021
-133,614	-140,108	0,097	0,007
-132,599	-200,000	-0,014	0,147
-131,585	182,287	0,046	-0,048
-130,570	-111,002	0,041	0,006
-129,556	-81,561	-0,107	0,025
-128,541	173,681	-0,038	-0,039
-127,526	-200,000	0,011	-0,077
-126,512	800,000	-0,071	0,152
-125,497	-200,000	0,041	0,131
-124,483	346,848	-0,095	0,135
-123,468	-26,659	0,186	0,078
-122,453	800,000	-0,011	0,031
-121,439	-93,221	-0,130	-0,026
-120,424	26,387	-0,110	-0,066
-119,410	-103,143	-0,085	-0,014
-118,395	-200,000	0,017	0,116
-117,380	800,000	-0,043	0,124
-116,366	-60,742	0,104	0,032
-115,351	-200,000	-0,005	0,070
-114,337	234,386	-0,103	-0,123
-113,322	-70,775	0,072	0,019
-112,307	-121,179	-0,078	-0,009
-111,293	95,259	0,118	0,096
-110,278	166,622	-0,003	-0,003
-109,264	14,361	-0,142	0,079
-108,249	110,308	0,081	-0,070
-107,234	3,602	0,099	0,052
-106,220	800,000	0,046	-0,132
-105,205	-159,654	0,051	-0,002
-104,191	97,166	0,102	-0,084
-103,176	-200,000	-0,049	0,168
-102,162	70,306	0,062	-0,046
-101,147	-110,725	0,098	0,014
-100,132	-15,984	-0,168	-0,077
-99,118	123,734	-0,045	0,040
-98,103	-200,000	-0,024	-0,112
-97,089	800,000	0,050	0,150
-96,074	-144,235	-0,098	0,006
-95,059	30,975	-0,029	0,018
-94,045	-200,000	-0,000	-0,090
-93,030	800,000	-0,018	-0,041
-92,016	-200,000	0,006	0,021
-91,001	800,000	-0,023	0,061
-89,986	-200,000	0,019	0,143
-88,972	800,000	-0,018	0,056
-87,957	565,074	0,043	0,075
-86,943	123,081	-0,021	-0,018
-85,928	-200,000	-0,023	0,110
-84,913	450,080	-0,015	0,023
-83,899	-2,180	0,041	0,021
-82,884	204,102	0,045	0,050
-81,870	113,940	-0,086	-0,075
-80,855	-71,495	0,131	0,035
-79,840	800,000	0,022	-0,051
-78,826	221,501	0,014	0,016
-77,811	121,816	-0,115	-0,103
-76,797	-200,000	-0,021	0,129
-75,782	-113,534	0,047	-0,006
-74,767	-94,058	0,067	-0,013
-73,753	-200,000	0,005	-0,025
-72,738	-200,000	-0,010	0,122
-71,724	800,000	-0,057	0,117
-70,709	740,213	0,022	0,043
-69,694	800,000	0,032	0,080
-68,680	-200,000	-0,002	0,066
-67,665	-51,623	0,070	-0,023
-66,651	-41,088	0,136	0,050
-65,636	129,656	-0,108	0,099
-64,622	5,459	-0,078	0,041
-63,607	-200,000	0,001	-0,018
-62,592	-200,000	-0,024	0,104
-61,578	544,750	-0,096	0,166
-60,563	-89,297	0,112	-0,024
-59,549	683,839	0,034	-0,063
-58,534	15,163	-2,017	-1,130
-57,519	-200,000	-0,212	-0,863
-56,505	-200,000	-1,318	-5,025
-55,490	74,488	0,802	0,604
-54,476	800,000	5,333	11,977
-53,461	-200,000	18,511	310,577
-52,446	800,000	739,798	2314,561
-51,432	555,626	1655,676	2869,129
-50,417	110,584	1640,025	1413,285
-49,403	74,764	1289,749	972,077
-48,388	30,436	1030,627	629,931
-47,373	19,953	993,143	572,330
-46,359	17,569	980,890	557,405
-45,344	14,275	976,959	544,330
-44,330	14,641	975,400	544,643
-43,315	14,058	973,399	541,594
-42,300	13,956	972,392	540,677
-41,286	13,873	971,392	539,829
-40,271	13,940	970,475	539,518
-39,257	13,954	969,786	539,159
-38,242	13,974	968,709	538,603
-37,227	13,941	968,039	538,103
-36,213	13,973	966,995	537,605
-35,198	13,903	966,140	536,880
-34,184	13,935	965,390	536,545
-33,169	13,969	964,365	536,064
-32,154	13,959	963,423	535,488
-31,140	13,991	962,570	535,096
-30,125	14,010	961,836	534,727
-29,111	13,924	960,933	533,926
-28,096	13,970	960,263	533,681
-27,082	13,922	959,815	533,256
-26,067	13,990	958,969	532,986
-25,052	13,957	958,171	532,415
-24,038	13,943	957,648	532,058
-23,023	14,001	956,828	531,769
-22,009	13,948	956,168	531,209
-20,994	14,002	955,610	531,053
-19,979	13,971	954,963	530,573
-18,965	13,955	954,179	530,063
-17,950	13,942	953,778	529,778
-16,936	13,919	953,143	529,330
-15,921	13,948	952,354	528,965
-14,906	13,869	951,651	528,298
-13,892	13,857	950,931	527,840
-12,877	13,864	950,363	527,528
-11,863	13,819	949,757	527,025
-10,848	13,831	949,349	526,817
-9,833	13,928	948,649	526,719
-8,819	13,899	948,101	526,299
-7,804	13,886	947,280	525,781
-6,790	13,819	946,959	525,369
-5,775	13,821	946,377	525,033
-4,760	13,844	945,763	524,745
-3,746	13,887	944,869	524,363
-2,731	13,710	944,489	523,569
-1,717	13,668	943,805	523,035
-0,702	13,733	943,041	522,797
0,313	13,485	942,328	522,407
1,327	16,713	940,146	531,356
2,342	25,618	795,547	473,269
3,356	22,274	460,213	268,628
4,371	-4,308	317,319	156,707
5,386	-8,079	299,049	143,821
6,400	-9,930	292,942	139,019
7,415	-10,447	290,298	137,238
8,429	-10,926	288,898	136,091
9,444	-10,904	287,930	135,644
10,459	-11,002	287,330	135,254
11,473	-11,076	286,698	134,872
12,488	-10,867	286,045	134,757
13,502	-10,914	285,863	134,613
14,517	-10,805	285,083	134,340
15,531	-11,004	284,702	133,955
16,546	-11,113	284,368	133,680
17,561	-11,173	284,023	133,448
18,575	-11,096	283,542	133,284
19,590	-11,166	283,273	133,078
20,604	-11,078	282,968	133,008
21,619	-11,271	282,601	132,637
22,634	-11,147	282,159	132,538
23,648	-11,192	281,863	132,343
24,663	-11,145	281,738	132,319
25,677	-11,104	281,292	132,136
26,692	-11,169	280,965	131,909
27,707	-11,191	280,697	131,750
28,721	-11,122	280,534	131,728
29,736	-11,216	280,106	131,425
30,750	-11,247	279,819	131,250
31,765	-11,129	279,651	131,271
32,780	-11,123	279,404	131,149
33,794	-11,165	279,238	131,019
34,809	-11,155	278,925	130,870
35,823	-11,212	278,767	130,731
36,838	-11,270	278,379	130,482
37,853	-11,265	278,135	130,361
38,867	-11,302	277,816	130,165
39,882	-11,132	277,582	130,204
40,896	-11,033	277,374	130,188
41,911	-11,236	277,088	129,851
42,926	-11,236	276,834	129,721
43,940	-11,216	276,570	129,604
44,955	-11,300	276,348	129,409
45,969	-11,309	276,103	129,274
46,984	-11,482	275,764	128,942
47,999	-11,742	275,612	128,614
49,013	-11,885	275,510	128,422
50,028	-12,078	275,078	128,028
51,042	-11,875	274,803	128,078
52,057	-12,079	274,654	127,807
53,071	-11,871	274,374	127,860
54,086	-11,729	274,046	127,828
55,101	-11,804	274,036	127,741
56,115	-11,484	273,931	127,980
57,130	-11,122	273,746	128,220
58,144	-11,006	273,568	128,233
59,159	-11,178	273,418	127,991
60,174	-11,175	273,176	127,869
61,188	-10,823	272,831	128,023
62,203	-11,195	272,652	127,583
63,217	-11,109	272,370	127,519
64,232	-11,065	272,214	127,476
65,247	-10,866	271,949	127,524
66,261	-11,024	271,801	127,297
67,276	-11,250	271,453	126,913
68,290	-11,279	271,086	126,704
69,305	-11,225	270,827	126,622
70,320	-11,524	270,860	126,350
71,334	-11,177	270,579	126,527
72,349	-11,067	270,471	126,566
73,363	-10,864	270,114	126,575
74,378	-10,925	269,914	126,413
75,393	-10,851	269,780	126,408
76,407	-11,069	269,438	126,036
77,422	-10,956	269,385	126,104
78,436	-10,947	269,047	125,943
79,451	-11,187	268,981	125,681
80,466	-11,213	268,656	125,494
81,480	-11,173	268,302	125,354
82,495	-11,530	268,247	124,992
83,509	-11,184	267,891	125,130
84,524	-11,245	267,700	124,974
85,539	-11,453	267,465	124,664
86,553	-11,284	267,152	124,661
87,568	-11,248	267,158	124,685
88,582	-11,173	266,736	124,545
89,597	-11,190	266,687	124,496
90,611	-11,072	266,518	124,512
91,626	-11,079	266,268	124,378
92,641	-10,970	266,049	124,364
93,655	-11,055	265,902	124,207
94,670	-11,253	265,561	123,858
95,684	-11,109	265,480	123,939
96,699	-11,130	265,309	123,829
97,714	-11,188	265,125	123,680
98,728	-11,242	264,839	123,486
99,743	-11,321	264,733	123,356
100,757	-11,340	264,358	123,152
101,772	-11,331	264,229	123,090
102,787	-11,319	264,018	122,990
103,801	-11,319	264,051	122,995
104,816	-11,004	263,767	123,134
105,830	-10,893	263,494	123,095
106,845	-11,009	263,350	122,912
107,860	-11,053	263,249	122,816
108,874	-11,111	263,008	122,640
109,889	-11,093	262,742	122,522
110,903	-10,997	262,418	122,444
111,918	-11,120	262,379	122,306
112,933	-11,066	262,154	122,239
113,947	-11,007	262,112	122,260
114,962	-11,032	261,811	122,088
115,976	-11,119	261,710	121,951
116,991	-11,232	261,484	121,736
118,006	-11,094	261,233	121,730
119,020	-10,996	261,007	121,701
120,035	-10,925	261,144	121,816
121,049	-11,003	260,766	121,560
122,064	-10,780	260,633	121,684
123,079	-10,998	260,345	121,346
124,093	-11,278	260,214	121,028
125,108	-11,133	259,771	120,939
126,122	-11,444	259,631	120,589
127,137	-11,501	259,385	120,415
128,151	-11,356	259,271	120,478
129,166	-11,214	259,095	120,510
130,181	-11,363	258,848	120,254
131,195	-11,390	258,653	120,129
132,210	-11,178	258,572	120,266
133,224	-10,936	258,287	120,334
134,239	-10,866	258,210	120,348
135,254	-10,819	257,915	120,242
136,268	-10,995	257,691	119,973
137,283	-11,342	257,367	119,510
138,297	-11,361	257,198	119,404
139,312	-11,421	256,983	119,241
140,327	-11,205	257,025	119,437
141,341	-10,943	256,785	119,543
142,356	-11,147	256,785	119,355
143,370	-10,620	256,476	119,658
144,385	-10,795	256,176	119,356
145,400	-10,857	256,066	119,240
146,414	-10,709	255,948	119,303
147,429	-10,840	255,733	119,079
148,443	-10,759	255,523	119,040
149,458	-10,761	255,325	118,935
150,473	-10,621	255,221	118,997
151,487	-10,807	254,952	118,701
152,502	-10,894	254,719	118,507
153,516	-10,782	254,559	118,519
154,531	-10,744	254,505	118,515
155,546	-10,784	254,269	118,360
156,560	-10,932	254,074	118,132
157,575	-11,048	254,012	117,993
158,589	-10,801	253,631	118,017
159,604	-10,861	253,552	117,919
160,619	-11,075	253,399	117,654
161,633	-10,868	253,150	117,704
162,648	-10,608	252,932	117,815
163,662	-10,948	252,916	117,507
164,677	-10,753	252,467	117,454
165,692	-10,975	252,585	117,309
166,706	-10,869	252,348	117,278
167,721	-10,800	252,111	117,216
168,735	-10,811	252,088	117,186
169,750	-10,874	251,911	117,040
170,764	-10,675	251,639	117,072
171,779	-10,631	251,497	117,032
172,794	-10,673	251,382	116,933
173,808	-10,683	251,178	116,819
174,823	-11,197	250,843	116,218
175,837	-11,240	250,565	116,043
176,852	-10,853	250,549	116,352
177,867	-10,632	250,339	116,430
178,881	-10,696	250,365	116,378
179,896	-10,612	249,993	116,266
180,910	-10,681	249,872	116,141
181,925	-10,745	249,766	116,028
182,940	-10,554	249,580	116,091
183,954	-10,777	249,450	115,833
184,969	-10,761	249,233	115,736
185,983	-10,603	249,009	115,753
186,998	-10,681	248,970	115,660
188,013	-10,705	248,743	115,524
189,027	-10,594	248,661	115,569
190,042	-10,582	248,417	115,455
191,056	-10,672	248,333	115,330
192,071	-10,617	248,089	115,253
193,086	-10,662	247,954	115,142
194,100	-10,551	247,622	115,070
195,115	-10,476	247,494	115,063
196,129	-10,806	247,270	114,674
197,144	-10,720	247,276	114,738
198,159	-10,717	246,952	114,579
199,173	-10,567	246,741	114,596
200,188	-10,714	246,682	114,437
201,202	-11,030	246,497	114,079
202,217	-11,148	246,020	113,750
203,232	-11,152	245,767	113,620
204,246	-10,794	246,031	114,028
205,261	-10,165	245,908	114,481
206,275	-10,212	245,824	114,392
207,290	-5,084	247,861	119,596
208,304	2,181	250,084	126,734
209,319	4,425	250,795	128,959
210,334	4,960	250,506	129,245
211,348	4,872	250,617	129,218
212,363	5,122	250,325	129,264
213,377	5,034	250,252	129,142
214,392	5,112	249,965	129,047
215,407	5,028	249,830	128,896
216,421	4,944	249,644	128,719
217,436	5,154	249,538	128,827
218,450	5,149	249,406	128,743
219,465	5,013	249,075	128,448
220,480	4,816	248,904	128,186
221,494	4,778	248,703	128,039
222,509	4,856	248,540	128,008
223,523	4,584	248,465	127,733
224,538	4,424	248,124	127,415
225,553	4,577	248,083	127,508
226,567	4,749	247,988	127,590
227,582	4,745	247,898	127,529
228,596	4,627	247,597	127,266
229,611	4,599	247,369	127,114
230,626	4,421	247,167	126,852
231,640	4,565	246,912	126,829
232,655	4,553	246,924	126,814
233,669	4,665	246,671	126,765
234,684	4,118	246,565	126,251
235,699	4,413	246,597	126,497
236,713	4,737	246,243	126,569
237,728	4,513	245,964	126,232
238,742	4,295	245,974	126,048
239,757	4,290	245,756	125,920
240,772	4,374	245,695	125,947
241,786	4,387	245,461	125,825
242,801	4,237	245,283	125,601
243,815	4,550	245,112	125,757
244,830	4,644	245,125	125,829
245,844	4,736	244,912	125,783
246,859	4,492	244,624	125,426
247,874	4,516	244,541	125,392
248,888	4,496	244,366	125,275
249,903	4,641	244,324	125,360
250,917	4,500	244,078	125,108
251,932	4,883	243,975	125,354
252,947	4,696	243,747	125,074
253,961	4,716	243,560	124,984
254,976	4,642	243,342	124,801
255,990	4,503	243,231	124,621
257,005	4,242	243,115	124,340
258,020	4,465	242,945	124,421
259,034	4,564	242,703	124,366
260,049	4,508	242,650	124,283
261,063	4,297	242,437	123,993
262,078	4,434	242,235	123,989
263,093	4,772	242,155	124,207
264,107	4,658	242,028	124,040
265,122	4,570	241,858	123,872
266,136	4,521	241,811	123,797
267,151	4,823	241,611	123,925
268,166	4,605	241,345	123,603
269,180	4,421	241,259	123,401
270,195	4,787	241,210	123,658
271,209	4,916	240,982	123,633
272,224	4,391	240,842	123,132
273,239	4,142	240,543	122,769
274,253	4,303	240,435	122,831
275,268	4,671	240,309	123,049
276,282	4,592	240,083	122,859
277,297	4,329	239,956	122,574
278,312	4,359	239,950	122,584
279,326	4,371	239,891	122,553
280,341	4,442	239,666	122,483
281,355	4,376	239,235	122,199
282,370	4,479	239,300	122,304
283,384	4,494	239,195	122,251
284,399	4,366	238,844	121,960
285,414	4,308	238,706	121,833
286,428	4,502	238,537	121,888
287,443	4,393	238,307	121,674
288,457	4,543	238,466	121,862
289,472	4,716	238,207	121,856
290,487	4,487	238,033	121,576
291,501	4,384	237,797	121,363
292,516	4,278	237,539	121,137
293,530	4,238	237,544	121,097
294,545	4,600	237,486	121,342
295,560	4,637	237,270	121,250
296,574	4,212	237,175	120,856
297,589	4,499	236,957	120,960
298,603	4,692	236,972	121,108
299,618	4,671	236,859	121,023
300,633	4,654	236,502	120,816
301,647	4,688	236,537	120,850
302,662	4,902	236,439	120,956
303,676	4,843	236,143	120,748
304,691	4,811	235,986	120,632
305,706	4,641	235,943	120,467
306,720	4,849	235,649	120,468
307,735	4,621	235,528	120,218
308,749	4,469	235,314	119,979
309,764	4,251	235,160	119,721
310,779	4,342	234,874	119,635
311,793	4,137	234,762	119,409
312,808	4,056	234,537	119,221
313,822	4,040	234,445	119,151
314,837	4,300	234,383	119,310
315,852	4,764	234,260	119,596
316,866	4,651	234,303	119,520
317,881	4,771	234,102	119,499
318,895	4,909	233,916	119,500
319,910	4,747	233,808	119,309
320,925	4,484	233,402	118,889
321,939	4,485	233,317	118,836
322,954	4,786	233,179	118,987
323,968	4,452	233,169	118,714
324,983	4,790	233,099	118,927
325,997	4,770	232,899	118,799
327,012	4,709	232,693	118,637
328,027	4,681	232,630	118,573
329,041	4,961	232,563	118,743
330,056	5,281	232,293	118,840
331,070	5,075	232,315	118,682
332,085	4,888	231,913	118,324
333,100	4,530	231,904	118,035
334,114	4,687	231,659	118,019
335,129	4,859	231,540	118,079
336,143	4,955	231,503	118,123
337,158	5,038	231,210	118,026
338,173	4,774	230,976	117,696
339,187	4,519	230,891	117,448
340,202	4,632	230,808	117,481
341,216	4,788	230,659	117,513
342,231	4,331	230,594	117,122
343,246	4,524	230,375	117,148
344,260	4,746	230,411	117,323
345,275	5,023	230,261	117,446
346,289	4,892	230,036	117,222
347,304	4,886	229,841	117,108
348,319	4,829	229,667	116,965
349,333	4,638	229,552	116,752
350,348	4,576	229,270	116,551
351,362	4,505	229,156	116,430
352,377	4,273	228,985	116,158
353,392	4,381	228,719	116,093
354,406	4,184	228,548	115,849
355,421	196,325	1318,102	1395,578
356,435	157,496	1450,812	1395,537
