DTS Sentinel unit serial number:	SN410029Multiplexer serial number:	ORYXHardware model number:	OX2-SRSoftware version number:	ORYX F/W v4,00 Oryx Data Collector v3.7.2.0data status	okinstallation	B5 Nyhavnadifferential loss correction	single-endedforward channel	channel 2reverse channel	N/Adate	2023/12/12time	04:12:13forward acquisition time	300,00reverse acquisition time	0,00gamma	499,1914k internal	0,3157k external	0,3157temperature offset calibration	1,0000default loss term (dB/km)	0,3820temperature slope calibration	1,0000multiplexer offset coefficient	1,0000multiplexer slope coefficient	1,0000fibre end	0,00T internal ref (°C)	15,56T ext. ref 1 (°C)	-0,83T ext. ref 2 (°C)	-1,08length (m)	temperature (°C)	Stokes	anti-Stokes-744,400	800,000	0,041	0,115
-743,385	-110,703	-0,341	-0,051
-742,371	776,442	-0,062	0,126
-741,356	-76,062	-0,304	0,079
-740,342	-200,000	0,005	-0,036
-739,327	-38,464	-0,388	0,151
-738,312	147,133	0,102	-0,101
-737,298	-6,429	-0,301	0,151
-736,283	261,933	0,052	-0,066
-735,269	-103,599	-0,300	0,051
-734,254	-55,939	-0,028	-0,009
-733,239	2,777	-0,372	-0,198
-732,225	4,597	0,164	0,088
-731,210	-200,000	0,019	0,073
-730,196	800,000	0,042	-0,118
-729,181	-40,769	-0,109	0,041
-728,167	-7,560	0,086	-0,043
-727,152	-15,205	0,009	-0,004
-726,137	67,226	-0,049	-0,037
-725,123	73,508	-0,077	0,059
-724,108	170,741	-0,028	0,030
-723,094	156,090	-0,081	0,082
-722,079	-143,237	-0,084	0,006
-721,064	-200,000	0,023	-0,209
-720,050	-200,000	0,029	-0,171
-719,035	208,901	0,064	0,073
-718,021	230,048	-0,019	0,023
-717,006	-121,209	-0,045	0,005
-715,991	75,870	-0,034	-0,026
-714,977	-68,135	-0,101	-0,029
-713,962	800,000	0,009	-0,019
-712,948	-76,217	-0,159	0,041
-711,933	-74,931	0,029	0,008
-710,918	-47,682	-0,093	0,033
-709,904	62,247	-0,045	-0,033
-708,889	151,188	-0,066	-0,067
-707,875	225,821	0,117	-0,140
-706,860	-50,130	-0,085	0,030
-705,845	800,000	0,020	0,051
-704,831	800,000	-0,017	-0,036
-703,816	-200,000	-0,033	-0,133
-702,802	138,217	-0,138	-0,133
-701,787	71,119	0,055	0,042
-700,772	-170,190	-0,019	-0,000
-699,758	-39,504	0,107	0,041
-698,743	329,670	-0,097	0,138
-697,729	82,762	0,040	-0,032
-696,714	800,000	0,060	-0,169
-695,699	574,953	-0,029	0,053
-694,685	245,681	-0,049	-0,060
-693,670	-27,504	-0,106	0,045
-692,656	800,000	0,024	-0,070
-691,641	-27,755	-0,126	0,053
-690,627	800,000	-0,035	-0,114
-689,612	-200,000	0,018	-0,121
-688,597	-200,000	0,009	0,135
-687,583	-121,356	-0,178	-0,022
-686,568	-85,573	-0,094	-0,021
-685,554	-43,445	0,118	-0,044
-684,539	800,000	-0,024	-0,059
-683,524	-180,485	0,006	0,000
-682,510	-200,000	0,033	0,162
-681,495	-26,041	-0,072	-0,031
-680,481	97,953	-0,035	-0,030
-679,466	40,037	-0,100	-0,066
-678,451	308,269	0,037	0,050
-677,437	-25,773	-0,092	-0,040
-676,422	365,130	0,044	-0,065
-675,408	26,358	-0,110	-0,068
-674,393	-200,000	0,008	0,086
-673,378	-200,000	-0,024	0,083
-672,364	72,944	-0,060	-0,046
-671,349	542,539	-0,038	-0,067
-670,335	-72,017	0,016	0,004
-669,320	449,244	0,047	0,076
-668,305	-98,081	0,052	0,010
-667,291	800,000	-0,062	0,163
-666,276	141,571	-0,160	-0,156
-665,262	583,842	-0,047	-0,086
-664,247	173,228	0,063	0,066
-663,232	95,744	-0,107	-0,090
-662,218	-112,637	0,050	0,007
-661,203	-200,000	-0,006	0,024
-660,189	559,367	-0,064	0,114
-659,174	-8,729	0,052	0,025
-658,159	150,380	0,053	-0,053
-657,145	195,915	-0,060	-0,067
-656,130	-102,749	0,010	-0,002
-655,116	396,092	0,112	0,173
-654,101	16,157	-0,080	0,046
-653,086	87,093	-0,056	0,045
-652,072	800,000	-0,041	-0,123
-651,057	-200,000	0,013	-0,079
-650,043	-179,391	0,106	0,002
-649,028	91,223	-0,060	0,050
-648,014	-2,392	0,076	-0,039
-646,999	800,000	-0,008	-0,019
-645,984	-200,000	0,008	0,040
-644,970	-200,000	0,022	-0,122
-643,955	-200,000	-0,032	-0,182
-642,941	101,625	0,087	-0,074
-641,926	-200,000	-0,005	0,099
-640,911	387,775	0,039	0,060
-639,897	800,000	-0,034	0,075
-638,882	104,032	0,156	-0,135
-637,868	-200,000	-0,011	-0,092
-636,853	800,000	-0,065	-0,143
-635,838	212,268	-0,066	-0,077
-634,824	764,906	-0,016	0,032
-633,809	-77,095	0,071	-0,018
-632,795	-112,960	0,069	-0,010
-631,780	531,718	-0,091	0,159
-630,765	92,442	-0,064	-0,053
-629,751	50,953	-0,038	-0,027
-628,736	-44,587	-0,093	-0,034
-627,722	-200,000	0,005	0,105
-626,707	-109,453	-0,023	0,004
-625,692	800,000	-0,062	0,173
-624,678	28,461	-0,129	0,080
-623,663	83,340	0,174	0,139
-622,649	6,126	-0,099	0,054
-621,634	800,000	0,026	0,066
-620,619	-200,000	0,006	-0,036
-619,605	282,607	-0,071	-0,093
-618,590	758,856	0,011	0,021
-617,576	284,188	-0,076	-0,100
-616,561	66,406	-0,058	0,043
-615,546	-165,530	-0,115	0,004
-614,532	800,000	-0,049	-0,140
-613,517	-200,000	-0,032	-0,174
-612,503	271,509	-0,049	0,063
-611,488	91,796	0,075	0,062
-610,474	-200,000	0,007	0,079
-609,459	-73,845	-0,124	0,033
-608,444	-70,652	-0,079	0,022
-607,430	-200,000	-0,011	-0,173
-606,415	-200,000	0,009	-0,033
-605,401	-115,540	-0,089	-0,012
-604,386	-109,386	0,147	0,023
-603,371	-124,441	0,168	0,019
-602,357	-65,272	-0,085	-0,025
-601,342	-154,021	-0,087	-0,004
-600,328	360,411	-0,062	-0,091
-599,313	-13,266	-0,107	-0,051
-598,298	269,616	-0,025	-0,032
-597,284	-200,000	0,016	-0,059
-596,269	-200,000	-0,004	0,025
-595,255	-200,000	0,001	0,057
-594,240	-144,936	0,091	-0,006
-593,225	44,297	-0,077	0,052
-592,211	230,864	0,082	-0,099
-591,196	41,390	-0,148	0,098
-590,182	-95,899	-0,062	-0,012
-589,167	-200,000	-0,000	0,064
-588,152	-200,000	-0,000	0,030
-587,138	112,345	0,081	0,071
-586,123	227,195	-0,034	-0,041
-585,109	-200,000	0,010	-0,092
-584,094	97,324	0,076	0,064
-583,079	800,000	-0,028	0,082
-582,065	480,936	0,041	-0,069
-581,050	-22,614	0,093	-0,041
-580,036	-200,000	-0,013	-0,190
-579,021	212,267	-0,032	-0,037
-578,006	303,521	-0,015	-0,020
-576,992	-70,217	-0,056	-0,016
-575,977	133,432	0,103	-0,098
-574,963	-93,137	-0,008	-0,002
-573,948	39,456	-0,049	0,032
-572,934	800,000	-0,053	-0,132
-571,919	-200,000	-0,007	-0,072
-570,904	-113,253	-0,112	0,016
-569,890	-27,778	-0,096	-0,040
-568,875	-200,000	0,022	-0,091
-567,861	13,355	0,100	0,057
-566,846	-140,346	-0,206	-0,015
-565,831	-70,224	0,054	-0,015
-564,817	732,069	-0,034	0,067
-563,802	535,005	0,061	-0,106
-562,788	-200,000	-0,005	-0,146
-561,773	-58,470	0,055	-0,017
-560,758	66,680	0,099	0,074
-559,744	125,933	-0,041	0,038
-558,729	-30,894	0,085	-0,035
-557,715	147,098	0,034	0,033
-556,700	468,431	-0,009	-0,015
-555,685	-130,747	0,146	0,014
-554,671	-19,844	0,037	0,017
-553,656	-200,000	-0,000	-0,026
-552,642	-30,319	0,115	0,048
-551,627	361,977	0,051	0,075
-550,612	-200,000	0,011	-0,073
-549,598	-4,894	-0,168	0,084
-548,583	-56,098	-0,040	0,013
-547,569	-90,537	0,063	-0,013
-546,554	125,774	0,075	0,070
-545,539	-28,730	-0,037	-0,015
-544,525	-200,000	-0,017	0,066
-543,510	-109,675	-0,034	0,005
-542,496	800,000	-0,031	-0,070
-541,481	-40,768	0,068	-0,026
-540,466	-16,120	0,011	0,005
-539,452	215,453	0,032	0,037
-538,437	-89,705	0,042	-0,009
-537,423	13,495	-0,106	0,060
-536,408	-200,000	-0,016	0,091
-535,393	-200,000	-0,007	0,113
-534,379	800,000	0,052	0,106
-533,364	113,966	-0,086	0,076
-532,350	-59,889	0,078	0,024
-531,335	-200,000	-0,028	-0,188
-530,321	800,000	-0,051	-0,111
-529,306	-13,263	-0,055	-0,026
-528,291	79,777	-0,065	-0,051
-527,277	800,000	-0,057	-0,127
-526,262	800,000	-0,030	0,085
-525,248	161,998	0,129	-0,132
-524,233	-6,768	0,076	-0,038
-523,218	34,213	-0,023	-0,014
-522,204	-127,010	-0,008	-0,001
-521,189	-200,000	-0,009	0,063
-520,175	-122,910	-0,077	0,009
-519,160	-109,305	0,022	-0,003
-518,145	98,034	0,030	-0,026
-517,131	89,622	-0,157	0,128
-516,116	-200,000	-0,022	0,077
-515,102	94,868	0,120	-0,100
-514,087	105,292	-0,113	-0,097
-513,072	183,272	-0,094	-0,102
-512,058	-112,818	-0,018	0,003
-511,043	-73,011	0,150	0,040
-510,029	-200,000	-0,003	0,164
-509,014	-133,507	0,027	0,002
-507,999	-165,829	0,124	0,004
-506,985	800,000	0,026	0,065
-505,970	-56,016	-0,035	-0,011
-504,956	-35,976	-0,090	0,035
-503,941	-144,127	-0,070	0,005
-502,926	172,389	0,059	0,062
-501,912	141,622	-0,021	-0,021
-500,897	800,000	0,070	0,196
-499,883	-16,893	-0,048	-0,022
-498,868	313,067	-0,144	-0,198
-497,853	535,905	0,026	-0,045
-496,839	-133,494	0,199	0,018
-495,824	24,133	-0,074	0,044
-494,810	-119,841	0,018	0,002
-493,795	145,060	-0,049	-0,048
-492,781	260,137	-0,049	0,062
-491,766	800,000	0,036	-0,082
-490,751	249,770	0,069	-0,085
-489,737	152,937	0,080	-0,080
-488,722	-31,084	-0,040	0,016
-487,708	91,668	0,056	0,046
-486,693	800,000	0,048	0,112
-485,678	403,637	0,045	0,069
-484,664	-200,000	-0,022	0,086
-483,649	150,015	-0,062	0,061
-482,635	-200,000	0,007	-0,028
-481,620	-16,033	0,012	-0,005
-480,605	-167,742	0,056	-0,002
-479,591	-112,044	0,081	0,012
-478,576	-200,000	0,015	0,087
-477,562	-200,000	0,030	0,133
-476,547	525,524	-0,025	-0,044
-475,532	512,438	0,052	-0,088
-474,518	4,917	0,033	0,018
-473,503	9,556	0,069	0,038
-472,489	-200,000	-0,038	0,137
-471,474	157,476	-0,058	-0,058
-470,459	361,396	0,063	0,093
-469,445	-52,980	0,121	0,040
-468,430	113,027	-0,051	-0,045
-467,416	341,177	0,032	-0,045
-466,401	-123,489	0,119	-0,014
-465,386	-200,000	-0,031	0,107
-464,372	-200,000	-0,009	0,213
-463,357	-61,500	-0,178	0,054
-462,343	-83,392	-0,062	0,014
-461,328	-57,099	-0,074	-0,023
-460,313	173,464	-0,103	-0,108
-459,299	-200,000	0,015	0,067
-458,284	164,107	0,089	-0,091
-457,270	-119,885	0,122	0,015
-456,255	800,000	-0,061	-0,158
-455,241	-200,000	-0,036	-0,154
-454,226	-46,733	-0,057	-0,020
-453,211	-26,149	-0,102	-0,044
-452,197	25,844	0,134	0,081
-451,182	116,163	0,063	-0,057
-450,168	-24,308	-0,079	0,034
-449,153	193,935	0,074	0,082
-448,138	410,530	0,049	-0,076
-447,124	296,039	-0,066	-0,088
-446,109	556,814	-0,057	0,100
-445,095	800,000	0,023	-0,062
-444,080	539,225	0,051	0,088
-443,065	-31,268	0,161	-0,066
-442,051	236,842	-0,027	-0,032
-441,036	-200,000	0,027	-0,171
-440,022	40,435	-0,046	0,030
-439,007	7,904	-0,069	0,038
-437,992	-12,610	0,041	-0,020
-436,978	139,846	0,051	-0,049
-435,963	118,686	0,040	0,036
-434,949	-200,000	-0,004	0,028
-433,934	-200,000	-0,010	-0,096
-432,919	38,184	0,033	0,022
-431,905	800,000	-0,031	0,086
-430,890	146,381	0,074	-0,073
-429,876	26,007	-0,080	0,048
-428,861	-53,687	0,024	-0,008
-427,846	-95,701	-0,118	0,023
-426,832	8,756	0,007	-0,004
-425,817	19,099	-0,082	0,048
-424,803	28,393	-0,064	0,039
-423,788	-200,000	-0,007	0,081
-422,773	96,407	0,097	0,081
-421,759	60,961	0,158	0,114
-420,744	225,048	-0,085	-0,101
-419,730	7,691	-0,115	0,063
-418,715	-200,000	0,007	-0,039
-417,701	-95,454	-0,131	-0,025
-416,686	167,430	-0,091	0,094
-415,671	53,984	-0,037	0,026
-414,657	-12,848	0,112	0,053
-413,642	339,028	0,062	0,089
-412,628	-30,387	-0,021	-0,009
-411,613	-173,897	-0,096	-0,002
-410,598	800,000	0,012	-0,031
-409,584	53,614	-0,034	0,024
-408,569	350,647	0,051	0,074
-407,555	-200,000	-0,004	-0,034
-406,540	-200,000	-0,013	-0,095
-405,525	-65,402	-0,012	0,004
-404,511	-165,530	0,120	-0,004
-403,496	-83,979	0,130	-0,030
-402,482	29,654	0,123	0,076
-401,467	42,878	-0,079	-0,053
-400,452	15,496	-0,097	0,056
-399,438	234,062	0,081	-0,097
-398,423	134,642	0,048	-0,045
-397,409	774,344	-0,067	0,133
-396,394	-25,880	0,097	0,041
-395,379	-43,898	-0,085	0,031
-394,365	418,203	0,040	0,062
-393,350	91,291	-0,049	0,040
-392,336	-51,598	0,055	0,019
-391,321	800,000	-0,035	0,095
-390,306	605,789	-0,045	-0,082
-389,292	97,131	-0,034	-0,028
-388,277	20,408	-0,025	0,015
-387,263	209,077	0,124	-0,141
-386,248	800,000	0,069	0,155
-385,233	68,008	-0,072	0,053
-384,219	373,302	0,057	-0,085
-383,204	-200,000	-0,021	-0,150
-382,190	74,666	0,078	-0,060
-381,175	306,294	-0,111	0,151
-380,160	86,992	0,093	-0,075
-379,146	800,000	0,049	-0,119
-378,131	-200,000	-0,005	0,079
-377,117	186,385	-0,060	0,065
-376,102	-200,000	-0,019	-0,147
-375,088	-200,000	-0,022	-0,142
-374,073	-200,000	0,004	0,032
-373,058	124,507	0,033	-0,030
-372,044	-78,632	-0,092	0,023
-371,029	-22,000	0,167	-0,073
-370,015	-200,000	-0,014	-0,096
-369,000	-82,886	0,053	0,012
-367,985	-20,029	0,033	0,015
-366,971	-104,960	-0,114	0,019
-365,956	-49,717	0,043	0,015
-364,942	522,229	0,063	0,108
-363,927	18,645	-0,045	0,026
-362,912	-152,097	-0,035	-0,002
-361,898	69,948	0,079	0,059
-360,883	693,160	0,045	-0,085
-359,869	255,087	0,099	-0,123
-358,854	262,522	0,064	0,081
-357,839	18,988	0,067	0,039
-356,825	-200,000	-0,024	0,108
-355,810	26,390	-0,063	0,038
-354,796	46,491	-0,101	0,068
-353,781	-200,000	-0,007	-0,048
-352,766	584,878	0,005	-0,008
-351,752	320,175	0,036	-0,049
-350,737	546,506	0,049	-0,085
-349,723	800,000	0,016	-0,038
-348,708	-33,450	-0,067	0,027
-347,693	-52,107	0,066	0,022
-346,679	-90,980	-0,064	-0,013
-345,664	-4,461	-0,100	-0,050
-344,650	223,747	0,098	0,115
-343,635	181,714	0,028	-0,030
-342,620	-6,556	0,085	0,042
-341,606	172,521	-0,098	0,103
-340,591	507,955	0,034	-0,058
-339,577	3,109	-0,120	-0,063
-338,562	35,353	0,127	0,080
-337,548	67,896	-0,046	-0,034
-336,533	800,000	-0,016	0,038
-335,518	-54,944	-0,041	-0,013
-334,504	800,000	-0,041	0,093
-333,489	800,000	0,014	-0,043
-332,475	589,048	0,019	-0,034
-331,460	-90,923	0,109	-0,023
-330,445	72,033	0,097	-0,073
-329,431	102,448	-0,142	-0,121
-328,416	800,000	-0,027	-0,076
-327,402	-102,201	-0,148	-0,026
-326,387	485,136	0,026	0,044
-325,372	325,726	-0,056	-0,077
-324,358	800,000	0,008	-0,024
-323,343	-200,000	-0,003	0,076
-322,329	-116,857	-0,119	-0,016
-321,314	116,788	0,090	-0,080
-320,299	72,326	0,121	0,091
-319,285	-42,994	0,067	0,025
-318,270	-110,739	-0,133	-0,020
-317,256	638,582	0,056	-0,104
-316,241	130,950	0,040	0,037
-315,226	18,037	0,029	-0,017
-314,212	-190,536	0,074	0,001
-313,197	-42,015	0,092	0,034
-312,183	-45,038	-0,055	0,020
-311,168	337,018	-0,024	0,034
-310,153	-105,356	-0,077	0,013
-309,139	50,955	0,117	0,080
-308,124	-200,000	0,013	0,109
-307,110	800,000	0,064	0,145
-306,095	-5,991	-0,043	-0,021
-305,080	-50,373	0,132	-0,045
-304,066	-25,917	-0,078	-0,033
-303,051	609,592	-0,032	-0,057
-302,037	-8,149	-0,083	-0,040
-301,022	-80,101	0,040	0,010
-300,008	-57,724	0,122	0,039
-298,993	112,190	0,031	0,027
-297,978	576,015	-0,024	0,043
-296,964	-200,000	0,013	0,078
-295,949	59,241	-0,073	-0,052
-294,935	660,973	0,059	-0,110
-293,920	-122,626	0,044	0,005
-292,905	-68,640	-0,096	0,027
-291,891	800,000	0,038	0,089
-290,876	-200,000	-0,015	0,225
-289,862	-1,722	0,068	0,035
-288,847	57,942	-0,080	0,057
-287,832	125,160	-0,079	0,072
-286,818	-132,773	0,077	0,007
-285,803	44,423	-0,027	0,018
-284,789	212,347	0,060	0,068
-283,774	-200,000	-0,009	0,141
-282,759	503,092	0,089	-0,149
-281,745	-200,000	0,014	-0,050
-280,730	800,000	0,030	0,062
-279,716	194,843	0,090	-0,099
-278,701	-35,757	0,036	0,014
-277,686	-200,000	-0,002	0,014
-276,672	-151,359	-0,119	-0,006
-275,657	118,757	-0,038	-0,034
-274,643	-152,964	0,016	0,001
-273,628	30,331	0,126	0,078
-272,613	84,468	-0,145	-0,115
-271,599	-46,511	0,101	0,036
-270,584	-23,948	0,092	0,040
-269,570	-119,606	-0,146	-0,018
-268,555	-200,000	-0,011	0,086
-267,540	-43,599	0,031	-0,011
-266,526	-77,015	-0,151	-0,038
-265,511	447,428	-0,030	0,049
-264,497	-200,000	0,003	0,148
-263,482	-105,905	0,044	0,007
-262,467	435,491	-0,005	0,008
-261,453	-122,117	0,012	0,001
-260,438	-200,000	0,018	-0,110
-259,424	800,000	0,016	-0,034
-258,409	800,000	-0,016	0,034
-257,395	800,000	0,020	-0,059
-256,380	800,000	-0,038	0,110
-255,365	596,759	0,029	0,052
-254,351	800,000	0,045	0,119
-253,336	800,000	0,025	0,067
-252,322	-200,000	0,008	-0,102
-251,307	-40,104	0,043	-0,016
-250,292	-200,000	-0,013	0,071
-249,278	-184,961	-0,235	0,003
-248,263	800,000	0,021	0,064
-247,249	361,148	0,047	-0,069
-246,234	203,036	-0,065	-0,073
-245,219	800,000	-0,037	-0,080
-244,205	76,129	-0,051	-0,039
-243,190	285,214	-0,055	-0,072
-242,176	-150,259	0,162	-0,009
-241,161	-35,423	0,078	0,030
-240,146	800,000	-0,036	0,096
-239,132	440,862	0,050	0,079
-238,117	800,000	-0,039	-0,090
-237,103	125,404	0,078	-0,071
-236,088	-200,000	-0,007	-0,036
-235,073	-35,493	0,096	-0,038
-234,059	326,149	0,047	0,066
-233,044	-50,591	0,130	-0,044
-232,030	497,983	-0,042	0,070
-231,015	-200,000	0,026	-0,124
-230,000	177,377	0,059	-0,062
-228,986	-200,000	0,002	-0,022
-227,971	272,494	0,065	-0,083
-226,957	-64,483	-0,108	0,031
-225,942	105,513	0,041	0,035
-224,927	30,987	0,021	0,013
-223,913	-200,000	-0,037	0,000
-222,898	117,921	0,074	0,066
-221,884	67,061	-0,029	0,021
-220,869	-200,000	0,005	0,044
-219,855	109,482	-0,089	0,077
-218,840	800,000	-0,019	-0,043
-217,825	-200,000	-0,012	0,116
-216,811	112,850	0,013	-0,011
-215,796	221,868	-0,123	-0,143
-214,782	197,651	0,090	-0,099
-213,767	1,254	-0,082	0,043
-212,752	-200,000	-0,003	-0,169
-211,738	360,704	0,048	-0,070
-210,723	-200,000	-0,020	0,120
-209,709	-81,634	-0,156	0,037
-208,694	800,000	-0,044	-0,106
-207,679	706,350	0,056	-0,107
-206,665	0,099	-0,034	-0,018
-205,650	-126,012	-0,071	-0,008
-204,636	160,263	0,035	0,035
-203,621	-200,000	-0,029	-0,109
-202,606	163,955	0,059	0,060
-201,592	800,000	0,008	-0,019
-200,577	-200,000	-0,011	-0,049
-199,563	-200,000	0,028	-0,115
-198,548	54,458	0,140	0,097
-197,533	-200,000	-0,013	0,218
-196,519	-152,873	-0,105	-0,005
-195,504	311,175	0,059	0,080
-194,490	306,088	0,052	-0,070
-193,475	-118,980	-0,262	-0,033
-192,460	380,883	-0,120	-0,178
-191,446	-95,307	0,279	0,054
-190,431	108,982	0,110	0,095
-189,417	-134,140	-0,090	-0,008
-188,402	50,819	-0,142	0,097
-187,387	-200,000	-0,020	0,148
-186,373	-75,805	-0,110	-0,028
-185,358	-76,053	0,130	-0,033
-184,344	-15,877	-0,038	0,017
-183,329	-200,000	0,004	0,021
-182,315	214,380	-0,064	0,073
-181,300	800,000	0,028	0,076
-180,285	43,292	-0,129	-0,085
-179,271	-121,073	-0,074	-0,009
-178,256	58,457	-0,060	-0,042
-177,242	-91,644	0,093	0,019
-176,227	105,366	0,057	-0,048
-175,212	-122,522	0,069	0,008
-174,198	-133,013	0,038	-0,003
-173,183	4,822	-0,137	-0,072
-172,169	275,953	-0,059	-0,076
-171,154	-200,000	0,004	-0,077
-170,139	-123,179	0,141	-0,016
-169,125	-200,000	0,001	0,019
-168,110	121,956	0,087	0,078
-167,096	-50,813	-0,073	-0,025
-166,081	-73,035	-0,061	-0,016
-165,066	800,000	-0,042	0,094
-164,052	-31,795	-0,051	0,020
-163,037	414,556	0,034	-0,052
-162,023	-169,414	0,172	0,004
-161,008	-153,216	-0,123	0,006
-159,993	23,020	0,031	-0,018
-158,979	-200,000	-0,002	-0,024
-157,964	800,000	-0,019	-0,060
-156,950	-200,000	0,037	-0,193
-155,935	-200,000	0,025	0,092
-154,920	-200,000	0,049	0,167
-153,906	-200,000	-0,021	-0,108
-152,891	-139,187	-0,037	0,003
-151,877	-100,034	-0,123	0,022
-150,862	29,476	-0,075	0,046
-149,847	117,051	-0,042	0,037
-148,833	-43,007	-0,107	0,039
-147,818	-148,828	0,119	0,007
-146,804	29,554	-0,061	-0,037
-145,789	94,569	0,035	0,029
-144,775	61,163	0,080	-0,058
-143,760	174,535	-0,104	-0,109
-142,745	446,803	0,011	-0,018
-141,731	-200,000	0,039	0,188
-140,716	98,042	0,121	-0,100
-139,702	800,000	0,032	-0,084
-138,687	9,493	0,124	-0,068
-137,672	361,434	-0,052	-0,076
-136,658	-200,000	-0,009	0,037
-135,643	-200,000	-0,018	0,111
-134,629	-200,000	0,009	-0,044
-133,614	178,474	0,056	0,059
-132,599	800,000	0,020	0,058
-131,585	-138,082	0,117	0,009
-130,570	346,035	0,017	0,023
-129,556	-136,705	-0,056	-0,005
-128,541	-110,785	-0,014	-0,002
-127,526	61,450	0,127	0,091
-126,512	-91,428	-0,021	0,004
-125,497	-27,935	0,057	-0,024
-124,483	170,469	0,069	0,072
-123,468	-200,000	-0,006	-0,118
-122,453	77,290	-0,095	-0,072
-121,439	435,034	-0,022	-0,035
-120,424	47,983	-0,090	-0,060
-119,410	-67,565	0,240	-0,067
-118,395	36,953	0,073	0,047
-117,380	-9,894	0,087	-0,042
-116,366	-45,453	-0,129	0,046
-115,351	-200,000	0,041	-0,131
-114,337	800,000	-0,002	-0,004
-113,322	0,115	-0,184	-0,094
-112,307	57,556	-0,129	0,090
-111,293	276,494	-0,035	0,045
-110,278	145,901	0,111	-0,107
-109,264	-40,053	-0,054	-0,020
-108,249	193,092	0,054	-0,059
-107,234	53,998	0,054	-0,037
-106,220	-74,683	-0,197	0,050
-105,205	386,666	0,043	0,064
-104,191	-200,000	0,002	-0,015
-103,176	-74,527	0,031	-0,008
-102,162	342,124	0,091	0,128
-101,147	184,719	-0,081	-0,086
-100,132	285,401	0,031	-0,040
-99,118	-200,000	-0,012	-0,108
-98,103	43,691	-0,107	0,070
-97,089	224,893	-0,066	-0,077
-96,074	-139,123	-0,128	-0,010
-95,059	-5,893	0,196	-0,096
-94,045	-1,773	-0,076	-0,038
-93,030	-200,000	-0,001	-0,051
-92,016	-37,133	0,090	0,034
-91,001	260,531	0,077	-0,096
-89,986	8,126	0,022	0,012
-88,972	137,189	0,043	-0,041
-87,957	-39,275	0,150	0,056
-86,943	800,000	-0,013	0,031
-85,928	-200,000	-0,008	-0,063
-84,913	-200,000	0,016	-0,067
-83,899	64,782	-0,087	-0,063
-82,884	-36,719	0,108	0,042
-81,870	85,646	0,077	0,061
-80,855	9,174	-0,071	-0,038
-79,840	-115,809	-0,101	-0,013
-78,826	800,000	-0,025	0,062
-77,811	326,778	-0,083	-0,114
-76,797	-200,000	-0,017	-0,067
-75,782	-93,739	-0,037	0,007
-74,767	224,458	0,035	0,041
-73,753	516,525	-0,050	0,085
-72,738	141,723	-0,066	0,063
-71,724	-98,704	0,060	-0,011
-70,709	75,885	0,070	-0,053
-69,694	-200,000	-0,020	0,142
-68,680	147,425	0,062	0,060
-67,665	-31,451	-0,149	-0,060
-66,651	387,254	0,067	-0,100
-65,636	-52,627	-0,219	0,072
-64,622	-51,202	-0,074	0,025
-63,607	-200,000	0,008	-0,082
-62,592	-200,000	-0,007	0,026
-61,578	147,900	0,054	0,053
-60,563	800,000	0,031	-0,070
-59,549	-65,628	0,053	0,015
-58,534	-14,972	-1,885	-0,864
-57,519	-200,000	-0,160	-0,817
-56,505	-200,000	-1,126	-5,001
-55,490	47,003	0,709	0,473
-54,476	800,000	5,358	12,169
-53,461	-200,000	17,412	283,117
-52,446	800,000	725,897	2215,875
-51,432	536,693	1642,047	2809,468
-50,417	110,406	1633,173	1408,405
-49,403	75,100	1286,751	972,453
-48,388	32,165	1027,954	635,021
-47,373	20,171	989,852	571,915
-46,359	18,647	977,718	559,885
-45,344	15,894	973,925	548,676
-44,330	16,159	972,329	548,623
-43,315	15,697	970,513	546,068
-42,300	15,501	969,763	544,985
-41,286	15,565	968,545	544,487
-40,271	15,581	967,550	543,959
-39,257	15,539	966,753	543,350
-38,242	15,612	965,712	542,981
-37,227	15,616	964,902	542,518
-36,213	15,651	964,207	542,221
-35,198	15,519	963,238	541,226
-34,184	15,569	962,552	540,981
-33,169	15,520	961,480	540,196
-32,154	15,670	960,502	540,113
-31,140	15,637	959,651	539,505
-30,125	15,624	959,017	539,085
-29,111	15,545	958,274	538,390
-28,096	15,626	957,574	538,236
-27,082	15,607	957,065	537,870
-26,067	15,646	955,929	537,334
-25,052	15,541	955,477	536,722
-24,038	15,568	954,633	536,311
-23,023	15,584	953,904	535,932
-22,009	15,556	953,420	535,550
-20,994	15,615	952,744	535,339
-19,979	15,577	952,130	534,851
-18,965	15,607	951,483	534,561
-17,950	15,602	950,953	534,226
-16,936	15,562	950,164	533,634
-15,921	15,520	949,536	533,128
-14,906	15,492	948,800	532,603
-13,892	15,485	948,209	532,227
-12,877	15,519	947,488	531,911
-11,863	15,455	946,856	531,332
-10,848	15,456	946,443	531,082
-9,833	15,519	946,011	531,019
-8,819	15,567	945,310	530,756
-7,804	15,530	944,504	530,165
-6,790	15,474	944,062	529,718
-5,775	15,447	943,643	529,376
-4,760	15,489	942,922	529,083
-3,746	15,515	942,229	528,757
-2,731	15,346	941,614	527,854
-1,717	15,319	940,860	527,325
-0,702	15,321	940,324	527,011
0,313	15,175	939,533	526,902
1,327	18,274	937,427	535,443
2,342	27,035	794,746	477,172
3,356	23,688	459,146	270,531
4,371	-3,474	314,244	156,290
5,386	-7,269	295,904	143,319
6,400	-9,225	289,821	138,420
7,415	-9,607	287,567	136,956
8,429	-9,711	285,892	136,044
9,444	-9,907	285,107	135,467
10,459	-9,931	284,578	135,181
11,473	-10,023	284,024	134,815
12,488	-9,993	283,470	134,569
13,502	-9,773	282,744	134,426
14,517	-9,856	282,442	134,190
15,531	-9,780	282,128	134,102
16,546	-9,619	281,591	133,990
17,561	-9,766	281,145	133,625
18,575	-9,826	281,051	133,510
19,590	-9,877	280,584	133,228
20,604	-9,603	280,207	133,299
21,619	-9,773	279,926	132,991
22,634	-9,972	279,644	132,655
23,648	-9,609	279,178	132,769
24,663	-9,910	278,881	132,329
25,677	-9,831	278,864	132,384
26,692	-9,811	278,519	132,228
27,707	-9,811	278,198	132,063
28,721	-9,872	277,979	131,890
29,736	-9,831	277,509	131,694
30,750	-9,850	277,408	131,616
31,765	-9,631	277,119	131,675
32,780	-9,762	276,972	131,469
33,794	-9,852	276,757	131,270
34,809	-9,658	276,379	131,263
35,823	-9,775	276,169	131,041
36,838	-9,645	275,807	130,980
37,853	-9,671	275,765	130,924
38,867	-9,980	275,568	130,528
39,882	-9,779	275,045	130,457
40,896	-9,905	274,965	130,289
41,911	-9,798	274,711	130,257
42,926	-9,821	274,376	130,065
43,940	-10,063	274,202	129,745
44,955	-9,935	274,054	129,783
45,969	-9,828	273,522	129,619
46,984	-10,100	273,544	129,364
47,999	-10,226	273,242	129,093
49,013	-10,261	272,993	128,931
50,028	-10,386	272,700	128,665
51,042	-10,514	272,399	128,392
52,057	-10,526	272,098	128,228
53,071	-10,714	272,133	128,059
54,086	-10,424	271,851	128,183
55,101	-10,230	271,628	128,246
56,115	-10,085	271,404	128,263
57,130	-9,681	271,389	128,619
58,144	-9,846	271,215	128,372
59,159	-9,818	270,834	128,206
60,174	-9,599	270,455	128,217
61,188	-9,669	270,608	128,213
62,203	-9,833	270,436	127,969
63,217	-9,566	269,998	127,996
64,232	-9,640	269,693	127,772
65,247	-9,777	269,607	127,594
66,261	-9,637	269,254	127,544
67,276	-9,850	269,129	127,278
68,290	-9,956	268,697	126,966
69,305	-10,016	268,478	126,796
70,320	-10,045	268,381	126,713
71,334	-9,813	268,287	126,869
72,349	-9,781	268,043	126,771
73,363	-9,627	267,869	126,818
74,378	-9,704	267,651	126,633
75,393	-9,540	267,331	126,620
76,407	-9,712	267,070	126,328
77,422	-9,795	266,885	126,155
78,436	-9,803	266,746	126,070
79,451	-9,636	266,363	126,029
80,466	-9,690	266,159	125,873
81,480	-9,796	265,941	125,663
82,495	-9,920	265,909	125,524
83,509	-9,798	265,588	125,472
84,524	-9,740	265,218	125,338
85,539	-10,042	265,185	125,038
86,553	-9,900	264,861	125,003
87,568	-9,733	264,806	125,116
88,582	-9,991	264,445	124,702
89,597	-9,936	264,477	124,756
90,611	-9,794	264,021	124,657
91,626	-9,658	263,984	124,751
92,641	-9,624	263,770	124,669
93,655	-9,821	263,777	124,484
94,670	-9,583	263,162	124,396
95,684	-9,794	263,201	124,215
96,699	-9,794	262,925	124,073
97,714	-9,725	262,698	124,016
98,728	-9,937	262,520	123,733
99,743	-10,017	262,212	123,505
100,757	-10,049	261,991	123,361
101,772	-9,852	261,838	123,453
102,787	-10,012	261,750	123,258
103,801	-9,851	261,562	123,302
104,816	-9,824	261,274	123,180
105,830	-9,754	261,249	123,219
106,845	-9,494	260,828	123,239
107,860	-9,680	260,714	123,010
108,874	-9,923	260,502	122,684
109,889	-9,933	260,425	122,628
110,903	-9,767	260,116	122,618
111,918	-9,835	259,927	122,459
112,933	-9,873	259,883	122,393
113,947	-9,921	259,626	122,219
114,962	-9,582	259,370	122,386
115,976	-9,827	259,251	122,103
116,991	-9,766	259,122	122,085
118,006	-9,668	258,806	122,011
119,020	-9,839	258,843	121,868
120,035	-9,653	258,686	121,947
121,049	-9,541	258,505	121,949
122,064	-9,704	258,300	121,698
123,079	-9,566	257,979	121,657
124,093	-9,779	257,774	121,362
125,108	-10,069	257,652	121,041
126,122	-10,205	257,392	120,790
127,137	-10,129	257,124	120,720
128,151	-10,153	257,000	120,630
129,166	-10,051	256,907	120,664
130,181	-10,113	256,676	120,491
131,195	-9,979	256,272	120,407
132,210	-9,773	256,328	120,601
133,224	-9,621	255,913	120,527
134,239	-9,779	255,881	120,364
135,254	-9,767	255,684	120,271
136,268	-9,714	255,497	120,218
137,283	-9,875	255,144	119,903
138,297	-10,042	254,805	119,589
139,312	-10,213	254,765	119,411
140,327	-9,866	254,580	119,614
141,341	-9,676	254,448	119,704
142,356	-9,542	254,409	119,790
143,370	-9,510	254,270	119,742
144,385	-9,469	253,957	119,618
145,400	-9,389	253,730	119,570
146,414	-9,434	253,630	119,473
147,429	-9,293	253,382	119,467
148,443	-9,534	253,145	119,138
149,458	-9,544	253,170	119,131
150,473	-9,516	253,006	119,067
151,487	-9,526	252,746	118,926
152,502	-9,698	252,723	118,757
153,516	-9,576	252,369	118,684
154,531	-9,460	252,035	118,615
155,546	-9,614	252,123	118,515
156,560	-9,571	251,844	118,410
157,575	-9,616	251,512	118,205
158,589	-9,576	251,266	118,113
159,604	-9,491	251,226	118,155
160,619	-9,716	251,038	117,865
161,633	-9,459	250,807	117,965
162,648	-9,456	250,728	117,919
163,662	-9,558	250,777	117,846
164,677	-9,716	250,587	117,612
165,692	-9,571	250,249	117,565
166,706	-9,511	250,183	117,574
167,721	-9,584	249,948	117,392
168,735	-9,740	249,685	117,126
169,750	-9,641	249,720	117,216
170,764	-9,383	249,459	117,300
171,779	-9,382	249,360	117,244
172,794	-9,503	249,262	117,086
173,808	-9,617	248,857	116,789
174,823	-9,895	248,642	116,445
175,837	-10,042	248,413	116,204
176,852	-9,764	248,328	116,387
177,867	-9,387	248,281	116,670
178,881	-9,540	248,090	116,442
179,896	-9,519	248,109	116,458
180,910	-9,600	247,701	116,188
181,925	-9,769	247,614	115,996
182,940	-9,487	247,401	116,121
183,954	-9,405	247,215	116,092
184,969	-9,420	247,112	116,021
185,983	-9,669	246,979	115,741
186,998	-9,363	246,740	115,873
188,013	-9,192	246,430	115,858
189,027	-9,326	246,383	115,715
190,042	-9,509	246,176	115,456
191,056	-9,560	245,978	115,311
192,071	-9,623	245,780	115,155
193,086	-9,608	245,736	115,137
194,100	-9,543	245,467	115,054
195,115	-9,464	245,435	115,094
196,129	-9,518	245,186	114,923
197,144	-9,692	245,053	114,706
198,159	-9,418	244,739	114,775
199,173	-9,474	244,656	114,680
200,188	-9,636	244,371	114,403
201,202	-9,774	244,083	114,144
202,217	-9,742	243,899	114,074
203,232	-10,135	243,795	113,693
204,246	-9,887	243,690	113,837
205,261	-9,260	243,512	114,257
206,275	-10,329	243,202	113,227
207,290	-7,400	244,415	116,189
208,304	-0,461	246,686	122,999
209,319	3,098	247,623	126,402
210,334	3,650	247,459	126,763
211,348	3,818	247,475	126,899
212,363	4,124	247,173	126,985
213,377	4,106	247,236	126,990
214,392	4,044	247,089	126,852
215,407	3,905	246,802	126,580
216,421	4,062	246,577	126,582
217,436	4,116	246,557	126,605
218,450	4,269	246,372	126,624
219,465	3,681	246,106	125,993
220,480	3,548	245,866	125,750
221,494	3,742	245,774	125,852
222,509	3,828	245,657	125,851
223,523	3,814	245,414	125,703
224,538	3,314	245,107	125,126
225,553	3,465	244,931	125,148
226,567	3,634	244,913	125,266
227,582	3,733	244,849	125,303
228,596	3,625	244,742	125,149
229,611	3,356	244,445	124,767
230,626	3,345	244,146	124,594
231,640	3,368	244,151	124,605
232,655	3,573	243,819	124,591
233,669	3,448	243,733	124,434
234,684	3,236	243,516	124,140
235,699	3,607	243,622	124,484
236,713	3,935	243,274	124,560
237,728	3,534	242,999	124,084
238,742	3,110	242,904	123,681
239,757	3,101	242,697	123,558
240,772	3,390	242,603	123,733
241,786	3,620	242,550	123,881
242,801	3,347	242,323	123,534
243,815	3,359	242,178	123,458
244,830	3,536	241,984	123,490
245,844	3,538	242,007	123,493
246,859	3,455	241,609	123,212
247,874	3,304	241,553	123,051
248,888	3,481	241,420	123,115
249,903	3,381	241,260	122,942
250,917	3,642	241,188	123,104
251,932	3,771	241,060	123,130
252,947	3,810	240,765	123,000
253,961	3,490	240,636	122,667
254,976	3,492	240,526	122,602
255,990	3,644	240,379	122,638
257,005	3,408	240,045	122,268
258,020	3,197	239,993	122,062
259,034	3,470	239,855	122,199
260,049	3,651	239,541	122,172
261,063	3,510	239,478	122,017
262,078	3,203	239,310	121,676
263,093	3,684	239,291	122,038
264,107	3,674	239,208	121,977
265,122	3,178	238,966	121,449
266,136	3,632	238,712	121,669
267,151	3,939	238,615	121,851
268,166	3,399	238,275	121,240
269,180	3,301	238,177	121,102
270,195	3,952	238,381	121,710
271,209	3,977	238,137	121,595
272,224	3,562	238,043	121,208
273,239	3,087	237,624	120,609
274,253	3,346	237,502	120,740
275,268	3,633	237,366	120,887
276,282	3,692	237,187	120,831
277,297	3,580	236,962	120,618
278,312	3,318	236,802	120,319
279,326	3,687	236,768	120,581
280,341	3,579	236,575	120,387
281,355	3,554	236,536	120,337
282,370	3,703	236,439	120,394
283,384	3,542	236,341	120,207
284,399	3,298	236,031	119,848
285,414	3,152	235,775	119,593
286,428	3,361	235,677	119,696
287,443	3,467	235,480	119,668
288,457	3,688	235,347	119,762
289,472	3,703	235,358	119,769
290,487	3,714	235,104	119,638
291,501	3,437	234,893	119,304
292,516	3,071	234,669	118,895
293,530	2,956	234,642	118,781
294,545	3,360	234,608	119,068
295,560	3,473	234,388	119,033
296,574	3,270	234,045	118,690
297,589	3,466	233,938	118,778
298,603	3,698	234,075	119,017
299,618	3,760	233,971	119,001
300,633	3,528	233,681	118,663
301,647	3,763	233,632	118,810
302,662	4,109	233,709	119,105
303,676	3,989	233,352	118,820
304,691	3,890	233,200	118,656
305,706	3,825	233,196	118,594
306,720	3,938	232,951	118,545
307,735	3,703	232,677	118,214
308,749	3,579	232,485	118,011
309,764	3,446	232,342	117,826
310,779	3,315	232,159	117,621
311,793	3,040	232,040	117,339
312,808	3,179	231,730	117,279
313,822	3,192	231,573	117,199
314,837	3,154	231,494	117,119
315,852	3,139	231,393	117,047
316,866	3,475	231,381	117,287
317,881	3,799	231,173	117,419
318,895	3,775	231,085	117,346
319,910	3,991	230,937	117,425
320,925	3,711	230,699	117,079
321,939	3,448	230,473	116,754
322,954	3,692	230,505	116,946
323,968	3,403	230,171	116,546
324,983	3,339	230,016	116,408
325,997	3,165	230,027	116,271
327,012	3,731	229,781	116,566
328,027	3,727	229,604	116,464
329,041	4,013	229,668	116,703
330,056	4,109	229,569	116,715
331,070	3,890	229,435	116,470
332,085	3,872	229,103	116,277
333,100	3,931	228,977	116,248
334,114	3,782	228,976	116,124
335,129	4,015	228,642	116,121
336,143	3,910	228,523	115,970
337,158	3,782	228,465	115,834
338,173	3,898	228,181	115,767
339,187	3,928	228,115	115,746
340,202	3,977	227,962	115,694
341,216	3,773	227,838	115,468
342,231	3,536	227,680	115,200
343,246	3,696	227,554	115,246
344,260	3,592	227,368	115,064
345,275	4,097	227,261	115,378
346,289	3,714	227,359	115,129
347,304	3,990	227,052	115,171
348,319	4,163	226,920	115,222
349,333	3,807	226,708	114,839
350,348	3,620	226,582	114,625
351,362	3,850	226,500	114,745
352,377	3,509	226,388	114,424
353,392	3,372	226,045	114,138
354,406	3,419	225,932	114,105
355,421	195,972	1321,322	1399,735
356,435	157,104	1454,777	1399,739
