DTS Sentinel unit serial number:	SN410029Multiplexer serial number:	ORYXHardware model number:	OX2-SRSoftware version number:	ORYX F/W v4,00 Oryx Data Collector v3.7.2.0data status	okinstallation	B5 Nyhavnadifferential loss correction	single-endedforward channel	channel 2reverse channel	N/Adate	2023/12/12time	04:02:13forward acquisition time	300,00reverse acquisition time	0,00gamma	499,1914k internal	0,3156k external	0,3156temperature offset calibration	1,0000default loss term (dB/km)	0,3820temperature slope calibration	1,0000multiplexer offset coefficient	1,0000multiplexer slope coefficient	1,0000fibre end	0,00T internal ref (°C)	15,58T ext. ref 1 (°C)	-0,84T ext. ref 2 (°C)	-1,12length (m)	temperature (°C)	Stokes	anti-Stokes-744,400	312,928	0,034	-0,048
-743,385	-128,502	-0,379	0,039
-742,371	-200,000	0,016	0,069
-741,356	-167,635	-0,311	-0,009
-740,342	-53,718	0,079	-0,026
-739,327	-85,523	-0,270	0,062
-738,312	-22,346	0,034	-0,015
-737,298	-171,971	-0,312	-0,007
-736,283	-81,467	0,205	-0,049
-735,269	-100,119	-0,197	0,036
-734,254	-200,000	-0,008	0,028
-733,239	4,175	-0,541	-0,291
-732,225	-152,961	0,120	0,006
-731,210	408,549	-0,086	0,135
-730,196	-107,196	0,090	-0,014
-729,181	91,921	0,064	-0,053
-728,167	-43,240	-0,116	0,043
-727,152	460,322	-0,057	-0,094
-726,137	-23,742	-0,077	-0,034
-725,123	248,541	-0,075	-0,094
-724,108	-200,000	0,007	-0,109
-723,094	246,359	-0,061	0,076
-722,079	380,007	-0,068	-0,104
-721,064	1,666	0,040	0,021
-720,050	615,401	-0,020	0,037
-719,035	-84,870	0,054	0,012
-718,021	800,000	-0,009	0,022
-717,006	229,451	-0,088	-0,106
-715,991	-200,000	0,011	-0,055
-714,977	-200,000	0,013	-0,093
-713,962	-144,041	-0,143	0,010
-712,948	228,931	0,114	-0,137
-711,933	-200,000	0,025	-0,119
-710,918	-46,090	-0,069	0,025
-709,904	-200,000	0,019	0,089
-708,889	-200,000	0,033	-0,119
-707,875	-200,000	-0,036	-0,147
-706,860	289,838	-0,010	0,014
-705,845	-15,727	-0,110	-0,051
-704,831	-200,000	0,005	0,042
-703,816	800,000	-0,022	0,053
-702,802	86,660	-0,030	-0,024
-701,787	-75,859	0,124	-0,032
-700,772	47,918	-0,064	-0,044
-699,758	-169,509	0,144	-0,004
-698,743	-182,527	-0,026	0,000
-697,729	159,442	0,067	0,069
-696,714	800,000	0,036	0,086
-695,699	-200,000	0,015	-0,172
-694,685	-47,790	0,161	-0,057
-693,670	108,441	-0,109	0,095
-692,656	-162,729	0,170	-0,006
-691,641	5,530	0,053	-0,029
-690,627	-200,000	0,008	-0,104
-689,612	-37,509	-0,077	-0,030
-688,597	40,407	0,074	-0,049
-687,583	206,192	-0,039	-0,045
-686,568	-120,212	-0,250	-0,031
-685,554	-200,000	-0,015	-0,119
-684,539	-200,000	0,010	-0,142
-683,524	-200,000	0,026	-0,134
-682,510	518,950	-0,038	0,066
-681,495	51,307	-0,095	0,066
-680,481	-200,000	0,003	-0,071
-679,466	-135,652	-0,090	0,008
-678,451	-153,995	0,044	0,002
-677,437	-200,000	0,028	0,137
-676,422	-120,010	0,050	-0,006
-675,408	-200,000	-0,016	0,072
-674,393	120,333	-0,074	0,067
-673,378	385,843	-0,090	0,137
-672,364	257,293	-0,040	0,051
-671,349	266,780	-0,072	-0,092
-670,335	-200,000	0,042	-0,157
-669,320	-67,587	0,083	-0,024
-668,305	-33,294	0,065	0,026
-667,291	800,000	-0,055	-0,133
-666,276	800,000	0,052	-0,152
-665,262	437,896	0,067	-0,108
-664,247	-151,831	0,089	-0,005
-663,232	-200,000	-0,020	-0,162
-662,218	-200,000	-0,014	-0,051
-661,203	-147,309	-0,070	0,004
-660,189	800,000	0,006	0,016
-659,174	78,879	-0,102	-0,080
-658,159	137,862	-0,091	-0,087
-657,145	-20,869	-0,112	-0,050
-656,130	-200,000	0,002	-0,048
-655,116	-22,852	0,033	-0,015
-654,101	-73,400	0,046	-0,012
-653,086	-200,000	-0,002	-0,126
-652,072	800,000	-0,013	0,037
-651,057	800,000	-0,049	-0,123
-650,043	246,322	-0,093	-0,115
-649,028	51,585	-0,068	-0,048
-648,014	-37,819	0,077	0,030
-646,999	-200,000	-0,006	-0,066
-645,984	-15,971	0,031	-0,015
-644,970	800,000	0,011	-0,030
-643,955	-78,386	-0,161	0,040
-642,941	-182,667	-0,123	0,002
-641,926	-124,239	0,014	-0,002
-640,911	-0,426	-0,033	-0,017
-639,897	222,627	-0,059	-0,069
-638,882	261,782	-0,091	0,116
-637,868	75,154	0,071	-0,055
-636,853	800,000	-0,108	-0,250
-635,838	-200,000	0,015	-0,064
-634,824	-200,000	0,026	-0,100
-633,809	-46,685	0,041	-0,015
-632,795	-141,803	0,110	-0,008
-631,780	13,438	0,072	0,041
-630,765	83,148	0,072	-0,057
-629,751	-127,960	0,080	-0,008
-628,736	145,614	-0,040	-0,039
-627,722	-35,212	-0,097	-0,038
-626,707	800,000	-0,016	-0,044
-625,692	800,000	-0,019	0,042
-624,678	31,699	-0,078	-0,049
-623,663	-102,877	0,104	-0,018
-622,649	519,620	-0,022	-0,038
-621,634	800,000	-0,015	-0,031
-620,619	274,836	0,029	-0,038
-619,605	800,000	0,058	-0,148
-618,590	-111,526	-0,204	-0,030
-617,576	-113,017	0,086	0,012
-616,561	205,406	0,048	0,055
-615,546	-200,000	0,010	0,129
-614,532	-26,196	0,072	-0,031
-613,517	-200,000	-0,019	0,120
-612,503	-200,000	-0,014	-0,111
-611,488	57,940	-0,103	0,074
-610,474	-45,392	0,073	-0,026
-609,459	-200,000	-0,021	0,086
-608,444	-200,000	-0,018	-0,104
-607,430	188,094	0,131	-0,143
-606,415	-58,541	-0,039	0,012
-605,401	74,227	-0,041	-0,032
-604,386	280,473	0,074	0,097
-603,371	-200,000	-0,013	0,056
-602,357	108,238	-0,030	0,026
-601,342	-200,000	0,015	-0,141
-600,328	-200,000	0,013	-0,079
-599,313	305,285	-0,089	-0,122
-598,298	324,775	0,035	0,049
-597,284	-134,926	0,059	0,005
-596,269	800,000	0,051	-0,112
-595,255	-200,000	0,017	-0,151
-594,240	-200,000	0,010	0,069
-593,225	-112,372	-0,090	-0,013
-592,211	800,000	-0,012	-0,029
-591,196	216,445	-0,058	0,068
-590,182	-200,000	0,004	0,042
-589,167	52,102	0,070	-0,049
-588,152	800,000	0,010	0,025
-587,138	-16,134	-0,052	-0,024
-586,123	23,616	-0,073	-0,044
-585,109	-91,565	-0,030	-0,006
-584,094	-62,617	0,127	0,038
-583,079	-200,000	-0,016	0,161
-582,065	-72,474	-0,039	0,011
-581,050	-200,000	0,045	0,187
-580,036	773,779	0,034	-0,069
-579,021	800,000	-0,032	0,065
-578,006	786,758	-0,053	0,107
-576,992	800,000	-0,008	0,024
-575,977	143,674	-0,075	0,073
-574,963	-189,460	0,206	-0,002
-573,948	-113,283	-0,093	-0,013
-572,934	95,897	0,045	0,037
-571,919	26,708	0,052	-0,032
-570,904	59,831	-0,070	0,051
-569,890	800,000	-0,038	-0,098
-568,875	800,000	0,041	-0,120
-567,861	327,270	-0,071	0,101
-566,846	545,203	0,030	0,052
-565,831	39,179	-0,041	0,027
-564,817	800,000	0,042	0,096
-563,802	-200,000	-0,023	-0,092
-562,788	-200,000	0,007	0,028
-561,773	19,374	0,041	0,024
-560,758	-200,000	0,023	0,127
-559,744	-200,000	-0,044	0,146
-558,729	685,209	0,074	-0,142
-557,715	-200,000	-0,006	-0,097
-556,700	-131,694	0,170	0,016
-555,685	-27,129	0,023	0,010
-554,671	-159,069	-0,074	-0,003
-553,656	-111,314	-0,058	-0,009
-552,642	59,451	0,096	0,069
-551,627	-0,357	-0,066	0,034
-550,612	279,283	0,060	-0,079
-549,598	800,000	-0,059	0,190
-548,583	-70,355	0,111	0,031
-547,569	435,363	-0,063	-0,100
-546,554	130,458	-0,046	-0,044
-545,539	800,000	0,035	0,103
-544,525	-200,000	-0,042	-0,138
-543,510	800,000	-0,047	-0,102
-542,496	800,000	-0,013	-0,027
-541,481	268,212	0,133	-0,171
-540,466	290,749	-0,045	-0,060
-539,452	-9,826	0,070	-0,034
-538,437	150,533	0,089	0,089
-537,423	-55,401	-0,063	0,021
-536,408	107,414	-0,069	0,060
-535,393	241,642	0,020	-0,024
-534,379	-200,000	0,013	-0,114
-533,364	214,202	-0,093	0,107
-532,350	-62,993	0,054	0,016
-531,335	80,683	-0,101	0,079
-530,321	216,569	-0,027	0,031
-529,306	800,000	-0,030	0,074
-528,291	-42,470	-0,120	-0,044
-527,277	800,000	-0,008	-0,020
-526,262	-120,477	0,063	0,008
-525,248	800,000	0,010	-0,028
-524,233	800,000	0,076	0,167
-523,218	67,954	-0,103	-0,077
-522,204	-200,000	0,027	0,136
-521,189	800,000	0,017	-0,053
-520,175	-200,000	-0,002	-0,013
-519,160	-66,362	-0,075	-0,022
-518,145	142,679	-0,029	-0,028
-517,131	107,527	-0,075	0,065
-516,116	279,767	-0,069	-0,090
-515,102	-200,000	-0,023	-0,153
-514,087	-200,000	-0,015	-0,093
-513,072	800,000	-0,052	-0,137
-512,058	111,722	-0,057	-0,051
-511,043	180,982	-0,033	0,036
-510,029	467,182	0,069	-0,114
-509,014	800,000	-0,022	0,063
-507,999	-200,000	-0,004	-0,037
-506,985	432,733	-0,090	-0,144
-505,970	-92,126	-0,067	-0,014
-504,956	-200,000	-0,013	0,113
-503,941	-92,914	0,155	0,031
-502,926	318,603	-0,059	-0,081
-501,912	-200,000	0,017	-0,125
-500,897	95,099	0,022	-0,018
-499,883	761,419	-0,049	-0,098
-498,868	67,909	-0,093	0,069
-497,853	371,602	-0,066	-0,098
-496,839	-148,231	0,140	-0,008
-495,824	-57,747	-0,039	0,012
-494,810	-119,698	0,087	0,011
-493,795	-200,000	0,006	0,046
-492,781	800,000	0,019	-0,056
-491,766	-200,000	-0,000	-0,061
-490,751	160,551	-0,028	-0,029
-489,737	147,402	0,077	0,076
-488,722	-154,774	0,102	0,005
-487,708	-185,639	0,139	-0,001
-486,693	-141,256	0,035	0,003
-485,678	37,639	-0,081	-0,052
-484,664	-62,414	-0,142	0,043
-483,649	-200,000	0,006	-0,022
-482,635	-200,000	-0,012	0,046
-481,620	-200,000	-0,000	0,064
-480,605	52,657	0,044	0,031
-479,591	-200,000	0,008	-0,048
-478,576	800,000	0,006	0,014
-477,562	-10,746	-0,091	0,044
-476,547	-177,646	0,062	0,001
-475,532	-154,178	-0,017	-0,001
-474,518	236,937	0,045	0,055
-473,503	-200,000	0,017	0,182
-472,489	565,062	-0,051	0,091
-471,474	800,000	0,031	0,079
-470,459	40,336	0,021	0,014
-469,445	205,886	-0,061	0,070
-468,430	525,142	0,043	0,074
-467,416	75,132	0,169	0,130
-466,401	58,006	-0,050	0,036
-465,386	-200,000	0,003	0,062
-464,372	-200,000	-0,006	0,132
-463,357	58,485	-0,076	-0,054
-462,343	345,840	-0,030	0,043
-461,328	408,423	-0,066	-0,102
-460,313	58,540	-0,049	0,035
-459,299	-30,360	0,094	-0,039
-458,284	-162,451	0,070	-0,002
-457,270	8,528	0,061	0,033
-456,255	-200,000	0,004	0,149
-455,241	267,107	-0,032	0,041
-454,226	112,730	-0,019	-0,017
-453,211	518,176	-0,013	0,022
-452,197	225,023	0,076	0,089
-451,182	-119,796	-0,115	-0,014
-450,168	9,285	0,117	-0,064
-449,153	-81,730	-0,161	0,038
-448,138	-200,000	0,004	-0,031
-447,124	-200,000	-0,005	-0,018
-446,109	29,971	-0,009	0,006
-445,095	-200,000	-0,023	0,093
-444,080	-200,000	-0,006	0,075
-443,065	-72,696	-0,049	0,013
-442,051	43,215	-0,039	-0,026
-441,036	238,409	0,020	0,024
-440,022	-200,000	-0,009	0,089
-439,007	-54,385	-0,060	0,020
-437,992	800,000	0,023	-0,047
-436,978	336,244	0,058	-0,082
-435,963	800,000	0,091	-0,284
-434,949	259,270	-0,030	-0,038
-433,934	123,352	0,109	-0,099
-432,919	800,000	0,041	0,130
-431,905	215,154	0,017	0,020
-430,890	800,000	0,041	0,115
-429,876	20,439	0,022	-0,013
-428,861	64,004	0,129	-0,095
-427,846	-152,928	0,113	0,006
-426,832	-168,370	-0,083	0,002
-425,817	429,706	0,042	-0,066
-424,803	762,928	0,036	-0,072
-423,788	-82,365	0,205	-0,048
-422,773	22,971	0,147	0,087
-421,759	-66,603	0,103	0,029
-420,744	800,000	0,075	-0,183
-419,730	-63,346	0,133	0,040
-418,715	271,166	0,029	-0,038
-417,701	-200,000	-0,004	0,024
-416,686	800,000	0,072	-0,164
-415,671	800,000	-0,029	-0,086
-414,657	653,241	0,049	-0,092
-413,642	272,128	-0,009	-0,012
-412,628	44,942	-0,023	-0,015
-411,613	800,000	-0,014	-0,045
-410,598	-64,435	0,130	-0,038
-409,584	166,562	0,065	0,067
-408,569	-115,890	-0,076	0,010
-407,555	-200,000	0,036	0,157
-406,540	-200,000	-0,021	0,106
-405,525	-200,000	-0,018	-0,184
-404,511	691,677	0,048	-0,092
-403,496	-132,423	-0,032	-0,003
-402,482	79,804	0,042	-0,033
-401,467	-200,000	0,001	0,042
-400,452	-200,000	0,025	0,111
-399,438	-200,000	-0,009	0,220
-398,423	-200,000	-0,002	0,009
-397,409	-200,000	-0,014	-0,096
-396,394	-142,790	-0,113	-0,008
-395,379	130,776	0,021	-0,020
-394,365	-200,000	-0,010	-0,062
-393,350	170,126	0,054	0,056
-392,336	-29,899	0,082	-0,034
-391,321	274,022	0,044	-0,057
-390,306	-79,980	-0,068	-0,016
-389,292	-29,209	0,062	-0,026
-388,277	78,995	0,027	0,021
-387,263	800,000	-0,071	0,174
-386,248	-17,164	0,089	0,041
-385,233	-42,572	0,051	-0,019
-384,219	-117,700	-0,106	0,014
-383,204	94,288	-0,088	-0,073
-382,190	-30,240	-0,067	-0,028
-381,175	38,878	0,062	0,040
-380,160	800,000	-0,055	0,118
-379,146	3,660	-0,043	0,023
-378,131	58,808	-0,107	0,076
-377,117	298,945	0,055	-0,074
-376,102	-9,445	0,066	-0,032
-375,088	126,950	-0,068	0,063
-374,073	358,567	-0,103	0,150
-373,058	72,205	-0,003	-0,003
-372,044	-42,726	0,083	-0,031
-371,029	209,953	-0,043	0,049
-370,015	800,000	-0,048	0,114
-369,000	-114,601	0,078	0,011
-367,985	50,581	-0,034	-0,023
-366,971	372,495	0,102	-0,151
-365,956	-19,425	-0,079	-0,035
-364,942	45,389	0,038	-0,026
-363,927	740,171	0,022	0,044
-362,912	76,386	-0,117	0,090
-361,898	-48,952	0,047	0,016
-360,883	62,441	0,090	0,066
-359,869	-9,383	0,037	0,018
-358,854	-88,836	-0,071	0,015
-357,839	800,000	0,023	-0,050
-356,825	-52,818	0,121	0,040
-355,810	10,845	-0,038	0,021
-354,796	-66,304	0,095	0,027
-353,781	97,316	-0,100	-0,084
-352,766	453,911	-0,025	-0,040
-351,752	81,542	0,056	-0,044
-350,737	363,052	0,030	0,045
-349,723	-3,788	0,102	-0,051
-348,708	186,360	-0,064	0,070
-347,693	-106,657	-0,140	-0,022
-346,679	-14,751	0,078	-0,036
-345,664	-101,200	-0,081	0,014
-344,650	-200,000	0,004	0,043
-343,635	103,359	0,101	0,086
-342,620	800,000	0,033	0,092
-341,606	-130,055	-0,074	-0,007
-340,591	800,000	-0,038	-0,086
-339,577	101,671	-0,091	-0,077
-338,562	179,286	0,044	0,047
-337,548	430,269	-0,061	-0,096
-336,533	800,000	0,014	-0,034
-335,518	307,484	0,023	-0,031
-334,504	560,640	0,044	0,078
-333,489	256,505	-0,120	-0,150
-332,475	-200,000	-0,018	-0,112
-331,460	800,000	-0,033	-0,101
-330,445	-200,000	-0,005	-0,087
-329,431	-57,519	0,103	-0,033
-328,416	-3,476	0,050	-0,025
-327,402	-200,000	-0,014	-0,048
-326,387	-92,227	-0,099	-0,020
-325,372	-86,851	-0,150	0,033
-324,358	104,970	-0,057	0,049
-323,343	-66,083	0,067	0,019
-322,329	-200,000	-0,009	0,087
-321,314	-10,295	-0,016	0,008
-320,299	580,499	-0,032	-0,058
-319,285	-90,583	-0,044	0,009
-318,270	-101,989	0,097	0,017
-317,256	2,892	-0,062	0,033
-316,241	-200,000	-0,003	0,049
-315,226	217,134	-0,024	0,028
-314,212	2,785	0,113	0,059
-313,197	800,000	-0,030	0,080
-312,183	800,000	0,010	-0,025
-311,168	-200,000	-0,015	0,096
-310,153	194,245	-0,040	0,044
-309,139	-69,223	0,139	-0,039
-308,124	-9,323	0,043	-0,021
-307,110	-164,692	-0,071	0,002
-306,095	145,360	0,053	-0,051
-305,080	-181,297	-0,030	-0,000
-304,066	198,678	-0,081	0,090
-303,051	800,000	-0,041	0,112
-302,037	-50,618	-0,200	-0,068
-301,022	405,510	-0,103	0,158
-300,008	-200,000	0,020	0,108
-298,993	36,689	0,068	-0,043
-297,978	74,522	-0,095	-0,073
-296,964	-200,000	0,025	-0,100
-295,949	423,461	-0,058	-0,090
-294,935	-21,405	-0,041	-0,018
-293,920	-54,835	-0,028	0,009
-292,905	-200,000	0,001	0,086
-291,891	378,760	0,066	0,098
-290,876	103,656	-0,023	-0,019
-289,862	734,859	-0,039	0,075
-288,847	-137,782	0,126	-0,010
-287,832	-200,000	-0,001	-0,068
-286,818	-200,000	0,015	-0,057
-285,803	132,181	0,098	0,092
-284,789	544,566	0,043	-0,075
-283,774	-200,000	0,033	0,107
-282,759	149,855	0,068	-0,067
-281,745	-200,000	0,006	-0,066
-280,730	-131,248	-0,206	0,020
-279,716	14,509	0,071	0,040
-278,701	115,499	0,066	-0,058
-277,686	-200,000	-0,023	0,158
-276,672	-200,000	-0,020	0,207
-275,657	-110,616	0,090	-0,013
-274,643	413,438	-0,031	-0,048
-273,628	428,656	0,018	-0,029
-272,613	800,000	-0,030	0,067
-271,599	800,000	0,062	0,137
-270,584	-118,840	0,107	0,013
-269,570	800,000	-0,026	0,083
-268,555	-84,477	0,115	0,026
-267,540	-200,000	-0,032	-0,139
-266,526	-23,045	0,077	-0,033
-265,511	800,000	-0,028	0,072
-264,497	587,881	0,038	-0,069
-263,482	800,000	0,033	0,103
-262,467	93,728	-0,067	0,055
-261,453	236,219	-0,091	0,109
-260,438	667,733	0,043	-0,080
-259,424	-200,000	-0,036	-0,176
-258,409	-200,000	-0,022	-0,085
-257,395	166,043	-0,064	-0,066
-256,380	174,771	0,068	0,071
-255,365	94,078	0,040	-0,033
-254,351	-200,000	0,002	-0,008
-253,336	-124,153	0,149	0,017
-252,322	22,201	-0,152	-0,089
-251,307	-200,000	0,009	-0,120
-250,292	-44,715	0,039	-0,014
-249,278	-12,526	-0,144	-0,068
-248,263	4,393	0,028	0,015
-247,249	354,198	-0,010	0,014
-246,234	559,100	-0,076	-0,133
-245,219	-200,000	-0,004	0,022
-244,205	-200,000	-0,001	-0,015
-243,190	800,000	-0,036	0,092
-242,176	800,000	0,013	0,028
-241,161	163,023	0,045	-0,046
-240,146	377,207	-0,076	0,112
-239,132	220,958	0,061	-0,071
-238,117	140,201	0,011	0,010
-237,103	-200,000	0,011	-0,059
-236,088	513,778	-0,033	0,056
-235,073	800,000	0,045	0,122
-234,059	-79,855	0,028	0,007
-233,044	781,570	0,033	0,065
-232,030	-62,576	-0,133	0,040
-231,015	405,204	-0,061	0,093
-230,000	800,000	-0,010	-0,028
-228,986	232,592	-0,052	0,062
-227,971	800,000	-0,027	0,084
-226,957	205,842	0,071	0,080
-225,942	-200,000	0,015	0,146
-224,927	191,815	-0,095	0,104
-223,913	671,995	-0,080	-0,151
-222,898	120,667	-0,083	0,074
-221,884	-44,999	-0,154	-0,055
-220,869	347,265	0,065	-0,093
-219,855	283,659	-0,015	0,019
-218,840	-200,000	0,013	0,118
-217,825	-7,176	0,118	0,058
-216,811	-183,743	0,116	0,001
-215,796	34,209	0,019	0,012
-214,782	-79,382	-0,071	0,017
-213,767	-177,656	0,077	0,001
-212,752	-73,148	0,011	-0,003
-211,738	681,267	0,026	0,049
-210,723	-200,000	-0,006	-0,073
-209,709	123,703	0,050	-0,045
-208,694	240,704	-0,059	-0,072
-207,679	398,187	0,041	0,063
-206,665	800,000	-0,037	-0,097
-205,650	184,879	0,032	0,034
-204,636	225,226	0,025	0,029
-203,621	166,689	0,020	0,020
-202,606	35,932	-0,029	0,018
-201,592	-200,000	-0,007	-0,038
-200,577	-200,000	-0,016	-0,114
-199,563	423,569	-0,007	0,010
-198,548	-200,000	0,007	0,066
-197,533	-13,838	0,048	0,022
-196,519	15,166	0,159	0,090
-195,504	30,778	-0,104	-0,064
-194,490	800,000	-0,049	-0,146
-193,475	-88,261	-0,092	-0,020
-192,460	9,646	0,044	-0,024
-191,446	468,679	0,058	-0,095
-190,431	-200,000	-0,003	0,038
-189,417	433,207	0,052	0,082
-188,402	-200,000	-0,032	-0,149
-187,387	-200,000	-0,011	-0,055
-186,373	49,478	-0,166	-0,113
-185,358	-27,874	-0,170	0,071
-184,344	392,220	0,093	0,140
-183,329	-200,000	0,004	0,077
-182,315	504,725	-0,021	0,036
-181,300	800,000	-0,046	-0,105
-180,285	161,169	0,023	-0,023
-179,271	-196,199	-0,174	-0,001
-178,256	751,475	-0,034	-0,067
-177,242	77,591	0,078	0,060
-176,227	41,901	0,034	0,022
-175,212	58,433	0,154	0,109
-174,198	184,025	-0,091	-0,098
-173,183	260,764	-0,038	0,048
-172,169	240,612	-0,056	0,068
-171,154	-200,000	0,002	-0,042
-170,139	-81,675	-0,101	-0,024
-169,125	800,000	0,041	0,105
-168,110	-82,032	-0,107	0,025
-167,096	-92,247	-0,019	0,004
-166,081	466,630	-0,083	-0,135
-165,066	-84,427	0,073	-0,016
-164,052	9,060	0,128	-0,070
-163,037	312,997	-0,121	-0,164
-162,023	-97,766	0,105	0,019
-161,008	-200,000	-0,016	-0,051
-159,993	800,000	-0,036	0,093
-158,979	-18,738	0,072	-0,032
-157,964	-200,000	-0,006	0,040
-156,950	-200,000	-0,012	0,055
-155,935	117,930	0,082	-0,073
-154,920	-27,142	-0,047	-0,020
-153,906	746,860	0,033	-0,065
-152,891	252,165	0,060	0,074
-151,877	67,403	0,073	0,053
-150,862	-19,697	-0,167	-0,074
-149,847	379,761	0,013	0,020
-148,833	-158,472	-0,040	0,002
-147,818	-104,088	0,140	-0,023
-146,804	-36,664	0,018	-0,007
-145,789	800,000	0,016	0,040
-144,775	-200,000	0,014	0,064
-143,760	-43,022	0,094	0,034
-142,745	101,378	-0,035	0,029
-141,731	-200,000	0,001	0,178
-140,716	43,068	0,170	0,112
-139,702	-200,000	0,032	0,190
-138,687	-200,000	-0,032	0,181
-137,672	-200,000	-0,005	-0,018
-136,658	-146,116	0,075	0,005
-135,643	703,253	-0,029	0,055
-134,629	-200,000	0,027	-0,141
-133,614	658,267	0,055	-0,103
-132,599	-200,000	0,031	-0,117
-131,585	-200,000	-0,001	-0,090
-130,570	800,000	0,038	0,117
-129,556	368,922	-0,047	-0,068
-128,541	-176,059	-0,117	0,002
-127,526	-154,876	-0,069	0,003
-126,512	-60,692	0,057	-0,017
-125,497	800,000	0,040	0,085
-124,483	391,678	0,061	0,092
-123,468	-123,319	0,091	-0,010
-122,453	-116,301	-0,123	-0,016
-121,439	-42,117	-0,090	-0,033
-120,424	670,336	0,009	-0,017
-119,410	-200,000	0,009	0,115
-118,395	-126,664	0,189	-0,020
-117,380	391,921	-0,017	0,026
-116,366	800,000	-0,051	0,123
-115,351	-200,000	-0,038	0,123
-114,337	800,000	0,008	0,017
-113,322	212,896	0,015	0,017
-112,307	230,255	-0,030	0,035
-111,293	-85,107	0,154	-0,034
-110,278	800,000	0,089	-0,252
-109,264	-200,000	-0,004	0,079
-108,249	71,819	-0,253	-0,189
-107,234	800,000	-0,040	-0,109
-106,220	656,392	-0,011	-0,020
-105,205	800,000	-0,030	-0,088
-104,191	-144,497	-0,180	0,012
-103,176	-200,000	0,024	-0,224
-102,162	43,748	0,131	0,086
-101,147	800,000	-0,003	0,006
-100,132	-200,000	0,003	-0,116
-99,118	-65,737	0,064	0,018
-98,103	111,010	-0,083	0,072
-97,089	-149,014	-0,087	0,005
-96,074	-200,000	0,013	0,043
-95,059	-200,000	-0,014	-0,095
-94,045	-72,784	0,050	-0,013
-93,030	-200,000	0,043	-0,153
-92,016	187,175	-0,026	-0,028
-91,001	50,630	-0,033	-0,022
-89,986	-144,381	0,107	0,007
-88,972	-37,954	0,015	0,006
-87,957	-182,776	-0,087	0,001
-86,943	35,566	-0,083	-0,052
-85,928	76,129	0,104	-0,079
-84,913	229,592	0,047	0,055
-83,899	-200,000	-0,001	0,051
-82,884	-25,990	-0,056	-0,024
-81,870	-200,000	0,017	-0,073
-80,855	800,000	-0,028	0,060
-79,840	181,998	0,050	0,053
-78,826	66,318	-0,086	0,063
-77,811	-131,024	-0,117	0,011
-76,797	-16,879	-0,118	0,053
-75,782	-200,000	0,005	0,036
-74,767	9,552	0,036	0,020
-73,753	-14,067	-0,059	-0,027
-72,738	800,000	0,047	0,114
-71,724	-129,393	-0,171	-0,017
-70,709	-200,000	0,013	-0,058
-69,694	-115,382	-0,130	0,017
-68,680	-200,000	0,001	-0,085
-67,665	166,266	0,085	0,086
-66,651	-70,028	0,074	-0,020
-65,636	305,713	0,057	0,077
-64,622	-55,944	-0,111	-0,035
-63,607	30,398	0,042	0,025
-62,592	-103,510	0,051	-0,009
-61,578	265,915	0,072	0,090
-60,563	-200,000	0,016	0,097
-59,549	-200,000	-0,026	-0,103
-58,534	2,185	-1,956	-1,012
-57,519	-200,000	-0,204	-0,881
-56,505	-200,000	-1,213	-4,974
-55,490	79,675	0,645	0,497
-54,476	800,000	5,303	12,175
-53,461	-200,000	17,557	283,712
-52,446	800,000	725,979	2217,903
-51,432	536,694	1642,330	2810,798
-50,417	110,435	1633,224	1409,011
-49,403	75,104	1286,760	972,770
-48,388	32,225	1028,247	635,598
-47,373	20,203	990,196	572,393
-46,359	18,598	978,066	560,090
-45,344	15,930	973,956	548,975
-44,330	16,108	972,563	548,752
-43,315	15,677	970,812	546,336
-42,300	15,593	969,778	545,456
-41,286	15,630	968,706	544,952
-40,271	15,589	967,648	544,202
-39,257	15,614	966,862	543,819
-38,242	15,624	966,052	543,375
-37,227	15,579	965,146	542,698
-36,213	15,580	964,252	542,178
-35,198	15,626	963,276	541,756
-34,184	15,608	962,753	541,382
-33,169	15,552	961,740	540,609
-32,154	15,603	960,791	540,218
-31,140	15,664	959,860	539,871
-30,125	15,649	959,117	539,384
-29,111	15,678	958,190	538,935
-28,096	15,627	957,671	538,457
-27,082	15,666	956,930	538,145
-26,067	15,594	956,216	537,490
-25,052	15,565	955,466	536,955
-24,038	15,576	954,779	536,580
-23,023	15,590	954,147	536,249
-22,009	15,622	953,550	535,996
-20,994	15,622	952,766	535,535
-19,979	15,658	952,108	535,258
-18,965	15,613	951,588	534,801
-17,950	15,644	951,087	534,598
-16,936	15,612	950,068	533,900
-15,921	15,581	949,657	533,549
-14,906	15,558	948,889	533,024
-13,892	15,527	948,383	532,619
-12,877	15,447	947,835	532,036
-11,863	15,454	947,067	531,605
-10,848	15,520	946,473	531,461
-9,833	15,574	945,937	531,310
-8,819	15,529	945,440	530,868
-7,804	15,499	944,669	530,319
-6,790	15,496	944,391	530,130
-5,775	15,452	943,898	529,693
-4,760	15,581	942,945	529,546
-3,746	15,508	942,364	528,968
-2,731	15,327	941,893	528,109
-1,717	15,318	941,088	527,610
-0,702	15,379	940,238	527,306
0,313	15,169	939,674	527,119
1,327	18,303	937,577	535,780
2,342	27,117	794,923	477,639
3,356	23,851	459,287	270,944
4,371	-3,220	314,267	156,622
5,386	-7,257	295,854	143,350
6,400	-9,427	289,936	138,316
7,415	-9,880	287,557	136,723
8,429	-9,752	285,948	136,072
9,444	-9,880	285,155	135,557
10,459	-9,714	284,534	135,412
11,473	-9,838	284,041	135,044
12,488	-9,785	283,449	134,802
13,502	-9,862	282,896	134,452
14,517	-9,867	282,572	134,281
15,531	-9,647	281,866	134,146
16,546	-9,695	281,807	134,061
17,561	-9,737	281,227	133,732
18,575	-9,585	280,885	133,703
19,590	-9,759	280,620	133,398
20,604	-9,748	280,336	133,262
21,619	-9,714	279,923	133,087
22,634	-9,647	279,657	133,012
23,648	-9,735	279,387	132,787
24,663	-9,812	279,178	132,603
25,677	-9,767	278,914	132,509
26,692	-9,823	278,624	132,305
27,707	-9,983	278,319	131,997
28,721	-9,692	278,035	132,126
29,736	-9,637	277,758	132,035
30,750	-9,858	277,520	131,702
31,765	-9,761	277,175	131,618
32,780	-9,703	276,931	131,545
33,794	-10,053	276,993	131,231
34,809	-9,745	276,431	131,245
35,823	-9,710	276,184	131,149
36,838	-9,923	276,053	130,873
37,853	-9,833	275,731	130,794
38,867	-9,814	275,473	130,678
39,882	-9,817	275,242	130,554
40,896	-9,729	274,997	130,508
41,911	-9,861	274,733	130,248
42,926	-9,787	274,469	130,180
43,940	-9,756	274,211	130,076
44,955	-9,832	273,941	129,865
45,969	-9,933	273,949	129,762
46,984	-10,048	273,510	129,435
47,999	-10,187	273,252	129,172
49,013	-10,348	273,015	128,899
50,028	-10,645	272,809	128,513
51,042	-10,502	272,490	128,484
52,057	-10,585	272,320	128,316
53,071	-10,497	272,110	128,288
54,086	-10,356	271,819	128,270
55,101	-10,265	271,839	128,352
56,115	-10,065	271,555	128,392
57,130	-9,895	271,488	128,505
58,144	-9,614	271,027	128,536
59,159	-9,544	270,768	128,466
60,174	-9,701	270,662	128,260
61,188	-9,574	270,531	128,303
62,203	-9,676	270,230	128,055
63,217	-9,717	270,111	127,950
64,232	-9,658	269,754	127,823
65,247	-9,749	269,546	127,629
66,261	-9,776	269,409	127,529
67,276	-9,875	269,132	127,296
68,290	-10,105	268,858	126,943
69,305	-10,019	268,496	126,840
70,320	-10,110	268,478	126,737
71,334	-9,962	268,202	126,731
72,349	-9,790	268,101	126,828
73,363	-9,862	267,878	126,647
74,378	-9,815	267,768	126,626
75,393	-9,650	267,544	126,659
76,407	-9,755	267,240	126,408
77,422	-9,846	267,021	126,211
78,436	-9,864	266,856	126,104
79,451	-9,782	266,539	126,018
80,466	-9,617	266,159	125,977
81,480	-9,948	266,207	125,689
82,495	-9,847	265,895	125,621
83,509	-9,639	265,704	125,708
84,524	-9,985	265,366	125,225
85,539	-10,163	265,236	124,991
86,553	-9,996	264,918	124,981
87,568	-9,823	264,733	125,038
88,582	-9,819	264,599	124,968
89,597	-9,922	264,306	124,725
90,611	-9,752	264,363	124,894
91,626	-9,775	264,162	124,767
92,641	-9,738	263,857	124,645
93,655	-9,829	263,775	124,514
94,670	-9,791	263,363	124,342
95,684	-9,829	263,282	124,259
96,699	-9,776	263,001	124,162
97,714	-9,912	262,820	123,944
98,728	-9,899	262,609	123,846
99,743	-10,049	262,427	123,615
100,757	-10,023	262,167	123,505
101,772	-9,939	261,892	123,439
102,787	-10,080	261,983	123,345
103,801	-9,881	261,811	123,430
104,816	-9,788	261,525	123,366
105,830	-9,581	261,214	123,392
106,845	-9,659	261,114	123,265
107,860	-9,783	260,958	123,070
108,874	-9,875	260,839	122,922
109,889	-9,785	260,365	122,767
110,903	-9,742	260,124	122,680
111,918	-9,852	260,094	122,558
112,933	-9,717	259,899	122,575
113,947	-9,906	259,732	122,318
114,962	-9,711	259,430	122,337
115,976	-9,645	259,227	122,289
116,991	-9,782	259,172	122,132
118,006	-9,760	259,085	122,099
119,020	-9,776	258,798	121,938
120,035	-9,733	258,623	121,882
121,049	-9,717	258,529	121,842
122,064	-9,766	258,299	121,679
123,079	-9,502	257,992	121,755
124,093	-9,736	257,766	121,433
125,108	-10,075	257,599	121,047
126,122	-10,057	257,256	120,891
127,137	-10,194	257,100	120,688
128,151	-10,011	256,937	120,760
129,166	-10,085	256,715	120,581
130,181	-9,952	256,589	120,626
131,195	-10,124	256,432	120,392
132,210	-9,922	256,417	120,550
133,224	-9,926	256,088	120,381
134,239	-9,749	255,826	120,400
135,254	-9,715	255,721	120,370
136,268	-9,913	255,598	120,130
137,283	-10,035	255,289	119,868
138,297	-10,125	254,985	119,637
139,312	-10,346	254,849	119,372
140,327	-9,868	254,654	119,682
141,341	-9,647	254,685	119,877
142,356	-9,672	254,436	119,727
143,370	-9,509	254,305	119,795
144,385	-9,434	254,130	119,766
145,400	-9,455	253,825	119,594
146,414	-9,565	253,771	119,464
147,429	-9,422	253,438	119,418
148,443	-9,436	253,347	119,353
149,458	-9,730	253,234	119,037
150,473	-9,611	253,056	119,045
151,487	-9,584	252,781	118,927
152,502	-9,414	252,605	118,980
153,516	-9,346	252,308	118,887
154,531	-9,587	252,275	118,655
155,546	-9,520	252,043	118,593
156,560	-9,484	251,817	118,506
157,575	-9,686	251,594	118,219
158,589	-9,594	251,506	118,246
159,604	-9,567	251,311	118,167
160,619	-9,702	251,217	117,998
161,633	-9,741	251,117	117,907
162,648	-9,535	250,928	117,982
163,662	-9,622	250,693	117,787
164,677	-9,278	250,595	118,022
165,692	-9,436	250,290	117,734
166,706	-9,514	250,285	117,655
167,721	-9,546	250,081	117,522
168,735	-9,726	250,029	117,335
169,750	-9,625	249,715	117,262
170,764	-9,567	249,531	117,214
171,779	-9,639	249,413	117,088
172,794	-9,608	249,301	117,051
173,808	-9,613	249,162	116,971
174,823	-10,061	248,841	116,433
175,837	-9,979	248,491	116,328
176,852	-9,610	248,373	116,572
177,867	-9,566	248,314	116,571
178,881	-9,540	248,205	116,531
179,896	-9,492	248,116	116,519
180,910	-9,575	247,843	116,310
181,925	-9,390	247,661	116,369
182,940	-9,635	247,553	116,104
183,954	-9,705	247,400	115,964
184,969	-9,570	247,229	115,985
185,983	-9,634	246,997	115,813
186,998	-9,529	246,881	115,835
188,013	-9,554	246,804	115,768
189,027	-9,502	246,508	115,662
190,042	-9,426	246,241	115,590
191,056	-9,440	246,046	115,477
192,071	-9,545	245,976	115,346
193,086	-9,560	245,794	115,239
194,100	-9,566	245,609	115,136
195,115	-9,623	245,484	115,020
196,129	-9,545	245,202	114,943
197,144	-9,687	245,060	114,748
198,159	-9,535	244,816	114,749
199,173	-9,536	244,651	114,660
200,188	-9,636	244,515	114,505
201,202	-9,724	244,242	114,294
202,217	-9,887	243,938	114,007
203,232	-10,144	243,784	113,715
204,246	-9,793	243,810	114,005
205,261	-9,475	243,588	114,151
206,275	-10,456	243,236	113,173
207,290	-7,499	244,375	116,123
208,304	-0,357	246,607	123,083
209,319	2,927	247,556	126,264
210,334	3,480	247,576	126,720
211,348	3,772	247,396	126,858
212,363	3,943	247,384	126,981
213,377	3,901	247,341	126,913
214,392	4,035	246,936	126,805
215,407	3,908	246,764	126,601
216,421	3,700	246,715	126,393
217,436	4,073	246,584	126,621
218,450	4,100	246,490	126,584
219,465	3,803	246,284	126,222
220,480	3,715	246,068	126,029
221,494	3,344	245,979	125,668
222,509	3,900	245,662	125,950
223,523	3,603	245,516	125,621
224,538	3,367	245,164	125,236
225,553	3,415	245,050	125,206
226,567	3,594	244,849	125,239
227,582	3,630	244,722	125,192
228,596	3,708	244,533	125,148
229,611	3,139	244,532	124,672
230,626	3,239	244,043	124,493
231,640	3,179	244,176	124,500
232,655	3,730	243,990	124,843
233,669	3,440	243,862	124,531
234,684	3,237	243,657	124,250
235,699	3,537	243,714	124,512
236,713	3,641	243,463	124,457
237,728	3,492	243,229	124,205
238,742	3,235	242,933	123,835
239,757	3,330	242,692	123,778
240,772	3,276	242,692	123,723
241,786	3,470	242,569	123,806
242,801	3,275	242,440	123,572
243,815	3,176	242,300	123,410
244,830	3,401	242,179	123,518
245,844	3,587	241,988	123,560
246,859	3,291	241,856	123,243
247,874	3,378	241,491	123,116
248,888	3,505	241,441	123,181
249,903	3,491	241,294	123,084
250,917	3,575	241,262	123,124
251,932	3,832	241,156	123,266
252,947	3,599	240,870	122,921
253,961	3,326	240,603	122,556
254,976	3,534	240,596	122,707
255,990	3,496	240,544	122,640
257,005	3,575	240,251	122,543
258,020	3,097	240,123	122,085
259,034	3,325	239,942	122,164
260,049	3,516	239,835	122,251
261,063	3,254	239,540	121,881
262,078	3,381	239,446	121,923
263,093	3,652	239,284	122,046
264,107	3,520	239,240	121,907
265,122	3,365	238,997	121,650
266,136	3,752	238,926	121,910
267,151	3,666	238,866	121,800
268,166	3,422	238,560	121,439
269,180	3,197	238,410	121,175
270,195	3,854	238,344	121,650
271,209	4,065	238,290	121,779
272,224	3,331	237,981	121,030
273,239	3,165	237,774	120,783
274,253	3,263	237,467	120,693
275,268	3,389	237,581	120,840
276,282	3,761	237,235	120,946
277,297	3,446	237,037	120,587
278,312	3,370	237,072	120,534
279,326	3,468	236,839	120,481
280,341	3,485	236,687	120,407
281,355	3,417	236,628	120,313
282,370	3,505	236,510	120,311
283,384	3,473	236,284	120,160
284,399	3,244	236,150	119,902
285,414	3,160	235,942	119,720
286,428	3,366	235,811	119,804
287,443	3,363	235,690	119,729
288,457	3,573	235,374	119,722
289,472	3,570	235,402	119,723
290,487	3,569	235,239	119,629
291,501	3,314	234,966	119,281
292,516	3,058	234,809	118,991
293,530	3,057	234,697	118,923
294,545	3,347	234,629	119,104
295,560	3,320	234,454	118,983
296,574	3,175	234,178	118,720
297,589	3,302	234,163	118,800
298,603	3,655	234,110	119,036
299,618	3,685	234,015	119,001
300,633	3,529	233,765	118,742
301,647	3,654	233,675	118,783
302,662	3,869	233,806	119,005
303,676	3,920	233,404	118,829
304,691	3,718	233,304	118,612
305,706	3,809	233,183	118,610
306,720	3,791	232,985	118,485
307,735	3,521	232,858	118,202
308,749	3,903	232,462	118,284
309,764	3,481	232,243	117,838
310,779	3,350	232,044	117,625
311,793	3,218	232,003	117,493
312,808	3,036	231,896	117,289
313,822	3,158	231,609	117,226
314,837	3,166	231,683	117,259
315,852	3,203	231,473	117,171
316,866	3,566	231,415	117,409
317,881	3,705	231,217	117,404
318,895	3,858	231,079	117,441
319,910	3,865	230,972	117,382
320,925	3,384	230,811	116,922
321,939	3,317	230,574	116,741
322,954	3,577	230,542	116,912
323,968	3,460	230,341	116,711
324,983	3,029	230,100	116,250
325,997	3,303	229,998	116,397
327,012	3,823	229,971	116,768
328,027	3,643	229,824	116,546
329,041	3,650	229,802	116,530
330,056	4,273	229,695	116,938
331,070	3,844	229,367	116,436
332,085	3,523	229,274	116,135
333,100	3,966	229,086	116,364
334,114	3,918	228,768	116,156
335,129	3,758	228,758	116,020
336,143	3,732	228,701	115,961
337,158	3,594	228,483	115,736
338,173	3,832	228,286	115,806
339,187	3,827	228,204	115,749
340,202	3,929	228,132	115,780
341,216	3,886	227,923	115,631
342,231	3,735	227,709	115,399
343,246	3,621	227,622	115,258
344,260	3,774	227,553	115,328
345,275	3,869	227,403	115,313
346,289	3,926	227,260	115,274
347,304	4,153	227,124	115,364
348,319	4,056	227,001	115,218
349,333	3,697	226,916	114,896
350,348	3,543	226,597	114,610
351,362	3,688	226,528	114,672
352,377	3,520	226,307	114,426
353,392	3,329	226,094	114,165
354,406	3,581	225,745	114,167
355,421	195,792	1321,072	1399,317
356,435	156,947	1454,522	1399,319
