DTS Sentinel unit serial number:	SN410029Multiplexer serial number:	ORYXHardware model number:	OX2-SRSoftware version number:	ORYX F/W v4,00 Oryx Data Collector v3.7.2.0data status	okinstallation	B5 Nyhavnadifferential loss correction	single-endedforward channel	channel 2reverse channel	N/Adate	2023/12/12time	22:57:13forward acquisition time	300,00reverse acquisition time	0,00gamma	499,1914k internal	0,3158k external	0,3158temperature offset calibration	1,0000default loss term (dB/km)	0,3820temperature slope calibration	1,0000multiplexer offset coefficient	1,0000multiplexer slope coefficient	1,0000fibre end	0,00T internal ref (°C)	14,55T ext. ref 1 (°C)	-2,02T ext. ref 2 (°C)	-2,34length (m)	temperature (°C)	Stokes	anti-Stokes-744,400	-45,627	0,034	-0,012
-743,385	-138,294	-0,260	0,021
-742,371	-140,814	0,249	-0,019
-741,356	-89,820	-0,342	0,073
-740,342	-131,538	0,211	0,020
-739,327	-145,630	-0,269	0,017
-738,312	-200,000	0,017	-0,062
-737,298	-48,311	-0,426	-0,151
-736,283	-42,393	0,172	-0,064
-735,269	-124,772	-0,339	-0,038
-734,254	-87,896	0,082	0,018
-733,239	-37,524	-0,502	-0,196
-732,225	-15,629	0,209	0,098
-731,210	240,704	-0,045	0,055
-730,196	92,465	-0,063	-0,052
-729,181	-200,000	-0,015	0,073
-728,167	19,629	0,052	0,031
-727,152	-200,000	0,005	-0,111
-726,137	61,277	-0,054	0,039
-725,123	-200,000	0,026	-0,134
-724,108	36,063	-0,027	-0,018
-723,094	800,000	-0,043	-0,088
-722,079	25,418	-0,047	0,029
-721,064	800,000	-0,022	-0,055
-720,050	-67,772	0,095	0,027
-719,035	400,968	0,056	-0,086
-718,021	-61,209	-0,105	0,032
-717,006	130,613	-0,037	-0,035
-715,991	523,590	-0,152	-0,264
-714,977	-200,000	0,011	-0,122
-713,962	-73,533	-0,072	-0,019
-712,948	-97,034	0,169	-0,032
-711,933	-76,589	0,101	-0,026
-710,918	95,717	-0,132	0,111
-709,904	800,000	0,014	0,043
-708,889	-62,949	0,155	-0,047
-707,875	117,601	-0,029	-0,026
-706,860	-17,541	0,046	-0,021
-705,845	-161,855	-0,137	-0,005
-704,831	-28,816	-0,025	-0,011
-703,816	459,036	-0,043	-0,071
-702,802	-23,814	-0,066	0,029
-701,787	341,852	0,060	-0,086
-700,772	800,000	0,041	-0,115
-699,758	15,961	-0,088	-0,051
-698,743	-200,000	0,015	0,102
-697,729	-132,628	0,027	0,003
-696,714	757,994	-0,048	-0,097
-695,699	549,734	-0,100	-0,176
-694,685	145,640	-0,047	-0,046
-693,670	-200,000	0,027	-0,109
-692,656	-88,182	0,142	-0,031
-691,641	-43,610	-0,092	0,034
-690,627	319,185	0,060	0,085
-689,612	-52,803	-0,040	0,014
-688,597	15,074	0,035	0,020
-687,583	-200,000	0,013	-0,163
-686,568	47,830	-0,071	-0,049
-685,554	-31,892	0,073	0,030
-684,539	440,428	0,060	0,096
-683,524	-200,000	-0,032	0,145
-682,510	185,924	-0,048	0,052
-681,495	-200,000	-0,009	-0,060
-680,481	581,223	-0,044	-0,080
-679,466	428,677	-0,051	-0,081
-678,451	-63,462	0,011	0,003
-677,437	-132,996	0,087	0,008
-676,422	-35,372	0,100	-0,040
-675,408	800,000	-0,033	-0,069
-674,393	-200,000	0,006	-0,047
-673,378	34,214	-0,064	0,041
-672,364	159,877	-0,161	-0,165
-671,349	-200,000	0,011	-0,104
-670,335	-132,245	-0,018	-0,002
-669,320	-93,851	0,094	0,019
-668,305	-200,000	-0,023	-0,123
-667,291	800,000	-0,043	-0,093
-666,276	-200,000	0,007	-0,026
-665,262	-28,570	-0,054	0,023
-664,247	-73,251	-0,232	0,062
-663,232	-200,000	0,005	0,016
-662,218	-200,000	-0,020	0,107
-661,203	198,764	-0,041	-0,046
-660,189	-200,000	-0,007	0,109
-659,174	34,276	-0,163	0,104
-658,159	60,244	-0,069	0,050
-657,145	68,806	0,062	-0,047
-656,130	-55,690	-0,094	-0,031
-655,116	85,156	-0,111	0,089
-654,101	-97,928	0,087	0,016
-653,086	168,944	-0,044	0,046
-652,072	-65,284	-0,035	-0,010
-651,057	233,049	-0,065	-0,078
-650,043	104,627	-0,083	-0,072
-649,028	800,000	-0,058	-0,136
-648,014	800,000	-0,049	-0,106
-646,999	800,000	0,015	-0,038
-645,984	-116,260	0,109	0,015
-644,970	63,268	-0,035	-0,026
-643,955	-156,249	-0,152	0,007
-642,941	-30,536	0,087	0,036
-641,926	-88,234	0,097	0,021
-640,911	729,116	0,075	-0,148
-639,897	-108,643	-0,131	0,020
-638,882	-200,000	0,024	0,165
-637,868	252,964	-0,098	-0,123
-636,853	147,692	-0,086	0,085
-635,838	366,035	-0,065	-0,097
-634,824	-92,737	0,120	-0,024
-633,809	-24,913	-0,076	0,033
-632,795	147,837	0,124	0,123
-631,780	442,050	0,058	0,094
-630,765	109,554	-0,032	-0,028
-629,751	150,264	-0,045	0,045
-628,736	800,000	-0,026	0,067
-627,722	609,526	0,024	-0,044
-626,707	233,012	0,006	0,007
-625,692	766,386	-0,048	-0,096
-624,678	-200,000	0,006	-0,037
-623,663	63,054	-0,048	0,035
-622,649	-67,954	-0,082	0,023
-621,634	68,670	-0,035	0,027
-620,619	1,605	-0,101	0,053
-619,605	27,684	0,164	0,101
-618,590	-95,450	-0,051	0,010
-617,576	446,415	-0,094	-0,152
-616,561	-200,000	-0,022	-0,111
-615,546	800,000	-0,038	-0,094
-614,532	-44,923	-0,150	-0,054
-613,517	210,580	0,092	-0,106
-612,503	800,000	-0,032	-0,073
-611,488	316,337	-0,024	-0,034
-610,474	-200,000	-0,015	-0,084
-609,459	-113,974	-0,032	-0,005
-608,444	-200,000	0,000	0,003
-607,430	-11,527	-0,134	-0,064
-606,415	800,000	-0,054	-0,138
-605,401	70,154	-0,089	0,067
-604,386	163,284	0,053	0,055
-603,371	-127,477	0,074	-0,008
-602,357	220,774	-0,045	-0,053
-601,342	-19,163	0,022	-0,010
-600,328	273,633	-0,042	-0,055
-599,313	800,000	-0,017	0,039
-598,298	800,000	0,060	-0,179
-597,284	117,089	0,071	-0,064
-596,269	-200,000	-0,017	-0,150
-595,255	534,027	0,051	0,089
-594,240	19,031	-0,154	0,090
-593,225	-200,000	0,007	-0,059
-592,211	-51,466	-0,067	0,023
-591,196	-200,000	0,000	-0,172
-590,182	-200,000	0,015	0,105
-589,167	-96,892	-0,025	-0,005
-588,152	158,681	-0,116	-0,118
-587,138	161,662	-0,013	-0,013
-586,123	165,531	-0,079	0,082
-585,109	-87,043	-0,030	0,007
-584,094	78,821	-0,047	0,037
-583,079	132,498	-0,034	0,032
-582,065	-200,000	0,053	0,184
-581,050	800,000	0,003	-0,007
-580,036	-65,458	-0,083	-0,024
-579,021	347,761	0,032	0,046
-578,006	-59,781	-0,096	0,030
-576,992	-200,000	-0,017	-0,097
-575,977	-152,271	0,090	-0,005
-574,963	203,389	0,039	0,045
-573,948	311,227	-0,042	0,058
-572,934	-200,000	0,016	-0,066
-571,919	734,077	-0,065	-0,127
-570,904	699,581	-0,043	-0,084
-569,890	800,000	-0,037	-0,118
-568,875	-200,000	0,002	0,051
-567,861	-200,000	0,013	0,090
-566,846	800,000	-0,014	0,038
-565,831	122,426	0,106	-0,097
-564,817	122,620	-0,065	-0,060
-563,802	-83,234	0,089	-0,021
-562,788	138,298	-0,035	-0,034
-561,773	-116,104	0,120	0,016
-560,758	714,439	0,038	0,074
-559,744	-118,957	-0,061	0,008
-558,729	-200,000	-0,014	0,085
-557,715	-200,000	0,003	-0,065
-556,700	-200,000	0,013	-0,153
-555,685	611,859	-0,023	0,042
-554,671	-183,040	0,104	-0,001
-553,656	800,000	-0,065	0,172
-552,642	-200,000	-0,017	0,076
-551,627	-126,623	0,054	-0,006
-550,612	159,457	-0,035	-0,035
-549,598	-200,000	0,018	-0,078
-548,583	-95,563	-0,058	0,011
-547,569	566,435	-0,029	0,052
-546,554	-41,240	0,040	0,015
-545,539	800,000	0,020	-0,058
-544,525	3,088	0,050	0,026
-543,510	3,471	0,044	-0,023
-542,496	-200,000	-0,004	-0,136
-541,481	77,312	-0,030	-0,023
-540,466	800,000	-0,012	0,035
-539,452	-61,048	0,194	-0,060
-538,437	-122,672	0,087	0,010
-537,423	800,000	-0,028	0,064
-536,408	-200,000	0,004	0,069
-535,393	-200,000	-0,018	0,071
-534,379	-113,939	0,094	-0,013
-533,364	213,842	-0,035	0,041
-532,350	268,876	-0,049	-0,063
-531,335	-200,000	0,006	0,109
-530,321	-91,468	0,124	0,026
-529,306	88,021	0,040	-0,033
-528,291	-52,129	0,023	0,008
-527,277	192,426	0,096	0,106
-526,262	279,796	-0,050	0,065
-525,248	-8,633	0,091	0,045
-524,233	800,000	-0,018	0,039
-523,218	-200,000	0,011	0,057
-522,204	-200,000	-0,005	0,096
-521,189	196,065	-0,091	-0,101
-520,175	800,000	-0,023	-0,051
-519,160	-117,506	-0,012	-0,002
-518,145	800,000	0,033	0,067
-517,131	554,740	0,063	0,112
-516,116	476,825	0,028	0,046
-515,102	-200,000	-0,022	-0,080
-514,087	-66,941	0,124	-0,036
-513,072	-200,000	-0,008	-0,127
-512,058	-200,000	0,000	-0,019
-511,043	307,556	-0,079	0,107
-510,029	800,000	0,019	-0,054
-509,014	-200,000	-0,036	0,121
-507,999	143,936	-0,056	0,055
-506,985	800,000	-0,031	0,086
-505,970	-61,171	0,139	0,043
-504,956	108,616	-0,047	-0,041
-503,941	158,313	-0,063	-0,064
-502,926	201,497	0,082	0,092
-501,912	800,000	-0,011	0,033
-500,897	-7,146	0,055	-0,027
-499,883	-200,000	-0,019	-0,132
-498,868	123,209	-0,121	-0,111
-497,853	-75,513	-0,123	-0,032
-496,839	-33,786	0,044	0,018
-495,824	800,000	0,032	0,089
-494,810	84,205	0,121	0,096
-493,795	429,888	-0,063	0,100
-492,781	149,564	-0,036	-0,035
-491,766	-110,213	-0,049	0,007
-490,751	372,876	0,059	0,088
-489,737	-200,000	-0,005	0,057
-488,722	98,907	0,087	0,073
-487,708	23,218	-0,059	0,035
-486,693	-200,000	0,021	0,112
-485,678	650,748	0,082	0,155
-484,664	179,672	-0,038	-0,041
-483,649	103,765	0,023	0,020
-482,635	369,243	0,018	0,026
-481,620	233,814	-0,088	0,106
-480,605	6,209	-0,055	0,030
-479,591	-200,000	0,001	0,199
-478,576	379,264	0,046	0,069
-477,562	-200,000	0,036	-0,118
-476,547	14,879	-0,095	0,054
-475,532	435,353	-0,012	-0,019
-474,518	-200,000	-0,002	-0,167
-473,503	-35,217	0,135	-0,053
-472,489	800,000	-0,028	0,076
-471,474	800,000	0,017	-0,045
-470,459	-200,000	0,002	-0,025
-469,445	-200,000	-0,008	0,032
-468,430	-200,000	0,013	-0,087
-467,416	-58,402	0,187	0,059
-466,401	453,745	-0,023	0,038
-465,386	-30,886	-0,070	-0,029
-464,372	421,880	-0,007	-0,011
-463,357	74,920	-0,111	-0,085
-462,343	-44,544	-0,123	-0,045
-461,328	120,189	0,083	0,075
-460,313	-113,337	0,081	0,012
-459,299	28,770	0,174	0,107
-458,284	204,194	0,031	0,035
-457,270	800,000	0,028	0,068
-456,255	3,924	-0,098	0,052
-455,241	-200,000	-0,016	-0,051
-454,226	-135,517	-0,008	0,001
-453,211	67,384	-0,028	0,021
-452,197	800,000	-0,078	0,160
-451,182	316,656	0,020	-0,028
-450,168	-86,818	0,121	-0,027
-449,153	76,472	-0,084	-0,065
-448,138	-200,000	-0,015	-0,162
-447,124	267,092	-0,091	0,117
-446,109	113,498	-0,027	-0,024
-445,095	-7,512	0,082	0,040
-444,080	22,844	-0,075	0,045
-443,065	-200,000	-0,017	0,123
-442,051	26,705	0,050	-0,031
-441,036	-200,000	0,003	0,088
-440,022	-140,063	-0,138	-0,010
-439,007	-95,803	0,053	0,010
-437,992	-54,601	-0,049	-0,016
-436,978	285,835	-0,116	-0,153
-435,963	387,081	-0,023	-0,035
-434,949	9,312	0,044	0,024
-433,934	-53,498	-0,050	-0,017
-432,919	202,565	-0,103	0,116
-431,905	637,387	0,075	-0,139
-430,890	-17,965	0,122	-0,055
-429,876	-200,000	0,025	-0,085
-428,861	800,000	-0,051	-0,138
-427,846	29,532	-0,067	-0,041
-426,832	648,571	-0,085	-0,159
-425,817	-19,558	0,121	-0,054
-424,803	-200,000	-0,013	0,062
-423,788	-200,000	0,013	-0,048
-422,773	234,026	-0,079	-0,095
-421,759	682,270	-0,043	-0,082
-420,744	384,970	-0,063	0,094
-419,730	-194,008	-0,080	-0,000
-418,715	571,809	-0,057	-0,102
-417,701	670,307	0,012	-0,023
-416,686	800,000	0,021	0,044
-415,671	29,569	0,160	-0,099
-414,657	23,412	0,100	0,060
-413,642	-144,649	0,058	-0,004
-412,628	-40,622	-0,051	0,019
-411,613	800,000	0,022	-0,055
-410,598	29,160	0,110	-0,068
-409,584	736,991	0,027	-0,053
-408,569	-9,189	0,058	-0,028
-407,555	-200,000	-0,025	0,090
-406,540	-54,423	0,049	0,016
-405,525	-36,158	-0,073	-0,028
-404,511	57,908	-0,142	-0,101
-403,496	-200,000	0,015	-0,106
-402,482	69,389	0,031	-0,023
-401,467	200,611	0,126	0,141
-400,452	239,231	0,100	0,121
-399,438	-1,440	-0,111	0,057
-398,423	800,000	-0,015	0,046
-397,409	-200,000	-0,034	-0,203
-396,394	336,343	-0,061	-0,087
-395,379	-30,116	0,080	-0,033
-394,365	-200,000	-0,015	0,120
-393,350	36,647	0,046	0,030
-392,336	248,299	0,049	-0,061
-391,321	-103,058	-0,102	-0,017
-390,306	-200,000	-0,020	-0,065
-389,292	593,976	-0,041	-0,073
-388,277	261,449	-0,077	-0,097
-387,263	139,073	0,112	0,107
-386,248	20,212	-0,132	-0,077
-385,233	243,852	0,045	0,056
-384,219	26,019	-0,042	-0,025
-383,204	254,587	-0,027	-0,033
-382,190	597,256	0,025	0,045
-381,175	-200,000	-0,018	0,102
-380,160	-191,575	0,126	-0,001
-379,146	800,000	-0,049	-0,126
-378,131	-200,000	0,010	0,051
-377,117	652,881	0,018	-0,033
-376,102	537,542	0,056	-0,096
-375,088	146,942	0,028	-0,027
-374,073	-44,369	-0,098	-0,035
-373,058	260,959	0,043	-0,054
-372,044	-125,980	-0,094	-0,010
-371,029	401,286	0,057	0,087
-370,015	-200,000	-0,011	0,058
-369,000	234,914	-0,023	-0,028
-367,985	-87,629	-0,060	0,013
-366,971	800,000	0,046	-0,136
-365,956	201,777	-0,016	-0,018
-364,942	302,897	0,013	-0,018
-363,927	-200,000	0,002	0,016
-362,912	-121,326	-0,127	-0,015
-361,898	-200,000	0,012	-0,063
-360,883	-42,853	-0,125	-0,046
-359,869	47,935	0,078	-0,053
-358,854	800,000	0,039	0,098
-357,839	430,168	0,069	0,108
-356,825	23,486	0,050	-0,030
-355,810	-127,442	-0,067	-0,007
-354,796	213,578	-0,026	0,030
-353,781	-200,000	-0,022	-0,124
-352,766	150,721	0,057	-0,057
-351,752	-200,000	0,008	0,045
-350,737	800,000	0,017	0,037
-349,723	247,121	0,055	0,067
-348,708	-86,224	0,125	-0,028
-347,693	800,000	0,036	-0,085
-346,679	-107,621	-0,093	0,015
-345,664	-200,000	-0,006	-0,049
-344,650	-85,322	0,053	0,012
-343,635	232,291	-0,033	0,040
-342,620	-200,000	-0,021	0,117
-341,606	52,377	0,061	0,042
-340,591	-81,263	-0,135	0,032
-339,577	18,243	0,066	-0,038
-338,562	66,706	0,013	0,009
-337,548	514,165	-0,043	0,072
-336,533	-200,000	-0,016	0,084
-335,518	800,000	-0,038	-0,090
-334,504	40,155	0,102	-0,066
-333,489	-33,226	-0,084	0,034
-332,475	-200,000	-0,019	-0,115
-331,460	126,535	-0,038	-0,035
-330,445	11,525	0,045	0,025
-329,431	-200,000	-0,026	0,155
-328,416	505,640	0,056	0,094
-327,402	800,000	-0,021	0,066
-326,387	-52,310	0,102	0,034
-325,372	-122,102	-0,061	0,007
-324,358	800,000	-0,009	-0,020
-323,343	384,773	0,060	-0,090
-322,329	-36,032	0,054	0,021
-321,314	-200,000	-0,007	-0,092
-320,299	-200,000	-0,008	0,129
-319,285	-200,000	-0,001	-0,052
-318,270	-188,392	-0,081	0,001
-317,256	56,962	0,082	0,058
-316,241	-200,000	-0,020	0,124
-315,226	-110,827	-0,054	0,008
-314,212	-200,000	-0,031	0,110
-313,197	343,050	-0,035	0,049
-312,183	-200,000	-0,001	0,067
-311,168	-125,277	-0,184	-0,020
-310,153	541,107	0,056	-0,098
-309,139	745,507	-0,027	-0,054
-308,124	-200,000	-0,015	0,059
-307,110	-102,267	0,037	0,006
-306,095	310,612	-0,022	0,030
-305,080	265,128	0,033	-0,041
-304,066	-89,599	-0,123	0,026
-303,051	91,815	-0,054	-0,044
-302,037	-104,345	0,048	0,008
-301,022	800,000	-0,012	-0,029
-300,008	-200,000	-0,032	0,121
-298,993	800,000	0,048	0,114
-297,978	213,720	0,157	-0,180
-296,964	10,546	0,162	0,089
-295,949	-200,000	-0,029	-0,210
-294,935	-5,601	-0,221	-0,110
-293,920	-101,032	0,159	0,028
-292,905	-132,015	0,044	-0,004
-291,891	-200,000	-0,031	-0,194
-290,876	-52,248	0,081	-0,027
-289,862	278,763	-0,048	0,062
-288,847	385,269	-0,107	-0,160
-287,832	-117,427	-0,070	-0,009
-286,818	-200,000	0,010	0,077
-285,803	70,647	0,036	-0,027
-284,789	-140,785	-0,068	-0,005
-283,774	-159,062	0,165	-0,007
-282,759	93,576	-0,153	0,125
-281,745	-200,000	0,022	-0,080
-280,730	-200,000	-0,015	-0,170
-279,716	-48,440	0,040	-0,014
-278,701	221,920	0,134	-0,156
-277,686	268,309	-0,093	0,118
-276,672	444,521	-0,041	0,066
-275,657	-18,900	-0,028	0,012
-274,643	-200,000	-0,017	-0,087
-273,628	-200,000	-0,017	-0,172
-272,613	3,432	0,092	-0,048
-271,599	-59,632	0,152	0,047
-270,584	242,967	0,068	0,083
-269,570	800,000	-0,059	0,132
-268,555	800,000	0,043	0,085
-267,540	123,061	-0,022	-0,020
-266,526	582,440	-0,079	-0,141
-265,511	46,643	-0,151	0,101
-264,497	550,631	-0,037	-0,065
-263,482	332,343	0,093	0,131
-262,467	-150,413	-0,077	-0,004
-261,453	-16,187	-0,062	0,028
-260,438	382,672	0,026	0,038
-259,424	800,000	-0,035	-0,079
-258,409	273,911	-0,035	-0,045
-257,395	173,864	-0,019	0,020
-256,380	400,169	0,046	0,070
-255,365	177,079	0,018	-0,019
-254,351	-121,335	0,055	-0,007
-253,336	-200,000	0,007	0,028
-252,322	62,915	-0,093	0,067
-251,307	166,187	0,079	-0,081
-250,292	-85,523	0,043	-0,010
-249,278	440,272	0,030	0,048
-248,263	-200,000	0,022	0,221
-247,249	-200,000	-0,001	0,115
-246,234	-200,000	-0,017	0,106
-245,219	-181,645	-0,153	-0,002
-244,205	-122,410	-0,041	0,005
-243,190	-144,368	0,015	-0,001
-242,176	76,785	0,055	0,043
-241,161	800,000	0,058	0,173
-240,146	800,000	0,009	0,025
-239,132	90,264	-0,090	0,073
-238,117	-200,000	0,020	-0,152
-237,103	72,860	0,070	0,053
-236,088	60,961	0,055	-0,039
-235,073	58,822	0,041	-0,029
-234,059	-59,968	-0,026	0,008
-233,044	-97,389	0,147	0,027
-232,030	-15,773	-0,052	-0,024
-231,015	145,383	-0,028	-0,028
-230,000	-116,990	0,173	-0,023
-228,986	11,504	0,032	0,018
-227,971	-200,000	-0,001	0,033
-226,957	-108,948	0,177	0,027
-225,942	-200,000	0,006	0,050
-224,927	-200,000	-0,001	-0,034
-223,913	800,000	0,049	-0,134
-222,898	-200,000	0,009	-0,071
-221,884	-125,852	0,085	-0,009
-220,869	800,000	0,029	-0,090
-219,855	-200,000	0,005	0,034
-218,840	95,299	0,053	0,044
-217,825	800,000	-0,045	-0,096
-216,811	-200,000	-0,008	-0,133
-215,796	-84,208	-0,124	-0,028
-214,782	-132,165	-0,100	0,009
-213,767	9,140	0,133	0,072
-212,752	-108,927	-0,044	0,007
-211,738	-184,434	0,059	-0,001
-210,723	-200,000	0,044	0,161
-209,709	119,546	0,020	-0,018
-208,694	97,913	-0,080	0,066
-207,679	3,547	0,094	0,049
-206,665	-200,000	0,001	-0,004
-205,650	-42,235	0,095	-0,035
-204,636	-200,000	-0,007	-0,048
-203,621	23,525	0,078	0,046
-202,606	509,685	-0,008	-0,013
-201,592	157,859	-0,007	-0,007
-200,577	419,459	0,089	0,138
-199,563	-200,000	0,004	-0,114
-198,548	37,056	0,095	0,060
-197,533	-200,000	-0,001	0,084
-196,519	800,000	-0,033	0,090
-195,504	-200,000	0,003	0,029
-194,490	-87,387	-0,110	-0,024
-193,475	57,851	-0,042	0,030
-192,460	-200,000	-0,009	-0,038
-191,446	759,344	-0,077	0,151
-190,431	-200,000	-0,000	0,038
-189,417	800,000	0,038	0,089
-188,402	-108,683	-0,120	-0,018
-187,387	238,133	-0,058	0,069
-186,373	681,077	0,006	-0,011
-185,358	-152,265	0,099	0,005
-184,344	140,421	0,035	0,033
-183,329	135,935	-0,071	0,066
-182,315	-118,657	0,026	-0,003
-181,300	-200,000	0,027	0,143
-180,285	-158,864	-0,020	-0,001
-179,271	-200,000	0,017	-0,057
-178,256	120,983	-0,047	0,043
-177,242	800,000	0,027	0,071
-176,227	382,144	0,088	-0,130
-175,212	-81,040	0,149	-0,035
-174,198	-200,000	-0,007	0,131
-173,183	800,000	-0,018	-0,048
-172,169	161,269	0,044	0,044
-171,154	442,890	0,028	0,044
-170,139	421,102	0,017	-0,027
-169,125	800,000	0,077	0,237
-168,110	-200,000	-0,001	-0,109
-167,096	-200,000	0,016	-0,108
-166,081	322,403	0,084	-0,116
-165,066	-200,000	-0,025	-0,152
-164,052	37,295	-0,089	-0,057
-163,037	-200,000	-0,024	0,078
-162,023	-200,000	-0,001	-0,035
-161,008	173,534	-0,039	0,040
-159,993	1,041	-0,023	0,012
-158,979	-118,700	-0,039	-0,005
-157,964	40,704	0,056	-0,036
-156,950	-61,001	-0,088	-0,027
-155,935	-101,086	-0,082	-0,014
-154,920	-124,412	0,104	0,012
-153,906	-200,000	-0,003	-0,029
-152,891	142,446	0,026	-0,025
-151,877	39,082	-0,049	0,032
-150,862	90,345	-0,073	0,059
-149,847	93,799	-0,007	-0,006
-148,833	800,000	-0,030	0,072
-147,818	-59,106	-0,028	0,008
-146,804	-200,000	-0,004	-0,017
-145,789	-200,000	0,027	-0,098
-144,775	1,080	0,126	0,065
-143,760	32,701	-0,087	-0,054
-142,745	16,009	0,111	-0,063
-141,731	683,564	0,094	-0,178
-140,716	-76,693	0,066	-0,017
-139,702	800,000	-0,012	-0,032
-138,687	141,873	-0,009	-0,009
-137,672	15,576	0,082	-0,046
-136,658	-200,000	-0,046	-0,221
-135,643	-83,048	0,053	0,012
-134,629	126,283	-0,077	0,070
-133,614	650,311	0,055	0,101
-132,599	-200,000	0,026	0,114
-131,585	225,016	0,020	-0,023
-130,570	800,000	-0,051	0,154
-129,556	-61,782	-0,123	0,037
-128,541	-200,000	0,011	-0,157
-127,526	-143,644	-0,060	-0,004
-126,512	413,833	-0,045	0,069
-125,497	800,000	0,054	0,165
-124,483	-200,000	0,012	-0,087
-123,468	800,000	0,024	-0,055
-122,453	6,427	0,093	-0,050
-121,439	-90,844	-0,101	0,021
-120,424	-200,000	0,005	0,064
-119,410	-200,000	-0,026	0,127
-118,395	-76,015	-0,066	0,017
-117,380	-77,659	0,098	0,024
-116,366	-200,000	-0,057	0,185
-115,351	800,000	-0,029	0,091
-114,337	-34,012	-0,015	-0,006
-113,322	-200,000	0,008	0,028
-112,307	211,713	0,056	-0,063
-111,293	-200,000	-0,040	0,168
-110,278	32,661	-0,025	-0,015
-109,264	286,371	0,017	0,023
-108,249	-200,000	-0,003	-0,060
-107,234	-200,000	-0,019	0,100
-106,220	800,000	0,013	0,036
-105,205	-12,878	0,170	0,079
-104,191	-127,315	0,144	0,015
-103,176	800,000	0,016	-0,041
-102,162	459,192	-0,035	-0,057
-101,147	800,000	-0,024	0,065
-100,132	254,331	0,046	-0,057
-99,118	554,352	-0,120	-0,209
-98,103	-47,810	0,114	-0,039
-97,089	-57,443	0,180	0,056
-96,074	-117,850	0,087	-0,011
-95,059	-1,937	-0,201	0,101
-94,045	-200,000	-0,003	0,027
-93,030	122,287	-0,095	-0,085
-92,016	-51,340	0,159	-0,053
-91,001	102,546	-0,066	-0,055
-89,986	-64,684	-0,085	0,025
-88,972	-37,606	0,105	0,040
-87,957	-39,766	-0,036	-0,014
-86,943	800,000	0,012	0,038
-85,928	800,000	-0,034	-0,079
-84,913	-200,000	0,022	-0,116
-83,899	-200,000	0,038	0,138
-82,884	-200,000	0,031	0,105
-81,870	307,972	0,159	0,213
-80,855	22,497	-0,031	-0,018
-79,840	11,331	-0,047	0,026
-78,826	20,165	-0,071	0,041
-77,811	330,002	0,053	0,074
-76,797	-105,386	0,100	-0,016
-75,782	174,703	0,070	0,073
-74,767	-150,785	0,081	-0,004
-73,753	-200,000	-0,032	0,143
-72,738	-129,113	0,114	-0,011
-71,724	-81,610	-0,068	-0,016
-70,709	-152,962	0,120	-0,006
-69,694	-15,854	-0,115	-0,052
-68,680	-10,279	0,110	0,052
-67,665	20,463	0,132	0,076
-66,651	-100,785	-0,108	-0,019
-65,636	-200,000	0,011	0,042
-64,622	800,000	0,015	0,041
-63,607	-20,405	0,049	-0,021
-62,592	-83,541	-0,061	0,014
-61,578	120,961	0,070	-0,063
-60,563	69,218	-0,047	0,034
-59,549	800,000	-0,035	0,098
-58,534	23,119	-2,006	-1,179
-57,519	800,000	-0,416	-0,853
-56,505	-200,000	-1,318	-4,957
-55,490	106,807	0,783	0,666
-54,476	800,000	5,440	12,220
-53,461	-200,000	18,130	298,790
-52,446	800,000	733,642	2263,943
-51,432	543,243	1650,131	2835,896
-50,417	109,399	1638,177	1407,196
-49,403	74,450	1288,369	970,593
-48,388	31,071	1028,361	631,236
-47,373	20,077	990,358	571,613
-46,359	18,011	978,045	557,706
-45,344	14,879	974,270	545,270
-44,330	15,173	972,730	545,351
-43,315	14,595	970,838	542,380
-42,300	14,595	969,414	541,562
-41,286	14,669	968,484	541,262
-40,271	14,565	967,661	540,443
-39,257	14,602	966,859	540,093
-38,242	14,661	965,644	539,585
-37,227	14,609	965,105	539,093
-36,213	14,550	964,250	538,401
-35,198	14,517	963,387	537,793
-34,184	14,624	962,443	537,590
-33,169	14,561	961,546	536,863
-32,154	14,646	960,534	536,552
-31,140	14,573	959,740	535,851
-30,125	14,613	959,100	535,603
-29,111	14,526	958,286	534,848
-28,096	14,576	957,544	534,571
-27,082	14,579	956,803	534,145
-26,067	14,547	956,300	533,742
-25,052	14,622	955,288	533,396
-24,038	14,600	954,678	532,963
-23,023	14,561	954,129	532,513
-22,009	14,633	953,381	532,305
-20,994	14,561	952,844	531,752
-19,979	14,548	952,229	531,347
-18,965	14,599	951,407	531,029
-17,950	14,600	950,796	530,670
-16,936	14,507	950,339	530,096
-15,921	14,485	949,615	529,603
-14,906	14,430	948,914	529,016
-13,892	14,455	948,214	528,682
-12,877	14,433	947,731	528,321
-11,863	14,421	947,110	527,918
-10,848	14,520	946,272	527,745
-9,833	14,592	946,022	527,812
-8,819	14,529	945,367	527,227
-7,804	14,536	944,630	526,816
-6,790	14,461	944,069	526,245
-5,775	14,464	943,626	525,988
-4,760	14,489	942,871	525,625
-3,746	14,484	942,332	525,285
-2,731	14,413	941,413	524,529
-1,717	14,327	940,974	523,990
-0,702	14,298	940,348	523,530
0,313	14,152	939,604	523,446
1,327	17,508	937,201	532,639
2,342	26,603	793,342	474,956
3,356	23,105	458,530	269,142
4,371	-4,183	314,875	155,764
5,386	-8,214	296,854	142,749
6,400	-10,109	290,618	137,853
7,415	-10,511	288,024	136,215
8,429	-10,711	286,642	135,353
9,444	-10,809	285,647	134,776
10,459	-10,659	285,154	134,677
11,473	-10,973	284,551	134,074
12,488	-10,691	283,951	134,053
13,502	-10,622	283,512	133,901
14,517	-10,838	283,177	133,522
15,531	-10,553	282,536	133,483
16,546	-10,564	282,298	133,348
17,561	-10,756	281,882	132,954
18,575	-10,793	281,572	132,761
19,590	-10,587	281,020	132,687
20,604	-10,658	280,871	132,536
21,619	-10,746	280,550	132,289
22,634	-10,500	280,132	132,316
23,648	-10,682	279,834	131,989
24,663	-10,838	279,816	131,820
25,677	-10,702	279,365	131,725
26,692	-10,516	278,980	131,709
27,707	-10,567	278,674	131,505
28,721	-10,514	278,578	131,498
29,736	-10,883	278,262	130,986
30,750	-10,623	277,942	131,071
31,765	-10,806	277,824	130,830
32,780	-10,703	277,599	130,809
33,794	-10,756	277,254	130,586
34,809	-10,717	276,984	130,484
35,823	-10,663	276,788	130,431
36,838	-10,724	276,572	130,260
37,853	-10,649	276,249	130,167
38,867	-10,777	276,081	129,955
39,882	-10,760	275,677	129,769
40,896	-10,683	275,608	129,798
41,911	-10,672	275,296	129,650
42,926	-10,730	275,003	129,446
43,940	-10,870	274,737	129,177
44,955	-10,663	274,466	129,232
45,969	-10,723	274,401	129,134
46,984	-10,839	274,032	128,841
47,999	-11,160	273,817	128,429
49,013	-11,072	273,506	128,353
50,028	-11,296	273,271	128,023
51,042	-11,308	272,962	127,855
52,057	-11,578	272,768	127,502
53,071	-11,129	272,477	127,771
54,086	-11,197	272,440	127,679
55,101	-11,110	272,260	127,664
56,115	-10,853	272,090	127,812
57,130	-10,651	271,890	127,893
58,144	-10,679	271,756	127,793
59,159	-10,550	271,489	127,775
60,174	-10,558	271,129	127,588
61,188	-10,462	270,959	127,584
62,203	-10,569	270,796	127,398
63,217	-10,713	270,649	127,184
64,232	-10,564	270,137	127,070
65,247	-10,569	270,098	127,035
66,261	-10,591	269,751	126,841
67,276	-10,783	269,680	126,619
68,290	-10,846	269,332	126,387
69,305	-10,973	269,228	126,211
70,320	-10,913	268,925	126,112
71,334	-10,709	268,785	126,222
72,349	-10,551	268,481	126,212
73,363	-10,670	268,367	126,039
74,378	-10,546	268,039	125,986
75,393	-10,595	267,877	125,855
76,407	-10,694	267,613	125,630
77,422	-10,518	267,508	125,729
78,436	-10,495	267,170	125,579
79,451	-10,625	266,967	125,355
80,466	-10,523	266,645	125,285
81,480	-10,564	266,436	125,139
82,495	-10,821	266,338	124,849
83,509	-10,834	266,082	124,706
84,524	-10,798	266,010	124,693
85,539	-10,990	265,612	124,322
86,553	-10,803	265,389	124,376
87,568	-10,706	265,209	124,368
88,582	-10,670	265,042	124,311
89,597	-10,593	264,772	124,243
90,611	-10,585	264,762	124,234
91,626	-10,678	264,672	124,097
92,641	-10,606	264,396	124,021
93,655	-10,620	264,204	123,908
94,670	-10,845	263,854	123,531
95,684	-10,684	263,816	123,646
96,699	-10,699	263,577	123,509
97,714	-10,559	263,253	123,472
98,728	-11,027	263,252	123,042
99,743	-10,918	262,783	122,909
100,757	-11,086	262,612	122,668
101,772	-10,829	262,476	122,823
102,787	-10,795	262,212	122,719
103,801	-10,704	262,179	122,774
104,816	-10,652	261,828	122,644
105,830	-10,518	261,768	122,724
106,845	-10,599	261,497	122,514
107,860	-10,588	261,214	122,381
108,874	-10,607	261,110	122,304
109,889	-10,753	260,932	122,081
110,903	-10,581	260,546	122,041
111,918	-10,651	260,473	121,934
112,933	-10,742	260,309	121,766
113,947	-10,848	260,266	121,642
114,962	-10,565	259,852	121,687
115,976	-10,745	259,859	121,521
116,991	-10,686	259,633	121,456
118,006	-10,757	259,385	121,267
119,020	-10,662	259,381	121,338
120,035	-10,647	259,256	121,282
121,049	-10,662	258,885	121,084
122,064	-10,598	258,606	120,999
123,079	-10,571	258,424	120,927
124,093	-10,594	258,256	120,817
125,108	-10,680	258,111	120,663
126,122	-10,834	257,797	120,370
127,137	-11,095	257,665	120,071
128,151	-10,843	257,439	120,174
129,166	-10,895	257,264	120,037
130,181	-10,937	257,116	119,920
131,195	-10,952	256,762	119,732
132,210	-10,723	256,724	119,902
133,224	-10,481	256,581	120,035
134,239	-10,604	256,354	119,811
135,254	-10,532	255,979	119,688
136,268	-10,795	255,919	119,421
137,283	-11,029	255,569	119,045
138,297	-10,948	255,478	119,061
139,312	-10,953	255,157	118,897
140,327	-10,843	255,120	118,965
141,341	-10,505	254,983	119,182
142,356	-10,629	254,945	119,046
143,370	-10,496	254,805	119,084
144,385	-10,419	254,526	119,010
145,400	-10,336	254,174	118,906
146,414	-10,342	254,101	118,856
147,429	-10,549	254,018	118,629
148,443	-10,457	253,712	118,555
149,458	-10,557	253,761	118,481
150,473	-10,386	253,407	118,452
151,487	-10,454	253,156	118,266
152,502	-10,595	253,166	118,139
153,516	-10,345	252,784	118,164
154,531	-10,464	252,661	117,994
155,546	-10,484	252,632	117,953
156,560	-10,450	252,327	117,829
157,575	-10,668	252,193	117,570
158,589	-10,425	251,853	117,608
159,604	-10,667	251,959	117,442
160,619	-10,616	251,575	117,295
161,633	-10,350	251,380	117,420
162,648	-10,459	251,218	117,242
163,662	-10,418	251,094	117,208
164,677	-10,125	250,850	117,331
165,692	-10,404	250,834	117,077
166,706	-10,381	250,626	116,989
167,721	-10,223	250,236	116,930
168,735	-10,512	250,262	116,688
169,750	-10,285	250,200	116,840
170,764	-10,343	249,946	116,662
171,779	-10,225	249,815	116,690
172,794	-10,330	249,619	116,500
173,808	-10,343	249,455	116,402
174,823	-10,799	249,152	115,866
175,837	-10,990	248,830	115,546
176,852	-10,506	248,778	115,918
177,867	-10,401	248,756	115,986
178,881	-10,273	248,514	115,970
179,896	-10,380	248,472	115,849
180,910	-10,430	248,330	115,732
181,925	-10,475	248,036	115,546
182,940	-10,428	247,945	115,533
183,954	-10,577	247,680	115,275
184,969	-10,435	247,484	115,292
185,983	-10,342	247,242	115,246
186,998	-10,228	247,190	115,306
188,013	-10,171	246,943	115,229
189,027	-10,360	246,825	115,006
190,042	-10,502	246,685	114,812
191,056	-10,367	246,455	114,807
192,071	-10,341	246,294	114,744
193,086	-10,299	246,025	114,643
194,100	-10,392	245,891	114,494
195,115	-10,225	245,633	114,501
196,129	-10,332	245,529	114,354
197,144	-10,327	245,294	114,238
198,159	-10,416	245,307	114,161
199,173	-10,390	245,047	114,051
200,188	-10,447	244,981	113,964
201,202	-10,632	244,603	113,625
202,217	-10,882	244,457	113,341
203,232	-10,794	244,051	113,216
204,246	-10,446	244,076	113,503
205,261	-10,101	243,955	113,719
206,275	-11,322	243,689	112,584
207,290	-6,643	245,437	117,241
208,304	1,168	247,913	124,900
209,319	4,024	248,648	127,631
210,334	4,430	248,632	127,947
211,348	4,914	248,535	128,287
212,363	5,016	248,377	128,278
213,377	5,243	248,411	128,473
214,392	4,850	248,140	127,996
215,407	4,654	247,973	127,737
216,421	5,022	247,663	127,869
217,436	5,144	247,569	127,910
218,450	5,187	247,491	127,894
219,465	4,698	247,206	127,332
220,480	4,516	247,004	127,067
221,494	4,403	246,941	126,931
222,509	4,437	246,857	126,904
223,523	4,826	246,452	127,004
224,538	4,248	246,171	126,374
225,553	4,306	246,157	126,402
226,567	4,516	245,966	126,465
227,582	4,519	245,939	126,442
228,596	4,580	245,690	126,353
229,611	4,024	245,468	125,773
230,626	4,134	245,376	125,805
231,640	4,374	245,001	125,797
232,655	4,156	245,111	125,665
233,669	4,341	244,731	125,609
234,684	4,111	244,424	125,254
235,699	4,585	244,559	125,697
236,713	4,829	244,407	125,805
237,728	4,498	244,154	125,396
238,742	4,176	243,929	125,008
239,757	4,120	243,857	124,914
240,772	4,156	243,652	124,827
241,786	4,225	243,633	124,863
242,801	4,075	243,379	124,599
243,815	4,063	243,107	124,439
244,830	4,244	243,096	124,569
245,844	4,623	242,932	124,780
246,859	4,268	242,792	124,410
247,874	4,322	242,653	124,371
248,888	4,344	242,384	124,241
249,903	4,201	242,425	124,135
250,917	4,454	242,231	124,229
251,932	4,603	242,053	124,246
252,947	4,347	242,002	124,003
253,961	4,167	241,666	123,675
254,976	4,348	241,555	123,753
255,990	4,412	241,421	123,724
257,005	4,370	241,200	123,566
258,020	4,225	241,031	123,353
259,034	4,135	240,888	123,197
260,049	4,340	240,745	123,277
261,063	4,129	240,528	122,985
262,078	4,079	240,428	122,883
263,093	4,442	240,423	123,160
264,107	4,620	240,213	123,183
265,122	4,319	240,036	122,842
266,136	4,510	239,911	122,918
267,151	4,651	239,862	122,995
268,166	4,294	239,376	122,451
269,180	4,116	239,361	122,291
270,195	4,683	239,374	122,737
271,209	4,911	239,237	122,837
272,224	4,412	238,859	122,236
273,239	3,886	238,721	121,739
274,253	4,035	238,484	121,725
275,268	4,159	238,518	121,829
276,282	4,325	238,326	121,852
277,297	4,149	238,090	121,581
278,312	4,118	238,058	121,530
279,326	4,410	237,911	121,674
280,341	4,429	237,621	121,530
281,355	4,358	237,561	121,432
282,370	4,543	237,419	121,495
283,384	4,355	237,303	121,276
284,399	4,194	236,876	120,921
285,414	3,878	236,919	120,684
286,428	4,089	236,800	120,778
287,443	3,980	236,722	120,642
288,457	4,397	236,469	120,829
289,472	4,778	236,206	120,982
290,487	4,387	236,082	120,602
291,501	4,246	236,034	120,456
292,516	4,059	235,767	120,164
293,530	3,962	235,640	120,013
294,545	4,589	235,534	120,437
295,560	4,389	235,506	120,256
296,574	3,858	235,271	119,711
297,589	4,124	235,156	119,849
298,603	4,609	235,025	120,149
299,618	4,500	234,980	120,030
300,633	4,738	234,725	120,074
301,647	4,653	234,569	119,918
302,662	4,956	234,620	120,168
303,676	4,715	234,482	119,900
304,691	4,511	234,188	119,581
305,706	4,691	234,048	119,638
306,720	4,756	233,962	119,634
307,735	4,683	233,697	119,431
308,749	4,433	233,415	119,083
309,764	4,047	233,519	118,828
310,779	4,248	233,181	118,800
311,793	3,779	232,958	118,315
312,808	3,809	232,716	118,205
313,822	3,695	232,482	117,987
314,837	3,614	232,395	117,871
315,852	4,325	232,450	118,434
316,866	4,523	232,303	118,501
317,881	4,329	232,347	118,364
318,895	4,290	232,138	118,217
319,910	4,662	231,855	118,347
320,925	4,124	231,606	117,798
321,939	4,157	231,572	117,795
322,954	4,817	231,476	118,240
323,968	4,511	231,481	117,998
324,983	4,460	231,173	117,792
325,997	4,727	230,917	117,855
327,012	4,465	230,807	117,588
328,027	4,407	230,689	117,474
329,041	4,785	230,634	117,723
330,056	5,177	230,634	118,011
331,070	5,136	230,458	117,879
332,085	4,864	230,168	117,514
333,100	4,457	229,952	117,084
334,114	4,512	229,750	117,012
335,129	4,688	229,702	117,111
336,143	4,922	229,707	117,281
337,158	4,666	229,568	117,005
338,173	4,589	229,268	116,784
339,187	4,392	229,089	116,533
340,202	4,488	229,105	116,604
341,216	4,560	228,775	116,480
342,231	4,326	228,596	116,201
343,246	4,187	228,520	116,048
344,260	4,464	228,410	116,190
345,275	4,603	228,399	116,279
346,289	4,723	228,208	116,262
347,304	4,775	227,962	116,165
348,319	4,663	227,912	116,045
349,333	4,621	227,663	115,876
350,348	4,304	227,499	115,545
351,362	4,339	227,244	115,432
352,377	3,890	227,125	115,025
353,392	3,990	226,881	114,965
354,406	4,164	226,946	115,118
355,421	194,435	1322,043	1394,917
356,435	155,836	1455,441	1394,894
