DTS Sentinel unit serial number:	SN410029Multiplexer serial number:	ORYXHardware model number:	OX2-SRSoftware version number:	ORYX F/W v4,00 Oryx Data Collector v3.7.2.0data status	okinstallation	B5 Nyhavnadifferential loss correction	single-endedforward channel	channel 2reverse channel	N/Adate	2023/12/11time	23:37:13forward acquisition time	300,00reverse acquisition time	0,00gamma	499,1914k internal	0,3156k external	0,3156temperature offset calibration	1,0000default loss term (dB/km)	0,3820temperature slope calibration	1,0000multiplexer offset coefficient	1,0000multiplexer slope coefficient	1,0000fibre end	0,00T internal ref (°C)	16,24T ext. ref 1 (°C)	-0,10T ext. ref 2 (°C)	-0,39length (m)	temperature (°C)	Stokes	anti-Stokes-744,400	-200,000	-0,052	0,184
-743,385	-157,636	-0,365	0,016
-742,371	-110,971	0,186	0,028
-741,356	115,938	-0,122	0,110
-740,342	763,362	0,018	0,036
-739,327	-65,747	-0,318	0,093
-738,312	212,925	-0,066	0,077
-737,298	-113,575	-0,372	-0,053
-736,283	-200,000	0,038	-0,140
-735,269	-171,006	-0,371	0,009
-734,254	259,340	0,029	-0,036
-733,239	-37,795	-0,375	-0,147
-732,225	-187,581	0,250	0,002
-731,210	-200,000	0,021	-0,072
-730,196	364,173	-0,092	-0,137
-729,181	726,710	0,014	-0,027
-728,167	-140,854	-0,052	0,004
-727,152	-21,709	0,090	0,040
-726,137	170,425	0,027	-0,028
-725,123	119,652	-0,028	0,026
-724,108	-109,334	-0,133	0,021
-723,094	81,067	0,012	0,009
-722,079	-125,937	0,076	-0,008
-721,064	394,226	0,094	0,144
-720,050	-200,000	0,001	0,043
-719,035	23,114	-0,094	0,057
-718,021	-97,388	-0,163	0,031
-717,006	-200,000	0,002	-0,107
-715,991	800,000	0,049	-0,117
-714,977	637,084	0,019	-0,036
-713,962	126,756	-0,078	-0,073
-712,948	164,239	-0,076	-0,079
-711,933	-200,000	0,010	0,072
-710,918	47,527	0,092	0,063
-709,904	181,752	-0,094	-0,102
-708,889	800,000	-0,015	-0,042
-707,875	88,965	-0,131	-0,107
-706,860	-200,000	0,033	-0,154
-705,845	549,627	0,061	-0,109
-704,831	-41,002	0,080	0,030
-703,816	800,000	0,048	-0,147
-702,802	205,963	-0,077	-0,088
-701,787	-200,000	0,026	-0,097
-700,772	800,000	0,040	-0,093
-699,758	38,013	0,033	0,022
-698,743	-61,495	-0,082	0,025
-697,729	-79,980	0,074	0,018
-696,714	295,968	0,091	-0,123
-695,699	9,032	-0,104	-0,058
-694,685	800,000	-0,033	-0,068
-693,670	800,000	0,030	0,076
-692,656	75,334	0,055	0,042
-691,641	-200,000	-0,031	0,132
-690,627	-200,000	0,021	0,140
-689,612	-17,862	-0,028	0,013
-688,597	52,115	-0,071	0,050
-687,583	-200,000	0,024	0,081
-686,568	-56,088	-0,127	0,041
-685,554	569,938	0,018	0,033
-684,539	91,557	-0,049	0,041
-683,524	149,631	0,049	0,048
-682,510	-138,745	-0,146	0,012
-681,495	37,596	0,109	0,071
-680,481	513,312	-0,047	-0,080
-679,466	-61,621	-0,118	0,036
-678,451	546,264	0,049	0,086
-677,437	-200,000	-0,004	-0,041
-676,422	221,521	-0,035	-0,042
-675,408	519,693	-0,023	-0,040
-674,393	-9,072	-0,040	-0,019
-673,378	106,297	-0,074	-0,065
-672,364	-16,059	-0,087	0,040
-671,349	50,343	0,016	0,011
-670,335	-83,177	-0,147	-0,035
-669,320	-150,510	-0,107	-0,006
-668,305	-200,000	0,023	0,091
-667,291	-85,600	-0,054	-0,012
-666,276	800,000	-0,090	-0,199
-665,262	68,900	-0,115	-0,087
-664,247	-17,252	-0,103	0,048
-663,232	48,874	0,025	-0,017
-662,218	-30,751	0,081	0,034
-661,203	-200,000	0,015	-0,169
-660,189	-200,000	-0,007	0,089
-659,174	70,530	-0,089	-0,067
-658,159	-54,641	-0,066	0,022
-657,145	-200,000	-0,016	-0,076
-656,130	154,406	0,127	-0,128
-655,116	-38,618	0,074	0,029
-654,101	800,000	-0,048	0,146
-653,086	800,000	-0,033	0,082
-652,072	-200,000	-0,009	-0,133
-651,057	289,798	-0,045	-0,060
-650,043	-200,000	0,032	-0,131
-649,028	113,473	0,043	-0,039
-648,014	421,868	0,014	-0,023
-646,999	0,385	-0,075	0,039
-645,984	800,000	-0,055	0,157
-644,970	221,978	0,070	0,083
-643,955	800,000	0,022	-0,047
-642,941	800,000	-0,021	0,056
-641,926	-200,000	-0,027	-0,167
-640,911	-81,669	0,064	-0,015
-639,897	53,358	0,084	0,059
-638,882	800,000	-0,062	-0,155
-637,868	-193,604	0,082	-0,001
-636,853	169,965	-0,218	-0,229
-635,838	518,093	-0,065	0,112
-634,824	-64,674	-0,072	-0,021
-633,809	-69,560	-0,106	-0,030
-632,795	325,727	-0,081	-0,114
-631,780	-200,000	0,007	0,047
-630,765	-59,055	-0,209	-0,066
-629,751	-91,073	0,045	0,009
-628,736	800,000	-0,060	-0,167
-627,722	158,309	-0,096	-0,098
-626,707	6,397	0,082	0,044
-625,692	-61,112	-0,072	0,022
-624,678	-200,000	-0,015	0,123
-623,663	153,532	-0,072	0,072
-622,649	-49,490	-0,087	0,030
-621,634	556,060	0,010	-0,018
-620,619	-50,820	-0,165	-0,057
-619,605	-94,465	-0,012	-0,002
-618,590	-125,123	0,052	0,006
-617,576	-88,056	0,050	0,011
-616,561	-73,276	-0,030	-0,008
-615,546	-1,617	0,092	-0,047
-614,532	-200,000	0,003	-0,019
-613,517	-200,000	0,016	-0,064
-612,503	-129,955	0,120	0,012
-611,488	80,654	0,055	-0,043
-610,474	-187,853	0,104	-0,001
-609,459	-72,299	-0,148	0,040
-608,444	320,192	-0,045	-0,063
-607,430	54,432	-0,150	-0,106
-606,415	-200,000	0,006	-0,060
-605,401	-200,000	0,017	0,130
-604,386	270,040	0,045	-0,058
-603,371	100,583	0,040	0,034
-602,357	61,889	0,070	-0,051
-601,342	-140,286	0,009	-0,001
-600,328	235,858	-0,064	0,078
-599,313	800,000	-0,033	-0,094
-598,298	129,547	-0,036	0,034
-597,284	138,462	0,113	0,109
-596,269	-200,000	0,012	-0,143
-595,255	800,000	-0,058	0,168
-594,240	-95,698	-0,074	-0,014
-593,225	-74,533	0,023	0,006
-592,211	61,855	-0,058	0,043
-591,196	382,288	0,031	-0,046
-590,182	677,504	-0,027	0,051
-589,167	-200,000	0,003	-0,053
-588,152	111,527	0,101	-0,089
-587,138	-61,362	0,067	0,021
-586,123	118,213	-0,053	-0,048
-585,109	275,952	-0,049	-0,064
-584,094	741,640	-0,047	-0,094
-583,079	201,682	0,106	-0,120
-582,065	-200,000	-0,004	0,064
-581,050	-95,418	-0,099	0,019
-580,036	160,282	0,060	-0,062
-579,021	92,377	-0,059	-0,048
-578,006	297,515	-0,051	-0,069
-576,992	-200,000	-0,004	-0,089
-575,977	800,000	-0,023	-0,056
-574,963	11,300	-0,043	0,024
-573,948	11,894	0,017	0,009
-572,934	800,000	-0,052	0,107
-571,919	-16,095	-0,165	-0,077
-570,904	127,712	0,085	-0,079
-569,890	-60,489	-0,117	0,036
-568,875	487,766	-0,031	0,051
-567,861	-200,000	0,019	-0,077
-566,846	-105,037	0,022	0,004
-565,831	-134,520	-0,093	-0,008
-564,817	-62,552	-0,104	0,032
-563,802	-78,790	-0,109	-0,027
-562,788	-200,000	-0,020	-0,161
-561,773	19,049	-0,072	0,042
-560,758	-66,602	0,076	0,022
-559,744	270,555	-0,093	-0,121
-558,729	800,000	0,070	0,183
-557,715	-200,000	0,006	0,141
-556,700	-159,355	-0,093	-0,004
-555,685	-200,000	0,041	-0,217
-554,671	-63,921	-0,056	-0,017
-553,656	800,000	0,047	0,133
-552,642	182,736	0,133	0,144
-551,627	294,290	0,030	-0,041
-550,612	254,193	-0,010	0,012
-549,598	800,000	-0,041	-0,098
-548,583	-5,294	-0,082	-0,041
-547,569	8,525	0,116	0,064
-546,554	-200,000	-0,004	0,169
-545,539	32,737	-0,047	0,029
-544,525	-158,471	-0,164	0,007
-543,510	-21,663	-0,044	-0,019
-542,496	800,000	-0,026	-0,075
-541,481	-2,281	-0,079	0,040
-540,466	800,000	-0,014	-0,042
-539,452	-200,000	-0,005	0,069
-538,437	207,722	-0,044	0,051
-537,423	178,470	-0,043	-0,046
-536,408	1,811	-0,078	0,041
-535,393	-200,000	0,000	-0,078
-534,379	647,548	-0,043	-0,081
-533,364	-80,733	-0,030	0,007
-532,350	-165,769	0,128	-0,004
-531,335	-14,676	0,100	0,047
-530,321	31,263	0,077	-0,048
-529,306	800,000	0,041	0,084
-528,291	-36,863	-0,062	-0,024
-527,277	-82,809	-0,076	0,018
-526,262	800,000	0,035	-0,073
-525,248	-12,010	0,043	0,021
-524,233	471,379	0,064	-0,106
-523,218	-59,247	0,145	0,045
-522,204	800,000	0,020	-0,045
-521,189	800,000	0,025	-0,065
-520,175	-200,000	0,036	-0,128
-519,160	-200,000	-0,050	0,000
-518,145	148,734	0,063	0,063
-517,131	-200,000	-0,003	0,044
-516,116	39,952	0,021	0,014
-515,102	-200,000	-0,016	-0,171
-514,087	-79,909	-0,112	-0,027
-513,072	120,322	-0,070	0,064
-512,058	800,000	0,029	-0,059
-511,043	239,789	0,101	0,123
-510,029	800,000	-0,025	-0,056
-509,014	221,507	-0,062	0,073
-507,999	166,160	-0,040	-0,042
-506,985	72,120	0,026	-0,020
-505,970	318,862	-0,029	0,041
-504,956	-35,534	0,087	0,034
-503,941	23,032	-0,039	-0,023
-502,926	-200,000	0,007	-0,139
-501,912	-56,872	0,124	0,040
-500,897	-200,000	0,022	-0,076
-499,883	-83,340	-0,093	0,022
-498,868	-200,000	0,004	0,032
-497,853	-148,775	-0,038	-0,002
-496,839	-200,000	0,010	0,065
-495,824	800,000	0,030	0,095
-494,810	-43,888	0,116	-0,042
-493,795	712,774	-0,052	0,101
-492,781	295,938	0,042	-0,056
-491,766	515,085	0,065	-0,112
-490,751	497,191	-0,039	0,066
-489,737	800,000	0,041	-0,092
-488,722	243,917	0,089	0,109
-487,708	197,616	0,096	-0,107
-486,693	-200,000	0,007	0,048
-485,678	-200,000	0,001	-0,078
-484,664	108,228	0,076	-0,066
-483,649	-99,692	-0,078	0,014
-482,635	800,000	-0,070	-0,147
-481,620	21,972	0,081	-0,048
-480,605	-183,654	0,088	-0,001
-479,591	4,375	-0,136	0,072
-478,576	45,893	-0,070	-0,047
-477,562	114,047	-0,124	-0,110
-476,547	329,784	-0,089	0,125
-475,532	494,656	-0,035	0,058
-474,518	2,808	0,058	0,031
-473,503	800,000	0,054	0,113
-472,489	214,328	-0,049	0,056
-471,474	648,418	0,031	0,059
-470,459	159,091	0,028	0,029
-469,445	-200,000	-0,017	-0,060
-468,430	800,000	-0,021	0,046
-467,416	800,000	0,004	0,010
-466,401	800,000	-0,005	-0,011
-465,386	800,000	-0,026	0,058
-464,372	-200,000	0,009	0,038
-463,357	800,000	0,029	-0,084
-462,343	51,887	-0,060	-0,042
-461,328	214,361	-0,053	-0,062
-460,313	205,086	0,086	-0,098
-459,299	142,000	0,049	0,047
-458,284	-200,000	0,034	0,126
-457,270	605,938	0,045	-0,083
-456,255	-200,000	0,001	0,100
-455,241	-107,079	-0,122	-0,020
-454,226	396,498	0,030	-0,046
-453,211	95,192	0,074	-0,062
-452,197	339,631	-0,077	0,110
-451,182	-200,000	-0,008	0,047
-450,168	800,000	0,036	0,085
-449,153	-200,000	-0,028	0,131
-448,138	0,369	-0,053	-0,028
-447,124	74,485	-0,035	0,027
-446,109	-200,000	0,005	0,028
-445,095	36,279	0,037	-0,024
-444,080	197,496	-0,056	-0,062
-443,065	-200,000	-0,001	0,069
-442,051	-33,829	-0,093	0,037
-441,036	-200,000	0,003	0,018
-440,022	-39,908	-0,132	-0,050
-439,007	-200,000	-0,004	-0,075
-437,992	-20,894	0,092	-0,041
-436,978	182,474	0,123	0,132
-435,963	800,000	-0,057	0,173
-434,949	-200,000	0,028	-0,098
-433,934	-120,011	0,025	0,003
-432,919	164,314	0,013	0,014
-431,905	259,793	-0,064	-0,081
-430,890	43,614	-0,105	-0,070
-429,876	105,828	-0,098	-0,084
-428,861	-28,248	0,090	0,038
-427,846	332,266	-0,085	-0,119
-426,832	657,277	-0,062	0,116
-425,817	514,980	0,055	0,095
-424,803	-200,000	0,001	-0,145
-423,788	137,895	-0,113	0,108
-422,773	21,171	0,112	0,066
-421,759	-19,669	-0,058	-0,026
-420,744	-200,000	0,011	0,146
-419,730	171,173	-0,005	0,005
-418,715	-200,000	0,010	-0,070
-417,701	-137,625	0,075	-0,006
-416,686	796,703	0,044	-0,089
-415,671	206,844	0,102	0,116
-414,657	800,000	0,017	0,054
-413,642	800,000	0,040	0,124
-412,628	186,352	0,027	0,030
-411,613	800,000	-0,024	0,052
-410,598	48,059	-0,157	0,107
-409,584	345,231	0,064	-0,092
-408,569	800,000	0,105	0,244
-407,555	383,577	-0,083	0,125
-406,540	-22,377	0,071	0,031
-405,525	79,347	-0,062	-0,048
-404,511	99,498	-0,027	-0,023
-403,496	-200,000	-0,030	0,104
-402,482	468,798	-0,044	0,073
-401,467	396,916	0,071	-0,108
-400,452	-11,538	0,074	-0,035
-399,438	-200,000	-0,013	-0,075
-398,423	42,688	0,034	-0,022
-397,409	36,906	-0,058	-0,037
-396,394	112,962	-0,071	-0,063
-395,379	-200,000	0,005	0,043
-394,365	777,613	0,078	0,156
-393,350	-56,247	0,053	-0,017
-392,336	-200,000	0,013	-0,109
-391,321	160,104	0,058	0,058
-390,306	-145,631	-0,043	-0,003
-389,292	800,000	0,041	-0,130
-388,277	319,908	0,057	-0,078
-387,263	160,757	0,117	0,119
-386,248	800,000	-0,026	-0,067
-385,233	426,954	-0,141	-0,223
-384,219	384,924	-0,061	-0,091
-383,204	-67,404	0,068	-0,019
-382,190	26,196	-0,087	0,053
-381,175	170,252	-0,016	0,016
-380,160	244,164	0,035	0,042
-379,146	45,951	0,015	0,010
-378,131	-106,127	0,069	-0,011
-377,117	-93,637	0,143	-0,028
-376,102	182,041	0,073	-0,078
-375,088	800,000	-0,037	-0,077
-374,073	-94,563	-0,050	-0,010
-373,058	-147,106	0,168	-0,010
-372,044	800,000	0,021	0,043
-371,029	-0,200	0,072	-0,037
-370,015	-9,530	0,074	0,036
-369,000	-200,000	-0,043	-0,158
-367,985	13,329	0,100	-0,056
-366,971	800,000	-0,066	-0,166
-365,956	121,938	0,036	0,032
-364,942	209,036	-0,059	0,067
-363,927	415,047	0,036	-0,056
-362,912	800,000	-0,056	-0,134
-361,898	608,311	-0,038	-0,069
-360,883	-113,933	-0,045	0,006
-359,869	-68,200	-0,096	-0,027
-358,854	454,949	0,068	0,110
-357,839	800,000	0,018	0,050
-356,825	-200,000	0,022	0,094
-355,810	201,350	0,038	0,043
-354,796	-200,000	0,016	-0,122
-353,781	418,723	-0,038	-0,059
-352,766	800,000	-0,013	0,037
-351,752	-21,835	0,123	0,054
-350,737	194,609	0,049	-0,054
-349,723	-23,355	-0,069	-0,030
-348,708	-200,000	0,006	0,068
-347,693	541,440	0,052	-0,090
-346,679	509,456	0,080	-0,136
-345,664	-50,070	-0,101	-0,034
-344,650	139,011	-0,022	-0,021
-343,635	-23,563	0,103	-0,045
-342,620	-29,534	-0,190	0,079
-341,606	32,473	0,076	0,048
-340,591	211,930	-0,056	-0,064
-339,577	-26,080	0,118	0,050
-338,562	156,250	-0,044	0,045
-337,548	42,086	-0,051	0,034
-336,533	269,423	0,105	-0,135
-335,518	-200,000	-0,001	-0,113
-334,504	-31,086	-0,141	0,058
-333,489	800,000	0,074	-0,152
-332,475	-38,036	0,067	-0,026
-331,460	-200,000	0,000	-0,169
-330,445	-200,000	0,011	-0,101
-329,431	800,000	-0,029	-0,078
-328,416	-200,000	-0,026	-0,094
-327,402	151,621	-0,060	0,059
-326,387	-44,564	0,069	0,025
-325,372	800,000	0,035	-0,097
-324,358	-200,000	-0,005	-0,117
-323,343	91,873	-0,113	0,092
-322,329	546,048	-0,052	-0,090
-321,314	41,510	-0,159	0,104
-320,299	707,848	0,086	-0,166
-319,285	17,574	-0,019	0,011
-318,270	800,000	0,056	0,177
-317,256	800,000	0,048	-0,103
-316,241	-162,241	0,012	-0,000
-315,226	-200,000	-0,004	0,018
-314,212	800,000	0,023	0,059
-313,197	218,022	-0,097	0,113
-312,183	476,827	0,112	0,185
-311,168	-200,000	0,003	0,018
-310,153	9,512	-0,086	0,047
-309,139	800,000	-0,048	0,149
-308,124	-200,000	0,016	0,088
-307,110	-64,671	0,182	0,053
-306,095	-33,343	-0,168	0,067
-305,080	30,568	0,089	-0,055
-304,066	-11,066	0,107	-0,051
-303,051	-103,352	-0,048	0,008
-302,037	800,000	-0,026	-0,075
-301,022	231,992	0,037	0,045
-300,008	-33,058	0,054	-0,021
-298,993	-8,670	-0,059	0,028
-297,978	66,926	0,113	0,083
-296,964	24,504	-0,087	0,052
-295,949	-30,311	-0,081	-0,033
-294,935	486,917	-0,097	-0,161
-293,920	171,525	0,065	0,068
-292,905	800,000	0,023	0,064
-291,891	132,066	-0,085	0,079
-290,876	-24,923	0,078	0,034
-289,862	-109,266	-0,082	-0,013
-288,847	-200,000	-0,036	0,161
-287,832	800,000	0,023	-0,065
-286,818	684,931	-0,017	-0,032
-285,803	-32,968	0,041	-0,017
-284,789	-132,645	-0,053	-0,005
-283,774	244,001	0,094	0,115
-282,759	-200,000	0,002	0,097
-281,745	-192,406	-0,048	-0,000
-280,730	800,000	0,032	0,098
-279,716	176,481	-0,030	0,032
-278,701	9,470	0,040	0,022
-277,686	265,370	0,048	0,061
-276,672	-200,000	0,026	-0,090
-275,657	-35,625	0,087	-0,034
-274,643	-4,480	-0,069	0,034
-273,628	1,844	-0,026	-0,013
-272,613	-200,000	0,026	-0,247
-271,599	672,754	-0,032	-0,061
-270,584	197,793	0,096	-0,106
-269,570	38,676	-0,031	0,020
-268,555	800,000	0,035	-0,097
-267,540	132,137	0,100	-0,093
-266,526	800,000	0,070	0,141
-265,511	392,690	0,056	0,085
-264,497	-200,000	-0,019	0,090
-263,482	295,904	0,137	0,182
-262,467	-200,000	0,021	0,084
-261,453	87,807	0,098	0,079
-260,438	18,033	-0,158	-0,091
-259,424	-131,532	0,019	-0,002
-258,409	-172,350	0,132	-0,003
-257,395	216,429	0,066	0,077
-256,380	-200,000	0,046	0,169
-255,365	-106,026	-0,012	0,002
-254,351	-13,300	-0,185	-0,087
-253,336	-87,965	0,029	-0,006
-252,322	-161,419	-0,114	-0,004
-251,307	800,000	0,012	-0,031
-250,292	-200,000	-0,003	-0,117
-249,278	-89,631	0,153	0,032
-248,263	330,931	0,039	0,054
-247,249	-200,000	0,018	0,157
-246,234	-85,129	-0,060	0,014
-245,219	-200,000	-0,006	-0,079
-244,205	-200,000	0,019	-0,076
-243,190	-200,000	-0,010	0,056
-242,176	49,279	0,090	-0,061
-241,161	-200,000	-0,025	0,161
-240,146	656,590	0,102	-0,191
-239,132	-48,630	-0,040	-0,014
-238,117	278,420	0,037	-0,048
-237,103	27,951	0,095	0,058
-236,088	-36,244	-0,054	-0,021
-235,073	612,282	-0,061	-0,112
-234,059	800,000	-0,029	0,068
-233,044	-200,000	0,005	0,135
-232,030	-200,000	0,014	-0,048
-231,015	16,411	0,066	-0,038
-230,000	-146,829	-0,062	0,004
-228,986	291,333	0,080	0,105
-227,971	-200,000	-0,016	0,150
-226,957	104,665	-0,090	0,076
-225,942	174,580	-0,044	0,046
-224,927	-135,961	-0,037	-0,003
-223,913	-53,549	0,014	0,005
-222,898	-135,936	-0,053	0,004
-221,884	-27,922	0,057	0,024
-220,869	117,960	-0,018	0,016
-219,855	800,000	0,061	0,133
-218,840	680,791	0,047	0,088
-217,825	-27,899	0,053	0,022
-216,811	-69,033	-0,149	-0,041
-215,796	48,551	-0,106	-0,071
-214,782	153,860	0,087	-0,086
-213,767	800,000	-0,018	-0,040
-212,752	-156,226	0,017	0,001
-211,738	-77,983	0,051	-0,012
-210,723	-39,846	0,072	-0,027
-209,709	-95,721	-0,123	-0,024
-208,694	-200,000	-0,003	-0,071
-207,679	-103,146	0,049	-0,008
-206,665	-60,376	0,143	-0,044
-205,650	-200,000	0,007	0,092
-204,636	-11,850	0,083	0,039
-203,621	422,449	-0,037	-0,058
-202,606	-71,929	-0,120	-0,032
-201,592	271,130	-0,091	0,116
-200,577	329,290	-0,054	0,075
-199,563	39,615	0,058	-0,038
-198,548	-200,000	0,012	-0,065
-197,533	556,315	0,038	0,066
-196,519	5,197	-0,090	0,048
-195,504	-140,487	0,092	0,007
-194,490	800,000	0,010	0,027
-193,475	52,572	-0,013	0,009
-192,460	800,000	-0,043	0,108
-191,446	3,740	0,189	0,099
-190,431	-58,402	0,095	0,030
-189,417	-115,875	-0,115	-0,015
-188,402	-200,000	-0,027	-0,088
-187,387	-102,067	-0,057	-0,010
-186,373	-113,199	-0,044	-0,006
-185,358	-160,069	-0,024	-0,001
-184,344	-200,000	0,018	0,060
-183,329	-92,648	0,089	-0,018
-182,315	-18,521	0,118	-0,053
-181,300	-101,590	0,096	-0,017
-180,285	-200,000	0,008	-0,081
-179,271	800,000	-0,046	-0,094
-178,256	211,801	-0,061	-0,069
-177,242	271,808	-0,048	-0,061
-176,227	303,739	0,080	0,107
-175,212	176,497	-0,045	-0,047
-174,198	171,238	0,090	0,093
-173,183	71,898	-0,163	-0,122
-172,169	-80,625	-0,057	0,014
-171,154	-152,978	0,017	-0,001
-170,139	233,357	0,034	0,041
-169,125	-200,000	0,017	0,106
-168,110	203,414	-0,103	0,115
-167,096	341,658	-0,054	-0,077
-166,081	-62,595	-0,074	-0,022
-165,066	96,649	0,096	0,080
-164,052	-100,879	0,052	-0,009
-163,037	800,000	0,020	0,060
-162,023	-106,130	-0,101	0,016
-161,008	-111,006	0,091	0,013
-159,993	-44,923	0,122	0,044
-158,979	-200,000	-0,005	-0,045
-157,964	78,733	0,074	-0,057
-156,950	140,810	-0,117	0,112
-155,935	292,299	0,024	0,031
-154,920	-200,000	0,034	0,142
-153,906	278,417	0,105	0,135
-152,891	-70,901	0,146	0,039
-151,877	-87,230	-0,072	0,016
-150,862	-51,872	0,055	0,019
-149,847	-116,397	0,133	0,018
-148,833	-99,977	-0,058	0,010
-147,818	-200,000	0,019	0,123
-146,804	800,000	-0,049	0,120
-145,789	107,212	0,120	0,103
-144,775	537,845	-0,095	0,163
-143,760	85,780	0,056	0,044
-142,745	-200,000	-0,020	0,076
-141,731	-200,000	0,022	-0,108
-140,716	-114,521	0,145	-0,020
-139,702	168,175	0,045	0,046
-138,687	-43,608	-0,216	-0,078
-137,672	-114,166	-0,155	0,021
-136,658	101,997	-0,148	-0,125
-135,643	800,000	0,049	-0,146
-134,629	-200,000	0,007	-0,061
-133,614	674,723	0,044	0,083
-132,599	100,566	0,089	0,074
-131,585	643,651	-0,024	0,044
-130,570	-78,587	-0,149	-0,036
-129,556	97,351	0,072	0,059
-128,541	-37,215	-0,060	-0,023
-127,526	800,000	-0,018	0,037
-126,512	739,984	-0,058	-0,112
-125,497	800,000	-0,017	-0,052
-124,483	800,000	-0,002	-0,005
-123,468	-131,960	-0,032	0,003
-122,453	520,989	0,052	-0,088
-121,439	296,206	0,013	0,018
-120,424	-9,702	-0,056	-0,027
-119,410	31,628	-0,079	-0,049
-118,395	-31,012	0,053	0,022
-117,380	89,571	-0,038	-0,031
-116,366	-12,000	-0,134	0,063
-115,351	19,520	0,033	-0,019
-114,337	401,206	0,026	-0,040
-113,322	61,463	-0,039	-0,028
-112,307	10,209	-0,031	-0,017
-111,293	448,034	-0,006	0,010
-110,278	-78,835	0,142	0,035
-109,264	50,595	0,038	0,026
-108,249	-74,140	-0,154	0,040
-107,234	86,671	-0,087	-0,069
-106,220	223,996	-0,077	-0,089
-105,205	518,416	-0,049	-0,082
-104,191	-176,995	0,230	-0,004
-103,176	-35,734	0,173	0,067
-102,162	1,357	-0,051	0,026
-101,147	50,606	-0,119	0,081
-100,132	12,833	-0,087	-0,048
-99,118	800,000	-0,024	-0,049
-98,103	-200,000	-0,021	0,072
-97,089	800,000	0,032	0,071
-96,074	35,059	-0,059	-0,037
-95,059	-200,000	0,024	0,148
-94,045	-200,000	0,024	0,076
-93,030	128,909	0,056	-0,052
-92,016	-12,184	-0,079	0,037
-91,001	111,893	0,061	-0,053
-89,986	526,493	-0,038	-0,065
-88,972	800,000	-0,026	0,058
-87,957	-200,000	-0,015	-0,092
-86,943	6,627	-0,075	0,040
-85,928	-61,121	-0,067	-0,020
-84,913	33,058	0,062	-0,039
-83,899	235,241	-0,032	0,038
-82,884	734,570	0,066	0,127
-81,870	-131,107	0,036	0,003
-80,855	-12,180	-0,033	-0,015
-79,840	135,877	-0,099	0,092
-78,826	800,000	-0,046	0,111
-77,811	400,494	-0,080	-0,122
-76,797	481,129	0,055	-0,091
-75,782	800,000	-0,008	-0,019
-74,767	-35,170	0,113	0,044
-73,753	-118,801	-0,168	-0,021
-72,738	312,335	-0,047	0,063
-71,724	-8,675	0,101	-0,049
-70,709	800,000	-0,005	0,012
-69,694	241,746	-0,093	-0,112
-68,680	22,341	-0,080	0,047
-67,665	-200,000	-0,000	-0,037
-66,651	-57,392	0,033	-0,010
-65,636	-200,000	0,012	0,062
-64,622	84,015	0,081	0,064
-63,607	-200,000	0,005	-0,135
-62,592	-200,000	-0,015	-0,062
-61,578	-124,118	0,109	-0,012
-60,563	-200,000	-0,002	-0,046
-59,549	800,000	-0,037	0,082
-58,534	-10,054	-1,839	-0,875
-57,519	-200,000	-0,268	-0,989
-56,505	-200,000	-1,186	-4,887
-55,490	-14,825	0,706	0,324
-54,476	800,000	5,233	12,074
-53,461	-200,000	17,123	281,722
-52,446	800,000	720,517	2226,330
-51,432	546,271	1635,540	2819,726
-50,417	113,170	1630,375	1419,729
-49,403	76,686	1287,762	979,968
-48,388	33,331	1030,466	640,809
-47,373	20,423	992,327	574,419
-46,359	19,019	980,548	562,961
-45,344	16,566	976,668	552,659
-44,330	16,745	975,155	552,366
-43,315	16,313	973,353	549,909
-42,300	16,328	972,203	549,288
-41,286	16,282	971,257	548,579
-40,271	16,260	970,246	547,916
-39,257	16,284	969,256	547,414
-38,242	16,320	968,427	547,038
-37,227	16,296	967,809	546,591
-36,213	16,235	966,802	545,804
-35,198	16,220	966,100	545,337
-34,184	16,312	965,244	545,129
-33,169	16,293	963,916	544,297
-32,154	16,342	963,124	543,987
-31,140	16,300	962,323	543,376
-30,125	16,342	961,623	543,095
-29,111	16,282	960,870	542,454
-28,096	16,304	960,034	542,032
-27,082	16,324	959,366	541,699
-26,067	16,232	958,828	541,075
-25,052	16,259	958,036	540,694
-24,038	16,269	957,212	540,239
-23,023	16,230	956,604	539,749
-22,009	16,326	955,772	539,568
-20,994	16,300	955,343	539,219
-19,979	16,289	954,858	538,891
-18,965	16,298	954,085	538,463
-17,950	16,289	953,465	538,060
-16,936	16,237	952,832	537,515
-15,921	16,191	952,280	537,035
-14,906	16,205	951,434	536,581
-13,892	16,195	950,714	536,123
-12,877	16,153	950,068	535,604
-11,863	16,128	949,470	535,165
-10,848	16,103	948,903	534,745
-9,833	16,207	948,423	534,783
-8,819	16,218	947,751	534,421
-7,804	16,156	947,182	533,880
-6,790	16,149	946,634	533,526
-5,775	16,160	945,989	533,178
-4,760	16,206	945,196	532,857
-3,746	16,141	944,899	532,462
-2,731	16,049	944,020	531,654
-1,717	15,902	943,629	530,946
-0,702	16,002	942,716	530,727
0,313	15,778	942,201	530,529
1,327	19,143	939,893	539,812
2,342	28,303	797,568	482,426
3,356	25,186	461,054	274,071
4,371	-2,371	314,805	157,819
5,386	-6,460	296,218	144,349
6,400	-8,676	290,341	139,272
7,415	-8,967	287,788	137,747
8,429	-9,177	286,368	136,850
9,444	-9,274	285,510	136,333
10,459	-9,134	284,826	136,130
11,473	-9,332	284,350	135,698
12,488	-9,163	283,826	135,601
13,502	-9,362	283,268	135,129
14,517	-9,164	282,702	135,038
15,531	-9,202	282,313	134,803
16,546	-9,184	281,964	134,643
17,561	-9,168	281,551	134,448
18,575	-9,113	281,254	134,348
19,590	-9,094	280,913	134,191
20,604	-8,953	280,495	134,115
21,619	-9,178	280,109	133,702
22,634	-9,278	279,812	133,454
23,648	-9,233	279,484	133,328
24,663	-9,240	279,332	133,237
25,677	-9,277	279,014	133,038
26,692	-8,989	278,752	133,175
27,707	-9,135	278,499	132,904
28,721	-9,080	278,290	132,845
29,736	-9,390	277,959	132,380
30,750	-9,358	277,723	132,287
31,765	-9,423	277,587	132,148
32,780	-9,092	277,264	132,296
33,794	-9,213	276,941	132,016
34,809	-9,331	276,816	131,833
35,823	-9,143	276,496	131,847
36,838	-9,206	276,182	131,625
37,853	-9,168	275,933	131,531
38,867	-9,378	275,857	131,286
39,882	-9,286	275,413	131,149
40,896	-9,380	275,338	131,013
41,911	-9,290	275,044	130,946
42,926	-9,324	274,634	130,707
43,940	-9,242	274,548	130,732
44,955	-9,309	274,191	130,488
45,969	-9,445	274,103	130,306
46,984	-9,478	273,798	130,119
47,999	-9,500	273,439	129,916
49,013	-9,730	273,245	129,597
50,028	-9,910	273,024	129,314
51,042	-10,019	272,791	129,091
52,057	-9,989	272,454	128,947
53,071	-10,046	272,270	128,796
54,086	-9,941	272,091	128,797
55,101	-9,601	271,837	128,981
56,115	-9,418	271,805	129,123
57,130	-9,361	271,658	129,095
58,144	-9,085	271,360	129,198
59,159	-8,914	271,000	129,172
60,174	-9,073	270,870	128,953
61,188	-9,176	270,772	128,798
62,203	-9,192	270,612	128,696
63,217	-9,023	270,255	128,670
64,232	-9,072	270,024	128,504
65,247	-8,988	269,964	128,541
66,261	-9,064	269,626	128,299
67,276	-9,335	269,390	127,927
68,290	-9,408	269,077	127,700
69,305	-9,478	268,812	127,499
70,320	-9,480	268,820	127,489
71,334	-9,356	268,550	127,463
72,349	-9,088	268,369	127,611
73,363	-9,089	268,112	127,476
74,378	-9,282	267,977	127,225
75,393	-9,202	267,818	127,211
76,407	-9,087	267,547	127,176
77,422	-9,227	267,272	126,906
78,436	-9,136	267,110	126,901
79,451	-9,088	266,855	126,812
80,466	-9,177	266,554	126,577
81,480	-9,331	266,373	126,340
82,495	-9,329	266,185	126,242
83,509	-9,365	266,103	126,158
84,524	-9,195	265,696	126,108
85,539	-9,375	265,501	125,842
86,553	-9,410	265,309	125,708
87,568	-9,252	265,043	125,713
88,582	-9,332	264,845	125,536
89,597	-9,460	264,827	125,401
90,611	-9,282	264,557	125,422
91,626	-9,259	264,472	125,391
92,641	-9,401	264,387	125,212
93,655	-9,134	263,974	125,244
94,670	-9,229	263,718	125,027
95,684	-9,231	263,536	124,928
96,699	-9,262	263,342	124,797
97,714	-9,300	263,272	124,719
98,728	-9,192	262,917	124,635
99,743	-9,442	262,717	124,307
100,757	-9,572	262,480	124,067
101,772	-9,491	262,381	124,082
102,787	-9,324	262,097	124,086
103,801	-9,216	261,850	124,053
104,816	-9,212	261,863	124,051
105,830	-9,213	261,619	123,924
106,845	-9,152	261,567	123,943
107,860	-9,184	261,322	123,788
108,874	-9,068	260,956	123,706
109,889	-9,163	260,854	123,562
110,903	-9,134	260,534	123,426
111,918	-9,230	260,323	123,230
112,933	-9,209	260,154	123,157
113,947	-9,036	260,024	123,237
114,962	-9,212	259,858	122,993
115,976	-9,341	259,827	122,853
116,991	-9,234	259,536	122,799
118,006	-9,172	259,415	122,785
119,020	-9,196	259,182	122,642
120,035	-9,073	259,007	122,657
121,049	-9,093	258,855	122,556
122,064	-9,099	258,627	122,432
123,079	-9,222	258,591	122,297
124,093	-9,162	258,296	122,198
125,108	-9,450	258,036	121,813
126,122	-9,534	257,745	121,592
127,137	-9,542	257,530	121,472
128,151	-9,618	257,485	121,373
129,166	-9,274	257,071	121,467
130,181	-9,415	256,854	121,231
131,195	-9,564	256,766	121,049
132,210	-9,364	256,674	121,170
133,224	-9,147	256,329	121,183
134,239	-9,154	256,322	121,163
135,254	-9,232	256,151	121,004
136,268	-9,182	255,883	120,910
137,283	-9,582	255,547	120,395
138,297	-9,478	255,270	120,344
139,312	-9,644	255,111	120,115
140,327	-9,386	255,129	120,335
141,341	-8,960	254,874	120,571
142,356	-9,140	254,805	120,373
143,370	-9,096	254,546	120,277
144,385	-8,850	254,440	120,428
145,400	-9,012	254,245	120,186
146,414	-8,979	254,113	120,141
147,429	-8,944	253,908	120,064
148,443	-8,863	253,698	120,023
149,458	-8,887	253,567	119,930
150,473	-8,829	253,313	119,849
151,487	-9,092	253,178	119,549
152,502	-9,056	252,996	119,483
153,516	-8,933	252,829	119,499
154,531	-9,091	252,657	119,272
155,546	-9,056	252,451	119,194
156,560	-8,989	252,284	119,161
157,575	-9,084	251,938	118,907
158,589	-9,059	251,802	118,854
159,604	-9,052	251,743	118,820
160,619	-9,020	251,441	118,695
161,633	-9,051	251,349	118,614
162,648	-8,927	251,083	118,583
163,662	-8,926	251,061	118,563
164,677	-8,899	250,723	118,415
165,692	-9,133	250,677	118,185
166,706	-9,093	250,538	118,143
167,721	-9,044	250,352	118,087
168,735	-9,119	250,140	117,913
169,750	-9,071	250,071	117,910
170,764	-8,780	249,826	118,030
171,779	-8,876	249,769	117,911
172,794	-8,896	249,531	117,771
173,808	-8,847	249,305	117,696
174,823	-9,394	249,040	117,100
175,837	-9,533	248,795	116,857
176,852	-9,219	248,844	117,134
177,867	-9,040	248,751	117,230
178,881	-9,047	248,617	117,151
179,896	-8,971	248,424	117,113
180,910	-8,965	248,190	116,997
181,925	-8,919	247,845	116,863
182,940	-8,991	247,738	116,742
183,954	-9,034	247,638	116,648
184,969	-8,841	247,504	116,735
185,983	-8,963	247,326	116,540
186,998	-8,947	247,168	116,467
188,013	-8,843	246,946	116,439
189,027	-8,935	246,827	116,296
190,042	-9,005	246,578	116,111
191,056	-8,837	246,556	116,230
192,071	-9,074	246,422	115,959
193,086	-8,915	246,020	115,891
194,100	-8,936	245,908	115,811
195,115	-8,843	245,730	115,793
196,129	-8,913	245,592	115,661
197,144	-8,858	245,344	115,579
198,159	-8,867	245,155	115,472
199,173	-8,990	245,041	115,306
200,188	-8,923	244,869	115,270
201,202	-9,093	244,548	114,970
202,217	-9,494	244,288	114,507
203,232	-9,604	244,215	114,373
204,246	-9,059	244,008	114,713
205,261	-8,707	244,016	114,996
206,275	-9,446	243,519	114,145
207,290	-6,031	244,925	117,606
208,304	-0,213	246,819	123,321
209,319	2,261	247,401	125,649
210,334	2,710	247,361	125,988
211,348	2,800	247,376	126,059
212,363	3,134	247,347	126,308
213,377	3,524	247,042	126,463
214,392	3,409	247,003	126,337
215,407	3,225	246,790	126,065
216,421	3,151	246,736	125,966
217,436	3,276	246,538	125,956
218,450	3,574	246,358	126,098
219,465	3,118	246,042	125,551
220,480	3,099	245,912	125,457
221,494	3,124	245,890	125,455
222,509	3,094	245,670	125,307
223,523	3,253	245,525	125,352
224,538	2,745	245,139	124,729
225,553	2,739	244,910	124,596
226,567	2,914	244,887	124,716
227,582	2,822	244,667	124,518
228,596	3,092	244,628	124,707
229,611	2,777	244,277	124,260
230,626	2,959	244,096	124,306
231,640	2,689	244,078	124,065
232,655	2,819	244,042	124,142
233,669	2,689	243,865	123,935
234,684	2,737	243,514	123,785
235,699	3,132	243,649	124,163
236,713	3,163	243,588	124,146
237,728	2,906	243,295	123,778
238,742	2,844	243,064	123,599
239,757	2,909	242,661	123,435
240,772	2,952	242,642	123,450
241,786	2,921	242,368	123,274
242,801	2,660	242,480	123,109
243,815	2,633	242,116	122,891
244,830	2,945	241,935	123,040
245,844	3,177	241,890	123,193
246,859	2,902	241,697	122,863
247,874	2,899	241,576	122,788
248,888	2,841	241,440	122,662
249,903	2,907	241,278	122,621
250,917	3,131	241,152	122,725
251,932	3,260	241,098	122,791
252,947	3,141	240,769	122,516
253,961	2,876	240,550	122,182
254,976	2,950	240,518	122,215
255,990	3,167	240,380	122,307
257,005	2,817	240,156	121,903
258,020	2,712	239,932	121,694
259,034	2,873	239,730	121,709
260,049	2,934	239,655	121,709
261,063	2,672	239,522	121,422
262,078	2,873	239,348	121,483
263,093	3,214	239,117	121,626
264,107	3,075	239,030	121,461
265,122	2,994	238,994	121,367
266,136	3,002	238,782	121,255
267,151	3,312	238,699	121,448
268,166	3,212	238,414	121,213
269,180	2,733	238,194	120,711
270,195	3,454	238,166	121,257
271,209	3,711	238,086	121,408
272,224	2,819	237,947	120,621
273,239	2,602	237,449	120,187
274,253	2,713	237,487	120,283
275,268	2,986	237,351	120,418
276,282	3,235	237,197	120,526
277,297	2,817	236,982	120,077
278,312	2,856	236,784	119,996
279,326	2,959	236,919	120,135
280,341	3,142	236,702	120,158
281,355	2,941	236,545	119,910
282,370	3,221	236,313	120,002
283,384	3,086	236,107	119,780
284,399	2,856	236,059	119,565
285,414	2,701	235,817	119,311
286,428	2,784	235,784	119,348
287,443	2,926	235,612	119,361
288,457	3,066	235,497	119,402
289,472	3,275	235,356	119,483
290,487	2,894	235,158	119,075
291,501	2,823	235,010	118,933
292,516	2,565	234,807	118,619
293,530	2,661	234,559	118,559
294,545	2,833	234,639	118,721
295,560	3,070	234,256	118,701
296,574	2,791	234,257	118,475
297,589	2,898	233,945	118,389
298,603	3,086	234,048	118,577
299,618	3,452	233,850	118,750
300,633	2,982	233,794	118,346
301,647	2,983	233,777	118,328
302,662	3,570	233,617	118,691
303,676	3,528	233,348	118,511
304,691	3,361	233,207	118,300
305,706	3,360	233,092	118,230
306,720	3,051	233,020	117,945
307,735	3,337	232,772	118,029
308,749	3,135	232,541	117,746
309,764	2,695	232,341	117,296
310,779	2,666	232,087	117,135
311,793	2,635	231,854	116,983
312,808	2,726	231,835	117,032
313,822	2,840	231,526	116,953
314,837	2,644	231,529	116,795
315,852	2,503	231,405	116,613
316,866	2,834	231,395	116,851
317,881	3,284	231,140	117,057
318,895	3,432	231,202	117,191
319,910	3,248	230,983	116,929
320,925	3,119	230,684	116,669
321,939	2,958	230,523	116,454
322,954	3,176	230,523	116,609
323,968	3,041	230,323	116,395
324,983	2,834	230,110	116,119
325,997	2,942	229,899	116,085
327,012	2,819	229,847	115,955
328,027	3,048	229,712	116,051
329,041	3,492	229,668	116,355
330,056	3,929	229,528	116,605
331,070	3,583	229,572	116,354
332,085	3,094	229,207	115,788
333,100	2,936	228,907	115,507
334,114	3,119	228,707	115,535
335,129	3,635	228,661	115,890
336,143	3,314	228,579	115,596
337,158	3,694	228,603	115,885
338,173	3,460	228,485	115,639
339,187	3,305	228,209	115,372
340,202	3,592	228,024	115,484
341,216	3,254	227,827	115,120
342,231	3,126	227,691	114,945
343,246	2,990	227,612	114,792
344,260	3,410	227,497	115,039
345,275	3,562	227,429	115,109
346,289	3,416	227,283	114,915
347,304	3,501	227,067	114,860
348,319	3,158	226,941	114,529
349,333	3,221	226,654	114,421
350,348	3,053	226,604	114,259
351,362	3,434	226,437	114,450
352,377	3,229	226,285	114,210
353,392	2,941	226,197	113,940
354,406	2,990	226,080	113,907
355,421	196,154	1320,795	1400,326
356,435	157,264	1454,176	1400,337
