DTS Sentinel unit serial number:	SN410029Multiplexer serial number:	ORYXHardware model number:	OX2-SRSoftware version number:	ORYX F/W v4,00 Oryx Data Collector v3.7.2.0data status	okinstallation	B5 Nyhavnadifferential loss correction	single-endedforward channel	channel 2reverse channel	N/Adate	2023/12/14time	12:02:13forward acquisition time	300,00reverse acquisition time	0,00gamma	499,1914k internal	0,3158k external	0,3158temperature offset calibration	1,0000default loss term (dB/km)	0,3820temperature slope calibration	1,0000multiplexer offset coefficient	1,0000multiplexer slope coefficient	1,0000fibre end	0,00T internal ref (°C)	7,63T ext. ref 1 (°C)	-7,86T ext. ref 2 (°C)	-7,88length (m)	temperature (°C)	Stokes	anti-Stokes-744,400	-71,009	0,230	0,063
-743,385	-39,781	-0,258	-0,099
-742,371	800,000	0,081	0,199
-741,356	-89,931	-0,433	-0,092
-740,342	268,693	0,108	0,140
-739,327	-111,657	-0,478	-0,071
-738,312	800,000	0,031	0,067
-737,298	8,009	-0,354	-0,195
-736,283	176,734	0,179	0,192
-735,269	-82,463	-0,418	-0,099
-734,254	-122,904	0,369	0,043
-733,239	-79,565	-0,640	-0,158
-732,225	105,879	0,215	0,187
-731,210	-126,357	-0,055	-0,006
-730,196	209,356	-0,088	0,102
-729,181	124,496	-0,018	0,017
-728,167	-200,000	0,019	-0,072
-727,152	127,938	0,060	0,056
-726,137	135,762	-0,055	0,053
-725,123	109,413	-0,054	0,048
-724,108	-27,586	-0,079	-0,033
-723,094	800,000	0,028	-0,072
-722,079	-200,000	0,010	0,064
-721,064	408,293	-0,025	-0,039
-720,050	137,204	0,163	0,157
-719,035	29,795	-0,089	-0,056
-718,021	102,489	0,058	0,050
-717,006	-51,508	-0,146	-0,050
-715,991	-200,000	-0,008	-0,128
-714,977	-79,867	-0,095	0,023
-713,962	134,307	0,046	-0,044
-712,948	-200,000	0,006	-0,079
-711,933	9,732	0,018	0,010
-710,918	800,000	0,007	0,020
-709,904	-200,000	0,043	-0,186
-708,889	-115,581	-0,104	-0,014
-707,875	-96,516	0,059	0,011
-706,860	-200,000	-0,004	0,018
-705,845	-153,504	0,088	-0,004
-704,831	-87,636	0,079	-0,017
-703,816	800,000	0,058	0,125
-702,802	117,662	-0,057	-0,052
-701,787	-200,000	-0,007	-0,046
-700,772	-128,974	-0,073	0,007
-699,758	-16,088	0,107	0,050
-698,743	8,473	-0,025	0,014
-697,729	655,893	-0,048	0,092
-696,714	-200,000	0,010	0,086
-695,699	-200,000	0,025	0,098
-694,685	127,479	-0,073	-0,068
-693,670	223,957	-0,073	-0,087
-692,656	173,511	-0,016	-0,017
-691,641	-142,455	0,152	-0,011
-690,627	310,913	0,033	0,046
-689,612	800,000	-0,034	-0,110
-688,597	-143,998	0,078	-0,005
-687,583	-8,212	-0,123	-0,061
-686,568	545,580	-0,040	0,071
-685,554	800,000	0,025	-0,078
-684,539	-200,000	0,002	-0,048
-683,524	75,843	-0,043	0,033
-682,510	800,000	-0,044	-0,095
-681,495	53,195	-0,018	0,013
-680,481	182,641	0,031	-0,034
-679,466	-117,502	0,050	-0,007
-678,451	-156,281	0,148	-0,007
-677,437	-200,000	-0,004	-0,033
-676,422	800,000	-0,049	0,126
-675,408	-72,061	0,095	0,026
-674,393	-41,053	-0,091	-0,034
-673,378	-132,836	-0,098	0,009
-672,364	2,938	-0,062	0,033
-671,349	800,000	-0,030	-0,073
-670,335	-51,681	0,048	0,017
-669,320	800,000	-0,029	0,072
-668,305	-165,578	0,065	0,002
-667,291	-28,124	-0,060	-0,025
-666,276	-200,000	0,043	-0,142
-665,262	-200,000	0,016	-0,094
-664,247	-200,000	0,006	0,031
-663,232	81,702	0,074	-0,059
-662,218	-49,568	0,096	0,033
-661,203	30,549	-0,087	-0,054
-660,189	800,000	0,038	-0,085
-659,174	-200,000	-0,016	-0,089
-658,159	-108,614	-0,044	-0,007
-657,145	228,949	-0,148	-0,177
-656,130	221,551	0,088	0,104
-655,116	774,229	0,027	-0,054
-654,101	539,592	0,027	0,047
-653,086	-131,141	-0,036	-0,003
-652,072	-200,000	-0,012	-0,106
-651,057	164,527	-0,027	0,028
-650,043	31,078	-0,072	-0,045
-649,028	-130,740	0,139	-0,013
-648,014	-138,301	-0,057	-0,005
-646,999	-53,580	-0,016	0,005
-645,984	-84,372	-0,109	-0,025
-644,970	-200,000	-0,013	-0,130
-643,955	25,058	-0,177	-0,107
-642,941	-3,695	-0,110	-0,056
-641,926	-200,000	-0,002	0,113
-640,911	248,060	0,015	0,019
-639,897	-13,410	-0,034	-0,016
-638,882	-7,273	-0,115	0,057
-637,868	424,034	-0,079	0,126
-636,853	107,514	-0,080	0,070
-635,838	606,367	-0,034	-0,062
-634,824	-26,259	0,088	-0,038
-633,809	-59,612	-0,083	-0,026
-632,795	46,774	0,111	-0,075
-631,780	800,000	-0,018	-0,053
-630,765	388,950	-0,084	-0,129
-629,751	-200,000	-0,014	-0,121
-628,736	187,410	-0,009	-0,010
-627,722	-31,965	0,072	-0,030
-626,707	-144,988	0,146	-0,010
-625,692	485,003	0,065	-0,109
-624,678	-200,000	-0,003	0,013
-623,663	-36,005	-0,017	0,007
-622,649	-200,000	-0,012	-0,112
-621,634	800,000	0,048	-0,128
-620,619	-33,910	-0,152	0,061
-619,605	10,893	-0,135	0,075
-618,590	-113,541	-0,030	0,004
-617,576	-81,176	-0,011	-0,003
-616,561	-152,529	-0,063	0,003
-615,546	610,622	0,052	-0,095
-614,532	351,438	-0,087	-0,127
-613,517	303,299	0,107	0,146
-612,503	-39,605	0,070	-0,027
-611,488	180,594	0,060	0,064
-610,474	-200,000	0,017	-0,078
-609,459	76,106	0,149	0,115
-608,444	-200,000	0,000	0,079
-607,430	-48,777	0,072	-0,025
-606,415	-5,487	0,063	0,032
-605,401	-99,688	0,037	-0,007
-604,386	-126,746	0,182	-0,019
-603,371	-200,000	-0,017	-0,090
-602,357	11,149	-0,105	-0,059
-601,342	87,300	-0,146	-0,118
-600,328	-200,000	0,009	-0,065
-599,313	183,228	-0,069	-0,075
-598,298	-59,548	-0,075	-0,023
-597,284	-74,609	0,039	-0,010
-596,269	-200,000	0,032	0,114
-595,255	288,766	0,031	-0,041
-594,240	28,918	-0,044	-0,027
-593,225	223,141	0,012	0,014
-592,211	-63,204	0,080	0,024
-591,196	-200,000	0,026	-0,171
-590,182	-49,311	-0,214	-0,074
-589,167	166,217	-0,075	0,078
-588,152	123,923	-0,063	0,058
-587,138	120,626	-0,068	0,062
-586,123	-200,000	-0,007	0,103
-585,109	-132,492	0,103	-0,010
-584,094	21,209	-0,119	-0,070
-583,079	386,255	0,078	0,119
-582,065	-200,000	-0,005	0,066
-581,050	-200,000	-0,018	0,133
-580,036	152,859	-0,066	-0,067
-579,021	743,737	0,042	-0,083
-578,006	-31,595	-0,101	-0,041
-576,992	-200,000	-0,023	-0,076
-575,977	800,000	0,045	0,144
-574,963	377,818	0,028	0,042
-573,948	6,068	0,148	0,080
-572,934	-47,619	0,061	-0,021
-571,919	-129,080	-0,146	0,015
-570,904	30,389	0,040	0,025
-569,890	-200,000	0,002	0,019
-568,875	-158,563	0,073	0,003
-567,861	355,266	-0,038	0,055
-566,846	-74,030	0,112	0,029
-565,831	196,602	0,059	-0,066
-564,817	192,595	0,037	-0,041
-563,802	800,000	-0,065	-0,161
-562,788	24,845	0,053	0,032
-561,773	129,402	-0,081	0,076
-560,758	-200,000	-0,006	-0,064
-559,744	12,194	0,026	0,015
-558,729	608,748	0,099	0,181
-557,715	78,041	0,045	-0,035
-556,700	614,927	-0,025	0,045
-555,685	0,670	0,073	-0,038
-554,671	-60,818	0,072	-0,022
-553,656	-72,775	-0,124	0,033
-552,642	-175,982	0,080	0,002
-551,627	572,536	-0,015	-0,027
-550,612	10,535	-0,112	-0,062
-549,598	-200,000	-0,014	-0,052
-548,583	376,955	-0,098	-0,146
-547,569	-200,000	-0,007	-0,087
-546,554	181,771	0,093	0,100
-545,539	607,486	-0,062	-0,113
-544,525	130,026	0,031	0,029
-543,510	52,132	-0,040	0,028
-542,496	-200,000	-0,006	-0,038
-541,481	-69,301	-0,036	-0,010
-540,466	42,825	0,126	-0,084
-539,452	26,777	-0,139	0,085
-538,437	120,492	-0,067	-0,061
-537,423	-200,000	0,006	0,085
-536,408	-57,002	0,082	-0,026
-535,393	129,931	0,116	-0,109
-534,379	172,293	0,047	-0,050
-533,364	190,727	-0,013	-0,014
-532,350	-102,961	0,035	-0,006
-531,335	77,155	-0,089	0,069
-530,321	89,361	0,055	-0,045
-529,306	327,801	0,083	-0,117
-528,291	-35,084	-0,055	-0,022
-527,277	146,563	-0,011	0,011
-526,262	493,925	0,064	0,107
-525,248	-22,385	-0,054	-0,024
-524,233	191,036	-0,148	0,162
-523,218	800,000	0,024	-0,057
-522,204	-200,000	0,018	-0,103
-521,189	800,000	-0,028	-0,064
-520,175	-200,000	-0,008	0,069
-519,160	311,191	-0,017	-0,024
-518,145	651,399	0,026	-0,049
-517,131	168,401	0,010	-0,010
-516,116	-157,127	-0,084	-0,004
-515,102	-140,554	0,085	-0,006
-514,087	-51,557	-0,138	-0,047
-513,072	800,000	-0,003	0,008
-512,058	-200,000	0,003	-0,057
-511,043	-102,617	0,071	0,012
-510,029	100,096	-0,079	0,067
-509,014	594,457	0,015	0,027
-507,999	-117,157	-0,080	-0,010
-506,985	48,204	0,110	-0,075
-505,970	771,468	-0,009	-0,017
-504,956	395,821	-0,033	0,050
-503,941	-200,000	0,032	0,103
-502,926	800,000	0,039	0,092
-501,912	-200,000	-0,002	-0,083
-500,897	382,495	0,086	0,129
-499,883	-23,337	-0,015	-0,006
-498,868	268,388	0,069	-0,088
-497,853	-200,000	0,006	-0,063
-496,839	-200,000	0,014	-0,079
-495,824	-200,000	0,024	-0,100
-494,810	800,000	-0,021	0,065
-493,795	551,774	-0,029	0,052
-492,781	306,760	0,048	0,065
-491,766	-28,528	-0,051	-0,021
-490,751	31,402	-0,093	-0,058
-489,737	800,000	-0,032	-0,066
-488,722	586,087	0,039	0,070
-487,708	240,606	0,046	0,056
-486,693	-73,254	-0,061	-0,016
-485,678	780,824	0,065	0,130
-484,664	-200,000	-0,035	-0,157
-483,649	-139,784	-0,071	0,005
-482,635	181,068	0,016	-0,017
-481,620	84,256	0,053	0,042
-480,605	800,000	0,025	0,066
-479,591	104,200	-0,091	0,078
-478,576	800,000	0,031	-0,083
-477,562	-28,842	-0,056	-0,023
-476,547	-37,809	-0,110	0,043
-475,532	-200,000	0,022	0,166
-474,518	115,010	-0,085	-0,076
-473,503	-169,891	0,240	0,006
-472,489	312,416	-0,061	-0,083
-471,474	88,969	-0,066	0,053
-470,459	-89,680	-0,031	0,007
-469,445	-83,108	-0,123	-0,029
-468,430	-200,000	0,004	-0,050
-467,416	447,102	-0,057	-0,092
-466,401	800,000	-0,024	-0,057
-465,386	-86,270	0,029	-0,006
-464,372	102,349	-0,053	0,045
-463,357	-200,000	-0,001	0,070
-462,343	73,247	0,026	-0,019
-461,328	-200,000	0,015	-0,131
-460,313	-200,000	0,010	-0,067
-459,299	-200,000	-0,009	-0,087
-458,284	15,494	0,033	-0,019
-457,270	141,506	0,082	-0,079
-456,255	-190,481	-0,127	-0,001
-455,241	800,000	0,073	-0,153
-454,226	146,152	0,062	0,060
-453,211	-200,000	0,009	-0,073
-452,197	42,851	-0,045	-0,030
-451,182	147,362	0,119	0,117
-450,168	161,427	0,015	-0,015
-449,153	103,225	-0,047	-0,040
-448,138	-80,684	-0,133	-0,032
-447,124	-84,856	-0,112	-0,025
-446,109	441,042	-0,070	-0,112
-445,095	800,000	0,025	0,080
-444,080	800,000	0,051	-0,108
-443,065	44,619	0,072	0,048
-442,051	-118,679	-0,061	-0,008
-441,036	12,600	-0,138	-0,077
-440,022	122,506	-0,145	0,132
-439,007	171,624	0,037	-0,039
-437,992	-11,831	-0,063	-0,030
-436,978	248,159	0,092	0,114
-435,963	80,568	0,055	0,043
-434,949	800,000	0,030	0,081
-433,934	-115,109	0,097	0,013
-432,919	179,733	-0,067	0,071
-431,905	788,146	0,030	0,060
-430,890	800,000	-0,023	0,052
-429,876	11,062	0,136	0,075
-428,861	538,340	-0,093	0,161
-427,846	-92,800	0,077	0,016
-426,832	234,197	-0,068	-0,082
-425,817	2,051	-0,093	0,048
-424,803	56,063	0,084	-0,059
-423,788	-85,846	0,134	0,030
-422,773	-54,511	0,167	-0,055
-421,759	-61,747	0,123	0,037
-420,744	34,259	-0,014	-0,009
-419,730	-200,000	-0,043	0,184
-418,715	118,923	0,024	-0,021
-417,701	-133,734	-0,070	0,006
-416,686	-109,083	0,108	-0,017
-415,671	-51,372	0,211	0,071
-414,657	-200,000	0,002	0,209
-413,642	800,000	0,032	0,067
-412,628	145,620	-0,031	-0,030
-411,613	-200,000	0,024	-0,131
-410,598	-136,229	0,014	0,001
-409,584	210,518	0,142	0,163
-408,569	-200,000	-0,020	0,168
-407,555	-200,000	0,025	0,096
-406,540	32,009	-0,055	-0,035
-405,525	31,932	0,110	0,069
-404,511	-19,494	-0,122	-0,055
-403,496	154,285	0,028	0,028
-402,482	249,431	0,083	0,102
-401,467	99,870	0,096	-0,081
-400,452	425,577	-0,019	0,029
-399,438	-200,000	0,006	-0,028
-398,423	671,511	-0,063	0,119
-397,409	-200,000	0,003	-0,025
-396,394	800,000	0,020	-0,049
-395,379	16,386	0,077	0,044
-394,365	800,000	0,077	0,156
-393,350	573,175	-0,092	0,164
-392,336	-76,612	0,134	-0,034
-391,321	-200,000	-0,011	-0,164
-390,306	511,152	-0,081	-0,137
-389,292	-33,430	-0,104	0,041
-388,277	-4,470	0,070	0,035
-387,263	55,884	0,035	0,025
-386,248	-200,000	0,021	0,067
-385,233	207,538	-0,030	0,034
-384,219	212,280	-0,110	-0,127
-383,204	173,384	-0,151	-0,159
-382,190	-89,551	-0,080	0,017
-381,175	-200,000	0,003	-0,021
-380,160	329,684	0,011	0,015
-379,146	-200,000	-0,005	-0,025
-378,131	-109,055	-0,090	0,014
-377,117	800,000	0,045	0,099
-376,102	-200,000	-0,007	-0,099
-375,088	116,436	0,181	-0,162
-374,073	-177,895	-0,121	0,002
-373,058	800,000	-0,017	-0,035
-372,044	87,767	0,061	0,049
-371,029	-174,044	0,062	-0,001
-370,015	-200,000	-0,001	-0,122
-369,000	143,666	-0,078	-0,075
-367,985	51,809	-0,078	-0,054
-366,971	107,767	-0,129	-0,111
-365,956	328,290	0,042	-0,059
-364,942	15,270	0,056	-0,032
-363,927	79,973	-0,009	0,007
-362,912	20,409	-0,135	0,079
-361,898	-101,202	0,013	0,002
-360,883	800,000	-0,052	0,129
-359,869	14,861	-0,087	0,050
-358,854	102,015	0,026	-0,022
-357,839	-200,000	0,032	-0,193
-356,825	800,000	-0,035	0,079
-355,810	459,728	-0,037	-0,059
-354,796	-141,506	0,140	-0,010
-353,781	-200,000	-0,010	-0,166
-352,766	-200,000	0,015	-0,118
-351,752	-159,157	-0,013	0,001
-350,737	-200,000	-0,030	-0,105
-349,723	800,000	0,062	0,131
-348,708	800,000	-0,056	0,148
-347,693	75,788	-0,023	0,017
-346,679	-78,861	-0,153	0,038
-345,664	622,381	0,057	-0,105
-344,650	800,000	0,020	-0,048
-343,635	207,574	0,097	0,110
-342,620	120,076	0,082	0,073
-341,606	-103,156	-0,125	-0,021
-340,591	387,087	0,016	-0,024
-339,577	513,729	-0,046	0,077
-338,562	223,383	-0,088	-0,103
-337,548	-200,000	0,010	-0,081
-336,533	147,158	0,029	0,029
-335,518	-62,763	-0,031	-0,009
-334,504	-3,037	0,102	-0,051
-333,489	-69,684	-0,111	-0,031
-332,475	268,716	-0,011	-0,014
-331,460	800,000	-0,038	-0,114
-330,445	-138,617	-0,117	0,009
-329,431	800,000	0,051	0,122
-328,416	115,079	-0,103	0,091
-327,402	-28,689	0,056	-0,023
-326,387	-200,000	-0,001	0,085
-325,372	800,000	-0,061	-0,128
-324,358	245,585	-0,045	-0,055
-323,343	181,269	0,014	-0,015
-322,329	-66,189	-0,102	0,029
-321,314	1,058	0,087	0,045
-320,299	-200,000	0,007	0,077
-319,285	-74,761	-0,107	-0,028
-318,270	217,974	-0,104	-0,121
-317,256	56,692	0,128	-0,090
-316,241	-116,658	0,134	-0,018
-315,226	-200,000	0,008	0,106
-314,212	100,717	0,022	-0,019
-313,197	-22,440	-0,049	0,021
-312,183	-197,052	0,119	0,001
-311,168	196,083	-0,094	0,104
-310,153	800,000	-0,067	-0,143
-309,139	800,000	0,074	-0,156
-308,124	23,859	-0,119	-0,071
-307,110	376,874	0,123	0,183
-306,095	-200,000	0,003	-0,081
-305,080	227,546	-0,067	-0,079
-304,066	197,844	-0,037	0,041
-303,051	-200,000	0,025	-0,177
-302,037	-200,000	-0,001	-0,077
-301,022	-200,000	-0,025	0,115
-300,008	-169,715	-0,034	0,001
-298,993	-158,236	0,088	-0,004
-297,978	800,000	-0,013	0,034
-296,964	-112,787	-0,106	0,015
-295,949	-200,000	-0,024	-0,082
-294,935	-158,380	-0,094	-0,004
-293,920	164,541	0,047	0,048
-292,905	-118,849	0,112	-0,014
-291,891	-200,000	0,022	0,152
-290,876	549,121	0,099	0,173
-289,862	-200,000	0,009	-0,039
-288,847	109,461	0,035	-0,030
-287,832	55,389	0,109	-0,077
-286,818	24,049	0,099	-0,059
-285,803	-33,199	0,135	0,054
-284,789	3,072	0,120	-0,063
-283,774	800,000	0,017	0,051
-282,759	-200,000	0,021	0,144
-281,745	-200,000	-0,001	-0,117
-280,730	224,215	0,055	-0,064
-279,716	422,678	0,056	0,087
-278,701	800,000	0,028	-0,065
-277,686	-200,000	-0,025	0,089
-276,672	336,185	-0,027	0,038
-275,657	-0,289	0,020	0,010
-274,643	5,735	-0,069	0,037
-273,628	-63,090	-0,059	0,017
-272,613	-200,000	0,004	-0,091
-271,599	800,000	0,012	-0,037
-270,584	406,480	0,074	0,113
-269,570	-200,000	-0,026	0,146
-268,555	-87,758	-0,042	-0,009
-267,540	145,979	-0,062	0,061
-266,526	-13,376	0,067	0,031
-265,511	-73,475	0,105	-0,028
-264,497	146,205	0,049	-0,048
-263,482	-61,264	-0,117	-0,035
-262,467	-153,095	0,037	0,002
-261,453	-137,487	-0,091	-0,007
-260,438	-200,000	-0,033	-0,163
-259,424	-11,135	0,164	-0,078
-258,409	165,787	-0,125	-0,128
-257,395	197,552	0,105	0,116
-256,380	189,531	-0,110	-0,119
-255,365	394,707	0,089	0,134
-254,351	-6,696	-0,131	0,064
-253,336	-44,109	0,051	0,019
-252,322	800,000	-0,053	-0,111
-251,307	86,038	0,067	0,053
-250,292	382,814	-0,007	0,010
-249,278	104,443	-0,043	0,036
-248,263	-64,657	-0,009	-0,002
-247,249	445,809	0,030	0,049
-246,234	33,605	0,050	0,031
-245,219	800,000	0,023	-0,046
-244,205	-188,858	-0,139	-0,001
-243,190	-60,190	0,118	-0,036
-242,176	332,393	0,059	0,083
-241,161	171,124	-0,052	0,054
-240,146	29,314	0,099	0,060
-239,132	-148,745	0,082	0,005
-238,117	800,000	0,028	-0,071
-237,103	800,000	-0,036	-0,075
-236,088	-200,000	0,007	-0,091
-235,073	548,110	0,071	0,123
-234,059	-126,177	0,198	0,021
-233,044	-93,683	-0,098	-0,019
-232,030	800,000	-0,055	0,117
-231,015	174,642	0,074	-0,077
-230,000	391,542	-0,029	0,043
-228,986	-200,000	-0,002	0,124
-227,971	-200,000	-0,065	0,224
-226,957	-19,606	0,091	0,041
-225,942	800,000	0,028	0,061
-224,927	-26,659	-0,142	-0,060
-223,913	-123,419	0,133	0,015
-222,898	-200,000	-0,016	-0,197
-221,884	800,000	0,005	-0,012
-220,869	-122,368	0,093	0,011
-219,855	800,000	0,014	0,036
-218,840	81,178	-0,048	-0,038
-217,825	800,000	0,041	-0,109
-216,811	-200,000	0,008	-0,030
-215,796	800,000	0,031	-0,080
-214,782	800,000	0,039	-0,105
-213,767	-200,000	0,011	0,000
-212,752	800,000	0,041	0,105
-211,738	252,807	0,072	-0,089
-210,723	190,259	-0,017	-0,018
-209,709	-80,042	0,019	-0,005
-208,694	604,555	0,073	-0,132
-207,679	-145,333	-0,035	0,002
-206,665	92,842	0,045	0,037
-205,650	110,898	-0,024	-0,021
-204,636	-56,906	-0,019	-0,006
-203,621	-110,711	0,027	-0,004
-202,606	253,186	0,039	0,048
-201,592	239,000	-0,035	0,042
-200,577	-200,000	0,009	-0,038
-199,563	-200,000	-0,015	-0,069
-198,548	-67,088	-0,072	-0,020
-197,533	-12,365	-0,093	-0,044
-196,519	-200,000	-0,003	0,012
-195,504	91,265	-0,085	-0,068
-194,490	-200,000	0,001	0,013
-193,475	171,522	0,053	0,055
-192,460	57,113	0,073	0,052
-191,446	-55,853	0,030	0,010
-190,431	317,537	-0,036	0,049
-189,417	11,008	0,039	-0,021
-188,402	172,038	-0,004	0,004
-187,387	27,999	-0,095	-0,058
-186,373	6,741	0,132	-0,070
-185,358	269,669	-0,100	0,127
-184,344	800,000	0,033	0,070
-183,329	641,179	0,051	0,094
-182,315	-0,833	-0,072	0,037
-181,300	-200,000	0,034	0,180
-180,285	156,145	0,052	-0,052
-179,271	-70,624	-0,094	0,025
-178,256	345,038	-0,056	0,080
-177,242	105,134	-0,083	0,071
-176,227	519,058	-0,053	0,090
-175,212	-66,073	-0,057	-0,016
-174,198	-4,002	0,127	0,063
-173,183	-93,692	-0,130	0,026
-172,169	-52,063	-0,133	0,044
-171,154	-200,000	-0,017	0,058
-170,139	800,000	0,048	0,142
-169,125	800,000	0,098	0,246
-168,110	91,306	-0,193	0,156
-167,096	7,478	0,109	0,058
-166,081	-138,530	0,058	-0,005
-165,066	27,012	-0,088	-0,053
-164,052	-165,826	-0,092	-0,003
-163,037	340,622	-0,065	0,092
-162,023	93,861	0,078	0,064
-161,008	-25,184	0,035	0,015
-159,993	790,445	0,037	0,074
-158,979	-200,000	0,009	0,054
-157,964	82,008	0,062	-0,048
-156,950	-2,508	-0,055	-0,028
-155,935	406,908	0,047	-0,072
-154,920	304,238	-0,049	0,065
-153,906	-200,000	-0,006	0,058
-152,891	90,512	0,065	-0,052
-151,877	-200,000	0,027	-0,153
-150,862	-200,000	-0,011	-0,089
-149,847	-101,846	0,110	-0,019
-148,833	800,000	-0,042	0,087
-147,818	-115,397	-0,032	0,004
-146,804	-200,000	-0,010	0,085
-145,789	24,753	0,017	0,010
-144,775	43,429	-0,138	-0,091
-143,760	-118,738	-0,041	-0,005
-142,745	-28,888	0,066	-0,027
-141,731	39,851	-0,073	0,047
-140,716	-200,000	-0,039	0,127
-139,702	-117,746	-0,037	-0,005
-138,687	127,143	-0,081	-0,074
-137,672	-34,559	0,122	0,048
-136,658	-200,000	0,030	-0,198
-135,643	-12,475	-0,076	0,036
-134,629	22,994	-0,059	0,035
-133,614	-200,000	-0,007	-0,051
-132,599	424,508	-0,032	0,050
-131,585	-169,124	0,054	0,001
-130,570	-200,000	0,020	-0,110
-129,556	147,333	0,068	-0,066
-128,541	800,000	0,025	-0,070
-127,526	-106,055	-0,069	-0,011
-126,512	110,055	0,040	0,035
-125,497	-116,068	0,151	-0,020
-124,483	-200,000	0,005	0,023
-123,468	37,664	0,119	-0,076
-122,453	-200,000	-0,012	-0,125
-121,439	-51,661	-0,041	-0,014
-120,424	-200,000	-0,004	-0,097
-119,410	-89,901	0,141	-0,029
-118,395	78,998	0,047	-0,036
-117,380	-170,433	-0,092	0,002
-116,366	73,487	0,101	-0,076
-115,351	89,619	0,070	-0,056
-114,337	1,578	-0,097	0,050
-113,322	-200,000	-0,023	-0,147
-112,307	57,572	-0,166	-0,117
-111,293	-101,213	0,100	0,017
-110,278	82,537	0,037	0,029
-109,264	-200,000	0,020	0,068
-108,249	-200,000	0,029	0,000
-107,234	-200,000	-0,009	-0,154
-106,220	800,000	-0,030	0,065
-105,205	-17,418	-0,064	-0,029
-104,191	322,590	-0,041	-0,057
-103,176	-63,777	0,091	0,027
-102,162	800,000	-0,007	0,020
-101,147	34,868	0,116	-0,073
-100,132	-120,899	-0,017	-0,002
-99,118	112,572	-0,110	0,096
-98,103	-3,147	-0,154	0,077
-97,089	32,905	-0,056	0,035
-96,074	-124,200	0,137	0,015
-95,059	49,257	0,025	0,017
-94,045	-33,879	0,122	0,048
-93,030	-101,568	-0,146	0,025
-92,016	-200,000	0,018	-0,107
-91,001	-200,000	-0,003	0,031
-89,986	187,128	-0,030	0,032
-88,972	372,505	-0,072	0,105
-87,957	79,404	-0,077	-0,059
-86,943	-51,778	-0,103	0,034
-85,928	-68,968	0,072	0,020
-84,913	-99,377	-0,091	0,016
-83,899	800,000	-0,026	-0,072
-82,884	642,425	-0,077	0,142
-81,870	-128,308	0,074	-0,007
-80,855	-200,000	-0,034	0,112
-79,840	-200,000	0,001	-0,086
-78,826	-86,778	-0,209	-0,046
-77,811	435,312	0,055	-0,087
-76,797	234,001	-0,049	0,058
-75,782	800,000	-0,014	-0,031
-74,767	-52,148	0,075	-0,025
-73,753	-35,085	-0,031	-0,012
-72,738	118,650	0,103	0,092
-71,724	-200,000	-0,010	0,030
-70,709	800,000	0,048	-0,096
-69,694	-39,001	-0,120	-0,045
-68,680	381,280	-0,071	0,105
-67,665	-88,557	0,116	0,025
-66,651	800,000	-0,019	0,055
-65,636	800,000	0,024	-0,074
-64,622	-200,000	-0,016	0,063
-63,607	-97,720	-0,104	0,019
-62,592	-200,000	0,002	-0,152
-61,578	47,049	0,058	0,038
-60,563	800,000	-0,044	0,107
-59,549	-200,000	0,036	0,133
-58,534	70,372	-2,709	-2,008
-57,519	30,875	0,439	-0,269
-56,505	800,000	-1,778	-5,397
-55,490	497,817	1,274	2,113
-54,476	800,000	5,151	11,313
-53,461	-200,000	22,467	348,908
-52,446	800,000	762,051	2286,142
-51,432	508,429	1645,436	2752,290
-50,417	95,933	1606,513	1316,046
-49,403	63,904	1263,800	910,396
-48,388	22,490	1016,006	594,741
-47,373	19,363	983,565	565,430
-46,359	12,678	970,518	536,078
-45,344	8,330	967,345	520,083
-44,330	8,729	965,370	520,306
-43,315	7,739	963,499	516,044
-42,300	7,692	962,419	515,291
-41,286	7,636	961,655	514,680
-40,271	7,653	960,396	514,043
-39,257	7,658	959,588	513,606
-38,242	7,726	958,629	513,291
-37,227	7,689	957,924	512,775
-36,213	7,676	956,850	512,137
-35,198	7,659	956,154	511,691
-34,184	7,700	955,363	511,378
-33,169	7,653	954,607	510,800
-32,154	7,677	953,681	510,365
-31,140	7,738	952,777	510,055
-30,125	7,654	952,047	509,373
-29,111	7,677	951,206	508,979
-28,096	7,738	950,549	508,803
-27,082	7,691	949,888	508,276
-26,067	7,648	949,229	507,767
-25,052	7,645	948,420	507,304
-24,038	7,637	947,581	506,811
-23,023	7,567	947,147	506,333
-22,009	7,629	946,628	506,232
-20,994	7,676	945,880	505,963
-19,979	7,710	944,967	505,564
-18,965	7,642	944,570	505,113
-17,950	7,627	944,032	504,758
-16,936	7,589	943,236	504,192
-15,921	7,593	942,484	503,784
-14,906	7,563	941,836	503,319
-13,892	7,576	941,190	502,998
-12,877	7,578	940,644	502,691
-11,863	7,501	940,232	502,207
-10,848	7,513	939,640	501,907
-9,833	7,645	939,010	501,972
-8,819	7,626	938,396	501,561
-7,804	7,512	937,706	500,812
-6,790	7,586	937,138	500,724
-5,775	7,611	936,610	500,502
-4,760	7,636	936,003	500,236
-3,746	7,559	935,565	499,740
-2,731	7,453	934,616	498,876
-1,717	7,406	933,992	498,375
-0,702	7,354	933,471	497,911
0,313	7,224	932,910	497,955
1,327	10,658	930,478	507,427
2,342	19,278	778,596	447,155
3,356	14,639	447,005	249,730
4,371	-11,363	311,901	146,660
5,386	-14,848	294,468	134,934
6,400	-16,911	288,292	130,053
7,415	-17,469	285,701	128,325
8,429	-18,314	283,736	126,609
9,444	-18,347	282,878	126,183
10,459	-18,442	282,234	125,792
11,473	-18,196	281,504	125,693
12,488	-18,294	281,214	125,458
13,502	-18,249	280,767	125,291
14,517	-18,423	280,092	124,812
15,531	-18,473	279,707	124,581
16,546	-18,332	279,321	124,533
17,561	-18,390	278,870	124,265
18,575	-18,281	278,561	124,221
19,590	-18,373	278,159	123,942
20,604	-18,168	277,952	124,034
21,619	-18,314	277,491	123,679
22,634	-18,388	277,208	123,472
23,648	-18,464	276,752	123,185
24,663	-18,320	276,582	123,236
25,677	-18,515	276,434	122,973
26,692	-18,265	276,141	123,069
27,707	-18,373	275,756	122,784
28,721	-18,328	275,611	122,751
29,736	-18,270	275,231	122,626
30,750	-18,542	275,191	122,341
31,765	-18,339	274,742	122,322
32,780	-18,307	274,508	122,236
33,794	-18,371	274,294	122,070
34,809	-18,349	273,998	121,947
35,823	-18,455	273,736	121,721
36,838	-18,448	273,461	121,594
37,853	-18,280	273,217	121,632
38,867	-18,401	272,919	121,375
39,882	-18,318	272,701	121,345
40,896	-18,372	272,545	121,215
41,911	-18,322	272,105	121,055
42,926	-18,228	272,025	121,095
43,940	-18,394	271,690	120,781
44,955	-18,365	271,486	120,707
45,969	-18,485	271,355	120,527
46,984	-18,419	271,221	120,518
47,999	-18,315	270,926	120,472
49,013	-18,301	270,726	120,386
50,028	-18,220	270,411	120,310
51,042	-18,327	270,235	120,122
52,057	-18,229	269,910	120,057
53,071	-18,195	269,628	119,952
54,086	-18,177	269,545	119,921
55,101	-18,272	269,456	119,784
56,115	-18,333	269,122	119,568
57,130	-18,360	268,857	119,415
58,144	-18,288	268,546	119,332
59,159	-18,287	268,312	119,218
60,174	-18,296	268,043	119,080
61,188	-18,291	267,895	119,008
62,203	-18,172	267,647	118,997
63,217	-18,256	267,433	118,813
64,232	-18,512	267,292	118,507
65,247	-18,432	267,103	118,485
66,261	-18,072	266,615	118,586
67,276	-18,129	266,436	118,444
68,290	-18,334	266,351	118,209
69,305	-18,228	266,245	118,248
70,320	-18,179	265,929	118,142
71,334	-18,268	265,607	117,907
72,349	-18,140	265,316	117,884
73,363	-18,229	265,063	117,680
74,378	-18,296	264,904	117,539
75,393	-18,300	264,637	117,406
76,407	-18,202	264,405	117,381
77,422	-18,268	264,167	117,205
78,436	-18,309	263,975	117,073
79,451	-18,115	263,596	117,069
80,466	-17,958	263,391	117,108
81,480	-18,418	263,348	116,666
82,495	-18,207	263,073	116,722
83,509	-18,193	263,061	116,719
84,524	-18,321	262,771	116,465
85,539	-18,103	262,490	116,526
86,553	-18,337	262,332	116,237
87,568	-18,270	262,079	116,174
88,582	-18,388	261,816	115,941
89,597	-18,309	261,664	115,934
90,611	-18,234	261,475	115,907
91,626	-18,114	261,293	115,922
92,641	-18,282	260,973	115,621
93,655	-18,291	260,812	115,531
94,670	-18,361	260,658	115,391
95,684	-18,179	260,388	115,422
96,699	-18,217	260,241	115,313
97,714	-18,289	260,034	115,148
98,728	-18,257	259,783	115,055
99,743	-18,289	259,536	114,906
100,757	-18,390	259,421	114,756
101,772	-18,300	259,224	114,738
102,787	-18,267	258,852	114,592
103,801	-18,185	258,693	114,584
104,816	-18,187	258,617	114,538
105,830	-18,166	258,400	114,450
106,845	-18,218	258,254	114,330
107,860	-18,156	258,127	114,318
108,874	-18,277	257,787	114,050
109,889	-18,395	257,657	113,880
110,903	-18,203	257,293	113,877
111,918	-18,182	257,084	113,792
112,933	-18,339	256,958	113,589
113,947	-18,184	256,784	113,638
114,962	-18,403	256,647	113,376
115,976	-18,318	256,418	113,338
116,991	-18,268	256,087	113,226
118,006	-18,115	255,996	113,308
119,020	-18,127	255,826	113,213
120,035	-18,132	255,574	113,087
121,049	-18,324	255,559	112,903
122,064	-18,006	255,294	113,052
123,079	-18,175	255,096	112,807
124,093	-18,190	254,915	112,704
125,108	-18,241	254,610	112,515
126,122	-18,217	254,552	112,501
127,137	-18,212	254,297	112,382
128,151	-18,178	254,116	112,322
129,166	-18,078	253,946	112,323
130,181	-18,080	253,511	112,118
131,195	-18,261	253,330	111,873
132,210	-18,315	253,305	111,806
133,224	-18,061	252,958	111,860
134,239	-18,249	252,772	111,607
135,254	-18,189	252,680	111,607
136,268	-18,130	252,397	111,524
137,283	-18,027	252,317	111,566
138,297	-18,250	252,014	111,232
139,312	-18,127	251,824	111,243
140,327	-18,247	251,828	111,133
141,341	-18,236	251,535	111,002
142,356	-18,100	251,358	111,030
143,370	-18,055	251,056	110,925
144,385	-18,262	250,886	110,664
145,400	-18,074	250,697	110,730
146,414	-18,049	250,451	110,633
147,429	-18,060	250,287	110,542
148,443	-18,298	250,212	110,297
149,458	-18,148	250,086	110,359
150,473	-18,048	249,728	110,276
151,487	-18,122	249,437	110,074
152,502	-17,866	249,399	110,265
153,516	-18,162	249,280	109,952
154,531	-18,188	249,100	109,841
155,546	-17,972	248,822	109,891
156,560	-17,980	248,781	109,856
157,575	-18,191	248,580	109,579
158,589	-17,961	248,182	109,587
159,604	-17,860	247,985	109,576
160,619	-18,076	247,843	109,322
161,633	-18,222	247,691	109,123
162,648	-18,259	247,600	109,042
163,662	-17,992	247,448	109,189
164,677	-18,029	247,210	109,043
165,692	-18,099	247,119	108,935
166,706	-17,950	246,888	108,948
167,721	-18,206	246,835	108,701
168,735	-18,174	246,666	108,644
169,750	-18,041	246,407	108,631
170,764	-18,071	246,287	108,543
171,779	-17,969	246,164	108,564
172,794	-18,024	245,908	108,396
173,808	-18,201	245,851	108,213
174,823	-17,993	245,441	108,196
175,837	-18,121	245,396	108,060
176,852	-17,970	245,223	108,100
177,867	-18,079	245,085	107,939
178,881	-17,978	244,856	107,912
179,896	-18,146	244,821	107,748
180,910	-17,947	244,496	107,760
181,925	-18,103	244,431	107,593
182,940	-18,052	244,209	107,527
183,954	-17,950	243,921	107,475
184,969	-18,144	243,980	107,332
185,983	-17,987	243,718	107,336
186,998	-17,868	243,521	107,338
188,013	-17,857	243,266	107,225
189,027	-17,941	243,059	107,055
190,042	-17,954	242,903	106,966
191,056	-17,791	242,752	107,023
192,071	-18,089	242,563	106,687
193,086	-17,880	242,404	106,778
194,100	-17,886	242,236	106,690
195,115	-18,055	241,983	106,431
196,129	-17,968	241,807	106,415
197,144	-17,963	241,687	106,357
198,159	-18,054	241,550	106,213
199,173	-17,874	241,290	106,236
200,188	-17,963	241,168	106,100
201,202	-17,844	240,923	106,079
202,217	-17,925	240,761	105,933
203,232	-17,856	240,514	105,870
204,246	-17,932	240,387	105,744
205,261	-17,600	240,364	105,993
206,275	-15,882	241,113	107,710
207,290	-10,435	243,033	113,014
208,304	-4,658	244,424	118,394
209,319	-2,978	244,986	120,035
210,334	-2,483	245,079	120,476
211,348	-1,539	245,301	121,350
212,363	-0,803	245,385	121,985
213,377	-0,066	245,319	122,547
214,392	0,264	245,541	122,917
215,407	0,469	245,409	123,008
216,421	0,790	245,144	123,127
217,436	0,693	245,055	122,992
218,450	0,693	244,940	122,924
219,465	0,811	244,789	122,933
220,480	0,604	244,633	122,675
221,494	0,766	244,500	122,729
222,509	0,419	244,153	122,262
223,523	0,503	243,837	122,161
224,538	0,258	243,812	121,938
225,553	0,260	243,552	121,798
226,567	0,261	243,353	121,689
227,582	0,214	243,169	121,548
228,596	0,160	243,094	121,456
229,611	0,166	242,999	121,402
230,626	0,028	242,719	121,140
231,640	0,198	242,485	121,150
232,655	-0,043	242,509	120,956
233,669	0,208	242,201	120,995
234,684	0,218	241,988	120,885
235,699	0,253	242,000	120,909
236,713	0,085	241,863	120,694
237,728	0,067	241,634	120,555
238,742	0,166	241,338	120,476
239,757	0,119	241,357	120,436
240,772	-0,014	241,216	120,249
241,786	0,027	240,987	120,156
242,801	0,275	240,757	120,230
243,815	0,205	240,658	120,114
244,830	0,233	240,469	120,031
245,844	0,082	240,394	119,862
246,859	0,071	240,205	119,749
247,874	0,156	240,068	119,738
248,888	0,083	239,828	119,549
249,903	0,245	239,779	119,643
250,917	0,100	239,564	119,409
251,932	0,160	239,501	119,415
252,947	0,233	239,308	119,367
253,961	0,306	239,209	119,365
254,976	0,149	239,079	119,165
255,990	0,097	238,852	118,999
257,005	0,079	238,661	118,879
258,020	0,272	238,619	119,001
259,034	0,390	238,315	118,932
260,049	0,358	238,244	118,861
261,063	0,127	238,076	118,583
262,078	0,207	237,898	118,547
263,093	0,098	237,712	118,358
264,107	0,138	237,670	118,358
265,122	0,177	237,403	118,246
266,136	0,370	237,157	118,265
267,151	0,239	237,179	118,162
268,166	-0,052	237,089	117,877
269,180	0,190	236,766	117,897
270,195	0,191	236,702	117,855
271,209	0,271	236,453	117,783
272,224	0,123	236,459	117,659
273,239	0,156	236,156	117,524
274,253	0,224	235,978	117,479
275,268	0,333	235,833	117,481
276,282	0,062	235,814	117,249
277,297	0,236	235,548	117,242
278,312	0,230	235,586	117,246
279,326	0,202	235,257	117,050
280,341	0,143	235,252	116,990
281,355	0,251	235,043	116,960
282,370	0,370	234,913	116,979
283,384	0,411	234,636	116,862
284,399	0,302	234,515	116,706
285,414	0,190	234,347	116,525
286,428	0,304	234,227	116,544
287,443	0,174	234,031	116,335
288,457	0,410	233,961	116,473
289,472	0,269	233,796	116,272
290,487	0,610	233,435	116,346
291,501	0,249	233,580	116,128
292,516	0,429	233,427	116,180
293,530	0,435	233,173	116,048
294,545	0,382	233,156	115,988
295,560	0,162	232,937	115,699
296,574	0,258	232,874	115,732
297,589	0,498	232,647	115,794
298,603	0,191	232,648	115,547
299,618	0,302	232,290	115,445
300,633	0,412	232,153	115,451
301,647	0,457	232,024	115,411
302,662	0,179	232,086	115,217
303,676	0,364	231,743	115,179
304,691	0,598	231,513	115,234
305,706	0,362	231,425	114,999
306,720	0,444	231,291	114,985
307,735	0,521	231,161	114,969
308,749	0,296	231,213	114,812
309,764	0,619	230,833	114,861
310,779	0,531	230,768	114,751
311,793	0,481	230,473	114,556
312,808	0,460	230,380	114,483
313,822	0,295	230,258	114,286
314,837	0,576	230,036	114,381
315,852	0,485	230,104	114,335
316,866	0,705	229,826	114,354
317,881	0,590	229,624	114,156
318,895	0,512	229,628	114,088
319,910	0,593	229,322	113,987
320,925	0,649	229,340	114,029
321,939	0,556	229,128	113,842
322,954	0,446	229,008	113,689
323,968	0,636	228,856	113,748
324,983	0,725	228,704	113,729
325,997	0,480	228,598	113,481
327,012	0,408	228,367	113,302
328,027	0,598	228,190	113,347
329,041	0,438	228,082	113,163
330,056	0,355	227,941	113,021
331,070	0,429	227,932	113,062
332,085	0,738	227,472	113,056
333,100	0,636	227,537	113,001
334,114	0,491	227,275	112,752
335,129	0,468	227,229	112,702
336,143	0,729	227,072	112,810
337,158	0,788	226,929	112,773
338,173	0,566	226,874	112,569
339,187	0,661	226,625	112,507
340,202	0,547	226,579	112,389
341,216	0,646	226,351	112,340
342,231	0,648	226,158	112,235
343,246	0,555	226,089	112,122
344,260	0,556	225,951	112,044
345,275	0,919	225,794	112,227
346,289	0,777	225,666	112,048
347,304	0,730	225,503	111,922
348,319	0,739	225,397	111,865
349,333	0,684	225,187	111,711
350,348	0,668	224,926	111,559
351,362	0,799	224,979	111,673
352,377	0,839	224,826	111,617
353,392	0,726	224,701	111,460
354,406	0,863	224,486	111,445
355,421	192,129	1310,501	1375,664
356,435	153,874	1442,662	1375,497
