DTS Sentinel unit serial number:	SN410029Multiplexer serial number:	ORYXHardware model number:	OX2-SRSoftware version number:	ORYX F/W v4,00 Oryx Data Collector v3.7.2.0data status	okinstallation	B5 Nyhavnadifferential loss correction	single-endedforward channel	channel 2reverse channel	N/Adate	2023/12/14time	01:07:13forward acquisition time	300,00reverse acquisition time	0,00gamma	499,1914k internal	0,3155k external	0,3155temperature offset calibration	1,0000default loss term (dB/km)	0,3820temperature slope calibration	1,0000multiplexer offset coefficient	1,0000multiplexer slope coefficient	1,0000fibre end	0,00T internal ref (°C)	8,69T ext. ref 1 (°C)	-7,15T ext. ref 2 (°C)	-7,15length (m)	temperature (°C)	Stokes	anti-Stokes-744,400	-45,044	0,172	0,063
-743,385	-14,367	-0,324	-0,153
-742,371	-107,114	0,158	-0,026
-741,356	-56,735	-0,288	-0,093
-740,342	86,926	0,104	0,085
-739,327	-113,343	-0,277	-0,040
-738,312	35,605	0,187	0,121
-737,298	-21,370	-0,393	-0,176
-736,283	16,741	0,189	0,110
-735,269	-163,516	-0,352	-0,012
-734,254	71,712	0,066	0,050
-733,239	-79,500	-0,609	-0,151
-732,225	140,135	0,279	0,271
-731,210	494,200	-0,052	0,088
-730,196	-160,835	-0,059	0,002
-729,181	-71,110	0,027	0,007
-728,167	800,000	-0,018	-0,048
-727,152	-145,356	-0,061	0,004
-726,137	493,150	-0,109	-0,184
-725,123	800,000	-0,052	-0,107
-724,108	-23,116	-0,121	0,054
-723,094	453,715	-0,008	0,013
-722,079	800,000	-0,048	-0,152
-721,064	147,673	-0,072	0,072
-720,050	322,199	-0,034	-0,048
-719,035	28,669	-0,044	-0,028
-718,021	800,000	-0,072	-0,176
-717,006	-200,000	0,003	-0,024
-715,991	-109,299	-0,087	-0,013
-714,977	461,192	0,058	-0,095
-713,962	-200,000	0,024	0,084
-712,948	-200,000	-0,021	0,187
-711,933	800,000	0,066	0,139
-710,918	-15,890	-0,094	0,044
-709,904	-35,572	-0,035	-0,014
-708,889	-200,000	0,006	0,040
-707,875	-185,047	-0,136	-0,002
-706,860	379,246	-0,055	0,083
-705,845	-19,578	0,172	-0,078
-704,831	-200,000	0,036	-0,148
-703,816	-200,000	0,003	-0,013
-702,802	800,000	0,047	-0,099
-701,787	-200,000	0,006	-0,061
-700,772	-200,000	-0,002	-0,071
-699,758	511,301	-0,009	0,015
-698,743	-108,768	-0,122	-0,019
-697,729	72,810	-0,037	0,029
-696,714	-8,569	0,018	0,009
-695,699	800,000	-0,019	0,050
-694,685	449,838	-0,069	0,112
-693,670	800,000	-0,015	0,050
-692,656	800,000	0,042	0,131
-691,641	-55,185	-0,095	0,031
-690,627	800,000	0,012	0,037
-689,612	-97,249	-0,075	0,014
-688,597	-24,820	-0,027	0,012
-687,583	334,414	-0,051	0,074
-686,568	-43,457	-0,110	0,041
-685,554	-200,000	0,009	-0,052
-684,539	-35,906	0,064	0,026
-683,524	153,905	0,043	0,043
-682,510	800,000	-0,021	0,050
-681,495	-106,719	-0,219	0,035
-680,481	44,687	-0,043	-0,029
-679,466	26,489	0,042	-0,026
-678,451	785,691	-0,025	-0,050
-677,437	35,664	0,174	-0,113
-676,422	429,250	0,044	-0,070
-675,408	66,503	0,055	0,041
-674,393	151,896	-0,107	0,108
-673,378	61,050	-0,050	0,036
-672,364	-200,000	-0,014	-0,055
-671,349	33,193	0,088	-0,056
-670,335	-200,000	0,002	-0,063
-669,320	675,104	-0,034	-0,064
-668,305	-200,000	-0,035	0,130
-667,291	686,786	0,056	0,109
-666,276	-102,709	-0,068	-0,012
-665,262	-200,000	-0,007	0,085
-664,247	114,366	-0,116	-0,104
-663,232	208,837	-0,188	-0,217
-662,218	800,000	0,030	-0,079
-661,203	123,060	-0,083	0,076
-660,189	-173,637	-0,091	0,002
-659,174	-161,934	-0,150	0,005
-658,159	380,517	0,049	0,074
-657,145	-30,047	-0,045	-0,019
-656,130	-200,000	0,021	-0,194
-655,116	-96,782	0,087	0,017
-654,101	8,333	0,074	0,041
-653,086	180,836	-0,053	0,057
-652,072	-200,000	-0,052	-0,180
-651,057	115,648	-0,128	-0,115
-650,043	-1,129	0,157	0,081
-649,028	471,069	-0,099	0,165
-648,014	800,000	0,005	-0,015
-646,999	34,375	-0,118	0,075
-645,984	382,241	0,052	0,079
-644,970	800,000	-0,068	-0,207
-643,955	680,639	-0,068	-0,131
-642,941	74,707	-0,071	0,055
-641,926	6,795	0,030	0,017
-640,911	207,216	0,019	-0,021
-639,897	3,300	0,158	0,084
-638,882	199,052	-0,090	0,102
-637,868	-115,323	-0,140	-0,019
-636,853	183,470	0,037	0,040
-635,838	800,000	-0,033	-0,078
-634,824	800,000	0,048	-0,152
-633,809	-200,000	-0,010	0,144
-632,795	-200,000	-0,002	-0,018
-631,780	800,000	0,030	-0,075
-630,765	172,220	0,078	-0,082
-629,751	-16,997	0,059	0,027
-628,736	25,133	0,020	-0,012
-627,722	-28,767	0,105	0,044
-626,707	-200,000	-0,006	0,116
-625,692	126,272	0,064	0,059
-624,678	136,266	-0,060	0,058
-623,663	190,232	-0,095	-0,105
-622,649	14,616	-0,055	-0,031
-621,634	-200,000	-0,016	-0,117
-620,619	800,000	-0,043	-0,127
-619,605	305,172	0,071	-0,097
-618,590	800,000	0,038	-0,098
-617,576	-59,070	-0,050	0,016
-616,561	-16,714	-0,180	-0,083
-615,546	468,862	-0,069	-0,114
-614,532	-200,000	0,000	-0,079
-613,517	-1,509	-0,119	0,061
-612,503	275,921	-0,035	0,045
-611,488	247,816	-0,073	0,091
-610,474	-137,238	0,019	-0,002
-609,459	528,004	-0,076	0,133
-608,444	30,658	-0,030	-0,018
-607,430	107,182	-0,117	0,102
-606,415	592,615	0,055	0,100
-605,401	-180,290	-0,030	0,000
-604,386	27,763	0,129	-0,080
-603,371	-200,000	-0,007	0,030
-602,357	-200,000	0,031	0,125
-601,342	-200,000	0,013	0,102
-600,328	800,000	-0,073	0,186
-599,313	-200,000	0,018	-0,110
-598,298	69,757	-0,002	0,002
-597,284	-16,699	0,077	-0,036
-596,269	232,420	0,047	0,057
-595,255	105,970	-0,148	0,129
-594,240	71,565	-0,032	0,025
-593,225	83,446	0,085	-0,068
-592,211	800,000	-0,051	-0,125
-591,196	583,223	-0,041	0,074
-590,182	-94,239	-0,040	-0,008
-589,167	55,356	-0,031	-0,022
-588,152	-30,444	0,036	-0,015
-587,138	-161,156	0,024	0,001
-586,123	-200,000	-0,004	0,142
-585,109	-200,000	-0,007	-0,067
-584,094	-93,184	-0,192	-0,039
-583,079	222,296	0,096	-0,113
-582,065	-200,000	0,003	0,184
-581,050	-200,000	0,020	0,127
-580,036	800,000	-0,076	-0,213
-579,021	800,000	0,031	0,064
-578,006	-148,294	-0,109	0,006
-576,992	381,358	0,017	-0,025
-575,977	44,845	0,087	0,059
-574,963	-200,000	0,041	0,150
-573,948	-200,000	-0,036	0,120
-572,934	-39,188	0,096	-0,037
-571,919	103,875	-0,196	-0,169
-570,904	313,339	0,015	0,021
-569,890	-200,000	-0,020	0,066
-568,875	97,247	0,066	-0,055
-567,861	107,835	0,153	-0,134
-566,846	63,261	-0,059	0,043
-565,831	282,921	-0,067	0,088
-564,817	800,000	0,061	-0,135
-563,802	282,253	-0,097	-0,128
-562,788	92,240	-0,132	-0,109
-561,773	-7,254	-0,008	-0,004
-560,758	-200,000	0,008	0,071
-559,744	-8,734	-0,035	0,017
-558,729	476,082	-0,066	-0,109
-557,715	248,229	-0,039	-0,049
-556,700	-200,000	0,024	0,108
-555,685	-129,936	0,155	0,015
-554,671	-125,710	-0,083	0,009
-553,656	-152,410	0,057	-0,003
-552,642	-50,216	-0,071	-0,024
-551,627	-115,494	0,081	0,011
-550,612	-33,872	0,003	-0,001
-549,598	55,177	-0,052	0,037
-548,583	276,548	-0,072	-0,093
-547,569	19,696	0,076	-0,045
-546,554	52,355	0,085	0,059
-545,539	300,630	-0,038	0,052
-544,525	-200,000	-0,008	0,104
-543,510	16,380	-0,029	0,017
-542,496	-33,715	0,138	-0,056
-541,481	127,481	0,014	0,013
-540,466	800,000	0,053	-0,128
-539,452	109,969	0,062	-0,054
-538,437	-200,000	0,025	0,094
-537,423	422,436	0,016	0,024
-536,408	300,294	-0,075	0,102
-535,393	-53,137	-0,019	-0,006
-534,379	-77,079	-0,040	-0,010
-533,364	258,139	0,063	-0,079
-532,350	-51,920	0,159	-0,054
-531,335	-200,000	-0,021	0,073
-530,321	16,755	0,049	-0,028
-529,306	-56,734	-0,067	-0,022
-528,291	-109,865	-0,067	0,010
-527,277	-76,976	0,083	-0,021
-526,262	-200,000	-0,021	-0,129
-525,248	50,195	0,126	0,087
-524,233	-200,000	0,026	0,190
-523,218	-200,000	0,016	-0,235
-522,204	-200,000	0,016	-0,207
-521,189	-51,298	0,020	-0,007
-520,175	-85,018	0,116	0,026
-519,160	688,908	0,048	-0,092
-518,145	-25,986	-0,087	0,037
-517,131	800,000	0,019	0,059
-516,116	800,000	0,016	-0,041
-515,102	158,800	-0,055	0,056
-514,087	283,554	-0,054	-0,072
-513,072	102,616	0,112	-0,096
-512,058	75,830	0,093	0,072
-511,043	800,000	-0,056	0,159
-510,029	65,066	-0,070	-0,052
-509,014	432,776	0,062	0,099
-507,999	800,000	-0,025	0,078
-506,985	142,895	0,045	-0,044
-505,970	524,383	0,068	0,118
-504,956	-200,000	-0,093	-0,000
-503,941	-28,430	0,076	-0,032
-502,926	7,677	-0,116	0,063
-501,912	-3,837	0,149	-0,075
-500,897	533,926	-0,023	-0,040
-499,883	-200,000	0,001	-0,057
-498,868	201,849	-0,041	-0,047
-497,853	-151,678	0,067	-0,004
-496,839	800,000	-0,026	0,082
-495,824	-200,000	-0,005	-0,031
-494,810	765,649	-0,015	0,030
-493,795	-35,010	0,056	-0,022
-492,781	424,236	-0,042	-0,066
-491,766	35,506	-0,077	0,049
-490,751	-118,910	0,038	-0,005
-489,737	-63,913	-0,025	0,007
-488,722	463,843	0,076	0,124
-487,708	66,900	-0,121	0,090
-486,693	108,333	0,054	0,047
-485,678	800,000	-0,025	-0,053
-484,664	800,000	0,020	-0,045
-483,649	91,681	0,020	0,017
-482,635	-118,844	-0,035	0,004
-481,620	242,051	0,077	0,094
-480,605	146,587	0,083	0,082
-479,591	-182,172	-0,047	-0,001
-478,576	249,318	-0,064	0,079
-477,562	-11,530	-0,129	-0,062
-476,547	800,000	0,047	-0,131
-475,532	63,899	0,026	-0,019
-474,518	577,962	-0,040	0,071
-473,503	343,747	0,009	0,013
-472,489	-200,000	0,010	0,098
-471,474	800,000	-0,080	0,215
-470,459	124,849	-0,011	-0,010
-469,445	-200,000	-0,018	-0,146
-468,430	-9,541	0,085	0,041
-467,416	-14,710	-0,026	-0,012
-466,401	45,205	0,007	-0,005
-465,386	-39,030	-0,131	-0,050
-464,372	50,151	0,050	-0,035
-463,357	80,149	-0,050	-0,039
-462,343	347,524	-0,049	0,071
-461,328	-200,000	0,017	0,073
-460,313	-53,561	0,107	0,035
-459,299	-200,000	0,008	0,100
-458,284	31,452	0,173	-0,108
-457,270	148,908	-0,114	-0,113
-456,255	80,016	0,099	-0,078
-455,241	105,319	-0,160	-0,138
-454,226	-64,230	-0,110	-0,033
-453,211	202,587	-0,049	0,055
-452,197	124,903	0,080	0,074
-451,182	77,499	-0,092	-0,071
-450,168	800,000	-0,026	0,079
-449,153	164,263	-0,029	-0,029
-448,138	83,613	-0,088	0,070
-447,124	-200,000	0,019	0,154
-446,109	0,657	0,114	0,059
-445,095	217,315	0,081	0,094
-444,080	-98,295	-0,061	0,011
-443,065	800,000	-0,005	-0,010
-442,051	-200,000	-0,005	0,077
-441,036	800,000	-0,078	-0,173
-440,022	-5,037	-0,046	-0,023
-439,007	-176,075	0,093	0,002
-437,992	-56,101	0,158	-0,051
-436,978	800,000	0,011	-0,033
-435,963	306,489	-0,084	0,114
-434,949	132,569	0,109	-0,103
-433,934	800,000	-0,037	0,096
-432,919	181,922	0,079	-0,085
-431,905	-137,190	-0,055	0,005
-430,890	55,237	0,075	-0,053
-429,876	800,000	-0,028	-0,091
-428,861	122,243	0,065	-0,059
-427,846	130,155	-0,053	-0,050
-426,832	-175,522	0,085	0,002
-425,817	-151,765	-0,065	0,003
-424,803	215,781	-0,061	-0,071
-423,788	-200,000	-0,021	0,071
-422,773	800,000	-0,064	0,171
-421,759	522,719	-0,023	-0,040
-420,744	800,000	-0,012	0,025
-419,730	-98,774	-0,072	-0,013
-418,715	-145,915	-0,190	-0,012
-417,701	-53,062	0,113	-0,038
-416,686	-200,000	0,001	0,011
-415,671	348,789	0,061	0,088
-414,657	-200,000	0,017	0,116
-413,642	90,318	-0,039	0,032
-412,628	249,644	-0,117	-0,145
-411,613	10,199	0,095	0,052
-410,598	-1,198	-0,056	-0,028
-409,584	88,299	0,099	0,080
-408,569	-141,039	0,083	0,006
-407,555	587,937	-0,024	0,043
-406,540	800,000	0,020	0,047
-405,525	-200,000	-0,008	0,134
-404,511	-5,555	-0,113	-0,056
-403,496	70,116	-0,116	-0,087
-402,482	-200,000	0,024	0,182
-401,467	-200,000	-0,008	0,159
-400,452	10,909	-0,021	-0,012
-399,438	626,395	-0,041	-0,076
-398,423	329,036	0,021	-0,029
-397,409	10,005	-0,029	-0,016
-396,394	-200,000	0,034	-0,224
-395,379	800,000	-0,037	-0,092
-394,365	19,306	0,108	-0,063
-393,350	-200,000	0,009	-0,068
-392,336	800,000	-0,043	0,111
-391,321	798,695	-0,018	-0,036
-390,306	800,000	-0,045	0,096
-389,292	630,153	-0,048	-0,089
-388,277	141,895	-0,059	0,057
-387,263	-200,000	0,001	-0,053
-386,248	95,745	0,050	-0,042
-385,233	275,992	0,037	0,048
-384,219	-58,696	0,078	0,024
-383,204	183,360	0,067	-0,072
-382,190	-87,268	-0,077	0,017
-381,175	-200,000	0,016	-0,073
-380,160	115,347	-0,028	0,025
-379,146	-200,000	-0,003	0,040
-378,131	42,790	-0,035	-0,023
-377,117	427,916	-0,102	-0,160
-376,102	467,675	0,109	-0,178
-375,088	85,547	0,063	-0,050
-374,073	-164,398	-0,077	0,003
-373,058	800,000	0,025	-0,075
-372,044	-200,000	0,011	0,056
-371,029	248,851	0,088	0,109
-370,015	194,468	-0,006	0,007
-369,000	135,008	-0,015	0,014
-367,985	800,000	-0,006	-0,017
-366,971	-74,026	-0,022	-0,006
-365,956	266,222	-0,061	0,078
-364,942	12,799	0,145	0,081
-363,927	326,939	-0,024	0,033
-362,912	-83,028	-0,155	-0,036
-361,898	161,657	0,073	0,074
-360,883	139,107	0,104	0,099
-359,869	-200,000	0,003	0,092
-358,854	210,272	-0,082	-0,093
-357,839	261,770	0,096	0,121
-356,825	208,028	0,080	-0,091
-355,810	800,000	-0,021	-0,054
-354,796	-54,633	-0,109	0,036
-353,781	85,247	0,125	0,099
-352,766	-98,401	0,065	-0,012
-351,752	800,000	0,042	0,094
-350,737	-103,613	0,070	-0,012
-349,723	420,150	0,073	0,113
-348,708	800,000	0,029	0,078
-347,693	-11,780	-0,101	0,048
-346,679	-32,520	-0,005	-0,002
-345,664	243,078	0,035	-0,043
-344,650	508,454	-0,034	0,057
-343,635	800,000	0,044	0,102
-342,620	-151,371	0,145	-0,008
-341,606	201,459	0,020	0,022
-340,591	800,000	0,027	-0,069
-339,577	221,414	-0,086	-0,101
-338,562	-1,668	0,145	0,074
-337,548	226,360	-0,057	-0,067
-336,533	96,265	0,021	-0,018
-335,518	30,918	0,060	-0,037
-334,504	-25,651	0,088	-0,037
-333,489	195,143	-0,048	-0,053
-332,475	280,361	0,063	-0,082
-331,460	19,739	-0,091	-0,053
-330,445	-200,000	0,021	-0,126
-329,431	-200,000	0,029	0,096
-328,416	218,920	0,059	0,069
-327,402	-123,586	0,088	-0,010
-326,387	-103,145	-0,097	0,016
-325,372	644,494	-0,048	-0,089
-324,358	-77,168	-0,101	-0,025
-323,343	800,000	-0,023	0,068
-322,329	-169,625	-0,097	-0,003
-321,314	-149,118	0,043	-0,002
-320,299	-200,000	-0,001	0,055
-319,285	-128,747	0,213	0,022
-318,270	14,155	-0,088	-0,050
-317,256	800,000	0,005	-0,015
-316,241	-119,507	-0,064	0,008
-315,226	-200,000	0,006	0,061
-314,212	-51,974	-0,056	0,019
-313,197	-200,000	0,031	-0,163
-312,183	-87,881	-0,106	-0,023
-311,168	285,613	-0,119	-0,156
-310,153	800,000	0,029	-0,094
-309,139	-200,000	0,007	-0,203
-308,124	800,000	-0,055	0,126
-307,110	317,866	0,066	-0,091
-306,095	788,127	0,058	-0,116
-305,080	-118,354	0,100	-0,013
-304,066	18,441	0,137	-0,079
-303,051	800,000	-0,055	-0,119
-302,037	-47,170	-0,140	0,049
-301,022	-200,000	0,004	0,030
-300,008	-77,368	0,072	0,018
-298,993	22,563	0,141	0,084
-297,978	-60,901	-0,105	-0,032
-296,964	-200,000	0,016	0,122
-295,949	-200,000	0,010	-0,122
-294,935	-113,313	0,051	0,007
-293,920	23,039	-0,085	0,051
-292,905	-135,651	0,075	-0,006
-291,891	-61,496	0,137	0,041
-290,876	152,075	0,048	0,048
-289,862	-200,000	0,010	-0,037
-288,847	27,958	0,047	0,029
-287,832	267,092	0,080	-0,102
-286,818	800,000	-0,028	-0,075
-285,803	454,499	0,009	-0,014
-284,789	427,136	-0,052	0,081
-283,774	-200,000	-0,042	0,153
-282,759	-15,248	-0,097	-0,045
-281,745	137,194	0,086	-0,082
-280,730	-88,326	-0,116	0,025
-279,716	162,764	-0,120	-0,122
-278,701	800,000	-0,021	-0,059
-277,686	798,136	0,030	0,061
-276,672	129,852	-0,056	0,052
-275,657	800,000	0,031	-0,095
-274,643	800,000	-0,057	-0,131
-273,628	-200,000	-0,004	-0,089
-272,613	-185,293	-0,151	0,002
-271,599	-72,465	0,116	0,031
-270,584	-31,292	0,097	-0,039
-269,570	221,040	-0,122	0,142
-268,555	278,578	0,059	0,076
-267,540	-192,273	0,052	-0,000
-266,526	-62,581	-0,055	0,016
-265,511	-50,447	0,201	-0,068
-264,497	800,000	0,007	-0,016
-263,482	-47,850	0,090	-0,032
-262,467	-200,000	-0,009	0,163
-261,453	800,000	0,032	0,084
-260,438	-200,000	-0,009	0,037
-259,424	36,706	0,120	-0,076
-258,409	-78,543	-0,059	-0,015
-257,395	105,048	0,073	0,062
-256,380	89,677	0,130	0,105
-255,365	-1,036	-0,115	0,059
-254,351	-112,304	0,113	-0,016
-253,336	218,586	0,069	-0,079
-252,322	772,645	-0,007	0,014
-251,307	-200,000	-0,013	-0,080
-250,292	127,493	-0,069	-0,063
-249,278	-31,905	0,134	0,054
-248,263	800,000	0,016	0,038
-247,249	41,055	0,018	-0,011
-246,234	800,000	0,037	0,087
-245,219	322,600	-0,053	0,074
-244,205	-139,294	0,107	-0,008
-243,190	625,914	-0,018	0,033
-242,176	185,796	-0,052	0,056
-241,161	635,860	0,046	-0,085
-240,146	-200,000	0,023	0,079
-239,132	438,529	-0,028	0,045
-238,117	304,293	-0,133	-0,178
-237,103	122,838	0,150	-0,136
-236,088	-9,747	-0,040	-0,019
-235,073	-200,000	-0,006	0,039
-234,059	800,000	0,052	0,139
-233,044	17,675	-0,108	0,062
-232,030	145,043	0,098	-0,095
-231,015	-156,014	-0,071	0,003
-230,000	800,000	0,026	-0,069
-228,986	800,000	-0,051	-0,106
-227,971	800,000	-0,039	-0,105
-226,957	-116,535	0,119	-0,016
-225,942	-2,159	0,060	-0,030
-224,927	-200,000	-0,011	-0,056
-223,913	64,947	-0,118	0,086
-222,898	11,327	0,074	0,041
-221,884	422,661	-0,079	-0,124
-220,869	-53,373	0,204	0,067
-219,855	-200,000	-0,041	0,136
-218,840	-200,000	0,006	0,074
-217,825	282,922	-0,031	0,040
-216,811	230,584	-0,029	0,034
-215,796	-200,000	-0,046	0,165
-214,782	-21,253	-0,105	-0,046
-213,767	344,644	0,054	-0,076
-212,752	-200,000	0,036	0,163
-211,738	251,450	0,038	-0,047
-210,723	16,896	-0,009	0,005
-209,709	-200,000	-0,050	-0,166
-208,694	268,733	-0,078	0,099
-207,679	141,822	0,078	-0,074
-206,665	125,931	0,070	-0,064
-205,650	192,915	-0,038	-0,041
-204,636	176,780	-0,037	-0,039
-203,621	636,654	0,034	-0,063
-202,606	98,695	-0,068	0,057
-201,592	126,487	0,051	-0,046
-200,577	-200,000	-0,033	-0,153
-199,563	-15,516	-0,079	-0,036
-198,548	616,247	0,093	0,170
-197,533	368,076	-0,060	0,089
-196,519	-97,900	0,056	-0,010
-195,504	-60,140	-0,063	0,019
-194,490	-174,345	-0,200	0,004
-193,475	-132,340	0,082	0,008
-192,460	31,775	-0,093	0,057
-191,446	165,811	0,040	0,041
-190,431	-200,000	-0,017	0,067
-189,417	102,265	-0,074	-0,062
-188,402	-200,000	-0,031	-0,154
-187,387	559,360	0,019	-0,032
-186,373	113,884	-0,125	-0,109
-185,358	336,579	0,008	0,011
-184,344	78,671	0,065	-0,050
-183,329	217,771	-0,061	0,070
-182,315	82,103	0,084	-0,066
-181,300	800,000	0,014	-0,032
-180,285	29,765	-0,130	-0,080
-179,271	-98,781	-0,055	0,010
-178,256	800,000	-0,050	0,151
-177,242	35,231	0,214	0,135
-176,227	111,284	0,056	0,048
-175,212	800,000	0,082	0,186
-174,198	2,981	-0,065	0,034
-173,183	-200,000	-0,031	-0,192
-172,169	-200,000	0,017	-0,123
-171,154	-62,771	-0,037	0,011
-170,139	32,254	-0,112	0,070
-169,125	-165,807	0,097	0,003
-168,110	46,596	0,141	0,094
-167,096	449,454	-0,051	0,081
-166,081	194,859	-0,062	-0,068
-165,066	-200,000	-0,027	0,089
-164,052	399,776	-0,066	-0,101
-163,037	800,000	0,064	-0,149
-162,023	-200,000	-0,006	-0,047
-161,008	-76,862	0,090	-0,023
-159,993	24,440	-0,100	0,059
-158,979	452,417	-0,033	0,053
-157,964	12,984	0,043	0,024
-156,950	-200,000	-0,005	-0,032
-155,935	221,301	-0,047	0,054
-154,920	16,013	-0,080	0,045
-153,906	-92,020	0,075	0,015
-152,891	110,548	0,056	0,049
-151,877	-200,000	-0,004	-0,045
-150,862	140,267	-0,030	-0,028
-149,847	-119,133	0,144	-0,018
-148,833	-200,000	0,007	-0,048
-147,818	-4,780	0,135	0,067
-146,804	-82,460	0,170	0,040
-145,789	421,484	0,074	0,114
-144,775	574,653	0,067	0,119
-143,760	800,000	0,022	-0,054
-142,745	-200,000	-0,009	-0,047
-141,731	43,998	-0,015	0,010
-140,716	316,701	0,025	-0,034
-139,702	601,385	0,075	0,135
-138,687	800,000	-0,059	0,154
-137,672	-32,486	0,058	-0,023
-136,658	-200,000	0,007	-0,095
-135,643	243,809	-0,071	0,086
-134,629	800,000	0,064	-0,149
-133,614	-2,851	0,110	0,055
-132,599	159,703	0,052	-0,052
-131,585	187,375	0,021	0,023
-130,570	41,115	0,087	0,057
-129,556	203,092	-0,047	0,053
-128,541	-200,000	-0,025	-0,089
-127,526	800,000	-0,016	-0,045
-126,512	184,272	0,044	0,046
-125,497	-14,257	0,126	0,058
-124,483	220,679	-0,096	0,111
-123,468	143,788	0,120	0,116
-122,453	518,247	-0,040	0,068
-121,439	-200,000	-0,026	-0,083
-120,424	144,736	-0,059	-0,057
-119,410	-124,499	0,101	0,011
-118,395	-100,676	-0,026	-0,005
-117,380	-83,360	0,083	-0,019
-116,366	-159,603	-0,019	-0,001
-115,351	167,380	-0,068	-0,070
-114,337	-200,000	-0,015	-0,108
-113,322	-129,452	-0,110	-0,011
-112,307	407,819	-0,016	0,024
-111,293	-109,329	0,062	-0,009
-110,278	800,000	0,011	0,032
-109,264	609,981	0,025	-0,045
-108,249	-43,576	-0,097	0,035
-107,234	7,217	-0,073	0,039
-106,220	-15,291	-0,058	-0,027
-105,205	745,241	0,003	-0,005
-104,191	77,643	-0,189	-0,145
-103,176	770,139	0,038	0,075
-102,162	0,631	0,023	0,012
-101,147	46,422	-0,008	0,005
-100,132	72,001	0,075	-0,056
-99,118	235,827	0,036	0,042
-98,103	-18,124	-0,044	-0,020
-97,089	800,000	-0,010	0,031
-96,074	721,115	0,041	0,079
-95,059	44,506	0,023	0,015
-94,045	111,082	-0,064	-0,056
-93,030	617,893	0,015	-0,028
-92,016	48,199	0,178	-0,120
-91,001	226,498	0,100	-0,117
-89,986	155,367	-0,109	-0,108
-88,972	92,470	0,151	0,123
-87,957	-67,198	0,018	0,005
-86,943	272,281	-0,037	-0,048
-85,928	426,457	-0,058	-0,091
-84,913	800,000	-0,021	-0,058
-83,899	800,000	0,017	0,053
-82,884	-200,000	0,005	-0,094
-81,870	-200,000	-0,020	0,000
-80,855	87,374	-0,078	0,062
-79,840	43,043	0,079	-0,052
-78,826	-53,232	-0,098	-0,032
-77,811	-200,000	-0,010	-0,086
-76,797	193,513	-0,044	0,048
-75,782	712,460	0,025	0,049
-74,767	213,047	0,044	0,050
-73,753	-200,000	-0,005	0,121
-72,738	800,000	-0,088	0,195
-71,724	800,000	0,101	-0,269
-70,709	17,642	-0,089	-0,051
-69,694	-21,799	-0,129	-0,056
-68,680	800,000	0,026	-0,080
-67,665	141,567	-0,099	0,095
-66,651	703,560	0,037	0,070
-65,636	-200,000	-0,005	0,083
-64,622	367,035	-0,050	-0,073
-63,607	11,376	0,024	0,013
-62,592	15,287	-0,039	0,022
-61,578	369,163	-0,079	-0,115
-60,563	800,000	-0,038	0,107
-59,549	-139,010	-0,052	-0,004
-58,534	70,402	-2,766	-2,052
-57,519	218,961	0,319	-0,367
-56,505	-200,000	-1,675	-5,386
-55,490	355,574	1,119	1,605
-54,476	800,000	5,384	11,500
-53,461	-200,000	21,805	344,502
-52,446	800,000	761,254	2310,129
-51,432	518,002	1653,009	2789,193
-50,417	103,787	1617,871	1364,594
-49,403	73,540	1273,342	956,774
-48,388	25,312	1021,977	608,473
-47,373	19,233	988,260	568,265
-46,359	13,436	975,688	541,971
-45,344	9,344	972,219	526,569
-44,330	9,853	970,170	527,108
-43,315	8,798	968,349	522,637
-42,300	8,717	967,140	521,699
-41,286	8,758	965,983	521,189
-40,271	8,684	965,288	520,552
-39,257	8,665	964,184	519,873
-38,242	8,706	963,391	519,559
-37,227	8,766	962,438	519,219
-36,213	8,676	961,697	518,505
-35,198	8,664	961,036	518,089
-34,184	8,801	960,083	518,002
-33,169	8,721	959,055	517,166
-32,154	8,722	958,319	516,753
-31,140	8,717	957,365	516,201
-30,125	8,761	956,618	515,921
-29,111	8,775	955,569	515,380
-28,096	8,795	955,130	515,188
-27,082	8,770	954,442	514,715
-26,067	8,708	953,761	514,128
-25,052	8,685	952,933	513,585
-24,038	8,698	952,342	513,288
-23,023	8,656	951,705	512,791
-22,009	8,705	951,090	512,595
-20,994	8,706	950,568	512,298
-19,979	8,715	949,938	511,966
-18,965	8,683	949,209	511,449
-17,950	8,732	948,734	511,332
-16,936	8,637	947,858	510,533
-15,921	8,662	947,278	510,283
-14,906	8,604	946,476	509,642
-13,892	8,584	945,818	509,205
-12,877	8,581	945,357	508,927
-11,863	8,619	944,680	508,663
-10,848	8,682	943,905	508,428
-9,833	8,729	943,417	508,293
-8,819	8,672	942,864	507,794
-7,804	8,616	942,170	507,223
-6,790	8,660	941,598	507,033
-5,775	8,637	941,136	506,693
-4,760	8,707	940,359	506,475
-3,746	8,595	939,972	505,890
-2,731	8,490	939,186	505,116
-1,717	8,511	938,438	504,759
-0,702	8,417	938,046	504,230
0,313	8,304	937,078	504,112
1,327	11,699	935,065	513,729
2,342	20,413	783,380	453,334
3,356	15,694	450,048	253,281
4,371	-10,662	313,337	148,236
5,386	-14,259	295,547	136,161
6,400	-16,170	289,481	131,456
7,415	-16,503	286,951	129,967
8,429	-17,276	285,151	128,383
9,444	-17,381	284,196	127,840
10,459	-17,146	283,538	127,762
11,473	-17,382	282,951	127,256
12,488	-17,084	282,293	127,238
13,502	-17,254	281,906	126,888
14,517	-17,283	281,434	126,636
15,531	-17,346	281,121	126,423
16,546	-17,051	280,673	126,494
17,561	-17,231	280,251	126,120
18,575	-17,140	279,904	126,040
19,590	-17,066	279,555	125,942
20,604	-17,152	279,375	125,768
21,619	-17,329	278,846	125,349
22,634	-17,256	278,585	125,290
23,648	-17,184	278,263	125,203
24,663	-17,203	278,086	125,094
25,677	-17,088	277,625	124,985
26,692	-17,266	277,532	124,763
27,707	-17,215	277,217	124,658
28,721	-17,074	276,998	124,683
29,736	-17,128	276,713	124,493
30,750	-17,127	276,265	124,281
31,765	-17,307	276,214	124,076
32,780	-17,175	275,943	124,068
33,794	-17,192	275,563	123,870
34,809	-17,187	275,449	123,812
35,823	-17,181	275,091	123,646
36,838	-17,174	274,812	123,517
37,853	-17,222	274,556	123,345
38,867	-17,008	274,256	123,400
39,882	-17,107	274,229	123,285
40,896	-17,326	273,993	122,961
41,911	-17,253	273,704	122,890
42,926	-17,029	273,390	122,947
43,940	-17,228	273,191	122,660
44,955	-17,134	272,933	122,621
45,969	-17,269	272,726	122,391
46,984	-17,152	272,541	122,407
47,999	-17,107	272,329	122,342
49,013	-17,068	272,176	122,299
50,028	-17,056	271,770	122,117
51,042	-17,166	271,783	122,010
52,057	-17,008	271,415	121,981
53,071	-17,176	271,174	121,706
54,086	-17,016	270,850	121,697
55,101	-17,069	270,683	121,563
56,115	-16,902	270,465	121,608
57,130	-17,315	270,329	121,154
58,144	-17,141	269,868	121,098
59,159	-17,128	269,744	121,043
60,174	-17,255	269,494	120,803
61,188	-17,235	269,222	120,689
62,203	-17,176	268,917	120,595
63,217	-17,323	268,963	120,471
64,232	-17,136	268,585	120,462
65,247	-16,943	268,252	120,479
66,261	-17,326	268,227	120,106
67,276	-17,167	268,050	120,162
68,290	-17,224	267,960	120,058
69,305	-17,132	267,586	119,964
70,320	-17,095	267,287	119,853
71,334	-17,131	267,128	119,738
72,349	-17,103	266,774	119,594
73,363	-17,190	266,569	119,412
74,378	-17,133	266,421	119,387
75,393	-17,074	266,065	119,271
76,407	-17,028	265,959	119,254
77,422	-16,879	265,595	119,216
78,436	-17,164	265,451	118,882
79,451	-17,110	265,097	118,762
80,466	-17,103	264,942	118,688
81,480	-17,054	264,874	118,691
82,495	-17,072	264,683	118,579
83,509	-17,143	264,305	118,336
84,524	-17,091	264,092	118,276
85,539	-17,070	263,852	118,177
86,553	-16,974	263,714	118,191
87,568	-16,996	263,363	118,003
88,582	-17,106	263,391	117,906
89,597	-17,289	263,181	117,638
90,611	-17,184	262,978	117,631
91,626	-17,296	262,810	117,445
92,641	-17,096	262,505	117,477
93,655	-17,150	262,250	117,304
94,670	-17,005	262,040	117,329
95,684	-16,948	261,866	117,292
96,699	-17,144	261,689	117,028
97,714	-16,973	261,428	117,052
98,728	-17,155	261,303	116,824
99,743	-17,152	261,089	116,720
100,757	-17,101	260,896	116,670
101,772	-17,148	260,684	116,522
102,787	-17,086	260,431	116,454
103,801	-17,056	260,387	116,450
104,816	-17,028	260,106	116,339
105,830	-17,155	259,870	116,111
106,845	-17,146	259,764	116,061
107,860	-17,224	259,495	115,862
108,874	-17,320	259,337	115,696
109,889	-17,141	259,087	115,732
110,903	-17,137	258,844	115,616
111,918	-17,083	258,698	115,589
112,933	-16,966	258,377	115,538
113,947	-16,980	258,397	115,524
114,962	-17,046	258,002	115,279
115,976	-16,988	257,839	115,247
116,991	-17,201	257,655	114,967
118,006	-17,018	257,404	115,006
119,020	-17,194	257,303	114,796
120,035	-16,990	257,160	114,901
121,049	-16,900	256,861	114,835
122,064	-17,019	256,786	114,687
123,079	-17,037	256,566	114,564
124,093	-17,010	256,261	114,440
125,108	-17,117	256,105	114,268
126,122	-17,012	256,062	114,330
127,137	-16,951	255,743	114,230
128,151	-16,811	255,511	114,238
129,166	-16,956	255,238	113,979
130,181	-17,031	255,178	113,878
131,195	-17,080	254,860	113,683
132,210	-16,911	254,726	113,759
133,224	-17,093	254,505	113,493
134,239	-16,963	254,319	113,512
135,254	-17,029	254,094	113,345
136,268	-16,881	253,911	113,381
137,283	-16,902	253,736	113,275
138,297	-16,923	253,605	113,188
139,312	-16,936	253,360	113,058
140,327	-17,204	253,148	112,723
141,341	-16,930	252,904	112,839
142,356	-17,119	252,748	112,597
143,370	-16,962	252,521	112,621
144,385	-16,910	252,357	112,582
145,400	-17,006	252,104	112,377
146,414	-17,101	252,005	112,242
147,429	-17,014	251,813	112,220
148,443	-17,095	251,745	112,111
149,458	-16,924	251,420	112,102
150,473	-17,024	251,242	111,927
151,487	-17,154	250,970	111,686
152,502	-16,942	250,935	111,840
153,516	-16,934	250,484	111,636
154,531	-17,040	250,452	111,522
155,546	-16,964	250,300	111,509
156,560	-17,021	250,210	111,410
157,575	-16,924	249,815	111,307
158,589	-17,075	249,821	111,171
159,604	-16,976	249,577	111,137
160,619	-16,813	249,139	111,069
161,633	-17,005	249,099	110,879
162,648	-16,979	249,028	110,860
163,662	-16,966	248,799	110,759
164,677	-17,097	248,824	110,650
165,692	-17,129	248,557	110,495
166,706	-16,830	248,310	110,626
167,721	-17,040	248,197	110,390
168,735	-16,959	247,984	110,353
169,750	-16,977	247,761	110,229
170,764	-16,967	247,694	110,198
171,779	-16,996	247,559	110,104
172,794	-16,765	247,340	110,189
173,808	-16,705	247,134	110,138
174,823	-16,973	247,006	109,848
175,837	-16,974	246,818	109,753
176,852	-16,861	246,517	109,704
177,867	-17,024	246,427	109,518
178,881	-16,913	246,264	109,528
179,896	-17,119	246,216	109,326
180,910	-17,019	245,929	109,272
181,925	-16,955	245,814	109,264
182,940	-16,798	245,552	109,268
183,954	-16,897	245,359	109,090
184,969	-16,755	245,288	109,167
185,983	-17,052	245,163	108,855
186,998	-16,908	244,841	108,822
188,013	-16,839	244,683	108,799
189,027	-17,016	244,426	108,529
190,042	-16,973	244,295	108,496
191,056	-16,958	244,095	108,410
192,071	-16,926	244,034	108,400
193,086	-16,954	243,837	108,279
194,100	-16,913	243,591	108,195
195,115	-16,767	243,426	108,232
196,129	-16,821	243,174	108,066
197,144	-16,780	242,937	107,984
198,159	-16,725	242,790	107,955
199,173	-16,893	242,852	107,834
200,188	-16,807	242,593	107,780
201,202	-16,768	242,464	107,745
202,217	-16,634	242,116	107,690
203,232	-16,726	241,927	107,521
204,246	-16,954	241,898	107,313
205,261	-16,899	241,601	107,217
206,275	-15,414	241,926	108,563
207,290	-10,735	243,810	113,243
208,304	-4,735	245,849	119,140
209,319	-1,988	246,445	121,689
210,334	-0,885	246,521	122,627
211,348	0,250	246,900	123,743
212,363	0,738	246,878	124,124
213,377	1,119	246,755	124,365
214,392	1,307	246,669	124,466
215,407	1,797	246,668	124,859
216,421	1,694	246,541	124,698
217,436	1,720	246,424	124,649
218,450	1,665	246,129	124,444
219,465	1,866	246,166	124,617
220,480	1,813	245,946	124,451
221,494	1,614	245,743	124,173
222,509	1,068	245,415	123,549
223,523	0,938	245,159	123,302
224,538	0,893	244,922	123,135
225,553	0,969	244,719	123,084
226,567	0,593	244,694	122,754
227,582	0,768	244,451	122,764
228,596	0,878	244,255	122,744
229,611	0,901	244,088	122,668
230,626	0,685	243,954	122,413
231,640	0,743	243,811	122,378
232,655	0,766	243,462	122,211
233,669	0,771	243,356	122,151
234,684	0,550	243,363	121,963
235,699	0,565	243,362	121,964
236,713	0,930	242,858	121,997
237,728	0,636	242,866	121,752
238,742	0,970	242,648	121,902
239,757	0,762	242,648	121,723
240,772	0,902	242,385	121,693
241,786	0,784	242,172	121,480
242,801	0,639	242,067	121,300
243,815	0,618	242,043	121,259
244,830	0,910	241,661	121,293
245,844	0,881	241,484	121,170
246,859	0,943	241,324	121,129
247,874	0,789	241,269	120,967
248,888	0,788	241,249	120,944
249,903	0,961	240,880	120,888
250,917	0,899	240,826	120,801
251,932	0,973	240,675	120,773
252,947	1,005	240,377	120,639
253,961	0,646	240,484	120,394
254,976	0,968	239,989	120,393
255,990	0,978	239,979	120,385
257,005	0,892	239,770	120,201
258,020	0,785	239,792	120,115
259,034	0,978	239,526	120,125
260,049	0,844	239,427	119,958
261,063	0,759	239,312	119,822
262,078	0,824	239,179	119,797
263,093	0,864	238,914	119,685
264,107	0,914	238,749	119,631
265,122	0,779	238,547	119,413
266,136	0,812	238,597	119,453
267,151	0,986	238,350	119,457
268,166	0,681	238,223	119,141
269,180	0,695	237,955	119,007
270,195	0,962	237,699	119,080
271,209	0,933	237,442	118,917
272,224	0,860	237,437	118,847
273,239	0,905	237,293	118,800
274,253	0,697	237,272	118,614
275,268	0,900	237,106	118,681
276,282	0,801	236,973	118,525
277,297	0,730	236,684	118,314
278,312	1,025	236,741	118,565
279,326	0,751	236,494	118,215
280,341	0,898	236,330	118,238
281,355	0,935	236,048	118,115
282,370	0,743	236,012	117,937
283,384	0,889	235,830	117,949
284,399	0,705	235,881	117,819
285,414	0,847	235,515	117,738
286,428	0,807	235,503	117,690
287,443	0,980	235,176	117,651
288,457	0,881	235,124	117,537
289,472	0,860	234,915	117,406
290,487	0,906	234,792	117,370
291,501	0,937	234,520	117,248
292,516	0,815	234,538	117,151
293,530	0,849	234,411	117,104
294,545	1,106	234,154	117,165
295,560	0,975	234,026	116,989
296,574	0,974	233,993	116,961
297,589	1,033	233,716	116,858
298,603	0,877	233,572	116,654
299,618	0,978	233,584	116,728
300,633	1,101	233,303	116,673
301,647	1,192	233,189	116,676
302,662	0,956	233,156	116,466
303,676	1,151	232,931	116,494
304,691	1,032	232,759	116,305
305,706	1,021	232,631	116,223
306,720	1,013	232,547	116,165
307,735	1,034	232,335	116,065
308,749	1,201	232,318	116,174
309,764	0,990	232,001	115,843
310,779	1,066	231,851	115,816
311,793	1,087	231,726	115,759
312,808	0,989	231,578	115,600
313,822	1,077	231,367	115,552
314,837	1,237	231,235	115,598
315,852	1,005	231,176	115,381
316,866	1,078	231,023	115,350
317,881	1,055	230,869	115,245
318,895	1,020	230,650	115,099
319,910	1,172	230,457	115,108
320,925	1,303	230,311	115,125
321,939	0,994	230,169	114,808
322,954	0,972	230,173	114,784
323,968	1,255	230,009	114,907
324,983	1,245	229,663	114,716
325,997	1,001	229,627	114,502
327,012	1,021	229,381	114,385
328,027	1,219	229,253	114,460
329,041	1,066	229,072	114,244
330,056	1,046	229,050	114,208
331,070	0,921	229,076	114,116
332,085	1,004	228,694	113,978
333,100	0,993	228,763	113,994
334,114	1,081	228,489	113,914
335,129	1,184	228,280	113,878
336,143	1,060	228,051	113,659
337,158	1,547	227,857	113,920
338,173	1,243	227,885	113,695
339,187	1,242	227,747	113,615
340,202	1,147	227,709	113,514
341,216	1,190	227,419	113,392
342,231	1,020	227,429	113,258
343,246	1,142	227,152	113,203
344,260	1,199	227,045	113,182
345,275	1,271	226,929	113,168
346,289	1,434	226,768	113,200
347,304	1,247	226,572	112,951
348,319	1,313	226,490	112,950
349,333	1,338	226,308	112,868
350,348	1,237	226,080	112,669
351,362	1,239	226,121	112,680
352,377	1,304	225,858	112,588
353,392	1,208	225,758	112,456
354,406	1,446	225,504	112,497
355,421	191,571	1312,768	1377,647
356,435	153,428	1445,096	1377,507
