DTS Sentinel unit serial number:	SN410029Multiplexer serial number:	ORYXHardware model number:	OX2-SRSoftware version number:	ORYX F/W v4,00 Oryx Data Collector v3.7.2.0data status	okinstallation	B5 Nyhavnadifferential loss correction	single-endedforward channel	channel 2reverse channel	N/Adate	2023/12/11time	23:27:13forward acquisition time	300,00reverse acquisition time	0,00gamma	499,1914k internal	0,3155k external	0,3155temperature offset calibration	1,0000default loss term (dB/km)	0,3820temperature slope calibration	1,0000multiplexer offset coefficient	1,0000multiplexer slope coefficient	1,0000fibre end	0,00T internal ref (°C)	16,25T ext. ref 1 (°C)	-0,07T ext. ref 2 (°C)	-0,33length (m)	temperature (°C)	Stokes	anti-Stokes-744,400	-200,000	-0,024	0,194
-743,385	-96,430	-0,243	0,047
-742,371	-75,399	0,131	0,034
-741,356	-31,084	-0,209	0,087
-740,342	-200,000	0,014	0,071
-739,327	-145,269	-0,398	-0,026
-738,312	800,000	0,030	-0,096
-737,298	-121,629	-0,298	-0,036
-736,283	-164,739	-0,021	0,001
-735,269	-75,925	-0,196	0,051
-734,254	575,153	0,046	0,083
-733,239	-42,432	-0,456	-0,171
-732,225	-65,818	0,083	-0,024
-731,210	800,000	0,019	-0,052
-730,196	285,031	0,031	-0,041
-729,181	-116,692	-0,149	0,020
-728,167	-0,755	-0,070	-0,036
-727,152	676,178	-0,077	0,148
-726,137	55,970	0,007	0,005
-725,123	163,279	-0,083	-0,086
-724,108	-50,671	-0,116	0,040
-723,094	-16,076	0,052	0,024
-722,079	-200,000	0,042	-0,142
-721,064	-200,000	0,031	-0,169
-720,050	800,000	-0,046	-0,117
-719,035	179,530	0,036	-0,039
-718,021	-121,385	-0,094	0,011
-717,006	-200,000	-0,032	-0,159
-715,991	-12,579	-0,204	-0,098
-714,977	-97,166	-0,067	0,013
-713,962	800,000	-0,030	0,072
-712,948	292,788	0,058	0,079
-711,933	5,478	-0,111	-0,060
-710,918	-161,447	-0,096	-0,004
-709,904	800,000	-0,019	0,055
-708,889	34,564	-0,028	-0,018
-707,875	-200,000	0,022	-0,227
-706,860	26,332	-0,127	0,078
-705,845	800,000	-0,026	0,061
-704,831	-73,154	-0,032	0,009
-703,816	52,246	0,020	-0,014
-702,802	-120,783	0,082	-0,010
-701,787	198,400	0,048	-0,054
-700,772	231,803	0,035	-0,042
-699,758	-200,000	-0,006	-0,110
-698,743	-200,000	0,022	-0,071
-697,729	96,227	0,118	0,100
-696,714	800,000	-0,025	0,057
-695,699	61,463	-0,049	-0,035
-694,685	70,391	-0,135	-0,103
-693,670	-200,000	0,016	-0,100
-692,656	49,186	-0,151	0,104
-691,641	-63,250	0,130	0,039
-690,627	214,610	0,060	0,070
-689,612	399,406	0,046	-0,071
-688,597	-74,415	0,113	0,030
-687,583	-82,017	-0,066	-0,016
-686,568	85,276	-0,040	0,032
-685,554	708,215	0,024	0,047
-684,539	-130,172	0,086	0,009
-683,524	109,334	0,119	0,105
-682,510	-200,000	0,003	-0,036
-681,495	-200,000	-0,006	0,023
-680,481	64,190	-0,041	-0,030
-679,466	50,383	0,079	-0,055
-678,451	292,408	0,053	0,071
-677,437	-200,000	-0,006	0,035
-676,422	98,052	-0,058	0,049
-675,408	-122,537	-0,053	-0,006
-674,393	-200,000	0,001	-0,009
-673,378	508,018	-0,049	0,084
-672,364	-52,004	0,064	-0,022
-671,349	800,000	-0,030	-0,088
-670,335	169,379	-0,037	0,039
-669,320	625,773	0,094	0,175
-668,305	693,332	0,057	-0,111
-667,291	111,553	-0,078	-0,069
-666,276	223,244	-0,122	0,145
-665,262	-200,000	0,012	-0,134
-664,247	8,351	-0,062	0,034
-663,232	765,443	-0,068	0,136
-662,218	135,584	-0,075	0,072
-661,203	-142,452	-0,024	-0,002
-660,189	-15,608	-0,216	-0,101
-659,174	-200,000	-0,009	-0,143
-658,159	800,000	0,019	-0,057
-657,145	71,804	-0,103	0,078
-656,130	32,890	0,048	-0,031
-655,116	-18,638	-0,099	0,045
-654,101	-81,166	0,144	0,035
-653,086	65,208	0,045	0,033
-652,072	-200,000	0,014	-0,063
-651,057	24,413	0,088	-0,054
-650,043	-169,041	0,040	0,001
-649,028	-174,347	-0,086	-0,002
-648,014	-200,000	-0,016	0,160
-646,999	-140,166	-0,096	0,007
-645,984	129,841	0,097	-0,091
-644,970	-43,312	-0,071	-0,026
-643,955	345,160	-0,040	-0,059
-642,941	-148,385	-0,176	-0,010
-641,926	800,000	-0,034	0,078
-640,911	800,000	0,038	0,085
-639,897	-141,709	-0,010	0,001
-638,882	228,294	-0,025	-0,030
-637,868	-200,000	-0,024	-0,093
-636,853	-5,142	0,030	0,015
-635,838	-200,000	0,041	-0,199
-634,824	800,000	0,046	-0,093
-633,809	800,000	-0,057	0,129
-632,795	15,717	-0,043	-0,025
-631,780	-200,000	0,032	0,137
-630,765	-200,000	0,003	0,126
-629,751	-108,570	-0,170	0,027
-628,736	406,669	0,049	0,077
-627,722	361,976	0,009	0,013
-626,707	-175,602	-0,053	-0,001
-625,692	-200,000	0,003	-0,041
-624,678	604,018	-0,061	0,112
-623,663	-11,244	-0,062	0,030
-622,649	-58,393	-0,077	-0,024
-621,634	-200,000	-0,034	-0,112
-620,619	-200,000	-0,026	-0,109
-619,605	44,334	0,059	-0,040
-618,590	-200,000	0,024	-0,133
-617,576	-200,000	0,007	-0,058
-616,561	800,000	0,035	0,073
-615,546	-200,000	0,007	-0,051
-614,532	54,781	-0,113	-0,080
-613,517	-197,875	-0,027	-0,000
-612,503	-200,000	-0,011	-0,124
-611,488	35,378	0,123	0,079
-610,474	800,000	0,051	0,108
-609,459	-6,888	-0,030	0,015
-608,444	-200,000	-0,029	-0,113
-607,430	12,357	0,100	0,056
-606,415	-116,358	-0,054	-0,007
-605,401	27,513	-0,095	-0,058
-604,386	800,000	0,039	0,104
-603,371	-102,637	0,064	-0,011
-602,357	189,370	-0,064	0,071
-601,342	-200,000	-0,020	0,095
-600,328	399,106	0,090	-0,139
-599,313	-157,287	-0,077	-0,003
-598,298	-130,814	-0,047	0,005
-597,284	800,000	-0,025	0,064
-596,269	-52,561	-0,064	-0,022
-595,255	800,000	-0,044	0,092
-594,240	61,453	-0,076	-0,055
-593,225	-200,000	-0,024	-0,142
-592,211	-1,017	-0,125	-0,065
-591,196	-12,632	0,068	-0,032
-590,182	800,000	-0,033	0,070
-589,167	-200,000	-0,003	0,027
-588,152	578,876	0,036	0,065
-587,138	-108,095	-0,025	0,004
-586,123	129,375	-0,213	-0,199
-585,109	-200,000	0,003	-0,167
-584,094	2,957	0,055	-0,029
-583,079	-23,942	-0,121	0,053
-582,065	-130,598	0,077	0,008
-581,050	800,000	0,024	0,078
-580,036	-154,948	-0,206	-0,010
-579,021	800,000	0,036	0,089
-578,006	222,356	0,040	0,047
-576,992	-184,565	-0,085	-0,001
-575,977	800,000	0,043	-0,125
-574,963	81,705	0,060	0,047
-573,948	-200,000	-0,001	-0,044
-572,934	-200,000	-0,017	-0,103
-571,919	764,846	-0,032	0,065
-570,904	538,518	-0,053	-0,092
-569,890	25,363	0,068	-0,041
-568,875	-200,000	-0,012	0,077
-567,861	107,849	0,039	-0,034
-566,846	-200,000	-0,011	0,066
-565,831	-200,000	0,025	0,150
-564,817	-55,278	-0,078	-0,026
-563,802	388,968	-0,048	0,073
-562,788	173,989	0,034	-0,036
-561,773	104,678	0,063	-0,054
-560,758	-121,950	-0,048	0,006
-559,744	-200,000	0,001	0,098
-558,729	51,821	0,106	0,074
-557,715	-12,976	0,128	0,061
-556,700	-200,000	-0,008	-0,074
-555,685	-115,007	0,085	0,012
-554,671	71,007	0,163	0,124
-553,656	466,956	0,014	0,024
-552,642	-37,730	0,060	0,023
-551,627	800,000	-0,047	-0,108
-550,612	-200,000	-0,012	-0,154
-549,598	-106,242	-0,093	-0,015
-548,583	1,043	-0,091	-0,048
-547,569	800,000	0,014	-0,029
-546,554	-200,000	0,000	-0,061
-545,539	800,000	-0,052	0,111
-544,525	-200,000	-0,019	-0,071
-543,510	-140,043	0,168	0,013
-542,496	599,114	-0,022	0,040
-541,481	-200,000	0,011	-0,068
-540,466	-190,747	-0,129	-0,001
-539,452	-200,000	0,009	0,081
-538,437	-200,000	-0,011	0,086
-537,423	-100,608	0,090	0,016
-536,408	-200,000	0,008	0,032
-535,393	161,067	-0,098	-0,101
-534,379	-200,000	-0,000	-0,110
-533,364	-197,246	-0,061	-0,000
-532,350	1,106	0,068	0,036
-531,335	53,818	0,051	0,036
-530,321	-144,491	0,044	-0,003
-529,306	284,844	0,025	0,033
-528,291	215,482	-0,045	-0,052
-527,277	800,000	-0,045	0,113
-526,262	-200,000	-0,033	0,110
-525,248	-200,000	-0,000	0,057
-524,233	-173,431	0,045	-0,001
-523,218	-200,000	0,010	0,069
-522,204	5,880	-0,040	-0,022
-521,189	800,000	0,036	-0,106
-520,175	-200,000	0,011	-0,107
-519,160	111,412	-0,127	-0,112
-518,145	-200,000	-0,011	-0,086
-517,131	626,840	-0,042	0,078
-516,116	-200,000	-0,027	-0,095
-515,102	800,000	0,026	0,062
-514,087	365,737	0,043	-0,063
-513,072	-200,000	-0,011	-0,078
-512,058	800,000	-0,009	-0,028
-511,043	252,826	-0,067	0,083
-510,029	-200,000	0,006	0,051
-509,014	302,828	-0,039	0,054
-507,999	-200,000	-0,012	0,119
-506,985	-200,000	-0,007	-0,049
-505,970	-18,020	0,110	-0,050
-504,956	-144,157	0,102	-0,007
-503,941	319,670	0,047	-0,066
-502,926	-58,849	-0,104	-0,033
-501,912	229,627	0,070	0,084
-500,897	-200,000	0,021	-0,102
-499,883	-200,000	-0,027	-0,172
-498,868	-4,972	0,009	-0,004
-497,853	-200,000	0,042	-0,147
-496,839	149,034	-0,017	0,017
-495,824	48,381	-0,079	0,054
-494,810	172,347	-0,078	-0,082
-493,795	800,000	0,017	-0,049
-492,781	-104,712	-0,064	0,011
-491,766	557,402	-0,025	0,045
-490,751	-99,880	0,028	-0,005
-489,737	290,544	-0,039	0,052
-488,722	-117,020	0,050	-0,007
-487,708	65,229	0,055	-0,041
-486,693	-143,231	0,283	0,020
-485,678	-200,000	-0,016	0,067
-484,664	369,141	0,044	-0,066
-483,649	192,816	0,068	-0,075
-482,635	-5,804	0,091	-0,045
-481,620	4,876	0,123	0,066
-480,605	-200,000	-0,014	-0,066
-479,591	-92,041	0,286	-0,059
-478,576	-170,284	0,088	0,002
-477,562	33,056	-0,077	0,049
-476,547	179,093	-0,124	-0,133
-475,532	70,231	0,067	0,051
-474,518	-200,000	0,031	0,129
-473,503	-200,000	-0,026	0,200
-472,489	454,127	0,046	0,074
-471,474	-52,439	0,050	0,017
-470,459	-162,579	-0,152	-0,005
-469,445	-130,147	0,067	0,007
-468,430	-200,000	-0,007	-0,043
-467,416	-17,177	0,046	-0,021
-466,401	154,383	0,069	0,069
-465,386	773,277	0,029	0,057
-464,372	-139,406	0,171	0,013
-463,357	220,632	-0,057	0,066
-462,343	-200,000	0,008	-0,094
-461,328	23,740	-0,103	0,062
-460,313	-200,000	-0,005	0,045
-459,299	-15,525	0,091	0,042
-458,284	76,345	0,119	-0,092
-457,270	-115,483	-0,090	0,012
-456,255	105,956	0,042	-0,036
-455,241	-156,429	-0,147	0,007
-454,226	159,600	-0,048	0,049
-453,211	-55,843	0,035	-0,011
-452,197	66,949	-0,037	0,027
-451,182	233,655	0,014	0,017
-450,168	800,000	-0,052	0,108
-449,153	-114,123	-0,046	0,006
-448,138	800,000	0,011	-0,024
-447,124	334,716	0,051	0,073
-446,109	172,425	-0,059	0,062
-445,095	-27,740	-0,128	0,054
-444,080	-200,000	-0,001	0,078
-443,065	129,164	0,112	-0,104
-442,051	125,774	-0,030	-0,027
-441,036	85,707	0,093	-0,075
-440,022	157,237	-0,015	0,015
-439,007	800,000	-0,026	0,071
-437,992	62,552	-0,046	-0,034
-436,978	-200,000	0,043	0,208
-435,963	143,140	0,110	0,107
-434,949	-34,341	-0,145	-0,058
-433,934	-200,000	0,022	0,143
-432,919	-161,451	-0,027	-0,001
-431,905	800,000	-0,039	-0,116
-430,890	83,836	0,119	0,094
-429,876	800,000	0,020	-0,062
-428,861	-200,000	-0,030	0,121
-427,846	-200,000	0,013	0,050
-426,832	66,737	-0,144	-0,107
-425,817	800,000	-0,014	-0,041
-424,803	800,000	-0,054	0,120
-423,788	285,632	0,123	0,162
-422,773	-200,000	-0,005	-0,076
-421,759	-43,830	-0,045	-0,016
-420,744	-115,211	0,088	0,012
-419,730	285,122	-0,042	-0,056
-418,715	800,000	-0,024	-0,051
-417,701	-38,620	-0,059	0,023
-416,686	800,000	-0,051	-0,116
-415,671	277,350	0,095	0,123
-414,657	-200,000	0,023	-0,094
-413,642	101,704	0,014	-0,012
-412,628	800,000	0,028	-0,065
-411,613	645,938	-0,041	-0,076
-410,598	-140,922	-0,053	0,004
-409,584	-108,477	0,048	-0,007
-408,569	440,991	-0,058	-0,092
-407,555	800,000	0,036	0,104
-406,540	-79,034	0,045	-0,011
-405,525	582,304	-0,053	-0,096
-404,511	-106,176	-0,105	0,017
-403,496	20,824	0,039	-0,023
-402,482	449,278	0,103	0,165
-401,467	181,085	-0,083	0,088
-400,452	-7,397	0,047	0,023
-399,438	336,760	0,027	0,039
-398,423	43,760	0,020	-0,013
-397,409	227,805	-0,061	-0,072
-396,394	-200,000	0,019	0,072
-395,379	135,958	-0,031	-0,029
-394,365	-94,939	-0,046	-0,009
-393,350	-1,827	-0,014	0,007
-392,336	-114,547	-0,116	-0,016
-391,321	-29,384	0,100	-0,041
-390,306	308,496	-0,018	-0,024
-389,292	383,593	0,059	-0,089
-388,277	-35,298	-0,206	0,081
-387,263	-158,234	0,113	-0,005
-386,248	800,000	0,063	-0,146
-385,233	-200,000	-0,000	0,060
-384,219	434,774	-0,070	0,111
-383,204	-52,473	-0,070	0,023
-382,190	-4,978	-0,178	-0,089
-381,175	116,903	0,054	-0,048
-380,160	207,185	0,021	0,024
-379,146	-129,821	0,107	0,011
-378,131	-200,000	-0,018	-0,117
-377,117	-65,888	-0,034	0,010
-376,102	41,236	-0,103	-0,068
-375,088	-200,000	-0,004	-0,032
-374,073	168,660	-0,071	0,073
-373,058	233,784	0,076	-0,091
-372,044	748,043	0,039	0,076
-371,029	-200,000	0,013	0,186
-370,015	-47,967	-0,064	0,022
-369,000	-62,683	0,026	-0,008
-367,985	-42,346	-0,081	-0,030
-366,971	493,931	-0,031	-0,053
-365,956	-126,390	0,067	0,007
-364,942	20,190	0,124	0,073
-363,927	-104,055	0,090	-0,015
-362,912	-24,749	0,041	-0,018
-361,898	-3,919	-0,136	0,068
-360,883	191,567	-0,086	0,094
-359,869	212,747	-0,036	0,041
-358,854	-200,000	0,025	-0,118
-357,839	70,690	0,067	0,050
-356,825	-102,643	-0,041	0,007
-355,810	86,166	-0,066	-0,052
-354,796	140,174	0,109	-0,104
-353,781	-200,000	-0,021	-0,199
-352,766	109,949	-0,109	-0,095
-351,752	476,261	-0,039	-0,065
-350,737	128,513	0,101	-0,093
-349,723	-146,384	0,140	-0,009
-348,708	-200,000	0,019	0,087
-347,693	-200,000	0,023	0,079
-346,679	-90,656	-0,063	-0,013
-345,664	800,000	-0,055	-0,123
-344,650	800,000	-0,014	0,036
-343,635	136,055	0,121	0,115
-342,620	-162,659	-0,107	-0,004
-341,606	800,000	0,007	0,021
-340,591	-200,000	-0,025	0,095
-339,577	-192,852	-0,050	0,000
-338,562	75,470	-0,056	-0,043
-337,548	338,745	0,046	-0,066
-336,533	-135,713	0,082	-0,007
-335,518	84,804	0,075	-0,060
-334,504	-14,896	0,072	0,033
-333,489	48,085	0,144	-0,098
-332,475	10,975	-0,049	0,027
-331,460	-188,077	-0,059	0,001
-330,445	-200,000	0,010	-0,056
-329,431	-200,000	0,021	-0,085
-328,416	81,461	0,118	-0,092
-327,402	-48,969	0,042	-0,015
-326,387	-71,310	0,080	0,022
-325,372	-200,000	-0,016	-0,082
-324,358	-200,000	0,009	0,033
-323,343	63,629	-0,134	-0,098
-322,329	127,892	-0,051	0,047
-321,314	-60,931	0,020	0,006
-320,299	-19,672	0,029	-0,013
-319,285	800,000	0,006	0,014
-318,270	-200,000	0,018	-0,092
-317,256	29,948	-0,069	-0,043
-316,241	-5,910	0,051	0,025
-315,226	219,887	0,037	0,043
-314,212	-79,762	-0,115	0,028
-313,197	800,000	-0,039	-0,099
-312,183	-18,009	-0,070	0,032
-311,168	36,217	-0,069	-0,044
-310,153	286,135	-0,077	-0,101
-309,139	-103,839	0,105	0,018
-308,124	-73,043	0,189	-0,050
-307,110	497,580	0,039	-0,065
-306,095	530,223	0,035	-0,061
-305,080	4,643	-0,090	-0,048
-304,066	-58,203	0,114	0,036
-303,051	220,937	0,017	0,019
-302,037	-166,145	-0,117	-0,004
-301,022	-200,000	0,017	0,169
-300,008	800,000	0,009	0,022
-298,993	-200,000	0,054	0,178
-297,978	800,000	0,026	0,078
-296,964	-46,743	-0,008	0,003
-295,949	209,817	-0,050	-0,057
-294,935	16,699	0,121	0,069
-293,920	-200,000	-0,004	-0,065
-292,905	-157,320	-0,083	-0,004
-291,891	-200,000	-0,010	-0,041
-290,876	172,315	0,075	0,079
-289,862	53,536	-0,015	-0,010
-288,847	800,000	0,032	-0,085
-287,832	-126,487	0,033	-0,004
-286,818	800,000	-0,029	-0,079
-285,803	-49,383	-0,081	-0,028
-284,789	-102,736	0,135	0,023
-283,774	-16,469	-0,017	-0,008
-282,759	-200,000	-0,021	-0,074
-281,745	633,651	0,047	-0,086
-280,730	-200,000	0,024	-0,171
-279,716	79,883	-0,097	0,076
-278,701	800,000	-0,021	0,065
-277,686	800,000	0,097	0,197
-276,672	242,592	0,008	0,010
-275,657	-200,000	-0,029	-0,103
-274,643	9,275	0,092	0,050
-273,628	188,207	-0,110	0,119
-272,613	-200,000	0,004	-0,032
-271,599	800,000	-0,042	0,097
-270,584	-128,452	0,120	-0,012
-269,570	-200,000	-0,028	0,129
-268,555	-200,000	0,008	0,035
-267,540	-60,098	0,032	0,010
-266,526	-200,000	-0,023	-0,131
-265,511	686,152	-0,028	-0,053
-264,497	-200,000	0,042	0,140
-263,482	-107,885	0,101	0,016
-262,467	252,234	0,027	0,033
-261,453	-32,102	-0,129	0,052
-260,438	-200,000	-0,019	-0,071
-259,424	-139,422	-0,112	-0,009
-258,409	-108,803	-0,011	0,002
-257,395	800,000	0,043	-0,113
-256,380	-200,000	0,014	0,173
-255,365	272,305	0,098	0,125
-254,351	800,000	0,034	0,077
-253,336	590,499	-0,019	0,034
-252,322	-26,596	-0,109	0,046
-251,307	-62,530	-0,040	0,012
-250,292	101,306	-0,092	-0,078
-249,278	95,809	0,073	0,061
-248,263	99,056	0,111	0,093
-247,249	-109,705	0,130	-0,020
-246,234	-8,599	0,039	0,019
-245,219	-200,000	-0,019	-0,185
-244,205	196,175	-0,074	-0,082
-243,190	-111,052	-0,092	0,014
-242,176	-4,565	0,037	-0,018
-241,161	-200,000	-0,019	0,064
-240,146	338,012	-0,003	-0,005
-239,132	-200,000	0,022	-0,117
-238,117	70,658	-0,098	-0,073
-237,103	-200,000	0,004	-0,028
-236,088	800,000	-0,046	0,094
-235,073	800,000	-0,032	-0,081
-234,059	-56,200	0,125	0,040
-233,044	-200,000	0,016	-0,074
-232,030	175,947	-0,067	-0,071
-231,015	63,019	0,029	-0,021
-230,000	-84,769	0,119	0,027
-228,986	800,000	-0,022	0,064
-227,971	83,201	-0,049	0,038
-226,957	-85,659	0,033	0,007
-225,942	-10,494	0,108	-0,051
-224,927	-91,382	-0,086	0,018
-223,913	800,000	-0,028	-0,067
-222,898	800,000	-0,013	0,033
-221,884	540,173	-0,125	-0,217
-220,869	243,651	0,140	0,170
-219,855	47,779	0,055	0,037
-218,840	502,251	0,035	-0,058
-217,825	9,389	-0,178	-0,097
-216,811	-200,000	-0,007	-0,131
-215,796	-146,711	0,046	0,003
-214,782	800,000	0,019	-0,043
-213,767	104,462	-0,073	0,062
-212,752	-9,055	0,113	0,055
-211,738	-200,000	0,033	0,157
-210,723	5,625	-0,065	-0,035
-209,709	348,366	-0,057	-0,082
-208,694	-200,000	0,002	-0,011
-207,679	-118,080	0,136	-0,017
-206,665	67,057	-0,070	0,051
-205,650	-200,000	-0,016	0,071
-204,636	356,314	0,056	0,080
-203,621	-23,271	0,102	-0,044
-202,606	800,000	-0,021	0,047
-201,592	-139,126	-0,201	-0,015
-200,577	173,632	-0,096	-0,100
-199,563	28,358	-0,095	-0,058
-198,548	-136,665	0,053	-0,004
-197,533	800,000	0,043	0,136
-196,519	-81,448	0,155	0,037
-195,504	-1,067	0,109	0,056
-194,490	67,683	-0,097	0,072
-193,475	-30,180	0,035	0,014
-192,460	129,637	-0,077	-0,071
-191,446	301,911	0,066	0,088
-190,431	88,034	0,063	0,051
-189,417	-41,283	-0,080	-0,029
-188,402	242,688	-0,067	0,081
-187,387	49,566	0,078	-0,053
-186,373	-51,042	-0,033	0,011
-185,358	-102,045	-0,147	0,025
-184,344	-200,000	-0,018	-0,093
-183,329	800,000	0,031	0,078
-182,315	-81,484	0,026	0,006
-181,300	-26,699	0,132	0,056
-180,285	800,000	0,055	0,111
-179,271	800,000	0,036	-0,085
-178,256	-42,574	0,072	0,026
-177,242	-200,000	-0,004	0,027
-176,227	-200,000	-0,047	0,177
-175,212	-200,000	0,044	0,162
-174,198	-31,640	-0,067	0,027
-173,183	-183,434	-0,071	-0,001
-172,169	-114,437	-0,041	0,006
-171,154	-200,000	0,001	-0,051
-170,139	-200,000	-0,005	-0,035
-169,125	-86,317	0,091	-0,020
-168,110	-96,008	0,076	0,015
-167,096	-9,754	-0,062	0,030
-166,081	40,976	0,063	0,041
-165,066	800,000	0,006	0,013
-164,052	-200,000	-0,030	-0,118
-163,037	142,567	0,100	-0,096
-162,023	-200,000	-0,005	-0,046
-161,008	121,821	0,077	0,069
-159,993	20,609	0,081	0,047
-158,979	-16,965	-0,054	-0,025
-157,964	-200,000	-0,012	-0,099
-156,950	656,093	0,024	0,045
-155,935	800,000	0,017	0,043
-154,920	41,816	0,049	0,032
-153,906	800,000	-0,047	-0,121
-152,891	298,991	-0,073	0,097
-151,877	175,497	0,062	-0,065
-150,862	200,751	-0,065	-0,072
-149,847	-104,910	-0,027	0,004
-148,833	-166,519	-0,154	0,005
-147,818	-117,150	0,074	0,010
-146,804	22,482	0,076	-0,045
-145,789	-172,299	0,132	0,003
-144,775	-101,580	-0,143	-0,025
-143,760	-51,745	-0,088	0,029
-142,745	-200,000	0,002	-0,080
-141,731	86,058	0,088	-0,070
-140,716	-200,000	0,025	0,081
-139,702	34,283	0,025	-0,016
-138,687	-95,915	-0,031	0,006
-137,672	-96,690	-0,049	-0,009
-136,658	-200,000	-0,000	-0,060
-135,643	796,452	-0,036	-0,073
-134,629	-200,000	0,003	-0,119
-133,614	-97,578	0,084	0,016
-132,599	583,283	-0,015	-0,027
-131,585	800,000	-0,052	0,106
-130,570	800,000	-0,034	0,096
-129,556	102,046	-0,062	-0,052
-128,541	-200,000	-0,003	0,020
-127,526	200,268	0,054	-0,060
-126,512	558,143	0,077	-0,134
-125,497	-200,000	0,020	0,099
-124,483	-200,000	-0,022	0,082
-123,468	523,238	0,078	-0,132
-122,453	-200,000	0,000	0,096
-121,439	-200,000	0,011	0,093
-120,424	-4,875	0,036	0,018
-119,410	-200,000	-0,006	0,021
-118,395	469,469	-0,015	-0,025
-117,380	-21,771	0,103	0,045
-116,366	-200,000	-0,000	0,024
-115,351	800,000	0,016	0,042
-114,337	26,455	-0,061	-0,037
-113,322	25,282	-0,076	-0,046
-112,307	-185,057	0,147	0,002
-111,293	-200,000	-0,049	0,162
-110,278	-167,618	0,165	0,005
-109,264	800,000	-0,066	-0,137
-108,249	-76,888	-0,073	0,018
-107,234	800,000	0,022	-0,069
-106,220	-200,000	-0,066	0,000
-105,205	-200,000	-0,022	0,078
-104,191	-200,000	0,024	0,156
-103,176	-200,000	0,012	0,087
-102,162	-70,698	0,065	-0,018
-101,147	-45,975	-0,046	0,016
-100,132	282,846	-0,031	0,040
-99,118	178,615	0,070	-0,073
-98,103	-200,000	-0,005	-0,060
-97,089	163,718	0,047	-0,048
-96,074	-200,000	0,021	0,080
-95,059	-47,112	-0,130	-0,045
-94,045	34,978	-0,082	-0,051
-93,030	714,643	-0,060	-0,115
-92,016	3,436	0,049	0,026
-91,001	163,654	-0,053	0,054
-89,986	-200,000	-0,030	0,144
-88,972	-35,379	0,139	0,054
-87,957	-200,000	-0,023	0,075
-86,943	800,000	-0,041	0,128
-85,928	254,367	-0,008	-0,010
-84,913	-14,286	-0,069	-0,032
-83,899	-66,134	0,152	-0,043
-82,884	-200,000	0,001	-0,026
-81,870	-48,959	0,139	0,048
-80,855	93,665	0,034	0,028
-79,840	800,000	-0,042	-0,103
-78,826	-162,984	-0,011	0,000
-77,811	-136,209	0,017	-0,001
-76,797	96,412	-0,111	0,091
-75,782	-200,000	0,019	0,167
-74,767	-200,000	-0,002	-0,024
-73,753	526,892	-0,030	-0,050
-72,738	-11,684	0,049	-0,023
-71,724	60,606	-0,058	-0,042
-70,709	-133,468	-0,166	-0,015
-69,694	152,025	-0,053	-0,052
-68,680	-57,298	0,083	-0,026
-67,665	800,000	-0,026	-0,076
-66,651	78,775	-0,045	0,035
-65,636	-47,660	0,172	-0,060
-64,622	2,061	0,032	-0,017
-63,607	-127,038	-0,065	0,007
-62,592	-90,188	-0,027	0,006
-61,578	-200,000	-0,016	0,096
-60,563	-26,300	-0,068	-0,029
-59,549	70,668	-0,052	-0,038
-58,534	-28,290	-1,960	-0,809
-57,519	-200,000	-0,314	-1,060
-56,505	-200,000	-1,170	-4,996
-55,490	-10,945	0,712	0,336
-54,476	800,000	5,334	12,141
-53,461	-200,000	17,084	280,217
-52,446	800,000	720,084	2223,551
-51,432	546,070	1635,353	2819,104
-50,417	113,147	1630,341	1419,654
-49,403	76,721	1287,651	980,063
-48,388	33,418	1030,462	641,129
-47,373	20,438	992,225	574,435
-46,359	19,006	980,519	562,925
-45,344	16,514	976,831	552,602
-44,330	16,777	975,165	552,502
-43,315	16,329	973,504	550,071
-42,300	16,258	972,221	549,093
-41,286	16,269	971,294	548,581
-40,271	16,296	970,253	548,060
-39,257	16,247	969,400	547,397
-38,242	16,298	968,519	547,045
-37,227	16,317	967,637	546,585
-36,213	16,329	966,819	546,143
-35,198	16,310	965,832	545,501
-34,184	16,289	965,317	545,121
-33,169	16,266	964,070	544,321
-32,154	16,325	963,154	543,970
-31,140	16,382	962,221	543,609
-30,125	16,309	961,699	543,055
-29,111	16,286	960,614	542,345
-28,096	16,276	960,240	542,083
-27,082	16,282	959,416	541,615
-26,067	16,298	958,743	541,265
-25,052	16,253	958,074	540,720
-24,038	16,245	957,375	540,278
-23,023	16,259	956,738	539,942
-22,009	16,289	955,817	539,500
-20,994	16,282	955,240	539,127
-19,979	16,298	954,842	538,935
-18,965	16,291	954,224	538,541
-17,950	16,313	953,433	538,142
-16,936	16,270	952,785	537,618
-15,921	16,188	952,193	537,001
-14,906	16,182	951,562	536,606
-13,892	16,198	950,918	536,270
-12,877	16,179	950,070	535,712
-11,863	16,131	949,522	535,226
-10,848	16,126	949,114	534,961
-9,833	16,248	948,479	534,970
-8,819	16,197	948,061	534,549
-7,804	16,213	946,984	533,972
-6,790	16,131	946,483	533,408
-5,775	16,152	945,985	533,172
-4,760	16,217	945,218	532,925
-3,746	16,207	944,670	532,566
-2,731	16,091	944,045	531,822
-1,717	15,997	943,528	531,214
-0,702	15,967	943,022	530,810
0,313	15,785	942,246	530,598
1,327	19,127	939,990	539,842
2,342	28,293	797,578	482,426
3,356	25,183	461,092	274,100
4,371	-2,457	314,781	157,722
5,386	-6,647	296,361	144,235
6,400	-8,750	290,421	139,242
7,415	-9,122	288,033	137,718
8,429	-9,288	286,568	136,842
9,444	-9,284	285,542	136,344
10,459	-9,086	284,770	136,157
11,473	-9,529	284,477	135,573
12,488	-9,154	283,763	135,585
13,502	-9,203	283,369	135,337
14,517	-9,036	282,924	135,274
15,531	-9,195	282,399	134,857
16,546	-9,234	282,046	134,640
17,561	-9,256	281,656	134,420
18,575	-9,114	281,306	134,378
19,590	-9,244	281,068	134,127
20,604	-9,196	280,788	134,027
21,619	-9,312	280,454	133,745
22,634	-9,284	280,103	133,592
23,648	-9,260	279,590	133,359
24,663	-9,297	279,444	133,242
25,677	-9,202	279,086	133,149
26,692	-9,147	278,833	133,069
27,707	-9,193	278,550	132,878
28,721	-9,343	278,422	132,664
29,736	-9,242	278,090	132,589
30,750	-9,232	277,863	132,479
31,765	-9,201	277,591	132,367
32,780	-9,102	277,276	132,298
33,794	-9,218	277,184	132,132
34,809	-9,143	276,830	132,024
35,823	-9,319	276,584	131,728
36,838	-9,173	276,284	131,711
37,853	-9,322	276,100	131,471
38,867	-9,340	275,755	131,278
39,882	-9,308	275,674	131,258
40,896	-9,308	275,392	131,112
41,911	-9,185	275,150	131,101
42,926	-9,277	274,752	130,813
43,940	-9,195	274,696	130,851
44,955	-9,142	274,412	130,755
45,969	-9,220	274,095	130,518
46,984	-9,594	273,879	130,055
47,999	-9,703	273,659	129,837
49,013	-9,656	273,296	129,697
50,028	-9,604	272,987	129,588
51,042	-9,861	272,892	129,290
52,057	-9,843	272,561	129,139
53,071	-9,851	272,373	129,031
54,086	-9,704	272,222	129,084
55,101	-9,694	272,042	128,998
56,115	-9,583	271,880	129,012
57,130	-9,117	271,625	129,311
58,144	-9,006	271,642	129,411
59,159	-9,017	271,313	129,232
60,174	-9,040	271,069	129,083
61,188	-9,041	270,829	128,956
62,203	-9,196	270,765	128,771
63,217	-9,084	270,327	128,655
64,232	-9,160	270,217	128,521
65,247	-9,179	270,027	128,402
66,261	-9,203	269,788	128,254
67,276	-9,378	269,510	127,950
68,290	-9,488	269,241	127,710
69,305	-9,462	269,001	127,608
70,320	-9,536	268,865	127,465
71,334	-9,218	268,633	127,635
72,349	-9,156	268,479	127,606
73,363	-9,093	268,173	127,507
74,378	-9,085	268,042	127,441
75,393	-9,111	267,826	127,303
76,407	-9,079	267,678	127,250
77,422	-9,257	267,474	126,980
78,436	-8,978	267,235	127,110
79,451	-9,268	266,974	126,710
80,466	-9,247	266,665	126,571
81,480	-9,314	266,532	126,436
82,495	-9,121	266,094	126,392
83,509	-9,033	266,084	126,455
84,524	-9,350	265,797	126,021
85,539	-9,271	265,628	126,001
86,553	-9,520	265,554	125,730
87,568	-9,398	265,287	125,703
88,582	-9,356	265,065	125,624
89,597	-9,357	264,917	125,541
90,611	-9,149	264,713	125,621
91,626	-9,073	264,424	125,540
92,641	-9,082	264,373	125,498
93,655	-9,166	264,085	125,274
94,670	-9,353	263,857	124,987
95,684	-9,168	263,714	125,074
96,699	-9,256	263,536	124,900
97,714	-9,239	263,309	124,796
98,728	-9,361	263,013	124,536
99,743	-9,480	262,856	124,344
100,757	-9,556	262,645	124,165
101,772	-9,296	262,412	124,276
102,787	-9,224	262,230	124,243
103,801	-9,165	262,122	124,233
104,816	-9,153	262,024	124,186
105,830	-8,719	261,606	124,362
106,845	-9,219	261,712	123,958
107,860	-8,969	261,260	123,953
108,874	-9,326	261,232	123,613
109,889	-8,999	260,820	123,696
110,903	-9,300	260,621	123,325
111,918	-9,407	260,565	123,192
112,933	-9,295	260,340	123,175
113,947	-9,023	259,960	123,223
114,962	-9,447	260,019	122,867
115,976	-9,133	259,834	123,044
116,991	-9,230	259,725	122,897
118,006	-9,220	259,515	122,795
119,020	-9,306	259,412	122,660
120,035	-9,227	259,181	122,610
121,049	-9,212	258,869	122,464
122,064	-8,911	258,674	122,624
123,079	-8,985	258,572	122,500
124,093	-9,321	258,280	122,057
125,108	-9,308	258,034	121,941
126,122	-9,527	257,997	121,722
127,137	-9,700	257,659	121,400
128,151	-9,513	257,334	121,399
129,166	-9,353	257,281	121,503
130,181	-9,263	256,974	121,425
131,195	-9,390	256,919	121,278
132,210	-9,191	256,638	121,308
133,224	-9,076	256,493	121,329
134,239	-9,003	256,338	121,308
135,254	-9,100	256,158	121,127
136,268	-9,179	255,922	120,936
137,283	-9,540	255,788	120,549
138,297	-9,392	255,352	120,462
139,312	-9,545	255,253	120,272
140,327	-9,256	255,204	120,488
141,341	-9,132	255,079	120,525
142,356	-8,986	254,744	120,482
143,370	-9,188	254,773	120,310
144,385	-8,984	254,447	120,322
145,400	-8,927	254,372	120,324
146,414	-8,908	254,138	120,219
147,429	-8,996	253,973	120,054
148,443	-9,157	253,938	119,889
149,458	-8,747	253,623	120,081
150,473	-8,898	253,526	119,896
151,487	-9,163	253,336	119,568
152,502	-9,095	253,072	119,491
153,516	-8,864	252,897	119,595
154,531	-8,957	252,732	119,427
155,546	-9,069	252,560	119,239
156,560	-8,937	252,279	119,208
157,575	-9,210	252,206	118,931
158,589	-9,006	251,989	118,992
159,604	-8,979	251,815	118,922
160,619	-9,017	251,586	118,771
161,633	-8,946	251,515	118,787
162,648	-8,840	251,230	118,732
163,662	-8,750	251,000	118,689
164,677	-8,888	250,894	118,511
165,692	-9,015	250,870	118,382
166,706	-8,842	250,659	118,418
167,721	-9,068	250,494	118,139
168,735	-8,969	250,220	118,083
169,750	-8,890	250,323	118,187
170,764	-8,759	249,946	118,109
171,779	-8,968	249,792	117,849
172,794	-8,964	249,626	117,764
173,808	-8,906	249,436	117,712
174,823	-9,294	249,054	117,196
175,837	-9,459	248,929	116,988
176,852	-9,041	248,817	117,276
177,867	-9,000	248,801	117,292
178,881	-8,969	248,571	117,200
179,896	-9,010	248,348	117,049
180,910	-8,981	248,275	117,029
181,925	-8,895	248,027	116,973
182,940	-8,953	247,993	116,898
183,954	-8,985	247,742	116,743
184,969	-8,952	247,721	116,751
185,983	-8,875	247,515	116,707
186,998	-8,884	247,338	116,605
188,013	-8,867	247,033	116,466
189,027	-8,907	246,901	116,359
190,042	-8,903	246,632	116,226
191,056	-8,978	246,448	116,067
192,071	-8,814	246,328	116,135
193,086	-8,786	246,146	116,063
194,100	-8,916	245,977	115,865
195,115	-8,990	246,039	115,823
196,129	-9,027	245,695	115,620
197,144	-8,971	245,464	115,547
198,159	-8,778	245,300	115,619
199,173	-9,056	245,090	115,280
200,188	-8,951	244,996	115,312
201,202	-9,405	244,774	114,823
202,217	-9,495	244,411	114,569
203,232	-9,377	244,086	114,503
204,246	-9,212	244,294	114,726
205,261	-8,880	244,081	114,888
206,275	-9,640	243,744	114,096
207,290	-6,085	245,098	117,649
208,304	-0,102	246,900	123,458
209,319	2,227	247,422	125,636
210,334	2,582	247,618	126,018
211,348	2,917	247,302	126,123
212,363	3,082	247,173	126,182
213,377	3,507	247,171	126,521
214,392	3,219	247,058	126,214
215,407	3,143	246,845	126,032
216,421	3,281	246,583	126,000
217,436	3,436	246,585	126,117
218,450	3,541	246,427	126,111
219,465	3,402	246,137	125,838
220,480	3,038	245,989	125,452
221,494	2,996	245,896	125,358
222,509	3,195	245,775	125,450
223,523	3,248	245,456	125,319
224,538	2,588	245,199	124,636
225,553	2,760	245,157	124,745
226,567	2,860	244,910	124,689
227,582	2,969	244,798	124,710
228,596	3,025	244,598	124,643
229,611	2,610	244,294	124,138
230,626	2,695	244,299	124,199
231,640	2,801	244,065	124,156
232,655	3,065	243,971	124,312
233,669	2,910	243,870	124,123
234,684	2,667	243,590	123,772
235,699	3,058	243,628	124,098
236,713	3,259	243,473	124,171
237,728	2,779	243,300	123,682
238,742	2,903	242,941	123,589
239,757	2,857	242,821	123,480
240,772	2,939	242,694	123,470
241,786	3,029	242,513	123,441
242,801	2,801	242,237	123,105
243,815	2,677	242,109	122,929
244,830	2,945	242,030	123,094
245,844	3,144	241,910	123,182
246,859	3,014	241,785	123,002
247,874	2,853	241,568	122,752
248,888	2,977	241,503	122,808
249,903	2,875	241,296	122,609
250,917	3,054	241,159	122,673
251,932	3,427	241,002	122,881
252,947	2,960	241,008	122,499
253,961	2,669	240,770	122,133
254,976	3,071	240,451	122,282
255,990	3,062	240,405	122,241
257,005	2,835	240,233	121,961
258,020	2,597	239,947	121,615
259,034	2,876	239,777	121,741
260,049	3,018	239,668	121,787
261,063	2,578	239,751	121,468
262,078	2,658	239,419	121,353
263,093	3,097	239,383	121,673
264,107	2,876	239,276	121,432
265,122	2,844	238,876	121,193
266,136	2,954	238,953	121,309
267,151	3,297	238,749	121,467
268,166	2,920	238,497	121,028
269,180	2,615	238,309	120,681
270,195	3,314	238,372	121,255
271,209	3,280	238,371	121,217
272,224	2,817	237,932	120,617
273,239	2,587	237,675	120,295
274,253	2,755	237,451	120,303
275,268	2,971	237,522	120,498
276,282	3,119	237,249	120,466
277,297	2,663	237,178	120,060
278,312	2,859	236,803	120,014
279,326	2,861	236,901	120,054
280,341	2,863	236,797	119,992
281,355	2,755	236,663	119,829
282,370	3,102	236,438	119,976
283,384	2,780	236,528	119,759
284,399	2,836	236,144	119,598
285,414	2,817	235,765	119,380
286,428	2,843	235,811	119,413
287,443	2,896	235,647	119,361
288,457	3,206	235,477	119,506
289,472	3,140	235,305	119,357
290,487	3,003	235,312	119,243
291,501	2,820	235,105	118,984
292,516	2,713	234,741	118,707
293,530	2,574	234,571	118,501
294,545	2,864	234,668	118,765
295,560	2,946	234,451	118,709
296,574	2,577	234,206	118,288
297,589	2,675	234,131	118,315
298,603	2,915	234,166	118,509
299,618	3,030	233,843	118,425
300,633	3,065	233,771	118,405
301,647	3,209	233,676	118,457
302,662	3,507	233,608	118,642
303,676	3,414	233,379	118,444
304,691	3,297	233,250	118,277
305,706	3,365	233,197	118,292
306,720	3,373	233,022	118,200
307,735	3,097	232,881	117,905
308,749	3,114	232,515	117,722
309,764	2,735	232,472	117,398
310,779	2,540	232,193	117,096
311,793	2,576	232,035	117,034
312,808	2,715	231,869	117,046
313,822	2,671	231,665	116,899
314,837	2,638	231,541	116,801
315,852	2,781	231,283	116,770
316,866	2,686	231,416	116,754
317,881	2,956	231,365	116,924
318,895	3,136	231,222	116,980
319,910	3,357	230,912	116,981
320,925	3,197	230,732	116,758
321,939	2,912	230,732	116,529
322,954	3,061	230,453	116,492
323,968	3,009	230,358	116,394
324,983	2,918	230,141	116,204
325,997	3,024	230,122	116,265
327,012	3,001	229,802	116,076
328,027	2,988	229,862	116,085
329,041	3,397	229,720	116,314
330,056	3,717	229,661	116,517
331,070	3,606	229,603	116,393
332,085	3,241	229,219	115,911
333,100	2,895	228,809	115,432
334,114	2,967	229,061	115,604
335,129	3,380	228,850	115,799
336,143	3,361	228,743	115,720
337,158	3,263	228,596	115,562
338,173	3,560	228,370	115,661
339,187	3,179	228,251	115,303
340,202	3,251	228,276	115,360
341,216	3,422	227,915	115,296
342,231	3,220	227,772	115,061
343,246	3,352	227,482	115,004
344,260	3,279	227,525	114,960
345,275	3,331	227,579	115,016
346,289	3,389	227,374	114,946
347,304	3,388	227,192	114,843
348,319	3,335	227,041	114,717
349,333	3,233	226,659	114,436
350,348	2,916	226,623	114,171
351,362	3,324	226,562	114,435
352,377	3,172	226,383	114,222
353,392	3,235	226,120	114,125
354,406	3,160	225,912	113,955
355,421	196,313	1319,839	1399,878
356,435	157,396	1453,133	1399,893
