DTS Sentinel unit serial number:	SN410029Multiplexer serial number:	ORYXHardware model number:	OX2-SRSoftware version number:	ORYX F/W v4,00 Oryx Data Collector v3.7.2.0data status	okinstallation	B5 Nyhavnadifferential loss correction	single-endedforward channel	channel 2reverse channel	N/Adate	2023/12/12time	16:52:13forward acquisition time	300,00reverse acquisition time	0,00gamma	499,1914k internal	0,3156k external	0,3156temperature offset calibration	1,0000default loss term (dB/km)	0,3820temperature slope calibration	1,0000multiplexer offset coefficient	1,0000multiplexer slope coefficient	1,0000fibre end	0,00T internal ref (°C)	15,79T ext. ref 1 (°C)	-0,75T ext. ref 2 (°C)	-1,04length (m)	temperature (°C)	Stokes	anti-Stokes-744,400	-86,795	0,054	0,012
-743,385	15,526	-0,361	-0,209
-742,371	800,000	0,032	0,097
-741,356	-119,865	-0,284	0,036
-740,342	-30,616	0,144	-0,060
-739,327	-63,027	-0,334	0,101
-738,312	1,550	0,048	0,025
-737,298	-193,218	-0,309	0,002
-736,283	800,000	0,081	0,167
-735,269	-7,780	-0,221	0,110
-734,254	800,000	0,059	0,128
-733,239	1,404	-0,405	-0,214
-732,225	-128,576	0,162	0,017
-731,210	-70,996	0,041	0,011
-730,196	-77,015	-0,160	0,041
-729,181	28,464	-0,069	-0,043
-728,167	-11,717	-0,057	-0,027
-727,152	590,747	0,053	-0,098
-726,137	276,061	-0,107	-0,140
-725,123	-88,071	-0,068	0,015
-724,108	9,225	-0,135	-0,075
-723,094	602,697	-0,049	-0,090
-722,079	-200,000	0,060	-0,211
-721,064	-71,841	-0,099	-0,027
-720,050	-200,000	0,043	0,153
-719,035	800,000	-0,066	-0,141
-718,021	761,287	-0,040	-0,080
-717,006	-34,102	0,026	-0,010
-715,991	-60,506	-0,038	0,012
-714,977	800,000	0,092	-0,255
-713,962	-74,548	-0,122	-0,032
-712,948	169,275	-0,085	-0,089
-711,933	348,868	-0,043	-0,063
-710,918	800,000	-0,015	0,045
-709,904	800,000	-0,027	-0,086
-708,889	800,000	-0,064	-0,182
-707,875	273,139	0,123	-0,160
-706,860	-148,778	-0,011	0,001
-705,845	177,464	-0,086	-0,093
-704,831	90,672	0,009	0,008
-703,816	-115,819	-0,089	-0,012
-702,802	-200,000	0,028	-0,111
-701,787	76,305	-0,056	0,044
-700,772	-120,261	-0,070	-0,009
-699,758	-90,612	0,067	-0,014
-698,743	-127,587	0,049	0,005
-697,729	-200,000	0,000	0,024
-696,714	800,000	0,026	0,067
-695,699	-39,810	0,024	0,009
-694,685	-200,000	0,033	-0,166
-693,670	-98,593	-0,142	-0,026
-692,656	-99,022	0,061	0,011
-691,641	432,549	0,013	-0,020
-690,627	800,000	-0,018	0,037
-689,612	-49,384	-0,023	0,008
-688,597	-58,475	-0,179	-0,057
-687,583	88,948	-0,065	0,053
-686,568	-166,964	0,106	-0,003
-685,554	7,042	0,039	-0,021
-684,539	65,837	-0,084	-0,062
-683,524	800,000	0,085	-0,185
-682,510	463,149	-0,105	0,173
-681,495	126,711	-0,043	-0,040
-680,481	-120,659	-0,075	0,009
-679,466	800,000	-0,047	-0,119
-678,451	800,000	0,031	-0,090
-677,437	289,818	-0,070	0,094
-676,422	-200,000	0,002	0,080
-675,408	533,896	0,021	-0,036
-674,393	-158,099	-0,128	0,005
-673,378	-200,000	-0,014	-0,088
-672,364	-68,420	-0,148	-0,042
-671,349	328,511	0,039	0,055
-670,335	800,000	0,066	0,137
-669,320	800,000	-0,021	0,049
-668,305	-110,075	-0,028	0,004
-667,291	-200,000	-0,002	-0,026
-666,276	800,000	-0,058	-0,120
-665,262	800,000	0,027	-0,061
-664,247	285,807	-0,035	0,046
-663,232	381,070	-0,016	0,025
-662,218	-98,418	0,011	-0,002
-661,203	-200,000	0,047	0,194
-660,189	-124,635	-0,065	0,007
-659,174	1,592	-0,126	0,067
-658,159	800,000	-0,025	-0,058
-657,145	-200,000	-0,028	0,181
-656,130	-29,473	-0,037	0,015
-655,116	-200,000	-0,007	0,038
-654,101	114,852	-0,016	0,014
-653,086	30,430	-0,063	-0,039
-652,072	269,957	-0,020	0,026
-651,057	-200,000	-0,006	-0,065
-650,043	173,880	-0,063	0,067
-649,028	-72,219	-0,062	-0,017
-648,014	191,556	0,058	-0,065
-646,999	-29,694	-0,071	0,030
-645,984	-111,971	-0,046	0,007
-644,970	-95,727	-0,130	0,025
-643,955	800,000	0,050	-0,125
-642,941	-79,160	-0,108	-0,027
-641,926	-110,235	-0,123	-0,019
-640,911	-158,500	0,067	0,003
-639,897	336,118	0,052	-0,075
-638,882	197,447	-0,008	-0,009
-637,868	800,000	-0,038	0,097
-636,853	760,435	-0,064	0,127
-635,838	114,767	0,031	-0,027
-634,824	1,142	-0,079	-0,042
-633,809	-20,190	-0,071	-0,032
-632,795	159,865	0,063	0,064
-631,780	84,158	-0,080	0,064
-630,765	-200,000	-0,016	-0,106
-629,751	-1,514	0,045	-0,023
-628,736	65,073	-0,079	0,059
-627,722	-121,387	0,098	-0,012
-626,707	-200,000	0,003	-0,024
-625,692	800,000	0,029	0,078
-624,678	800,000	0,062	0,171
-623,663	-200,000	-0,029	0,146
-622,649	139,182	-0,047	-0,046
-621,634	-128,322	-0,021	0,002
-620,619	233,779	0,180	-0,218
-619,605	167,590	-0,020	-0,021
-618,590	-119,999	0,205	-0,026
-617,576	78,931	0,065	-0,051
-616,561	-34,777	-0,155	-0,062
-615,546	325,319	-0,013	0,018
-614,532	800,000	0,025	0,053
-613,517	44,119	-0,158	-0,106
-612,503	-114,141	-0,108	0,015
-611,488	-58,545	0,117	-0,037
-610,474	-200,000	-0,031	0,145
-609,459	414,463	-0,027	0,042
-608,444	-160,254	-0,088	0,003
-607,430	117,350	-0,109	-0,098
-606,415	93,909	-0,124	-0,103
-605,401	-200,000	-0,001	-0,083
-604,386	-200,000	-0,013	0,080
-603,371	34,808	0,140	0,090
-602,357	343,155	-0,095	-0,137
-601,342	800,000	0,044	-0,131
-600,328	271,334	-0,053	0,069
-599,313	-135,165	-0,211	0,018
-598,298	-200,000	0,046	-0,172
-597,284	751,235	0,057	0,114
-596,269	293,410	0,086	0,116
-595,255	-200,000	0,020	0,209
-594,240	261,606	0,008	0,010
-593,225	209,182	0,064	-0,073
-592,211	-200,000	-0,003	-0,319
-591,196	126,074	0,063	-0,058
-590,182	340,952	0,023	-0,033
-589,167	-200,000	0,006	-0,023
-588,152	-156,164	0,127	-0,006
-587,138	-36,921	-0,171	0,067
-586,123	614,879	-0,047	-0,086
-585,109	-55,959	-0,153	0,050
-584,094	175,877	-0,082	-0,087
-583,079	-200,000	0,014	-0,051
-582,065	-200,000	0,036	0,155
-581,050	150,338	0,057	0,057
-580,036	-113,143	-0,053	0,008
-579,021	-104,240	-0,190	-0,032
-578,006	273,661	-0,051	-0,066
-576,992	-200,000	-0,001	-0,117
-575,977	800,000	0,023	0,072
-574,963	38,186	0,021	-0,014
-573,948	-121,329	0,229	-0,028
-572,934	10,378	-0,034	0,019
-571,919	-54,503	-0,118	-0,039
-570,904	167,230	0,048	-0,050
-569,890	-139,633	0,074	0,006
-568,875	-171,665	0,101	0,002
-567,861	-200,000	-0,040	0,193
-566,846	638,683	-0,071	-0,133
-565,831	-110,735	-0,069	0,010
-564,817	-200,000	0,011	-0,108
-563,802	56,495	-0,041	-0,030
-562,788	-200,000	0,042	0,155
-561,773	165,751	-0,031	0,032
-560,758	-19,344	-0,090	0,041
-559,744	185,441	0,026	-0,028
-558,729	800,000	0,027	-0,073
-557,715	800,000	0,052	-0,121
-556,700	-158,719	-0,126	-0,005
-555,685	111,396	0,054	-0,048
-554,671	-93,762	0,071	0,014
-553,656	194,067	-0,073	0,081
-552,642	-34,895	0,157	0,062
-551,627	-149,540	0,072	0,004
-550,612	800,000	-0,011	-0,025
-549,598	86,491	-0,103	-0,083
-548,583	66,814	-0,086	-0,064
-547,569	-92,519	0,132	-0,027
-546,554	-200,000	0,011	-0,055
-545,539	168,158	0,038	0,039
-544,525	-40,968	0,039	-0,015
-543,510	723,276	-0,018	-0,035
-542,496	-200,000	0,000	-0,064
-541,481	657,976	0,021	-0,040
-540,466	-142,644	0,063	-0,004
-539,452	233,443	-0,032	0,039
-538,437	324,605	0,076	0,107
-537,423	213,052	0,063	-0,073
-536,408	13,018	-0,064	0,036
-535,393	158,931	0,040	-0,040
-534,379	800,000	-0,025	0,075
-533,364	-33,051	0,067	0,027
-532,350	-118,807	-0,013	0,002
-531,335	800,000	0,037	0,089
-530,321	13,596	0,129	-0,073
-529,306	-161,052	0,032	-0,001
-528,291	152,863	-0,070	-0,070
-527,277	73,895	0,085	0,065
-526,262	-200,000	-0,013	0,106
-525,248	-80,581	-0,059	-0,014
-524,233	583,538	-0,009	0,016
-523,218	215,265	0,006	-0,007
-522,204	-200,000	0,001	0,034
-521,189	1,881	0,067	0,035
-520,175	69,132	-0,114	-0,086
-519,160	-37,814	-0,156	0,060
-518,145	800,000	0,068	0,162
-517,131	-164,205	0,069	-0,002
-516,116	-178,472	-0,144	0,002
-515,102	-200,000	-0,001	0,115
-514,087	785,768	0,023	-0,046
-513,072	-41,569	-0,041	-0,015
-512,058	10,905	-0,108	-0,060
-511,043	-200,000	-0,004	-0,208
-510,029	-200,000	-0,025	0,098
-509,014	800,000	-0,005	0,010
-507,999	-10,263	-0,022	-0,010
-506,985	22,310	-0,071	-0,042
-505,970	800,000	0,065	-0,151
-504,956	-119,332	0,083	0,010
-503,941	-200,000	-0,038	0,164
-502,926	-24,318	-0,072	0,031
-501,912	-200,000	-0,003	0,070
-500,897	31,374	0,052	0,033
-499,883	-200,000	-0,029	-0,103
-498,868	565,129	-0,049	-0,087
-497,853	12,071	0,084	-0,047
-496,839	-182,715	0,132	0,002
-495,824	36,447	0,165	0,106
-494,810	-1,869	-0,166	-0,085
-493,795	146,072	0,080	-0,078
-492,781	-61,121	0,081	-0,025
-491,766	51,723	-0,075	-0,052
-490,751	29,816	0,112	-0,070
-489,737	-102,414	-0,117	0,020
-488,722	-161,662	0,082	0,003
-487,708	326,436	0,033	-0,047
-486,693	134,633	-0,117	0,111
-485,678	-59,496	0,168	0,052
-484,664	800,000	0,031	-0,086
-483,649	-200,000	-0,019	-0,067
-482,635	-200,000	0,007	0,083
-481,620	-200,000	0,003	-0,057
-480,605	-54,291	0,180	0,059
-479,591	800,000	0,068	0,178
-478,576	120,109	0,056	0,051
-477,562	-200,000	0,021	-0,107
-476,547	45,570	-0,125	0,084
-475,532	84,597	-0,064	-0,051
-474,518	800,000	-0,040	-0,101
-473,503	-200,000	-0,004	-0,026
-472,489	-10,971	-0,064	0,031
-471,474	-200,000	0,005	-0,047
-470,459	-200,000	0,016	-0,129
-469,445	308,413	-0,089	0,122
-468,430	91,176	0,102	-0,084
-467,416	-200,000	0,002	-0,038
-466,401	-200,000	0,011	0,108
-465,386	-38,953	-0,052	0,020
-464,372	800,000	0,038	-0,120
-463,357	772,668	-0,081	0,162
-462,343	46,235	-0,037	-0,025
-461,328	23,938	-0,138	-0,083
-460,313	-14,347	-0,092	0,043
-459,299	-45,359	0,174	-0,063
-458,284	575,122	0,038	0,067
-457,270	618,170	0,047	0,086
-456,255	-200,000	0,009	-0,129
-455,241	183,276	-0,075	-0,080
-454,226	8,644	0,046	-0,025
-453,211	570,904	-0,051	0,091
-452,197	-99,946	-0,052	-0,009
-451,182	-15,360	0,073	0,034
-450,168	-200,000	-0,012	0,041
-449,153	63,999	0,015	-0,011
-448,138	53,799	-0,056	-0,039
-447,124	-30,158	-0,077	0,032
-446,109	148,811	-0,073	0,072
-445,095	591,600	-0,061	-0,111
-444,080	85,912	0,106	0,085
-443,065	164,591	0,036	0,037
-442,051	387,246	-0,043	-0,065
-441,036	179,578	0,083	-0,088
-440,022	40,160	0,073	0,048
-439,007	-13,496	0,026	0,012
-437,992	800,000	0,048	0,139
-436,978	59,976	0,027	-0,019
-435,963	37,431	-0,139	0,090
-434,949	-101,396	-0,126	-0,022
-433,934	-26,308	0,112	-0,048
-432,919	-80,538	-0,191	-0,046
-431,905	5,961	-0,016	0,009
-430,890	-166,915	0,092	0,003
-429,876	1,984	0,075	0,039
-428,861	-200,000	0,021	0,087
-427,846	-200,000	0,024	0,113
-426,832	-200,000	0,007	-0,059
-425,817	462,770	-0,038	-0,061
-424,803	123,089	0,092	0,084
-423,788	341,835	-0,056	0,081
-422,773	-200,000	0,011	-0,073
-421,759	-41,645	-0,047	-0,017
-420,744	72,448	-0,068	0,052
-419,730	-181,751	-0,014	0,000
-418,715	-152,475	-0,046	-0,002
-417,701	-200,000	0,024	0,105
-416,686	800,000	-0,014	-0,045
-415,671	-128,408	-0,120	-0,012
-414,657	-200,000	-0,014	0,101
-413,642	183,607	-0,011	0,011
-412,628	-98,118	0,066	-0,012
-411,613	315,866	-0,048	0,066
-410,598	800,000	0,023	0,050
-409,584	88,444	0,088	-0,071
-408,569	-109,608	-0,106	-0,016
-407,555	109,205	-0,049	-0,042
-406,540	-200,000	-0,006	-0,030
-405,525	-154,064	-0,132	-0,006
-404,511	89,239	-0,017	-0,014
-403,496	18,201	-0,068	0,040
-402,482	-51,077	-0,081	0,027
-401,467	-173,133	0,093	0,002
-400,452	533,180	0,031	0,053
-399,438	-153,486	-0,137	0,007
-398,423	389,637	0,053	-0,079
-397,409	213,501	0,051	-0,058
-396,394	800,000	0,036	0,096
-395,379	-40,610	-0,044	-0,017
-394,365	214,738	-0,114	0,132
-393,350	-189,384	-0,172	-0,001
-392,336	800,000	0,015	-0,048
-391,321	143,548	-0,145	-0,140
-390,306	-29,627	-0,130	0,054
-389,292	15,801	-0,076	0,043
-388,277	-86,178	0,126	-0,028
-387,263	-200,000	0,004	-0,027
-386,248	432,717	0,052	-0,082
-385,233	-93,302	0,068	-0,014
-384,219	-200,000	0,001	0,019
-383,204	139,664	0,095	-0,091
-382,190	74,405	0,108	-0,083
-381,175	-34,981	0,060	-0,024
-380,160	-106,478	0,224	0,036
-379,146	-200,000	-0,006	0,063
-378,131	-200,000	-0,037	0,122
-377,117	142,528	-0,058	0,056
-376,102	101,928	-0,050	0,043
-375,088	207,872	-0,053	0,061
-374,073	272,307	0,019	-0,025
-373,058	47,579	-0,028	0,019
-372,044	21,358	0,157	0,093
-371,029	-51,271	-0,062	-0,021
-370,015	48,657	0,012	0,008
-369,000	256,902	0,087	-0,109
-367,985	111,753	0,037	-0,033
-366,971	80,966	0,109	-0,086
-365,956	125,534	0,016	0,015
-364,942	-63,223	0,091	-0,027
-363,927	-200,000	0,006	-0,045
-362,912	232,573	-0,085	0,102
-361,898	-200,000	0,041	-0,160
-360,883	70,940	-0,049	0,037
-359,869	76,744	0,060	-0,047
-358,854	774,561	-0,041	-0,083
-357,839	-110,905	0,101	-0,015
-356,825	-200,000	-0,029	-0,099
-355,810	468,235	-0,058	0,095
-354,796	529,583	-0,033	-0,057
-353,781	85,994	-0,116	-0,093
-352,766	-53,670	-0,025	-0,008
-351,752	-5,058	-0,054	-0,027
-350,737	67,892	-0,109	0,081
-349,723	721,312	0,049	0,095
-348,708	-180,535	-0,105	-0,002
-347,693	-200,000	-0,003	-0,012
-346,679	-52,927	0,079	-0,026
-345,664	-200,000	0,023	-0,124
-344,650	419,332	0,060	0,094
-343,635	-148,734	0,054	0,003
-342,620	54,663	0,021	0,014
-341,606	-123,031	-0,128	-0,015
-340,591	800,000	0,037	0,108
-339,577	-74,953	-0,172	0,045
-338,562	-131,953	-0,166	-0,015
-337,548	-200,000	0,004	0,086
-336,533	259,061	0,056	-0,070
-335,518	-200,000	0,031	-0,124
-334,504	-200,000	-0,010	-0,081
-333,489	-185,349	-0,059	-0,001
-332,475	300,123	-0,053	-0,071
-331,460	219,683	0,066	-0,076
-330,445	800,000	-0,051	-0,133
-329,431	-200,000	-0,014	-0,080
-328,416	-200,000	0,029	0,135
-327,402	394,475	0,098	0,149
-326,387	248,472	-0,114	0,140
-325,372	174,417	-0,050	-0,053
-324,358	-69,915	0,043	0,012
-323,343	-38,672	-0,085	-0,032
-322,329	800,000	0,079	0,166
-321,314	800,000	0,073	0,165
-320,299	106,711	-0,050	0,043
-319,285	800,000	0,024	-0,058
-318,270	-24,531	0,154	-0,066
-317,256	-140,324	-0,111	-0,008
-316,241	434,387	0,018	0,028
-315,226	244,786	-0,030	0,037
-314,212	800,000	0,017	-0,042
-313,197	619,576	0,035	0,064
-312,183	278,226	0,059	0,077
-311,168	582,080	0,035	-0,062
-310,153	261,616	0,038	0,048
-309,139	-68,013	-0,034	0,010
-308,124	800,000	0,028	-0,074
-307,110	514,167	-0,037	0,063
-306,095	-200,000	0,011	0,087
-305,080	135,415	0,108	-0,102
-304,066	-200,000	0,017	0,065
-303,051	43,548	-0,133	0,088
-302,037	-200,000	-0,005	0,017
-301,022	435,562	0,034	-0,054
-300,008	17,046	0,031	-0,018
-298,993	388,169	0,066	-0,100
-297,978	-153,782	0,017	0,001
-296,964	22,251	-0,131	0,078
-295,949	206,649	-0,117	-0,132
-294,935	-200,000	0,058	-0,193
-293,920	4,116	-0,085	0,045
-292,905	-150,790	0,046	-0,002
-291,891	800,000	0,021	-0,045
-290,876	303,332	0,086	-0,116
-289,862	137,901	0,041	0,039
-288,847	800,000	-0,032	0,081
-287,832	800,000	-0,015	0,046
-286,818	-68,063	0,060	-0,017
-285,803	-55,943	0,148	0,048
-284,789	-93,925	0,049	-0,010
-283,774	-137,407	0,124	0,010
-282,759	540,883	0,029	-0,051
-281,745	-48,944	-0,069	-0,024
-280,730	-200,000	-0,021	-0,158
-279,716	48,394	-0,148	0,100
-278,701	660,359	0,031	0,059
-277,686	-200,000	0,004	-0,088
-276,672	-18,641	-0,068	0,031
-275,657	138,565	-0,096	0,091
-274,643	659,691	0,026	-0,049
-273,628	-200,000	-0,030	-0,122
-272,613	86,323	-0,082	0,066
-271,599	-39,980	0,205	0,077
-270,584	-137,248	0,124	-0,010
-269,570	-19,184	0,035	-0,015
-268,555	800,000	0,018	-0,052
-267,540	287,137	0,067	-0,088
-266,526	89,102	-0,079	0,064
-265,511	-31,752	0,039	-0,016
-264,497	351,850	-0,043	-0,063
-263,482	-200,000	0,033	0,119
-262,467	165,877	-0,028	0,029
-261,453	-200,000	-0,000	-0,013
-260,438	541,121	0,079	0,137
-259,424	-108,752	-0,059	-0,009
-258,409	352,297	-0,043	-0,062
-257,395	-31,211	-0,013	0,005
-256,380	682,316	-0,101	0,191
-255,365	-200,000	0,009	0,175
-254,351	800,000	0,017	-0,050
-253,336	242,684	-0,086	-0,105
-252,322	-77,638	-0,078	-0,019
-251,307	800,000	-0,042	-0,094
-250,292	65,118	-0,050	0,036
-249,278	-97,936	-0,039	-0,007
-248,263	211,589	0,005	0,006
-247,249	-41,521	-0,091	-0,034
-246,234	164,908	-0,046	-0,047
-245,219	800,000	-0,043	-0,105
-244,205	23,960	-0,090	0,054
-243,190	107,628	0,139	-0,120
-242,176	-200,000	-0,003	0,081
-241,161	612,826	0,098	0,179
-240,146	140,143	0,083	0,080
-239,132	-141,089	0,047	0,003
-238,117	-14,331	-0,108	-0,050
-237,103	-6,263	0,082	0,040
-236,088	145,331	-0,023	-0,022
-235,073	148,259	-0,059	-0,058
-234,059	-200,000	0,035	0,116
-233,044	-200,000	-0,003	0,029
-232,030	800,000	0,029	0,085
-231,015	268,319	0,022	0,027
-230,000	-25,280	0,154	0,066
-228,986	-200,000	0,021	0,132
-227,971	542,418	-0,030	-0,052
-226,957	15,416	0,111	0,063
-225,942	219,206	-0,022	0,025
-224,927	-200,000	0,013	0,101
-223,913	-200,000	0,006	-0,072
-222,898	-44,353	0,017	0,006
-221,884	22,766	-0,083	-0,049
-220,869	-120,858	0,181	0,022
-219,855	223,809	0,054	-0,063
-218,840	10,400	-0,119	0,065
-217,825	-11,492	0,031	0,015
-216,811	-200,000	-0,037	-0,160
-215,796	589,464	-0,063	0,113
-214,782	116,757	-0,109	-0,096
-213,767	-97,578	0,015	0,003
-212,752	-200,000	0,130	0,000
-211,738	124,221	0,130	0,118
-210,723	351,362	-0,039	0,056
-209,709	-200,000	-0,004	-0,086
-208,694	-136,234	-0,081	0,007
-207,679	416,398	0,038	-0,059
-206,665	126,900	0,101	0,093
-205,650	-200,000	-0,005	0,162
-204,636	314,838	-0,010	-0,013
-203,621	641,661	-0,029	0,054
-202,606	-153,411	-0,154	-0,008
-201,592	-55,360	0,033	0,011
-200,577	-200,000	-0,006	-0,104
-199,563	238,924	0,024	-0,029
-198,548	800,000	-0,065	-0,167
-197,533	128,147	0,087	0,080
-196,519	168,336	0,035	-0,036
-195,504	800,000	0,063	-0,166
-194,490	-200,000	0,014	-0,049
-193,475	-200,000	-0,044	-0,192
-192,460	800,000	0,060	-0,157
-191,446	-105,417	0,138	0,022
-190,431	-163,109	0,032	-0,001
-189,417	-200,000	0,007	-0,095
-188,402	278,612	0,026	0,034
-187,387	-3,108	0,012	-0,006
-186,373	165,238	0,028	-0,029
-185,358	313,719	0,036	0,049
-184,344	800,000	0,042	0,094
-183,329	-113,834	0,137	0,019
-182,315	59,485	0,083	0,059
-181,300	-200,000	-0,018	-0,137
-180,285	800,000	0,050	0,147
-179,271	-11,235	-0,127	-0,060
-178,256	187,353	-0,053	-0,057
-177,242	492,455	0,034	0,057
-176,227	-96,056	0,085	0,016
-175,212	-200,000	0,010	0,127
-174,198	590,437	0,037	0,067
-173,183	-22,442	0,047	0,021
-172,169	76,662	-0,035	0,027
-171,154	-200,000	-0,016	-0,076
-170,139	-200,000	0,014	0,089
-169,125	-7,261	0,091	-0,044
-168,110	800,000	0,016	0,032
-167,096	-108,802	-0,088	0,013
-166,081	77,980	-0,066	-0,050
-165,066	136,833	-0,093	-0,087
-164,052	800,000	0,086	-0,192
-163,037	-200,000	-0,015	0,132
-162,023	-81,782	-0,056	0,013
-161,008	-61,368	0,179	-0,054
-159,993	-136,399	0,029	-0,002
-158,979	-177,478	0,118	-0,002
-157,964	-42,429	0,056	-0,021
-156,950	259,565	-0,146	0,182
-155,935	-107,113	0,172	0,027
-154,920	491,827	-0,097	0,161
-153,906	800,000	-0,055	0,122
-152,891	195,151	0,050	0,055
-151,877	800,000	-0,049	-0,103
-150,862	228,152	0,054	-0,063
-149,847	-90,092	-0,074	-0,015
-148,833	161,245	-0,033	0,033
-147,818	800,000	0,033	-0,090
-146,804	58,828	0,052	0,037
-145,789	317,231	0,051	-0,070
-144,775	800,000	-0,049	0,118
-143,760	-118,684	0,070	0,009
-142,745	-200,000	-0,020	-0,079
-141,731	102,302	0,065	-0,055
-140,716	69,254	-0,047	-0,035
-139,702	-200,000	-0,013	0,195
-138,687	-125,946	-0,023	0,002
-137,672	122,607	0,129	0,116
-136,658	-200,000	0,007	-0,026
-135,643	-200,000	-0,008	0,100
-134,629	12,318	-0,031	-0,017
-133,614	1,241	0,037	-0,019
-132,599	18,828	-0,141	0,081
-131,585	800,000	-0,045	0,114
-130,570	55,946	-0,058	-0,040
-129,556	-200,000	0,019	0,062
-128,541	800,000	0,012	-0,027
-127,526	-161,199	-0,140	0,005
-126,512	-200,000	-0,010	0,112
-125,497	-117,974	0,074	0,009
-124,483	-39,782	-0,083	0,031
-123,468	-200,000	-0,002	0,117
-122,453	58,099	-0,101	0,071
-121,439	-200,000	0,023	-0,172
-120,424	-200,000	-0,039	-0,150
-119,410	-35,941	0,096	-0,037
-118,395	23,600	0,024	0,014
-117,380	170,631	0,010	0,010
-116,366	283,311	0,032	0,041
-115,351	-110,283	-0,036	-0,005
-114,337	44,620	-0,031	-0,021
-113,322	800,000	-0,027	0,057
-112,307	60,483	0,078	0,056
-111,293	74,689	0,111	-0,084
-110,278	100,377	-0,078	0,065
-109,264	-200,000	0,006	-0,026
-108,249	-200,000	-0,015	-0,172
-107,234	110,327	0,032	-0,027
-106,220	-200,000	-0,002	-0,050
-105,205	15,591	-0,046	-0,026
-104,191	223,196	-0,068	0,079
-103,176	733,104	0,026	0,051
-102,162	765,493	-0,019	-0,037
-101,147	11,115	0,067	0,037
-100,132	31,639	-0,114	-0,071
-99,118	144,137	-0,089	-0,085
-98,103	800,000	0,015	0,045
-97,089	-200,000	0,014	0,051
-96,074	-190,308	-0,027	-0,000
-95,059	-11,927	-0,044	0,021
-94,045	-200,000	-0,033	0,114
-93,030	-200,000	0,007	-0,074
-92,016	800,000	-0,023	-0,070
-91,001	-135,460	-0,145	-0,012
-89,986	-73,564	0,052	0,014
-88,972	800,000	-0,039	0,113
-87,957	800,000	-0,031	0,084
-86,943	312,247	-0,053	0,071
-85,928	225,763	0,033	0,038
-84,913	307,449	0,055	-0,074
-83,899	96,578	0,038	0,031
-82,884	800,000	0,055	0,137
-81,870	800,000	-0,035	-0,079
-80,855	-44,485	0,070	0,025
-79,840	-200,000	0,010	0,133
-78,826	56,106	-0,106	-0,074
-77,811	-46,347	0,015	-0,005
-76,797	135,776	0,033	-0,031
-75,782	-69,964	0,088	-0,024
-74,767	176,689	0,015	-0,016
-73,753	-200,000	-0,031	-0,146
-72,738	-200,000	0,001	-0,060
-71,724	-24,945	-0,058	-0,025
-70,709	5,871	-0,203	-0,108
-69,694	-200,000	0,002	-0,147
-68,680	229,882	-0,145	-0,171
-67,665	276,190	-0,056	-0,072
-66,651	-83,567	0,083	0,019
-65,636	37,224	-0,205	-0,130
-64,622	800,000	-0,026	-0,060
-63,607	-200,000	0,015	-0,086
-62,592	-200,000	0,007	-0,040
-61,578	271,664	-0,118	-0,150
-60,563	-61,558	-0,029	-0,009
-59,549	82,045	0,019	0,014
-58,534	-5,398	-1,947	-0,957
-57,519	800,000	-0,359	-0,961
-56,505	-200,000	-1,325	-4,891
-55,490	-18,746	0,804	0,358
-54,476	800,000	5,240	12,069
-53,461	-200,000	17,299	284,660
-52,446	800,000	723,630	2228,804
-51,432	543,254	1639,365	2819,290
-50,417	111,808	1631,047	1413,500
-49,403	76,010	1286,188	975,837
-48,388	32,698	1028,271	637,139
-47,373	20,230	990,351	572,498
-46,359	18,686	978,450	560,527
-45,344	16,129	974,520	549,876
-44,330	16,294	972,994	549,535
-43,315	15,867	971,219	547,114
-42,300	15,774	970,225	546,228
-41,286	15,831	969,021	545,715
-40,271	15,886	967,922	545,254
-39,257	15,808	967,229	544,588
-38,242	15,807	966,495	544,149
-37,227	15,781	965,608	543,544
-36,213	15,824	964,675	543,139
-35,198	15,774	963,871	542,502
-34,184	15,885	963,067	542,387
-33,169	15,793	962,083	541,513
-32,154	15,831	961,123	541,074
-31,140	15,852	960,260	540,635
-30,125	15,909	959,316	540,266
-29,111	15,834	958,650	539,629
-28,096	15,841	958,183	539,364
-27,082	15,875	957,233	538,918
-26,067	15,853	956,594	538,467
-25,052	15,842	955,786	537,955
-24,038	15,798	955,294	537,516
-23,023	15,713	954,695	536,885
-22,009	15,840	953,848	536,794
-20,994	15,889	953,201	536,567
-19,979	15,830	952,746	536,100
-18,965	15,821	952,026	535,644
-17,950	15,776	951,701	535,295
-16,936	15,814	950,795	534,887
-15,921	15,745	950,218	534,320
-14,906	15,716	949,350	533,719
-13,892	15,718	948,668	533,322
-12,877	15,691	948,126	532,909
-11,863	15,698	947,422	532,515
-10,848	15,715	946,968	532,290
-9,833	15,805	946,385	532,230
-8,819	15,771	945,878	531,815
-7,804	15,755	945,133	531,323
-6,790	15,700	944,581	530,818
-5,775	15,832	943,949	530,861
-4,760	15,785	943,302	530,328
-3,746	15,725	942,784	529,826
-2,731	15,597	942,241	529,093
-1,717	15,567	941,354	528,479
-0,702	15,572	940,766	528,144
0,313	15,422	940,072	528,075
1,327	18,531	937,979	536,657
2,342	27,352	795,474	478,531
3,356	24,055	459,286	271,223
4,371	-2,938	314,046	156,793
5,386	-7,264	295,685	143,242
6,400	-9,224	289,747	138,410
7,415	-9,495	287,290	136,957
8,429	-9,567	285,829	136,178
9,444	-9,710	284,990	135,627
10,459	-9,549	284,348	135,466
11,473	-9,836	283,786	134,908
12,488	-9,561	283,173	134,871
13,502	-9,750	282,741	134,470
14,517	-9,665	282,284	134,323
15,531	-9,546	281,751	134,172
16,546	-9,563	281,577	134,060
17,561	-9,512	281,149	133,894
18,575	-9,564	280,829	133,680
19,590	-9,657	280,357	133,354
20,604	-9,702	280,144	133,197
21,619	-9,588	279,848	133,154
22,634	-9,521	279,348	132,969
23,648	-9,829	279,165	132,575
24,663	-9,472	278,899	132,777
25,677	-9,463	278,558	132,612
26,692	-9,644	278,424	132,363
27,707	-9,632	278,087	132,204
28,721	-9,584	277,777	132,090
29,736	-9,706	277,574	131,866
30,750	-9,715	277,152	131,645
31,765	-9,746	277,093	131,576
32,780	-9,619	276,892	131,589
33,794	-9,305	276,483	131,679
34,809	-9,680	276,204	131,181
35,823	-9,506	275,837	131,159
36,838	-9,668	275,788	130,971
37,853	-9,766	275,624	130,789
38,867	-9,729	275,330	130,674
39,882	-9,563	275,079	130,698
40,896	-9,612	274,807	130,512
41,911	-9,560	274,598	130,449
42,926	-9,440	274,330	130,422
43,940	-9,697	274,091	130,056
44,955	-9,609	273,845	130,011
45,969	-9,578	273,611	129,917
46,984	-9,784	273,490	129,656
47,999	-9,845	273,096	129,401
49,013	-10,163	272,925	129,013
50,028	-10,294	272,692	128,769
51,042	-10,184	272,266	128,658
52,057	-10,309	272,236	128,516
53,071	-10,309	271,926	128,359
54,086	-10,232	271,704	128,313
55,101	-10,119	271,492	128,307
56,115	-9,904	271,468	128,483
57,130	-9,593	271,296	128,678
58,144	-9,490	270,996	128,619
59,159	-9,271	270,778	128,706
60,174	-9,513	270,638	128,405
61,188	-9,567	270,375	128,220
62,203	-9,598	270,176	128,085
63,217	-9,484	270,005	128,097
64,232	-9,558	269,798	127,920
65,247	-9,379	269,421	127,894
66,261	-9,495	269,293	127,715
67,276	-9,485	268,811	127,484
68,290	-9,803	268,827	127,189
69,305	-9,794	268,411	126,989
70,320	-9,856	268,313	126,875
71,334	-9,589	268,188	127,048
72,349	-9,486	267,930	127,009
73,363	-9,560	267,727	126,834
74,378	-9,670	267,613	126,668
75,393	-9,597	267,410	126,627
76,407	-9,530	267,235	126,594
77,422	-9,597	266,952	126,387
78,436	-9,659	266,816	126,256
79,451	-9,590	266,574	126,193
80,466	-9,524	266,202	126,065
81,480	-9,398	265,793	125,974
82,495	-9,656	265,689	125,681
83,509	-9,568	265,503	125,661
84,524	-9,672	265,415	125,514
85,539	-9,950	265,143	125,124
86,553	-9,771	264,864	125,142
87,568	-9,649	264,677	125,153
88,582	-9,593	264,501	125,109
89,597	-9,719	264,449	124,959
90,611	-9,629	264,120	124,873
91,626	-9,386	263,960	125,005
92,641	-9,547	263,794	124,771
93,655	-9,503	263,535	124,677
94,670	-9,822	263,428	124,329
95,684	-9,650	263,250	124,388
96,699	-9,543	263,000	124,354
97,714	-9,524	262,755	124,244
98,728	-9,708	262,587	123,990
99,743	-9,833	262,317	123,740
100,757	-9,826	262,090	123,628
101,772	-9,574	261,890	123,746
102,787	-9,661	261,853	123,641
103,801	-9,647	261,664	123,553
104,816	-9,751	261,438	123,343
105,830	-9,568	261,303	123,430
106,845	-9,407	261,112	123,472
107,860	-9,557	260,868	123,213
108,874	-9,453	260,594	123,164
109,889	-9,580	260,443	122,969
110,903	-9,714	260,230	122,740
111,918	-9,548	259,911	122,725
112,933	-9,614	259,855	122,629
113,947	-9,549	259,738	122,620
114,962	-9,615	259,530	122,453
115,976	-9,391	259,190	122,478
116,991	-9,425	259,083	122,387
118,006	-9,288	258,956	122,437
119,020	-9,527	258,820	122,152
120,035	-9,674	258,714	121,962
121,049	-9,530	258,410	121,934
122,064	-9,714	258,372	121,744
123,079	-9,632	258,096	121,675
124,093	-9,500	257,716	121,600
125,108	-9,738	257,445	121,254
126,122	-9,631	257,259	121,248
127,137	-9,799	257,047	120,992
128,151	-9,661	257,034	121,095
129,166	-9,732	256,780	120,903
130,181	-9,557	256,541	120,931
131,195	-9,998	256,343	120,444
132,210	-9,587	256,209	120,728
133,224	-9,390	255,972	120,775
134,239	-9,749	255,996	120,465
135,254	-9,448	255,648	120,551
136,268	-9,705	255,346	120,175
137,283	-9,884	255,259	119,969
138,297	-9,886	254,953	119,813
139,312	-10,008	254,686	119,572
140,327	-9,613	254,672	119,895
141,341	-9,439	254,705	120,049
142,356	-9,579	254,392	119,770
143,370	-9,395	254,233	119,844
144,385	-9,299	254,187	119,893
145,400	-9,542	253,925	119,551
146,414	-9,476	253,737	119,508
147,429	-9,492	253,647	119,442
148,443	-9,333	253,277	119,393
149,458	-9,337	253,144	119,316
150,473	-9,361	253,063	119,247
151,487	-9,377	252,784	119,091
152,502	-9,445	252,549	118,911
153,516	-9,385	252,465	118,912
154,531	-9,323	252,205	118,833
155,546	-9,459	252,110	118,661
156,560	-9,240	251,890	118,733
157,575	-9,517	251,686	118,391
158,589	-9,736	251,523	118,118
159,604	-9,304	251,161	118,304
160,619	-9,396	251,258	118,261
161,633	-9,281	250,990	118,222
162,648	-9,393	250,843	118,048
163,662	-9,342	250,619	117,974
164,677	-9,343	250,487	117,901
165,692	-9,477	250,420	117,745
166,706	-9,354	250,190	117,731
167,721	-9,342	250,067	117,672
168,735	-9,319	249,846	117,578
169,750	-9,254	249,699	117,552
170,764	-9,153	249,649	117,603
171,779	-9,338	249,502	117,368
172,794	-9,363	249,218	117,203
173,808	-9,244	248,861	117,125
174,823	-9,741	248,689	116,617
175,837	-9,949	248,487	116,337
176,852	-9,631	248,503	116,600
177,867	-9,222	248,170	116,776
178,881	-9,543	248,255	116,536
179,896	-9,449	247,943	116,459
180,910	-9,356	247,811	116,464
181,925	-9,511	247,796	116,317
182,940	-9,374	247,470	116,268
183,954	-9,337	247,306	116,211
184,969	-9,393	247,251	116,128
185,983	-9,472	246,994	115,931
186,998	-9,370	246,942	115,982
188,013	-9,159	246,645	116,007
189,027	-9,470	246,375	115,612
190,042	-9,509	246,391	115,577
191,056	-9,329	246,143	115,599
192,071	-9,358	246,024	115,509
193,086	-9,333	245,737	115,385
194,100	-9,477	245,479	115,134
195,115	-9,136	245,492	115,412
196,129	-9,182	245,158	115,206
197,144	-9,462	245,089	114,933
198,159	-9,227	244,846	115,002
199,173	-9,552	244,713	114,662
200,188	-9,383	244,464	114,675
201,202	-9,657	244,214	114,322
202,217	-10,017	244,068	113,947
203,232	-9,640	243,774	114,109
204,246	-9,476	243,729	114,212
205,261	-9,345	243,654	114,274
206,275	-10,149	243,283	113,432
207,290	-7,118	244,445	116,455
208,304	0,133	246,841	123,589
209,319	3,795	247,754	127,067
210,334	4,447	247,812	127,624
211,348	4,540	247,706	127,635
212,363	4,641	247,594	127,649
213,377	4,866	247,426	127,737
214,392	4,822	247,381	127,666
215,407	4,610	247,088	127,329
216,421	4,756	246,786	127,282
217,436	4,833	246,762	127,321
218,450	4,747	246,807	127,263
219,465	4,661	246,342	126,941
220,480	4,246	246,223	126,528
221,494	4,349	246,080	126,528
222,509	4,307	245,961	126,420
223,523	4,256	245,870	126,321
224,538	4,015	245,426	125,885
225,553	4,123	245,308	125,901
226,567	4,100	245,161	125,796
227,582	4,219	245,182	125,892
228,596	4,284	244,943	125,811
229,611	4,194	244,576	125,538
230,626	4,057	244,416	125,333
231,640	3,890	244,363	125,159
232,655	4,265	244,108	125,322
233,669	4,096	243,926	125,080
234,684	3,789	243,911	124,812
235,699	4,454	243,795	125,281
236,713	4,471	243,750	125,261
237,728	3,974	243,495	124,716
238,742	3,934	243,176	124,509
239,757	4,028	242,993	124,480
240,772	3,880	242,863	124,283
241,786	4,172	242,698	124,423
242,801	3,941	242,468	124,108
243,815	4,062	242,432	124,176
244,830	4,191	242,372	124,238
245,844	4,299	242,189	124,220
246,859	4,141	241,918	123,943
247,874	4,050	241,657	123,725
248,888	3,966	241,717	123,677
249,903	4,238	241,478	123,763
250,917	4,346	241,332	123,763
251,932	4,479	241,372	123,879
252,947	4,427	241,125	123,700
253,961	3,916	241,003	123,217
254,976	4,320	240,690	123,369
255,990	4,497	240,677	123,493
257,005	4,092	240,386	123,009
258,020	3,878	240,312	122,790
259,034	3,913	240,232	122,766
260,049	4,059	240,033	122,769
261,063	3,986	239,791	122,577
262,078	4,024	239,527	122,461
263,093	4,327	239,483	122,669
264,107	4,328	239,367	122,599
265,122	4,322	239,098	122,445
266,136	4,309	239,079	122,414
267,151	4,549	239,053	122,580
268,166	4,053	238,694	121,993
269,180	3,785	238,538	121,690
270,195	4,615	238,553	122,344
271,209	4,760	238,455	122,397
272,224	3,981	238,152	121,615
273,239	3,800	237,936	121,351
274,253	3,803	237,712	121,229
275,268	4,219	237,649	121,514
276,282	4,005	237,581	121,299
277,297	3,984	237,216	121,086
278,312	4,147	237,074	121,130
279,326	4,093	237,174	121,128
280,341	4,185	236,999	121,100
281,355	4,263	236,686	120,991
282,370	4,397	236,586	121,034
283,384	4,133	236,521	120,783
284,399	4,080	236,336	120,636
285,414	4,037	236,032	120,437
286,428	3,987	235,847	120,292
287,443	3,858	235,947	120,232
288,457	4,087	235,760	120,305
289,472	4,237	235,582	120,321
290,487	4,144	235,397	120,143
291,501	3,973	235,164	119,880
292,516	3,861	234,931	119,663
293,530	3,681	234,941	119,517
294,545	4,226	234,847	119,883
295,560	4,255	234,659	119,798
296,574	3,843	234,519	119,396
297,589	4,018	234,305	119,413
298,603	4,367	234,367	119,704
299,618	4,413	234,238	119,664
300,633	4,274	233,841	119,343
301,647	4,203	233,756	119,234
302,662	4,744	233,698	119,612
303,676	4,542	233,509	119,349
304,691	4,313	233,517	119,165
305,706	4,533	233,301	119,214
306,720	4,550	233,323	119,228
307,735	4,181	233,069	118,803
308,749	4,240	232,841	118,721
309,764	4,068	232,591	118,451
310,779	3,923	232,392	118,228
311,793	3,722	232,266	117,999
312,808	3,703	232,118	117,898
313,822	4,093	231,812	118,031
314,837	3,846	231,734	117,791
315,852	3,605	231,645	117,552
316,866	4,099	231,566	117,879
317,881	4,133	231,518	117,870
318,895	3,904	231,347	117,597
319,910	4,569	231,258	118,050
320,925	4,425	231,059	117,828
321,939	4,128	230,786	117,451
322,954	3,994	230,733	117,312
323,968	3,846	230,447	117,043
324,983	3,955	230,295	117,039
325,997	4,447	230,267	117,389
327,012	4,309	230,258	117,269
328,027	4,419	230,148	117,285
329,041	4,646	229,956	117,349
330,056	4,784	230,044	117,489
331,070	4,848	229,766	117,384
332,085	4,503	229,665	117,062
333,100	4,202	229,380	116,678
334,114	4,414	229,090	116,680
335,129	4,728	228,966	116,843
336,143	4,699	228,981	116,819
337,158	4,578	228,822	116,636
338,173	4,472	228,635	116,450
339,187	3,968	228,389	115,935
340,202	4,374	228,342	116,206
341,216	4,305	228,177	116,060
342,231	4,328	227,965	115,960
343,246	4,248	227,697	115,753
344,260	4,363	227,683	115,822
345,275	4,445	227,606	115,833
346,289	4,585	227,468	115,858
347,304	4,520	227,370	115,749
348,319	4,498	227,270	115,671
349,333	4,390	227,080	115,483
350,348	4,221	226,911	115,261
351,362	4,349	226,824	115,302
352,377	4,046	226,463	114,883
353,392	4,013	226,342	114,786
354,406	4,239	226,207	114,876
355,421	195,646	1321,959	1399,614
356,435	156,830	1455,472	1399,612
