DTS Sentinel unit serial number:	SN410029Multiplexer serial number:	ORYXHardware model number:	OX2-SRSoftware version number:	ORYX F/W v4,00 Oryx Data Collector v3.7.2.0data status	okinstallation	B5 Nyhavnadifferential loss correction	single-endedforward channel	channel 2reverse channel	N/Adate	2023/12/14time	02:42:13forward acquisition time	300,00reverse acquisition time	0,00gamma	499,1914k internal	0,3154k external	0,3154temperature offset calibration	1,0000default loss term (dB/km)	0,3820temperature slope calibration	1,0000multiplexer offset coefficient	1,0000multiplexer slope coefficient	1,0000fibre end	0,00T internal ref (°C)	8,44T ext. ref 1 (°C)	-7,90T ext. ref 2 (°C)	-7,95length (m)	temperature (°C)	Stokes	anti-Stokes-744,400	-180,841	0,079	0,001
-743,385	-12,737	-0,324	-0,155
-742,371	-40,994	0,187	-0,071
-741,356	-26,921	-0,377	-0,162
-740,342	33,027	0,186	0,119
-739,327	34,433	-0,263	-0,169
-738,312	-121,550	0,202	0,024
-737,298	-67,821	-0,364	-0,104
-736,283	38,588	-0,027	0,017
-735,269	64,270	-0,283	-0,210
-734,254	-102,356	0,135	-0,024
-733,239	-109,149	-0,549	-0,085
-732,225	61,890	0,180	0,132
-731,210	-160,918	-0,075	-0,003
-730,196	800,000	-0,035	-0,084
-729,181	124,859	0,097	-0,091
-728,167	-200,000	0,003	-0,110
-727,152	-72,777	0,049	-0,013
-726,137	-26,055	-0,210	-0,091
-725,123	-58,551	-0,209	0,067
-724,108	-157,961	-0,140	-0,006
-723,094	-53,610	-0,075	-0,025
-722,079	17,760	-0,040	-0,023
-721,064	249,553	0,056	-0,071
-720,050	176,675	-0,089	0,096
-719,035	92,801	-0,083	-0,069
-718,021	98,292	-0,125	-0,106
-717,006	417,643	-0,077	-0,121
-715,991	75,345	-0,175	-0,136
-714,977	800,000	0,046	-0,109
-713,962	800,000	0,029	0,071
-712,948	800,000	-0,051	0,129
-711,933	800,000	-0,013	-0,028
-710,918	34,396	-0,110	0,071
-709,904	181,177	0,041	0,044
-708,889	-63,129	0,084	0,025
-707,875	120,425	0,066	-0,060
-706,860	-32,910	0,022	-0,009
-705,845	-56,189	-0,035	-0,011
-704,831	-145,614	0,096	0,006
-703,816	31,878	-0,056	0,036
-702,802	800,000	0,039	-0,127
-701,787	-200,000	-0,035	-0,151
-700,772	434,506	-0,058	-0,093
-699,758	66,399	0,103	-0,077
-698,743	800,000	0,044	-0,121
-697,729	800,000	-0,033	-0,089
-696,714	-34,170	-0,144	0,058
-695,699	-146,531	0,083	-0,005
-694,685	229,543	-0,073	-0,088
-693,670	499,030	-0,051	-0,086
-692,656	-200,000	-0,011	-0,069
-691,641	93,982	-0,096	0,080
-690,627	-89,478	-0,045	-0,010
-689,612	296,362	-0,065	0,088
-688,597	-200,000	0,016	-0,077
-687,583	-35,420	-0,167	-0,066
-686,568	800,000	0,059	-0,129
-685,554	-27,217	-0,085	-0,036
-684,539	-72,336	-0,061	0,016
-683,524	161,467	-0,040	0,042
-682,510	800,000	0,058	0,160
-681,495	49,658	-0,033	0,023
-680,481	-30,325	-0,145	-0,060
-679,466	800,000	0,058	-0,181
-678,451	-29,734	0,059	-0,025
-677,437	668,762	0,025	-0,049
-676,422	800,000	0,016	-0,046
-675,408	252,908	-0,118	0,149
-674,393	100,749	-0,036	-0,031
-673,378	432,545	-0,064	-0,102
-672,364	-144,454	0,031	-0,002
-671,349	-200,000	-0,014	0,105
-670,335	-36,729	-0,140	-0,055
-669,320	-125,922	0,058	-0,006
-668,305	-50,523	-0,123	0,042
-667,291	-200,000	-0,000	0,084
-666,276	106,657	-0,085	-0,074
-665,262	-168,519	-0,081	0,002
-664,247	-200,000	-0,016	-0,147
-663,232	567,026	-0,054	0,096
-662,218	86,676	0,015	-0,012
-661,203	800,000	0,021	0,060
-660,189	-200,000	0,017	-0,120
-659,174	179,495	-0,068	-0,073
-658,159	-200,000	-0,011	-0,129
-657,145	222,307	-0,069	0,082
-656,130	800,000	0,056	-0,121
-655,116	-192,848	-0,028	0,000
-654,101	137,002	-0,076	0,073
-653,086	-200,000	0,015	-0,057
-652,072	4,030	-0,089	0,048
-651,057	-200,000	0,048	-0,171
-650,043	349,482	0,027	-0,040
-649,028	194,338	0,079	0,088
-648,014	-109,959	-0,198	0,030
-646,999	60,206	0,059	0,043
-645,984	56,294	-0,104	0,074
-644,970	-200,000	-0,012	0,077
-643,955	-200,000	0,035	0,136
-642,941	-25,124	-0,140	-0,061
-641,926	60,106	-0,050	0,036
-640,911	-56,560	-0,095	0,031
-639,897	-103,969	0,037	-0,006
-638,882	-80,843	0,041	0,010
-637,868	-37,676	-0,079	0,031
-636,853	346,188	0,080	-0,116
-635,838	-52,372	-0,059	0,020
-634,824	-49,731	-0,061	-0,021
-633,809	0,236	-0,106	0,056
-632,795	-145,342	0,073	-0,005
-631,780	481,613	-0,098	0,165
-630,765	-200,000	0,039	-0,184
-629,751	11,009	-0,087	-0,049
-628,736	590,003	-0,059	-0,107
-627,722	-200,000	-0,041	-0,147
-626,707	614,518	0,023	-0,043
-625,692	184,817	-0,045	-0,049
-624,678	-200,000	-0,002	0,094
-623,663	395,464	0,057	0,087
-622,649	-200,000	-0,011	-0,190
-621,634	800,000	0,014	0,035
-620,619	800,000	0,044	-0,141
-619,605	472,024	-0,045	-0,074
-618,590	6,288	-0,063	0,034
-617,576	89,608	0,100	0,081
-616,561	-75,373	-0,061	-0,016
-615,546	800,000	-0,006	-0,014
-614,532	400,618	-0,049	-0,076
-613,517	41,435	0,127	0,084
-612,503	304,409	0,070	-0,096
-611,488	-79,552	0,113	-0,028
-610,474	-189,266	-0,094	-0,001
-609,459	56,613	0,016	0,012
-608,444	47,772	-0,034	0,024
-607,430	-200,000	-0,004	-0,018
-606,415	295,512	0,012	-0,016
-605,401	-200,000	-0,010	0,065
-604,386	346,173	-0,029	0,042
-603,371	-156,557	0,030	0,001
-602,357	184,037	-0,076	0,083
-601,342	-49,349	-0,019	0,007
-600,328	150,304	-0,062	-0,062
-599,313	52,094	0,068	0,048
-598,298	800,000	-0,067	-0,160
-597,284	26,941	0,081	-0,050
-596,269	800,000	0,019	-0,047
-595,255	-119,490	-0,205	-0,026
-594,240	-200,000	0,001	0,018
-593,225	-200,000	-0,011	-0,137
-592,211	616,698	0,064	-0,119
-591,196	26,069	-0,137	-0,083
-590,182	-200,000	0,019	0,106
-589,167	-200,000	0,015	0,083
-588,152	-200,000	0,005	-0,023
-587,138	-7,107	0,074	-0,037
-586,123	-94,370	-0,036	-0,007
-585,109	27,975	-0,039	0,024
-584,094	-200,000	-0,026	0,121
-583,079	800,000	-0,037	0,086
-582,065	-200,000	0,018	0,073
-581,050	-28,221	-0,025	-0,010
-580,036	-25,582	-0,033	0,014
-579,021	21,978	-0,080	-0,047
-578,006	68,088	0,123	-0,092
-576,992	-153,735	0,080	0,004
-575,977	-200,000	-0,012	-0,087
-574,963	800,000	0,034	0,089
-573,948	-200,000	-0,013	0,073
-572,934	498,361	-0,051	0,086
-571,919	-153,676	0,060	0,003
-570,904	-43,775	0,062	0,023
-569,890	243,004	-0,047	-0,058
-568,875	349,936	-0,020	-0,030
-567,861	-133,439	0,225	0,020
-566,846	-39,636	-0,103	-0,039
-565,831	-200,000	0,027	0,159
-564,817	-200,000	-0,022	0,102
-563,802	800,000	-0,073	-0,182
-562,788	-93,767	0,054	0,011
-561,773	-76,174	0,068	0,018
-560,758	-3,236	0,093	-0,047
-559,744	756,195	-0,035	0,070
-558,729	-200,000	0,027	-0,104
-557,715	295,022	0,068	-0,091
-556,700	216,370	-0,047	-0,054
-555,685	-58,401	-0,175	-0,055
-554,671	-200,000	-0,004	-0,095
-553,656	-200,000	0,027	0,149
-552,642	371,454	0,037	-0,055
-551,627	-15,604	0,047	-0,022
-550,612	-200,000	0,004	0,151
-549,598	-162,691	-0,100	0,004
-548,583	182,370	-0,057	0,062
-547,569	112,905	-0,083	-0,074
-546,554	-200,000	-0,008	0,094
-545,539	-200,000	-0,001	0,093
-544,525	48,076	0,181	0,124
-543,510	31,756	-0,055	-0,034
-542,496	-173,565	0,078	0,002
-541,481	-47,678	0,091	-0,032
-540,466	-88,694	-0,095	0,021
-539,452	-15,702	0,009	0,004
-538,437	-20,260	-0,132	-0,059
-537,423	-22,535	-0,047	0,021
-536,408	-72,767	0,072	-0,019
-535,393	454,011	-0,035	-0,057
-534,379	-95,703	-0,041	-0,008
-533,364	-107,458	0,136	0,022
-532,350	35,403	0,087	0,056
-531,335	-50,489	0,036	-0,012
-530,321	-98,368	-0,039	0,007
-529,306	-124,658	0,065	-0,007
-528,291	49,455	0,049	-0,034
-527,277	-200,000	-0,000	-0,108
-526,262	664,368	0,055	-0,104
-525,248	800,000	-0,012	-0,033
-524,233	-200,000	-0,002	0,037
-523,218	800,000	-0,060	0,123
-522,204	-72,321	0,059	-0,016
-521,189	630,732	-0,042	-0,079
-520,175	800,000	0,037	-0,104
-519,160	379,616	-0,046	0,069
-518,145	-200,000	0,001	0,022
-517,131	508,681	0,046	0,078
-516,116	-107,281	-0,098	0,016
-515,102	709,513	-0,049	-0,096
-514,087	-68,783	-0,084	-0,024
-513,072	43,519	0,091	0,061
-512,058	-110,348	0,101	-0,015
-511,043	-200,000	-0,009	-0,097
-510,029	-100,536	0,056	0,010
-509,014	-200,000	-0,015	0,055
-507,999	-102,955	-0,169	-0,029
-506,985	800,000	0,017	0,049
-505,970	46,527	0,009	-0,006
-504,956	113,556	-0,073	-0,065
-503,941	-200,000	-0,015	0,100
-502,926	-200,000	0,003	-0,039
-501,912	-200,000	0,050	0,197
-500,897	23,450	0,083	-0,050
-499,883	-195,659	-0,054	0,000
-498,868	-67,293	-0,115	-0,033
-497,853	-200,000	-0,001	0,019
-496,839	395,483	0,116	0,177
-495,824	-143,841	0,152	-0,010
-494,810	-200,000	-0,040	0,191
-493,795	-200,000	-0,076	0,000
-492,781	62,734	-0,049	-0,036
-491,766	-103,681	-0,065	0,011
-490,751	-94,414	0,029	-0,006
-489,737	-105,800	0,072	0,012
-488,722	-200,000	-0,022	-0,111
-487,708	800,000	0,085	-0,173
-486,693	199,267	-0,041	0,045
-485,678	-166,207	-0,084	-0,003
-484,664	-200,000	-0,030	-0,130
-483,649	-200,000	-0,003	0,028
-482,635	-200,000	-0,013	0,056
-481,620	345,105	0,054	0,078
-480,605	18,479	-0,088	0,051
-479,591	-7,005	0,023	-0,012
-478,576	-200,000	0,017	0,103
-477,562	-145,671	0,045	0,003
-476,547	22,162	-0,129	0,077
-475,532	-47,147	-0,081	0,029
-474,518	-54,098	-0,093	0,031
-473,503	491,339	-0,011	0,018
-472,489	348,833	0,036	-0,052
-471,474	44,227	-0,040	0,027
-470,459	-32,101	0,039	0,016
-469,445	32,632	0,127	0,080
-468,430	800,000	-0,061	-0,164
-467,416	88,399	0,077	0,063
-466,401	-128,191	0,128	-0,013
-465,386	40,741	0,077	-0,050
-464,372	197,277	0,048	-0,054
-463,357	80,507	-0,057	0,045
-462,343	63,124	-0,130	0,095
-461,328	525,521	0,057	-0,098
-460,313	800,000	0,037	0,080
-459,299	800,000	-0,054	0,151
-458,284	800,000	-0,029	-0,072
-457,270	-200,000	0,012	0,092
-456,255	-200,000	-0,021	-0,121
-455,241	519,167	0,015	-0,026
-454,226	-200,000	-0,025	-0,110
-453,211	393,082	0,068	0,104
-452,197	-111,278	0,063	0,009
-451,182	-200,000	-0,003	0,023
-450,168	-93,192	0,056	-0,011
-449,153	-53,644	-0,093	0,031
-448,138	143,611	-0,027	-0,026
-447,124	-125,490	0,106	-0,012
-446,109	-200,000	-0,044	0,154
-445,095	36,525	-0,063	0,041
-444,080	220,007	-0,078	0,091
-443,065	773,417	0,028	-0,056
-442,051	-200,000	-0,006	0,075
-441,036	-200,000	-0,024	-0,092
-440,022	-126,717	0,039	-0,004
-439,007	800,000	-0,026	-0,076
-437,992	-174,339	0,072	0,001
-436,978	-200,000	-0,016	0,055
-435,963	-200,000	0,003	0,036
-434,949	-200,000	-0,018	-0,132
-433,934	168,379	-0,009	-0,009
-432,919	291,064	-0,015	0,020
-431,905	-110,731	0,045	0,007
-430,890	800,000	0,036	-0,104
-429,876	-129,631	0,075	-0,007
-428,861	-200,000	0,018	0,157
-427,846	-130,164	0,048	-0,005
-426,832	72,340	-0,078	0,059
-425,817	-200,000	0,016	-0,148
-424,803	800,000	-0,067	-0,154
-423,788	438,723	-0,059	0,094
-422,773	5,840	0,076	0,041
-421,759	236,591	-0,029	0,035
-420,744	-194,580	0,105	-0,001
-419,730	-62,460	-0,135	0,041
-418,715	-38,166	-0,114	-0,044
-417,701	-118,018	-0,041	-0,005
-416,686	193,436	-0,084	-0,093
-415,671	18,977	0,127	-0,074
-414,657	-37,720	-0,111	-0,043
-413,642	-97,319	0,110	0,021
-412,628	-200,000	0,005	0,035
-411,613	712,437	-0,013	0,026
-410,598	-122,531	0,075	-0,009
-409,584	402,610	-0,034	0,052
-408,569	-129,208	0,079	-0,008
-407,555	195,343	0,050	0,055
-406,540	-120,189	0,217	-0,027
-405,525	-200,000	0,000	-0,037
-404,511	-200,000	0,004	-0,119
-403,496	-103,569	-0,045	-0,008
-402,482	586,620	0,085	-0,152
-401,467	8,142	-0,007	-0,004
-400,452	-156,105	0,073	0,003
-399,438	226,051	0,085	0,101
-398,423	463,201	0,020	-0,033
-397,409	800,000	0,006	0,018
-396,394	271,100	0,033	-0,043
-395,379	800,000	0,042	0,100
-394,365	88,655	0,037	0,030
-393,350	-200,000	0,014	0,052
-392,336	191,467	-0,039	-0,042
-391,321	-68,156	0,119	-0,033
-390,306	-125,499	-0,091	0,010
-389,292	-33,968	0,115	-0,046
-388,277	562,972	0,073	-0,129
-387,263	-45,247	0,164	-0,059
-386,248	200,133	0,048	0,054
-385,233	18,911	0,058	0,034
-384,219	-200,000	-0,004	-0,147
-383,204	162,775	-0,069	-0,070
-382,190	192,340	0,065	-0,072
-381,175	75,059	-0,050	-0,038
-380,160	-49,628	0,085	-0,029
-379,146	-200,000	0,006	0,083
-378,131	459,432	0,075	-0,122
-377,117	173,592	0,056	-0,059
-376,102	-38,824	-0,034	-0,013
-375,088	-200,000	-0,006	-0,062
-374,073	25,128	0,080	-0,048
-373,058	-7,683	0,134	-0,066
-372,044	116,557	-0,022	-0,020
-371,029	91,025	0,084	0,068
-370,015	89,967	0,035	-0,028
-369,000	771,741	-0,012	-0,024
-367,985	22,616	0,056	-0,033
-366,971	-4,421	-0,129	-0,065
-365,956	-200,000	-0,006	-0,052
-364,942	800,000	0,006	0,015
-363,927	-129,486	-0,023	-0,002
-362,912	441,414	0,113	-0,180
-361,898	-26,596	-0,128	0,054
-360,883	15,716	-0,028	-0,016
-359,869	800,000	0,037	-0,083
-358,854	153,501	0,015	-0,015
-357,839	-200,000	0,001	0,042
-356,825	-200,000	-0,031	-0,112
-355,810	103,915	0,061	-0,052
-354,796	800,000	-0,037	-0,099
-353,781	-200,000	0,004	-0,145
-352,766	198,536	0,071	-0,079
-351,752	-53,553	-0,075	0,025
-350,737	-14,010	0,125	0,059
-349,723	-8,853	0,138	-0,067
-348,708	397,671	-0,025	-0,038
-347,693	283,248	0,007	-0,010
-346,679	297,512	-0,012	0,016
-345,664	-200,000	-0,021	0,114
-344,650	427,318	0,026	-0,041
-343,635	75,692	-0,203	0,156
-342,620	-113,159	0,052	0,007
-341,606	61,371	0,163	0,117
-340,591	131,274	-0,120	-0,112
-339,577	-200,000	-0,012	-0,113
-338,562	128,007	0,076	0,070
-337,548	155,988	-0,090	-0,090
-336,533	-50,969	0,013	-0,004
-335,518	-81,454	0,063	-0,015
-334,504	800,000	0,060	0,127
-333,489	-200,000	0,009	-0,049
-332,475	479,128	0,034	0,056
-331,460	-68,231	-0,232	-0,065
-330,445	89,521	0,091	-0,074
-329,431	-200,000	-0,009	-0,158
-328,416	-200,000	0,003	-0,141
-327,402	-200,000	-0,005	0,071
-326,387	-95,041	0,132	-0,026
-325,372	-200,000	0,018	-0,101
-324,358	367,236	-0,029	0,043
-323,343	-60,364	-0,030	-0,009
-322,329	800,000	-0,009	0,027
-321,314	800,000	0,026	0,058
-320,299	800,000	-0,080	0,171
-319,285	-27,373	0,033	0,014
-318,270	-200,000	0,000	0,062
-317,256	-167,320	-0,100	-0,003
-316,241	55,351	-0,069	-0,048
-315,226	-77,870	0,102	0,025
-314,212	737,730	0,056	0,110
-313,197	282,017	-0,032	-0,042
-312,183	800,000	0,041	0,087
-311,168	197,770	0,061	-0,068
-310,153	50,125	-0,110	-0,075
-309,139	220,365	0,022	-0,026
-308,124	800,000	-0,023	-0,052
-307,110	649,974	-0,084	0,157
-306,095	-200,000	0,023	0,232
-305,080	-200,000	0,007	-0,168
-304,066	800,000	-0,058	0,144
-303,051	77,927	-0,077	-0,060
-302,037	375,028	0,062	-0,092
-301,022	-166,124	-0,034	0,001
-300,008	-200,000	-0,020	0,170
-298,993	-200,000	0,012	0,076
-297,978	198,398	0,063	-0,070
-296,964	153,012	-0,116	0,115
-295,949	-23,436	-0,077	-0,033
-294,935	329,298	-0,030	0,042
-293,920	-200,000	0,119	0,000
-292,905	-186,832	0,072	0,001
-291,891	183,766	-0,070	0,075
-290,876	800,000	0,042	-0,099
-289,862	93,743	-0,193	-0,159
-288,847	-88,827	0,092	-0,020
-287,832	-200,000	0,014	-0,148
-286,818	790,969	-0,014	0,028
-285,803	21,625	0,095	0,056
-284,789	189,138	0,027	-0,030
-283,774	-42,419	-0,056	0,021
-282,759	114,066	-0,057	0,050
-281,745	36,267	0,086	-0,055
-280,730	174,152	0,056	0,059
-279,716	-162,242	-0,102	0,004
-278,701	119,369	0,054	-0,049
-277,686	-200,000	-0,009	0,116
-276,672	181,948	-0,103	0,110
-275,657	-137,155	-0,019	0,002
-274,643	113,121	0,026	-0,023
-273,628	-149,813	0,133	0,007
-272,613	-109,096	-0,153	0,023
-271,599	-200,000	-0,027	0,150
-270,584	34,715	0,096	0,061
-269,570	-48,105	-0,120	-0,042
-268,555	-50,398	-0,093	-0,032
-267,540	-95,698	-0,099	0,019
-266,526	593,273	0,047	-0,085
-265,511	-10,039	0,070	0,034
-264,497	-200,000	0,023	0,136
-263,482	183,926	-0,023	0,025
-262,467	-46,335	0,078	-0,028
-261,453	-172,567	-0,045	-0,001
-260,438	670,548	-0,103	-0,194
-259,424	-200,000	0,001	0,050
-258,409	-114,707	-0,012	0,002
-257,395	-93,103	0,064	0,013
-256,380	-94,219	0,045	0,009
-255,365	-200,000	-0,036	0,132
-254,351	-200,000	0,028	-0,106
-253,336	-200,000	-0,044	0,148
-252,322	-184,813	0,052	-0,001
-251,307	-200,000	-0,004	-0,055
-250,292	-200,000	-0,009	0,063
-249,278	-109,843	0,154	0,023
-248,263	-58,020	-0,069	0,022
-247,249	-164,079	0,175	-0,006
-246,234	-200,000	-0,038	0,124
-245,219	9,106	-0,145	-0,079
-244,205	-112,277	0,128	0,018
-243,190	546,328	-0,029	0,051
-242,176	764,859	0,107	-0,211
-241,161	-80,183	0,046	0,011
-240,146	800,000	-0,089	0,193
-239,132	800,000	-0,005	-0,011
-238,117	27,763	0,048	-0,029
-237,103	-200,000	-0,045	-0,184
-236,088	-200,000	-0,022	0,100
-235,073	47,419	0,130	0,087
-234,059	-200,000	-0,006	0,118
-233,044	-117,578	0,175	-0,023
-232,030	473,877	-0,090	-0,148
-231,015	-155,514	0,041	-0,002
-230,000	52,460	-0,151	0,104
-228,986	-149,478	0,080	0,005
-227,971	-109,180	-0,076	0,012
-226,957	225,822	0,069	0,081
-225,942	800,000	-0,057	0,117
-224,927	271,291	-0,074	0,095
-223,913	726,905	-0,014	-0,027
-222,898	237,299	-0,050	-0,060
-221,884	432,672	-0,048	0,075
-220,869	-82,361	0,041	0,009
-219,855	-32,523	0,115	-0,046
-218,840	26,065	-0,088	0,053
-217,825	-200,000	0,004	-0,048
-216,811	-145,369	-0,079	0,005
-215,796	2,287	0,061	0,032
-214,782	14,487	-0,125	-0,070
-213,767	-173,744	0,105	-0,002
-212,752	800,000	-0,035	0,071
-211,738	-30,816	-0,105	-0,043
-210,723	-74,613	-0,038	0,010
-209,709	438,432	-0,067	-0,106
-208,694	676,211	-0,099	-0,186
-207,679	-200,000	0,021	-0,096
-206,665	800,000	-0,002	0,003
-205,650	-200,000	0,044	0,176
-204,636	259,410	0,079	-0,099
-203,621	36,746	-0,056	0,035
-202,606	-17,424	-0,088	-0,040
-201,592	62,814	-0,154	-0,111
-200,577	487,995	0,090	-0,148
-199,563	-101,964	-0,092	-0,016
-198,548	66,110	0,057	0,041
-197,533	-200,000	-0,008	-0,049
-196,519	800,000	0,036	0,093
-195,504	-137,719	0,110	-0,009
-194,490	190,746	-0,052	-0,057
-193,475	-8,362	0,106	0,051
-192,460	-154,717	-0,162	0,008
-191,446	800,000	-0,058	0,121
-190,431	550,227	0,046	0,079
-189,417	-74,179	-0,062	0,016
-188,402	110,653	0,032	0,028
-187,387	2,996	0,062	-0,033
-186,373	-82,869	-0,118	-0,027
-185,358	-141,937	0,046	0,003
-184,344	-200,000	0,005	0,037
-183,329	-34,097	0,099	0,039
-182,315	87,712	-0,195	0,156
-181,300	-200,000	-0,005	0,033
-180,285	89,223	-0,090	-0,072
-179,271	751,093	0,036	0,071
-178,256	-90,834	0,117	0,024
-177,242	-147,082	-0,061	0,004
-176,227	800,000	-0,045	0,111
-175,212	-200,000	0,043	0,204
-174,198	-200,000	-0,004	-0,098
-173,183	-129,119	0,070	0,007
-172,169	104,744	-0,096	0,082
-171,154	-200,000	0,017	-0,077
-170,139	20,815	-0,048	0,028
-169,125	45,881	0,053	-0,035
-168,110	-200,000	0,001	0,058
-167,096	-200,000	0,013	0,069
-166,081	-189,491	-0,084	-0,001
-165,066	-200,000	-0,002	-0,208
-164,052	12,746	0,046	0,026
-163,037	154,565	0,061	0,061
-162,023	-151,140	-0,066	-0,003
-161,008	-102,867	0,149	0,025
-159,993	-200,000	0,015	0,144
-158,979	-32,481	-0,158	0,063
-157,964	-200,000	-0,020	-0,163
-156,950	800,000	0,022	-0,048
-155,935	-38,984	0,072	0,027
-154,920	478,992	-0,037	0,060
-153,906	-35,838	0,072	0,028
-152,891	-176,561	-0,116	0,002
-151,877	13,629	-0,096	-0,053
-150,862	800,000	-0,038	0,090
-149,847	-186,954	-0,115	-0,001
-148,833	-57,734	0,040	-0,013
-147,818	-103,692	-0,105	-0,018
-146,804	-158,601	0,015	0,001
-145,789	-48,139	0,034	0,012
-144,775	-15,312	-0,094	-0,043
-143,760	800,000	0,020	-0,058
-142,745	-200,000	0,032	-0,137
-141,731	176,259	-0,086	-0,090
-140,716	-13,618	0,073	-0,034
-139,702	800,000	0,020	-0,052
-138,687	2,393	-0,091	0,047
-137,672	-200,000	-0,001	0,050
-136,658	-200,000	0,010	-0,091
-135,643	-200,000	-0,006	-0,095
-134,629	70,427	0,092	0,069
-133,614	404,118	-0,041	-0,063
-132,599	67,782	0,100	0,074
-131,585	156,066	-0,034	-0,034
-130,570	-200,000	0,018	-0,171
-129,556	-123,574	-0,155	-0,018
-128,541	-200,000	0,010	-0,047
-127,526	166,684	-0,087	-0,089
-126,512	-200,000	-0,050	0,180
-125,497	-200,000	0,001	0,120
-124,483	201,591	0,017	0,019
-123,468	-17,992	0,171	0,077
-122,453	800,000	-0,058	-0,129
-121,439	-39,537	-0,084	-0,031
-120,424	225,585	-0,094	-0,110
-119,410	21,285	0,070	0,041
-118,395	-200,000	-0,013	0,156
-117,380	800,000	-0,072	0,169
-116,366	84,295	-0,074	-0,058
-115,351	306,143	-0,028	0,037
-114,337	45,089	-0,125	-0,083
-113,322	-200,000	-0,014	0,073
-112,307	-42,193	0,054	0,020
-111,293	800,000	-0,051	0,108
-110,278	258,317	-0,069	0,086
-109,264	242,895	-0,036	-0,044
-108,249	-107,580	0,142	-0,022
-107,234	-101,486	-0,092	0,016
-106,220	17,458	-0,113	-0,064
-105,205	-200,000	0,015	0,056
-104,191	376,240	0,034	0,051
-103,176	148,304	0,037	-0,036
-102,162	-44,855	-0,108	-0,039
-101,147	-200,000	-0,006	0,056
-100,132	416,714	-0,040	0,061
-99,118	800,000	0,061	0,135
-98,103	800,000	-0,054	-0,110
-97,089	-200,000	0,027	0,152
-96,074	491,553	0,063	0,104
-95,059	36,703	-0,076	0,048
-94,045	-118,017	-0,134	0,017
-93,030	800,000	0,019	-0,048
-92,016	86,652	-0,104	-0,082
-91,001	56,502	-0,022	-0,015
-89,986	508,126	0,086	0,145
-88,972	242,685	-0,062	0,075
-87,957	800,000	0,010	-0,030
-86,943	-200,000	-0,018	-0,075
-85,928	-116,003	-0,041	-0,005
-84,913	-115,360	-0,205	0,028
-83,899	-161,411	-0,099	-0,004
-82,884	107,951	-0,072	0,062
-81,870	68,852	-0,105	0,077
-80,855	106,601	-0,070	-0,060
-79,840	70,301	-0,042	-0,031
-78,826	150,327	-0,039	0,038
-77,811	465,788	0,085	-0,137
-76,797	92,386	-0,116	0,094
-75,782	383,828	0,037	-0,054
-74,767	-94,801	0,045	-0,009
-73,753	-44,733	0,108	-0,039
-72,738	337,743	0,068	0,096
-71,724	318,711	-0,069	0,095
-70,709	-119,804	-0,107	-0,013
-69,694	-200,000	-0,007	-0,024
-68,680	148,288	0,127	0,123
-67,665	800,000	0,041	-0,122
-66,651	-115,929	0,039	-0,005
-65,636	800,000	0,063	-0,149
-64,622	525,052	-0,025	-0,042
-63,607	-200,000	-0,005	-0,048
-62,592	176,711	0,020	-0,021
-61,578	-107,449	-0,064	-0,010
-60,563	115,470	0,014	0,013
-59,549	57,334	-0,047	0,033
-58,534	97,504	-2,547	-2,101
-57,519	66,872	0,357	-0,261
-56,505	-200,000	-1,642	-5,289
-55,490	350,322	1,237	1,763
-54,476	800,000	5,228	11,356
-53,461	-200,000	21,875	347,834
-52,446	800,000	760,739	2315,953
-51,432	520,778	1649,920	2790,374
-50,417	102,180	1614,443	1354,125
-49,403	71,107	1270,270	944,882
-48,388	24,657	1020,419	605,368
-47,373	19,257	987,036	567,691
-46,359	13,301	974,090	540,687
-45,344	9,096	970,873	525,069
-44,330	9,586	968,980	525,633
-43,315	8,551	966,948	521,118
-42,300	8,534	965,920	520,486
-41,286	8,456	964,777	519,597
-40,271	8,487	963,871	519,190
-39,257	8,489	962,966	518,688
-38,242	8,470	961,968	518,066
-37,227	8,393	961,471	517,528
-36,213	8,494	960,264	517,187
-35,198	8,451	959,480	516,604
-34,184	8,491	958,766	516,329
-33,169	8,470	957,759	515,698
-32,154	8,499	957,110	515,422
-31,140	8,499	955,988	514,798
-30,125	8,493	955,299	514,385
-29,111	8,462	954,396	513,778
-28,096	8,513	953,910	513,662
-27,082	8,541	952,922	513,199
-26,067	8,464	952,295	512,595
-25,052	8,490	951,606	512,286
-24,038	8,449	951,084	511,852
-23,023	8,372	950,456	511,248
-22,009	8,465	949,739	511,138
-20,994	8,449	949,182	510,768
-19,979	8,420	948,709	510,402
-18,965	8,541	947,688	510,218
-17,950	8,510	947,202	509,838
-16,936	8,425	946,476	509,154
-15,921	8,467	945,747	508,877
-14,906	8,408	945,041	508,286
-13,892	8,391	944,506	507,924
-12,877	8,315	943,880	507,326
-11,863	8,321	943,315	507,022
-10,848	8,340	942,932	506,857
-9,833	8,402	942,375	506,734
-8,819	8,457	941,356	506,340
-7,804	8,360	941,051	505,849
-6,790	8,365	940,293	505,435
-5,775	8,441	939,698	505,339
-4,760	8,429	939,211	505,017
-3,746	8,375	938,670	504,535
-2,731	8,274	937,876	503,767
-1,717	8,214	937,280	503,237
-0,702	8,167	936,747	502,783
0,313	8,038	936,096	502,784
1,327	11,438	933,594	512,141
2,342	19,924	781,586	451,054
3,356	14,945	448,354	251,217
4,371	-11,404	311,933	146,791
5,386	-15,039	294,280	134,802
6,400	-17,219	288,333	129,908
7,415	-17,264	285,645	128,641
8,429	-17,717	283,880	127,393
9,444	-17,865	282,875	126,787
10,459	-17,624	282,276	126,741
11,473	-17,934	281,782	126,208
12,488	-17,746	281,309	126,166
13,502	-17,691	280,624	125,901
14,517	-17,565	280,264	125,849
15,531	-17,738	279,938	125,526
16,546	-17,630	279,562	125,449
17,561	-17,496	279,149	125,381
18,575	-17,454	278,791	125,249
19,590	-17,663	278,482	124,900
20,604	-17,303	278,171	125,092
21,619	-17,456	277,869	124,800
22,634	-17,468	277,498	124,611
23,648	-17,641	277,210	124,306
24,663	-17,551	276,937	124,258
25,677	-17,365	276,739	124,334
26,692	-17,403	276,403	124,137
27,707	-17,460	276,013	123,896
28,721	-17,383	275,862	123,890
29,736	-17,510	275,565	123,625
30,750	-17,553	275,282	123,447
31,765	-17,505	274,990	123,350
32,780	-17,639	274,859	123,154
33,794	-17,538	274,618	123,131
34,809	-17,408	274,218	123,062
35,823	-17,414	274,098	122,992
36,838	-17,487	273,829	122,792
37,853	-17,474	273,373	122,588
38,867	-17,526	273,243	122,470
39,882	-17,406	273,085	122,501
40,896	-17,495	272,779	122,270
41,911	-17,437	272,500	122,188
42,926	-17,463	272,256	122,043
43,940	-17,646	272,104	121,794
44,955	-17,450	271,775	121,818
45,969	-17,633	271,563	121,542
46,984	-17,494	271,506	121,635
47,999	-17,575	271,386	121,495
49,013	-17,306	270,991	121,557
50,028	-17,188	270,732	121,539
51,042	-17,237	270,601	121,424
52,057	-17,355	270,396	121,212
53,071	-17,381	270,197	121,088
54,086	-17,316	269,893	121,001
55,101	-17,375	269,774	120,883
56,115	-17,498	269,539	120,653
57,130	-17,456	269,154	120,508
58,144	-17,473	268,911	120,374
59,159	-17,369	268,543	120,293
60,174	-17,536	268,284	120,014
61,188	-17,407	268,114	120,045
62,203	-17,453	267,906	119,899
63,217	-17,262	267,588	119,920
64,232	-17,433	267,369	119,656
65,247	-17,350	267,096	119,599
66,261	-17,591	267,019	119,334
67,276	-17,449	266,835	119,370
68,290	-17,273	266,522	119,380
69,305	-17,479	266,372	119,115
70,320	-17,429	266,108	119,031
71,334	-17,344	265,911	119,009
72,349	-17,445	265,617	118,776
73,363	-17,711	265,630	118,530
74,378	-17,468	265,123	118,513
75,393	-17,426	265,006	118,488
76,407	-17,267	264,592	118,436
77,422	-17,224	264,513	118,429
78,436	-17,462	264,390	118,149
79,451	-17,383	264,192	118,121
80,466	-17,363	263,877	117,987
81,480	-17,268	263,513	117,899
82,495	-17,375	263,508	117,791
83,509	-17,353	263,308	117,711
84,524	-17,470	263,058	117,483
85,539	-17,330	262,770	117,469
86,553	-17,325	262,674	117,421
87,568	-17,307	262,437	117,320
88,582	-17,330	262,229	117,197
89,597	-17,428	261,975	116,984
90,611	-17,376	261,803	116,944
91,626	-17,233	261,639	116,988
92,641	-17,431	261,407	116,697
93,655	-17,287	261,223	116,733
94,670	-17,517	261,010	116,423
95,684	-17,461	260,750	116,346
96,699	-17,464	260,529	116,235
97,714	-17,442	260,396	116,185
98,728	-17,201	260,174	116,288
99,743	-17,364	259,985	116,050
100,757	-17,355	259,758	115,945
101,772	-17,285	259,490	115,877
102,787	-17,299	259,219	115,734
103,801	-17,356	259,012	115,580
104,816	-17,185	258,752	115,605
105,830	-17,293	258,638	115,449
106,845	-17,529	258,513	115,175
107,860	-17,274	258,313	115,300
108,874	-17,315	258,157	115,184
109,889	-17,356	257,895	115,021
110,903	-17,354	257,587	114,875
111,918	-17,352	257,656	114,897
112,933	-17,278	257,258	114,774
113,947	-17,411	257,217	114,629
114,962	-17,520	256,962	114,410
115,976	-17,399	256,784	114,426
116,991	-17,539	256,449	114,145
118,006	-17,478	256,403	114,167
119,020	-17,439	256,148	114,078
120,035	-17,479	256,093	114,008
121,049	-17,520	255,899	113,876
122,064	-17,554	255,571	113,690
123,079	-17,363	255,201	113,681
124,093	-17,356	255,128	113,644
125,108	-17,278	254,872	113,588
126,122	-17,297	254,825	113,541
127,137	-17,258	254,561	113,446
128,151	-17,242	254,467	113,408
129,166	-17,248	254,206	113,277
130,181	-17,300	253,995	113,128
131,195	-17,237	253,768	113,071
132,210	-17,283	253,560	112,929
133,224	-17,493	253,319	112,631
134,239	-17,436	253,305	112,663
135,254	-17,278	252,915	112,615
136,268	-17,402	252,758	112,428
137,283	-17,239	252,641	112,506
138,297	-17,293	252,382	112,335
139,312	-17,063	252,162	112,424
140,327	-17,257	251,882	112,123
141,341	-17,444	251,788	111,911
142,356	-17,153	251,417	111,985
143,370	-17,470	251,588	111,781
144,385	-17,120	251,182	111,889
145,400	-17,332	250,944	111,592
146,414	-17,407	250,797	111,453
147,429	-17,358	250,563	111,381
148,443	-17,413	250,577	111,330
149,458	-17,442	250,311	111,177
150,473	-17,168	249,959	111,243
151,487	-17,637	249,974	110,842
152,502	-17,183	249,629	111,064
153,516	-17,275	249,403	110,876
154,531	-17,362	249,356	110,771
155,546	-17,404	249,101	110,613
156,560	-17,298	248,938	110,620
157,575	-17,337	248,764	110,500
158,589	-17,314	248,518	110,400
159,604	-17,333	248,311	110,282
160,619	-17,381	248,217	110,190
161,633	-17,516	248,116	110,023
162,648	-17,186	247,736	110,121
163,662	-17,311	247,642	109,965
164,677	-17,290	247,515	109,916
165,692	-17,343	247,367	109,796
166,706	-17,442	247,253	109,652
167,721	-17,402	247,064	109,593
168,735	-17,189	246,841	109,662
169,750	-17,284	246,711	109,515
170,764	-17,390	246,608	109,371
171,779	-17,210	246,323	109,385
172,794	-17,185	246,192	109,338
173,808	-17,255	245,985	109,178
174,823	-17,327	245,894	109,068
175,837	-17,266	245,716	109,030
176,852	-17,243	245,418	108,907
177,867	-17,326	245,363	108,804
178,881	-17,176	245,147	108,823
179,896	-17,222	244,888	108,660
180,910	-17,240	244,831	108,610
181,925	-17,521	244,593	108,263
182,940	-17,292	244,467	108,387
183,954	-17,286	244,189	108,258
184,969	-17,316	244,121	108,194
185,983	-17,213	243,997	108,214
186,998	-17,129	243,690	108,137
188,013	-17,264	243,598	107,976
189,027	-17,335	243,392	107,817
190,042	-17,394	243,210	107,678
191,056	-17,428	243,031	107,561
192,071	-17,652	242,926	107,322
193,086	-17,437	242,685	107,382
194,100	-17,277	242,381	107,369
195,115	-17,342	242,174	107,214
196,129	-17,225	242,056	107,248
197,144	-17,465	241,890	106,969
198,159	-17,261	241,737	107,058
199,173	-17,464	241,522	106,788
200,188	-17,412	241,362	106,750
201,202	-17,134	241,108	106,855
202,217	-17,164	241,053	106,796
203,232	-17,215	240,939	106,694
204,246	-17,445	240,585	106,342
205,261	-17,612	240,352	106,094
206,275	-16,311	240,696	107,292
207,290	-11,688	242,597	111,910
208,304	-5,137	244,576	118,202
209,319	-2,173	245,252	120,958
210,334	-1,267	245,438	121,784
211,348	-0,380	245,758	122,662
212,363	0,389	245,708	123,259
213,377	0,850	245,706	123,627
214,392	1,169	245,646	123,847
215,407	1,276	245,640	123,921
216,421	1,343	245,393	123,841
217,436	1,490	245,277	123,891
218,450	1,399	245,213	123,773
219,465	1,635	244,991	123,843
220,480	1,649	244,753	123,724
221,494	1,533	244,634	123,558
222,509	1,061	244,305	122,995
223,523	0,861	244,094	122,715
224,538	0,589	243,933	122,401
225,553	0,646	243,759	122,350
226,567	0,506	243,579	122,135
227,582	1,048	243,351	122,450
228,596	0,613	243,371	122,095
229,611	0,694	243,180	122,054
230,626	0,523	242,917	121,772
231,640	0,719	242,749	121,837
232,655	0,698	242,586	121,726
233,669	0,573	242,404	121,523
234,684	0,384	242,255	121,284
235,699	0,785	242,109	121,526
236,713	0,937	241,910	121,537
237,728	0,737	241,663	121,241
238,742	0,599	241,539	121,056
239,757	0,676	241,433	121,055
240,772	0,728	241,293	121,015
241,786	0,769	241,199	120,990
242,801	0,657	241,063	120,822
243,815	0,670	240,879	120,729
244,830	0,468	240,707	120,470
245,844	0,561	240,478	120,419
246,859	0,682	240,430	120,482
247,874	0,758	239,994	120,313
248,888	0,575	240,052	120,185
249,903	0,836	239,893	120,303
250,917	0,636	239,732	120,052
251,932	0,847	239,631	120,159
252,947	0,772	239,464	120,005
253,961	0,735	239,242	119,854
254,976	0,624	239,204	119,735
255,990	0,948	238,911	119,835
257,005	0,518	238,983	119,518
258,020	0,531	238,746	119,400
259,034	0,699	238,578	119,439
260,049	0,775	238,335	119,367
261,063	0,695	238,146	119,199
262,078	0,619	238,151	119,130
263,093	0,716	238,022	119,131
264,107	0,663	237,788	118,961
265,122	0,584	237,633	118,811
266,136	0,789	237,511	118,901
267,151	1,006	237,146	118,880
268,166	0,777	237,143	118,686
269,180	0,836	236,842	118,571
270,195	0,715	236,662	118,376
271,209	0,790	236,676	118,431
272,224	0,591	236,543	118,198
273,239	0,616	236,409	118,140
274,253	0,653	236,121	118,014
275,268	0,701	235,935	117,949
276,282	0,622	235,904	117,860
277,297	0,516	235,794	117,712
278,312	0,836	235,615	117,863
279,326	0,786	235,383	117,697
280,341	0,742	235,240	117,581
281,355	0,766	235,226	117,582
282,370	0,854	235,008	117,531
283,384	0,598	234,898	117,266
284,399	0,668	234,665	117,194
285,414	0,747	234,534	117,180
286,428	0,713	234,364	117,058
287,443	0,796	234,283	117,071
288,457	0,960	234,000	117,047
289,472	0,686	234,083	116,865
290,487	0,887	233,812	116,876
291,501	0,904	233,488	116,716
292,516	1,000	233,362	116,717
293,530	0,993	233,290	116,666
294,545	0,877	233,255	116,548
295,560	0,837	233,052	116,405
296,574	0,930	232,853	116,367
297,589	0,804	232,868	116,266
298,603	1,032	232,648	116,322
299,618	0,803	232,453	116,038
300,633	1,003	232,273	116,092
301,647	1,117	232,217	116,142
302,662	0,886	232,211	115,950
303,676	0,966	231,872	115,832
304,691	0,976	231,720	115,753
305,706	0,864	231,586	115,590
306,720	1,122	231,457	115,714
307,735	1,108	231,291	115,609
308,749	0,915	231,188	115,400
309,764	0,784	230,979	115,185
310,779	0,869	230,903	115,201
311,793	0,805	230,679	115,031
312,808	0,890	230,507	114,999
313,822	1,024	230,410	115,044
314,837	0,778	230,304	114,793
315,852	0,985	230,085	114,831
316,866	1,247	229,946	114,951
317,881	0,962	229,849	114,675
318,895	1,037	229,618	114,607
319,910	1,053	229,510	114,554
320,925	0,919	229,249	114,312
321,939	0,945	229,198	114,296
322,954	0,913	229,113	114,220
323,968	1,096	228,864	114,224
324,983	1,039	228,866	114,171
325,997	1,099	228,564	114,056
327,012	1,052	228,428	113,942
328,027	1,058	228,431	113,938
329,041	0,952	228,218	113,742
330,056	0,786	228,207	113,601
331,070	1,015	227,901	113,612
332,085	0,926	227,768	113,467
333,100	0,905	227,570	113,343
334,114	1,198	227,279	113,409
335,129	1,140	227,170	113,301
336,143	1,184	227,010	113,244
337,158	1,173	227,054	113,247
338,173	1,008	226,862	113,018
339,187	1,182	226,751	113,083
340,202	1,300	226,622	113,096
341,216	1,048	226,541	112,857
342,231	1,156	226,277	112,796
343,246	1,177	226,219	112,774
344,260	1,236	226,097	112,747
345,275	1,210	226,042	112,690
346,289	1,185	225,805	112,543
347,304	1,302	225,620	112,527
348,319	0,994	225,534	112,245
349,333	1,156	225,256	112,218
350,348	1,095	225,149	112,109
351,362	1,185	225,014	112,099
352,377	1,138	224,929	112,011
353,392	1,338	224,822	112,097
354,406	0,918	224,851	111,789
355,421	193,341	1312,388	1382,993
356,435	154,894	1444,751	1382,832
