DTS Sentinel unit serial number:	SN410029Multiplexer serial number:	ORYXHardware model number:	OX2-SRSoftware version number:	ORYX F/W v4,00 Oryx Data Collector v3.7.2.0data status	okinstallation	B5 Nyhavnadifferential loss correction	single-endedforward channel	channel 2reverse channel	N/Adate	2023/12/14time	05:42:13forward acquisition time	300,00reverse acquisition time	0,00gamma	499,1914k internal	0,3157k external	0,3157temperature offset calibration	1,0000default loss term (dB/km)	0,3820temperature slope calibration	1,0000multiplexer offset coefficient	1,0000multiplexer slope coefficient	1,0000fibre end	0,00T internal ref (°C)	7,73T ext. ref 1 (°C)	-8,76T ext. ref 2 (°C)	-8,85length (m)	temperature (°C)	Stokes	anti-Stokes-744,400	136,231	0,072	0,070
-743,385	-86,343	-0,245	-0,055
-742,371	534,933	0,092	0,161
-741,356	-117,378	-0,392	-0,052
-740,342	-44,201	0,119	-0,044
-739,327	-104,571	-0,448	-0,075
-738,312	-9,167	0,125	-0,062
-737,298	6,633	-0,330	-0,180
-736,283	-119,213	0,181	-0,023
-735,269	-122,384	-0,354	0,042
-734,254	-88,735	0,231	0,050
-733,239	-81,865	-0,510	-0,122
-732,225	332,771	0,158	0,226
-731,210	-200,000	-0,019	0,079
-730,196	-98,427	-0,064	0,012
-729,181	-37,885	-0,195	0,076
-728,167	-27,139	-0,083	0,035
-727,152	800,000	-0,007	0,018
-726,137	48,305	-0,094	0,065
-725,123	-200,000	-0,005	-0,061
-724,108	94,748	0,062	-0,052
-723,094	-125,463	-0,179	0,020
-722,079	106,444	-0,042	-0,037
-721,064	165,066	0,026	0,027
-720,050	800,000	0,039	0,088
-719,035	-56,394	0,038	-0,013
-718,021	29,780	-0,060	-0,038
-717,006	-200,000	0,014	-0,113
-715,991	800,000	-0,052	-0,142
-714,977	-200,000	-0,011	0,075
-713,962	-139,442	0,066	-0,005
-712,948	800,000	-0,005	-0,011
-711,933	-200,000	0,006	-0,159
-710,918	10,833	-0,153	-0,086
-709,904	127,237	-0,015	0,014
-708,889	55,019	-0,040	0,029
-707,875	-200,000	-0,029	-0,123
-706,860	-200,000	-0,016	0,153
-705,845	-87,420	0,119	-0,026
-704,831	-133,574	-0,013	0,001
-703,816	118,112	-0,036	-0,032
-702,802	800,000	-0,036	-0,096
-701,787	-200,000	-0,023	-0,165
-700,772	800,000	-0,052	0,113
-699,758	749,086	-0,044	-0,087
-698,743	-49,773	-0,047	0,016
-697,729	71,293	-0,079	0,060
-696,714	-1,192	-0,031	0,016
-695,699	-200,000	-0,035	0,140
-694,685	-24,954	-0,149	-0,065
-693,670	374,555	0,025	0,038
-692,656	-11,056	-0,111	0,054
-691,641	-200,000	0,006	-0,083
-690,627	197,873	0,010	0,011
-689,612	51,935	0,047	-0,033
-688,597	-105,556	-0,085	-0,014
-687,583	-163,611	-0,100	0,003
-686,568	800,000	-0,028	-0,066
-685,554	366,802	-0,037	-0,056
-684,539	48,671	0,042	-0,029
-683,524	-200,000	0,034	-0,110
-682,510	203,674	0,041	0,046
-681,495	-14,736	0,042	0,020
-680,481	800,000	-0,014	0,037
-679,466	94,910	-0,117	-0,098
-678,451	39,495	-0,118	-0,078
-677,437	-57,848	-0,143	-0,046
-676,422	-49,713	0,128	0,045
-675,408	200,093	0,042	0,047
-674,393	-31,140	0,024	0,010
-673,378	191,104	-0,131	-0,145
-672,364	79,835	0,106	0,084
-671,349	-200,000	0,003	-0,153
-670,335	-200,000	-0,008	0,079
-669,320	-200,000	-0,006	-0,051
-668,305	-200,000	0,004	-0,015
-667,291	336,172	0,044	0,063
-666,276	-48,721	-0,022	0,008
-665,262	274,211	0,070	0,091
-664,247	-69,458	0,113	-0,032
-663,232	161,896	0,019	-0,019
-662,218	-200,000	0,030	0,115
-661,203	566,840	0,018	-0,032
-660,189	13,509	-0,105	-0,060
-659,174	-118,812	-0,066	0,008
-658,159	-59,573	-0,073	0,023
-657,145	-55,488	-0,056	0,018
-656,130	614,903	-0,005	-0,009
-655,116	101,158	0,064	-0,055
-654,101	48,497	-0,035	0,024
-653,086	134,338	0,100	-0,096
-652,072	321,869	-0,073	0,103
-651,057	800,000	-0,059	0,121
-650,043	256,265	-0,052	-0,065
-649,028	-200,000	-0,039	-0,149
-648,014	2,437	-0,045	-0,024
-646,999	800,000	-0,030	0,078
-645,984	98,153	-0,089	-0,076
-644,970	-200,000	-0,028	-0,118
-643,955	-101,528	-0,104	-0,018
-642,941	346,523	0,041	-0,059
-641,926	800,000	0,069	-0,200
-640,911	-200,000	0,001	0,085
-639,897	-200,000	-0,002	-0,037
-638,882	-200,000	-0,010	0,150
-637,868	-109,248	-0,122	-0,019
-636,853	409,865	-0,018	-0,028
-635,838	103,044	-0,040	-0,034
-634,824	379,999	0,075	-0,113
-633,809	80,729	0,153	-0,121
-632,795	-200,000	0,000	0,067
-631,780	-141,510	-0,056	-0,004
-630,765	-110,061	0,123	-0,019
-629,751	-160,383	-0,061	-0,002
-628,736	-41,623	-0,154	0,058
-627,722	100,415	0,110	-0,093
-626,707	-174,091	-0,137	0,003
-625,692	29,763	0,113	0,071
-624,678	-200,000	-0,004	-0,045
-623,663	75,336	-0,110	-0,085
-622,649	74,037	-0,062	-0,047
-621,634	800,000	-0,028	-0,091
-620,619	-200,000	-0,028	0,128
-619,605	577,755	0,086	0,155
-618,590	-200,000	-0,010	-0,157
-617,576	89,649	0,109	0,089
-616,561	-200,000	0,016	0,094
-615,546	137,836	0,083	-0,080
-614,532	-200,000	0,030	-0,107
-613,517	20,208	-0,071	0,042
-612,503	110,465	0,045	0,040
-611,488	220,351	-0,040	-0,047
-610,474	256,240	0,015	0,019
-609,459	-200,000	-0,025	0,095
-608,444	-200,000	-0,007	-0,047
-607,430	507,052	-0,045	-0,077
-606,415	-82,143	-0,155	-0,037
-605,401	-128,064	-0,100	0,010
-604,386	800,000	-0,041	0,089
-603,371	-200,000	0,006	0,139
-602,357	-200,000	0,023	0,206
-601,342	-200,000	0,035	-0,126
-600,328	-133,793	0,070	0,006
-599,313	87,567	-0,090	-0,073
-598,298	385,339	0,047	0,071
-597,284	-200,000	0,005	0,102
-596,269	800,000	0,017	-0,053
-595,255	-74,128	-0,205	-0,054
-594,240	223,572	-0,094	-0,111
-593,225	-152,005	-0,046	0,002
-592,211	-62,821	-0,092	0,028
-591,196	-200,000	-0,028	0,099
-590,182	282,825	-0,036	0,047
-589,167	294,952	0,072	0,096
-588,152	-165,782	0,110	0,003
-587,138	455,065	-0,048	0,078
-586,123	-200,000	-0,020	-0,092
-585,109	-116,095	-0,106	-0,014
-584,094	40,025	0,095	-0,062
-583,079	160,910	0,079	0,081
-582,065	33,414	0,119	-0,076
-581,050	-105,755	-0,025	0,004
-580,036	318,209	-0,053	-0,074
-579,021	-39,450	-0,049	-0,019
-578,006	54,173	-0,162	-0,114
-576,992	703,441	0,057	-0,111
-575,977	91,410	0,078	-0,064
-574,963	-104,149	0,097	0,016
-573,948	-200,000	-0,007	-0,026
-572,934	-200,000	-0,001	-0,055
-571,919	87,173	-0,095	0,077
-570,904	383,135	-0,053	0,080
-569,890	317,033	0,058	0,080
-568,875	-200,000	-0,001	0,077
-567,861	-200,000	-0,027	0,118
-566,846	-161,457	0,030	0,001
-565,831	-93,346	-0,218	-0,044
-564,817	9,173	0,019	0,010
-563,802	-200,000	0,002	-0,029
-562,788	800,000	0,042	0,118
-561,773	-200,000	-0,017	-0,075
-560,758	-124,958	0,179	-0,020
-559,744	-38,056	0,093	0,036
-558,729	800,000	0,035	0,102
-557,715	255,363	0,035	-0,044
-556,700	-175,467	-0,012	0,000
-555,685	-134,132	0,034	-0,003
-554,671	171,912	-0,034	0,035
-553,656	-76,481	0,046	0,012
-552,642	-130,067	0,071	0,007
-551,627	-86,272	-0,133	0,030
-550,612	-200,000	-0,035	0,133
-549,598	800,000	-0,034	0,107
-548,583	-200,000	-0,043	-0,154
-547,569	567,406	-0,028	0,050
-546,554	-200,000	-0,023	0,100
-545,539	-178,601	0,055	-0,001
-544,525	-200,000	0,024	0,178
-543,510	-200,000	-0,005	-0,020
-542,496	-200,000	0,015	-0,125
-541,481	-163,124	-0,127	0,004
-540,466	800,000	0,031	-0,072
-539,452	-200,000	0,010	0,039
-538,437	800,000	-0,068	0,146
-537,423	-46,671	-0,034	0,012
-536,408	216,672	0,115	0,134
-535,393	800,000	0,032	-0,097
-534,379	3,221	-0,101	-0,054
-533,364	-200,000	0,039	-0,181
-532,350	800,000	0,032	-0,084
-531,335	-200,000	-0,015	0,069
-530,321	278,250	-0,051	0,067
-529,306	-61,802	-0,104	0,032
-528,291	73,733	-0,035	-0,027
-527,277	-47,760	-0,151	-0,053
-526,262	-137,505	0,105	0,009
-525,248	32,529	0,014	0,009
-524,233	-200,000	-0,013	0,175
-523,218	8,688	0,146	-0,080
-522,204	-169,201	-0,066	0,002
-521,189	-29,669	-0,099	-0,041
-520,175	-14,695	0,030	-0,014
-519,160	236,224	-0,066	-0,080
-518,145	800,000	-0,039	0,112
-517,131	-200,000	-0,039	0,154
-516,116	-200,000	0,004	0,042
-515,102	269,462	0,022	0,028
-514,087	578,630	-0,046	-0,083
-513,072	-200,000	0,012	-0,169
-512,058	36,457	-0,046	-0,030
-511,043	308,763	0,048	-0,066
-510,029	153,398	0,060	-0,060
-509,014	-196,982	-0,175	-0,001
-507,999	-122,455	-0,030	0,003
-506,985	-23,471	-0,062	0,027
-505,970	-200,000	-0,002	0,065
-504,956	576,420	0,023	-0,042
-503,941	800,000	0,036	-0,085
-502,926	-200,000	-0,002	-0,051
-501,912	520,234	-0,049	-0,085
-500,897	430,662	-0,106	0,168
-499,883	-22,203	-0,034	-0,015
-498,868	-200,000	0,005	0,064
-497,853	380,117	0,013	0,020
-496,839	-200,000	0,029	0,101
-495,824	-200,000	-0,002	-0,087
-494,810	-108,886	0,089	0,014
-493,795	800,000	0,035	0,088
-492,781	71,658	-0,087	0,066
-491,766	9,861	-0,095	0,053
-490,751	800,000	-0,055	-0,148
-489,737	-200,000	-0,019	-0,116
-488,722	402,183	0,005	-0,007
-487,708	-133,312	0,150	-0,014
-486,693	233,673	0,085	0,102
-485,678	800,000	-0,002	-0,004
-484,664	47,525	-0,064	0,044
-483,649	-193,596	-0,127	0,001
-482,635	800,000	-0,046	0,125
-481,620	-112,647	0,051	0,007
-480,605	-6,309	0,146	0,073
-479,591	-13,957	0,030	0,014
-478,576	142,959	-0,031	0,030
-477,562	-84,364	-0,046	0,011
-476,547	-61,614	-0,061	0,019
-475,532	800,000	-0,046	-0,097
-474,518	-42,398	0,046	0,017
-473,503	-35,402	0,122	-0,048
-472,489	-41,984	0,131	-0,049
-471,474	-60,881	0,159	0,049
-470,459	129,379	0,054	-0,050
-469,445	41,737	0,070	0,046
-468,430	217,151	0,029	0,033
-467,416	423,666	0,037	-0,058
-466,401	67,306	-0,130	0,097
-465,386	-23,364	0,086	0,037
-464,372	-192,394	0,074	0,000
-463,357	317,634	0,041	-0,057
-462,343	-140,381	0,077	0,006
-461,328	442,108	-0,041	-0,066
-460,313	-200,000	-0,002	-0,185
-459,299	299,427	0,080	0,108
-458,284	-53,094	0,093	0,031
-457,270	715,270	-0,050	-0,098
-456,255	800,000	-0,051	0,106
-455,241	281,535	-0,027	0,035
-454,226	-200,000	0,003	-0,019
-453,211	160,590	-0,030	-0,031
-452,197	312,530	0,064	0,088
-451,182	-200,000	-0,049	0,169
-450,168	-200,000	-0,006	0,103
-449,153	-127,466	-0,124	-0,013
-448,138	190,615	-0,041	-0,045
-447,124	449,657	0,057	-0,092
-446,109	4,724	-0,029	-0,015
-445,095	-200,000	0,018	0,066
-444,080	-46,557	-0,066	0,024
-443,065	138,798	0,091	-0,087
-442,051	800,000	0,019	-0,060
-441,036	43,611	-0,055	-0,037
-440,022	753,648	0,035	-0,069
-439,007	-77,679	0,112	-0,028
-437,992	160,924	-0,120	0,122
-436,978	380,638	0,099	0,149
-435,963	183,931	-0,073	0,079
-434,949	209,012	-0,105	-0,120
-433,934	-142,263	-0,027	-0,002
-432,919	231,510	-0,070	0,084
-431,905	71,823	0,098	-0,074
-430,890	152,570	0,077	0,077
-429,876	343,359	-0,112	0,161
-428,861	402,095	0,103	0,158
-427,846	-0,381	0,043	-0,022
-426,832	-57,930	-0,038	-0,012
-425,817	55,023	-0,085	0,060
-424,803	800,000	-0,001	0,004
-423,788	155,586	-0,052	0,052
-422,773	-41,991	0,116	0,043
-421,759	-62,516	0,095	-0,029
-420,744	-52,637	-0,115	-0,038
-419,730	69,146	-0,058	-0,044
-418,715	332,937	-0,059	-0,083
-417,701	390,001	-0,081	-0,123
-416,686	9,362	0,053	0,029
-415,671	800,000	0,083	0,178
-414,657	-30,905	0,033	0,013
-413,642	-20,436	0,020	0,009
-412,628	289,088	-0,065	-0,086
-411,613	-200,000	0,016	-0,131
-410,598	-200,000	-0,015	-0,143
-409,584	-146,556	-0,122	-0,008
-408,569	-78,700	-0,043	-0,011
-407,555	-200,000	0,005	-0,039
-406,540	-175,494	0,150	-0,003
-405,525	137,334	0,155	-0,148
-404,511	414,221	0,039	-0,060
-403,496	71,344	0,086	0,065
-402,482	283,242	0,082	0,108
-401,467	-200,000	0,031	0,103
-400,452	-200,000	0,022	0,100
-399,438	-4,313	0,057	-0,029
-398,423	-200,000	-0,022	-0,112
-397,409	800,000	-0,072	-0,146
-396,394	308,035	-0,063	-0,086
-395,379	-147,264	0,038	-0,002
-394,365	616,063	0,028	-0,051
-393,350	-200,000	-0,010	0,076
-392,336	-200,000	-0,012	-0,044
-391,321	88,005	-0,088	-0,071
-390,306	-88,631	0,029	0,006
-389,292	504,803	-0,025	0,042
-388,277	3,808	-0,135	0,071
-387,263	219,139	-0,075	-0,088
-386,248	77,803	-0,062	-0,048
-385,233	-48,694	-0,113	0,039
-384,219	800,000	-0,038	-0,091
-383,204	-200,000	0,049	-0,159
-382,190	-200,000	0,024	-0,080
-381,175	-8,740	-0,018	0,009
-380,160	800,000	0,033	-0,067
-379,146	279,019	0,056	0,072
-378,131	25,114	0,032	0,019
-377,117	182,715	-0,085	0,091
-376,102	112,832	0,097	-0,085
-375,088	-200,000	-0,006	-0,131
-374,073	223,571	-0,067	-0,079
-373,058	-12,295	0,092	0,043
-372,044	602,951	0,053	0,097
-371,029	113,244	-0,112	0,099
-370,015	247,694	0,043	0,052
-369,000	-100,327	-0,090	0,016
-367,985	-7,506	-0,043	-0,021
-366,971	170,845	-0,014	-0,015
-365,956	251,730	0,027	0,034
-364,942	-91,622	0,132	-0,027
-363,927	221,860	0,056	0,066
-362,912	582,353	-0,032	-0,057
-361,898	-5,444	-0,072	-0,036
-360,883	438,561	-0,025	0,039
-359,869	81,033	0,045	0,035
-358,854	-200,000	0,012	-0,048
-357,839	157,889	-0,081	0,082
-356,825	82,992	-0,016	0,012
-355,810	288,689	0,051	-0,068
-354,796	95,779	0,088	0,073
-353,781	-200,000	0,017	-0,089
-352,766	-200,000	-0,011	-0,096
-351,752	-45,197	-0,032	-0,012
-350,737	-200,000	-0,011	0,074
-349,723	-200,000	0,003	0,030
-348,708	-200,000	-0,002	0,138
-347,693	645,216	-0,052	-0,097
-346,679	145,076	0,083	-0,081
-345,664	-140,931	-0,053	-0,004
-344,650	-111,951	0,120	0,017
-343,635	800,000	0,043	0,087
-342,620	-91,323	-0,133	0,027
-341,606	239,161	-0,091	0,110
-340,591	230,807	-0,066	-0,078
-339,577	-200,000	0,005	0,132
-338,562	97,973	0,112	0,094
-337,548	-66,758	0,109	-0,031
-336,533	-73,210	0,175	0,046
-335,518	800,000	-0,018	0,047
-334,504	-200,000	0,012	-0,050
-333,489	-99,751	-0,093	0,017
-332,475	-133,986	-0,038	0,003
-331,460	693,911	-0,079	0,151
-330,445	-99,995	-0,054	-0,010
-329,431	-200,000	0,040	0,192
-328,416	-80,737	-0,024	0,006
-327,402	26,657	-0,089	0,054
-326,387	-200,000	-0,022	-0,093
-325,372	533,201	-0,071	-0,122
-324,358	-55,585	0,034	-0,011
-323,343	37,464	-0,048	0,031
-322,329	-200,000	0,023	0,116
-321,314	126,693	0,047	0,043
-320,299	358,242	0,040	0,058
-319,285	481,034	-0,049	-0,081
-318,270	800,000	0,075	-0,181
-317,256	583,441	-0,052	-0,092
-316,241	57,483	-0,131	0,093
-315,226	592,578	-0,020	-0,035
-314,212	52,348	0,033	0,023
-313,197	800,000	0,042	0,096
-312,183	-56,180	-0,043	0,014
-311,168	-152,167	-0,088	0,005
-310,153	-200,000	-0,017	-0,164
-309,139	488,400	0,037	-0,061
-308,124	371,634	0,072	0,107
-307,110	-200,000	-0,003	0,156
-306,095	171,380	0,014	-0,014
-305,080	800,000	-0,013	-0,031
-304,066	382,431	0,033	0,050
-303,051	722,470	-0,029	-0,056
-302,037	800,000	-0,061	-0,188
-301,022	-159,330	0,179	0,007
-300,008	800,000	-0,018	0,044
-298,993	125,702	0,066	0,061
-297,978	-116,512	0,239	-0,032
-296,964	356,244	0,003	0,004
-295,949	392,620	-0,053	-0,081
-294,935	-19,539	-0,077	0,034
-293,920	60,508	0,095	0,068
-292,905	-200,000	0,022	-0,092
-291,891	-200,000	0,016	-0,051
-290,876	167,868	0,041	0,042
-289,862	256,602	0,106	0,132
-288,847	-43,046	-0,047	-0,017
-287,832	-200,000	0,013	-0,214
-286,818	-200,000	0,004	-0,075
-285,803	56,820	-0,101	-0,071
-284,789	-73,102	0,087	-0,023
-283,774	-200,000	0,032	0,119
-282,759	55,796	-0,057	0,040
-281,745	90,409	-0,005	0,004
-280,730	482,354	0,037	-0,062
-279,716	-67,988	-0,083	-0,023
-278,701	-200,000	0,004	0,042
-277,686	-200,000	0,030	0,114
-276,672	21,975	0,084	-0,049
-275,657	-200,000	0,003	-0,037
-274,643	-200,000	-0,019	-0,077
-273,628	-53,568	0,144	-0,047
-272,613	498,627	-0,039	-0,066
-271,599	-200,000	0,006	-0,065
-270,584	14,949	0,122	-0,069
-269,570	-44,948	-0,014	0,005
-268,555	-4,392	-0,063	0,031
-267,540	-103,929	0,124	0,021
-266,526	-200,000	-0,033	-0,133
-265,511	-78,582	0,095	-0,023
-264,497	25,910	-0,029	0,017
-263,482	-200,000	0,003	0,056
-262,467	90,702	-0,024	-0,019
-261,453	164,540	0,032	0,033
-260,438	67,640	-0,037	-0,027
-259,424	54,799	-0,140	0,098
-258,409	326,613	0,033	-0,046
-257,395	165,085	-0,047	0,048
-256,380	498,519	0,006	0,010
-255,365	-166,557	0,064	0,002
-254,351	-154,563	0,057	0,003
-253,336	-74,434	-0,100	0,026
-252,322	25,773	-0,019	-0,011
-251,307	130,683	0,038	-0,036
-250,292	800,000	-0,054	-0,127
-249,278	800,000	0,008	-0,025
-248,263	756,127	0,081	0,159
-247,249	600,982	-0,054	-0,098
-246,234	-110,899	0,055	-0,008
-245,219	337,684	-0,034	0,048
-244,205	-200,000	0,008	-0,066
-243,190	-87,911	0,021	-0,004
-242,176	425,119	-0,014	0,022
-241,161	-150,955	0,146	-0,008
-240,146	72,005	0,109	-0,082
-239,132	4,786	-0,040	-0,021
-238,117	42,873	-0,213	-0,140
-237,103	-200,000	-0,017	-0,107
-236,088	12,201	-0,108	0,060
-235,073	497,066	0,052	0,087
-234,059	-133,108	0,044	0,004
-233,044	-20,676	-0,076	-0,034
-232,030	19,407	0,072	0,042
-231,015	-28,786	0,020	-0,008
-230,000	260,671	-0,040	-0,050
-228,986	-28,547	-0,072	-0,030
-227,971	-200,000	-0,010	0,152
-226,957	359,015	-0,015	0,022
-225,942	-49,093	-0,054	0,019
-224,927	231,877	-0,063	-0,074
-223,913	14,276	-0,054	0,030
-222,898	-57,503	0,150	-0,047
-221,884	39,400	0,030	0,019
-220,869	-200,000	0,024	0,090
-219,855	800,000	-0,033	0,090
-218,840	122,943	0,104	0,094
-217,825	-200,000	-0,009	0,037
-216,811	-149,624	-0,086	-0,005
-215,796	800,000	0,054	-0,126
-214,782	-116,071	-0,136	0,018
-213,767	10,258	0,182	0,099
-212,752	-97,603	-0,078	0,015
-211,738	-121,939	-0,058	0,007
-210,723	800,000	0,045	-0,104
-209,709	-107,933	0,122	0,019
-208,694	-200,000	0,001	-0,103
-207,679	582,243	0,036	0,065
-206,665	212,327	0,054	0,062
-205,650	-123,432	0,140	-0,016
-204,636	127,882	0,034	-0,031
-203,621	-200,000	-0,006	0,041
-202,606	243,134	-0,026	0,032
-201,592	414,694	-0,055	-0,085
-200,577	800,000	0,055	-0,126
-199,563	-200,000	0,014	0,189
-198,548	-131,443	0,074	0,007
-197,533	-97,664	0,123	0,023
-196,519	9,827	0,081	-0,044
-195,504	18,459	-0,117	0,067
-194,490	-18,782	-0,126	-0,056
-193,475	800,000	0,041	-0,108
-192,460	800,000	0,018	-0,054
-191,446	-0,976	-0,123	0,063
-190,431	800,000	-0,019	0,054
-189,417	-19,977	0,062	0,028
-188,402	348,615	0,047	-0,066
-187,387	-30,100	-0,209	0,085
-186,373	-162,212	0,142	0,005
-185,358	800,000	0,027	0,071
-184,344	800,000	0,030	0,083
-183,329	336,803	0,020	0,028
-182,315	800,000	0,028	-0,073
-181,300	-42,294	-0,080	0,029
-180,285	800,000	0,005	0,015
-179,271	800,000	0,035	-0,111
-178,256	-104,414	-0,106	-0,018
-177,242	-51,275	0,019	-0,006
-176,227	-200,000	-0,008	0,172
-175,212	-200,000	0,015	0,096
-174,198	110,406	-0,091	0,079
-173,183	219,622	-0,135	-0,156
-172,169	800,000	-0,003	-0,006
-171,154	-101,916	-0,029	-0,005
-170,139	429,803	-0,022	0,035
-169,125	-43,940	0,148	0,053
-168,110	-33,370	0,068	0,027
-167,096	226,887	-0,085	0,100
-166,081	-169,187	0,179	-0,005
-165,066	-200,000	0,020	-0,133
-164,052	-200,000	0,014	0,124
-163,037	187,371	-0,061	0,066
-162,023	800,000	0,036	0,076
-161,008	-71,787	0,119	-0,032
-159,993	1,103	0,062	-0,032
-158,979	67,827	0,051	-0,038
-157,964	-200,000	-0,014	-0,069
-156,950	-200,000	-0,102	-0,000
-155,935	-167,911	0,138	-0,004
-154,920	568,931	0,054	-0,094
-153,906	-5,139	-0,051	0,025
-152,891	-200,000	-0,008	-0,222
-151,877	-200,000	-0,007	-0,062
-150,862	324,075	-0,070	-0,096
-149,847	292,615	0,033	-0,043
-148,833	-52,284	0,119	0,039
-147,818	800,000	-0,048	0,126
-146,804	-200,000	0,000	0,054
-145,789	55,682	0,042	-0,029
-144,775	-33,462	-0,027	0,011
-143,760	270,746	0,075	-0,095
-142,745	8,876	0,054	0,029
-141,731	391,306	-0,101	-0,151
-140,716	-142,526	0,062	-0,004
-139,702	22,160	0,056	0,033
-138,687	52,233	-0,063	0,043
-137,672	-200,000	0,000	0,073
-136,658	-200,000	-0,005	-0,098
-135,643	90,078	0,077	-0,062
-134,629	-200,000	-0,021	-0,072
-133,614	261,997	-0,073	0,091
-132,599	427,188	-0,034	0,053
-131,585	-34,597	0,073	0,029
-130,570	-143,960	0,021	0,001
-129,556	462,905	0,018	-0,029
-128,541	-22,025	0,050	0,022
-127,526	800,000	0,029	0,060
-126,512	232,724	-0,029	0,034
-125,497	73,920	0,068	0,052
-124,483	800,000	0,025	0,077
-123,468	-200,000	0,013	0,050
-122,453	800,000	-0,042	-0,112
-121,439	86,803	-0,082	-0,065
-120,424	6,153	0,122	-0,065
-119,410	800,000	0,077	-0,165
-118,395	110,578	0,064	-0,056
-117,380	18,704	-0,150	0,086
-116,366	-114,891	-0,113	0,015
-115,351	289,287	-0,011	0,014
-114,337	-200,000	0,004	0,076
-113,322	-124,723	-0,158	0,017
-112,307	-132,060	0,114	0,010
-111,293	-200,000	-0,004	0,156
-110,278	-36,871	0,047	0,018
-109,264	57,108	0,066	-0,046
-108,249	-200,000	-0,020	0,079
-107,234	131,339	-0,111	-0,102
-106,220	120,982	-0,038	0,034
-105,205	-200,000	-0,002	-0,010
-104,191	800,000	0,035	-0,085
-103,176	153,426	0,019	0,019
-102,162	-200,000	-0,020	0,099
-101,147	-200,000	-0,010	0,045
-100,132	78,072	-0,112	-0,086
-99,118	-102,907	-0,079	-0,013
-98,103	-54,891	0,055	0,018
-97,089	-200,000	-0,020	0,073
-96,074	800,000	0,069	0,185
-95,059	-99,526	0,069	-0,012
-94,045	-20,487	0,063	0,028
-93,030	411,909	0,074	-0,114
-92,016	-2,378	0,105	-0,053
-91,001	93,786	-0,048	-0,039
-89,986	-34,526	0,175	0,069
-88,972	179,454	0,029	0,031
-87,957	-84,639	0,124	-0,028
-86,943	800,000	-0,040	-0,108
-85,928	-115,508	-0,216	0,029
-84,913	-200,000	-0,004	-0,121
-83,899	-200,000	-0,019	-0,089
-82,884	-163,957	-0,038	-0,001
-81,870	95,486	0,047	0,039
-80,855	34,997	-0,125	0,079
-79,840	800,000	0,019	-0,053
-78,826	-132,128	-0,182	0,017
-77,811	-200,000	-0,005	-0,112
-76,797	-200,000	0,006	0,055
-75,782	800,000	-0,035	0,081
-74,767	593,128	-0,037	-0,067
-73,753	-109,736	-0,052	0,008
-72,738	-139,931	-0,063	-0,005
-71,724	144,205	-0,113	-0,108
-70,709	6,852	-0,044	0,024
-69,694	-200,000	-0,008	-0,035
-68,680	26,748	-0,032	0,019
-67,665	63,024	0,065	0,047
-66,651	-140,922	0,127	-0,009
-65,636	286,963	0,076	0,099
-64,622	473,888	0,081	0,131
-63,607	-120,747	-0,161	0,019
-62,592	-200,000	-0,011	0,081
-61,578	800,000	0,050	0,125
-60,563	-135,444	0,017	-0,001
-59,549	-20,570	-0,044	-0,020
-58,534	112,455	-2,563	-2,226
-57,519	7,360	0,472	-0,252
-56,505	-200,000	-1,589	-5,483
-55,490	512,718	1,178	1,978
-54,476	800,000	5,172	11,399
-53,461	-200,000	22,614	348,251
-52,446	800,000	761,279	2286,352
-51,432	509,595	1644,236	2753,520
-50,417	96,004	1605,220	1315,624
-49,403	63,998	1262,769	910,236
-48,388	22,573	1015,318	594,755
-47,373	19,381	982,905	565,238
-46,359	12,788	969,805	536,164
-45,344	8,374	966,671	519,982
-44,330	8,860	964,648	520,461
-43,315	7,883	962,712	516,208
-42,300	7,790	961,776	515,385
-41,286	7,829	960,688	514,907
-40,271	7,755	959,938	514,244
-39,257	7,728	958,945	513,604
-38,242	7,774	957,965	513,208
-37,227	7,757	957,230	512,738
-36,213	7,724	956,275	512,101
-35,198	7,743	955,587	511,773
-34,184	7,785	954,803	511,467
-33,169	7,792	953,912	510,994
-32,154	7,816	952,969	510,547
-31,140	7,772	952,213	509,978
-30,125	7,808	951,142	509,500
-29,111	7,779	950,548	509,069
-28,096	7,787	950,000	508,780
-27,082	7,800	949,187	508,367
-26,067	7,812	948,305	507,914
-25,052	7,788	947,660	507,470
-24,038	7,637	947,144	506,691
-23,023	7,734	946,383	506,572
-22,009	7,740	945,788	506,255
-20,994	7,791	945,005	505,979
-19,979	7,772	944,555	505,655
-18,965	7,710	943,766	505,016
-17,950	7,762	943,217	504,867
-16,936	7,713	942,612	504,367
-15,921	7,736	941,843	504,008
-14,906	7,683	941,199	503,474
-13,892	7,625	940,637	502,969
-12,877	7,650	939,992	502,685
-11,863	7,566	939,450	502,108
-10,848	7,628	938,740	501,907
-9,833	7,725	938,245	501,929
-8,819	7,745	937,645	501,652
-7,804	7,698	936,998	501,136
-6,790	7,609	936,460	500,547
-5,775	7,715	935,885	500,555
-4,760	7,774	935,224	500,367
-3,746	7,658	934,787	499,750
-2,731	7,579	933,944	499,029
-1,717	7,521	933,440	498,557
-0,702	7,554	932,753	498,273
0,313	7,358	932,142	498,082
1,327	10,710	929,744	507,304
2,342	19,254	777,786	446,729
3,356	14,163	446,099	248,563
4,371	-11,959	310,836	145,558
5,386	-15,792	293,484	133,563
6,400	-17,945	287,292	128,611
7,415	-18,048	284,928	127,441
8,429	-18,580	282,946	126,027
9,444	-18,860	282,091	125,364
10,459	-18,504	281,471	125,421
11,473	-18,634	280,873	125,019
12,488	-18,559	280,332	124,839
13,502	-18,672	279,844	124,501
14,517	-18,353	279,419	124,607
15,531	-18,604	279,176	124,247
16,546	-18,348	278,728	124,281
17,561	-18,421	278,304	124,012
18,575	-18,416	278,101	123,915
19,590	-18,263	277,599	123,826
20,604	-18,292	277,309	123,657
21,619	-18,382	276,936	123,395
22,634	-18,415	276,630	123,216
23,648	-18,443	276,414	123,083
24,663	-18,385	276,041	122,961
25,677	-18,359	275,896	122,910
26,692	-18,293	275,540	122,803
27,707	-18,320	275,205	122,616
28,721	-18,318	274,866	122,456
29,736	-18,468	274,700	122,231
30,750	-18,413	274,461	122,165
31,765	-18,351	274,210	122,100
32,780	-18,303	273,965	122,025
33,794	-18,318	273,748	121,904
34,809	-18,268	273,240	121,714
35,823	-18,338	273,050	121,553
36,838	-18,348	273,023	121,521
37,853	-18,253	272,635	121,426
38,867	-18,324	272,333	121,214
39,882	-18,365	272,217	121,113
40,896	-18,335	272,031	121,048
41,911	-18,210	271,817	121,058
42,926	-18,225	271,364	120,832
43,940	-18,222	271,263	120,779
44,955	-18,430	271,051	120,481
45,969	-18,271	270,841	120,524
46,984	-18,249	270,788	120,510
47,999	-18,143	270,370	120,411
49,013	-18,161	270,231	120,322
50,028	-18,144	270,057	120,249
51,042	-18,151	269,780	120,108
52,057	-18,063	269,492	120,051
53,071	-18,253	269,210	119,740
54,086	-18,027	269,053	119,867
55,101	-18,095	268,899	119,726
56,115	-18,234	268,606	119,456
57,130	-18,403	268,381	119,191
58,144	-18,298	267,967	119,092
59,159	-18,159	267,716	119,098
60,174	-18,478	267,536	118,715
61,188	-18,385	267,387	118,723
62,203	-18,209	267,092	118,743
63,217	-18,280	266,824	118,548
64,232	-18,273	266,738	118,506
65,247	-18,067	266,427	118,544
66,261	-18,309	266,150	118,191
67,276	-18,345	266,020	118,090
68,290	-18,369	265,853	117,983
69,305	-18,095	265,632	118,123
70,320	-18,183	265,328	117,897
71,334	-18,016	265,031	117,906
72,349	-18,200	264,835	117,642
73,363	-18,341	264,566	117,385
74,378	-18,238	264,435	117,409
75,393	-18,315	264,195	117,223
76,407	-18,234	263,937	117,170
77,422	-18,221	263,709	117,071
78,436	-18,070	263,449	117,081
79,451	-18,157	263,331	116,939
80,466	-18,332	263,033	116,640
81,480	-18,230	262,849	116,639
82,495	-18,347	262,690	116,454
83,509	-18,183	262,477	116,495
84,524	-18,222	262,275	116,361
85,539	-18,187	262,084	116,297
86,553	-18,231	261,832	116,135
87,568	-18,016	261,488	116,165
88,582	-18,402	261,409	115,775
89,597	-18,356	261,231	115,727
90,611	-18,075	260,985	115,857
91,626	-18,332	260,816	115,543
92,641	-18,254	260,634	115,522
93,655	-18,127	260,409	115,524
94,670	-18,205	260,116	115,315
95,684	-18,246	259,898	115,171
96,699	-18,205	259,854	115,178
97,714	-18,219	259,569	115,030
98,728	-18,177	259,464	115,010
99,743	-18,091	259,146	114,934
100,757	-18,154	259,074	114,836
101,772	-18,081	258,733	114,739
102,787	-18,109	258,494	114,598
103,801	-18,397	258,292	114,246
104,816	-18,333	258,200	114,251
105,830	-18,287	258,013	114,198
106,845	-18,104	257,715	114,216
107,860	-18,111	257,438	114,078
108,874	-18,132	257,333	114,003
109,889	-18,233	257,174	113,833
110,903	-18,311	256,897	113,632
111,918	-18,018	256,504	113,704
112,933	-18,050	256,435	113,635
113,947	-18,282	256,394	113,405
114,962	-18,258	256,040	113,259
115,976	-18,327	256,048	113,193
116,991	-18,249	255,609	113,056
118,006	-18,110	255,466	113,104
119,020	-18,196	255,252	112,924
120,035	-18,185	255,246	112,921
121,049	-18,002	254,996	112,959
122,064	-18,162	254,887	112,762
123,079	-18,203	254,627	112,602
124,093	-18,307	254,362	112,385
125,108	-18,014	254,114	112,517
126,122	-17,928	253,994	112,529
127,137	-17,933	253,703	112,386
128,151	-18,049	253,592	112,226
129,166	-18,113	253,391	112,072
130,181	-18,108	253,124	111,948
131,195	-18,018	252,952	111,940
132,210	-18,127	252,704	111,726
133,224	-18,191	252,542	111,590
134,239	-18,040	252,270	111,589
135,254	-18,002	252,144	111,556
136,268	-18,043	251,938	111,420
137,283	-18,161	251,762	111,231
138,297	-18,133	251,532	111,144
139,312	-18,092	251,380	111,102
140,327	-18,081	251,093	110,974
141,341	-18,167	250,915	110,813
142,356	-18,326	250,911	110,666
143,370	-18,334	250,643	110,531
144,385	-18,151	250,323	110,535
145,400	-18,348	250,178	110,294
146,414	-18,259	249,912	110,242
147,429	-18,016	249,735	110,360
148,443	-18,317	249,751	110,103
149,458	-18,212	249,323	109,993
150,473	-18,108	249,182	110,008
151,487	-18,085	249,035	109,953
152,502	-18,154	248,874	109,814
153,516	-17,954	248,612	109,857
154,531	-18,160	248,524	109,635
155,546	-18,345	248,388	109,409
156,560	-17,931	248,016	109,584
157,575	-17,903	247,861	109,529
158,589	-18,220	247,823	109,237
159,604	-18,250	247,463	109,043
160,619	-18,094	247,271	109,080
161,633	-18,261	247,128	108,867
162,648	-18,230	247,105	108,873
163,662	-18,170	247,047	108,888
164,677	-17,958	246,618	108,866
165,692	-18,184	246,686	108,698
166,706	-18,102	246,349	108,608
167,721	-18,178	246,202	108,470
168,735	-18,214	246,037	108,357
169,750	-18,288	245,876	108,215
170,764	-18,085	245,700	108,297
171,779	-18,127	245,549	108,186
172,794	-18,147	245,419	108,103
173,808	-18,155	245,298	108,033
174,823	-17,894	244,965	108,093
175,837	-18,120	244,959	107,893
176,852	-18,046	244,752	107,854
177,867	-18,093	244,503	107,695
178,881	-18,136	244,317	107,569
179,896	-18,239	244,168	107,408
180,910	-18,145	244,069	107,433
181,925	-17,966	243,617	107,371
182,940	-18,057	243,501	107,236
183,954	-18,067	243,364	107,158
184,969	-18,167	243,289	107,033
185,983	-18,145	243,177	106,993
186,998	-18,023	242,898	106,960
188,013	-18,000	242,534	106,809
189,027	-17,955	242,540	106,839
190,042	-18,193	242,385	106,566
191,056	-18,282	242,155	106,383
192,071	-18,185	241,990	106,380
193,086	-18,001	241,756	106,418
194,100	-18,281	241,651	106,134
195,115	-18,090	241,433	106,185
196,129	-18,173	241,250	106,027
197,144	-18,188	241,030	105,909
198,159	-18,240	240,889	105,795
199,173	-18,342	240,760	105,646
200,188	-18,200	240,464	105,622
201,202	-18,103	240,502	105,708
202,217	-17,915	240,179	105,709
203,232	-17,939	240,113	105,651
204,246	-18,178	239,786	105,304
205,261	-18,260	239,505	105,105
206,275	-16,797	239,960	106,480
207,290	-12,560	241,636	110,662
208,304	-5,792	243,653	117,120
209,319	-2,285	244,658	120,470
210,334	-1,138	244,964	121,551
211,348	-0,210	244,911	122,274
212,363	0,302	245,094	122,774
213,377	0,381	244,894	122,727
214,392	0,616	244,931	122,928
215,407	0,891	244,954	123,154
216,421	0,919	244,796	123,086
217,436	1,070	244,594	123,097
218,450	1,204	244,401	123,098
219,465	1,227	244,179	122,994
220,480	1,181	244,169	122,941
221,494	1,047	243,992	122,731
222,509	0,892	243,541	122,367
223,523	0,695	243,422	122,137
224,538	0,376	243,386	121,849
225,553	0,574	243,095	121,852
226,567	0,354	242,964	121,598
227,582	0,536	242,833	121,668
228,596	0,448	242,681	121,510
229,611	0,625	242,393	121,498
230,626	0,580	242,388	121,449
231,640	0,584	242,067	121,281
232,655	0,466	241,772	121,026
233,669	0,428	241,698	120,948
234,684	0,514	241,583	120,949
235,699	0,473	241,544	120,885
236,713	0,470	241,234	120,718
237,728	0,469	241,133	120,655
238,742	0,638	240,943	120,685
239,757	0,426	240,877	120,471
240,772	0,488	240,649	120,396
241,786	0,533	240,570	120,381
242,801	0,631	240,244	120,286
243,815	0,556	240,168	120,177
244,830	0,458	239,964	119,987
245,844	0,487	239,976	120,005
246,859	0,276	239,764	119,720
247,874	0,492	239,559	119,779
248,888	0,539	239,361	119,707
249,903	0,729	239,254	119,794
250,917	0,498	239,230	119,588
251,932	0,590	239,016	119,543
252,947	0,455	238,805	119,319
253,961	0,460	238,709	119,265
254,976	0,604	238,409	119,219
255,990	0,637	238,358	119,209
257,005	0,618	238,159	119,083
258,020	0,536	238,067	118,962
259,034	0,659	237,945	118,988
260,049	0,785	237,615	118,912
261,063	0,664	237,599	118,797
262,078	0,519	237,367	118,556
263,093	0,497	237,290	118,490
264,107	0,706	237,033	118,516
265,122	0,285	237,161	118,237
266,136	0,639	236,839	118,345
267,151	0,520	236,684	118,163
268,166	0,298	236,515	117,894
269,180	0,524	236,384	117,996
270,195	0,601	236,196	117,952
271,209	0,562	236,053	117,839
272,224	0,594	235,950	117,802
273,239	0,686	235,695	117,737
274,253	0,402	235,620	117,467
275,268	0,650	235,312	117,497
276,282	0,518	235,213	117,333
277,297	0,418	235,168	117,222
278,312	0,554	234,959	117,213
279,326	0,626	234,858	117,209
280,341	0,476	234,753	117,029
281,355	0,655	234,413	116,988
282,370	0,682	234,424	117,005
283,384	0,555	234,222	116,794
284,399	0,706	234,004	116,793
285,414	0,587	233,912	116,644
286,428	0,477	233,883	116,534
287,443	0,442	233,700	116,404
288,457	0,536	233,493	116,364
289,472	0,497	233,319	116,237
290,487	0,784	233,158	116,368
291,501	0,690	233,032	116,223
292,516	0,648	232,871	116,099
293,530	0,532	232,807	115,967
294,545	0,801	232,566	116,045
295,560	0,672	232,391	115,847
296,574	0,919	232,268	115,966
297,589	0,782	232,271	115,852
298,603	0,710	231,853	115,577
299,618	0,610	231,862	115,494
300,633	0,816	231,910	115,667
301,647	0,819	231,689	115,549
302,662	0,763	231,434	115,368
303,676	1,008	231,339	115,499
304,691	0,886	231,047	115,249
305,706	0,978	230,828	115,200
306,720	0,852	230,867	115,112
307,735	0,800	230,813	115,036
308,749	0,775	230,516	114,858
309,764	0,919	230,449	114,925
310,779	1,031	230,198	114,875
311,793	0,658	230,154	114,558
312,808	0,740	229,955	114,511
313,822	0,755	229,715	114,393
314,837	0,867	229,567	114,394
315,852	0,953	229,532	114,432
316,866	0,770	229,489	114,262
317,881	0,925	229,281	114,265
318,895	0,983	228,909	114,113
319,910	0,963	228,996	114,132
320,925	0,892	228,772	113,956
321,939	0,778	228,653	113,800
322,954	0,755	228,659	113,776
323,968	0,857	228,455	113,741
324,983	0,898	228,183	113,627
325,997	0,835	228,072	113,514
327,012	0,698	227,920	113,324
328,027	0,969	227,738	113,428
329,041	0,696	227,807	113,246
330,056	0,782	227,641	113,219
331,070	0,944	227,354	113,187
332,085	0,969	227,200	113,119
333,100	0,774	227,039	112,883
334,114	0,939	226,796	112,876
335,129	0,997	226,687	112,856
336,143	1,030	226,546	112,799
337,158	0,900	226,399	112,619
338,173	0,847	226,358	112,549
339,187	1,059	226,219	112,628
340,202	1,078	226,021	112,534
341,216	1,011	225,874	112,401
342,231	1,001	225,731	112,312
343,246	1,079	225,611	112,300
344,260	1,184	225,534	112,330
345,275	1,047	225,450	112,176
346,289	1,035	225,233	112,049
347,304	1,216	225,103	112,109
348,319	1,097	224,962	111,941
349,333	0,831	224,681	111,594
350,348	0,955	224,658	111,664
351,362	1,175	224,522	111,750
352,377	1,104	224,240	111,547
353,392	1,209	224,204	111,597
354,406	1,015	224,094	111,389
355,421	192,273	1309,482	1375,361
356,435	153,990	1441,570	1375,201
