DTS Sentinel unit serial number:	SN410029Multiplexer serial number:	ORYXHardware model number:	OX2-SRSoftware version number:	ORYX F/W v4,00 Oryx Data Collector v3.7.2.0data status	okinstallation	B5 Nyhavnadifferential loss correction	single-endedforward channel	channel 2reverse channel	N/Adate	2023/12/12time	12:17:13forward acquisition time	300,00reverse acquisition time	0,00gamma	499,1914k internal	0,3158k external	0,3158temperature offset calibration	1,0000default loss term (dB/km)	0,3820temperature slope calibration	1,0000multiplexer offset coefficient	1,0000multiplexer slope coefficient	1,0000fibre end	0,00T internal ref (°C)	15,25T ext. ref 1 (°C)	-0,59T ext. ref 2 (°C)	-0,88length (m)	temperature (°C)	Stokes	anti-Stokes-744,400	107,166	-0,080	-0,070
-743,385	-89,975	-0,271	-0,058
-742,371	-200,000	0,005	0,047
-741,356	-17,187	-0,222	0,103
-740,342	68,055	-0,065	0,049
-739,327	-138,019	-0,192	-0,016
-738,312	-200,000	-0,003	0,038
-737,298	-109,550	-0,260	-0,040
-736,283	-104,845	0,051	0,009
-735,269	-134,637	-0,315	-0,028
-734,254	10,726	0,089	0,050
-733,239	-200,000	-0,523	0,001
-732,225	70,622	0,154	-0,117
-731,210	-200,000	-0,002	-0,056
-730,196	49,639	0,043	-0,030
-729,181	-10,541	0,058	-0,028
-728,167	-200,000	-0,007	-0,096
-727,152	14,897	-0,139	-0,080
-726,137	-200,000	-0,014	-0,153
-725,123	38,247	-0,157	-0,102
-724,108	-51,427	-0,071	0,024
-723,094	-179,528	-0,124	0,002
-722,079	800,000	0,036	-0,086
-721,064	221,529	-0,149	-0,177
-720,050	24,800	0,022	-0,013
-719,035	93,462	0,046	0,039
-718,021	-6,878	-0,145	-0,073
-717,006	-200,000	-0,031	-0,139
-715,991	800,000	0,019	-0,040
-714,977	213,062	-0,073	0,085
-713,962	-200,000	-0,008	0,042
-712,948	-59,227	-0,092	0,029
-711,933	82,169	0,017	0,014
-710,918	800,000	-0,024	0,053
-709,904	800,000	-0,043	0,125
-708,889	17,314	-0,060	0,035
-707,875	89,798	-0,048	0,039
-706,860	-17,507	-0,007	0,003
-705,845	-200,000	-0,005	-0,119
-704,831	28,018	-0,090	0,056
-703,816	800,000	0,066	0,137
-702,802	152,392	0,044	-0,044
-701,787	157,299	-0,126	-0,128
-700,772	225,504	-0,122	-0,145
-699,758	23,029	0,072	0,044
-698,743	-5,574	-0,156	0,078
-697,729	-200,000	-0,000	0,120
-696,714	10,507	0,176	0,098
-695,699	-20,685	-0,131	-0,059
-694,685	-200,000	0,015	-0,060
-693,670	-200,000	0,028	-0,107
-692,656	380,402	-0,055	-0,084
-691,641	292,162	-0,052	-0,070
-690,627	180,624	0,043	0,047
-689,612	-119,978	0,035	0,004
-688,597	57,278	-0,100	-0,072
-687,583	340,406	-0,043	-0,062
-686,568	3,228	-0,101	-0,054
-685,554	-200,000	0,027	0,089
-684,539	-37,033	0,019	0,008
-683,524	-82,010	-0,079	0,019
-682,510	-88,219	0,084	0,018
-681,495	-72,970	-0,045	0,012
-680,481	-200,000	-0,010	-0,146
-679,466	-45,732	-0,137	-0,050
-678,451	-51,106	0,017	0,006
-677,437	258,030	0,074	-0,094
-676,422	800,000	0,049	-0,126
-675,408	157,014	-0,045	-0,046
-674,393	494,143	0,036	-0,062
-673,378	228,770	0,079	-0,095
-672,364	-94,801	-0,051	-0,010
-671,349	86,323	-0,090	0,073
-670,335	259,016	0,029	0,037
-669,320	10,102	-0,076	-0,042
-668,305	7,257	-0,092	0,051
-667,291	-72,558	0,029	-0,008
-666,276	240,518	-0,135	-0,166
-665,262	96,012	0,121	-0,102
-664,247	125,931	0,158	0,146
-663,232	800,000	0,026	-0,079
-662,218	-198,418	-0,104	-0,000
-661,203	-200,000	-0,005	0,019
-660,189	250,215	-0,034	-0,043
-659,174	-200,000	-0,000	-0,043
-658,159	273,710	0,033	0,043
-657,145	-152,285	-0,094	0,005
-656,130	-173,654	-0,081	0,002
-655,116	800,000	-0,027	-0,080
-654,101	642,953	0,028	0,052
-653,086	136,570	-0,074	0,071
-652,072	-200,000	0,047	-0,171
-651,057	511,792	-0,039	-0,068
-650,043	800,000	0,076	-0,178
-649,028	-200,000	-0,018	-0,063
-648,014	-176,948	0,101	-0,002
-646,999	800,000	-0,018	0,055
-645,984	-9,075	-0,091	0,044
-644,970	39,610	0,031	0,021
-643,955	11,395	-0,041	-0,023
-642,941	106,892	0,094	-0,082
-641,926	344,603	-0,019	-0,027
-640,911	-2,369	0,080	-0,041
-639,897	111,858	0,025	-0,023
-638,882	410,520	-0,052	-0,081
-637,868	800,000	0,044	-0,116
-636,853	724,127	-0,031	-0,061
-635,838	-135,554	-0,074	-0,006
-634,824	800,000	-0,054	-0,111
-633,809	800,000	-0,031	0,072
-632,795	-173,051	-0,037	-0,001
-631,780	-200,000	-0,011	0,104
-630,765	-200,000	-0,001	-0,094
-629,751	72,963	-0,062	0,048
-628,736	-24,422	0,053	0,023
-627,722	312,524	0,056	-0,077
-626,707	-200,000	0,029	0,099
-625,692	17,809	-0,086	0,050
-624,678	19,315	0,088	-0,051
-623,663	-200,000	-0,013	0,140
-622,649	-79,304	-0,040	-0,010
-621,634	316,587	0,011	0,016
-620,619	55,309	-0,076	-0,054
-619,605	471,700	0,032	0,052
-618,590	236,918	-0,067	-0,082
-617,576	157,199	0,065	-0,066
-616,561	147,414	0,031	0,030
-615,546	800,000	-0,017	0,041
-614,532	-200,000	-0,006	-0,112
-613,517	-71,083	-0,083	-0,023
-612,503	-84,287	-0,015	0,003
-611,488	660,787	0,014	0,027
-610,474	800,000	-0,014	-0,039
-609,459	-200,000	0,010	-0,041
-608,444	74,867	-0,099	0,076
-607,430	800,000	0,028	-0,066
-606,415	389,832	0,070	-0,106
-605,401	85,864	0,096	-0,078
-604,386	800,000	0,008	-0,020
-603,371	-106,970	0,131	0,021
-602,357	-200,000	-0,004	0,056
-601,342	-200,000	0,019	0,094
-600,328	127,953	-0,064	0,060
-599,313	220,281	-0,016	0,018
-598,298	353,612	-0,009	-0,013
-597,284	-18,044	0,083	-0,038
-596,269	800,000	-0,064	-0,147
-595,255	75,431	0,092	-0,071
-594,240	-200,000	0,017	-0,127
-593,225	179,342	0,053	-0,057
-592,211	-200,000	-0,015	-0,058
-591,196	145,747	0,029	0,028
-590,182	-200,000	0,008	-0,072
-589,167	-128,254	0,198	0,020
-588,152	255,208	0,117	-0,147
-587,138	-69,927	-0,130	-0,036
-586,123	800,000	-0,069	-0,159
-585,109	-134,887	-0,172	-0,015
-584,094	117,191	-0,073	0,065
-583,079	-200,000	-0,004	0,032
-582,065	-200,000	0,008	-0,054
-581,050	-200,000	0,018	0,098
-580,036	-200,000	-0,020	-0,096
-579,021	-200,000	-0,052	-0,177
-578,006	-46,593	0,120	0,043
-576,992	-59,864	0,062	-0,019
-575,977	112,772	0,134	0,119
-574,963	764,992	0,066	-0,132
-573,948	800,000	0,023	0,075
-572,934	-200,000	0,001	-0,067
-571,919	271,260	-0,165	-0,214
-570,904	-200,000	-0,017	0,080
-569,890	61,517	-0,085	-0,062
-568,875	374,096	0,045	-0,068
-567,861	-200,000	0,020	0,064
-566,846	58,935	-0,029	-0,021
-565,831	800,000	0,020	-0,050
-564,817	-57,803	-0,109	-0,035
-563,802	291,572	-0,043	-0,057
-562,788	-45,644	0,064	-0,023
-561,773	131,693	0,037	-0,035
-560,758	246,798	0,095	0,117
-559,744	-200,000	0,072	0,268
-558,729	-200,000	-0,033	-0,150
-557,715	230,371	-0,072	-0,087
-556,700	-200,000	0,014	-0,065
-555,685	83,239	-0,072	0,057
-554,671	-124,260	0,190	-0,021
-553,656	-200,000	-0,021	0,093
-552,642	800,000	0,020	0,054
-551,627	11,424	0,145	-0,081
-550,612	200,006	-0,082	0,092
-549,598	-200,000	-0,005	0,068
-548,583	483,422	0,063	0,105
-547,569	-109,527	-0,070	0,011
-546,554	707,731	0,029	-0,056
-545,539	-200,000	0,002	-0,031
-544,525	-200,000	0,037	0,163
-543,510	-103,557	-0,021	0,004
-542,496	-200,000	0,004	-0,071
-541,481	149,347	0,025	-0,025
-540,466	-72,442	-0,069	-0,019
-539,452	-37,904	0,125	0,049
-538,437	94,539	-0,056	-0,047
-537,423	-54,802	-0,135	0,044
-536,408	-200,000	0,039	0,186
-535,393	290,002	0,035	0,046
-534,379	-78,019	0,076	-0,019
-533,364	-55,618	-0,125	-0,041
-532,350	-152,664	-0,067	-0,003
-531,335	-80,705	0,056	0,013
-530,321	-38,930	-0,095	0,037
-529,306	-200,000	-0,047	0,161
-528,291	71,550	-0,042	0,032
-527,277	79,661	-0,055	0,043
-526,262	371,357	0,027	-0,040
-525,248	-49,515	0,118	0,041
-524,233	137,989	0,017	-0,017
-523,218	-124,920	-0,030	0,003
-522,204	-200,000	0,036	0,139
-521,189	-200,000	-0,006	-0,075
-520,175	-158,195	0,105	-0,004
-519,160	102,659	-0,120	-0,102
-518,145	259,831	-0,106	0,133
-517,131	-69,548	0,072	0,020
-516,116	482,330	0,051	-0,085
-515,102	11,636	-0,114	0,064
-514,087	-200,000	-0,000	0,057
-513,072	303,743	-0,045	-0,061
-512,058	33,188	-0,068	0,043
-511,043	30,487	-0,093	0,058
-510,029	334,446	0,015	-0,022
-509,014	-73,396	-0,164	-0,043
-507,999	10,878	0,070	0,039
-506,985	399,695	0,037	0,057
-505,970	265,481	-0,116	-0,148
-504,956	800,000	-0,015	0,041
-503,941	92,208	0,137	-0,113
-502,926	-200,000	0,004	-0,024
-501,912	66,251	0,097	0,071
-500,897	-200,000	-0,020	0,068
-499,883	34,137	0,078	0,050
-498,868	800,000	-0,043	-0,128
-497,853	-200,000	-0,005	-0,040
-496,839	8,530	-0,022	-0,012
-495,824	800,000	0,011	-0,031
-494,810	199,091	-0,038	0,042
-493,795	-200,000	0,021	0,117
-492,781	800,000	-0,023	0,058
-491,766	800,000	0,016	-0,043
-490,751	-200,000	-0,001	-0,021
-489,737	-57,228	0,050	0,016
-488,722	800,000	0,023	-0,065
-487,708	-200,000	0,008	0,153
-486,693	34,309	0,104	0,066
-485,678	325,139	0,070	-0,097
-484,664	-200,000	0,007	-0,172
-483,649	87,631	0,072	0,058
-482,635	-58,436	0,145	0,046
-481,620	511,672	-0,022	-0,038
-480,605	81,814	0,119	-0,094
-479,591	-78,794	-0,112	-0,028
-478,576	-3,476	-0,107	-0,054
-477,562	400,129	0,036	0,055
-476,547	-7,080	0,123	0,061
-475,532	-92,556	0,100	-0,020
-474,518	133,425	0,068	0,064
-473,503	-108,205	0,026	0,004
-472,489	-200,000	0,005	0,114
-471,474	124,287	-0,080	0,073
-470,459	184,504	-0,068	-0,073
-469,445	-200,000	0,003	0,019
-468,430	260,394	0,098	0,124
-467,416	-82,766	-0,045	-0,010
-466,401	139,077	-0,124	-0,119
-465,386	-12,748	0,148	0,070
-464,372	216,693	-0,046	-0,054
-463,357	-200,000	0,004	-0,092
-462,343	-64,405	-0,122	0,036
-461,328	743,355	0,030	-0,060
-460,313	66,203	0,173	0,128
-459,299	-181,369	0,085	0,001
-458,284	637,615	-0,092	0,171
-457,270	-200,000	-0,010	0,084
-456,255	-200,000	0,005	-0,036
-455,241	-2,228	-0,063	-0,032
-454,226	-15,262	0,043	-0,020
-453,211	30,783	-0,050	-0,031
-452,197	67,283	-0,043	-0,032
-451,182	-200,000	-0,020	0,076
-450,168	-134,569	0,044	-0,004
-449,153	-90,667	-0,092	0,019
-448,138	-200,000	-0,011	-0,104
-447,124	-200,000	0,011	-0,142
-446,109	-78,070	0,138	0,034
-445,095	-104,430	0,065	-0,011
-444,080	304,251	0,107	-0,145
-443,065	53,608	-0,091	0,063
-442,051	-200,000	0,012	-0,087
-441,036	-45,447	-0,084	-0,030
-440,022	234,262	-0,057	0,068
-439,007	-45,052	0,099	0,036
-437,992	-200,000	0,004	0,083
-436,978	-57,694	-0,040	0,013
-435,963	800,000	0,038	-0,112
-434,949	360,091	-0,056	-0,082
-433,934	-10,612	-0,102	-0,049
-432,919	-81,446	-0,125	0,030
-431,905	160,598	-0,106	0,108
-430,890	-86,997	0,068	-0,015
-429,876	800,000	0,025	0,063
-428,861	800,000	0,042	0,102
-427,846	87,540	-0,037	0,030
-426,832	-193,322	0,104	-0,001
-425,817	-57,199	-0,055	-0,018
-424,803	-200,000	-0,018	0,099
-423,788	393,125	-0,060	0,091
-422,773	-200,000	-0,003	0,020
-421,759	206,224	0,088	0,100
-420,744	-200,000	0,017	0,073
-419,730	38,980	-0,010	-0,007
-418,715	139,410	0,080	-0,077
-417,701	-67,579	0,096	-0,027
-416,686	800,000	0,008	0,025
-415,671	715,640	0,056	0,108
-414,657	-159,290	0,102	-0,004
-413,642	-122,355	-0,027	-0,003
-412,628	126,633	0,145	-0,133
-411,613	46,194	-0,085	-0,057
-410,598	-200,000	0,002	-0,071
-409,584	-200,000	-0,022	-0,122
-408,569	148,552	-0,049	-0,048
-407,555	-200,000	-0,016	0,087
-406,540	-20,555	-0,079	0,035
-405,525	-92,306	0,028	-0,006
-404,511	148,080	0,028	-0,028
-403,496	-200,000	-0,003	0,055
-402,482	-9,454	-0,068	-0,033
-401,467	307,607	0,071	0,097
-400,452	-200,000	0,021	0,131
-399,438	-4,796	-0,053	-0,027
-398,423	-163,966	-0,231	0,008
-397,409	-200,000	-0,009	0,030
-396,394	26,438	0,142	-0,086
-395,379	436,132	-0,079	0,125
-394,365	-169,253	0,107	0,003
-393,350	-200,000	0,008	0,057
-392,336	-178,609	0,007	0,000
-391,321	-15,262	0,057	-0,026
-390,306	-136,939	-0,070	0,006
-389,292	800,000	0,034	0,089
-388,277	454,060	0,041	0,066
-387,263	-200,000	0,010	-0,052
-386,248	-94,100	-0,054	0,011
-385,233	-41,734	0,068	0,025
-384,219	-200,000	-0,003	0,118
-383,204	48,356	-0,024	0,016
-382,190	165,964	-0,031	-0,032
-381,175	800,000	0,074	-0,188
-380,160	435,534	0,104	0,165
-379,146	296,375	-0,088	0,118
-378,131	-79,913	0,072	0,018
-377,117	-136,327	0,111	-0,009
-376,102	155,208	-0,146	0,146
-375,088	-68,301	-0,109	-0,031
-374,073	552,539	-0,023	-0,040
-373,058	800,000	0,049	0,109
-372,044	-200,000	0,027	0,120
-371,029	-200,000	-0,004	0,014
-370,015	-109,759	0,100	0,015
-369,000	578,869	-0,019	-0,034
-367,985	85,860	-0,072	-0,057
-366,971	-71,000	-0,089	-0,024
-365,956	159,503	0,068	0,069
-364,942	-18,232	0,114	-0,052
-363,927	208,415	0,069	0,078
-362,912	71,562	-0,062	-0,047
-361,898	-47,956	-0,124	-0,043
-360,883	-200,000	0,043	-0,183
-359,869	-200,000	0,028	0,099
-358,854	-200,000	-0,021	0,134
-357,839	-200,000	0,001	0,064
-356,825	-200,000	-0,039	0,132
-355,810	644,869	-0,077	-0,143
-354,796	-200,000	0,002	0,019
-353,781	-43,793	0,133	-0,048
-352,766	-200,000	-0,013	-0,066
-351,752	800,000	0,027	-0,058
-350,737	-34,472	0,113	-0,045
-349,723	-200,000	-0,001	0,035
-348,708	-38,082	0,233	0,089
-347,693	-200,000	0,034	-0,230
-346,679	-68,136	-0,070	-0,020
-345,664	800,000	-0,055	-0,153
-344,650	-141,431	0,154	0,011
-343,635	-95,025	-0,091	-0,018
-342,620	-200,000	-0,008	-0,082
-341,606	57,683	-0,125	0,088
-340,591	-83,169	0,129	-0,030
-339,577	800,000	0,041	0,111
-338,562	-13,754	-0,085	-0,040
-337,548	-69,866	-0,128	0,035
-336,533	109,441	-0,115	0,100
-335,518	116,474	0,080	0,071
-334,504	697,114	-0,064	-0,122
-333,489	537,960	0,028	0,048
-332,475	-88,071	-0,076	0,016
-331,460	100,055	-0,052	0,044
-330,445	800,000	0,034	0,080
-329,431	-200,000	-0,007	-0,025
-328,416	-200,000	-0,004	0,066
-327,402	-200,000	0,006	0,104
-326,387	-28,879	-0,064	-0,027
-325,372	65,059	-0,044	-0,032
-324,358	-54,456	-0,093	0,030
-323,343	-125,407	0,062	0,007
-322,329	-123,864	0,162	0,018
-321,314	179,434	0,027	0,028
-320,299	800,000	-0,021	0,044
-319,285	-81,819	-0,028	0,007
-318,270	-200,000	0,003	-0,053
-317,256	171,236	-0,039	0,040
-316,241	-200,000	-0,035	0,131
-315,226	46,911	-0,043	0,029
-314,212	21,733	0,069	0,040
-313,197	15,129	-0,060	0,034
-312,183	-70,435	0,090	0,025
-311,168	-200,000	0,045	0,173
-310,153	741,470	-0,038	0,074
-309,139	-200,000	-0,001	-0,053
-308,124	-126,858	0,144	-0,015
-307,110	625,294	0,061	0,113
-306,095	-200,000	0,014	-0,049
-305,080	-20,416	-0,045	-0,020
-304,066	479,060	-0,072	-0,119
-303,051	-200,000	-0,013	0,118
-302,037	504,234	-0,088	-0,149
-301,022	-82,758	-0,089	-0,021
-300,008	-95,359	0,192	0,037
-298,993	-113,118	0,116	0,016
-297,978	800,000	-0,029	-0,072
-296,964	510,611	0,055	-0,093
-295,949	-144,900	-0,052	0,003
-294,935	169,752	0,084	-0,087
-293,920	86,956	0,113	0,091
-292,905	800,000	0,026	0,059
-291,891	-200,000	-0,008	-0,058
-290,876	-200,000	0,004	0,086
-289,862	729,868	-0,055	0,106
-288,847	-120,446	-0,084	0,010
-287,832	-168,495	-0,113	0,003
-286,818	800,000	0,024	0,059
-285,803	-200,000	0,019	-0,108
-284,789	800,000	0,053	0,159
-283,774	457,421	0,099	0,161
-282,759	-200,000	-0,024	-0,127
-281,745	190,641	0,022	-0,023
-280,730	-131,578	-0,154	0,014
-279,716	128,123	-0,095	0,087
-278,701	800,000	0,049	0,148
-277,686	320,270	0,118	0,163
-276,672	-200,000	-0,031	-0,116
-275,657	203,522	-0,039	-0,044
-274,643	276,823	-0,039	-0,050
-273,628	73,688	-0,015	-0,012
-272,613	-137,048	0,095	-0,008
-271,599	310,604	0,041	-0,056
-270,584	-52,770	0,064	-0,021
-269,570	790,581	0,060	-0,120
-268,555	-96,270	-0,119	0,023
-267,540	-200,000	-0,016	-0,067
-266,526	93,673	-0,062	-0,051
-265,511	362,804	0,040	-0,059
-264,497	-2,821	-0,104	0,052
-263,482	439,423	-0,032	0,051
-262,467	623,520	0,070	0,128
-261,453	1,443	0,013	-0,007
-260,438	-200,000	0,006	-0,159
-259,424	24,834	-0,035	-0,021
-258,409	132,418	-0,103	-0,097
-257,395	-200,000	-0,016	0,111
-256,380	-68,905	0,049	-0,013
-255,365	-200,000	0,026	0,108
-254,351	44,120	-0,070	-0,047
-253,336	-103,316	-0,127	0,022
-252,322	-200,000	0,001	-0,018
-251,307	800,000	-0,024	0,067
-250,292	239,951	-0,071	-0,085
-249,278	319,056	0,061	-0,083
-248,263	-123,516	0,140	0,016
-247,249	-144,333	0,099	-0,007
-246,234	567,550	0,038	-0,066
-245,219	-200,000	-0,045	0,150
-244,205	-200,000	0,020	-0,073
-243,190	-84,481	-0,107	0,024
-242,176	-165,400	-0,042	0,001
-241,161	800,000	0,097	-0,196
-240,146	-200,000	0,004	0,075
-239,132	-79,378	0,008	0,002
-238,117	-200,000	0,025	-0,117
-237,103	74,562	0,047	-0,035
-236,088	385,048	-0,053	-0,079
-235,073	-200,000	0,004	0,128
-234,059	-200,000	0,028	0,142
-233,044	517,697	0,048	-0,082
-232,030	800,000	0,039	-0,110
-231,015	130,022	-0,109	0,101
-230,000	800,000	0,018	-0,043
-228,986	-143,419	0,080	-0,005
-227,971	800,000	-0,050	0,104
-226,957	-200,000	0,017	-0,063
-225,942	12,756	0,098	-0,054
-224,927	-39,603	-0,052	-0,019
-223,913	-179,908	-0,172	0,003
-222,898	-200,000	0,001	-0,020
-221,884	162,604	-0,102	-0,104
-220,869	159,928	0,131	0,132
-219,855	524,846	0,073	-0,124
-218,840	-57,072	0,104	0,033
-217,825	-56,823	-0,071	-0,022
-216,811	130,873	-0,053	0,049
-215,796	177,822	0,048	-0,051
-214,782	-30,699	-0,099	-0,040
-213,767	800,000	0,013	0,037
-212,752	605,690	0,045	0,081
-211,738	-200,000	-0,030	0,129
-210,723	113,943	-0,119	0,105
-209,709	800,000	-0,023	-0,066
-208,694	-200,000	-0,011	-0,078
-207,679	568,356	-0,025	-0,044
-206,665	202,939	-0,021	-0,023
-205,650	-89,736	0,129	0,027
-204,636	279,698	-0,126	0,163
-203,621	-40,424	-0,054	-0,020
-202,606	-200,000	0,015	0,111
-201,592	515,110	-0,065	-0,109
-200,577	199,735	-0,026	-0,029
-199,563	800,000	0,034	-0,079
-198,548	87,115	0,082	0,065
-197,533	-200,000	-0,002	0,124
-196,519	74,704	-0,120	-0,091
-195,504	268,511	-0,126	-0,160
-194,490	800,000	-0,027	-0,058
-193,475	354,311	-0,042	-0,060
-192,460	11,519	-0,088	0,049
-191,446	-200,000	0,000	0,039
-190,431	800,000	-0,027	0,059
-189,417	683,498	-0,015	-0,027
-188,402	-200,000	-0,011	0,040
-187,387	800,000	-0,024	-0,065
-186,373	-200,000	-0,013	-0,153
-185,358	116,704	-0,023	0,020
-184,344	-140,089	-0,058	0,004
-183,329	800,000	-0,031	-0,069
-182,315	800,000	0,064	-0,137
-181,300	58,779	-0,050	0,036
-180,285	-200,000	-0,062	-0,199
-179,271	-43,099	-0,150	0,054
-178,256	800,000	0,031	0,068
-177,242	-35,986	0,175	0,068
-176,227	-200,000	0,027	0,097
-175,212	143,659	0,077	-0,074
-174,198	-80,527	-0,042	-0,010
-173,183	122,951	-0,085	0,076
-172,169	154,967	-0,036	-0,036
-171,154	-106,220	-0,070	0,011
-170,139	-124,177	0,153	0,017
-169,125	-146,452	-0,061	0,004
-168,110	792,582	0,042	0,084
-167,096	405,369	-0,043	-0,065
-166,081	29,620	0,103	0,063
-165,066	665,261	-0,070	-0,131
-164,052	-200,000	-0,011	-0,172
-163,037	-115,671	-0,067	0,009
-162,023	-105,457	-0,119	0,019
-161,008	4,062	0,013	-0,007
-159,993	280,851	0,058	0,075
-158,979	800,000	-0,041	-0,102
-157,964	90,771	0,086	0,070
-156,950	-128,537	0,091	-0,009
-155,935	-200,000	0,023	-0,088
-154,920	16,350	-0,014	0,008
-153,906	800,000	-0,011	0,025
-152,891	800,000	-0,066	-0,140
-151,877	-48,051	-0,133	0,046
-150,862	800,000	0,035	0,088
-149,847	488,360	0,032	-0,053
-148,833	18,199	-0,109	0,062
-147,818	-200,000	-0,000	0,077
-146,804	559,887	0,099	0,173
-145,789	-200,000	-0,041	-0,146
-144,775	131,757	0,063	-0,058
-143,760	29,468	0,061	-0,037
-142,745	677,040	-0,050	-0,094
-141,731	-51,665	-0,107	-0,036
-140,716	-169,123	0,045	-0,001
-139,702	155,552	0,157	0,156
-138,687	-200,000	-0,009	-0,034
-137,672	507,917	-0,015	0,025
-136,658	-165,137	0,083	-0,003
-135,643	-200,000	0,009	-0,056
-134,629	-200,000	0,014	0,052
-133,614	800,000	-0,032	-0,072
-132,599	-82,275	-0,064	-0,015
-131,585	-200,000	0,003	0,094
-130,570	-16,231	0,090	0,041
-129,556	-96,502	-0,063	-0,012
-128,541	-35,162	-0,038	0,015
-127,526	624,932	0,041	-0,074
-126,512	-125,403	-0,112	-0,012
-125,497	148,362	-0,042	-0,040
-124,483	305,765	-0,048	0,064
-123,468	-157,264	-0,153	-0,007
-122,453	-41,755	0,070	-0,026
-121,439	-200,000	0,013	0,058
-120,424	-143,489	-0,083	-0,006
-119,410	103,039	0,071	0,060
-118,395	-200,000	0,014	0,080
-117,380	96,868	-0,089	0,073
-116,366	426,190	0,101	0,157
-115,351	800,000	-0,036	0,102
-114,337	800,000	0,026	-0,078
-113,322	-4,705	-0,172	-0,085
-112,307	800,000	-0,023	0,068
-111,293	800,000	-0,024	0,051
-110,278	-37,081	-0,057	-0,022
-109,264	-52,301	0,043	0,014
-108,249	800,000	-0,065	0,176
-107,234	153,836	0,097	0,096
-106,220	-27,035	-0,160	-0,067
-105,205	422,110	0,038	0,058
-104,191	-200,000	0,004	-0,060
-103,176	287,985	-0,108	0,140
-102,162	-137,461	0,113	0,009
-101,147	3,443	0,091	-0,048
-100,132	-200,000	-0,039	-0,130
-99,118	-39,727	-0,083	-0,031
-98,103	68,928	0,054	0,040
-97,089	214,366	0,074	0,084
-96,074	800,000	-0,040	0,114
-95,059	24,469	-0,103	-0,061
-94,045	-149,849	0,086	0,005
-93,030	368,988	0,051	-0,074
-92,016	-43,394	-0,060	-0,022
-91,001	-69,489	-0,069	-0,019
-89,986	800,000	0,037	0,085
-88,972	-200,000	-0,003	0,022
-87,957	-200,000	-0,003	0,120
-86,943	241,448	-0,059	0,071
-85,928	-41,751	-0,097	-0,036
-84,913	-118,766	-0,101	-0,013
-83,899	-69,337	-0,109	0,030
-82,884	-68,178	-0,091	0,025
-81,870	-163,894	0,072	0,002
-80,855	-50,841	-0,085	0,029
-79,840	-10,964	-0,132	0,062
-78,826	54,812	0,147	-0,102
-77,811	470,036	0,026	0,042
-76,797	125,655	-0,071	-0,064
-75,782	-200,000	-0,007	-0,037
-74,767	282,775	0,101	0,130
-73,753	-200,000	0,027	0,162
-72,738	-200,000	-0,011	0,059
-71,724	-200,000	0,000	0,111
-70,709	800,000	-0,070	-0,185
-69,694	-200,000	0,007	-0,051
-68,680	9,801	-0,031	-0,017
-67,665	-200,000	0,010	0,042
-66,651	800,000	0,049	0,104
-65,636	-74,365	-0,037	0,009
-64,622	800,000	-0,056	-0,114
-63,607	45,664	-0,023	-0,015
-62,592	800,000	-0,042	0,093
-61,578	626,971	-0,046	0,084
-60,563	-200,000	-0,001	-0,082
-59,549	800,000	-0,008	0,020
-58,534	-5,928	-2,014	-0,986
-57,519	800,000	-0,428	-0,967
-56,505	-200,000	-1,121	-4,964
-55,490	14,829	0,780	0,437
-54,476	800,000	5,196	12,195
-53,461	-200,000	17,502	283,807
-52,446	800,000	727,239	2215,187
-51,432	535,465	1643,156	2807,977
-50,417	109,985	1633,823	1406,575
-49,403	75,666	1286,202	974,043
-48,388	31,986	1027,288	633,831
-47,373	20,140	989,001	571,168
-46,359	18,422	977,029	558,600
-45,344	15,567	972,871	546,863
-44,330	15,759	971,524	546,714
-43,315	15,305	969,729	544,200
-42,300	15,269	968,467	543,352
-41,286	15,268	967,590	542,834
-40,271	15,262	966,592	542,234
-39,257	15,276	965,568	541,685
-38,242	15,287	964,894	541,319
-37,227	15,299	963,987	540,830
-36,213	15,242	963,088	540,120
-35,198	15,267	962,058	539,600
-34,184	15,287	961,519	539,343
-33,169	15,197	960,668	538,550
-32,154	15,311	959,520	538,254
-31,140	15,287	958,705	537,698
-30,125	15,356	958,003	537,507
-29,111	15,258	957,307	536,779
-28,096	15,259	956,562	536,342
-27,082	15,252	956,046	536,010
-26,067	15,318	954,831	535,520
-25,052	15,282	954,204	535,032
-24,038	15,298	953,565	534,702
-23,023	15,307	952,920	534,350
-22,009	15,356	952,231	534,099
-20,994	15,293	951,717	533,588
-19,979	15,233	951,205	533,088
-18,965	15,299	950,437	532,847
-17,950	15,308	949,814	532,503
-16,936	15,206	949,150	531,784
-15,921	15,214	948,465	531,405
-14,906	15,218	947,696	530,966
-13,892	15,175	947,042	530,444
-12,877	15,140	946,586	530,054
-11,863	15,120	945,854	529,559
-10,848	15,186	945,347	529,465
-9,833	15,221	944,827	529,263
-8,819	15,236	944,310	529,002
-7,804	15,252	943,580	528,621
-6,790	15,182	943,020	528,063
-5,775	15,237	942,393	527,867
-4,760	15,202	941,819	527,413
-3,746	15,150	941,189	526,874
-2,731	15,017	940,551	526,076
-1,717	14,992	939,927	525,627
-0,702	15,043	939,159	525,340
0,313	14,787	938,618	525,021
1,327	18,136	936,433	534,295
2,342	27,316	793,847	477,246
3,356	24,281	459,251	271,427
4,371	-2,943	314,854	157,122
5,386	-6,930	296,735	144,027
6,400	-8,779	290,645	139,220
7,415	-9,346	288,232	137,492
8,429	-9,639	286,550	136,391
9,444	-9,753	285,738	135,881
10,459	-9,670	285,038	135,616
11,473	-9,703	284,475	135,305
12,488	-9,612	283,897	135,106
13,502	-9,742	283,333	134,700
14,517	-9,712	282,999	134,558
15,531	-9,849	282,403	134,130
16,546	-9,841	282,120	133,991
17,561	-9,820	281,615	133,760
18,575	-9,904	281,314	133,524
19,590	-9,857	280,991	133,405
20,604	-9,909	280,682	133,196
21,619	-9,955	280,279	132,949
22,634	-9,789	280,019	132,973
23,648	-9,904	279,651	132,676
24,663	-9,971	279,366	132,465
25,677	-10,019	279,098	132,280
26,692	-9,876	278,765	132,247
27,707	-9,884	278,524	132,113
28,721	-9,777	278,319	132,105
29,736	-9,894	277,988	131,825
30,750	-10,020	277,768	131,590
31,765	-9,968	277,476	131,490
32,780	-10,037	277,400	131,376
33,794	-9,911	277,022	131,305
34,809	-10,000	276,740	131,075
35,823	-9,835	276,482	131,097
36,838	-9,930	276,232	130,877
37,853	-9,977	275,978	130,701
38,867	-10,044	275,754	130,520
39,882	-10,087	275,691	130,438
40,896	-9,865	275,337	130,467
41,911	-9,839	274,962	130,303
42,926	-9,935	274,814	130,131
43,940	-9,952	274,511	129,960
44,955	-9,981	274,365	129,852
45,969	-10,065	274,134	129,653
46,984	-10,155	273,893	129,443
47,999	-10,454	273,613	129,021
49,013	-10,480	273,370	128,869
50,028	-10,629	273,051	128,569
51,042	-10,649	272,654	128,352
52,057	-10,623	272,622	128,350
53,071	-10,552	272,373	128,287
54,086	-10,662	272,235	128,109
55,101	-10,308	271,969	128,300
56,115	-9,896	271,686	128,537
57,130	-9,848	271,727	128,590
58,144	-9,662	271,477	128,631
59,159	-9,701	271,299	128,499
60,174	-9,889	271,146	128,242
61,188	-9,846	270,841	128,126
62,203	-9,780	270,674	128,096
63,217	-9,630	270,334	128,063
64,232	-9,881	270,171	127,742
65,247	-9,797	270,111	127,781
66,261	-9,702	269,673	127,649
67,276	-9,895	269,384	127,323
68,290	-9,914	269,162	127,190
69,305	-10,151	268,983	126,877
70,320	-10,251	268,938	126,753
71,334	-9,922	268,556	126,862
72,349	-9,879	268,358	126,797
73,363	-9,591	268,226	126,985
74,378	-9,671	268,040	126,814
75,393	-9,711	267,727	126,618
76,407	-9,802	267,625	126,475
77,422	-9,748	267,300	126,359
78,436	-9,647	267,037	126,316
79,451	-9,638	266,883	126,239
80,466	-9,808	266,570	125,926
81,480	-10,005	266,396	125,655
82,495	-10,097	266,038	125,391
83,509	-9,941	265,956	125,482
84,524	-10,080	265,760	125,253
85,539	-9,919	265,451	125,241
86,553	-10,036	265,183	124,999
87,568	-9,838	265,010	125,084
88,582	-9,931	264,885	124,931
89,597	-9,977	264,785	124,830
90,611	-9,717	264,543	124,939
91,626	-9,636	264,372	124,920
92,641	-9,791	264,253	124,714
93,655	-9,717	263,967	124,634
94,670	-9,811	263,692	124,409
95,684	-9,962	263,644	124,239
96,699	-9,809	263,444	124,271
97,714	-9,875	263,234	124,102
98,728	-9,920	262,885	123,886
99,743	-10,154	262,754	123,605
100,757	-10,104	262,507	123,522
101,772	-9,958	262,306	123,546
102,787	-9,877	262,115	123,518
103,801	-9,836	261,949	123,465
104,816	-9,926	261,859	123,331
105,830	-9,710	261,675	123,426
106,845	-9,710	261,511	123,337
107,860	-9,813	261,348	123,158
108,874	-9,735	261,001	123,052
109,889	-9,809	260,948	122,951
110,903	-9,752	260,547	122,801
111,918	-9,862	260,469	122,657
112,933	-9,868	260,260	122,542
113,947	-9,906	260,084	122,415
114,962	-9,858	259,846	122,334
115,976	-9,817	259,707	122,293
116,991	-9,820	259,516	122,190
118,006	-9,895	259,280	122,002
119,020	-9,750	259,229	122,095
120,035	-9,905	259,044	121,861
121,049	-9,761	259,017	121,964
122,064	-9,741	258,706	121,824
123,079	-9,838	258,454	121,610
124,093	-9,793	258,210	121,523
125,108	-9,832	257,918	121,341
126,122	-10,337	257,607	120,743
127,137	-10,263	257,399	120,699
128,151	-10,074	257,372	120,840
129,166	-9,868	257,164	120,911
130,181	-9,882	256,904	120,767
131,195	-10,015	256,789	120,586
132,210	-9,900	256,691	120,629
133,224	-9,808	256,465	120,592
134,239	-9,971	256,521	120,465
135,254	-9,446	256,049	120,689
136,268	-9,684	255,876	120,390
137,283	-10,055	255,595	119,926
138,297	-9,941	255,183	119,821
139,312	-10,134	255,155	119,631
140,327	-9,758	254,938	119,842
141,341	-9,713	255,112	119,952
142,356	-9,692	254,851	119,837
143,370	-9,691	254,741	119,775
144,385	-9,587	254,452	119,719
145,400	-9,586	254,304	119,639
146,414	-9,427	254,116	119,676
147,429	-9,405	253,931	119,597
148,443	-9,612	253,761	119,329
149,458	-9,677	253,548	119,162
150,473	-9,644	253,282	119,055
151,487	-9,526	253,216	119,114
152,502	-9,633	252,961	118,892
153,516	-9,372	252,811	119,034
154,531	-9,440	252,580	118,856
155,546	-9,491	252,503	118,767
156,560	-9,573	252,303	118,592
157,575	-9,532	252,153	118,546
158,589	-9,362	251,779	118,504
159,604	-9,441	251,674	118,377
160,619	-9,566	251,430	118,145
161,633	-9,617	251,222	117,994
162,648	-9,614	251,280	118,013
163,662	-9,575	251,116	117,958
164,677	-9,659	250,964	117,805
165,692	-9,393	250,746	117,918
166,706	-9,282	250,443	117,859
167,721	-9,443	250,340	117,664
168,735	-9,471	250,202	117,565
169,750	-9,537	250,042	117,423
170,764	-9,502	250,046	117,444
171,779	-9,283	249,774	117,491
172,794	-9,555	249,675	117,205
173,808	-9,504	249,436	117,124
174,823	-9,972	249,039	116,534
175,837	-10,036	248,759	116,340
176,852	-9,849	248,785	116,499
177,867	-9,618	248,860	116,717
178,881	-9,356	248,508	116,761
179,896	-9,294	248,353	116,730
180,910	-9,359	248,173	116,580
181,925	-9,169	247,926	116,613
182,940	-9,518	247,863	116,280
183,954	-9,438	247,701	116,261
184,969	-9,462	247,557	116,163
185,983	-9,485	247,316	116,020
186,998	-9,407	247,233	116,037
188,013	-9,722	247,125	115,713
189,027	-9,494	246,825	115,752
190,042	-9,473	246,618	115,662
191,056	-9,429	246,495	115,631
192,071	-9,352	246,336	115,610
193,086	-9,312	246,201	115,569
194,100	-9,375	246,047	115,434
195,115	-9,374	245,859	115,336
196,129	-9,312	245,703	115,304
197,144	-9,537	245,465	114,996
198,159	-9,242	245,127	115,071
199,173	-9,253	245,160	115,068
200,188	-9,453	244,847	114,745
201,202	-9,568	244,648	114,547
202,217	-9,864	244,473	114,212
203,232	-9,981	244,206	113,980
204,246	-9,579	244,108	114,254
205,261	-8,972	244,157	114,766
206,275	-9,662	243,899	114,069
207,290	-5,842	245,453	117,935
208,304	0,859	247,386	124,407
209,319	3,371	248,099	126,837
210,334	4,005	248,076	127,338
211,348	4,189	248,115	127,499
212,363	4,341	247,981	127,544
213,377	4,595	247,797	127,648
214,392	4,339	247,662	127,356
215,407	4,352	247,470	127,257
216,421	4,250	247,281	127,064
217,436	4,638	247,014	127,235
218,450	4,749	246,864	127,238
219,465	4,360	246,792	126,869
220,480	4,037	246,479	126,432
221,494	4,054	246,353	126,370
222,509	4,098	246,181	126,306
223,523	3,916	246,155	126,132
224,538	3,841	245,776	125,866
225,553	3,987	245,515	125,840
226,567	4,028	245,566	125,889
227,582	4,055	245,490	125,861
228,596	4,315	245,107	125,865
229,611	3,924	245,024	125,492
230,626	3,565	244,880	125,115
231,640	3,843	244,678	125,227
232,655	3,928	244,505	125,196
233,669	3,678	244,298	124,876
234,684	3,841	244,155	124,924
235,699	4,019	244,224	125,093
236,713	4,129	244,030	125,072
237,728	3,778	243,763	124,639
238,742	3,690	243,516	124,431
239,757	3,471	243,455	124,211
240,772	3,780	243,214	124,326
241,786	3,722	243,062	124,191
242,801	3,773	242,992	124,185
243,815	3,594	242,706	123,883
244,830	4,040	242,581	124,169
245,844	4,064	242,414	124,092
246,859	3,945	242,297	123,924
247,874	3,656	242,164	123,612
248,888	3,868	242,011	123,694
249,903	3,931	241,869	123,661
250,917	4,091	241,682	123,683
251,932	4,114	241,725	123,712
252,947	4,041	241,401	123,477
253,961	3,939	241,156	123,259
254,976	3,968	241,091	123,238
255,990	4,206	240,917	123,328
257,005	3,923	240,679	122,970
258,020	3,703	240,538	122,711
259,034	3,708	240,449	122,658
260,049	4,175	240,268	122,928
261,063	3,653	240,152	122,441
262,078	3,804	240,042	122,495
263,093	3,932	239,922	122,524
264,107	4,035	239,759	122,512
265,122	3,928	239,596	122,333
266,136	4,070	239,332	122,300
267,151	4,047	239,308	122,259
268,166	3,873	238,992	121,948
269,180	3,819	238,813	121,803
270,195	4,313	238,950	122,254
271,209	4,614	238,684	122,346
272,224	3,884	238,523	121,674
273,239	3,419	238,293	121,178
274,253	3,670	238,133	121,284
275,268	3,864	238,140	121,431
276,282	3,937	237,761	121,284
277,297	3,524	237,644	120,888
278,312	3,531	237,725	120,924
279,326	4,157	237,347	121,213
280,341	4,256	237,161	121,185
281,355	4,007	237,090	120,943
282,370	4,087	236,935	120,916
283,384	3,903	236,798	120,691
284,399	3,890	236,522	120,529
285,414	3,683	236,374	120,281
286,428	3,904	236,254	120,382
287,443	3,835	236,109	120,243
288,457	3,969	236,107	120,336
289,472	4,020	235,865	120,242
290,487	4,138	235,654	120,216
291,501	3,787	235,550	119,879
292,516	3,604	235,436	119,667
293,530	3,659	235,224	119,591
294,545	3,849	235,246	119,740
295,560	3,783	235,030	119,568
296,574	3,619	234,712	119,268
297,589	3,663	234,657	119,264
298,603	3,959	234,639	119,473
299,618	4,201	234,433	119,546
300,633	3,925	234,439	119,324
301,647	4,167	234,350	119,456
302,662	4,480	234,061	119,540
303,676	4,351	233,998	119,397
304,691	4,211	233,814	119,185
305,706	4,253	233,812	119,205
306,720	4,491	233,412	119,174
307,735	4,221	233,369	118,934
308,749	4,010	233,202	118,675
309,764	3,881	232,893	118,408
310,779	3,887	232,619	118,263
311,793	3,617	232,464	117,967
312,808	3,646	232,263	117,876
313,822	3,704	232,225	117,891
314,837	3,611	232,079	117,734
315,852	3,589	231,938	117,636
316,866	3,966	231,912	117,901
317,881	4,089	231,808	117,932
318,895	4,120	231,625	117,852
319,910	3,944	231,574	117,681
320,925	4,073	231,313	117,636
321,939	3,970	231,126	117,452
322,954	4,178	231,087	117,580
323,968	4,001	230,865	117,322
324,983	3,818	230,694	117,085
325,997	3,619	230,586	116,869
327,012	3,884	230,620	117,077
328,027	4,106	230,290	117,068
329,041	4,279	230,259	117,174
330,056	4,596	230,316	117,432
331,070	4,659	230,203	117,412
332,085	4,397	229,739	116,967
333,100	4,017	229,546	116,570
334,114	4,092	229,452	116,569
335,129	4,386	229,407	116,758
336,143	4,291	229,309	116,626
337,158	4,397	229,201	116,641
338,173	3,950	229,015	116,198
339,187	4,078	228,758	116,154
340,202	4,130	228,658	116,132
341,216	4,425	228,276	116,150
342,231	4,106	228,211	115,866
343,246	3,958	228,181	115,729
344,260	4,038	228,057	115,717
345,275	4,275	228,034	115,873
346,289	4,368	227,768	115,797
347,304	4,448	227,624	115,773
348,319	4,238	227,435	115,509
349,333	4,310	227,201	115,434
350,348	4,182	227,114	115,284
351,362	4,106	226,974	115,145
352,377	4,129	226,629	114,978
353,392	3,808	226,590	114,708
354,406	3,671	226,546	114,573
355,421	194,933	1321,824	1396,585
356,435	156,247	1455,259	1396,586
