DTS Sentinel unit serial number:	SN410029Multiplexer serial number:	ORYXHardware model number:	OX2-SRSoftware version number:	ORYX F/W v4,00 Oryx Data Collector v3.7.2.0data status	okinstallation	B5 Nyhavnadifferential loss correction	single-endedforward channel	channel 2reverse channel	N/Adate	2023/12/14time	13:07:13forward acquisition time	300,00reverse acquisition time	0,00gamma	499,1914k internal	0,3157k external	0,3157temperature offset calibration	1,0000default loss term (dB/km)	0,3820temperature slope calibration	1,0000multiplexer offset coefficient	1,0000multiplexer slope coefficient	1,0000fibre end	0,00T internal ref (°C)	8,02T ext. ref 1 (°C)	-7,69T ext. ref 2 (°C)	-7,74length (m)	temperature (°C)	Stokes	anti-Stokes-744,400	173,713	-0,029	0,030
-743,385	-135,358	-0,258	0,022
-742,371	143,159	0,177	0,174
-741,356	-23,891	-0,354	-0,156
-740,342	0,696	0,189	0,099
-739,327	-132,267	-0,455	-0,043
-738,312	-95,899	0,197	-0,038
-737,298	25,328	-0,341	-0,209
-736,283	100,368	0,126	-0,108
-735,269	-64,440	-0,355	-0,106
-734,254	5,406	0,184	0,100
-733,239	-67,767	-0,602	-0,172
-732,225	-30,525	0,126	0,053
-731,210	-200,000	0,004	-0,068
-730,196	179,754	-0,024	0,026
-729,181	32,295	-0,074	-0,047
-728,167	9,611	-0,067	-0,038
-727,152	-21,525	-0,017	0,008
-726,137	122,446	-0,108	-0,100
-725,123	573,343	-0,081	-0,146
-724,108	106,940	-0,096	-0,084
-723,094	-136,174	-0,037	-0,003
-722,079	-200,000	0,001	-0,069
-721,064	-200,000	-0,003	0,071
-720,050	800,000	-0,011	0,032
-719,035	-82,680	-0,047	-0,011
-718,021	-11,704	-0,093	-0,045
-717,006	36,127	-0,087	-0,056
-715,991	102,481	0,005	0,004
-714,977	510,543	-0,079	0,135
-713,962	108,608	0,068	-0,059
-712,948	128,866	0,070	-0,066
-711,933	160,253	-0,120	-0,124
-710,918	-200,000	0,012	-0,106
-709,904	-55,773	-0,200	-0,065
-708,889	-200,000	-0,003	-0,100
-707,875	20,300	-0,006	-0,003
-706,860	800,000	0,032	-0,078
-705,845	-88,831	0,232	0,050
-704,831	-0,989	-0,101	0,053
-703,816	800,000	0,030	0,090
-702,802	324,041	-0,064	-0,090
-701,787	269,744	-0,079	-0,102
-700,772	305,384	0,034	-0,047
-699,758	-200,000	-0,006	-0,032
-698,743	-9,654	-0,105	0,051
-697,729	64,269	-0,078	0,057
-696,714	69,995	-0,064	0,048
-695,699	-200,000	-0,018	0,078
-694,685	121,750	0,102	-0,093
-693,670	-3,234	0,014	0,007
-692,656	800,000	0,009	-0,023
-691,641	666,192	0,032	0,060
-690,627	96,883	0,102	0,086
-689,612	28,853	-0,038	0,024
-688,597	800,000	-0,027	0,081
-687,583	-200,000	0,005	-0,092
-686,568	-59,132	-0,086	-0,027
-685,554	94,216	0,041	0,034
-684,539	-23,213	-0,155	-0,068
-683,524	-200,000	0,007	-0,035
-682,510	180,066	0,023	-0,025
-681,495	800,000	-0,030	-0,076
-680,481	-83,704	-0,086	0,020
-679,466	532,573	0,087	0,152
-678,451	-200,000	0,005	-0,153
-677,437	800,000	-0,063	0,159
-676,422	26,147	-0,077	-0,047
-675,408	21,081	-0,077	0,046
-674,393	800,000	-0,037	-0,080
-673,378	192,673	-0,046	-0,052
-672,364	227,603	-0,033	-0,040
-671,349	48,716	0,017	-0,012
-670,335	561,373	0,090	0,161
-669,320	306,018	-0,070	0,097
-668,305	-200,000	0,026	0,115
-667,291	-120,950	-0,076	0,009
-666,276	-170,216	-0,039	0,001
-665,262	-107,414	-0,195	-0,031
-664,247	76,406	-0,091	-0,070
-663,232	238,311	-0,050	-0,062
-662,218	86,681	-0,020	0,017
-661,203	200,058	0,046	-0,052
-660,189	-39,681	0,057	-0,022
-659,174	-101,520	-0,124	0,022
-658,159	-4,828	-0,075	-0,038
-657,145	800,000	-0,051	0,125
-656,130	-0,569	-0,050	0,026
-655,116	-104,584	-0,081	-0,014
-654,101	-200,000	-0,010	0,098
-653,086	126,364	0,027	-0,025
-652,072	-58,443	-0,187	0,059
-651,057	151,476	-0,092	-0,092
-650,043	501,870	-0,051	-0,087
-649,028	800,000	0,033	0,101
-648,014	-200,000	-0,028	-0,198
-646,999	-9,520	-0,097	-0,047
-645,984	-40,734	0,084	-0,032
-644,970	35,927	0,123	-0,079
-643,955	-33,209	-0,072	-0,029
-642,941	315,397	-0,067	0,093
-641,926	-200,000	0,004	0,032
-640,911	800,000	0,011	0,034
-639,897	-200,000	0,004	-0,015
-638,882	800,000	0,037	0,098
-637,868	34,876	-0,073	0,047
-636,853	-200,000	-0,013	-0,051
-635,838	237,106	-0,009	0,012
-634,824	-22,982	0,093	-0,041
-633,809	86,707	0,042	-0,034
-632,795	800,000	0,048	0,100
-631,780	-200,000	0,004	-0,025
-630,765	-170,621	0,043	-0,001
-629,751	-168,753	-0,111	-0,003
-628,736	238,611	-0,054	-0,065
-627,722	4,237	0,116	-0,062
-626,707	800,000	0,012	-0,029
-625,692	186,683	-0,059	0,064
-624,678	14,127	0,022	-0,013
-623,663	-200,000	0,017	-0,114
-622,649	146,399	-0,123	-0,121
-621,634	118,290	-0,100	-0,091
-620,619	180,839	-0,003	0,003
-619,605	-200,000	0,002	-0,108
-618,590	-200,000	0,010	-0,134
-617,576	103,044	0,136	-0,117
-616,561	-200,000	-0,010	-0,043
-615,546	800,000	-0,056	-0,129
-614,532	95,302	-0,091	-0,076
-613,517	-200,000	-0,009	-0,121
-612,503	-200,000	0,010	-0,139
-611,488	-110,819	0,128	-0,019
-610,474	0,472	-0,135	0,071
-609,459	-49,545	0,078	-0,027
-608,444	800,000	-0,029	-0,061
-607,430	-200,000	0,000	-0,122
-606,415	-70,013	-0,031	0,009
-605,401	-7,658	-0,015	0,007
-604,386	154,231	0,086	-0,086
-603,371	10,765	0,137	-0,077
-602,357	-172,993	-0,160	-0,004
-601,342	-200,000	-0,020	-0,093
-600,328	-30,549	0,054	0,022
-599,313	-200,000	-0,000	-0,134
-598,298	-200,000	-0,027	-0,142
-597,284	-200,000	0,010	-0,046
-596,269	148,689	0,040	0,039
-595,255	-152,212	0,093	0,005
-594,240	-37,157	-0,059	-0,023
-593,225	-56,599	-0,138	-0,045
-592,211	456,354	-0,073	-0,118
-591,196	-17,275	0,197	-0,090
-590,182	352,691	-0,040	0,058
-589,167	800,000	0,072	0,216
-588,152	7,533	0,065	0,035
-587,138	-88,165	0,039	0,009
-586,123	-115,065	-0,128	-0,018
-585,109	-64,565	-0,094	0,028
-584,094	800,000	0,027	-0,087
-583,079	-139,305	0,013	0,001
-582,065	74,736	0,044	0,034
-581,050	337,795	-0,027	0,039
-580,036	50,189	-0,148	0,102
-579,021	36,054	-0,053	0,034
-578,006	757,551	0,026	-0,051
-576,992	-87,956	-0,103	0,022
-575,977	393,163	-0,110	0,169
-574,963	8,807	0,032	0,018
-573,948	178,771	0,081	0,087
-572,934	590,004	-0,078	0,142
-571,919	156,930	-0,075	-0,076
-570,904	-200,000	-0,030	0,101
-569,890	-200,000	-0,001	-0,039
-568,875	-200,000	-0,027	0,091
-567,861	-137,266	0,122	0,010
-566,846	-200,000	0,014	0,075
-565,831	-19,369	0,194	-0,088
-564,817	-200,000	0,023	-0,079
-563,802	800,000	0,012	0,026
-562,788	69,704	-0,013	0,010
-561,773	5,324	0,052	0,028
-560,758	47,167	0,050	0,034
-559,744	800,000	-0,015	-0,032
-558,729	800,000	0,035	0,071
-557,715	800,000	-0,038	0,092
-556,700	26,865	0,020	-0,012
-555,685	43,181	0,016	-0,011
-554,671	11,770	-0,135	-0,075
-553,656	66,934	0,048	0,036
-552,642	-120,011	-0,100	-0,012
-551,627	-136,409	0,022	-0,002
-550,612	-200,000	0,002	-0,068
-549,598	-200,000	0,001	0,020
-548,583	-23,971	-0,072	0,031
-547,569	-41,328	-0,084	-0,032
-546,554	-98,817	0,109	0,020
-545,539	326,665	0,059	0,083
-544,525	-136,050	-0,054	0,005
-543,510	800,000	0,012	-0,033
-542,496	800,000	-0,031	0,095
-541,481	35,566	0,123	0,079
-540,466	187,859	-0,102	-0,112
-539,452	-113,264	0,044	0,006
-538,437	36,062	-0,033	-0,021
-537,423	335,951	0,063	0,090
-536,408	11,981	-0,083	0,046
-535,393	-200,000	0,012	-0,088
-534,379	800,000	0,049	0,109
-533,364	-200,000	0,001	0,010
-532,350	26,730	0,156	0,096
-531,335	-200,000	-0,011	0,062
-530,321	-61,126	-0,177	0,054
-529,306	800,000	-0,031	-0,098
-528,291	-141,129	-0,069	0,005
-527,277	94,546	0,107	-0,089
-526,262	-200,000	0,007	-0,027
-525,248	194,307	0,048	-0,053
-524,233	-158,249	0,121	0,005
-523,218	720,085	-0,022	0,042
-522,204	-200,000	-0,014	0,049
-521,189	-200,000	-0,021	-0,131
-520,175	-27,226	-0,128	0,054
-519,160	15,097	0,047	-0,027
-518,145	280,665	0,015	0,019
-517,131	79,175	-0,017	0,013
-516,116	174,352	-0,054	-0,057
-515,102	-30,590	0,059	-0,024
-514,087	147,457	-0,107	-0,105
-513,072	258,705	-0,041	-0,052
-512,058	189,480	0,068	-0,074
-511,043	140,182	0,085	0,082
-510,029	236,751	0,026	0,031
-509,014	425,433	0,040	-0,063
-507,999	30,246	-0,046	0,029
-506,985	-200,000	0,043	-0,138
-505,970	3,325	0,121	-0,064
-504,956	-177,557	-0,150	0,003
-503,941	342,583	0,032	0,046
-502,926	-32,110	0,160	0,065
-501,912	139,707	0,021	-0,020
-500,897	132,443	-0,057	0,054
-499,883	-82,611	0,096	0,022
-498,868	431,239	-0,026	-0,041
-497,853	37,300	0,040	0,026
-496,839	60,331	-0,067	-0,048
-495,824	419,074	0,078	0,122
-494,810	-96,386	-0,069	-0,013
-493,795	-1,825	0,014	0,007
-492,781	-200,000	0,002	-0,012
-491,766	150,505	-0,039	0,039
-490,751	-200,000	0,021	-0,182
-489,737	26,238	0,081	-0,050
-488,722	-131,172	0,101	-0,010
-487,708	-42,025	0,035	-0,013
-486,693	310,287	-0,032	0,043
-485,678	-109,422	-0,073	-0,011
-484,664	-200,000	0,015	-0,059
-483,649	800,000	0,020	-0,060
-482,635	125,479	-0,037	0,034
-481,620	-47,590	-0,033	0,012
-480,605	117,703	-0,052	0,047
-479,591	35,833	0,030	0,019
-478,576	-200,000	0,011	-0,043
-477,562	-200,000	-0,016	-0,056
-476,547	30,277	-0,205	0,127
-475,532	800,000	0,027	0,072
-474,518	-41,250	0,080	0,030
-473,503	177,127	0,044	0,047
-472,489	-200,000	-0,022	0,211
-471,474	706,136	0,042	0,081
-470,459	-200,000	-0,005	-0,105
-469,445	-105,184	-0,078	-0,013
-468,430	800,000	0,053	-0,111
-467,416	-97,215	0,192	0,036
-466,401	621,631	-0,097	0,179
-465,386	305,528	-0,103	0,141
-464,372	607,331	0,020	0,037
-463,357	55,717	0,039	0,027
-462,343	-200,000	-0,016	-0,099
-461,328	431,914	0,033	0,052
-460,313	800,000	-0,036	-0,076
-459,299	-89,908	0,005	-0,001
-458,284	-200,000	-0,010	0,076
-457,270	222,214	0,141	0,166
-456,255	-76,096	-0,132	0,034
-455,241	800,000	-0,059	-0,120
-454,226	367,827	-0,045	-0,066
-453,211	-200,000	-0,024	0,093
-452,197	-200,000	0,001	0,063
-451,182	38,203	0,027	0,017
-450,168	244,752	-0,068	0,084
-449,153	254,314	-0,072	-0,090
-448,138	-54,906	0,086	-0,028
-447,124	128,867	0,034	0,032
-446,109	453,182	-0,054	0,087
-445,095	800,000	-0,037	-0,090
-444,080	-31,255	-0,100	0,041
-443,065	-200,000	0,005	0,058
-442,051	-200,000	0,000	-0,042
-441,036	40,499	-0,167	0,110
-440,022	-200,000	0,023	-0,081
-439,007	-142,181	0,071	-0,005
-437,992	56,169	0,010	-0,007
-436,978	-6,754	-0,152	-0,075
-435,963	230,919	0,070	-0,084
-434,949	-58,777	0,070	0,022
-433,934	-166,195	0,125	0,004
-432,919	800,000	0,020	0,053
-431,905	4,383	0,035	0,019
-430,890	-77,892	0,097	0,024
-429,876	485,474	-0,093	0,156
-428,861	376,875	-0,024	0,035
-427,846	-200,000	0,002	0,160
-426,832	-178,436	0,112	0,002
-425,817	800,000	-0,046	-0,140
-424,803	800,000	-0,019	-0,050
-423,788	-44,141	0,162	0,059
-422,773	-82,536	-0,049	-0,011
-421,759	145,537	-0,040	-0,039
-420,744	-135,562	0,082	0,007
-419,730	-141,130	0,084	-0,006
-418,715	-200,000	-0,033	-0,107
-417,701	800,000	-0,057	-0,143
-416,686	52,623	0,047	-0,033
-415,671	-200,000	-0,001	0,238
-414,657	-134,660	0,175	0,015
-413,642	-82,174	-0,088	-0,021
-412,628	800,000	-0,005	0,012
-411,613	-200,000	0,005	-0,060
-410,598	-113,404	-0,049	0,007
-409,584	800,000	0,024	0,066
-408,569	-200,000	0,011	-0,041
-407,555	74,377	0,057	-0,044
-406,540	-83,097	0,040	0,009
-405,525	283,748	0,036	-0,048
-404,511	139,269	-0,043	-0,042
-403,496	-170,791	-0,071	0,002
-402,482	36,925	0,051	-0,033
-401,467	-7,597	0,045	0,022
-400,452	547,948	-0,021	0,037
-399,438	43,866	0,030	0,020
-398,423	-46,598	-0,083	0,029
-397,409	800,000	-0,028	-0,089
-396,394	-200,000	-0,016	-0,137
-395,379	-139,508	0,059	0,005
-394,365	265,120	0,084	-0,106
-393,350	102,890	-0,086	0,073
-392,336	-7,584	0,044	0,021
-391,321	-58,922	-0,038	-0,012
-390,306	-127,229	-0,194	-0,020
-389,292	42,909	-0,163	-0,108
-388,277	-108,986	-0,069	-0,011
-387,263	-200,000	-0,046	0,167
-386,248	800,000	0,075	0,155
-385,233	800,000	-0,012	-0,032
-384,219	-77,276	-0,140	0,035
-383,204	94,428	-0,040	0,033
-382,190	128,843	-0,030	-0,028
-381,175	-200,000	-0,031	-0,199
-380,160	-200,000	0,027	-0,159
-379,146	-161,059	0,060	-0,002
-378,131	-129,327	-0,047	0,005
-377,117	-200,000	0,009	0,041
-376,102	759,689	0,060	-0,119
-375,088	800,000	-0,063	-0,131
-374,073	-200,000	0,004	-0,067
-373,058	178,644	0,037	-0,039
-372,044	-95,092	-0,079	0,015
-371,029	-64,311	0,118	-0,035
-370,015	151,636	-0,105	-0,104
-369,000	187,134	-0,043	-0,047
-367,985	-27,464	0,084	-0,035
-366,971	430,069	-0,052	-0,082
-365,956	-87,117	0,062	0,014
-364,942	800,000	-0,013	-0,029
-363,927	800,000	0,012	0,033
-362,912	800,000	0,043	0,095
-361,898	800,000	0,038	0,081
-360,883	236,168	0,080	-0,096
-359,869	-200,000	0,000	-0,164
-358,854	94,348	0,051	-0,042
-357,839	-90,061	0,051	-0,011
-356,825	424,504	-0,038	-0,059
-355,810	300,027	-0,047	0,063
-354,796	-159,008	-0,088	0,004
-353,781	800,000	-0,024	-0,069
-352,766	-137,639	-0,031	0,002
-351,752	420,952	-0,051	-0,080
-350,737	39,053	0,138	0,089
-349,723	-200,000	-0,025	-0,101
-348,708	-63,815	-0,056	0,017
-347,693	-200,000	0,004	0,042
-346,679	68,712	-0,162	-0,121
-345,664	-48,802	-0,089	0,031
-344,650	-73,820	0,070	0,018
-343,635	-31,158	0,120	0,049
-342,620	-11,271	-0,066	0,031
-341,606	-200,000	-0,002	0,050
-340,591	158,233	-0,047	0,048
-339,577	300,182	-0,012	0,016
-338,562	-69,015	-0,118	-0,033
-337,548	-8,103	-0,043	-0,021
-336,533	-130,637	0,084	0,008
-335,518	-94,690	-0,082	0,016
-334,504	-200,000	0,004	0,174
-333,489	-112,194	-0,089	-0,013
-332,475	-32,439	-0,085	-0,034
-331,460	89,991	-0,060	-0,049
-330,445	-4,273	0,061	-0,030
-329,431	56,002	0,063	-0,044
-328,416	368,645	0,049	0,072
-327,402	71,584	-0,164	0,123
-326,387	20,531	0,071	-0,042
-325,372	-114,611	0,011	-0,002
-324,358	-132,684	-0,084	0,008
-323,343	-200,000	-0,029	0,124
-322,329	-14,474	-0,055	-0,026
-321,314	-200,000	0,018	0,119
-320,299	-200,000	-0,014	0,158
-319,285	-200,000	0,002	-0,068
-318,270	647,729	-0,046	-0,086
-317,256	227,244	0,021	-0,025
-316,241	-200,000	0,010	-0,130
-315,226	-171,872	0,093	-0,002
-314,212	26,233	0,039	-0,023
-313,197	-35,849	0,030	0,012
-312,183	279,202	-0,019	0,025
-311,168	-200,000	0,020	-0,066
-310,153	370,163	-0,029	-0,043
-309,139	800,000	0,036	-0,073
-308,124	11,974	-0,050	0,028
-307,110	-124,613	0,215	-0,024
-306,095	-100,575	0,119	0,021
-305,080	30,527	-0,030	0,019
-304,066	-16,699	0,141	-0,064
-303,051	-200,000	0,018	0,062
-302,037	1,267	-0,027	0,014
-301,022	-133,717	-0,039	0,003
-300,008	117,898	0,058	0,051
-298,993	-200,000	-0,007	0,025
-297,978	210,316	0,056	0,064
-296,964	275,086	0,010	-0,013
-295,949	15,589	-0,119	0,067
-294,935	183,981	-0,028	-0,030
-293,920	123,773	-0,099	0,090
-292,905	-200,000	-0,003	0,023
-291,891	-200,000	-0,013	0,087
-290,876	-200,000	-0,005	0,066
-289,862	-200,000	0,012	0,042
-288,847	-45,864	0,040	0,014
-287,832	488,331	-0,044	0,073
-286,818	173,258	0,071	0,074
-285,803	314,770	-0,024	-0,033
-284,789	-200,000	-0,051	0,163
-283,774	605,712	0,078	-0,141
-282,759	-92,088	0,031	-0,006
-281,745	683,866	-0,053	0,101
-280,730	-200,000	0,000	-0,128
-279,716	-125,342	0,069	-0,008
-278,701	-43,487	0,105	0,038
-277,686	-63,682	0,058	-0,017
-276,672	-103,049	-0,026	0,004
-275,657	310,968	0,045	0,061
-274,643	-200,000	0,001	0,005
-273,628	-200,000	-0,045	-0,177
-272,613	357,536	0,009	0,013
-271,599	117,198	0,026	0,023
-270,584	144,337	0,043	0,041
-269,570	-63,947	0,084	0,025
-268,555	-62,347	-0,044	-0,013
-267,540	-200,000	0,003	0,057
-266,526	545,983	-0,055	-0,096
-265,511	-33,425	-0,012	0,005
-264,497	-200,000	-0,006	-0,111
-263,482	-128,556	0,106	0,011
-262,467	-200,000	-0,004	0,150
-261,453	-72,496	0,033	0,009
-260,438	99,823	-0,078	-0,065
-259,424	800,000	-0,028	0,064
-258,409	800,000	-0,042	0,124
-257,395	800,000	0,023	-0,063
-256,380	269,145	0,080	0,102
-255,365	179,038	-0,108	0,115
-254,351	-110,739	-0,153	-0,023
-253,336	-200,000	-0,002	-0,137
-252,322	70,782	0,072	-0,054
-251,307	215,465	-0,058	-0,066
-250,292	800,000	-0,069	-0,149
-249,278	-108,875	0,039	0,006
-248,263	42,230	-0,092	0,060
-247,249	251,984	-0,026	0,033
-246,234	619,116	-0,044	-0,080
-245,219	-200,000	-0,035	-0,212
-244,205	800,000	0,026	-0,057
-243,190	279,047	-0,065	-0,083
-242,176	598,095	0,013	0,024
-241,161	-200,000	-0,042	0,209
-240,146	800,000	0,032	0,089
-239,132	139,236	0,047	0,045
-238,117	800,000	0,042	-0,099
-237,103	-200,000	-0,001	0,033
-236,088	133,154	-0,018	0,017
-235,073	515,955	0,057	0,097
-234,059	-200,000	0,009	0,037
-233,044	-97,345	0,096	0,018
-232,030	800,000	-0,026	0,066
-231,015	-200,000	0,019	0,066
-230,000	800,000	-0,017	-0,043
-228,986	-200,000	-0,013	0,143
-227,971	-200,000	0,024	0,128
-226,957	78,689	0,056	-0,043
-225,942	139,195	-0,132	0,125
-224,927	-200,000	-0,007	-0,036
-223,913	-5,291	0,063	0,031
-222,898	-15,448	0,141	0,065
-221,884	-200,000	-0,017	0,101
-220,869	475,260	0,013	-0,021
-219,855	546,333	-0,054	-0,094
-218,840	237,836	0,115	0,139
-217,825	-83,005	-0,097	0,022
-216,811	210,896	-0,052	-0,059
-215,796	722,722	-0,082	-0,159
-214,782	0,402	0,134	-0,069
-213,767	-85,297	-0,069	-0,015
-212,752	587,596	0,075	0,134
-211,738	17,028	0,084	0,048
-210,723	-200,000	0,010	-0,037
-209,709	800,000	0,027	-0,081
-208,694	36,893	-0,076	-0,048
-207,679	-152,779	-0,199	-0,010
-206,665	-200,000	0,004	-0,041
-205,650	21,438	0,164	0,096
-204,636	-40,604	0,119	0,044
-203,621	800,000	-0,090	0,210
-202,606	800,000	0,040	0,096
-201,592	4,958	-0,051	-0,027
-200,577	-200,000	-0,002	-0,067
-199,563	-130,920	0,040	-0,004
-198,548	344,478	0,037	-0,052
-197,533	-104,533	0,086	0,014
-196,519	800,000	0,087	0,176
-195,504	-200,000	-0,047	0,208
-194,490	800,000	-0,028	0,087
-193,475	-200,000	0,006	0,090
-192,460	-52,842	-0,158	-0,052
-191,446	257,059	0,077	0,096
-190,431	111,769	-0,106	0,092
-189,417	-144,552	0,137	0,009
-188,402	-200,000	-0,017	0,083
-187,387	-154,485	0,034	0,002
-186,373	506,242	-0,098	-0,165
-185,358	-37,269	0,057	0,022
-184,344	800,000	-0,023	-0,060
-183,329	34,626	-0,125	-0,079
-182,315	-99,530	0,090	-0,016
-181,300	-154,647	-0,032	0,002
-180,285	-200,000	0,014	0,059
-179,271	-77,569	-0,032	-0,008
-178,256	-200,000	-0,007	-0,053
-177,242	-25,571	-0,030	0,013
-176,227	-105,905	-0,143	0,023
-175,212	331,561	0,137	0,191
-174,198	181,773	0,027	0,029
-173,183	705,703	0,060	-0,114
-172,169	57,465	-0,119	-0,084
-171,154	566,886	0,034	-0,061
-170,139	201,177	0,050	-0,056
-169,125	-88,472	-0,008	-0,002
-168,110	-59,948	0,037	-0,011
-167,096	157,584	0,005	0,005
-166,081	-200,000	0,007	0,234
-165,066	-135,810	-0,053	-0,004
-164,052	-200,000	0,003	0,142
-163,037	-119,202	0,129	0,016
-162,023	58,756	0,147	-0,104
-161,008	-200,000	0,012	-0,086
-159,993	-200,000	-0,007	0,096
-158,979	-48,828	-0,075	-0,026
-157,964	-200,000	-0,028	-0,129
-156,950	43,180	0,091	0,060
-155,935	800,000	-0,020	-0,050
-154,920	589,775	0,055	-0,098
-153,906	-44,394	0,049	0,018
-152,891	-200,000	-0,003	-0,105
-151,877	264,120	-0,041	0,051
-150,862	-115,000	-0,111	0,015
-149,847	39,661	0,058	0,038
-148,833	24,901	-0,086	-0,051
-147,818	224,413	0,118	-0,138
-146,804	269,625	0,029	0,037
-145,789	139,600	0,128	-0,121
-144,775	-100,744	0,030	-0,005
-143,760	549,067	0,041	0,070
-142,745	-200,000	0,000	-0,039
-141,731	800,000	-0,035	0,071
-140,716	800,000	0,018	0,053
-139,702	36,556	0,035	0,022
-138,687	-5,473	-0,063	0,031
-137,672	-200,000	0,001	-0,030
-136,658	-35,529	-0,040	-0,016
-135,643	-43,603	0,125	-0,045
-134,629	800,000	-0,026	0,060
-133,614	-11,713	0,171	-0,080
-132,599	69,547	-0,067	-0,050
-131,585	-92,663	0,122	0,024
-130,570	307,077	0,032	-0,043
-129,556	731,154	0,035	-0,068
-128,541	800,000	0,044	0,133
-127,526	654,784	-0,053	-0,098
-126,512	186,782	0,044	-0,047
-125,497	146,921	0,108	-0,104
-124,483	-86,188	-0,060	-0,013
-123,468	-200,000	0,016	-0,098
-122,453	693,358	0,043	0,081
-121,439	-200,000	-0,013	-0,058
-120,424	-200,000	0,022	-0,107
-119,410	-200,000	0,001	0,014
-118,395	-139,301	0,088	0,007
-117,380	-200,000	0,026	0,221
-116,366	94,664	-0,114	-0,093
-115,351	-71,466	0,089	0,024
-114,337	63,877	-0,176	-0,127
-113,322	-200,000	0,030	-0,136
-112,307	221,612	-0,104	-0,120
-111,293	800,000	-0,059	0,134
-110,278	-103,630	0,056	0,009
-109,264	93,885	0,046	0,038
-108,249	-200,000	-0,024	-0,170
-107,234	547,315	0,158	-0,273
-106,220	-172,792	-0,113	-0,002
-105,205	61,613	0,075	-0,053
-104,191	91,618	0,039	0,032
-103,176	800,000	0,007	0,018
-102,162	420,516	0,019	-0,030
-101,147	684,538	-0,051	-0,097
-100,132	-134,797	-0,125	-0,011
-99,118	-200,000	-0,006	-0,192
-98,103	-104,529	0,047	-0,008
-97,089	470,832	0,050	0,082
-96,074	584,544	-0,015	0,027
-95,059	64,768	-0,068	-0,049
-94,045	487,511	-0,023	-0,038
-93,030	-115,355	0,126	0,017
-92,016	341,940	-0,030	0,042
-91,001	250,767	0,033	0,041
-89,986	-200,000	0,013	0,148
-88,972	-200,000	-0,025	0,142
-87,957	1,967	0,051	0,026
-86,943	178,839	0,018	0,019
-85,928	745,089	-0,074	-0,145
-84,913	49,051	-0,055	-0,037
-83,899	90,351	0,035	-0,028
-82,884	800,000	-0,100	-0,300
-81,870	-105,821	-0,028	-0,005
-80,855	-71,631	-0,121	0,032
-79,840	-200,000	0,001	0,049
-78,826	40,833	-0,101	-0,065
-77,811	-200,000	-0,029	-0,128
-76,797	-200,000	-0,031	-0,112
-75,782	11,178	-0,073	-0,040
-74,767	179,763	-0,065	0,069
-73,753	189,116	-0,093	0,100
-72,738	-90,398	0,156	-0,032
-71,724	800,000	-0,023	-0,064
-70,709	39,566	0,084	0,054
-69,694	667,654	-0,017	-0,031
-68,680	-200,000	0,003	-0,016
-67,665	-200,000	-0,013	-0,064
-66,651	497,641	-0,017	0,028
-65,636	-14,387	-0,041	-0,019
-64,622	-200,000	-0,004	-0,037
-63,607	35,682	-0,131	-0,082
-62,592	49,554	-0,039	-0,027
-61,578	-96,055	-0,063	-0,012
-60,563	800,000	-0,007	-0,021
-59,549	-200,000	0,022	0,139
-58,534	83,612	-2,614	-2,045
-57,519	-24,461	0,346	-0,147
-56,505	-200,000	-1,655	-5,471
-55,490	507,312	1,172	1,959
-54,476	800,000	5,060	11,175
-53,461	-200,000	21,988	346,985
-52,446	800,000	759,774	2298,424
-51,432	515,473	1645,888	2769,756
-50,417	98,273	1610,239	1330,850
-49,403	66,209	1267,106	922,327
-48,388	23,352	1017,933	599,009
-47,373	19,295	985,113	566,290
-46,359	12,915	972,047	537,888
-45,344	8,706	968,969	522,370
-44,330	9,127	966,659	522,483
-43,315	8,093	965,079	518,229
-42,300	8,123	963,700	517,566
-41,286	8,066	962,916	516,939
-40,271	8,048	961,890	516,307
-39,257	8,107	960,917	515,957
-38,242	8,042	960,096	515,284
-37,227	8,070	959,368	514,963
-36,213	8,069	958,512	514,481
-35,198	8,077	957,532	513,962
-34,184	8,054	956,837	513,493
-33,169	8,051	956,054	513,041
-32,154	8,115	955,031	512,680
-31,140	8,071	954,207	512,076
-30,125	8,168	953,360	511,913
-29,111	8,107	952,400	511,180
-28,096	8,087	952,009	510,885
-27,082	8,127	951,271	510,599
-26,067	8,043	950,530	509,911
-25,052	8,053	949,808	509,534
-24,038	7,981	949,027	508,865
-23,023	8,047	948,266	508,647
-22,009	8,017	947,901	508,335
-20,994	8,066	947,137	508,062
-19,979	8,027	946,640	507,651
-18,965	7,972	945,907	507,061
-17,950	8,049	945,412	507,023
-16,936	7,956	944,432	506,180
-15,921	7,965	943,992	505,952
-14,906	7,960	943,156	505,469
-13,892	7,971	942,678	505,228
-12,877	7,944	942,161	504,844
-11,863	7,932	941,461	504,411
-10,848	7,945	940,946	504,155
-9,833	7,978	940,526	504,015
-8,819	8,032	939,742	503,746
-7,804	7,939	939,113	503,096
-6,790	7,968	938,504	502,841
-5,775	8,005	937,856	502,593
-4,760	7,979	937,425	502,259
-3,746	7,932	936,711	501,706
-2,731	7,826	935,846	500,886
-1,717	7,818	935,447	500,630
-0,702	7,765	934,767	500,079
0,313	7,572	934,135	499,883
1,327	11,006	931,834	509,438
2,342	19,670	780,304	449,317
3,356	14,592	448,522	250,593
4,371	-11,462	312,991	147,118
5,386	-15,050	295,361	135,185
6,400	-16,962	289,071	130,399
7,415	-17,415	286,477	128,772
8,429	-18,050	284,552	127,275
9,444	-18,216	283,623	126,687
10,459	-18,095	282,967	126,500
11,473	-18,402	282,614	126,034
12,488	-18,099	282,009	126,045
13,502	-18,084	281,461	125,804
14,517	-18,036	281,047	125,653
15,531	-18,139	280,551	125,322
16,546	-18,302	280,122	124,962
17,561	-18,301	279,873	124,841
18,575	-18,175	279,482	124,777
19,590	-17,919	278,920	124,759
20,604	-18,031	278,744	124,562
21,619	-18,232	278,304	124,162
22,634	-18,241	278,077	124,042
23,648	-18,434	277,790	123,719
24,663	-18,415	277,525	123,608
25,677	-18,130	277,246	123,744
26,692	-18,171	277,115	123,635
27,707	-18,186	276,715	123,431
28,721	-18,363	276,531	123,171
29,736	-18,128	275,994	123,142
30,750	-18,115	275,785	123,051
31,765	-18,196	275,664	122,909
32,780	-18,095	275,412	122,881
33,794	-18,121	275,063	122,690
34,809	-18,196	274,892	122,532
35,823	-18,229	274,599	122,359
36,838	-18,248	274,281	122,188
37,853	-18,099	273,992	122,189
38,867	-18,149	273,981	122,127
39,882	-18,191	273,642	121,925
40,896	-18,121	273,412	121,878
41,911	-18,198	273,261	121,728
42,926	-18,244	272,879	121,503
43,940	-18,120	272,545	121,459
44,955	-18,118	272,415	121,392
45,969	-18,160	272,117	121,210
46,984	-18,274	271,980	121,032
47,999	-17,975	271,758	121,200
49,013	-18,277	271,462	120,777
50,028	-18,155	271,272	120,795
51,042	-18,195	271,024	120,637
52,057	-18,206	270,818	120,524
53,071	-17,934	270,541	120,641
54,086	-18,077	270,520	120,489
55,101	-18,050	270,154	120,340
56,115	-17,946	269,952	120,336
57,130	-17,996	269,566	120,107
58,144	-17,941	269,377	120,062
59,159	-18,134	269,242	119,814
60,174	-18,074	269,016	119,758
61,188	-18,117	268,795	119,609
62,203	-18,209	268,570	119,414
63,217	-18,133	268,233	119,324
64,232	-18,251	268,101	119,145
65,247	-18,168	267,850	119,099
66,261	-18,191	267,503	118,914
67,276	-18,080	267,252	118,893
68,290	-18,207	267,160	118,725
69,305	-18,121	267,022	118,732
70,320	-18,090	266,769	118,637
71,334	-18,115	266,540	118,502
72,349	-18,013	266,227	118,445
73,363	-18,019	265,921	118,292
74,378	-17,939	265,768	118,287
75,393	-18,204	265,566	117,946
76,407	-18,084	265,372	117,958
77,422	-18,164	265,238	117,815
78,436	-17,799	264,621	117,860
79,451	-18,075	264,510	117,551
80,466	-18,100	264,330	117,439
81,480	-18,113	264,216	117,366
82,495	-18,023	264,031	117,354
83,509	-18,005	263,737	117,229
84,524	-18,077	263,505	117,051
85,539	-17,973	263,390	117,083
86,553	-18,093	263,090	116,831
87,568	-18,010	263,013	116,861
88,582	-17,953	262,573	116,706
89,597	-18,122	262,449	116,489
90,611	-17,882	262,252	116,606
91,626	-17,982	262,127	116,451
92,641	-18,081	261,752	116,186
93,655	-18,132	261,676	116,096
94,670	-17,977	261,295	116,055
95,684	-18,165	261,388	115,918
96,699	-17,805	260,948	116,032
97,714	-18,088	260,805	115,707
98,728	-17,973	260,619	115,716
99,743	-17,947	260,687	115,760
100,757	-18,016	260,296	115,515
101,772	-18,133	260,137	115,330
102,787	-18,031	259,818	115,269
103,801	-18,082	259,626	115,128
104,816	-18,092	259,465	115,037
105,830	-18,069	259,316	114,981
106,845	-18,027	259,062	114,895
107,860	-18,123	258,954	114,752
108,874	-18,073	258,536	114,601
109,889	-17,973	258,284	114,568
110,903	-18,057	258,262	114,474
111,918	-18,064	257,956	114,321
112,933	-18,085	257,709	114,184
113,947	-18,064	257,587	114,138
114,962	-18,267	257,478	113,901
115,976	-18,099	257,252	113,938
116,991	-18,054	256,869	113,798
118,006	-18,090	256,801	113,726
119,020	-17,934	256,631	113,777
120,035	-17,921	256,408	113,679
121,049	-17,724	256,055	113,684
122,064	-17,907	255,985	113,483
123,079	-18,072	255,888	113,287
124,093	-17,918	255,644	113,303
125,108	-17,920	255,371	113,170
126,122	-17,951	255,388	113,140
127,137	-17,760	254,827	113,047
128,151	-17,792	254,788	112,992
129,166	-17,975	254,660	112,766
130,181	-18,106	254,521	112,582
131,195	-18,145	254,263	112,424
132,210	-17,929	254,029	112,497
133,224	-17,969	253,818	112,359
134,239	-18,144	253,686	112,139
135,254	-17,980	253,412	112,150
136,268	-17,880	253,282	112,168
137,283	-17,824	253,191	112,165
138,297	-17,898	252,859	111,945
139,312	-18,017	252,650	111,740
140,327	-17,995	252,480	111,675
141,341	-17,779	252,222	111,735
142,356	-17,996	252,247	111,550
143,370	-18,046	251,999	111,388
144,385	-17,792	251,719	111,471
145,400	-18,012	251,486	111,171
146,414	-17,946	251,393	111,175
147,429	-17,938	251,043	111,018
148,443	-17,952	251,003	110,978
149,458	-17,916	250,798	110,908
150,473	-17,940	250,629	110,803
151,487	-17,940	250,452	110,715
152,502	-17,956	250,292	110,622
153,516	-17,849	249,872	110,517
154,531	-17,882	249,759	110,428
155,546	-17,982	249,617	110,271
156,560	-18,004	249,438	110,164
157,575	-17,865	249,257	110,191
158,589	-17,833	249,091	110,135
159,604	-17,978	248,792	109,871
160,619	-17,807	248,707	109,968
161,633	-17,943	248,505	109,754
162,648	-17,925	248,504	109,759
163,662	-17,756	248,199	109,756
164,677	-17,797	248,097	109,667
165,692	-17,782	247,825	109,550
166,706	-17,642	247,627	109,570
167,721	-17,782	247,361	109,325
168,735	-17,962	247,344	109,158
169,750	-17,877	247,222	109,165
170,764	-17,890	247,004	109,048
171,779	-17,961	246,937	108,950
172,794	-17,850	246,731	108,941
173,808	-17,741	246,580	108,956
174,823	-17,992	246,389	108,653
175,837	-17,922	246,289	108,657
176,852	-18,035	246,153	108,494
177,867	-18,100	245,880	108,309
178,881	-17,831	245,729	108,457
179,896	-17,728	245,467	108,417
180,910	-17,881	245,361	108,234
181,925	-17,980	245,205	108,073
182,940	-17,981	245,099	108,015
183,954	-17,983	244,799	107,872
184,969	-17,897	244,726	107,902
185,983	-17,801	244,527	107,883
186,998	-17,789	244,408	107,832
188,013	-17,905	244,052	107,569
189,027	-17,880	243,897	107,512
190,042	-18,016	243,853	107,371
191,056	-17,765	243,507	107,415
192,071	-17,790	243,468	107,368
193,086	-17,846	243,310	107,243
194,100	-17,809	243,081	107,162
195,115	-17,613	242,725	107,157
196,129	-17,856	242,668	106,923
197,144	-17,725	242,338	106,875
198,159	-17,923	242,206	106,645
199,173	-17,898	242,203	106,655
200,188	-17,789	241,902	106,602
201,202	-17,857	241,767	106,477
202,217	-17,674	241,542	106,518
203,232	-17,823	241,492	106,365
204,246	-17,771	241,054	106,205
205,261	-17,667	241,035	106,271
206,275	-15,774	241,634	108,068
207,290	-11,090	243,425	112,700
208,304	-5,087	245,161	118,439
209,319	-3,212	245,665	120,217
210,334	-2,816	245,788	120,592
211,348	-1,628	245,748	121,541
212,363	-1,198	245,915	121,966
213,377	-0,572	246,080	122,553
214,392	0,002	246,228	123,088
215,407	0,522	246,109	123,446
216,421	0,452	245,916	123,280
217,436	0,678	245,738	123,365
218,450	0,523	245,602	123,159
219,465	0,697	245,436	123,208
220,480	0,582	245,291	123,029
221,494	0,483	245,060	122,821
222,509	0,311	244,774	122,527
223,523	0,121	244,628	122,288
224,538	0,027	244,545	122,158
225,553	0,194	244,187	122,105
226,567	0,195	244,012	122,007
227,582	0,020	243,995	121,845
228,596	0,117	243,677	121,754
229,611	0,136	243,495	121,668
230,626	-0,111	243,564	121,491
231,640	0,043	243,107	121,377
232,655	0,029	243,049	121,326
233,669	0,141	242,864	121,313
234,684	-0,023	242,841	121,158
235,699	-0,072	242,647	121,011
236,713	0,129	242,431	121,055
237,728	0,038	242,303	120,907
238,742	0,219	242,040	120,911
239,757	0,124	242,052	120,830
240,772	0,015	241,838	120,624
241,786	-0,006	241,647	120,501
242,801	0,033	241,554	120,475
243,815	0,002	241,384	120,355
244,830	0,002	241,332	120,319
245,844	0,107	240,940	120,196
246,859	0,082	240,934	120,163
247,874	0,038	240,689	119,994
248,888	0,014	240,615	119,927
249,903	0,050	240,547	119,911
250,917	0,138	240,282	119,839
251,932	0,415	240,070	119,944
252,947	0,174	240,051	119,732
253,961	0,241	239,838	119,669
254,976	0,101	239,571	119,412
255,990	0,065	239,432	119,304
257,005	0,132	239,312	119,287
258,020	-0,077	239,299	119,103
259,034	0,180	239,007	119,152
260,049	0,019	238,936	118,978
261,063	0,020	238,806	118,903
262,078	-0,071	238,685	118,760
263,093	0,024	238,350	118,658
264,107	0,128	238,139	118,625
265,122	0,265	238,165	118,736
266,136	0,062	238,081	118,522
267,151	0,081	237,759	118,367
268,166	0,270	237,669	118,461
269,180	0,096	237,416	118,187
270,195	-0,029	237,340	118,040
271,209	0,210	237,178	118,137
272,224	0,101	237,078	117,991
273,239	0,192	236,859	117,944
274,253	0,280	236,617	117,881
275,268	0,166	236,447	117,696
276,282	-0,063	236,436	117,500
277,297	-0,009	236,317	117,473
278,312	0,006	236,126	117,379
279,326	0,100	235,999	117,380
280,341	0,333	235,772	117,439
281,355	0,259	235,640	117,305
282,370	0,225	235,550	117,223
283,384	-0,000	235,347	116,935
284,399	-0,027	235,225	116,843
285,414	0,265	234,852	116,876
286,428	0,162	234,936	116,826
287,443	-0,050	234,896	116,631
288,457	0,127	234,694	116,658
289,472	0,177	234,429	116,555
290,487	0,213	234,259	116,488
291,501	0,281	234,196	116,499
292,516	0,262	234,151	116,452
293,530	0,084	233,994	116,225
294,545	0,299	233,782	116,277
295,560	0,078	233,560	115,984
296,574	0,385	233,278	116,071
297,589	0,339	233,254	116,013
298,603	0,166	233,251	115,867
299,618	0,128	232,959	115,683
300,633	0,262	232,775	115,685
301,647	0,292	232,673	115,647
302,662	0,364	232,691	115,700
303,676	0,315	232,335	115,476
304,691	0,391	232,213	115,464
305,706	0,431	232,164	115,460
306,720	0,363	232,018	115,325
307,735	0,431	231,839	115,277
308,749	0,369	231,701	115,151
309,764	0,435	231,495	115,089
310,779	0,390	231,406	115,000
311,793	0,413	231,370	114,989
312,808	0,448	231,185	114,914
313,822	0,405	230,910	114,734
314,837	0,458	230,795	114,707
315,852	0,372	230,616	114,542
316,866	0,376	230,592	114,523
317,881	0,435	230,266	114,396
318,895	0,424	230,351	114,420
319,910	0,496	230,105	114,343
320,925	0,372	229,842	114,107
321,939	0,509	229,748	114,155
322,954	0,547	229,642	114,121
323,968	0,589	229,471	114,057
324,983	0,393	229,408	113,867
325,997	0,487	229,246	113,848
327,012	0,302	229,183	113,666
328,027	0,504	228,959	113,698
329,041	0,634	228,952	113,783
330,056	0,387	228,598	113,410
331,070	0,500	228,490	113,431
332,085	0,552	228,299	113,366
333,100	0,532	228,057	113,220
334,114	0,417	227,957	113,074
335,129	0,430	227,900	113,045
336,143	0,431	227,775	112,973
337,158	0,463	227,565	112,884
338,173	0,575	227,542	112,946
339,187	0,577	227,350	112,843
340,202	0,632	227,055	112,728
341,216	0,472	227,069	112,604
342,231	0,340	226,924	112,423
343,246	0,505	226,626	112,389
344,260	0,679	226,578	112,486
345,275	0,594	226,480	112,364
346,289	0,705	226,336	112,365
347,304	0,632	226,133	112,200
348,319	0,488	225,997	112,015
349,333	0,692	225,728	112,024
350,348	0,612	225,672	111,926
351,362	0,658	225,556	111,892
352,377	0,625	225,517	111,839
353,392	0,626	225,355	111,749
354,406	0,564	225,131	111,583
355,421	192,553	1311,998	1379,061
356,435	154,250	1444,258	1378,911
