DTS Sentinel unit serial number:	SN410029Multiplexer serial number:	ORYXHardware model number:	OX2-SRSoftware version number:	ORYX F/W v4,00 Oryx Data Collector v3.7.2.0data status	okinstallation	B5 Nyhavnadifferential loss correction	single-endedforward channel	channel 2reverse channel	N/Adate	2023/12/14time	13:02:13forward acquisition time	300,00reverse acquisition time	0,00gamma	499,1914k internal	0,3157k external	0,3157temperature offset calibration	1,0000default loss term (dB/km)	0,3820temperature slope calibration	1,0000multiplexer offset coefficient	1,0000multiplexer slope coefficient	1,0000fibre end	0,00T internal ref (°C)	8,01T ext. ref 1 (°C)	-7,67T ext. ref 2 (°C)	-7,73length (m)	temperature (°C)	Stokes	anti-Stokes-744,400	-49,318	0,292	0,102
-743,385	-200,000	-0,394	-0,001
-742,371	33,981	0,162	0,104
-741,356	-94,564	-0,435	-0,087
-740,342	-66,366	0,149	0,043
-739,327	-46,319	-0,334	-0,120
-738,312	-200,000	0,004	0,033
-737,298	-160,849	-0,421	-0,016
-736,283	28,542	0,156	0,097
-735,269	-47,910	-0,244	0,087
-734,254	76,127	0,156	0,122
-733,239	-24,872	-0,522	-0,227
-732,225	54,379	0,217	0,154
-731,210	206,852	-0,063	0,072
-730,196	179,651	-0,036	-0,039
-729,181	210,926	-0,031	-0,036
-728,167	373,553	-0,091	-0,136
-727,152	-106,143	-0,048	0,008
-726,137	188,012	-0,124	-0,137
-725,123	423,787	-0,020	0,032
-724,108	59,411	-0,112	-0,081
-723,094	651,172	-0,163	-0,308
-722,079	-103,158	-0,130	0,022
-721,064	-200,000	0,032	-0,131
-720,050	800,000	0,017	-0,042
-719,035	360,871	-0,065	0,096
-718,021	-11,010	-0,055	0,027
-717,006	-112,163	-0,190	0,028
-715,991	800,000	-0,026	-0,056
-714,977	800,000	0,027	-0,058
-713,962	234,141	0,130	0,158
-712,948	-5,335	-0,121	-0,061
-711,933	113,040	0,042	-0,037
-710,918	561,178	0,062	-0,111
-709,904	-172,249	-0,082	0,002
-708,889	-200,000	-0,018	-0,126
-707,875	32,391	-0,086	0,054
-706,860	-200,000	-0,014	0,124
-705,845	708,546	-0,010	-0,019
-704,831	800,000	0,057	-0,131
-703,816	800,000	-0,015	-0,040
-702,802	-200,000	-0,022	-0,074
-701,787	-55,549	-0,074	0,024
-700,772	800,000	0,027	0,087
-699,758	-71,219	-0,155	0,042
-698,743	-60,366	0,163	0,051
-697,729	-200,000	-0,005	0,117
-696,714	299,950	0,089	0,121
-695,699	31,678	-0,088	0,056
-694,685	800,000	-0,024	-0,070
-693,670	-89,037	-0,138	0,030
-692,656	-40,271	0,060	0,023
-691,641	-200,000	-0,013	0,081
-690,627	-200,000	-0,001	0,017
-689,612	150,429	0,057	0,057
-688,597	184,013	-0,058	-0,064
-687,583	-151,740	-0,133	0,007
-686,568	284,831	-0,039	-0,052
-685,554	-200,000	-0,020	0,108
-684,539	800,000	0,045	-0,099
-683,524	-94,220	0,129	-0,026
-682,510	238,276	-0,038	-0,047
-681,495	-82,884	-0,082	0,019
-680,481	-72,196	0,204	-0,055
-679,466	800,000	-0,059	-0,183
-678,451	271,321	0,017	-0,022
-677,437	800,000	-0,015	0,036
-676,422	-45,141	-0,034	0,012
-675,408	-113,386	-0,100	0,014
-674,393	-51,586	0,094	-0,032
-673,378	87,295	-0,048	0,039
-672,364	435,064	-0,026	0,042
-671,349	-39,076	0,067	0,026
-670,335	683,056	0,039	0,075
-669,320	800,000	-0,092	0,211
-668,305	69,953	0,125	-0,095
-667,291	558,863	-0,098	-0,174
-666,276	111,684	0,060	-0,054
-665,262	281,960	-0,118	-0,155
-664,247	800,000	0,027	-0,071
-663,232	1,304	-0,036	-0,019
-662,218	-146,612	0,036	-0,002
-661,203	39,226	0,101	0,066
-660,189	-200,000	-0,016	-0,078
-659,174	229,232	0,104	-0,125
-658,159	-88,327	0,115	-0,025
-657,145	93,746	-0,118	-0,098
-656,130	-53,267	0,138	0,046
-655,116	-200,000	-0,004	0,136
-654,101	45,483	-0,053	0,036
-653,086	-9,394	0,070	0,034
-652,072	230,101	-0,103	0,124
-651,057	-200,000	0,036	-0,137
-650,043	800,000	-0,044	-0,101
-649,028	-72,683	-0,053	0,014
-648,014	30,887	0,053	-0,034
-646,999	126,347	0,115	0,107
-645,984	9,666	-0,074	-0,041
-644,970	800,000	-0,059	0,153
-643,955	33,472	-0,030	-0,019
-642,941	440,914	-0,083	0,134
-641,926	68,745	-0,025	-0,019
-640,911	106,173	0,132	-0,115
-639,897	360,319	0,059	-0,088
-638,882	-200,000	0,001	-0,012
-637,868	-100,736	0,115	0,021
-636,853	150,902	-0,093	-0,093
-635,838	-93,593	0,044	0,009
-634,824	-44,543	0,007	-0,003
-633,809	-123,178	-0,089	0,010
-632,795	-96,897	0,052	-0,010
-631,780	-9,080	-0,122	0,060
-630,765	800,000	0,036	-0,106
-629,751	-54,779	-0,093	-0,031
-628,736	98,598	0,051	-0,043
-627,722	800,000	-0,047	-0,149
-626,707	-200,000	-0,018	-0,067
-625,692	-200,000	-0,000	-0,005
-624,678	193,007	0,020	0,023
-623,663	232,271	-0,134	0,162
-622,649	-200,000	0,044	-0,163
-621,634	364,090	-0,054	-0,080
-620,619	-35,366	-0,096	0,038
-619,605	-32,031	0,035	-0,014
-618,590	235,672	0,061	-0,074
-617,576	800,000	-0,046	0,110
-616,561	158,167	0,027	-0,028
-615,546	8,352	0,093	-0,051
-614,532	214,170	0,020	-0,023
-613,517	-65,053	0,031	0,009
-612,503	80,824	0,156	-0,123
-611,488	21,114	-0,057	-0,034
-610,474	553,556	-0,044	-0,078
-609,459	-161,698	-0,245	0,009
-608,444	800,000	-0,057	-0,182
-607,430	800,000	-0,026	0,071
-606,415	424,552	-0,030	0,047
-605,401	-200,000	0,006	-0,134
-604,386	-13,767	-0,142	0,067
-603,371	-117,893	0,027	0,003
-602,357	226,462	0,013	-0,015
-601,342	-91,370	-0,170	0,035
-600,328	10,772	-0,070	-0,039
-599,313	539,385	0,081	-0,142
-598,298	-47,159	0,047	0,017
-597,284	-137,096	-0,123	-0,010
-596,269	-159,628	0,088	0,004
-595,255	47,039	-0,129	0,087
-594,240	-13,986	-0,136	-0,064
-593,225	-74,194	-0,116	-0,031
-592,211	563,336	0,042	-0,074
-591,196	-106,627	-0,076	0,012
-590,182	80,353	0,043	-0,034
-589,167	800,000	-0,030	-0,096
-588,152	391,966	-0,051	-0,078
-587,138	-18,991	-0,108	-0,049
-586,123	800,000	-0,032	-0,090
-585,109	-157,982	-0,124	-0,005
-584,094	800,000	0,021	-0,046
-583,079	204,707	0,091	-0,104
-582,065	800,000	0,018	0,050
-581,050	-200,000	0,011	0,141
-580,036	-106,112	0,091	0,015
-579,021	335,825	0,032	-0,046
-578,006	-200,000	-0,019	-0,144
-576,992	323,819	-0,055	-0,077
-575,977	-200,000	0,044	0,162
-574,963	35,114	0,013	0,008
-573,948	4,043	-0,127	-0,068
-572,934	57,324	-0,005	-0,004
-571,919	111,189	0,001	-0,001
-570,904	86,699	-0,117	-0,094
-569,890	-67,136	-0,048	0,014
-568,875	-121,206	0,114	-0,014
-567,861	125,080	0,021	0,020
-566,846	4,318	0,087	0,047
-565,831	154,512	0,085	0,086
-564,817	90,533	-0,113	-0,093
-563,802	47,162	0,088	-0,060
-562,788	-167,595	-0,076	0,002
-561,773	-111,437	0,151	-0,022
-560,758	575,230	0,032	0,057
-559,744	-34,037	0,079	0,032
-558,729	345,904	-0,046	-0,067
-557,715	75,358	-0,113	-0,088
-556,700	-200,000	-0,010	0,047
-555,685	157,461	0,075	-0,076
-554,671	-142,169	0,130	-0,009
-553,656	169,251	0,097	0,101
-552,642	-86,561	-0,126	0,028
-551,627	800,000	0,007	-0,015
-550,612	64,608	-0,106	-0,078
-549,598	532,733	-0,015	0,027
-548,583	-200,000	0,020	-0,098
-547,569	800,000	0,013	-0,037
-546,554	-129,345	0,145	0,015
-545,539	-200,000	-0,000	0,031
-544,525	352,671	0,036	0,053
-543,510	13,644	-0,155	-0,088
-542,496	22,145	-0,037	-0,022
-541,481	218,009	-0,091	-0,107
-540,466	800,000	-0,079	-0,231
-539,452	87,474	0,088	0,071
-538,437	-161,216	-0,061	0,002
-537,423	-200,000	0,077	-0,000
-536,408	-166,389	-0,114	-0,003
-535,393	-155,086	-0,068	0,003
-534,379	-200,000	0,079	0,000
-533,364	282,415	0,037	0,049
-532,350	639,359	0,016	-0,031
-531,335	60,783	0,099	-0,072
-530,321	-164,896	0,117	-0,004
-529,306	120,529	0,022	-0,020
-528,291	-84,229	0,076	-0,017
-527,277	137,282	-0,072	-0,069
-526,262	392,591	0,045	-0,069
-525,248	-99,283	0,075	-0,014
-524,233	-200,000	-0,005	-0,028
-523,218	513,113	0,049	0,084
-522,204	-200,000	-0,011	0,064
-521,189	212,391	-0,134	-0,154
-520,175	-40,110	-0,052	-0,020
-519,160	-200,000	0,000	-0,064
-518,145	271,286	0,085	0,109
-517,131	174,205	-0,012	-0,012
-516,116	563,322	-0,087	0,154
-515,102	-87,561	0,122	0,027
-514,087	-200,000	0,008	-0,127
-513,072	-200,000	0,013	-0,043
-512,058	-111,326	0,032	0,005
-511,043	228,425	-0,050	0,059
-510,029	116,500	0,164	0,147
-509,014	-200,000	0,012	-0,050
-507,999	-161,842	0,128	0,005
-506,985	632,705	0,023	-0,043
-505,970	87,987	0,017	-0,013
-504,956	-20,282	-0,135	-0,061
-503,941	-200,000	0,011	-0,042
-502,926	535,232	0,067	0,117
-501,912	800,000	0,063	0,145
-500,897	90,988	-0,031	0,026
-499,883	395,650	-0,028	0,043
-498,868	-200,000	0,031	0,129
-497,853	800,000	0,008	-0,018
-496,839	-200,000	0,022	0,084
-495,824	447,995	0,030	-0,048
-494,810	194,531	-0,014	0,016
-493,795	-89,268	-0,061	0,013
-492,781	-200,000	0,004	-0,074
-491,766	37,782	0,096	-0,062
-490,751	626,321	-0,006	-0,011
-489,737	199,358	0,053	-0,059
-488,722	511,044	0,034	0,059
-487,708	119,322	0,040	-0,036
-486,693	43,002	0,062	0,041
-485,678	38,943	0,074	0,048
-484,664	512,327	-0,080	-0,137
-483,649	800,000	-0,044	-0,096
-482,635	-119,337	-0,098	0,012
-481,620	800,000	0,047	0,108
-480,605	800,000	0,024	0,067
-479,591	-30,021	0,082	-0,034
-478,576	-133,024	-0,092	0,008
-477,562	200,035	-0,094	-0,105
-476,547	181,390	0,014	0,015
-475,532	-200,000	-0,008	0,059
-474,518	423,070	-0,066	0,104
-473,503	800,000	-0,023	0,069
-472,489	57,351	0,121	0,086
-471,474	800,000	-0,086	0,225
-470,459	-200,000	-0,031	0,126
-469,445	800,000	-0,046	-0,144
-468,430	7,765	0,121	0,066
-467,416	800,000	-0,032	-0,104
-466,401	216,055	-0,058	0,067
-465,386	-50,777	0,022	0,007
-464,372	-200,000	0,002	0,067
-463,357	800,000	-0,021	-0,060
-462,343	294,697	0,019	0,026
-461,328	622,652	0,053	-0,097
-460,313	-2,541	-0,085	0,043
-459,299	-168,479	0,224	-0,006
-458,284	-10,180	0,032	0,016
-457,270	-145,055	-0,098	0,006
-456,255	-84,608	-0,014	-0,003
-455,241	800,000	0,033	0,076
-454,226	-200,000	-0,026	-0,089
-453,211	290,387	0,025	-0,034
-452,197	-78,948	-0,041	0,010
-451,182	-34,720	0,075	0,030
-450,168	800,000	-0,017	-0,041
-449,153	-200,000	0,002	0,078
-448,138	-200,000	-0,001	-0,096
-447,124	-64,456	-0,144	-0,043
-446,109	79,688	0,115	-0,090
-445,095	133,161	0,090	0,085
-444,080	-200,000	0,018	-0,073
-443,065	800,000	-0,047	-0,097
-442,051	-157,013	0,110	-0,005
-441,036	166,996	-0,033	-0,034
-440,022	-200,000	-0,014	0,098
-439,007	-200,000	-0,023	-0,088
-437,992	-92,698	-0,202	-0,041
-436,978	-81,167	-0,073	0,018
-435,963	-6,549	-0,079	0,039
-434,949	614,759	0,017	-0,032
-433,934	-200,000	-0,009	-0,124
-432,919	-37,269	-0,097	-0,038
-431,905	-73,261	-0,103	-0,027
-430,890	-60,158	0,040	-0,012
-429,876	-200,000	-0,022	0,106
-428,861	-110,206	0,244	0,037
-427,846	800,000	-0,050	0,137
-426,832	28,805	-0,097	0,060
-425,817	-131,298	-0,115	-0,011
-424,803	12,283	0,091	-0,051
-423,788	-35,906	0,154	0,060
-422,773	800,000	0,029	0,075
-421,759	-96,535	0,177	0,034
-420,744	20,703	-0,060	0,035
-419,730	551,604	0,061	-0,108
-418,715	68,221	-0,110	-0,082
-417,701	234,669	0,028	0,034
-416,686	210,784	0,098	-0,113
-415,671	-200,000	0,003	0,025
-414,657	-200,000	0,026	0,088
-413,642	-150,634	-0,212	-0,012
-412,628	-33,570	0,071	-0,028
-411,613	800,000	-0,032	0,066
-410,598	-48,029	-0,174	-0,061
-409,584	800,000	0,051	-0,118
-408,569	-200,000	0,055	-0,183
-407,555	271,769	0,094	0,121
-406,540	351,207	0,059	0,086
-405,525	290,638	0,019	0,025
-404,511	9,273	-0,119	-0,066
-403,496	-104,069	-0,050	-0,008
-402,482	-200,000	0,004	0,060
-401,467	-200,000	0,037	0,209
-400,452	800,000	0,028	-0,090
-399,438	-31,268	-0,049	0,020
-398,423	537,299	-0,062	-0,107
-397,409	-142,072	0,066	-0,005
-396,394	-50,902	0,063	-0,022
-395,379	-6,223	0,042	-0,021
-394,365	342,130	-0,055	-0,079
-393,350	149,416	0,031	0,030
-392,336	-43,134	-0,138	0,051
-391,321	85,435	0,101	0,080
-390,306	-200,000	-0,011	-0,040
-389,292	271,610	0,043	-0,055
-388,277	-70,553	-0,086	-0,024
-387,263	-45,764	0,140	-0,050
-386,248	-53,560	0,121	0,040
-385,233	-200,000	0,004	-0,108
-384,219	432,672	0,038	0,061
-383,204	83,946	-0,120	0,096
-382,190	38,315	-0,108	-0,070
-381,175	800,000	-0,040	-0,105
-380,160	-56,942	0,258	0,082
-379,146	-143,724	-0,138	0,009
-378,131	65,537	0,155	0,114
-377,117	51,399	-0,069	0,048
-376,102	-200,000	-0,032	0,126
-375,088	157,452	0,079	0,079
-374,073	-200,000	0,005	0,100
-373,058	-91,428	0,024	0,005
-372,044	-140,669	0,130	0,010
-371,029	800,000	0,034	-0,096
-370,015	109,537	-0,045	0,039
-369,000	-117,738	0,052	-0,007
-367,985	114,230	-0,143	-0,127
-366,971	192,605	0,027	0,030
-365,956	-104,720	-0,097	0,016
-364,942	800,000	0,008	0,024
-363,927	-200,000	-0,001	0,015
-362,912	143,377	-0,079	-0,077
-361,898	46,671	-0,043	-0,029
-360,883	-200,000	0,003	-0,042
-359,869	-200,000	-0,001	0,053
-358,854	-143,149	-0,045	0,003
-357,839	-84,012	0,084	0,019
-356,825	28,943	0,102	0,063
-355,810	190,894	0,040	-0,044
-354,796	277,380	0,032	-0,041
-353,781	323,577	0,059	0,082
-352,766	322,409	-0,035	-0,049
-351,752	-101,567	0,035	-0,006
-350,737	-37,880	0,011	0,004
-349,723	800,000	0,033	0,067
-348,708	800,000	-0,007	0,014
-347,693	677,394	0,037	-0,071
-346,679	-154,489	-0,028	-0,001
-345,664	-46,289	-0,064	-0,023
-344,650	-34,080	-0,066	-0,026
-343,635	-200,000	-0,011	0,085
-342,620	359,868	0,047	0,069
-341,606	99,774	0,088	-0,074
-340,591	323,151	-0,109	0,151
-339,577	-8,044	-0,146	0,071
-338,562	-3,164	0,031	0,016
-337,548	-118,185	0,070	0,009
-336,533	-200,000	0,038	-0,135
-335,518	-200,000	-0,006	0,086
-334,504	20,855	-0,095	0,056
-333,489	-79,089	-0,065	-0,016
-332,475	21,573	0,086	0,051
-331,460	527,095	-0,039	0,067
-330,445	-62,529	-0,102	0,031
-329,431	800,000	0,053	0,117
-328,416	261,490	-0,039	0,050
-327,402	116,950	0,060	-0,054
-326,387	-200,000	0,012	0,074
-325,372	-173,845	-0,081	-0,002
-324,358	-22,922	-0,103	-0,045
-323,343	-55,210	0,134	0,043
-322,329	-135,065	0,056	0,005
-321,314	333,900	0,082	0,115
-320,299	-19,323	0,092	0,041
-319,285	-110,388	0,049	0,007
-318,270	-200,000	0,023	-0,075
-317,256	46,438	0,155	-0,104
-316,241	-56,498	0,058	0,018
-315,226	236,697	0,130	0,157
-314,212	-200,000	-0,012	-0,145
-313,197	57,670	0,138	0,098
-312,183	211,283	-0,041	0,046
-311,168	-199,490	-0,184	0,001
-310,153	274,886	0,025	0,032
-309,139	220,808	-0,046	-0,053
-308,124	-53,375	0,111	-0,037
-307,110	435,049	0,097	0,154
-306,095	345,733	0,068	0,097
-305,080	1,343	-0,136	0,070
-304,066	-200,000	-0,014	-0,144
-303,051	-46,277	0,035	0,013
-302,037	560,938	-0,120	-0,211
-301,022	263,783	0,025	-0,031
-300,008	800,000	0,039	0,098
-298,993	800,000	-0,047	-0,109
-297,978	-79,633	-0,147	-0,036
-296,964	-200,000	0,014	-0,061
-295,949	757,083	-0,070	-0,138
-294,935	-77,249	0,144	-0,036
-293,920	800,000	-0,011	-0,036
-292,905	321,978	0,077	0,106
-291,891	32,026	0,105	0,065
-290,876	-113,662	-0,100	-0,014
-289,862	145,682	-0,093	-0,090
-288,847	800,000	-0,010	-0,027
-287,832	-182,112	0,084	-0,001
-286,818	-134,022	0,045	0,004
-285,803	181,154	-0,019	0,020
-284,789	-110,341	-0,026	-0,004
-283,774	90,164	-0,044	-0,036
-282,759	-39,618	0,142	0,054
-281,745	-200,000	-0,010	0,045
-280,730	-200,000	-0,006	0,099
-279,716	-155,388	-0,041	0,002
-278,701	22,139	-0,098	0,058
-277,686	746,130	0,019	-0,037
-276,672	800,000	-0,040	0,109
-275,657	-98,483	0,059	-0,011
-274,643	47,315	-0,041	0,028
-273,628	-200,000	-0,006	-0,075
-272,613	-200,000	-0,004	0,185
-271,599	-200,000	-0,032	0,185
-270,584	223,139	0,067	0,079
-269,570	800,000	0,059	0,181
-268,555	89,097	-0,097	0,078
-267,540	-200,000	0,005	-0,028
-266,526	-158,781	0,025	0,001
-265,511	144,803	0,152	-0,147
-264,497	-200,000	-0,043	0,175
-263,482	747,809	0,053	0,104
-262,467	530,527	0,044	0,076
-261,453	246,299	-0,069	-0,084
-260,438	57,212	-0,113	-0,080
-259,424	0,468	0,058	0,030
-258,409	685,451	0,019	-0,036
-257,395	349,306	0,064	-0,092
-256,380	-200,000	0,004	0,092
-255,365	-200,000	-0,012	0,044
-254,351	88,312	0,021	0,017
-253,336	183,111	-0,113	0,120
-252,322	-10,984	-0,081	-0,039
-251,307	-57,200	-0,086	0,027
-250,292	-200,000	-0,019	0,097
-249,278	-43,961	0,114	-0,041
-248,263	-200,000	-0,004	0,018
-247,249	-200,000	-0,037	0,124
-246,234	-32,381	-0,093	-0,037
-245,219	277,296	-0,038	-0,049
-244,205	79,223	-0,119	-0,092
-243,190	-130,075	-0,038	0,004
-242,176	-43,642	-0,029	-0,010
-241,161	800,000	0,045	0,115
-240,146	-74,906	-0,029	0,007
-239,132	800,000	-0,021	0,046
-238,117	453,994	-0,056	-0,091
-237,103	697,725	-0,059	-0,113
-236,088	800,000	-0,058	-0,130
-235,073	-45,102	0,176	0,063
-234,059	-200,000	-0,012	0,109
-233,044	28,382	-0,055	-0,034
-232,030	362,281	-0,086	0,124
-231,015	800,000	-0,006	-0,012
-230,000	119,075	-0,119	-0,106
-228,986	67,534	0,073	0,054
-227,971	-37,314	0,181	-0,069
-226,957	225,824	-0,064	0,075
-225,942	800,000	0,028	0,060
-224,927	-200,000	-0,001	-0,026
-223,913	277,030	0,005	0,006
-222,898	-200,000	-0,020	0,098
-221,884	-6,615	-0,064	-0,031
-220,869	-200,000	0,009	0,046
-219,855	-0,233	0,074	0,038
-218,840	-200,000	0,022	0,106
-217,825	-111,207	0,086	-0,013
-216,811	529,770	-0,067	-0,115
-215,796	318,246	0,061	-0,083
-214,782	-200,000	-0,020	-0,102
-213,767	30,430	0,155	-0,096
-212,752	83,710	0,046	-0,036
-211,738	-200,000	0,029	0,118
-210,723	72,384	-0,098	0,073
-209,709	671,056	-0,022	-0,041
-208,694	113,515	0,021	-0,019
-207,679	-200,000	0,005	-0,037
-206,665	44,859	-0,040	0,026
-205,650	-88,173	-0,058	0,012
-204,636	481,783	0,063	0,103
-203,621	64,514	-0,147	0,107
-202,606	-57,721	0,093	-0,029
-201,592	-200,000	0,021	-0,114
-200,577	-200,000	0,012	0,123
-199,563	-55,726	0,065	-0,021
-198,548	217,493	-0,023	-0,026
-197,533	178,028	0,099	0,104
-196,519	-169,367	0,065	0,002
-195,504	-200,000	0,022	-0,144
-194,490	-200,000	-0,013	-0,058
-193,475	-138,504	-0,090	0,007
-192,460	-114,065	0,058	0,008
-191,446	-130,541	0,158	-0,015
-190,431	-190,550	-0,091	-0,001
-189,417	-24,679	0,049	-0,021
-188,402	-143,716	-0,015	-0,001
-187,387	-200,000	-0,008	0,119
-186,373	32,591	-0,032	0,020
-185,358	90,796	0,092	-0,074
-184,344	-200,000	0,016	-0,079
-183,329	800,000	0,039	0,090
-182,315	-200,000	-0,007	0,083
-181,300	461,939	0,030	0,049
-180,285	60,438	0,081	-0,058
-179,271	-200,000	0,000	0,014
-178,256	-41,839	-0,087	-0,032
-177,242	-200,000	0,010	0,107
-176,227	122,217	-0,132	0,119
-175,212	-95,815	0,118	0,023
-174,198	433,248	0,051	0,079
-173,183	-200,000	-0,003	-0,193
-172,169	167,951	0,031	-0,032
-171,154	421,438	-0,059	-0,091
-170,139	-200,000	0,001	0,008
-169,125	-130,577	0,053	0,005
-168,110	152,273	0,029	0,028
-167,096	800,000	-0,078	-0,157
-166,081	-162,351	-0,168	0,006
-165,066	42,999	0,095	-0,062
-164,052	301,132	-0,042	-0,056
-163,037	22,558	-0,048	0,029
-162,023	-90,433	0,125	0,026
-161,008	52,088	-0,071	0,049
-159,993	-200,000	-0,010	0,064
-158,979	-12,714	0,065	0,030
-157,964	-169,541	-0,195	-0,005
-156,950	357,689	0,094	-0,136
-155,935	-200,000	0,003	-0,122
-154,920	-21,804	-0,047	0,020
-153,906	1,191	-0,062	0,032
-152,891	351,872	-0,060	0,085
-151,877	240,954	-0,071	-0,086
-150,862	-189,696	-0,097	0,001
-149,847	198,368	0,103	0,114
-148,833	-33,686	-0,107	0,042
-147,818	751,764	-0,009	0,018
-146,804	-200,000	0,003	0,048
-145,789	-200,000	-0,026	-0,090
-144,775	-21,693	0,056	-0,024
-143,760	86,054	-0,039	-0,031
-142,745	152,774	-0,042	0,042
-141,731	-200,000	0,025	-0,094
-140,716	-200,000	0,011	-0,052
-139,702	-67,608	0,094	0,026
-138,687	-200,000	0,000	-0,117
-137,672	9,316	0,014	-0,007
-136,658	-74,785	-0,198	-0,051
-135,643	-68,555	0,122	0,034
-134,629	42,177	-0,126	0,082
-133,614	297,000	0,101	0,134
-132,599	201,111	0,087	0,097
-131,585	-92,433	0,071	0,014
-130,570	-86,751	-0,137	0,030
-129,556	52,030	-0,033	0,022
-128,541	800,000	-0,020	0,057
-127,526	800,000	-0,050	-0,122
-126,512	-155,451	0,148	-0,007
-125,497	-200,000	0,021	0,071
-124,483	-127,776	-0,112	0,011
-123,468	800,000	0,019	-0,046
-122,453	483,475	-0,084	-0,138
-121,439	-200,000	0,006	0,147
-120,424	-169,535	-0,201	-0,005
-119,410	440,915	-0,026	0,040
-118,395	-118,303	-0,071	0,009
-117,380	-200,000	-0,015	0,055
-116,366	60,929	-0,056	0,040
-115,351	58,417	-0,058	-0,041
-114,337	800,000	-0,004	0,012
-113,322	623,711	0,037	0,068
-112,307	800,000	0,036	0,080
-111,293	800,000	0,025	0,070
-110,278	800,000	-0,018	0,042
-109,264	12,719	0,018	-0,010
-108,249	-46,259	-0,067	0,024
-107,234	-130,271	-0,089	0,009
-106,220	-200,000	-0,002	-0,070
-105,205	-134,636	0,104	-0,009
-104,191	800,000	0,015	-0,031
-103,176	-72,442	-0,128	0,034
-102,162	201,852	-0,043	0,048
-101,147	-129,491	-0,093	-0,009
-100,132	-200,000	-0,001	0,034
-99,118	74,678	-0,055	-0,042
-98,103	48,342	-0,120	0,080
-97,089	5,561	0,120	0,064
-96,074	215,986	-0,068	0,077
-95,059	266,957	0,050	-0,063
-94,045	-200,000	-0,014	-0,054
-93,030	-93,149	-0,150	-0,030
-92,016	332,909	-0,069	0,097
-91,001	-22,749	-0,096	-0,042
-89,986	-41,723	-0,029	-0,011
-88,972	-200,000	0,031	0,122
-87,957	-200,000	0,016	-0,081
-86,943	428,193	0,022	0,034
-85,928	412,060	-0,087	-0,133
-84,913	-129,714	0,059	0,006
-83,899	-108,978	-0,027	-0,004
-82,884	368,171	0,099	-0,144
-81,870	-102,347	-0,025	-0,004
-80,855	526,341	-0,014	-0,024
-79,840	-200,000	0,010	-0,104
-78,826	103,456	-0,068	0,058
-77,811	-200,000	-0,001	-0,031
-76,797	73,181	0,076	-0,057
-75,782	504,875	-0,038	0,063
-74,767	800,000	-0,033	-0,089
-73,753	21,654	-0,109	0,063
-72,738	800,000	-0,017	0,042
-71,724	412,516	-0,056	-0,085
-70,709	-200,000	0,005	0,027
-69,694	-129,154	-0,053	0,005
-68,680	-71,155	-0,082	0,022
-67,665	761,102	0,061	0,120
-66,651	-200,000	-0,006	0,090
-65,636	-200,000	-0,016	-0,068
-64,622	-11,770	-0,146	-0,069
-63,607	2,778	-0,142	-0,074
-62,592	371,591	0,055	0,080
-61,578	108,898	0,062	-0,053
-60,563	-200,000	0,013	0,115
-59,549	204,792	-0,077	0,086
-58,534	74,271	-2,628	-1,980
-57,519	14,642	0,458	-0,256
-56,505	-200,000	-1,658	-5,384
-55,490	626,579	1,085	1,975
-54,476	800,000	5,278	11,057
-53,461	-200,000	22,139	347,273
-52,446	800,000	760,243	2298,048
-51,432	514,975	1646,145	2768,530
-50,417	98,072	1610,101	1329,500
-49,403	66,057	1266,799	921,309
-48,388	23,304	1017,704	598,591
-47,373	19,339	985,009	566,264
-46,359	12,911	972,024	537,755
-45,344	8,675	968,788	522,069
-44,330	9,163	966,700	522,518
-43,315	8,134	964,921	518,173
-42,300	8,080	963,838	517,395
-41,286	8,121	962,761	516,932
-40,271	8,035	961,917	516,177
-39,257	8,019	961,025	515,626
-38,242	8,045	960,036	515,160
-37,227	7,985	959,351	514,575
-36,213	7,984	958,592	514,146
-35,198	8,007	957,575	513,656
-34,184	8,054	956,860	513,402
-33,169	8,015	955,947	512,767
-32,154	8,096	954,980	512,488
-31,140	8,134	954,047	512,091
-30,125	8,142	953,359	511,726
-29,111	8,041	952,439	510,888
-28,096	8,032	951,825	510,508
-27,082	8,105	951,162	510,368
-26,067	8,046	950,439	509,768
-25,052	8,005	949,799	509,275
-24,038	7,959	949,067	508,714
-23,023	8,021	948,202	508,430
-22,009	8,053	947,684	508,235
-20,994	8,023	947,224	507,871
-19,979	8,059	946,543	507,601
-18,965	8,040	945,863	507,156
-17,950	8,051	945,388	506,917
-16,936	8,034	944,469	506,349
-15,921	7,992	943,972	505,926
-14,906	7,964	943,128	505,365
-13,892	7,935	942,591	504,964
-12,877	7,992	941,750	504,677
-11,863	7,883	941,598	504,229
-10,848	7,919	940,845	503,918
-9,833	8,057	940,363	504,081
-8,819	7,980	939,682	503,451
-7,804	8,002	938,966	503,116
-6,790	7,928	938,602	502,666
-5,775	7,970	937,940	502,425
-4,760	7,982	937,186	502,039
-3,746	7,948	936,588	501,591
-2,731	7,772	936,063	500,732
-1,717	7,798	935,443	500,464
-0,702	7,820	934,729	500,131
0,313	7,637	933,910	499,868
1,327	10,967	931,924	509,265
2,342	19,510	780,110	448,697
3,356	14,688	448,121	250,464
4,371	-11,389	312,601	146,983
5,386	-14,943	295,191	135,189
6,400	-17,052	289,150	130,319
7,415	-17,144	286,325	128,945
8,429	-18,062	284,569	127,246
9,444	-18,217	283,550	126,628
10,459	-18,021	282,751	126,449
11,473	-18,288	282,297	125,978
12,488	-18,113	281,881	125,949
13,502	-18,273	281,336	125,540
14,517	-18,272	280,896	125,333
15,531	-18,128	280,378	125,229
16,546	-18,026	279,990	125,144
17,561	-18,310	279,563	124,669
18,575	-18,127	279,325	124,728
19,590	-18,292	278,745	124,300
20,604	-18,150	278,648	124,381
21,619	-18,343	278,400	124,075
22,634	-18,234	278,090	124,029
23,648	-18,121	277,479	123,854
24,663	-18,155	277,383	123,768
25,677	-18,272	277,147	123,540
26,692	-18,157	276,892	123,524
27,707	-18,081	276,515	123,417
28,721	-18,146	276,301	123,249
29,736	-18,175	275,865	123,016
30,750	-18,231	275,695	122,876
31,765	-18,151	275,448	122,831
32,780	-18,111	275,298	122,791
33,794	-18,234	275,152	122,598
34,809	-18,183	274,820	122,488
35,823	-18,096	274,524	122,426
36,838	-18,118	274,247	122,271
37,853	-18,253	273,902	121,981
38,867	-18,219	273,680	121,902
39,882	-18,183	273,374	121,788
40,896	-18,033	273,133	121,811
41,911	-18,176	272,973	121,596
42,926	-18,132	272,719	121,512
43,940	-18,158	272,516	121,387
44,955	-18,119	272,089	121,222
45,969	-18,062	271,965	121,209
46,984	-18,134	271,828	121,070
47,999	-18,144	271,595	120,947
49,013	-17,997	271,269	120,927
50,028	-18,214	271,151	120,662
51,042	-18,031	270,903	120,711
52,057	-18,067	270,636	120,547
53,071	-18,110	270,474	120,425
54,086	-18,086	270,194	120,311
55,101	-17,982	270,015	120,318
56,115	-18,106	269,766	120,081
57,130	-18,072	269,557	120,009
58,144	-18,115	269,329	119,857
59,159	-17,844	268,934	119,920
60,174	-18,211	268,827	119,523
61,188	-18,092	268,600	119,521
62,203	-18,183	268,384	119,331
63,217	-18,013	268,104	119,352
64,232	-18,098	267,899	119,172
65,247	-18,001	267,639	119,135
66,261	-18,154	267,342	118,852
67,276	-18,050	267,239	118,890
68,290	-17,998	267,054	118,845
69,305	-18,101	266,795	118,625
70,320	-18,024	266,475	118,543
71,334	-18,035	266,238	118,417
72,349	-18,102	265,966	118,224
73,363	-18,058	265,865	118,209
74,378	-18,082	265,579	118,049
75,393	-18,063	265,388	117,971
76,407	-18,029	265,078	117,853
77,422	-18,098	264,910	117,705
78,436	-17,947	264,573	117,682
79,451	-17,980	264,415	117,571
80,466	-17,974	264,118	117,434
81,480	-17,993	264,081	117,390
82,495	-18,074	263,760	117,165
83,509	-17,980	263,584	117,160
84,524	-17,850	263,309	117,145
85,539	-18,045	263,249	116,932
86,553	-18,063	262,948	116,772
87,568	-18,183	262,852	116,611
88,582	-18,025	262,539	116,603
89,597	-18,014	262,454	116,565
90,611	-17,950	262,041	116,428
91,626	-17,969	262,019	116,391
92,641	-17,912	261,687	116,284
93,655	-17,874	261,487	116,219
94,670	-18,074	261,304	115,950
95,684	-18,165	261,125	115,778
96,699	-17,985	260,799	115,783
97,714	-17,866	260,765	115,864
98,728	-17,993	260,600	115,667
99,743	-18,041	260,393	115,522
100,757	-17,875	260,019	115,493
101,772	-17,933	259,858	115,360
102,787	-18,103	259,689	115,124
103,801	-17,963	259,425	115,121
104,816	-17,989	259,236	115,003
105,830	-18,100	259,190	114,875
106,845	-17,975	258,825	114,813
107,860	-18,038	258,671	114,679
108,874	-17,892	258,485	114,715
109,889	-17,861	258,193	114,602
110,903	-17,977	258,061	114,432
111,918	-17,958	257,761	114,305
112,933	-18,004	257,606	114,186
113,947	-17,876	257,280	114,143
114,962	-17,970	257,260	114,042
115,976	-17,865	256,909	113,968
116,991	-18,004	256,836	113,804
118,006	-18,035	256,548	113,640
119,020	-17,914	256,492	113,709
120,035	-17,898	256,341	113,647
121,049	-17,919	256,141	113,530
122,064	-18,058	256,140	113,398
123,079	-17,881	255,671	113,334
124,093	-18,097	255,551	113,083
125,108	-18,084	255,273	112,961
126,122	-18,060	255,240	112,958
127,137	-18,012	254,974	112,871
128,151	-17,903	254,839	112,895
129,166	-17,749	254,591	112,909
130,181	-17,880	254,399	112,700
131,195	-17,887	254,142	112,571
132,210	-17,918	253,791	112,378
133,224	-18,051	253,672	112,201
134,239	-17,961	253,593	112,234
135,254	-17,894	253,407	112,199
136,268	-17,999	253,100	111,963
137,283	-18,034	252,935	111,849
138,297	-17,972	252,713	111,795
139,312	-17,923	252,470	111,719
140,327	-17,963	252,308	111,604
141,341	-17,822	252,047	111,599
142,356	-17,988	252,054	111,450
143,370	-17,995	251,737	111,294
144,385	-17,660	251,457	111,445
145,400	-17,977	251,278	111,087
146,414	-18,011	251,170	111,000
147,429	-17,772	251,049	111,139
148,443	-17,977	250,691	110,797
149,458	-17,959	250,527	110,730
150,473	-17,954	250,365	110,653
151,487	-17,867	250,209	110,647
152,502	-17,930	249,987	110,486
153,516	-17,804	249,895	110,542
154,531	-18,070	249,756	110,246
155,546	-17,961	249,368	110,158
156,560	-17,904	249,287	110,160
157,575	-17,992	249,085	109,986
158,589	-17,796	248,880	110,051
159,604	-17,838	248,625	109,893
160,619	-18,079	248,612	109,675
161,633	-17,804	248,277	109,749
162,648	-17,792	248,199	109,714
163,662	-17,747	248,068	109,685
164,677	-17,830	247,763	109,470
165,692	-17,847	247,672	109,405
166,706	-17,765	247,592	109,429
167,721	-17,831	247,447	109,301
168,735	-18,038	247,354	109,076
169,750	-17,702	246,960	109,173
170,764	-17,955	246,914	108,932
171,779	-18,038	246,738	108,775
172,794	-17,848	246,629	108,877
173,808	-17,973	246,358	108,643
174,823	-17,755	246,323	108,800
175,837	-17,776	246,020	108,638
176,852	-17,829	245,940	108,549
177,867	-17,902	245,824	108,428
178,881	-17,953	245,674	108,309
179,896	-17,775	245,391	108,322
180,910	-17,823	245,219	108,198
181,925	-17,776	244,769	108,028
182,940	-17,712	244,714	108,047
183,954	-17,880	244,665	107,876
184,969	-17,765	244,676	107,967
185,983	-17,867	244,377	107,741
186,998	-17,856	244,064	107,603
188,013	-17,676	243,928	107,682
189,027	-17,824	243,827	107,506
190,042	-17,883	243,611	107,352
191,056	-17,802	243,469	107,347
192,071	-17,847	243,219	107,190
193,086	-17,757	243,199	107,246
194,100	-17,774	242,934	107,105
195,115	-17,702	242,673	107,040
196,129	-17,839	242,448	106,818
197,144	-17,639	242,380	106,943
198,159	-17,881	242,155	106,636
199,173	-17,677	241,928	106,693
200,188	-17,695	241,869	106,643
201,202	-17,727	241,646	106,509
202,217	-17,877	241,392	106,265
203,232	-17,794	241,318	106,291
204,246	-17,879	241,139	106,133
205,261	-17,683	241,128	106,278
206,275	-16,081	241,512	107,742
207,290	-10,936	243,292	112,741
208,304	-4,953	245,123	118,507
209,319	-3,172	245,433	120,113
210,334	-2,344	245,520	120,825
211,348	-1,462	245,724	121,641
212,363	-0,982	245,704	122,015
213,377	-0,409	245,849	122,547
214,392	0,212	245,965	123,105
215,407	0,381	245,947	123,224
216,421	0,494	245,699	123,182
217,436	0,477	245,535	123,074
218,450	0,445	245,462	123,001
219,465	0,629	245,349	123,084
220,480	0,634	245,149	122,976
221,494	0,635	244,948	122,866
222,509	0,296	244,722	122,464
223,523	0,140	244,580	122,254
224,538	0,152	244,215	122,071
225,553	0,283	244,098	122,109
226,567	0,042	243,907	121,805
227,582	0,158	243,818	121,845
228,596	0,193	243,704	121,806
229,611	0,048	243,484	121,567
230,626	0,065	243,293	121,474
231,640	0,036	243,063	121,326
232,655	-0,018	242,929	121,204
233,669	0,107	242,816	121,238
234,684	-0,090	242,655	120,987
235,699	0,070	242,337	120,947
236,713	0,160	242,422	121,052
237,728	0,322	242,107	121,015
238,742	0,168	241,872	120,762
239,757	0,171	241,795	120,715
240,772	0,164	241,698	120,650
241,786	0,024	241,567	120,462
242,801	0,011	241,385	120,350
243,815	-0,116	241,258	120,173
244,830	0,162	241,007	120,261
245,844	0,353	240,954	120,377
246,859	0,186	240,648	120,079
247,874	0,183	240,541	120,013
248,888	0,083	240,385	119,845
249,903	0,029	240,276	119,736
250,917	0,133	240,159	119,751
251,932	0,166	240,100	119,737
252,947	0,354	239,866	119,760
253,961	0,221	239,691	119,555
254,976	0,075	239,506	119,336
255,990	0,142	239,369	119,310
257,005	-0,036	239,269	119,108
258,020	0,123	239,197	119,188
259,034	0,129	238,946	119,058
260,049	0,276	238,688	119,035
261,063	0,216	238,668	118,967
262,078	0,309	238,431	118,911
263,093	0,036	238,240	118,589
264,107	0,293	238,066	118,696
265,122	0,160	237,964	118,528
266,136	0,200	237,742	118,439
267,151	0,195	237,718	118,413
268,166	0,114	237,594	118,277
269,180	0,071	237,261	118,066
270,195	0,347	237,193	118,240
271,209	0,137	236,923	117,929
272,224	0,113	236,886	117,881
273,239	0,107	236,820	117,834
274,253	0,129	236,579	117,720
275,268	0,099	236,414	117,604
276,282	0,136	236,186	117,509
277,297	0,161	236,003	117,427
278,312	0,180	235,956	117,408
279,326	0,215	235,911	117,403
280,341	0,231	235,630	117,265
281,355	0,369	235,481	117,288
282,370	0,226	235,310	117,081
283,384	0,091	235,278	116,949
284,399	0,165	234,980	116,848
285,414	0,201	234,906	116,829
286,428	0,189	234,815	116,764
287,443	0,218	234,661	116,700
288,457	0,425	234,505	116,773
289,472	0,241	234,309	116,522
290,487	0,463	234,155	116,608
291,501	0,063	234,134	116,275
292,516	0,198	233,857	116,233
293,530	0,341	233,677	116,244
294,545	0,304	233,508	116,121
295,560	0,223	233,479	116,033
296,574	0,300	233,344	116,015
297,589	0,139	233,179	115,798
298,603	0,343	232,906	115,810
299,618	0,390	232,834	115,801
300,633	0,399	232,773	115,766
301,647	0,341	232,569	115,610
302,662	0,486	232,496	115,675
303,676	0,522	232,257	115,574
304,691	0,435	232,163	115,450
305,706	0,389	231,976	115,311
306,720	0,441	231,815	115,261
307,735	0,470	231,722	115,226
308,749	0,480	231,547	115,137
309,764	0,360	231,447	114,985
310,779	0,443	231,296	114,963
311,793	0,354	231,174	114,824
312,808	0,634	230,875	114,880
313,822	0,523	230,811	114,752
314,837	0,329	230,695	114,536
315,852	0,477	230,434	114,509
316,866	0,374	230,385	114,396
317,881	0,598	230,178	114,454
318,895	0,488	230,086	114,314
319,910	0,346	229,998	114,152
320,925	0,124	229,952	113,950
321,939	0,578	229,696	114,159
322,954	0,517	229,505	114,007
323,968	0,499	229,482	113,972
324,983	0,332	229,300	113,745
325,997	0,696	229,067	113,895
327,012	0,557	228,922	113,707
328,027	0,615	228,780	113,670
329,041	0,707	228,564	113,623
330,056	0,519	228,525	113,451
331,070	0,577	228,381	113,413
332,085	0,442	228,169	113,195
333,100	0,517	228,045	113,181
334,114	0,553	227,797	113,074
335,129	0,608	227,721	113,069
336,143	0,464	227,544	112,862
337,158	0,664	227,387	112,925
338,173	0,769	227,381	112,990
339,187	0,752	227,033	112,794
340,202	0,663	226,888	112,646
341,216	0,636	226,884	112,613
342,231	0,469	226,694	112,384
343,246	0,470	226,650	112,352
344,260	0,628	226,567	112,420
345,275	0,551	226,413	112,276
346,289	0,449	226,259	112,113
347,304	0,565	226,123	112,122
348,319	0,531	225,849	111,951
349,333	0,580	225,729	111,918
350,348	0,782	225,467	111,929
351,362	0,715	225,544	111,908
352,377	0,504	225,435	111,686
353,392	0,735	225,224	111,743
354,406	0,713	225,027	111,619
355,421	192,827	1312,321	1379,994
356,435	154,471	1444,639	1379,832
