DTS Sentinel unit serial number:	SN410029Multiplexer serial number:	ORYXHardware model number:	OX2-SRSoftware version number:	ORYX F/W v4,00 Oryx Data Collector v3.7.2.0data status	okinstallation	B5 Nyhavnadifferential loss correction	single-endedforward channel	channel 2reverse channel	N/Adate	2023/12/14time	01:47:13forward acquisition time	300,00reverse acquisition time	0,00gamma	499,1914k internal	0,3154k external	0,3154temperature offset calibration	1,0000default loss term (dB/km)	0,3820temperature slope calibration	1,0000multiplexer offset coefficient	1,0000multiplexer slope coefficient	1,0000fibre end	0,00T internal ref (°C)	8,68T ext. ref 1 (°C)	-7,41T ext. ref 2 (°C)	-7,45length (m)	temperature (°C)	Stokes	anti-Stokes-744,400	43,909	0,048	0,033
-743,385	-40,599	-0,317	-0,121
-742,371	-159,020	0,112	0,005
-741,356	-128,976	-0,234	-0,024
-740,342	-200,000	-0,037	0,177
-739,327	-142,064	-0,291	-0,021
-738,312	84,115	0,080	0,064
-737,298	-43,775	-0,286	-0,106
-736,283	98,129	0,133	0,113
-735,269	-108,911	-0,400	-0,062
-734,254	-16,035	0,215	0,100
-733,239	-10,395	-0,742	-0,362
-732,225	-28,984	0,207	0,087
-731,210	-200,000	0,013	0,080
-730,196	73,381	-0,162	-0,125
-729,181	-57,312	-0,103	0,033
-728,167	49,386	-0,100	-0,069
-727,152	-18,400	-0,119	-0,055
-726,137	36,888	-0,099	0,064
-725,123	-200,000	-0,005	-0,197
-724,108	406,425	-0,096	-0,151
-723,094	-200,000	0,013	-0,072
-722,079	800,000	0,034	-0,080
-721,064	218,383	0,116	0,137
-720,050	342,320	0,081	-0,117
-719,035	-200,000	0,035	0,128
-718,021	-10,050	-0,038	0,019
-717,006	-9,382	-0,094	0,046
-715,991	-76,349	-0,056	-0,014
-714,977	800,000	-0,041	-0,111
-713,962	-200,000	-0,018	0,097
-712,948	89,415	0,040	-0,033
-711,933	-98,904	-0,071	0,013
-710,918	611,987	-0,076	0,141
-709,904	-113,090	0,027	0,004
-708,889	207,579	0,081	-0,093
-707,875	-200,000	0,013	0,126
-706,860	387,842	-0,043	0,066
-705,845	112,647	0,098	-0,088
-704,831	313,084	-0,059	0,082
-703,816	-200,000	-0,016	0,076
-702,802	756,024	-0,040	0,079
-701,787	699,418	-0,021	-0,041
-700,772	-68,153	-0,105	-0,030
-699,758	2,973	-0,053	0,028
-698,743	324,231	0,117	-0,165
-697,729	-23,497	0,132	-0,058
-696,714	113,522	-0,096	0,086
-695,699	-15,899	0,082	-0,038
-694,685	-200,000	0,010	-0,082
-693,670	-42,591	-0,162	-0,060
-692,656	-67,820	0,061	-0,018
-691,641	-1,487	-0,041	0,021
-690,627	-31,697	0,081	-0,033
-689,612	-14,472	-0,103	-0,049
-688,597	-49,383	-0,036	-0,013
-687,583	188,339	-0,078	-0,086
-686,568	-200,000	-0,012	-0,083
-685,554	800,000	-0,022	-0,060
-684,539	800,000	0,051	-0,128
-683,524	231,795	-0,034	0,041
-682,510	202,478	0,038	0,043
-681,495	487,569	-0,050	0,084
-680,481	-95,013	0,082	0,016
-679,466	144,322	-0,018	-0,018
-678,451	182,293	0,084	-0,091
-677,437	15,855	-0,061	-0,035
-676,422	-200,000	-0,014	0,204
-675,408	-109,988	0,070	-0,011
-674,393	280,318	-0,164	-0,216
-673,378	14,390	-0,076	0,043
-672,364	-53,328	0,055	-0,018
-671,349	-2,474	-0,111	-0,057
-670,335	183,869	0,092	0,100
-669,320	313,569	-0,054	0,075
-668,305	124,958	-0,071	0,066
-667,291	256,847	0,046	0,058
-666,276	-104,938	0,145	-0,024
-665,262	-5,739	-0,084	-0,042
-664,247	-200,000	-0,000	-0,004
-663,232	800,000	0,028	0,086
-662,218	-135,784	0,053	0,005
-661,203	800,000	0,035	0,071
-660,189	800,000	-0,025	-0,060
-659,174	-27,983	-0,076	-0,032
-658,159	58,499	-0,091	-0,066
-657,145	-78,417	-0,082	0,020
-656,130	-200,000	0,023	0,077
-655,116	20,274	0,166	-0,098
-654,101	123,190	0,017	-0,016
-653,086	0,225	-0,034	0,018
-652,072	-40,503	-0,098	-0,037
-651,057	-200,000	0,003	0,065
-650,043	3,404	-0,104	0,056
-649,028	131,978	0,086	0,081
-648,014	-133,417	0,101	-0,009
-646,999	58,821	-0,097	-0,070
-645,984	232,323	0,091	-0,110
-644,970	108,174	0,090	0,079
-643,955	-200,000	0,004	0,125
-642,941	-147,512	-0,180	-0,011
-641,926	-122,703	0,085	0,010
-640,911	-89,540	0,078	0,017
-639,897	800,000	0,050	0,125
-638,882	435,565	0,080	0,128
-637,868	326,530	-0,054	-0,076
-636,853	200,198	-0,099	-0,112
-635,838	194,783	-0,034	0,038
-634,824	99,110	-0,057	0,048
-633,809	396,816	-0,093	0,143
-632,795	-121,410	0,111	0,013
-631,780	40,879	0,068	0,045
-630,765	-200,000	0,017	-0,070
-629,751	-200,000	-0,002	-0,076
-628,736	-10,147	-0,118	-0,058
-627,722	177,679	0,026	0,028
-626,707	161,437	0,052	-0,054
-625,692	-101,065	-0,183	0,033
-624,678	81,411	0,084	-0,067
-623,663	-152,208	-0,077	0,004
-622,649	800,000	-0,048	-0,141
-621,634	-200,000	-0,005	-0,097
-620,619	800,000	-0,032	0,086
-619,605	800,000	-0,032	-0,078
-618,590	800,000	-0,016	0,046
-617,576	169,574	0,061	0,064
-616,561	-200,000	-0,023	-0,079
-615,546	430,774	-0,087	-0,138
-614,532	6,580	-0,118	0,064
-613,517	-200,000	-0,023	0,102
-612,503	-91,205	0,017	-0,004
-611,488	-63,739	-0,151	-0,045
-610,474	-94,451	-0,054	0,011
-609,459	67,879	0,074	-0,055
-608,444	-200,000	0,003	0,145
-607,430	560,612	-0,060	-0,107
-606,415	-200,000	-0,008	-0,093
-605,401	-130,609	-0,038	0,004
-604,386	143,728	0,168	-0,164
-603,371	-200,000	0,051	0,185
-602,357	144,056	-0,110	0,108
-601,342	-200,000	0,019	-0,103
-600,328	106,021	-0,268	-0,233
-599,313	30,858	-0,064	0,040
-598,298	383,595	-0,049	-0,075
-597,284	-11,240	0,099	0,048
-596,269	362,396	-0,100	0,147
-595,255	690,254	0,056	0,109
-594,240	271,867	-0,055	-0,072
-593,225	-106,574	0,108	0,018
-592,211	800,000	-0,062	-0,173
-591,196	28,052	-0,084	0,052
-590,182	800,000	-0,052	0,132
-589,167	-200,000	-0,001	0,153
-588,152	-200,000	0,000	0,034
-587,138	-77,015	0,091	-0,023
-586,123	-36,769	0,053	0,021
-585,109	-112,403	-0,082	-0,012
-584,094	786,029	0,036	0,073
-583,079	-122,401	0,130	0,015
-582,065	-200,000	0,000	0,002
-581,050	800,000	-0,018	-0,036
-580,036	-29,824	0,047	0,019
-579,021	-15,185	0,032	-0,015
-578,006	316,117	-0,094	-0,130
-576,992	-125,400	0,108	-0,012
-575,977	-200,000	-0,019	0,154
-574,963	-48,410	0,115	0,040
-573,948	-200,000	-0,003	-0,096
-572,934	-164,528	-0,057	0,002
-571,919	800,000	0,059	-0,126
-570,904	-125,972	-0,063	0,007
-569,890	-38,019	-0,024	-0,009
-568,875	800,000	-0,015	-0,036
-567,861	172,844	0,057	0,060
-566,846	-97,521	-0,161	0,030
-565,831	-145,124	-0,044	-0,003
-564,817	-200,000	0,002	-0,006
-563,802	238,048	-0,063	-0,077
-562,788	-200,000	-0,018	0,100
-561,773	-200,000	-0,025	-0,116
-560,758	25,012	-0,123	0,075
-559,744	62,261	0,153	0,112
-558,729	-96,691	-0,070	0,013
-557,715	-2,106	-0,145	-0,074
-556,700	-59,251	-0,046	0,014
-555,685	800,000	-0,032	-0,084
-554,671	574,430	0,025	-0,046
-553,656	-140,454	0,120	0,009
-552,642	800,000	-0,018	-0,044
-551,627	623,982	0,057	0,105
-550,612	-200,000	-0,013	0,077
-549,598	-200,000	0,011	0,042
-548,583	800,000	-0,039	-0,124
-547,569	361,065	0,048	-0,071
-546,554	800,000	-0,029	0,075
-545,539	-117,392	0,073	0,010
-544,525	-142,624	0,082	0,006
-543,510	-12,528	0,090	0,043
-542,496	638,116	-0,034	0,063
-541,481	-200,000	0,003	0,042
-540,466	800,000	-0,040	0,123
-539,452	319,506	0,058	0,080
-538,437	-104,269	-0,014	-0,002
-537,423	800,000	0,027	-0,082
-536,408	800,000	-0,030	0,096
-535,393	-28,145	-0,198	-0,083
-534,379	-130,948	0,073	0,007
-533,364	-55,956	-0,057	0,019
-532,350	-62,486	0,117	-0,035
-531,335	-200,000	0,005	0,034
-530,321	70,747	-0,118	0,089
-529,306	-16,912	0,130	-0,060
-528,291	-151,664	0,033	0,002
-527,277	544,745	0,065	-0,114
-526,262	-200,000	-0,031	-0,168
-525,248	-200,000	0,044	-0,159
-524,233	-200,000	0,027	0,091
-523,218	0,293	0,158	0,082
-522,204	61,221	0,155	0,112
-521,189	800,000	0,033	0,083
-520,175	-34,055	-0,071	-0,029
-519,160	-131,436	0,112	0,011
-518,145	-200,000	-0,018	0,079
-517,131	236,645	-0,082	0,100
-516,116	-87,641	-0,060	-0,013
-515,102	-187,631	0,143	0,001
-514,087	-200,000	-0,003	-0,153
-513,072	271,565	-0,105	-0,136
-512,058	233,101	-0,046	0,055
-511,043	800,000	0,024	0,057
-510,029	-114,599	0,083	0,011
-509,014	0,955	0,154	0,080
-507,999	-200,000	0,005	-0,104
-506,985	-200,000	0,050	-0,162
-505,970	320,500	-0,073	-0,101
-504,956	-59,499	-0,059	-0,018
-503,941	-44,182	0,027	0,010
-502,926	-96,663	0,146	-0,028
-501,912	22,848	0,032	0,019
-500,897	800,000	0,064	0,165
-499,883	-2,781	-0,237	-0,121
-498,868	309,952	-0,081	-0,111
-497,853	233,549	0,025	-0,030
-496,839	-178,956	-0,104	-0,002
-495,824	-51,833	0,043	0,015
-494,810	631,779	0,034	0,064
-493,795	800,000	0,036	0,107
-492,781	-34,804	-0,068	0,027
-491,766	333,414	-0,039	0,056
-490,751	-38,040	-0,044	0,017
-489,737	-86,607	0,135	0,030
-488,722	180,287	0,049	0,052
-487,708	179,794	-0,030	0,033
-486,693	425,522	0,039	0,061
-485,678	-32,950	0,055	0,022
-484,664	-60,278	0,100	-0,031
-483,649	-200,000	0,012	-0,054
-482,635	-200,000	-0,010	-0,078
-481,620	800,000	-0,051	-0,130
-480,605	-54,359	-0,108	0,036
-479,591	22,951	0,084	0,050
-478,576	77,736	0,086	-0,067
-477,562	724,599	-0,057	-0,111
-476,547	232,414	-0,022	-0,027
-475,532	-69,435	0,112	-0,031
-474,518	292,763	-0,055	-0,073
-473,503	-147,825	0,129	-0,008
-472,489	379,487	0,091	0,136
-471,474	3,929	-0,095	0,051
-470,459	-113,303	-0,099	-0,014
-469,445	-200,000	0,009	-0,053
-468,430	-200,000	-0,010	0,051
-467,416	-200,000	0,021	-0,102
-466,401	-3,951	0,143	-0,072
-465,386	107,298	-0,060	0,052
-464,372	800,000	0,020	-0,044
-463,357	-117,089	0,095	0,013
-462,343	78,821	0,041	-0,032
-461,328	-74,751	-0,062	-0,016
-460,313	27,816	-0,115	-0,070
-459,299	398,731	0,107	0,165
-458,284	800,000	-0,015	0,036
-457,270	216,351	0,034	-0,039
-456,255	546,995	0,095	0,167
-455,241	20,135	-0,132	-0,077
-454,226	800,000	-0,014	-0,043
-453,211	733,455	0,040	-0,079
-452,197	-157,831	0,067	0,003
-451,182	-68,333	0,141	0,040
-450,168	-200,000	0,025	0,086
-449,153	240,123	-0,044	-0,054
-448,138	413,461	-0,080	-0,125
-447,124	-95,725	-0,155	-0,030
-446,109	153,542	0,082	-0,082
-445,095	474,262	0,064	0,106
-444,080	103,060	-0,114	0,098
-443,065	-32,849	-0,046	0,019
-442,051	-93,197	-0,067	0,013
-441,036	-153,964	0,034	0,002
-440,022	26,623	-0,027	0,016
-439,007	-200,000	0,001	0,084
-437,992	-26,272	-0,072	0,031
-436,978	-200,000	0,010	0,126
-435,963	-200,000	-0,000	0,100
-434,949	-141,485	-0,031	-0,002
-433,934	800,000	-0,045	0,132
-432,919	192,929	-0,115	-0,127
-431,905	412,260	-0,089	-0,138
-430,890	64,558	0,054	0,040
-429,876	-200,000	-0,001	-0,011
-428,861	-11,884	0,092	0,044
-427,846	98,689	-0,018	0,015
-426,832	-200,000	0,028	-0,201
-425,817	-39,294	0,066	0,025
-424,803	-200,000	0,019	0,156
-423,788	-200,000	0,010	0,043
-422,773	542,578	-0,030	0,052
-421,759	-200,000	-0,037	0,146
-420,744	-87,492	-0,084	0,018
-419,730	50,304	-0,150	0,103
-418,715	800,000	-0,007	-0,015
-417,701	-200,000	0,010	-0,042
-416,686	-200,000	0,006	0,025
-415,671	800,000	0,012	-0,036
-414,657	628,013	-0,044	0,082
-413,642	-200,000	-0,001	0,040
-412,628	-35,624	0,088	0,035
-411,613	347,275	-0,042	0,061
-410,598	644,538	-0,052	-0,096
-409,584	-54,003	0,051	0,017
-408,569	800,000	-0,072	0,160
-407,555	-138,116	-0,132	-0,011
-406,540	-76,232	0,021	-0,005
-405,525	-112,160	0,184	0,027
-404,511	117,323	-0,088	-0,079
-403,496	217,928	-0,026	0,031
-402,482	55,025	0,076	-0,053
-401,467	88,273	-0,062	0,050
-400,452	800,000	-0,073	-0,159
-399,438	-45,061	0,110	-0,040
-398,423	-30,829	-0,030	-0,012
-397,409	-35,916	0,054	0,021
-396,394	-8,546	-0,075	-0,037
-395,379	189,720	0,082	0,090
-394,365	238,205	0,033	0,040
-393,350	112,054	0,059	0,052
-392,336	232,633	0,077	0,092
-391,321	-58,374	-0,103	0,032
-390,306	-25,437	-0,121	-0,052
-389,292	-112,103	0,029	0,004
-388,277	800,000	0,046	-0,095
-387,263	255,911	-0,065	0,082
-386,248	-35,484	0,095	-0,038
-385,233	800,000	-0,022	0,060
-384,219	225,975	0,049	-0,058
-383,204	-90,055	0,090	0,019
-382,190	-62,794	-0,063	0,019
-381,175	55,966	0,001	-0,001
-380,160	-200,000	-0,002	-0,060
-379,146	-200,000	0,029	0,165
-378,131	30,871	0,192	0,119
-377,117	-167,333	-0,062	0,002
-376,102	-200,000	-0,010	-0,051
-375,088	72,638	0,085	-0,064
-374,073	800,000	0,050	-0,128
-373,058	518,151	-0,032	-0,055
-372,044	438,500	-0,012	0,019
-371,029	-38,970	-0,061	-0,023
-370,015	800,000	0,034	0,101
-369,000	-66,676	-0,083	0,024
-367,985	-63,506	-0,166	-0,049
-366,971	-33,483	0,134	0,054
-365,956	765,068	0,045	-0,090
-364,942	-141,951	-0,111	-0,008
-363,927	13,373	0,123	0,069
-362,912	556,077	-0,052	0,092
-361,898	90,003	-0,085	-0,069
-360,883	-38,818	-0,135	-0,051
-359,869	-76,893	-0,084	0,021
-358,854	45,363	0,050	-0,034
-357,839	-19,070	-0,033	0,015
-356,825	-98,708	0,100	-0,018
-355,810	-200,000	-0,003	-0,140
-354,796	-92,076	0,079	0,016
-353,781	-200,000	-0,015	-0,140
-352,766	-27,312	-0,096	0,041
-351,752	-6,296	0,032	0,016
-350,737	582,397	0,049	0,088
-349,723	-200,000	-0,000	-0,009
-348,708	305,935	-0,043	-0,059
-347,693	-20,996	-0,129	-0,057
-346,679	-57,587	-0,047	0,015
-345,664	-200,000	0,033	-0,194
-344,650	21,035	0,049	0,029
-343,635	-200,000	0,006	0,112
-342,620	241,105	0,053	0,065
-341,606	-30,814	0,123	-0,050
-340,591	5,856	-0,044	0,024
-339,577	-200,000	-0,017	0,123
-338,562	-92,281	-0,144	-0,029
-337,548	30,978	-0,050	-0,031
-336,533	-200,000	-0,028	0,124
-335,518	800,000	0,005	-0,013
-334,504	-125,933	-0,038	0,004
-333,489	-200,000	0,014	0,053
-332,475	9,129	-0,094	-0,051
-331,460	-46,425	-0,111	0,039
-330,445	5,944	0,068	0,036
-329,431	-200,000	0,013	-0,042
-328,416	-200,000	-0,018	-0,086
-327,402	800,000	-0,003	0,007
-326,387	151,095	-0,045	0,045
-325,372	98,746	-0,017	-0,014
-324,358	-63,956	-0,061	-0,018
-323,343	-69,289	0,171	0,047
-322,329	224,745	0,008	-0,010
-321,314	-66,545	-0,071	0,020
-320,299	-200,000	0,003	-0,081
-319,285	186,874	-0,045	-0,049
-318,270	-200,000	-0,014	-0,096
-317,256	-175,966	-0,096	-0,002
-316,241	552,180	0,039	-0,069
-315,226	77,175	0,079	-0,061
-314,212	-14,617	0,208	-0,096
-313,197	-141,835	-0,096	-0,007
-312,183	-86,758	0,077	-0,017
-311,168	-34,557	0,115	0,046
-310,153	-200,000	-0,007	-0,047
-309,139	527,452	0,033	-0,057
-308,124	-28,907	0,157	0,065
-307,110	-33,745	0,016	-0,006
-306,095	578,649	-0,045	0,080
-305,080	345,732	-0,074	-0,105
-304,066	-17,532	-0,092	-0,042
-303,051	189,203	-0,112	-0,122
-302,037	-49,137	0,102	0,035
-301,022	-121,776	0,026	0,003
-300,008	-28,176	-0,079	-0,033
-298,993	-183,826	-0,057	0,001
-297,978	-200,000	0,001	-0,068
-296,964	800,000	-0,013	0,027
-295,949	310,911	-0,047	-0,065
-294,935	-164,746	0,045	0,001
-293,920	460,779	0,020	0,032
-292,905	-93,993	0,103	0,020
-291,891	103,470	0,077	-0,065
-290,876	-135,439	-0,056	0,005
-289,862	16,541	-0,032	0,018
-288,847	-200,000	0,005	0,016
-287,832	-43,147	0,136	-0,050
-286,818	800,000	0,032	-0,088
-285,803	59,163	-0,041	0,029
-284,789	185,158	-0,069	0,074
-283,774	-200,000	0,003	0,018
-282,759	-200,000	0,033	-0,136
-281,745	146,380	0,058	0,057
-280,730	179,554	0,025	0,026
-279,716	-68,052	-0,074	0,021
-278,701	162,365	0,059	0,060
-277,686	511,224	0,064	0,108
-276,672	82,094	0,044	0,034
-275,657	130,300	0,035	0,032
-274,643	800,000	0,041	-0,088
-273,628	-200,000	-0,016	-0,064
-272,613	-16,536	0,050	-0,023
-271,599	-111,335	0,138	0,020
-270,584	671,340	0,051	0,095
-269,570	-99,445	-0,114	-0,021
-268,555	179,325	-0,118	0,126
-267,540	-200,000	-0,033	-0,150
-266,526	-200,000	-0,019	-0,101
-265,511	-200,000	0,014	0,159
-264,497	-200,000	0,018	0,059
-263,482	-200,000	0,034	-0,122
-262,467	-131,940	0,067	-0,006
-261,453	-200,000	-0,002	-0,012
-260,438	97,041	0,093	0,077
-259,424	-200,000	0,004	0,043
-258,409	-200,000	-0,008	0,092
-257,395	800,000	-0,014	-0,037
-256,380	-81,419	0,145	-0,034
-255,365	525,321	0,044	0,075
-254,351	-200,000	-0,012	0,039
-253,336	-72,762	-0,034	0,009
-252,322	181,264	-0,060	-0,064
-251,307	-200,000	-0,016	-0,105
-250,292	-117,005	-0,100	0,013
-249,278	-200,000	0,008	0,031
-248,263	-200,000	0,008	0,099
-247,249	-124,815	0,160	-0,018
-246,234	553,385	0,053	-0,092
-245,219	-90,777	-0,196	0,041
-244,205	141,222	0,038	0,036
-243,190	-12,957	-0,149	-0,070
-242,176	-118,402	0,107	0,014
-241,161	-200,000	-0,006	-0,101
-240,146	800,000	-0,030	0,077
-239,132	-200,000	-0,024	0,101
-238,117	-200,000	0,010	-0,057
-237,103	-3,367	-0,041	0,020
-236,088	800,000	-0,048	0,108
-235,073	129,689	-0,071	0,065
-234,059	362,366	0,026	-0,039
-233,044	47,664	0,050	0,034
-232,030	66,250	0,090	-0,066
-231,015	391,866	-0,041	0,062
-230,000	228,643	0,018	-0,022
-228,986	-200,000	0,002	-0,073
-227,971	-200,000	-0,019	-0,096
-226,957	283,331	0,050	0,065
-225,942	800,000	-0,024	0,060
-224,927	149,477	-0,118	-0,116
-223,913	700,594	-0,070	0,134
-222,898	364,257	-0,038	0,056
-221,884	164,217	0,032	-0,032
-220,869	800,000	-0,042	-0,119
-219,855	-71,329	0,085	-0,023
-218,840	53,598	0,057	-0,039
-217,825	-200,000	-0,010	0,038
-216,811	-200,000	-0,013	-0,084
-215,796	800,000	-0,052	-0,118
-214,782	606,474	0,026	-0,047
-213,767	-200,000	-0,009	-0,063
-212,752	42,131	0,018	-0,012
-211,738	451,940	0,058	0,093
-210,723	800,000	-0,052	-0,148
-209,709	679,717	0,027	-0,050
-208,694	75,429	0,054	-0,041
-207,679	-82,192	0,058	-0,014
-206,665	643,564	-0,023	0,043
-205,650	218,751	-0,075	0,086
-204,636	-200,000	-0,006	0,085
-203,621	15,034	0,046	-0,026
-202,606	384,023	-0,074	-0,111
-201,592	-200,000	0,025	-0,188
-200,577	-92,967	-0,093	-0,019
-199,563	-34,078	-0,128	-0,051
-198,548	466,171	0,129	0,210
-197,533	284,032	0,091	0,119
-196,519	800,000	-0,042	0,114
-195,504	-114,940	-0,094	-0,013
-194,490	26,693	0,089	0,054
-193,475	55,662	0,051	-0,035
-192,460	-91,349	-0,042	-0,009
-191,446	-166,088	-0,076	0,002
-190,431	203,703	0,076	0,085
-189,417	708,708	-0,007	-0,014
-188,402	320,916	-0,036	-0,050
-187,387	591,369	-0,054	0,096
-186,373	800,000	0,062	-0,140
-185,358	-200,000	-0,004	0,077
-184,344	800,000	0,016	0,037
-183,329	21,833	-0,013	-0,007
-182,315	-200,000	-0,021	-0,076
-181,300	-177,540	-0,021	0,000
-180,285	249,655	-0,092	-0,113
-179,271	-11,976	-0,114	-0,054
-178,256	253,332	0,118	0,145
-177,242	-96,495	0,119	-0,023
-176,227	-40,886	0,043	0,016
-175,212	800,000	-0,030	-0,078
-174,198	-200,000	0,059	-0,197
-173,183	800,000	-0,064	-0,131
-172,169	352,664	-0,116	-0,166
-171,154	-200,000	0,012	0,060
-170,139	800,000	0,037	0,117
-169,125	346,908	0,062	-0,088
-168,110	151,956	0,050	0,050
-167,096	800,000	0,025	0,079
-166,081	49,457	-0,063	-0,043
-165,066	226,107	-0,114	-0,134
-164,052	208,085	-0,019	0,022
-163,037	800,000	-0,020	0,056
-162,023	-97,386	0,095	-0,018
-161,008	682,899	0,069	0,131
-159,993	-200,000	-0,026	0,133
-158,979	-71,658	-0,089	0,024
-157,964	-200,000	-0,006	0,028
-156,950	187,062	0,044	0,048
-155,935	355,998	0,056	-0,081
-154,920	-130,384	0,111	0,011
-153,906	44,413	0,092	0,061
-152,891	-200,000	-0,013	0,122
-151,877	-73,969	-0,035	-0,009
-150,862	-88,374	0,071	-0,015
-149,847	685,518	-0,020	0,038
-148,833	800,000	-0,036	0,075
-147,818	-50,798	0,100	0,034
-146,804	800,000	0,011	0,031
-145,789	-200,000	-0,002	0,043
-144,775	627,800	-0,047	0,087
-143,760	-87,321	-0,119	-0,026
-142,745	8,971	0,124	0,067
-141,731	-145,608	0,047	0,003
-140,716	490,529	-0,017	-0,028
-139,702	-200,000	-0,033	0,153
-138,687	-16,458	-0,073	0,033
-137,672	-89,784	-0,147	-0,031
-136,658	102,285	-0,136	0,115
-135,643	89,041	0,032	-0,026
-134,629	132,604	-0,014	0,013
-133,614	-5,878	-0,028	-0,014
-132,599	362,325	-0,025	-0,036
-131,585	-12,193	0,069	0,032
-130,570	148,820	0,018	-0,018
-129,556	318,353	-0,027	0,037
-128,541	-200,000	0,011	-0,165
-127,526	-130,922	0,121	-0,012
-126,512	183,721	-0,097	-0,103
-125,497	652,918	-0,010	0,018
-124,483	800,000	0,025	0,076
-123,468	800,000	-0,005	-0,013
-122,453	247,569	-0,122	-0,149
-121,439	-174,956	0,134	-0,003
-120,424	-96,165	-0,087	0,017
-119,410	-200,000	-0,006	0,064
-118,395	183,181	0,096	-0,102
-117,380	-200,000	0,003	0,019
-116,366	-40,625	0,022	0,008
-115,351	800,000	0,022	-0,064
-114,337	93,188	-0,084	-0,069
-113,322	-159,823	0,088	0,003
-112,307	800,000	0,057	-0,150
-111,293	224,615	0,063	0,073
-110,278	29,885	-0,025	0,015
-109,264	800,000	0,016	0,044
-108,249	142,059	-0,056	-0,054
-107,234	116,754	-0,068	-0,060
-106,220	-200,000	0,001	-0,058
-105,205	440,072	0,053	0,084
-104,191	106,911	0,064	0,055
-103,176	-79,842	0,091	0,022
-102,162	-200,000	-0,001	0,124
-101,147	-71,758	-0,150	0,040
-100,132	800,000	0,047	0,125
-99,118	-140,039	0,034	-0,003
-98,103	-200,000	0,135	0,000
-97,089	800,000	-0,041	0,121
-96,074	-200,000	0,008	0,185
-95,059	-104,238	0,024	0,004
-94,045	800,000	0,021	0,060
-93,030	-200,000	-0,001	-0,143
-92,016	-170,122	0,124	-0,003
-91,001	766,789	0,081	0,159
-89,986	-200,000	-0,045	0,182
-88,972	-200,000	0,042	0,151
-87,957	42,022	-0,096	-0,063
-86,943	800,000	-0,035	-0,084
-85,928	-200,000	0,013	-0,098
-84,913	12,232	0,095	-0,053
-83,899	-113,284	0,052	-0,007
-82,884	-96,968	0,072	-0,013
-81,870	57,468	0,111	0,078
-80,855	-200,000	-0,004	-0,111
-79,840	800,000	0,107	-0,246
-78,826	-200,000	-0,013	-0,121
-77,811	144,027	0,113	-0,108
-76,797	254,747	-0,043	0,053
-75,782	117,383	-0,047	-0,042
-74,767	-55,139	0,230	0,074
-73,753	-200,000	0,007	0,141
-72,738	-200,000	-0,013	-0,125
-71,724	-200,000	-0,001	-0,040
-70,709	-200,000	-0,027	0,098
-69,694	79,334	-0,048	0,037
-68,680	51,951	-0,025	0,017
-67,665	292,592	0,116	-0,152
-66,651	800,000	0,022	-0,059
-65,636	-93,439	0,060	0,012
-64,622	-34,838	-0,028	0,011
-63,607	18,235	-0,107	0,061
-62,592	113,355	0,086	-0,075
-61,578	800,000	-0,055	0,117
-60,563	800,000	-0,013	-0,027
-59,549	3,309	-0,114	0,060
-58,534	91,224	-2,520	-2,031
-57,519	341,541	0,269	-0,379
-56,505	-200,000	-1,715	-5,457
-55,490	420,476	1,100	1,698
-54,476	800,000	5,283	11,448
-53,461	-200,000	21,986	344,578
-52,446	800,000	761,458	2310,828
-51,432	518,009	1653,182	2789,920
-50,417	103,711	1617,836	1364,408
-49,403	73,533	1272,863	956,527
-48,388	25,342	1021,869	608,603
-47,373	19,239	988,271	568,377
-46,359	13,445	975,385	541,912
-45,344	9,351	972,262	526,693
-44,330	9,884	969,905	527,145
-43,315	8,777	968,256	522,597
-42,300	8,736	967,001	521,765
-41,286	8,662	966,214	521,078
-40,271	8,706	964,952	520,519
-39,257	8,739	964,063	520,127
-38,242	8,704	963,515	519,698
-37,227	8,677	962,547	519,066
-36,213	8,572	961,876	518,340
-35,198	8,722	960,704	518,177
-34,184	8,780	960,070	518,003
-33,169	8,626	959,211	517,020
-32,154	8,758	958,203	516,882
-31,140	8,717	957,345	516,266
-30,125	8,794	956,390	515,981
-29,111	8,746	955,689	515,428
-28,096	8,724	955,158	515,051
-27,082	8,708	954,472	514,608
-26,067	8,718	953,756	514,235
-25,052	8,713	952,748	513,653
-24,038	8,744	952,030	513,346
-23,023	8,635	951,451	512,660
-22,009	8,712	951,025	512,661
-20,994	8,714	950,267	512,236
-19,979	8,689	949,707	511,835
-18,965	8,681	949,166	511,498
-17,950	8,755	948,461	511,335
-16,936	8,633	947,980	510,664
-15,921	8,681	947,127	510,339
-14,906	8,641	946,351	509,772
-13,892	8,630	945,955	509,501
-12,877	8,630	945,055	508,996
-11,863	8,558	944,643	508,525
-10,848	8,622	943,975	508,351
-9,833	8,671	943,632	508,302
-8,819	8,653	942,620	507,677
-7,804	8,601	942,143	507,235
-6,790	8,619	941,519	506,936
-5,775	8,627	941,173	506,756
-4,760	8,639	940,270	506,289
-3,746	8,620	939,887	506,002
-2,731	8,487	939,081	505,126
-1,717	8,438	938,429	504,597
-0,702	8,441	937,989	504,352
0,313	8,313	937,109	504,233
1,327	11,668	934,814	513,570
2,342	20,326	783,371	453,169
3,356	15,345	449,993	252,758
4,371	-10,829	313,180	148,004
5,386	-14,700	295,404	135,668
6,400	-16,730	289,340	130,855
7,415	-16,922	286,805	129,508
8,429	-17,489	284,852	128,060
9,444	-17,393	284,107	127,808
10,459	-17,226	283,438	127,658
11,473	-17,402	282,826	127,200
12,488	-17,445	282,409	126,959
13,502	-17,475	281,814	126,651
14,517	-17,343	281,439	126,600
15,531	-17,381	280,889	126,304
16,546	-17,266	280,623	126,284
17,561	-17,367	280,359	126,057
18,575	-17,235	280,018	126,018
19,590	-17,395	279,498	125,620
20,604	-17,197	279,173	125,653
21,619	-17,311	278,766	125,349
22,634	-17,318	278,481	125,203
23,648	-17,363	278,148	124,999
24,663	-17,307	277,865	124,914
25,677	-17,391	277,720	124,758
26,692	-17,217	277,413	124,774
27,707	-17,321	277,249	124,591
28,721	-17,272	276,825	124,436
29,736	-17,292	276,458	124,241
30,750	-17,142	276,305	124,303
31,765	-17,084	275,945	124,184
32,780	-17,189	275,907	124,057
33,794	-17,341	275,604	123,766
34,809	-17,327	275,389	123,672
35,823	-17,317	275,007	123,499
36,838	-17,197	274,847	123,529
37,853	-17,305	274,597	123,304
38,867	-17,218	274,148	123,173
39,882	-17,201	274,176	123,191
40,896	-17,150	273,932	123,118
41,911	-17,163	273,422	122,865
42,926	-17,251	273,341	122,736
43,940	-17,323	273,087	122,544
44,955	-17,167	272,800	122,549
45,969	-17,135	272,570	122,465
46,984	-17,194	272,428	122,335
47,999	-17,105	272,196	122,303
49,013	-17,085	271,976	122,212
50,028	-17,100	271,830	122,122
51,042	-17,036	271,542	122,040
52,057	-17,073	271,190	121,837
53,071	-17,187	271,243	121,745
54,086	-17,060	270,843	121,671
55,101	-17,077	270,576	121,525
56,115	-16,999	270,313	121,468
57,130	-17,220	270,265	121,231
58,144	-17,302	269,883	120,973
59,159	-17,331	269,578	120,800
60,174	-17,049	269,235	120,894
61,188	-17,079	269,138	120,813
62,203	-17,303	269,162	120,607
63,217	-17,231	268,697	120,453
64,232	-17,310	268,507	120,285
65,247	-17,275	268,377	120,249
66,261	-17,128	267,847	120,135
67,276	-17,105	267,794	120,121
68,290	-17,372	267,677	119,814
69,305	-16,916	267,332	120,065
70,320	-17,291	267,184	119,646
71,334	-17,154	267,022	119,688
72,349	-17,129	266,576	119,500
73,363	-17,223	266,466	119,355
74,378	-17,175	266,066	119,208
75,393	-17,193	265,996	119,149
76,407	-17,159	265,719	119,045
77,422	-17,249	265,654	118,924
78,436	-17,140	265,448	118,921
79,451	-17,312	265,010	118,558
80,466	-17,285	264,826	118,490
81,480	-17,156	264,659	118,521
82,495	-17,223	264,513	118,384
83,509	-17,021	264,201	118,417
84,524	-17,090	264,038	118,270
85,539	-16,987	263,965	118,320
86,553	-16,983	263,530	118,118
87,568	-17,109	263,521	117,991
88,582	-17,338	263,225	117,642
89,597	-17,429	263,109	117,498
90,611	-17,381	262,792	117,389
91,626	-17,120	262,731	117,584
92,641	-16,985	262,350	117,524
93,655	-17,221	262,195	117,233
94,670	-17,081	261,987	117,256
95,684	-17,201	261,690	117,005
96,699	-17,071	261,477	117,015
97,714	-17,182	261,534	116,931
98,728	-17,094	261,241	116,868
99,743	-17,105	261,054	116,764
100,757	-17,153	260,667	116,538
101,772	-16,910	260,511	116,673
102,787	-16,877	260,130	116,522
103,801	-17,019	259,901	116,283
104,816	-17,215	259,925	116,110
105,830	-17,165	259,707	116,047
106,845	-17,300	259,794	115,956
107,860	-17,209	259,418	115,858
108,874	-17,168	259,252	115,809
109,889	-17,226	258,783	115,539
110,903	-17,291	258,710	115,439
111,918	-17,126	258,489	115,474
112,933	-17,415	258,364	115,155
113,947	-17,244	258,090	115,172
114,962	-17,118	257,943	115,207
115,976	-17,086	257,621	115,080
116,991	-17,383	257,585	114,794
118,006	-17,127	257,272	114,869
119,020	-17,212	257,175	114,740
120,035	-17,164	257,090	114,734
121,049	-17,018	256,704	114,680
122,064	-17,154	256,496	114,457
123,079	-17,044	256,345	114,476
124,093	-17,131	256,174	114,313
125,108	-17,264	256,016	114,117
126,122	-17,131	255,871	114,158
127,137	-17,067	255,651	114,106
128,151	-17,078	255,382	113,965
129,166	-17,054	255,167	113,880
130,181	-17,124	254,972	113,722
131,195	-16,970	254,645	113,700
132,210	-17,120	254,531	113,508
133,224	-17,018	254,324	113,494
134,239	-17,113	254,146	113,323
135,254	-17,277	253,953	113,086
136,268	-17,012	253,691	113,187
137,283	-16,776	253,479	113,286
138,297	-16,801	253,358	113,199
139,312	-17,052	252,992	112,810
140,327	-17,139	252,841	112,659
141,341	-17,250	252,822	112,545
142,356	-17,287	252,449	112,337
143,370	-17,256	252,453	112,355
144,385	-17,048	252,197	112,409
145,400	-17,107	251,982	112,253
146,414	-17,079	251,825	112,197
147,429	-17,006	251,664	112,177
148,443	-16,871	251,281	112,112
149,458	-16,972	251,128	111,947
150,473	-17,173	251,031	111,723
151,487	-17,114	250,805	111,663
152,502	-17,201	250,679	111,523
153,516	-17,227	250,560	111,438
154,531	-17,085	250,241	111,407
155,546	-17,051	250,015	111,324
156,560	-16,914	249,815	111,342
157,575	-17,166	249,765	111,096
158,589	-17,142	249,646	111,054
159,604	-17,059	249,236	110,931
160,619	-16,911	249,238	111,047
161,633	-17,140	248,990	110,733
162,648	-17,101	248,970	110,748
163,662	-16,955	248,642	110,715
164,677	-16,959	248,303	110,551
165,692	-17,093	248,268	110,413
166,706	-17,039	248,191	110,415
167,721	-17,140	248,166	110,308
168,735	-17,235	247,911	110,106
169,750	-17,156	247,714	110,075
170,764	-16,987	247,315	110,029
171,779	-16,960	247,219	109,998
172,794	-16,916	247,106	109,976
173,808	-16,854	246,957	109,951
174,823	-17,094	246,893	109,712
175,837	-16,990	246,778	109,739
176,852	-17,096	246,554	109,541
177,867	-16,928	246,227	109,525
178,881	-17,115	246,229	109,361
179,896	-16,899	245,999	109,429
180,910	-17,091	245,758	109,152
181,925	-17,211	245,564	108,957
182,940	-17,191	245,322	108,856
183,954	-17,001	245,120	108,914
184,969	-17,091	245,128	108,834
185,983	-16,979	244,890	108,811
186,998	-16,935	244,748	108,774
188,013	-16,826	244,480	108,735
189,027	-16,936	244,432	108,614
190,042	-17,133	244,336	108,399
191,056	-17,040	244,025	108,327
192,071	-17,067	243,800	108,196
193,086	-17,080	243,531	108,056
194,100	-17,093	243,503	108,023
195,115	-16,976	243,189	107,970
196,129	-16,859	243,056	107,998
197,144	-17,168	242,895	107,664
198,159	-17,101	242,713	107,628
199,173	-17,183	242,608	107,505
200,188	-17,131	242,391	107,442
201,202	-16,813	242,083	107,555
202,217	-17,121	241,998	107,256
203,232	-17,031	241,829	107,245
204,246	-16,995	241,497	107,119
205,261	-17,377	241,387	106,748
206,275	-16,167	241,763	107,893
207,290	-11,326	243,427	112,597
208,304	-4,907	245,452	118,824
209,319	-1,763	246,369	121,856
210,334	-0,691	246,491	122,791
211,348	0,187	246,623	123,571
212,363	0,516	246,510	123,775
213,377	0,799	246,620	124,051
214,392	1,339	246,479	124,415
215,407	1,419	246,450	124,455
216,421	1,430	246,567	124,512
217,436	1,581	246,254	124,468
218,450	1,699	245,982	124,416
219,465	1,779	245,892	124,425
220,480	1,637	245,857	124,280
221,494	1,468	245,446	123,922
222,509	1,094	245,148	123,455
223,523	0,966	244,959	123,243
224,538	0,861	244,580	122,956
225,553	0,845	244,513	122,898
226,567	0,759	244,324	122,722
227,582	0,892	244,208	122,761
228,596	0,742	244,171	122,609
229,611	0,718	243,896	122,441
230,626	0,608	243,777	122,281
231,640	0,574	243,784	122,245
232,655	0,806	243,328	122,194
233,669	0,851	243,270	122,190
234,684	0,616	243,101	121,904
235,699	0,758	242,939	121,928
236,713	0,968	242,727	121,981
237,728	0,901	242,716	121,910
238,742	0,799	242,501	121,708
239,757	0,559	242,510	121,508
240,772	0,994	242,134	121,659
241,786	0,770	242,026	121,414
242,801	0,858	241,828	121,375
243,815	0,622	241,695	121,107
244,830	0,624	241,678	121,089
245,844	0,669	241,425	120,988
246,859	0,643	241,299	120,892
247,874	0,638	241,150	120,803
248,888	0,844	240,791	120,778
249,903	0,966	240,722	120,831
250,917	0,772	240,710	120,658
251,932	1,090	240,558	120,827
252,947	0,919	240,214	120,506
253,961	0,779	240,230	120,391
254,976	0,834	239,882	120,250
255,990	0,839	239,882	120,243
257,005	0,887	239,727	120,193
258,020	0,744	239,667	120,038
259,034	0,815	239,446	119,974
260,049	0,831	239,143	119,824
261,063	0,877	238,968	119,762
262,078	0,730	238,924	119,612
263,093	0,669	238,711	119,446
264,107	0,794	238,617	119,488
265,122	0,755	238,441	119,358
266,136	0,917	238,348	119,429
267,151	0,765	238,139	119,194
268,166	0,916	238,017	119,241
269,180	0,641	237,846	118,928
270,195	0,571	237,717	118,797
271,209	0,895	237,542	118,955
272,224	0,824	237,312	118,773
273,239	0,569	237,253	118,532
274,253	0,923	236,954	118,651
275,268	0,774	237,034	118,563
276,282	0,861	236,782	118,495
277,297	0,783	236,529	118,297
278,312	0,688	236,523	118,208
279,326	0,774	236,296	118,152
280,341	1,008	236,181	118,268
281,355	0,923	236,047	118,123
282,370	0,767	235,777	117,855
283,384	0,775	235,778	117,851
284,399	0,693	235,650	117,713
285,414	0,651	235,455	117,572
286,428	0,705	235,374	117,563
287,443	0,881	235,128	117,568
288,457	0,945	234,865	117,475
289,472	0,844	234,673	117,290
290,487	0,934	234,616	117,322
291,501	0,810	234,524	117,168
292,516	0,834	234,288	117,059
293,530	0,616	234,346	116,907
294,545	0,969	234,073	117,035
295,560	0,942	233,835	116,885
296,574	0,865	233,716	116,755
297,589	1,010	233,531	116,765
298,603	1,060	233,443	116,749
299,618	0,873	233,306	116,526
300,633	1,085	233,234	116,643
301,647	0,990	233,047	116,466
302,662	0,963	232,928	116,375
303,676	1,108	232,716	116,370
304,691	0,827	232,683	116,126
305,706	0,996	232,370	116,091
306,720	0,856	232,385	115,980
307,735	1,270	232,201	116,197
308,749	0,999	232,061	115,907
309,764	0,894	231,898	115,734
310,779	1,063	231,711	115,761
311,793	0,941	231,567	115,585
312,808	0,988	231,377	115,516
313,822	0,979	231,165	115,393
314,837	1,227	230,988	115,484
315,852	1,108	231,028	115,403
316,866	1,121	230,825	115,301
317,881	1,032	230,652	115,137
318,895	1,115	230,361	115,044
319,910	1,006	230,329	114,934
320,925	1,130	230,199	114,954
321,939	0,759	230,112	114,618
322,954	1,242	229,890	114,864
323,968	1,220	229,661	114,724
324,983	1,103	229,592	114,590
325,997	1,196	229,474	114,591
327,012	1,200	229,223	114,459
328,027	0,979	229,124	114,232
329,041	0,999	229,000	114,175
330,056	1,126	228,915	114,218
331,070	1,138	228,869	114,194
332,085	0,997	228,547	113,917
333,100	1,254	228,395	114,025
334,114	1,224	228,267	113,929
335,129	0,989	228,163	113,689
336,143	0,913	228,078	113,579
337,158	1,245	227,787	113,674
338,173	1,377	227,588	113,664
339,187	1,312	227,522	113,572
340,202	1,209	227,405	113,426
341,216	1,130	227,343	113,326
342,231	1,143	227,122	113,216
343,246	1,154	227,059	113,182
344,260	1,211	226,800	113,085
345,275	1,102	226,782	112,985
346,289	1,134	226,469	112,843
347,304	1,089	226,399	112,764
348,319	1,201	226,227	112,752
349,333	0,957	226,140	112,516
350,348	1,224	225,899	112,586
351,362	1,244	225,794	112,538
352,377	1,098	225,754	112,399
353,392	1,261	225,460	112,364
354,406	1,175	225,513	112,316
355,421	192,597	1312,241	1380,563
356,435	154,294	1444,500	1380,417
