DTS Sentinel unit serial number:	SN410029Multiplexer serial number:	ORYXHardware model number:	OX2-SRSoftware version number:	ORYX F/W v4,00 Oryx Data Collector v3.7.2.0data status	okinstallation	B5 Nyhavnadifferential loss correction	single-endedforward channel	channel 2reverse channel	N/Adate	2023/12/14time	18:17:13forward acquisition time	300,00reverse acquisition time	0,00gamma	499,1914k internal	0,3156k external	0,3156temperature offset calibration	1,0000default loss term (dB/km)	0,3820temperature slope calibration	1,0000multiplexer offset coefficient	1,0000multiplexer slope coefficient	1,0000fibre end	0,00T internal ref (°C)	8,44T ext. ref 1 (°C)	-6,86T ext. ref 2 (°C)	-6,90length (m)	temperature (°C)	Stokes	anti-Stokes-744,400	215,678	0,076	0,089
-743,385	-153,321	-0,407	0,021
-742,371	-89,760	0,317	0,068
-741,356	-158,940	-0,298	0,012
-740,342	-37,868	0,338	0,132
-739,327	-76,351	-0,359	-0,092
-738,312	72,000	0,175	0,134
-737,298	-153,629	-0,554	0,028
-736,283	-26,942	0,161	0,069
-735,269	-38,280	-0,283	-0,110
-734,254	625,007	0,074	0,138
-733,239	-35,277	-0,472	-0,189
-732,225	-12,423	0,234	0,113
-731,210	-200,000	-0,048	0,199
-730,196	551,084	0,046	-0,082
-729,181	170,435	-0,037	0,039
-728,167	-200,000	0,014	0,064
-727,152	-118,008	0,032	0,004
-726,137	2,751	-0,116	-0,062
-725,123	18,273	-0,055	-0,032
-724,108	175,332	-0,032	-0,034
-723,094	272,895	-0,083	-0,108
-722,079	51,109	-0,162	-0,113
-721,064	386,338	0,009	-0,013
-720,050	-200,000	0,002	-0,104
-719,035	131,375	-0,081	0,077
-718,021	-93,332	-0,190	-0,038
-717,006	436,732	-0,005	-0,009
-715,991	293,013	-0,073	-0,099
-714,977	800,000	-0,049	-0,129
-713,962	-142,876	-0,071	-0,005
-712,948	-155,953	0,088	-0,004
-711,933	-200,000	0,018	0,106
-710,918	-30,191	-0,187	0,078
-709,904	670,909	-0,047	-0,090
-708,889	-200,000	-0,054	-0,253
-707,875	210,684	-0,099	0,115
-706,860	317,247	0,094	0,131
-705,845	228,836	0,030	0,036
-704,831	-42,711	0,042	0,016
-703,816	-200,000	0,006	-0,032
-702,802	143,229	-0,080	0,079
-701,787	21,721	0,196	-0,117
-700,772	-200,000	-0,016	0,110
-699,758	309,526	-0,038	0,053
-698,743	-144,486	0,154	-0,010
-697,729	800,000	0,046	0,127
-696,714	-200,000	0,002	0,025
-695,699	7,192	0,060	-0,033
-694,685	-54,540	-0,083	0,028
-693,670	-200,000	0,025	-0,103
-692,656	-44,618	-0,130	0,048
-691,641	800,000	0,026	0,074
-690,627	102,379	-0,093	0,080
-689,612	800,000	-0,034	-0,083
-688,597	-30,545	-0,111	-0,046
-687,583	-200,000	-0,008	-0,046
-686,568	496,692	0,088	-0,149
-685,554	-200,000	0,003	-0,048
-684,539	71,889	-0,048	0,036
-683,524	322,203	0,032	-0,045
-682,510	-38,669	-0,119	-0,046
-681,495	-200,000	0,003	-0,108
-680,481	700,116	0,058	-0,113
-679,466	146,204	-0,013	-0,013
-678,451	-200,000	-0,017	-0,066
-677,437	-75,758	-0,027	-0,007
-676,422	800,000	0,012	0,030
-675,408	176,829	0,057	0,061
-674,393	800,000	-0,048	-0,139
-673,378	533,020	0,071	-0,124
-672,364	-200,000	-0,011	-0,116
-671,349	-118,013	0,034	-0,004
-670,335	-69,923	0,062	-0,017
-669,320	85,947	0,039	0,032
-668,305	204,119	-0,056	0,063
-667,291	800,000	0,013	0,039
-666,276	800,000	-0,037	-0,112
-665,262	800,000	-0,027	0,074
-664,247	-200,000	0,008	-0,076
-663,232	141,304	0,029	-0,029
-662,218	485,467	0,048	0,081
-661,203	631,146	-0,033	0,062
-660,189	-200,000	-0,012	0,077
-659,174	45,594	-0,065	0,044
-658,159	-119,540	-0,082	-0,010
-657,145	589,069	-0,062	-0,113
-656,130	-200,000	0,041	0,202
-655,116	-81,003	-0,064	-0,015
-654,101	38,240	0,089	-0,058
-653,086	79,227	-0,065	-0,051
-652,072	-100,261	-0,069	-0,012
-651,057	-200,000	-0,002	-0,037
-650,043	-200,000	-0,017	-0,142
-649,028	139,459	-0,105	-0,102
-648,014	-200,000	-0,044	0,195
-646,999	649,919	0,018	0,035
-645,984	-133,037	-0,018	-0,002
-644,970	-36,725	-0,220	0,087
-643,955	-57,621	-0,124	0,040
-642,941	-181,391	0,032	-0,000
-641,926	800,000	-0,046	0,098
-640,911	-170,604	0,074	-0,002
-639,897	-94,713	-0,073	0,015
-638,882	-200,000	0,018	-0,062
-637,868	-163,603	-0,125	-0,004
-636,853	-39,801	0,080	0,031
-635,838	-200,000	-0,029	-0,096
-634,824	-144,966	0,072	0,005
-633,809	-200,000	-0,015	0,066
-632,795	-100,977	0,084	-0,015
-631,780	-200,000	-0,025	0,090
-630,765	-200,000	0,078	0,000
-629,751	-200,000	0,000	0,020
-628,736	-26,155	-0,016	-0,007
-627,722	402,981	0,066	0,102
-626,707	212,933	-0,081	0,094
-625,692	-89,767	0,165	0,035
-624,678	72,994	0,034	0,026
-623,663	-200,000	0,011	0,161
-622,649	-146,981	-0,113	-0,007
-621,634	-200,000	0,008	-0,050
-620,619	-3,542	-0,108	-0,055
-619,605	-200,000	-0,004	0,111
-618,590	32,794	0,041	0,026
-617,576	800,000	-0,052	0,153
-616,561	257,434	-0,092	0,116
-615,546	16,832	0,172	-0,100
-614,532	800,000	-0,054	0,151
-613,517	-43,878	-0,141	-0,052
-612,503	-30,771	0,013	-0,005
-611,488	190,624	0,045	0,050
-610,474	51,902	-0,108	0,075
-609,459	800,000	-0,013	0,036
-608,444	-200,000	-0,009	-0,118
-607,430	-45,490	-0,133	0,048
-606,415	50,534	-0,074	-0,052
-605,401	-21,999	0,056	0,025
-604,386	-200,000	-0,142	-0,000
-603,371	-200,000	0,007	0,046
-602,357	-200,000	0,029	0,098
-601,342	11,116	-0,100	-0,056
-600,328	207,059	0,060	0,069
-599,313	608,209	-0,025	0,046
-598,298	800,000	0,030	0,068
-597,284	800,000	0,048	0,150
-596,269	-138,665	-0,115	-0,009
-595,255	152,194	-0,045	-0,045
-594,240	800,000	0,057	-0,123
-593,225	93,575	-0,105	-0,087
-592,211	800,000	0,073	-0,173
-591,196	-200,000	-0,046	-0,151
-590,182	98,414	-0,074	-0,063
-589,167	-200,000	0,029	0,101
-588,152	-15,099	-0,037	0,017
-587,138	-150,337	0,036	0,002
-586,123	-9,416	-0,036	-0,018
-585,109	-200,000	-0,001	-0,023
-584,094	429,179	-0,021	0,033
-583,079	-0,700	0,102	0,053
-582,065	38,216	-0,067	-0,044
-581,050	-25,759	-0,114	0,049
-580,036	-200,000	0,007	0,027
-579,021	-43,986	-0,153	0,056
-578,006	800,000	0,021	0,045
-576,992	800,000	-0,017	-0,047
-575,977	-200,000	-0,019	-0,112
-574,963	800,000	0,049	0,119
-573,948	513,174	-0,018	0,031
-572,934	-165,989	-0,086	0,003
-571,919	-200,000	-0,023	-0,182
-570,904	220,432	-0,086	-0,101
-569,890	-123,401	0,112	-0,013
-568,875	-54,399	-0,008	0,003
-567,861	60,246	0,131	-0,094
-566,846	36,048	0,103	-0,067
-565,831	-200,000	0,009	-0,030
-564,817	201,346	-0,004	-0,004
-563,802	-200,000	0,003	-0,099
-562,788	-111,242	0,084	-0,012
-561,773	800,000	0,034	0,096
-560,758	-160,981	-0,027	-0,001
-559,744	-91,787	0,087	0,018
-558,729	7,292	-0,095	0,052
-557,715	800,000	-0,051	-0,115
-556,700	115,242	0,069	-0,062
-555,685	561,460	0,034	-0,061
-554,671	-123,519	0,114	-0,013
-553,656	480,979	0,068	-0,114
-552,642	264,316	-0,058	0,074
-551,627	227,315	0,027	0,032
-550,612	-115,151	-0,041	-0,006
-549,598	-192,147	-0,156	0,001
-548,583	52,394	-0,150	-0,105
-547,569	565,324	-0,036	-0,064
-546,554	-200,000	-0,001	-0,030
-545,539	-200,000	0,006	-0,073
-544,525	800,000	0,011	0,029
-543,510	166,971	-0,043	-0,044
-542,496	800,000	0,060	-0,150
-541,481	-200,000	-0,010	-0,051
-540,466	-51,784	0,121	0,041
-539,452	34,692	0,069	-0,044
-538,437	49,684	0,094	0,065
-537,423	-200,000	0,009	0,134
-536,408	-200,000	-0,009	-0,036
-535,393	-147,130	0,086	0,005
-534,379	259,313	-0,068	0,086
-533,364	-4,533	-0,061	0,031
-532,350	-200,000	0,018	-0,062
-531,335	248,151	0,058	0,072
-530,321	-200,000	0,016	0,065
-529,306	278,467	0,059	-0,077
-528,291	-200,000	-0,028	-0,138
-527,277	-103,678	-0,094	-0,016
-526,262	-128,674	-0,074	0,007
-525,248	-200,000	-0,042	0,136
-524,233	-38,734	-0,057	-0,022
-523,218	-31,384	0,115	-0,047
-522,204	800,000	-0,041	-0,083
-521,189	225,513	-0,033	0,039
-520,175	330,493	-0,055	-0,078
-519,160	-200,000	-0,017	-0,136
-518,145	530,494	0,048	-0,084
-517,131	-3,129	-0,057	-0,029
-516,116	718,289	-0,060	-0,118
-515,102	113,990	-0,086	0,077
-514,087	100,346	-0,048	-0,041
-513,072	-200,000	0,002	0,082
-512,058	152,089	-0,070	-0,070
-511,043	-133,449	0,023	-0,002
-510,029	-27,304	0,030	0,013
-509,014	-0,606	0,049	0,025
-507,999	-58,404	0,062	-0,019
-506,985	531,254	-0,019	-0,033
-505,970	800,000	-0,054	0,111
-504,956	-200,000	0,026	0,154
-503,941	-200,000	0,005	-0,042
-502,926	118,568	0,074	-0,067
-501,912	-55,343	-0,078	0,025
-500,897	-55,746	0,120	0,039
-499,883	416,720	0,062	-0,097
-498,868	-200,000	0,002	-0,082
-497,853	-117,853	-0,105	0,014
-496,839	1,077	-0,055	-0,029
-495,824	-97,003	-0,032	-0,006
-494,810	-136,296	-0,113	0,009
-493,795	367,517	0,050	0,074
-492,781	50,134	-0,050	-0,034
-491,766	119,434	-0,091	0,082
-490,751	-200,000	0,002	-0,016
-489,737	640,334	0,035	0,066
-488,722	-200,000	0,026	0,099
-487,708	800,000	0,044	0,110
-486,693	50,452	0,058	-0,040
-485,678	-200,000	0,007	-0,085
-484,664	-200,000	0,000	-0,105
-483,649	-16,351	0,070	-0,032
-482,635	-5,867	-0,159	0,079
-481,620	-99,026	0,091	-0,017
-480,605	20,965	-0,055	-0,032
-479,591	-107,805	0,092	0,015
-478,576	-200,000	-0,012	0,100
-477,562	-200,000	0,016	0,099
-476,547	13,500	0,167	-0,094
-475,532	-69,555	-0,093	-0,026
-474,518	800,000	-0,021	0,048
-473,503	-200,000	-0,006	-0,075
-472,489	-43,509	0,034	0,012
-471,474	-29,039	-0,085	0,035
-470,459	-200,000	-0,037	-0,164
-469,445	-111,414	-0,227	-0,033
-468,430	3,631	0,102	-0,054
-467,416	-200,000	-0,036	0,139
-466,401	-150,469	0,096	-0,005
-465,386	-200,000	0,008	0,083
-464,372	800,000	0,046	0,113
-463,357	259,602	0,081	-0,103
-462,343	-89,420	-0,094	-0,020
-461,328	31,848	-0,069	0,043
-460,313	800,000	0,019	0,048
-459,299	-98,526	0,191	0,035
-458,284	-200,000	0,001	0,061
-457,270	-200,000	-0,001	0,039
-456,255	-46,480	0,100	-0,036
-455,241	46,943	-0,075	-0,051
-454,226	343,930	-0,022	0,032
-453,211	800,000	-0,061	0,180
-452,197	-21,220	0,157	-0,070
-451,182	-200,000	0,018	0,136
-450,168	237,957	-0,054	0,065
-449,153	-62,674	-0,062	-0,019
-448,138	43,503	0,096	-0,064
-447,124	-120,020	-0,159	-0,020
-446,109	280,159	-0,045	-0,058
-445,095	22,489	0,063	-0,038
-444,080	580,969	0,024	-0,044
-443,065	-200,000	0,005	0,084
-442,051	552,368	0,044	-0,077
-441,036	75,889	-0,090	0,069
-440,022	800,000	0,046	-0,103
-439,007	77,699	-0,115	-0,089
-437,992	239,772	0,045	-0,055
-436,978	-200,000	-0,005	0,069
-435,963	-48,877	0,082	-0,028
-434,949	800,000	0,021	-0,042
-433,934	433,033	-0,089	-0,141
-432,919	-170,725	0,046	-0,001
-431,905	-175,408	-0,084	-0,002
-430,890	-200,000	0,032	0,137
-429,876	80,361	0,004	0,003
-428,861	-89,140	0,056	-0,012
-427,846	335,936	-0,069	-0,098
-426,832	-200,000	-0,000	0,022
-425,817	-200,000	-0,004	-0,083
-424,803	-32,918	0,080	-0,032
-423,788	-200,000	-0,005	-0,069
-422,773	324,366	-0,067	-0,094
-421,759	155,659	0,075	-0,075
-420,744	18,263	-0,178	-0,104
-419,730	-200,000	0,001	0,112
-418,715	156,607	-0,041	0,041
-417,701	800,000	-0,039	-0,099
-416,686	800,000	0,016	-0,037
-415,671	-115,872	-0,101	0,014
-414,657	-81,705	0,157	-0,037
-413,642	-108,588	-0,122	0,019
-412,628	177,013	0,071	-0,075
-411,613	316,805	0,073	-0,100
-410,598	670,613	-0,045	-0,086
-409,584	-13,912	0,024	-0,011
-408,569	614,675	-0,055	0,101
-407,555	-200,000	0,014	0,088
-406,540	800,000	0,023	0,058
-405,525	351,650	-0,022	-0,032
-404,511	-14,740	-0,069	-0,032
-403,496	-56,687	-0,124	0,040
-402,482	352,177	0,083	0,119
-401,467	800,000	0,025	0,070
-400,452	-25,490	-0,109	-0,047
-399,438	146,799	-0,043	-0,042
-398,423	-200,000	0,037	0,128
-397,409	-5,583	-0,039	0,019
-396,394	-14,037	-0,086	-0,040
-395,379	-110,360	0,051	-0,008
-394,365	-21,254	-0,037	-0,016
-393,350	187,746	-0,050	0,054
-392,336	-200,000	-0,010	-0,051
-391,321	-200,000	0,024	-0,129
-390,306	-78,262	0,023	-0,006
-389,292	138,488	-0,054	-0,052
-388,277	-52,108	0,102	-0,034
-387,263	-200,000	0,026	0,095
-386,248	800,000	-0,025	-0,057
-385,233	349,012	0,045	-0,065
-384,219	402,894	0,022	-0,034
-383,204	-200,000	-0,003	-0,142
-382,190	5,786	-0,080	-0,043
-381,175	-200,000	0,002	0,109
-380,160	-76,943	0,116	-0,029
-379,146	-200,000	-0,001	0,214
-378,131	70,365	0,034	0,026
-377,117	-200,000	0,002	-0,118
-376,102	-139,137	-0,156	-0,012
-375,088	556,859	0,094	-0,165
-374,073	78,062	0,106	-0,082
-373,058	380,390	0,021	-0,032
-372,044	-123,196	-0,102	0,012
-371,029	270,014	-0,130	0,166
-370,015	-112,480	0,110	0,016
-369,000	114,023	0,095	-0,084
-367,985	-152,924	0,067	-0,003
-366,971	565,507	0,065	0,114
-365,956	728,731	0,020	-0,039
-364,942	-123,644	0,125	0,014
-363,927	487,116	0,103	0,171
-362,912	-200,000	0,025	0,150
-361,898	252,070	-0,102	-0,127
-360,883	674,932	0,076	0,144
-359,869	-200,000	0,008	-0,109
-358,854	353,799	0,012	-0,017
-357,839	-200,000	0,014	0,169
-356,825	-140,557	0,018	-0,001
-355,810	-117,519	-0,104	0,013
-354,796	800,000	0,054	-0,159
-353,781	800,000	0,092	-0,246
-352,766	-200,000	-0,003	-0,058
-351,752	222,025	-0,050	-0,059
-350,737	800,000	-0,051	-0,123
-349,723	-200,000	0,004	0,128
-348,708	800,000	0,023	0,054
-347,693	800,000	-0,018	-0,049
-346,679	-200,000	-0,005	-0,034
-345,664	-128,168	0,163	0,017
-344,650	-200,000	-0,043	0,173
-343,635	-200,000	-0,012	0,113
-342,620	501,879	-0,007	0,012
-341,606	-200,000	-0,015	-0,088
-340,591	95,674	-0,032	-0,027
-339,577	-200,000	0,014	-0,060
-338,562	800,000	-0,025	-0,071
-337,548	-24,242	-0,048	-0,021
-336,533	154,045	-0,051	0,051
-335,518	800,000	0,007	-0,020
-334,504	-74,270	-0,046	0,012
-333,489	198,578	0,043	0,048
-332,475	-56,832	0,091	0,029
-331,460	-67,525	0,037	-0,011
-330,445	51,610	0,072	0,050
-329,431	800,000	0,017	-0,045
-328,416	31,156	0,148	-0,092
-327,402	-200,000	-0,001	0,020
-326,387	-200,000	0,054	-0,200
-325,372	-200,000	0,014	0,062
-324,358	-92,844	-0,127	-0,026
-323,343	-120,626	-0,080	0,010
-322,329	-200,000	0,005	0,069
-321,314	512,550	-0,038	0,065
-320,299	-49,875	0,064	0,022
-319,285	-78,427	-0,158	0,039
-318,270	-37,918	0,065	0,025
-317,256	-200,000	0,012	-0,161
-316,241	272,314	-0,075	0,096
-315,226	800,000	-0,042	-0,109
-314,212	12,164	0,072	0,040
-313,197	-112,465	0,144	0,021
-312,183	14,063	-0,033	0,018
-311,168	255,179	0,081	-0,100
-310,153	82,946	-0,068	0,053
-309,139	-36,516	-0,047	-0,018
-308,124	-130,824	-0,076	-0,007
-307,110	454,348	0,032	-0,052
-306,095	-115,948	0,151	-0,020
-305,080	-79,017	-0,146	-0,036
-304,066	800,000	0,028	-0,081
-303,051	76,935	-0,124	-0,096
-302,037	-77,651	0,053	-0,013
-301,022	314,470	0,041	0,056
-300,008	-200,000	-0,029	0,157
-298,993	176,944	-0,026	0,027
-297,978	-200,000	-0,016	-0,112
-296,964	800,000	-0,084	-0,170
-295,949	145,201	0,023	-0,022
-294,935	-200,000	0,009	-0,058
-293,920	-14,675	-0,072	-0,033
-292,905	-122,643	0,070	-0,008
-291,891	-148,123	0,036	0,002
-290,876	205,859	-0,029	0,033
-289,862	231,243	0,009	-0,011
-288,847	38,798	0,026	-0,017
-287,832	-55,986	-0,080	-0,026
-286,818	800,000	-0,051	0,108
-285,803	14,453	0,083	-0,047
-284,789	5,784	0,066	-0,035
-283,774	-123,883	-0,066	-0,007
-282,759	326,577	0,057	0,079
-281,745	92,777	-0,111	0,091
-280,730	568,559	0,012	0,022
-279,716	-200,000	0,012	-0,080
-278,701	-200,000	-0,013	0,046
-277,686	-200,000	-0,003	0,114
-276,672	-122,493	0,023	-0,003
-275,657	138,534	0,045	-0,042
-274,643	800,000	-0,039	-0,083
-273,628	-20,185	-0,051	-0,023
-272,613	-200,000	0,008	-0,038
-271,599	-200,000	0,011	0,051
-270,584	117,128	0,033	0,029
-269,570	800,000	-0,015	0,045
-268,555	83,706	-0,037	-0,029
-267,540	-200,000	0,007	-0,086
-266,526	-200,000	0,014	-0,098
-265,511	550,836	-0,035	-0,061
-264,497	33,460	0,082	0,052
-263,482	-143,091	-0,061	0,004
-262,467	13,369	0,047	0,026
-261,453	68,713	0,084	0,062
-260,438	58,475	-0,146	-0,103
-259,424	-200,000	-0,021	-0,095
-258,409	85,202	0,052	0,041
-257,395	711,518	-0,091	0,175
-256,380	-200,000	-0,006	-0,039
-255,365	800,000	-0,063	0,144
-254,351	28,283	0,066	0,040
-253,336	-91,957	0,080	0,016
-252,322	81,547	-0,113	-0,088
-251,307	321,728	0,074	-0,103
-250,292	413,234	0,035	-0,054
-249,278	800,000	0,034	0,098
-248,263	230,561	0,085	0,101
-247,249	-200,000	-0,001	0,093
-246,234	-200,000	-0,009	-0,060
-245,219	69,478	-0,038	0,028
-244,205	570,951	0,111	-0,196
-243,190	-200,000	-0,003	0,043
-242,176	-124,044	0,124	-0,014
-241,161	800,000	0,082	0,208
-240,146	-4,922	0,092	-0,046
-239,132	330,293	-0,029	0,040
-238,117	-200,000	0,011	-0,074
-237,103	-200,000	-0,000	-0,082
-236,088	741,051	0,061	-0,119
-235,073	-16,411	0,042	0,019
-234,059	-200,000	-0,003	-0,062
-233,044	87,964	0,014	0,012
-232,030	-200,000	0,010	0,141
-231,015	-99,683	-0,060	-0,011
-230,000	95,513	-0,056	-0,046
-228,986	-86,399	-0,019	-0,004
-227,971	38,033	0,063	0,040
-226,957	-59,113	-0,096	0,030
-225,942	120,920	-0,034	0,030
-224,927	-200,000	0,015	0,075
-223,913	-28,524	0,056	0,023
-222,898	11,250	-0,038	0,021
-221,884	51,182	0,155	0,106
-220,869	472,006	-0,030	0,050
-219,855	-61,569	0,116	-0,035
-218,840	694,890	0,064	0,121
-217,825	-102,838	0,125	-0,021
-216,811	-122,469	-0,021	-0,002
-215,796	260,813	0,035	-0,044
-214,782	89,120	-0,074	-0,059
-213,767	8,163	0,032	-0,017
-212,752	-79,598	0,030	0,007
-211,738	-72,111	0,117	0,031
-210,723	-200,000	0,010	0,128
-209,709	216,799	-0,054	-0,062
-208,694	69,995	0,037	-0,028
-207,679	224,855	-0,099	0,116
-206,665	-126,642	0,081	0,009
-205,650	-45,412	0,101	0,036
-204,636	219,364	-0,058	0,067
-203,621	-122,981	0,212	0,024
-202,606	486,747	-0,057	-0,095
-201,592	-200,000	0,015	-0,102
-200,577	54,346	-0,087	-0,061
-199,563	-182,890	0,150	-0,002
-198,548	277,633	-0,065	0,084
-197,533	-8,763	0,053	0,025
-196,519	675,796	0,036	0,068
-195,504	-9,422	-0,035	-0,017
-194,490	-200,000	-0,019	0,067
-193,475	184,726	-0,075	-0,080
-192,460	45,149	0,177	0,118
-191,446	27,043	0,081	-0,049
-190,431	364,197	-0,032	0,047
-189,417	-147,968	-0,087	0,005
-188,402	104,564	-0,095	-0,081
-187,387	346,123	0,014	-0,020
-186,373	284,929	-0,119	-0,155
-185,358	144,603	0,087	-0,084
-184,344	543,938	0,074	0,128
-183,329	-74,123	-0,028	0,007
-182,315	270,755	0,062	0,079
-181,300	292,260	-0,063	-0,083
-180,285	-200,000	0,011	0,076
-179,271	-47,029	0,080	-0,028
-178,256	-119,542	0,060	0,007
-177,242	-200,000	-0,042	0,172
-176,227	-65,649	-0,066	0,019
-175,212	-200,000	0,040	0,151
-174,198	297,000	-0,039	0,052
-173,183	140,844	-0,043	0,041
-172,169	-200,000	0,003	-0,221
-171,154	-200,000	-0,025	-0,085
-170,139	201,940	0,095	0,105
-169,125	-21,574	0,153	0,067
-168,110	215,442	-0,091	-0,105
-167,096	207,023	-0,071	0,080
-166,081	-200,000	-0,020	-0,146
-165,066	-200,000	0,005	-0,083
-164,052	78,731	0,083	0,064
-163,037	3,314	-0,046	0,024
-162,023	-34,669	-0,060	0,024
-161,008	-126,366	-0,087	0,009
-159,993	55,751	0,058	0,040
-158,979	-72,948	0,047	0,012
-157,964	-2,444	0,146	0,073
-156,950	800,000	-0,060	0,161
-155,935	491,091	-0,043	0,071
-154,920	-200,000	0,036	0,176
-153,906	0,687	-0,073	0,038
-152,891	-12,537	0,081	-0,038
-151,877	800,000	0,035	-0,079
-150,862	71,095	0,064	-0,048
-149,847	-200,000	-0,014	0,054
-148,833	-200,000	-0,033	0,163
-147,818	243,497	0,007	-0,009
-146,804	-188,359	-0,031	-0,000
-145,789	-69,261	-0,033	-0,009
-144,775	390,903	0,091	-0,137
-143,760	-200,000	-0,003	0,035
-142,745	260,618	0,068	-0,084
-141,731	785,609	0,035	0,070
-140,716	5,978	0,081	0,043
-139,702	283,219	0,018	-0,023
-138,687	382,657	-0,049	0,073
-137,672	-200,000	-0,017	-0,110
-136,658	-200,000	-0,011	-0,049
-135,643	544,457	0,045	-0,077
-134,629	93,714	-0,009	0,007
-133,614	-200,000	-0,003	0,188
-132,599	800,000	0,022	0,059
-131,585	-82,358	0,070	0,016
-130,570	63,409	0,021	-0,016
-129,556	-200,000	0,018	-0,089
-128,541	-200,000	0,002	-0,016
-127,526	9,267	0,088	-0,048
-126,512	-126,601	-0,122	0,013
-125,497	244,693	0,130	0,158
-124,483	33,798	-0,040	-0,025
-123,468	-200,000	-0,009	0,040
-122,453	-52,828	0,017	0,005
-121,439	-141,260	-0,167	0,012
-120,424	223,097	-0,040	-0,047
-119,410	0,381	0,157	-0,080
-118,395	-128,388	-0,087	0,009
-117,380	-200,000	-0,008	0,074
-116,366	120,203	0,106	0,094
-115,351	-101,846	-0,058	0,010
-114,337	431,268	0,013	-0,020
-113,322	-200,000	-0,001	-0,044
-112,307	238,285	0,012	0,015
-111,293	-30,637	0,066	-0,027
-110,278	122,052	0,041	0,037
-109,264	-170,572	0,054	-0,001
-108,249	476,828	-0,025	0,041
-107,234	-108,071	0,036	0,005
-106,220	-200,000	-0,028	-0,125
-105,205	800,000	-0,022	0,046
-104,191	205,133	0,116	0,130
-103,176	-200,000	0,009	0,086
-102,162	423,591	-0,029	0,045
-101,147	-130,367	0,066	0,006
-100,132	-134,432	-0,052	0,004
-99,118	-18,343	0,076	-0,034
-98,103	242,622	-0,123	0,149
-97,089	-48,690	0,089	0,031
-96,074	-200,000	-0,038	0,157
-95,059	-77,000	-0,071	0,018
-94,045	662,182	0,033	-0,062
-93,030	18,258	-0,007	-0,004
-92,016	108,230	-0,071	-0,061
-91,001	140,571	0,038	0,036
-89,986	106,929	0,048	-0,041
-88,972	93,835	-0,022	0,018
-87,957	320,435	0,052	0,071
-86,943	-67,691	-0,090	-0,025
-85,928	-140,165	-0,136	-0,010
-84,913	35,932	-0,119	0,075
-83,899	312,520	0,057	0,077
-82,884	-135,379	-0,196	-0,017
-81,870	9,553	0,074	0,040
-80,855	239,649	-0,036	-0,043
-79,840	-200,000	-0,009	0,135
-78,826	26,836	-0,095	-0,057
-77,811	-128,581	0,038	0,004
-76,797	800,000	-0,036	0,074
-75,782	304,472	0,048	-0,064
-74,767	548,185	-0,071	0,123
-73,753	-200,000	-0,021	0,076
-72,738	-91,578	-0,012	0,002
-71,724	215,529	-0,106	0,121
-70,709	-128,374	-0,156	0,016
-69,694	142,837	-0,110	-0,105
-68,680	157,346	0,113	0,112
-67,665	30,350	-0,100	0,061
-66,651	-52,616	0,090	-0,030
-65,636	279,649	0,046	0,060
-64,622	-200,000	0,015	-0,108
-63,607	-12,671	-0,211	-0,099
-62,592	-25,526	-0,092	0,039
-61,578	800,000	0,039	0,111
-60,563	800,000	-0,053	0,157
-59,549	610,597	-0,047	0,085
-58,534	82,075	-2,494	-1,940
-57,519	-34,513	0,473	-0,185
-56,505	-200,000	-1,638	-5,339
-55,490	675,644	1,112	2,082
-54,476	800,000	5,136	11,150
-53,461	-200,000	21,966	343,182
-52,446	800,000	761,418	2304,133
-51,432	516,087	1652,688	2782,956
-50,417	102,883	1617,104	1358,914
-49,403	72,603	1272,683	952,065
-48,388	24,989	1021,552	606,808
-47,373	19,054	987,924	567,186
-46,359	13,238	975,064	540,693
-45,344	9,086	971,910	525,281
-44,330	9,640	969,761	525,918
-43,315	8,626	967,815	521,517
-42,300	8,559	966,670	520,660
-41,286	8,511	965,472	519,839
-40,271	8,523	964,689	519,435
-39,257	8,459	963,958	518,811
-38,242	8,438	962,878	518,141
-37,227	8,466	962,035	517,759
-36,213	8,407	961,491	517,253
-35,198	8,510	960,441	517,004
-34,184	8,546	959,746	516,725
-33,169	8,414	958,821	515,777
-32,154	8,530	957,909	515,644
-31,140	8,503	956,970	515,031
-30,125	8,513	956,009	514,524
-29,111	8,476	955,379	514,045
-28,096	8,517	954,761	513,824
-27,082	8,478	954,041	513,290
-26,067	8,417	953,391	512,724
-25,052	8,423	952,488	512,237
-24,038	8,398	951,852	511,793
-23,023	8,423	951,247	511,530
-22,009	8,442	950,661	511,254
-20,994	8,502	950,042	511,094
-19,979	8,489	949,436	510,708
-18,965	8,403	948,851	510,096
-17,950	8,456	948,313	509,956
-16,936	8,421	947,460	509,364
-15,921	8,489	946,562	509,079
-14,906	8,373	945,904	508,336
-13,892	8,369	945,539	508,105
-12,877	8,397	944,731	507,740
-11,863	8,344	944,236	507,284
-10,848	8,359	943,672	507,008
-9,833	8,415	943,094	506,857
-8,819	8,455	942,277	506,525
-7,804	8,411	941,726	506,070
-6,790	8,363	941,144	505,585
-5,775	8,406	940,689	505,456
-4,760	8,379	940,161	505,065
-3,746	8,398	939,420	504,710
-2,731	8,237	938,623	503,748
-1,717	8,237	938,051	503,421
-0,702	8,227	937,339	502,988
0,313	8,057	936,653	502,840
1,327	11,652	934,502	513,008
2,342	20,488	782,991	453,074
3,356	15,817	449,859	253,230
4,371	-10,593	313,105	148,124
5,386	-14,169	295,499	136,161
6,400	-16,157	289,422	131,374
7,415	-16,704	286,784	129,627
8,429	-17,606	284,899	127,882
9,444	-17,755	284,003	127,324
10,459	-17,657	283,326	127,104
11,473	-17,803	282,801	126,715
12,488	-17,685	282,177	126,539
13,502	-17,681	281,586	126,266
14,517	-17,740	281,297	126,068
15,531	-18,008	280,799	125,576
16,546	-17,843	280,551	125,613
17,561	-17,934	280,086	125,305
18,575	-17,695	279,640	125,324
19,590	-17,817	279,166	124,984
20,604	-17,629	279,044	125,098
21,619	-17,848	278,693	124,721
22,634	-17,837	278,365	124,573
23,648	-17,756	277,929	124,444
24,663	-17,742	277,833	124,403
25,677	-17,679	277,496	124,301
26,692	-17,706	277,128	124,099
27,707	-17,710	276,971	124,014
28,721	-17,784	276,615	123,774
29,736	-17,761	276,502	123,733
30,750	-17,802	276,159	123,531
31,765	-17,796	276,028	123,466
32,780	-17,669	275,648	123,406
33,794	-17,772	275,615	123,282
34,809	-17,655	275,083	123,144
35,823	-17,839	274,908	122,882
36,838	-17,885	274,603	122,691
37,853	-17,708	274,284	122,703
38,867	-17,771	274,070	122,538
39,882	-17,923	273,967	122,338
40,896	-17,895	273,741	122,252
41,911	-17,600	273,347	122,342
42,926	-17,810	273,198	122,068
43,940	-17,815	272,951	121,942
44,955	-17,872	272,678	121,756
45,969	-17,698	272,487	121,822
46,984	-17,800	272,395	121,675
47,999	-17,668	272,145	121,675
49,013	-17,617	271,861	121,585
50,028	-17,676	271,753	121,471
51,042	-17,561	271,360	121,391
52,057	-17,824	271,264	121,093
53,071	-17,555	270,802	121,126
54,086	-17,638	270,718	121,001
55,101	-17,598	270,488	120,924
56,115	-17,591	270,309	120,839
57,130	-17,696	270,080	120,629
58,144	-17,576	269,694	120,557
59,159	-17,749	269,540	120,318
60,174	-17,847	269,352	120,133
61,188	-17,702	269,071	120,130
62,203	-17,501	268,904	120,230
63,217	-17,601	268,635	120,007
64,232	-17,699	268,495	119,844
65,247	-17,751	268,252	119,677
66,261	-17,779	267,994	119,525
67,276	-17,830	267,775	119,371
68,290	-17,519	267,446	119,497
69,305	-17,716	267,411	119,291
70,320	-17,515	266,999	119,280
71,334	-17,717	266,829	119,009
72,349	-17,693	266,436	118,845
73,363	-17,600	266,314	118,865
74,378	-17,754	266,246	118,683
75,393	-17,745	265,876	118,517
76,407	-17,504	265,603	118,603
77,422	-17,567	265,580	118,525
78,436	-17,576	265,262	118,364
79,451	-17,651	265,080	118,204
80,466	-17,627	264,695	118,044
81,480	-17,467	264,513	118,096
82,495	-17,687	264,339	117,810
83,509	-17,584	264,233	117,845
84,524	-17,607	264,015	117,717
85,539	-17,523	263,797	117,684
86,553	-17,536	263,637	117,591
87,568	-17,548	263,274	117,408
88,582	-17,732	263,159	117,181
89,597	-17,830	262,974	117,000
90,611	-17,631	262,884	117,129
91,626	-17,572	262,387	116,949
92,641	-17,655	262,269	116,812
93,655	-17,641	262,235	116,799
94,670	-17,481	261,839	116,754
95,684	-17,663	261,687	116,514
96,699	-17,752	261,544	116,361
97,714	-17,651	261,351	116,355
98,728	-17,449	261,018	116,376
99,743	-17,456	260,931	116,320
100,757	-17,583	260,734	116,110
101,772	-17,655	260,563	115,959
102,787	-17,657	260,230	115,798
103,801	-17,589	260,021	115,755
104,816	-17,687	259,926	115,616
105,830	-17,606	259,770	115,608
106,845	-17,573	259,605	115,553
107,860	-17,458	259,323	115,519
108,874	-17,634	258,991	115,206
109,889	-17,658	258,781	115,081
110,903	-17,729	258,709	114,976
111,918	-17,623	258,321	114,887
112,933	-17,381	258,013	114,951
113,947	-17,470	257,926	114,825
114,962	-17,751	257,949	114,578
115,976	-17,487	257,625	114,655
116,991	-17,595	257,531	114,509
118,006	-17,600	257,346	114,412
119,020	-17,563	257,098	114,324
120,035	-17,700	257,013	114,156
121,049	-17,438	256,752	114,259
122,064	-17,570	256,650	114,087
123,079	-17,591	256,314	113,910
124,093	-17,605	256,150	113,815
125,108	-17,399	255,817	113,836
126,122	-17,549	255,714	113,649
127,137	-17,608	255,541	113,511
128,151	-17,684	255,518	113,425
129,166	-17,702	255,215	113,264
130,181	-17,560	254,908	113,241
131,195	-17,503	254,631	113,158
132,210	-17,718	254,509	112,907
133,224	-17,558	254,371	112,974
134,239	-17,705	254,245	112,781
135,254	-17,523	253,934	112,790
136,268	-17,473	253,713	112,725
137,283	-17,513	253,558	112,612
138,297	-17,577	253,429	112,489
139,312	-17,481	253,129	112,429
140,327	-17,406	252,973	112,413
141,341	-17,490	252,906	112,302
142,356	-17,568	252,648	112,110
143,370	-17,563	252,395	111,992
144,385	-17,485	252,223	111,973
145,400	-17,501	251,990	111,845
146,414	-17,528	251,805	111,730
147,429	-17,511	251,641	111,663
148,443	-17,480	251,592	111,657
149,458	-17,431	251,233	111,529
150,473	-17,459	251,127	111,449
151,487	-17,272	250,818	111,460
152,502	-17,449	250,710	111,252
153,516	-17,670	250,583	110,998
154,531	-17,571	250,249	110,924
155,546	-17,616	250,166	110,839
156,560	-17,443	250,021	110,912
157,575	-17,409	249,678	110,778
158,589	-17,399	249,674	110,775
159,604	-17,349	249,332	110,656
160,619	-17,646	249,166	110,321
161,633	-17,342	248,939	110,468
162,648	-17,494	248,919	110,320
163,662	-17,607	248,819	110,171
164,677	-17,475	248,588	110,171
165,692	-17,425	248,403	110,121
166,706	-17,480	248,160	109,957
167,721	-17,351	247,996	109,983
168,735	-17,389	247,783	109,846
169,750	-17,640	247,833	109,649
170,764	-17,586	247,530	109,550
171,779	-17,502	247,358	109,534
172,794	-17,474	247,241	109,497
173,808	-17,438	247,160	109,481
174,823	-17,378	246,834	109,377
175,837	-17,362	246,742	109,339
176,852	-17,343	246,505	109,240
177,867	-17,486	246,344	109,041
178,881	-17,598	246,305	108,920
179,896	-17,488	246,126	108,923
180,910	-17,509	245,873	108,784
181,925	-17,342	245,646	108,812
182,940	-17,631	245,667	108,572
183,954	-17,352	245,246	108,608
184,969	-17,388	245,155	108,528
185,983	-17,370	244,856	108,400
186,998	-17,468	244,693	108,238
188,013	-17,434	244,722	108,268
189,027	-17,345	244,265	108,130
190,042	-17,350	244,187	108,082
191,056	-17,357	243,976	107,973
192,071	-17,430	244,021	107,924
193,086	-17,403	243,735	107,810
194,100	-17,330	243,558	107,781
195,115	-17,506	243,295	107,511
196,129	-17,353	243,028	107,509
197,144	-17,306	242,921	107,491
198,159	-17,255	242,672	107,413
199,173	-17,368	242,630	107,292
200,188	-17,212	242,361	107,291
201,202	-17,312	242,329	107,185
202,217	-17,509	242,141	106,931
203,232	-17,541	241,835	106,761
204,246	-17,346	241,589	106,802
205,261	-17,154	241,736	107,014
206,275	-15,772	242,244	108,358
207,290	-11,306	243,493	112,569
208,304	-5,975	245,361	117,821
209,319	-2,936	246,041	120,645
210,334	-2,575	246,164	120,993
211,348	-1,734	246,309	121,747
212,363	-0,907	246,143	122,336
213,377	-0,665	246,335	122,620
214,392	-0,205	246,269	122,956
215,407	0,283	246,372	123,398
216,421	0,280	245,958	123,178
217,436	0,287	246,026	123,206
218,450	0,592	245,701	123,283
219,465	0,512	245,806	123,259
220,480	0,706	245,499	123,252
221,494	0,532	245,471	123,085
222,509	0,381	245,109	122,769
223,523	-0,024	245,110	122,427
224,538	0,131	244,676	122,326
225,553	0,091	244,431	122,160
226,567	0,036	244,372	122,074
227,582	0,063	244,305	122,052
228,596	-0,019	244,129	121,886
229,611	-0,028	243,994	121,801
230,626	0,007	243,758	121,701
231,640	-0,046	243,645	121,590
232,655	-0,081	243,442	121,449
233,669	-0,229	243,365	121,280
234,684	0,016	243,078	121,325
235,699	0,079	242,934	121,293
236,713	0,061	242,739	121,171
237,728	0,038	242,701	121,122
238,742	-0,223	242,493	120,796
239,757	0,141	242,230	120,949
240,772	-0,123	242,202	120,710
241,786	-0,193	242,062	120,574
242,801	0,034	241,826	120,629
243,815	0,177	241,696	120,668
244,830	0,007	241,565	120,455
245,844	-0,090	241,310	120,239
246,859	0,081	241,031	120,227
247,874	-0,097	241,046	120,081
248,888	0,006	240,831	120,045
249,903	-0,100	240,820	119,944
250,917	0,033	240,533	119,897
251,932	-0,098	240,568	119,799
252,947	0,015	240,332	119,761
253,961	-0,026	240,184	119,644
254,976	-0,012	239,936	119,521
255,990	-0,165	239,788	119,315
257,005	-0,031	239,558	119,296
258,020	-0,096	239,523	119,216
259,034	-0,007	239,277	119,153
260,049	0,039	239,102	119,093
261,063	0,078	238,881	119,003
262,078	0,152	238,847	119,034
263,093	0,204	238,593	118,939
264,107	0,203	238,435	118,848
265,122	0,086	238,380	118,717
266,136	-0,109	238,422	118,573
267,151	0,114	238,150	118,604
268,166	-0,163	238,068	118,333
269,180	0,088	237,707	118,342
270,195	0,073	237,592	118,262
271,209	0,161	237,422	118,236
272,224	-0,009	237,271	118,016
273,239	-0,056	237,135	117,901
274,253	-0,116	237,115	117,834
275,268	-0,303	236,993	117,615
276,282	0,034	236,715	117,731
277,297	0,088	236,529	117,671
278,312	-0,031	236,625	117,615
279,326	0,101	236,276	117,535
280,341	0,200	236,061	117,495
281,355	0,162	235,913	117,381
282,370	0,031	235,920	117,271
283,384	-0,099	235,530	116,965
284,399	0,082	235,461	117,062
285,414	0,088	235,401	117,027
286,428	0,155	235,219	116,978
287,443	0,116	235,089	116,872
288,457	0,090	234,901	116,748
289,472	0,439	234,689	116,905
290,487	0,004	234,591	116,506
291,501	-0,042	234,505	116,417
292,516	0,050	234,341	116,397
293,530	0,250	234,078	116,412
294,545	0,267	234,007	116,379
295,560	-0,013	233,926	116,111
296,574	0,261	233,827	116,265
297,589	0,216	233,527	116,070
298,603	0,234	233,456	116,038
299,618	0,137	233,165	115,809
300,633	0,285	233,166	115,913
301,647	0,474	232,974	115,953
302,662	0,283	232,831	115,724
303,676	0,230	232,718	115,617
304,691	0,207	232,594	115,527
305,706	0,188	232,455	115,433
306,720	0,130	232,323	115,313
307,735	0,510	232,119	115,494
308,749	0,387	231,980	115,320
309,764	0,365	231,715	115,161
310,779	0,370	231,670	115,131
311,793	0,388	231,564	115,083
312,808	0,313	231,287	114,877
313,822	0,355	231,140	114,827
314,837	0,504	231,088	114,904
315,852	0,466	230,854	114,748
316,866	0,412	230,782	114,661
317,881	0,540	230,648	114,682
318,895	0,522	230,464	114,567
319,910	0,210	230,403	114,288
320,925	0,434	230,184	114,340
321,939	0,357	230,088	114,223
322,954	0,431	229,915	114,183
323,968	0,413	229,802	114,103
324,983	0,597	229,668	114,167
325,997	0,273	229,541	113,847
327,012	0,326	229,387	113,801
328,027	0,328	229,253	113,726
329,041	0,505	229,002	113,726
330,056	0,556	228,844	113,675
331,070	0,436	228,788	113,546
332,085	0,356	228,742	113,453
333,100	0,616	228,311	113,426
334,114	0,443	228,230	113,244
335,129	0,452	228,143	113,198
336,143	0,396	228,083	113,116
337,158	0,534	227,916	113,127
338,173	0,482	227,741	112,992
339,187	0,747	227,565	113,093
340,202	0,597	227,386	112,881
341,216	0,462	227,317	112,735
342,231	0,701	227,114	112,805
343,246	0,607	226,948	112,641
344,260	0,404	226,919	112,464
345,275	0,684	226,782	112,597
346,289	0,543	226,671	112,426
347,304	0,593	226,455	112,346
348,319	0,503	226,390	112,236
349,333	0,726	226,213	112,305
350,348	0,696	226,027	112,180
351,362	0,670	225,936	112,106
352,377	0,511	225,790	111,905
353,392	0,574	225,696	111,895
354,406	0,575	225,412	111,745
355,421	193,074	1311,799	1380,695
356,435	154,695	1444,018	1380,549
