DTS Sentinel unit serial number:	SN410029Multiplexer serial number:	ORYXHardware model number:	OX2-SRSoftware version number:	ORYX F/W v4,00 Oryx Data Collector v3.7.2.0data status	okinstallation	B5 Nyhavnadifferential loss correction	single-endedforward channel	channel 2reverse channel	N/Adate	2023/12/11time	22:22:13forward acquisition time	300,00reverse acquisition time	0,00gamma	499,1914k internal	0,3155k external	0,3155temperature offset calibration	1,0000default loss term (dB/km)	0,3820temperature slope calibration	1,0000multiplexer offset coefficient	1,0000multiplexer slope coefficient	1,0000fibre end	0,00T internal ref (°C)	16,31T ext. ref 1 (°C)	0,14T ext. ref 2 (°C)	-0,12length (m)	temperature (°C)	Stokes	anti-Stokes-744,400	32,260	0,033	0,021
-743,385	-3,299	-0,280	0,143
-742,371	-140,626	0,114	0,009
-741,356	-84,068	-0,333	0,077
-740,342	-162,531	0,111	-0,004
-739,327	-61,049	-0,221	0,068
-738,312	-200,000	0,010	-0,039
-737,298	-69,240	-0,346	0,097
-736,283	67,023	0,020	-0,015
-735,269	-152,234	-0,188	0,010
-734,254	618,412	0,095	0,177
-733,239	-8,589	-0,381	-0,188
-732,225	173,442	-0,056	0,059
-731,210	-200,000	0,024	-0,137
-730,196	64,876	0,124	-0,093
-729,181	-59,302	0,073	-0,023
-728,167	-200,000	0,015	0,115
-727,152	800,000	0,034	0,080
-726,137	-31,176	0,051	-0,021
-725,123	364,192	0,014	0,022
-724,108	-4,367	0,128	-0,065
-723,094	66,421	-0,041	-0,031
-722,079	-200,000	-0,016	-0,119
-721,064	153,750	0,093	0,094
-720,050	-38,923	0,091	0,035
-719,035	23,785	-0,103	-0,062
-718,021	-157,847	-0,187	0,008
-717,006	-104,336	-0,107	-0,018
-715,991	800,000	-0,030	-0,071
-714,977	-200,000	-0,011	-0,076
-713,962	-67,319	-0,046	-0,013
-712,948	-200,000	0,038	0,161
-711,933	-200,000	0,000	-0,037
-710,918	-53,240	-0,113	-0,038
-709,904	-200,000	-0,013	0,041
-708,889	430,441	0,046	-0,073
-707,875	-200,000	0,004	0,016
-706,860	-4,689	-0,123	-0,062
-705,845	13,291	-0,028	0,016
-704,831	789,451	-0,040	0,082
-703,816	597,655	-0,002	0,004
-702,802	731,878	-0,060	0,119
-701,787	-66,851	0,056	-0,016
-700,772	800,000	-0,059	0,160
-699,758	-112,349	-0,041	0,006
-698,743	-200,000	-0,026	0,119
-697,729	-200,000	-0,002	0,109
-696,714	-200,000	0,009	0,078
-695,699	-200,000	0,012	-0,061
-694,685	800,000	0,028	-0,081
-693,670	-41,764	-0,102	-0,039
-692,656	50,559	-0,141	0,098
-691,641	-200,000	0,066	0,000
-690,627	92,060	0,123	-0,102
-689,612	204,214	0,008	0,010
-688,597	-37,893	0,039	-0,015
-687,583	9,524	-0,193	-0,107
-686,568	-200,000	-0,003	-0,144
-685,554	-77,283	-0,098	-0,025
-684,539	-152,377	0,125	0,007
-683,524	-200,000	0,002	-0,008
-682,510	12,541	-0,107	-0,061
-681,495	-69,542	-0,093	-0,026
-680,481	-200,000	-0,030	-0,124
-679,466	-144,732	-0,144	-0,010
-678,451	800,000	0,065	0,143
-677,437	417,969	0,087	0,138
-676,422	-200,000	-0,007	0,060
-675,408	-200,000	0,010	0,046
-674,393	113,346	-0,047	-0,042
-673,378	81,495	0,036	0,029
-672,364	-200,000	-0,167	0,000
-671,349	-200,000	-0,003	-0,086
-670,335	-200,000	0,045	0,153
-669,320	14,741	0,129	0,074
-668,305	-153,958	0,052	-0,003
-667,291	800,000	-0,018	-0,052
-666,276	-37,295	-0,042	0,016
-665,262	194,677	-0,086	-0,097
-664,247	-55,094	-0,052	-0,017
-663,232	450,588	0,023	0,037
-662,218	-200,000	-0,015	0,120
-661,203	-200,000	-0,001	0,014
-660,189	-200,000	0,006	0,073
-659,174	93,021	-0,156	-0,129
-658,159	-200,000	0,014	-0,091
-657,145	-113,194	-0,088	-0,013
-656,130	-69,905	-0,124	0,034
-655,116	90,630	0,087	0,071
-654,101	-26,662	0,087	-0,037
-653,086	54,248	-0,073	-0,052
-652,072	-200,000	-0,010	0,053
-651,057	390,025	-0,103	-0,158
-650,043	-37,964	-0,108	-0,042
-649,028	697,021	0,013	0,025
-648,014	-9,181	-0,107	0,052
-646,999	59,256	0,122	0,088
-645,984	255,587	0,089	0,112
-644,970	-9,333	0,078	-0,038
-643,955	-200,000	0,005	-0,046
-642,941	-200,000	-0,011	0,054
-641,926	-200,000	-0,006	-0,169
-640,911	-107,768	0,061	0,010
-639,897	137,418	0,093	0,089
-638,882	-200,000	-0,015	0,174
-637,868	186,610	0,077	0,085
-636,853	-134,444	-0,090	0,008
-635,838	150,659	-0,143	-0,143
-634,824	226,544	0,125	-0,149
-633,809	-3,329	0,071	-0,036
-632,795	-126,308	-0,040	-0,004
-631,780	725,509	0,048	-0,095
-630,765	-65,173	-0,117	-0,035
-629,751	-200,000	-0,019	-0,109
-628,736	-200,000	0,002	-0,076
-627,722	800,000	0,053	-0,141
-626,707	98,058	-0,032	-0,027
-625,692	800,000	0,011	-0,025
-624,678	64,775	0,034	0,025
-623,663	-200,000	-0,041	0,173
-622,649	-200,000	-0,001	-0,019
-621,634	-133,694	0,087	-0,008
-620,619	201,264	-0,094	-0,106
-619,605	75,248	0,040	-0,031
-618,590	371,037	-0,018	-0,027
-617,576	268,469	0,081	0,104
-616,561	-200,000	0,001	-0,023
-615,546	99,536	-0,081	-0,069
-614,532	131,417	0,062	-0,059
-613,517	-161,326	0,063	-0,002
-612,503	-121,455	0,072	-0,009
-611,488	8,251	-0,128	0,070
-610,474	-67,362	-0,096	0,028
-609,459	-96,467	0,028	0,005
-608,444	-98,951	-0,076	0,014
-607,430	800,000	-0,019	0,042
-606,415	-5,296	0,050	0,025
-605,401	51,566	0,056	-0,039
-604,386	-115,388	0,101	-0,014
-603,371	-109,334	-0,061	0,009
-602,357	-200,000	-0,021	-0,108
-601,342	461,774	0,014	0,022
-600,328	524,046	-0,057	-0,099
-599,313	129,404	0,132	-0,124
-598,298	25,967	-0,070	-0,043
-597,284	112,105	0,077	-0,068
-596,269	450,088	-0,048	-0,077
-595,255	800,000	-0,042	0,111
-594,240	-7,809	0,081	0,040
-593,225	-54,385	-0,064	0,021
-592,211	-200,000	0,008	-0,192
-591,196	17,370	-0,050	-0,029
-590,182	-56,294	-0,065	-0,021
-589,167	572,603	-0,046	-0,083
-588,152	736,557	-0,039	-0,077
-587,138	247,319	-0,120	-0,148
-586,123	-62,425	0,119	-0,036
-585,109	-57,223	0,049	-0,016
-584,094	101,770	-0,102	-0,087
-583,079	665,458	-0,014	0,026
-582,065	-105,428	0,150	0,025
-581,050	-97,693	0,097	-0,018
-580,036	-145,685	-0,173	0,011
-579,021	-6,192	-0,110	0,055
-578,006	-200,000	-0,021	-0,122
-576,992	800,000	-0,039	-0,118
-575,977	-122,478	-0,101	0,012
-574,963	226,808	0,021	-0,024
-573,948	-17,629	-0,122	-0,056
-572,934	-84,618	0,093	0,021
-571,919	-200,000	-0,015	0,091
-570,904	254,665	0,101	-0,127
-569,890	-200,000	-0,012	0,110
-568,875	-129,104	-0,075	0,008
-567,861	389,544	-0,037	0,056
-566,846	-200,000	-0,003	0,045
-565,831	603,126	0,075	-0,138
-564,817	-119,049	-0,151	-0,019
-563,802	800,000	0,028	-0,058
-562,788	-200,000	-0,012	-0,064
-561,773	800,000	0,040	0,124
-560,758	-200,000	-0,013	0,173
-559,744	-68,651	-0,078	-0,022
-558,729	80,739	0,078	-0,062
-557,715	-200,000	-0,012	-0,056
-556,700	-122,673	-0,083	-0,010
-555,685	-38,558	-0,067	0,026
-554,671	800,000	0,036	-0,080
-553,656	369,689	-0,052	0,078
-552,642	129,758	0,084	-0,079
-551,627	-3,767	-0,131	0,067
-550,612	120,775	0,056	-0,051
-549,598	-200,000	-0,024	-0,081
-548,583	-150,637	-0,040	0,002
-547,569	800,000	0,041	-0,128
-546,554	-18,742	0,057	0,026
-545,539	-60,243	0,110	0,034
-544,525	67,496	0,062	-0,046
-543,510	439,245	-0,058	-0,092
-542,496	-29,327	0,019	-0,008
-541,481	-82,756	-0,089	0,021
-540,466	-200,000	-0,024	0,148
-539,452	-127,232	-0,053	0,006
-538,437	800,000	0,031	-0,068
-537,423	626,132	-0,069	0,128
-536,408	-56,183	-0,079	-0,026
-535,393	356,619	-0,036	0,053
-534,379	-11,017	-0,058	0,028
-533,364	226,935	-0,121	-0,144
-532,350	-200,000	-0,015	0,059
-531,335	-12,013	-0,090	0,043
-530,321	-116,057	0,036	0,005
-529,306	198,737	-0,036	-0,041
-528,291	97,135	0,010	0,008
-527,277	446,097	0,072	-0,116
-526,262	31,210	-0,072	-0,045
-525,248	-200,000	-0,009	0,061
-524,233	-97,469	0,109	0,020
-523,218	170,347	0,039	0,040
-522,204	705,616	0,042	0,082
-521,189	-200,000	-0,012	-0,043
-520,175	243,529	-0,066	0,081
-519,160	-200,000	0,014	0,088
-518,145	-15,498	0,063	0,029
-517,131	-200,000	0,008	0,036
-516,116	-110,743	-0,144	-0,021
-515,102	-171,611	-0,067	-0,002
-514,087	-95,574	-0,103	-0,020
-513,072	-9,049	-0,046	-0,022
-512,058	800,000	0,043	0,097
-511,043	308,082	0,087	0,119
-510,029	124,622	-0,119	0,109
-509,014	372,221	0,045	0,067
-507,999	-191,697	0,113	0,001
-506,985	147,268	-0,113	-0,111
-505,970	-66,246	0,082	-0,024
-504,956	-23,220	-0,124	-0,054
-503,941	28,207	-0,081	-0,050
-502,926	-200,000	-0,009	0,090
-501,912	-200,000	-0,013	0,059
-500,897	-200,000	0,010	0,052
-499,883	800,000	-0,011	0,028
-498,868	-200,000	0,012	-0,077
-497,853	-200,000	-0,006	0,072
-496,839	361,365	0,122	0,180
-495,824	-154,871	0,140	0,007
-494,810	-200,000	-0,013	0,043
-493,795	-143,058	0,145	0,010
-492,781	616,633	-0,083	-0,154
-491,766	618,675	-0,044	-0,082
-490,751	-200,000	0,035	-0,135
-489,737	-200,000	0,004	0,056
-488,722	-200,000	0,028	0,095
-487,708	106,103	-0,009	-0,008
-486,693	46,279	-0,074	0,050
-485,678	597,196	0,027	-0,049
-484,664	594,870	0,056	-0,101
-483,649	86,688	-0,072	0,058
-482,635	264,047	0,109	-0,139
-481,620	-200,000	-0,026	0,113
-480,605	85,486	0,065	0,052
-479,591	-65,257	0,073	0,021
-478,576	800,000	-0,048	0,127
-477,562	-200,000	-0,031	0,148
-476,547	363,984	-0,038	0,056
-475,532	197,593	-0,083	-0,093
-474,518	-99,379	0,118	0,022
-473,503	33,475	0,075	0,048
-472,489	-165,492	-0,067	0,002
-471,474	3,921	0,054	0,029
-470,459	190,823	-0,026	-0,029
-469,445	-57,011	-0,120	-0,038
-468,430	178,955	0,063	-0,067
-467,416	221,995	-0,035	-0,041
-466,401	136,352	0,087	-0,083
-465,386	-200,000	-0,036	0,156
-464,372	134,837	-0,094	-0,089
-463,357	-52,291	-0,011	-0,004
-462,343	-36,457	-0,117	0,046
-461,328	-184,704	-0,070	0,001
-460,313	55,419	0,118	-0,083
-459,299	-200,000	0,026	-0,162
-458,284	-37,952	-0,160	0,062
-457,270	757,977	-0,033	0,066
-456,255	-22,830	-0,078	-0,034
-455,241	-200,000	0,001	-0,162
-454,226	-136,776	-0,131	-0,011
-453,211	411,935	0,099	0,154
-452,197	-102,564	0,110	0,019
-451,182	49,544	-0,061	0,042
-450,168	800,000	0,045	0,100
-449,153	81,651	-0,005	-0,004
-448,138	686,895	-0,046	-0,087
-447,124	257,592	0,027	0,034
-446,109	-41,872	0,064	-0,024
-445,095	-200,000	0,016	0,166
-444,080	-200,000	-0,021	0,120
-443,065	-200,000	0,014	0,118
-442,051	-60,205	0,058	0,018
-441,036	-200,000	-0,027	-0,120
-440,022	800,000	0,008	-0,023
-439,007	-200,000	-0,008	0,072
-437,992	107,894	0,125	0,108
-436,978	-9,674	0,047	-0,023
-435,963	-69,401	0,136	-0,038
-434,949	116,100	-0,130	-0,116
-433,934	213,895	-0,091	-0,105
-432,919	-200,000	0,015	-0,053
-431,905	-200,000	0,023	-0,081
-430,890	-200,000	-0,056	0,225
-429,876	302,598	0,103	0,140
-428,861	-132,919	0,082	0,007
-427,846	-200,000	-0,003	0,093
-426,832	487,984	-0,047	0,079
-425,817	74,265	-0,078	-0,059
-424,803	-50,627	0,130	0,044
-423,788	-146,020	0,049	-0,003
-422,773	-34,203	-0,037	0,015
-421,759	-200,000	0,031	-0,194
-420,744	-200,000	-0,005	0,150
-419,730	52,369	-0,081	0,056
-418,715	-31,950	0,139	-0,056
-417,701	-200,000	-0,020	-0,162
-416,686	-109,393	0,040	-0,006
-415,671	800,000	-0,043	0,089
-414,657	-200,000	0,002	-0,138
-413,642	800,000	0,022	0,054
-412,628	-200,000	-0,020	0,121
-411,613	153,385	-0,077	0,076
-410,598	-200,000	0,001	-0,053
-409,584	128,564	0,067	-0,062
-408,569	-83,494	-0,133	0,031
-407,555	-198,160	0,190	0,001
-406,540	363,092	0,056	-0,082
-405,525	293,173	-0,068	-0,090
-404,511	-121,805	-0,060	0,007
-403,496	-200,000	-0,005	-0,059
-402,482	584,672	0,038	-0,068
-401,467	-84,966	0,152	0,034
-400,452	126,064	0,070	0,065
-399,438	-19,161	0,129	-0,058
-398,423	800,000	-0,032	0,080
-397,409	800,000	-0,011	0,023
-396,394	-64,953	-0,143	-0,042
-395,379	-73,773	-0,087	0,023
-394,365	25,078	-0,125	-0,075
-393,350	25,322	0,107	0,064
-392,336	800,000	0,035	-0,074
-391,321	-129,652	0,108	-0,011
-390,306	74,997	-0,045	-0,034
-389,292	289,199	-0,067	-0,089
-388,277	800,000	-0,034	-0,087
-387,263	800,000	-0,040	0,112
-386,248	800,000	-0,052	0,111
-385,233	800,000	-0,043	0,107
-384,219	800,000	-0,041	0,100
-383,204	326,334	0,079	-0,110
-382,190	-200,000	-0,005	-0,069
-381,175	-187,364	-0,076	-0,001
-380,160	-18,796	-0,033	-0,015
-379,146	-49,833	0,167	-0,057
-378,131	769,107	0,025	-0,050
-377,117	800,000	0,036	0,080
-376,102	800,000	0,028	-0,073
-375,088	-200,000	0,026	-0,099
-374,073	472,922	0,059	0,097
-373,058	99,731	0,042	0,036
-372,044	2,109	0,137	0,072
-371,029	423,693	0,088	0,137
-370,015	-200,000	0,001	-0,030
-369,000	-200,000	-0,008	-0,026
-367,985	-200,000	0,031	-0,214
-366,971	-61,755	0,126	0,038
-365,956	-9,022	0,058	0,028
-364,942	-200,000	0,006	0,118
-363,927	-200,000	0,003	0,061
-362,912	227,571	-0,048	0,057
-361,898	50,691	-0,072	-0,050
-360,883	90,808	-0,074	-0,061
-359,869	183,467	0,045	0,048
-358,854	-200,000	0,013	0,042
-357,839	-48,123	-0,075	-0,026
-356,825	578,250	-0,021	0,038
-355,810	-58,685	0,152	0,047
-354,796	161,108	-0,035	0,036
-353,781	-21,384	0,043	-0,019
-352,766	172,929	-0,061	-0,064
-351,752	-200,000	-0,017	0,055
-350,737	387,974	-0,013	-0,020
-349,723	197,092	0,059	-0,065
-348,708	695,351	0,068	0,130
-347,693	-158,337	-0,007	-0,000
-346,679	-32,969	-0,151	0,060
-345,664	418,912	0,046	-0,071
-344,650	-200,000	0,005	0,121
-343,635	-93,177	0,095	-0,019
-342,620	532,898	0,066	0,114
-341,606	800,000	0,048	-0,105
-340,591	-40,436	-0,044	-0,016
-339,577	-200,000	0,012	-0,077
-338,562	-55,010	-0,079	-0,026
-337,548	82,008	-0,038	-0,030
-336,533	51,724	-0,079	-0,054
-335,518	-180,689	0,086	-0,001
-334,504	-119,608	-0,045	0,006
-333,489	-45,252	-0,142	-0,051
-332,475	731,950	0,043	-0,084
-331,460	226,629	-0,064	0,075
-330,445	800,000	0,037	0,098
-329,431	800,000	0,057	0,149
-328,416	-200,000	-0,050	0,000
-327,402	76,115	0,140	-0,108
-326,387	-56,906	-0,055	-0,018
-325,372	-200,000	-0,001	-0,114
-324,358	32,426	0,050	0,032
-323,343	-200,000	-0,005	0,096
-322,329	800,000	0,013	0,039
-321,314	-200,000	0,031	-0,154
-320,299	-145,684	-0,022	0,001
-319,285	-200,000	0,026	0,112
-318,270	-200,000	0,043	-0,142
-317,256	629,563	-0,058	-0,107
-316,241	-200,000	-0,095	-0,000
-315,226	464,699	-0,068	-0,111
-314,212	-200,000	0,037	-0,277
-313,197	174,402	0,040	-0,042
-312,183	-151,048	-0,127	0,007
-311,168	39,167	-0,080	0,052
-310,153	405,874	0,050	-0,077
-309,139	401,975	0,009	0,013
-308,124	251,546	-0,040	0,049
-307,110	164,974	0,062	0,064
-306,095	-83,938	0,036	0,008
-305,080	-3,488	0,150	-0,075
-304,066	-111,605	-0,087	0,013
-303,051	800,000	-0,046	-0,119
-302,037	-143,085	-0,035	0,002
-301,022	68,428	0,064	-0,047
-300,008	-145,329	-0,062	-0,004
-298,993	-200,000	0,015	0,063
-297,978	0,222	-0,047	-0,024
-296,964	63,204	-0,184	0,134
-295,949	124,100	-0,055	-0,050
-294,935	-200,000	0,004	-0,025
-293,920	617,948	0,055	-0,100
-292,905	19,548	-0,037	-0,022
-291,891	-1,958	0,091	0,046
-290,876	800,000	0,021	0,053
-289,862	-200,000	-0,020	0,070
-288,847	-13,573	-0,043	-0,020
-287,832	220,043	0,017	0,019
-286,818	800,000	0,029	0,083
-285,803	228,197	0,068	0,080
-284,789	-23,165	0,118	0,051
-283,774	97,741	0,010	-0,008
-282,759	-200,000	0,016	0,053
-281,745	716,947	0,074	-0,144
-280,730	-79,775	-0,097	-0,023
-279,716	-200,000	0,006	0,100
-278,701	144,997	0,048	0,047
-277,686	-200,000	-0,012	0,046
-276,672	-167,695	-0,136	0,004
-275,657	364,180	0,045	-0,066
-274,643	-44,500	0,076	0,027
-273,628	709,859	-0,045	0,087
-272,613	313,688	0,091	-0,124
-271,599	197,834	0,024	0,027
-270,584	-200,000	-0,025	0,127
-269,570	-200,000	0,005	0,128
-268,555	522,912	-0,045	0,076
-267,540	-1,988	-0,063	-0,032
-266,526	-200,000	0,006	0,054
-265,511	-106,843	0,025	-0,004
-264,497	-22,778	0,088	-0,039
-263,482	86,261	0,118	0,094
-262,467	220,516	0,084	0,098
-261,453	-200,000	-0,004	0,075
-260,438	800,000	0,014	-0,039
-259,424	258,681	0,025	0,032
-258,409	-117,872	-0,080	-0,010
-257,395	214,215	0,082	0,094
-256,380	-200,000	0,022	-0,085
-255,365	16,956	0,137	0,078
-254,351	242,900	0,070	0,084
-253,336	225,588	-0,073	-0,086
-252,322	538,777	0,036	-0,061
-251,307	-136,479	0,055	0,005
-250,292	222,367	-0,049	0,057
-249,278	-200,000	0,009	-0,167
-248,263	184,783	0,038	0,041
-247,249	-172,870	0,023	-0,001
-246,234	266,636	0,060	-0,076
-245,219	800,000	-0,051	-0,107
-244,205	-72,832	-0,071	-0,019
-243,190	-200,000	-0,017	0,098
-242,176	-39,082	0,111	-0,042
-241,161	95,755	-0,075	0,062
-240,146	362,325	-0,050	-0,073
-239,132	-200,000	0,029	-0,142
-238,117	606,261	-0,023	0,042
-237,103	162,850	0,145	0,148
-236,088	-17,312	-0,071	-0,032
-235,073	495,333	0,033	0,054
-234,059	325,541	-0,018	0,025
-233,044	-31,437	0,033	-0,013
-232,030	800,000	0,031	0,072
-231,015	538,679	0,060	0,103
-230,000	800,000	-0,068	-0,164
-228,986	315,322	-0,093	-0,127
-227,971	-200,000	-0,003	0,080
-226,957	-97,213	0,103	0,019
-225,942	108,500	0,013	-0,011
-224,927	-62,701	0,149	-0,044
-223,913	30,166	0,107	-0,066
-222,898	-200,000	-0,004	0,046
-221,884	800,000	0,071	-0,206
-220,869	63,216	0,070	-0,051
-219,855	79,723	0,083	0,064
-218,840	-200,000	0,000	0,060
-217,825	-200,000	0,009	0,072
-216,811	800,000	-0,044	-0,117
-215,796	464,421	0,073	-0,118
-214,782	-200,000	0,003	0,017
-213,767	-200,000	0,006	0,021
-212,752	29,935	0,050	0,031
-211,738	188,791	-0,022	-0,023
-210,723	-136,039	-0,148	-0,012
-209,709	-121,792	-0,088	-0,010
-208,694	-200,000	0,003	0,037
-207,679	557,575	0,065	-0,114
-206,665	-3,306	-0,086	-0,043
-205,650	-110,074	-0,120	0,018
-204,636	95,936	0,075	0,061
-203,621	95,959	0,023	0,019
-202,606	-151,063	-0,029	0,002
-201,592	-200,000	-0,002	-0,075
-200,577	619,560	-0,011	-0,020
-199,563	800,000	0,018	0,042
-198,548	-15,398	0,144	0,066
-197,533	20,305	-0,080	-0,046
-196,519	-37,467	-0,043	-0,017
-195,504	-200,000	-0,029	-0,105
-194,490	-45,661	-0,210	-0,075
-193,475	-14,887	-0,094	-0,043
-192,460	800,000	0,051	0,148
-191,446	151,739	0,089	0,088
-190,431	66,483	0,062	-0,045
-189,417	408,193	-0,053	0,082
-188,402	800,000	-0,008	0,026
-187,387	256,698	-0,139	-0,172
-186,373	-200,000	0,011	-0,147
-185,358	-82,497	-0,050	-0,012
-184,344	-200,000	0,004	0,170
-183,329	-200,000	-0,015	-0,064
-182,315	-200,000	-0,002	-0,102
-181,300	-106,069	-0,099	-0,016
-180,285	37,318	-0,048	0,031
-179,271	752,336	0,040	-0,079
-178,256	72,330	-0,137	0,103
-177,242	140,177	0,180	0,172
-176,227	-200,000	-0,039	0,140
-175,212	652,483	0,089	0,165
-174,198	-4,244	0,039	0,019
-173,183	34,345	-0,074	0,046
-172,169	-200,000	0,004	0,032
-171,154	-106,248	-0,154	0,025
-170,139	800,000	0,030	0,065
-169,125	-190,332	-0,118	0,001
-168,110	-200,000	0,009	-0,128
-167,096	-194,514	-0,027	0,000
-166,081	-31,313	-0,020	-0,008
-165,066	38,294	-0,075	-0,048
-164,052	402,652	-0,012	-0,019
-163,037	629,315	-0,076	0,139
-162,023	636,390	0,068	-0,124
-161,008	232,802	-0,062	-0,074
-159,993	-200,000	0,003	-0,012
-158,979	-200,000	0,004	0,112
-157,964	-85,706	0,051	0,011
-156,950	-200,000	-0,000	-0,019
-155,935	-200,000	0,012	0,105
-154,920	135,757	0,063	0,059
-153,906	800,000	0,059	0,130
-152,891	800,000	-0,106	0,229
-151,877	251,425	0,113	-0,139
-150,862	-200,000	0,008	-0,035
-149,847	12,956	-0,058	-0,032
-148,833	247,211	0,094	0,114
-147,818	107,146	0,095	0,082
-146,804	225,183	0,037	-0,043
-145,789	106,294	0,033	0,028
-144,775	88,034	-0,057	-0,045
-143,760	105,469	0,029	-0,024
-142,745	-88,445	0,091	0,019
-141,731	-99,815	-0,067	0,012
-140,716	-84,679	0,197	-0,044
-139,702	-79,827	0,072	-0,017
-138,687	315,053	0,042	0,057
-137,672	-200,000	-0,000	-0,070
-136,658	-200,000	0,006	-0,139
-135,643	434,714	-0,072	-0,114
-134,629	800,000	-0,048	-0,117
-133,614	-86,404	-0,112	0,025
-132,599	-200,000	0,013	0,140
-131,585	593,753	-0,047	0,084
-130,570	-73,310	0,099	0,026
-129,556	181,158	0,045	0,048
-128,541	254,564	0,025	0,030
-127,526	549,898	0,049	-0,085
-126,512	-89,858	0,148	0,031
-125,497	-14,196	-0,078	0,036
-124,483	-200,000	-0,004	-0,096
-123,468	-191,622	-0,128	0,001
-122,453	-75,201	0,133	0,034
-121,439	795,406	-0,060	-0,120
-120,424	451,842	-0,099	0,158
-119,410	-200,000	-0,013	0,049
-118,395	-84,994	-0,068	-0,015
-117,380	96,025	-0,046	-0,038
-116,366	178,987	-0,015	0,016
-115,351	1,528	-0,038	-0,020
-114,337	-122,695	0,019	0,002
-113,322	582,581	0,042	-0,075
-112,307	-27,295	-0,024	-0,010
-111,293	-200,000	0,002	0,080
-110,278	542,064	0,040	0,070
-109,264	306,156	-0,092	0,123
-108,249	27,492	0,102	0,062
-107,234	46,826	0,019	0,013
-106,220	-200,000	0,007	0,154
-105,205	800,000	-0,082	0,170
-104,191	800,000	0,031	0,066
-103,176	-200,000	-0,024	0,082
-102,162	213,193	0,009	0,010
-101,147	-31,017	0,005	0,002
-100,132	-200,000	0,006	0,043
-99,118	800,000	0,015	0,032
-98,103	-31,490	-0,094	-0,038
-97,089	800,000	-0,025	-0,068
-96,074	800,000	-0,022	0,069
-95,059	-200,000	0,015	-0,127
-94,045	-200,000	0,005	0,070
-93,030	376,539	0,088	-0,129
-92,016	186,528	-0,141	0,152
-91,001	-167,793	-0,079	0,002
-89,986	-51,555	-0,016	0,005
-88,972	6,580	0,139	0,074
-87,957	546,322	0,076	-0,132
-86,943	-127,823	0,057	-0,006
-85,928	-200,000	0,031	0,138
-84,913	-34,533	0,093	0,037
-83,899	21,237	-0,043	0,025
-82,884	-6,304	-0,075	0,037
-81,870	266,901	0,085	0,107
-80,855	247,019	-0,019	0,023
-79,840	467,858	0,017	0,028
-78,826	-200,000	-0,000	-0,131
-77,811	25,373	-0,186	-0,111
-76,797	-200,000	0,038	0,160
-75,782	303,246	-0,053	0,070
-74,767	-6,782	0,112	0,054
-73,753	-200,000	-0,008	0,209
-72,738	-59,782	-0,080	0,024
-71,724	197,931	0,073	0,080
-70,709	-200,000	0,037	-0,172
-69,694	717,578	-0,025	-0,048
-68,680	-116,610	0,130	-0,017
-67,665	800,000	0,043	-0,090
-66,651	195,522	-0,057	0,062
-65,636	-165,464	0,047	0,001
-64,622	681,698	-0,014	-0,026
-63,607	204,687	-0,041	0,046
-62,592	-106,788	-0,058	-0,009
-61,578	163,642	0,024	-0,024
-60,563	-92,871	0,134	-0,027
-59,549	184,821	0,103	0,110
-58,534	-4,407	-1,787	-0,885
-57,519	800,000	-0,305	-0,956
-56,505	-200,000	-1,172	-4,941
-55,490	-29,647	0,707	0,289
-54,476	800,000	5,245	12,160
-53,461	-200,000	16,952	280,193
-52,446	800,000	719,977	2220,807
-51,432	544,485	1634,960	2815,285
-50,417	113,344	1629,780	1420,192
-49,403	76,812	1287,468	980,354
-48,388	33,496	1030,908	641,716
-47,373	20,467	992,593	574,785
-46,359	19,021	980,964	563,267
-45,344	16,623	977,032	553,112
-44,330	16,779	975,487	552,728
-43,315	16,415	973,832	550,573
-42,300	16,398	972,739	549,879
-41,286	16,283	971,694	548,890
-40,271	16,327	970,593	548,388
-39,257	16,387	969,776	548,104
-38,242	16,347	968,746	547,367
-37,227	16,292	968,118	546,813
-36,213	16,335	967,232	546,430
-35,198	16,317	966,429	545,896
-34,184	16,362	965,542	545,520
-33,169	16,372	964,495	544,938
-32,154	16,400	963,538	544,467
-31,140	16,405	962,479	543,865
-30,125	16,395	961,947	543,508
-29,111	16,313	961,305	542,860
-28,096	16,374	960,468	542,562
-27,082	16,307	960,056	542,091
-26,067	16,372	958,795	541,567
-25,052	16,336	958,248	541,121
-24,038	16,358	957,513	540,755
-23,023	16,306	956,978	540,265
-22,009	16,343	956,411	540,042
-20,994	16,355	955,817	539,723
-19,979	16,382	955,215	539,450
-18,965	16,377	954,395	538,950
-17,950	16,358	953,750	538,503
-16,936	16,285	953,415	538,058
-15,921	16,265	952,412	537,406
-14,906	16,235	951,705	536,890
-13,892	16,231	951,078	536,502
-12,877	16,223	950,448	536,099
-11,863	16,128	949,908	535,469
-10,848	16,237	949,262	535,434
-9,833	16,295	948,985	535,441
-8,819	16,336	948,224	535,121
-7,804	16,281	947,377	534,446
-6,790	16,240	946,955	534,056
-5,775	16,221	946,399	533,662
-4,760	16,238	945,548	533,214
-3,746	16,193	945,177	532,841
-2,731	16,190	944,278	532,305
-1,717	16,036	943,848	531,551
-0,702	16,107	943,165	531,370
0,313	15,828	942,572	530,954
1,327	19,144	940,324	540,122
2,342	28,444	797,673	482,916
3,356	25,328	461,203	274,407
4,371	-2,293	315,025	158,031
5,386	-6,438	296,791	144,667
6,400	-8,487	290,723	139,658
7,415	-8,898	288,294	138,073
8,429	-9,036	286,890	137,253
9,444	-9,052	285,885	136,745
10,459	-9,259	285,399	136,298
11,473	-9,150	284,707	136,061
12,488	-8,984	284,230	135,983
13,502	-8,958	283,597	135,693
14,517	-9,034	283,290	135,460
15,531	-9,039	282,643	135,133
16,546	-9,070	282,325	134,940
17,561	-9,260	282,093	134,633
18,575	-9,097	281,665	134,574
19,590	-9,129	281,136	134,279
20,604	-8,942	280,978	134,371
21,619	-9,182	280,607	133,951
22,634	-9,168	280,376	133,843
23,648	-9,117	279,785	133,598
24,663	-9,248	279,639	133,391
25,677	-9,301	279,419	133,223
26,692	-9,202	279,318	133,257
27,707	-9,173	278,983	133,114
28,721	-9,195	278,611	132,903
29,736	-9,182	278,211	132,712
30,750	-9,182	277,868	132,537
31,765	-9,190	277,891	132,529
32,780	-9,070	277,605	132,495
33,794	-9,142	277,375	132,304
34,809	-9,027	277,220	132,327
35,823	-9,046	276,667	132,034
36,838	-9,252	276,603	131,797
37,853	-9,141	276,312	131,751
38,867	-9,218	276,081	131,557
39,882	-9,127	275,729	131,463
40,896	-9,116	275,611	131,405
41,911	-9,028	275,333	131,344
42,926	-9,165	275,153	131,117
43,940	-9,191	274,870	130,947
44,955	-9,003	274,558	130,962
45,969	-9,157	274,408	130,736
46,984	-9,322	274,038	130,393
47,999	-9,681	273,856	129,959
49,013	-9,538	273,517	129,921
50,028	-9,823	273,321	129,550
51,042	-9,906	273,076	129,345
52,057	-9,957	272,847	129,178
53,071	-9,897	272,729	129,165
54,086	-9,713	272,456	129,196
55,101	-9,648	272,348	129,194
56,115	-9,353	272,157	129,365
57,130	-9,102	271,879	129,455
58,144	-8,982	271,843	129,537
59,159	-8,946	271,505	129,398
60,174	-9,154	271,312	129,101
61,188	-9,140	271,170	129,035
62,203	-9,057	270,995	129,018
63,217	-9,052	270,598	128,821
64,232	-9,157	270,511	128,672
65,247	-8,938	270,205	128,717
66,261	-9,013	270,028	128,552
67,276	-9,208	269,700	128,204
68,290	-9,093	269,362	128,139
69,305	-9,326	269,225	127,848
70,320	-9,320	269,091	127,778
71,334	-9,320	268,946	127,698
72,349	-9,038	268,632	127,796
73,363	-9,008	268,427	127,714
74,378	-9,051	268,273	127,590
75,393	-9,050	268,072	127,485
76,407	-9,041	267,937	127,416
77,422	-9,045	267,742	127,309
78,436	-8,895	267,370	127,257
79,451	-8,938	267,116	127,086
80,466	-8,964	266,973	126,983
81,480	-9,308	266,864	126,608
82,495	-9,334	266,639	126,466
83,509	-9,106	266,307	126,504
84,524	-9,479	266,204	126,106
85,539	-9,334	265,847	126,056
86,553	-9,529	265,795	125,845
87,568	-9,148	265,546	126,059
88,582	-9,427	265,252	125,657
89,597	-9,348	265,016	125,605
90,611	-9,161	265,057	125,781
91,626	-9,138	264,911	125,722
92,641	-9,148	264,529	125,520
93,655	-9,104	264,339	125,458
94,670	-9,182	264,182	125,302
95,684	-9,148	263,955	125,215
96,699	-9,257	263,745	125,006
97,714	-9,143	263,482	124,972
98,728	-9,306	263,370	124,762
99,743	-9,278	262,982	124,593
100,757	-9,348	262,620	124,347
101,772	-9,233	262,683	124,468
102,787	-9,147	262,405	124,403
103,801	-9,115	262,297	124,369
104,816	-9,134	262,273	124,329
105,830	-8,920	261,915	124,339
106,845	-8,999	261,890	124,246
107,860	-9,004	261,553	124,070
108,874	-9,048	261,328	123,914
109,889	-9,132	261,135	123,737
110,903	-8,975	260,675	123,646
111,918	-9,219	260,674	123,419
112,933	-9,070	260,580	123,495
113,947	-9,090	260,442	123,401
114,962	-9,166	260,139	123,179
115,976	-9,004	259,917	123,206
116,991	-8,869	259,820	123,268
118,006	-9,380	259,732	122,765
119,020	-9,152	259,587	122,887
120,035	-9,152	259,489	122,829
121,049	-9,080	259,233	122,760
122,064	-9,082	258,936	122,607
123,079	-9,071	258,990	122,631
124,093	-9,020	258,593	122,477
125,108	-9,480	258,487	122,013
126,122	-9,325	258,013	121,914
127,137	-9,453	257,792	121,687
128,151	-9,271	257,684	121,784
129,166	-9,256	257,469	121,684
130,181	-9,076	257,226	121,716
131,195	-9,368	256,974	121,331
132,210	-9,317	257,056	121,404
133,224	-9,132	256,715	121,393
134,239	-9,005	256,671	121,472
135,254	-8,901	256,569	121,502
136,268	-9,345	256,372	121,013
137,283	-9,507	255,905	120,641
138,297	-9,452	255,644	120,556
139,312	-9,528	255,452	120,388
140,327	-9,269	255,421	120,587
141,341	-8,860	255,299	120,872
142,356	-8,982	255,116	120,669
143,370	-8,825	254,923	120,702
144,385	-8,849	254,737	120,583
145,400	-8,828	254,525	120,490
146,414	-8,845	254,354	120,384
147,429	-9,189	254,308	120,056
148,443	-8,828	254,021	120,220
149,458	-8,817	253,712	120,071
150,473	-8,906	253,777	120,015
151,487	-8,952	253,516	119,842
152,502	-9,055	253,319	119,650
153,516	-8,766	253,121	119,793
154,531	-9,000	253,040	119,544
155,546	-8,803	252,765	119,571
156,560	-8,942	252,620	119,373
157,575	-9,100	252,370	119,110
158,589	-8,943	252,210	119,157
159,604	-8,864	252,084	119,155
160,619	-8,771	251,843	119,109
161,633	-8,937	251,756	118,917
162,648	-8,810	251,566	118,924
163,662	-8,739	251,373	118,883
164,677	-8,749	251,173	118,768
165,692	-8,761	251,127	118,726
166,706	-8,776	251,003	118,644
167,721	-8,800	250,689	118,465
168,735	-8,891	250,596	118,334
169,750	-8,838	250,373	118,262
170,764	-8,923	250,295	118,143
171,779	-8,843	250,132	118,123
172,794	-8,853	250,023	118,053
173,808	-8,849	249,730	117,907
174,823	-9,108	249,401	117,523
175,837	-9,423	249,171	117,139
176,852	-9,120	249,271	117,431
177,867	-8,731	249,106	117,670
178,881	-8,965	248,884	117,358
179,896	-8,910	248,878	117,391
180,910	-8,840	248,650	117,332
181,925	-8,768	248,386	117,257
182,940	-8,774	248,237	117,171
183,954	-8,894	248,096	116,993
184,969	-8,699	247,897	117,052
185,983	-8,759	247,817	116,954
186,998	-8,599	247,556	116,954
188,013	-8,817	247,432	116,703
189,027	-8,928	247,136	116,460
190,042	-8,811	246,951	116,460
191,056	-8,671	246,961	116,572
192,071	-8,644	246,653	116,438
193,086	-8,874	246,666	116,243
194,100	-8,730	246,361	116,208
195,115	-8,848	246,329	116,085
196,129	-8,762	246,097	116,036
197,144	-8,957	245,823	115,735
198,159	-8,812	245,555	115,718
199,173	-8,858	245,537	115,662
200,188	-8,826	245,126	115,485
201,202	-9,055	245,086	115,266
202,217	-9,362	244,778	114,858
203,232	-9,442	244,586	114,692
204,246	-8,943	244,535	115,068
205,261	-8,454	244,344	115,371
206,275	-9,650	244,018	114,224
207,290	-6,255	245,359	117,643
208,304	-0,447	247,158	123,311
209,319	2,090	247,607	125,625
210,334	2,402	247,662	125,900
211,348	2,513	247,532	125,915
212,363	2,940	247,527	126,253
213,377	3,122	247,376	126,316
214,392	3,089	247,180	126,178
215,407	2,906	247,206	126,028
216,421	2,973	246,807	125,869
217,436	3,169	246,943	126,088
218,450	3,183	246,673	125,951
219,465	2,767	246,375	125,445
220,480	2,767	246,320	125,407
221,494	2,748	246,175	125,306
222,509	2,886	246,145	125,393
223,523	2,727	245,794	125,073
224,538	2,323	245,522	124,592
225,553	2,564	245,207	124,618
226,567	2,836	245,059	124,753
227,582	2,746	245,158	124,719
228,596	2,664	244,935	124,528
229,611	2,502	244,662	124,246
230,626	2,572	244,574	124,247
231,640	2,592	244,467	124,198
232,655	2,796	244,203	124,219
233,669	2,672	244,040	124,024
234,684	2,432	243,913	123,753
235,699	2,770	243,979	124,051
236,713	3,169	243,724	124,234
237,728	2,876	243,398	123,819
238,742	2,711	243,385	123,668
239,757	2,600	243,135	123,440
240,772	2,557	243,046	123,349
241,786	2,509	242,858	123,203
242,801	2,472	242,671	123,068
243,815	2,310	242,445	122,811
244,830	2,620	242,268	122,961
245,844	2,821	242,174	123,064
246,859	2,589	242,035	122,795
247,874	2,718	241,854	122,797
248,888	2,712	241,734	122,720
249,903	2,844	241,577	122,735
250,917	2,856	241,558	122,725
251,932	3,038	241,436	122,798
252,947	3,098	241,093	122,661
253,961	2,559	240,932	122,136
254,976	2,595	240,882	122,128
255,990	2,967	240,608	122,277
257,005	2,683	240,372	121,919
258,020	2,299	240,320	121,574
259,034	2,544	240,205	121,701
260,049	2,733	239,977	121,725
261,063	2,715	239,671	121,545
262,078	2,518	239,725	121,404
263,093	2,684	239,667	121,496
264,107	2,864	239,385	121,486
265,122	2,640	239,300	121,254
266,136	2,590	239,147	121,126
267,151	2,836	239,040	121,256
268,166	2,642	238,889	121,015
269,180	2,712	238,556	120,891
270,195	3,212	238,647	121,322
271,209	3,070	238,462	121,105
272,224	2,713	238,117	120,637
273,239	2,487	237,977	120,376
274,253	2,301	237,906	120,182
275,268	2,731	237,633	120,373
276,282	2,804	237,604	120,406
277,297	2,511	237,345	120,032
278,312	2,441	237,306	119,947
279,326	2,768	237,136	120,109
280,341	2,814	236,885	120,007
281,355	2,889	236,835	120,029
282,370	3,113	236,677	120,114
283,384	2,752	236,444	119,703
284,399	2,537	236,274	119,437
285,414	2,429	236,288	119,348
286,428	2,553	235,981	119,280
287,443	2,650	235,898	119,303
288,457	2,882	235,809	119,429
289,472	2,912	235,726	119,400
290,487	2,848	235,473	119,211
291,501	2,516	235,146	118,776
292,516	2,341	235,005	118,558
293,530	2,122	234,924	118,335
294,545	2,652	234,866	118,709
295,560	2,752	234,606	118,644
296,574	2,266	234,417	118,161
297,589	2,333	234,283	118,135
298,603	3,023	234,217	118,626
299,618	2,589	234,236	118,289
300,633	2,708	233,999	118,251
301,647	3,102	233,907	118,499
302,662	3,019	233,907	118,424
303,676	3,110	233,731	118,395
304,691	2,990	233,495	118,172
305,706	3,073	233,314	118,134
306,720	3,132	233,121	118,071
307,735	2,945	232,982	117,847
308,749	2,838	232,652	117,586
309,764	2,584	232,568	117,337
310,779	2,670	232,366	117,292
311,793	2,398	232,071	116,923
312,808	2,488	231,994	116,943
313,822	2,547	231,858	116,909
314,837	2,442	231,813	116,795
315,852	2,347	231,553	116,582
316,866	2,560	231,589	116,752
317,881	2,864	231,414	116,887
318,895	3,073	231,434	117,046
319,910	3,268	231,237	117,085
320,925	2,794	231,112	116,649
321,939	2,634	230,717	116,317
322,954	2,927	230,767	116,556
323,968	2,909	230,562	116,428
324,983	2,517	230,500	116,088
325,997	2,879	230,344	116,274
327,012	2,712	230,125	116,026
328,027	2,661	229,900	115,864
329,041	3,140	230,083	116,310
330,056	3,747	229,864	116,650
331,070	3,588	229,795	116,484
332,085	3,092	229,393	115,894
333,100	2,511	229,287	115,390
334,114	2,878	229,037	115,532
335,129	3,107	228,953	115,652
336,143	3,063	228,964	115,614
337,158	3,236	228,992	115,749
338,173	3,329	228,663	115,643
339,187	3,188	228,458	115,421
340,202	3,290	228,299	115,408
341,216	3,018	228,186	115,136
342,231	2,826	227,961	114,867
343,246	2,819	227,790	114,766
344,260	2,823	227,802	114,765
345,275	3,140	227,735	114,959
346,289	3,320	227,440	114,935
347,304	3,311	227,311	114,853
348,319	3,107	227,205	114,636
349,333	2,921	227,060	114,414
350,348	3,006	226,676	114,273
351,362	3,149	226,715	114,389
352,377	3,065	226,580	114,248
353,392	2,927	226,363	114,025
354,406	2,747	226,343	113,871
355,421	196,574	1321,134	1402,172
356,435	157,626	1454,525	1402,195
