DTS Sentinel unit serial number:	SN410029Multiplexer serial number:	ORYXHardware model number:	OX2-SRSoftware version number:	ORYX F/W v4,00 Oryx Data Collector v3.7.2.0data status	okinstallation	B5 Nyhavnadifferential loss correction	single-endedforward channel	channel 2reverse channel	N/Adate	2023/12/13time	06:32:13forward acquisition time	300,00reverse acquisition time	0,00gamma	499,1914k internal	0,3160k external	0,3160temperature offset calibration	1,0000default loss term (dB/km)	0,3820temperature slope calibration	1,0000multiplexer offset coefficient	1,0000multiplexer slope coefficient	1,0000fibre end	0,00T internal ref (°C)	13,76T ext. ref 1 (°C)	-2,71T ext. ref 2 (°C)	-3,04length (m)	temperature (°C)	Stokes	anti-Stokes-744,400	800,000	0,026	0,059
-743,385	-92,979	-0,236	-0,048
-742,371	47,911	0,128	0,088
-741,356	31,017	-0,244	0,154
-740,342	-47,646	0,133	-0,047
-739,327	-95,958	-0,361	-0,070
-738,312	-85,063	0,124	0,028
-737,298	-60,348	-0,396	-0,123
-736,283	-57,946	0,207	0,066
-735,269	117,963	-0,127	0,115
-734,254	-103,223	0,132	-0,023
-733,239	21,346	-0,386	-0,231
-732,225	14,989	0,086	-0,049
-731,210	619,750	0,028	0,051
-730,196	87,110	-0,062	-0,051
-729,181	-151,927	-0,109	-0,006
-728,167	113,829	-0,023	-0,021
-727,152	-111,852	-0,144	-0,021
-726,137	-200,000	-0,012	-0,158
-725,123	64,116	0,103	-0,077
-724,108	50,263	-0,122	-0,085
-723,094	501,507	-0,086	-0,147
-722,079	116,862	-0,150	-0,135
-721,064	780,154	-0,060	-0,120
-720,050	-17,862	-0,054	-0,025
-719,035	800,000	-0,036	-0,089
-718,021	365,707	-0,012	-0,017
-717,006	27,812	-0,161	-0,100
-715,991	-10,313	-0,147	-0,072
-714,977	800,000	-0,079	0,220
-713,962	-104,975	0,087	-0,015
-712,948	228,021	-0,091	0,109
-711,933	-200,000	-0,001	0,046
-710,918	-76,852	-0,034	-0,009
-709,904	800,000	0,080	-0,172
-708,889	398,151	-0,130	-0,201
-707,875	577,821	0,073	-0,133
-706,860	-99,063	-0,134	-0,025
-705,845	-200,000	-0,044	-0,145
-704,831	800,000	-0,022	-0,056
-703,816	-114,581	0,105	-0,015
-702,802	-200,000	0,032	0,000
-701,787	647,485	-0,077	-0,145
-700,772	-200,000	0,002	-0,099
-699,758	-200,000	-0,018	-0,196
-698,743	-200,000	0,004	-0,102
-697,729	464,322	0,045	-0,073
-696,714	-103,743	-0,048	0,008
-695,699	460,070	-0,070	-0,115
-694,685	-118,909	-0,094	-0,012
-693,670	-56,609	-0,071	-0,023
-692,656	53,509	0,041	-0,029
-691,641	-5,448	-0,069	-0,035
-690,627	127,537	0,061	-0,057
-689,612	800,000	-0,057	-0,130
-688,597	800,000	-0,038	-0,097
-687,583	30,316	-0,149	0,093
-686,568	80,791	-0,056	0,044
-685,554	-103,485	0,070	-0,012
-684,539	475,047	0,031	0,052
-683,524	800,000	0,034	0,096
-682,510	-106,600	0,128	0,021
-681,495	-200,000	-0,000	-0,138
-680,481	-200,000	-0,014	0,057
-679,466	-49,318	0,018	-0,006
-678,451	240,806	0,055	0,067
-677,437	327,655	-0,045	0,063
-676,422	94,673	-0,019	0,016
-675,408	800,000	-0,069	0,180
-674,393	173,493	-0,057	-0,061
-673,378	27,945	-0,036	-0,022
-672,364	124,629	-0,120	-0,111
-671,349	552,612	-0,098	-0,174
-670,335	800,000	0,039	-0,120
-669,320	-200,000	-0,022	-0,073
-668,305	-65,609	-0,069	0,020
-667,291	212,246	-0,053	-0,062
-666,276	16,733	-0,132	0,077
-665,262	-200,000	0,002	-0,161
-664,247	-21,550	-0,071	-0,032
-663,232	254,719	0,069	0,087
-662,218	371,208	0,040	0,059
-661,203	11,286	-0,053	0,030
-660,189	283,052	-0,114	0,150
-659,174	401,691	-0,038	-0,059
-658,159	-6,791	0,103	-0,051
-657,145	-35,456	-0,085	0,034
-656,130	800,000	-0,026	-0,075
-655,116	393,435	0,006	-0,010
-654,101	795,696	0,038	-0,077
-653,086	248,007	-0,081	-0,101
-652,072	151,939	-0,079	-0,079
-651,057	8,781	0,041	0,023
-650,043	72,407	-0,053	-0,041
-649,028	-200,000	-0,038	-0,194
-648,014	800,000	-0,009	0,020
-646,999	-200,000	-0,009	-0,131
-645,984	598,033	-0,009	-0,017
-644,970	-200,000	-0,009	-0,065
-643,955	-7,027	-0,081	-0,040
-642,941	16,448	-0,068	-0,039
-641,926	800,000	-0,055	0,122
-640,911	-200,000	-0,020	-0,085
-639,897	-200,000	-0,021	0,108
-638,882	-44,049	-0,109	-0,040
-637,868	11,249	0,021	-0,012
-636,853	-11,549	-0,073	0,035
-635,838	-30,147	-0,056	-0,023
-634,824	194,606	0,038	0,043
-633,809	7,390	-0,085	0,047
-632,795	50,814	0,039	0,027
-631,780	800,000	0,034	-0,087
-630,765	202,389	-0,132	0,150
-629,751	42,316	0,062	0,041
-628,736	-200,000	0,018	-0,092
-627,722	-86,949	-0,117	0,026
-626,707	62,004	0,104	-0,076
-625,692	-200,000	-0,006	-0,057
-624,678	341,354	-0,037	-0,054
-623,663	-200,000	-0,003	-0,052
-622,649	75,047	-0,094	-0,073
-621,634	274,070	-0,126	-0,164
-620,619	-200,000	-0,020	-0,184
-619,605	-132,232	0,038	-0,004
-618,590	252,889	0,096	0,120
-617,576	660,768	0,048	0,091
-616,561	-32,418	0,062	0,025
-615,546	-200,000	-0,019	0,118
-614,532	-59,562	-0,060	0,019
-613,517	446,244	-0,072	-0,117
-612,503	68,545	0,061	0,046
-611,488	-200,000	0,182	0,000
-610,474	117,394	-0,118	-0,106
-609,459	51,217	0,021	-0,015
-608,444	-173,256	-0,048	0,001
-607,430	-200,000	-0,007	0,055
-606,415	476,225	-0,030	-0,051
-605,401	296,186	-0,075	0,100
-604,386	116,104	0,046	-0,042
-603,371	-156,511	0,052	-0,002
-602,357	62,550	0,117	0,085
-601,342	-92,796	0,084	-0,017
-600,328	43,552	-0,027	0,018
-599,313	800,000	-0,024	0,061
-598,298	23,787	-0,023	0,014
-597,284	-29,268	0,092	-0,039
-596,269	522,371	-0,040	0,070
-595,255	436,505	0,021	-0,034
-594,240	5,886	-0,104	-0,056
-593,225	-2,725	-0,030	-0,015
-592,211	695,719	-0,038	-0,074
-591,196	-47,296	0,097	0,034
-590,182	-200,000	-0,013	0,048
-589,167	800,000	-0,071	0,204
-588,152	32,420	0,035	-0,022
-587,138	-126,895	-0,090	0,010
-586,123	-200,000	0,032	0,104
-585,109	171,048	-0,126	-0,132
-584,094	800,000	-0,014	0,041
-583,079	-111,297	0,004	0,001
-582,065	127,246	0,078	-0,072
-581,050	-82,126	-0,038	0,009
-580,036	47,076	-0,085	0,058
-579,021	48,157	-0,113	-0,077
-578,006	-200,000	0,045	-0,169
-576,992	-200,000	-0,038	0,135
-575,977	-95,688	0,057	0,011
-574,963	-163,622	0,052	0,002
-573,948	-200,000	0,013	-0,083
-572,934	299,351	-0,062	0,084
-571,919	-200,000	-0,028	0,135
-570,904	-200,000	-0,006	0,095
-569,890	-20,270	0,085	-0,038
-568,875	355,569	0,025	0,036
-567,861	-200,000	-0,007	0,137
-566,846	782,382	0,090	0,182
-565,831	102,917	0,041	-0,035
-564,817	-200,000	0,006	-0,027
-563,802	-153,802	-0,126	0,006
-562,788	800,000	-0,033	-0,103
-561,773	-200,000	-0,031	-0,129
-560,758	-89,773	0,120	-0,025
-559,744	-86,771	0,080	-0,018
-558,729	-200,000	0,001	0,091
-557,715	800,000	0,035	0,098
-556,700	467,183	-0,076	-0,125
-555,685	282,533	-0,065	-0,086
-554,671	800,000	-0,038	0,081
-553,656	-200,000	-0,007	-0,045
-552,642	250,848	-0,023	0,029
-551,627	-93,208	-0,055	-0,011
-550,612	416,124	0,038	-0,060
-549,598	651,458	-0,097	-0,182
-548,583	-200,000	0,014	-0,156
-547,569	42,460	0,058	-0,039
-546,554	-65,298	-0,108	-0,031
-545,539	260,822	0,065	-0,082
-544,525	73,812	-0,066	-0,050
-543,510	254,876	0,037	0,047
-542,496	-130,447	-0,124	0,012
-541,481	112,285	0,077	-0,068
-540,466	599,542	0,045	-0,082
-539,452	800,000	-0,026	0,055
-538,437	-135,438	-0,178	0,015
-537,423	-200,000	-0,017	0,066
-536,408	-16,443	-0,106	-0,049
-535,393	-80,752	-0,058	-0,014
-534,379	-200,000	-0,003	0,110
-533,364	37,543	-0,093	-0,060
-532,350	800,000	-0,019	0,039
-531,335	21,054	-0,049	0,029
-530,321	-200,000	0,017	0,055
-529,306	-200,000	0,026	-0,141
-528,291	-116,194	0,108	-0,015
-527,277	199,994	0,097	-0,109
-526,262	-157,095	0,043	0,002
-525,248	-127,092	0,120	-0,013
-524,233	-48,091	0,088	-0,031
-523,218	-52,279	0,089	0,030
-522,204	-27,104	-0,109	0,046
-521,189	-18,136	0,141	-0,064
-520,175	-46,773	-0,110	-0,039
-519,160	-200,000	-0,003	-0,082
-518,145	-185,714	0,077	-0,001
-517,131	800,000	0,064	-0,159
-516,116	-122,836	0,125	-0,015
-515,102	800,000	0,023	-0,073
-514,087	121,931	-0,091	0,083
-513,072	-200,000	0,002	0,020
-512,058	-200,000	0,010	-0,108
-511,043	-95,092	0,096	0,019
-510,029	376,697	0,010	-0,014
-509,014	188,951	0,102	0,112
-507,999	353,261	-0,037	0,053
-506,985	-100,196	0,086	0,016
-505,970	800,000	-0,032	-0,068
-504,956	20,647	-0,094	-0,056
-503,941	53,534	0,091	-0,064
-502,926	393,353	-0,089	0,135
-501,912	-131,132	0,081	-0,008
-500,897	-200,000	0,021	-0,079
-499,883	65,794	0,101	-0,074
-498,868	-125,230	-0,044	-0,005
-497,853	-200,000	-0,003	-0,026
-496,839	113,766	0,090	-0,079
-495,824	479,165	0,054	0,089
-494,810	-47,937	0,133	-0,047
-493,795	-200,000	-0,002	0,078
-492,781	-200,000	0,001	-0,035
-491,766	94,114	-0,101	-0,083
-490,751	-200,000	-0,011	-0,120
-489,737	-19,458	0,014	-0,006
-488,722	97,438	0,101	0,084
-487,708	-159,077	0,084	-0,003
-486,693	-200,000	0,015	0,117
-485,678	149,950	-0,062	0,061
-484,664	800,000	-0,024	0,072
-483,649	-200,000	0,001	-0,021
-482,635	165,162	0,009	0,009
-481,620	47,603	0,068	-0,046
-480,605	-87,665	0,074	0,016
-479,591	-27,288	0,079	0,033
-478,576	-1,456	0,065	-0,034
-477,562	-74,842	-0,101	0,026
-476,547	643,366	0,065	-0,122
-475,532	-49,801	0,098	-0,034
-474,518	-105,642	0,037	-0,006
-473,503	11,372	0,126	0,070
-472,489	-200,000	0,017	0,089
-471,474	-200,000	-0,002	0,007
-470,459	-200,000	0,000	-0,004
-469,445	133,666	-0,061	0,057
-468,430	80,802	-0,152	0,119
-467,416	800,000	-0,046	-0,127
-466,401	-62,407	-0,016	-0,005
-465,386	-35,324	0,106	0,042
-464,372	761,593	0,053	0,106
-463,357	4,462	-0,146	-0,078
-462,343	-163,879	-0,092	-0,003
-461,328	-100,861	0,026	0,005
-460,313	28,615	-0,068	-0,042
-459,299	-123,842	0,092	0,010
-458,284	-109,256	0,091	0,014
-457,270	-114,960	-0,046	-0,006
-456,255	-3,699	-0,059	-0,030
-455,241	85,814	0,041	-0,033
-454,226	324,011	-0,040	-0,056
-453,211	-85,369	0,071	0,016
-452,197	-200,000	0,002	-0,116
-451,182	-200,000	0,018	-0,110
-450,168	282,316	0,026	-0,033
-449,153	180,059	-0,115	-0,123
-448,138	118,936	0,040	-0,036
-447,124	128,155	-0,097	-0,090
-446,109	249,718	-0,028	-0,034
-445,095	124,395	-0,074	-0,068
-444,080	71,013	0,099	0,075
-443,065	-200,000	-0,006	0,040
-442,051	800,000	0,061	-0,123
-441,036	-49,077	-0,072	-0,025
-440,022	-77,423	0,150	-0,038
-439,007	-66,193	-0,066	0,019
-437,992	107,471	-0,151	-0,131
-436,978	-200,000	-0,026	0,148
-435,963	726,563	0,109	0,213
-434,949	-58,834	-0,062	0,019
-433,934	-200,000	-0,002	-0,061
-432,919	137,465	0,083	-0,079
-431,905	716,452	0,040	-0,078
-430,890	-200,000	-0,016	-0,062
-429,876	-56,372	0,039	0,013
-428,861	70,696	0,083	-0,062
-427,846	-200,000	0,021	0,090
-426,832	160,216	0,033	0,034
-425,817	800,000	-0,054	-0,145
-424,803	-118,511	-0,083	-0,011
-423,788	-128,146	-0,056	-0,006
-422,773	-101,572	0,166	0,029
-421,759	-200,000	0,014	-0,172
-420,744	132,803	-0,058	0,055
-419,730	800,000	0,051	-0,163
-418,715	144,647	-0,121	-0,117
-417,701	-200,000	-0,035	0,152
-416,686	344,860	0,051	-0,074
-415,671	-200,000	-0,019	0,140
-414,657	-200,000	0,034	0,214
-413,642	348,438	0,107	0,153
-412,628	44,959	-0,049	0,033
-411,613	-31,647	-0,061	0,025
-410,598	-158,772	-0,072	0,003
-409,584	340,631	0,026	-0,037
-408,569	-200,000	-0,026	0,107
-407,555	82,375	0,048	0,038
-406,540	-51,699	0,075	0,025
-405,525	543,911	-0,060	0,105
-404,511	800,000	0,020	0,050
-403,496	-32,891	-0,011	0,005
-402,482	800,000	-0,018	0,048
-401,467	-0,132	0,035	0,018
-400,452	800,000	0,028	0,057
-399,438	166,216	-0,078	0,080
-398,423	800,000	0,018	0,046
-397,409	-200,000	0,014	-0,072
-396,394	47,450	0,048	0,033
-395,379	-71,062	0,059	0,016
-394,365	40,395	-0,038	0,025
-393,350	482,027	-0,031	0,052
-392,336	-24,403	-0,051	-0,022
-391,321	-130,789	-0,054	-0,005
-390,306	-58,221	0,008	0,003
-389,292	471,581	-0,056	-0,092
-388,277	-122,163	0,188	-0,022
-387,263	-200,000	-0,001	-0,047
-386,248	12,985	0,087	0,049
-385,233	-97,147	-0,164	0,031
-384,219	-200,000	0,030	0,099
-383,204	114,380	0,046	0,041
-382,190	-200,000	-0,013	0,083
-381,175	-47,066	-0,118	-0,042
-380,160	98,172	0,079	0,066
-379,146	-200,000	0,012	0,062
-378,131	-11,826	0,085	0,040
-377,117	680,041	-0,079	-0,149
-376,102	-117,252	-0,137	-0,018
-375,088	5,971	-0,082	-0,044
-374,073	391,101	0,102	-0,154
-373,058	77,949	-0,072	0,055
-372,044	-200,000	-0,021	0,104
-371,029	26,917	0,049	-0,030
-370,015	136,292	0,039	-0,037
-369,000	36,966	-0,121	-0,078
-367,985	26,708	0,183	-0,111
-366,971	-200,000	-0,033	-0,112
-365,956	-175,233	0,074	0,001
-364,942	758,548	0,052	0,104
-363,927	140,077	0,026	0,025
-362,912	-43,006	-0,058	0,021
-361,898	105,152	-0,047	-0,040
-360,883	301,629	0,026	0,035
-359,869	-156,007	0,169	-0,008
-358,854	-200,000	-0,011	-0,057
-357,839	-200,000	-0,014	0,153
-356,825	800,000	-0,037	0,094
-355,810	-127,513	-0,149	-0,016
-354,796	800,000	0,011	0,023
-353,781	-200,000	0,002	-0,072
-352,766	176,313	-0,054	-0,057
-351,752	-33,654	-0,150	0,060
-350,737	145,080	0,024	0,024
-349,723	-43,907	0,096	-0,035
-348,708	-200,000	-0,013	-0,062
-347,693	-59,751	0,068	0,021
-346,679	800,000	-0,017	-0,046
-345,664	-168,374	-0,101	-0,003
-344,650	285,053	0,048	0,063
-343,635	20,313	0,141	0,083
-342,620	71,346	0,106	-0,080
-341,606	10,518	0,072	-0,040
-340,591	51,103	0,069	-0,047
-339,577	-159,508	0,242	-0,010
-338,562	-133,631	0,107	-0,010
-337,548	24,717	-0,050	0,030
-336,533	-81,642	0,137	-0,032
-335,518	-200,000	-0,013	0,076
-334,504	499,479	-0,079	0,132
-333,489	438,084	-0,031	-0,049
-332,475	515,459	-0,088	-0,150
-331,460	-200,000	0,001	0,035
-330,445	91,338	-0,064	0,052
-329,431	-3,733	0,035	0,017
-328,416	771,997	-0,071	0,142
-327,402	797,498	-0,024	0,049
-326,387	800,000	0,031	-0,063
-325,372	-126,199	-0,187	-0,020
-324,358	-118,182	-0,084	0,011
-323,343	-157,728	0,050	0,002
-322,329	-200,000	-0,017	0,069
-321,314	4,877	-0,051	0,027
-320,299	78,462	0,113	0,088
-319,285	800,000	0,048	0,124
-318,270	18,039	-0,179	0,103
-317,256	-200,000	-0,020	-0,135
-316,241	-52,931	-0,079	-0,026
-315,226	24,635	-0,028	-0,017
-314,212	-200,000	0,002	0,050
-313,197	-66,889	0,131	0,037
-312,183	201,825	0,116	0,130
-311,168	-54,473	0,114	0,037
-310,153	-64,223	-0,146	-0,043
-309,139	800,000	-0,032	0,074
-308,124	-200,000	0,003	0,033
-307,110	-129,924	0,048	-0,005
-306,095	138,456	0,112	-0,107
-305,080	162,116	0,081	0,082
-304,066	-184,926	-0,138	-0,002
-303,051	-161,681	-0,031	-0,001
-302,037	70,635	0,104	0,078
-301,022	-45,320	-0,060	0,021
-300,008	800,000	0,059	0,168
-298,993	-45,342	0,065	0,023
-297,978	-27,765	0,132	0,055
-296,964	-200,000	-0,037	0,125
-295,949	-99,050	-0,149	-0,027
-294,935	589,276	0,048	-0,085
-293,920	-200,000	0,001	0,054
-292,905	-34,567	-0,088	-0,035
-291,891	712,297	-0,000	-0,001
-290,876	-200,000	-0,003	-0,076
-289,862	-54,567	-0,059	0,019
-288,847	-200,000	0,014	-0,073
-287,832	-200,000	0,003	0,023
-286,818	-131,873	-0,058	0,005
-285,803	358,243	0,060	0,087
-284,789	-200,000	0,008	0,032
-283,774	-200,000	-0,000	0,074
-282,759	57,306	0,026	-0,019
-281,745	201,577	-0,028	-0,032
-280,730	-2,394	0,041	0,021
-279,716	3,818	0,067	0,035
-278,701	312,811	0,060	-0,082
-277,686	-187,722	-0,136	0,001
-276,672	-200,000	-0,004	0,026
-275,657	16,402	0,061	0,035
-274,643	800,000	0,055	-0,115
-273,628	-200,000	-0,010	-0,073
-272,613	-193,291	-0,130	0,001
-271,599	190,519	0,076	0,083
-270,584	43,129	-0,085	0,056
-269,570	87,823	0,074	-0,059
-268,555	800,000	-0,015	-0,033
-267,540	589,339	0,023	0,041
-266,526	382,227	0,016	-0,025
-265,511	-155,650	0,068	0,003
-264,497	-200,000	0,007	-0,085
-263,482	-200,000	-0,002	0,059
-262,467	-200,000	0,030	-0,105
-261,453	-200,000	0,004	0,124
-260,438	-51,073	0,104	-0,035
-259,424	800,000	-0,039	-0,112
-258,409	-118,397	-0,032	-0,004
-257,395	-3,924	-0,082	0,041
-256,380	-55,137	0,168	-0,054
-255,365	283,400	0,104	0,135
-254,351	-200,000	-0,005	0,052
-253,336	182,043	0,021	-0,023
-252,322	-126,953	0,083	-0,009
-251,307	796,274	0,028	0,056
-250,292	-144,492	-0,230	-0,015
-249,278	192,597	0,103	-0,112
-248,263	16,051	0,081	0,046
-247,249	111,076	-0,069	0,060
-246,234	800,000	-0,047	-0,141
-245,219	-200,000	0,014	0,101
-244,205	5,640	0,070	0,038
-243,190	-200,000	-0,013	-0,053
-242,176	-200,000	0,015	-0,107
-241,161	-10,172	0,041	-0,019
-240,146	-200,000	0,032	0,126
-239,132	343,388	-0,087	-0,124
-238,117	800,000	-0,034	-0,078
-237,103	-200,000	0,003	-0,076
-236,088	1,555	-0,103	-0,054
-235,073	663,201	0,057	0,106
-234,059	-67,928	0,069	-0,019
-233,044	196,954	0,017	0,019
-232,030	-89,652	0,037	-0,008
-231,015	399,807	-0,100	-0,152
-230,000	479,381	-0,058	-0,095
-228,986	10,160	0,116	0,064
-227,971	-200,000	0,005	-0,086
-226,957	393,097	-0,034	-0,051
-225,942	-54,140	-0,123	0,040
-224,927	800,000	0,023	-0,058
-223,913	162,502	0,023	-0,024
-222,898	-27,604	-0,214	-0,089
-221,884	43,180	-0,074	0,049
-220,869	15,045	-0,101	-0,057
-219,855	-145,107	0,063	-0,004
-218,840	192,297	-0,085	0,092
-217,825	56,232	0,060	0,042
-216,811	-171,394	-0,157	-0,004
-215,796	101,205	0,072	-0,061
-214,782	-28,131	-0,052	-0,022
-213,767	269,383	0,040	0,051
-212,752	-34,101	0,120	0,047
-211,738	-200,000	0,018	-0,061
-210,723	36,983	-0,055	-0,035
-209,709	71,589	0,059	-0,044
-208,694	-60,457	-0,157	-0,048
-207,679	273,450	0,042	-0,054
-206,665	207,158	-0,110	-0,124
-205,650	698,934	-0,039	0,075
-204,636	-200,000	-0,032	0,112
-203,621	-200,000	0,012	-0,103
-202,606	-124,324	0,107	-0,012
-201,592	-200,000	-0,026	-0,107
-200,577	800,000	0,103	-0,212
-199,563	-159,835	-0,084	0,003
-198,548	204,443	0,111	0,124
-197,533	476,978	0,008	-0,013
-196,519	-115,181	0,070	0,009
-195,504	-96,639	0,082	-0,016
-194,490	-200,000	0,034	0,109
-193,475	-200,000	0,020	-0,099
-192,460	38,330	-0,043	0,027
-191,446	800,000	0,042	-0,084
-190,431	-200,000	0,013	0,096
-189,417	39,069	0,081	0,052
-188,402	375,888	-0,041	0,060
-187,387	250,629	-0,051	-0,063
-186,373	-200,000	-0,007	0,150
-185,358	277,087	-0,060	-0,077
-184,344	-200,000	-0,020	0,075
-183,329	327,853	0,042	0,058
-182,315	-200,000	-0,012	0,099
-181,300	800,000	-0,015	0,045
-180,285	-200,000	0,009	0,033
-179,271	-69,377	-0,115	0,032
-178,256	-9,781	0,074	0,035
-177,242	54,189	0,042	0,029
-176,227	-200,000	0,009	0,104
-175,212	-166,451	-0,108	-0,003
-174,198	-200,000	-0,007	0,179
-173,183	-200,000	0,003	-0,014
-172,169	-95,760	-0,054	0,010
-171,154	745,127	-0,072	0,139
-170,139	-200,000	0,014	0,060
-169,125	-34,810	-0,139	0,054
-168,110	-200,000	0,038	0,162
-167,096	-200,000	-0,016	0,078
-166,081	-102,817	0,086	-0,015
-165,066	-72,395	-0,090	0,024
-164,052	286,154	-0,083	0,108
-163,037	800,000	-0,021	0,045
-162,023	-36,709	0,179	0,069
-161,008	-200,000	-0,003	0,058
-159,993	12,279	-0,089	-0,049
-158,979	-200,000	-0,009	-0,044
-157,964	174,770	0,061	0,064
-156,950	-46,023	-0,095	0,034
-155,935	800,000	0,035	-0,095
-154,920	95,193	-0,028	0,023
-153,906	296,840	-0,070	-0,093
-152,891	-200,000	0,013	-0,107
-151,877	-121,049	0,138	0,016
-150,862	-67,438	0,073	-0,020
-149,847	121,173	0,114	-0,103
-148,833	-130,276	-0,099	-0,010
-147,818	341,578	0,051	0,072
-146,804	9,704	0,122	-0,066
-145,789	256,886	0,040	-0,049
-144,775	-7,610	0,056	-0,027
-143,760	800,000	0,053	-0,154
-142,745	40,434	0,022	0,014
-141,731	294,342	0,036	-0,048
-140,716	348,944	-0,077	-0,110
-139,702	112,560	-0,075	-0,065
-138,687	-32,594	-0,047	0,019
-137,672	-163,142	-0,107	0,004
-136,658	-7,961	-0,037	-0,018
-135,643	-1,587	0,144	-0,073
-134,629	-143,955	0,062	-0,004
-133,614	-200,000	0,037	0,140
-132,599	-200,000	-0,011	0,061
-131,585	-170,056	0,038	0,001
-130,570	280,087	0,037	-0,047
-129,556	-184,371	-0,054	0,001
-128,541	-115,015	-0,051	-0,007
-127,526	392,758	0,063	0,095
-126,512	180,492	0,051	-0,054
-125,497	-43,766	0,134	-0,048
-124,483	800,000	0,024	-0,074
-123,468	800,000	0,039	-0,107
-122,453	-200,000	0,015	0,052
-121,439	-120,777	-0,099	0,012
-120,424	-29,963	0,027	-0,011
-119,410	147,335	0,092	-0,089
-118,395	-83,407	0,052	0,012
-117,380	378,579	0,021	0,031
-116,366	-200,000	-0,012	0,041
-115,351	194,176	0,079	-0,086
-114,337	-200,000	-0,022	-0,108
-113,322	106,099	-0,039	-0,033
-112,307	12,467	0,111	-0,061
-111,293	641,775	-0,049	-0,090
-110,278	55,807	-0,077	0,054
-109,264	-80,041	-0,069	-0,017
-108,249	616,260	-0,052	-0,095
-107,234	242,915	0,057	0,069
-106,220	800,000	0,018	0,050
-105,205	-86,218	0,107	0,024
-104,191	78,047	0,073	0,056
-103,176	200,108	-0,002	-0,002
-102,162	227,633	0,043	-0,050
-101,147	800,000	0,034	-0,094
-100,132	-85,554	-0,104	0,023
-99,118	37,828	-0,061	0,039
-98,103	-200,000	-0,009	0,084
-97,089	-77,072	0,091	0,023
-96,074	-200,000	-0,024	-0,149
-95,059	-200,000	-0,031	0,142
-94,045	308,453	0,036	-0,049
-93,030	299,928	0,083	-0,110
-92,016	143,008	-0,063	0,060
-91,001	-31,454	-0,054	-0,022
-89,986	-200,000	0,014	-0,079
-88,972	67,086	0,052	-0,038
-87,957	-200,000	-0,016	-0,062
-86,943	244,890	-0,070	-0,084
-85,928	-77,508	-0,096	-0,024
-84,913	-81,102	0,018	0,004
-83,899	-10,026	0,013	0,006
-82,884	-25,776	0,148	0,062
-81,870	800,000	-0,043	0,100
-80,855	265,234	-0,059	0,074
-79,840	800,000	-0,035	0,107
-78,826	65,856	0,047	-0,034
-77,811	69,421	-0,060	0,044
-76,797	171,618	0,140	-0,145
-75,782	1,731	0,068	-0,035
-74,767	-200,000	-0,024	-0,144
-73,753	151,118	-0,051	0,050
-72,738	90,450	-0,079	0,064
-71,724	-200,000	0,012	0,056
-70,709	273,068	-0,052	-0,066
-69,694	-200,000	0,002	0,016
-68,680	64,540	-0,021	0,015
-67,665	-77,074	0,167	0,041
-66,651	-33,878	0,026	0,010
-65,636	102,222	-0,062	0,052
-64,622	46,137	-0,028	-0,019
-63,607	150,037	0,017	-0,016
-62,592	-70,473	-0,141	-0,038
-61,578	-143,452	0,124	-0,008
-60,563	-109,392	0,072	0,011
-59,549	62,531	-0,121	0,087
-58,534	18,865	-2,270	-1,301
-57,519	-200,000	-0,192	-0,756
-56,505	-200,000	-1,476	-5,211
-55,490	84,038	0,832	0,652
-54,476	800,000	5,405	11,987
-53,461	-200,000	18,691	316,209
-52,446	800,000	741,104	2331,941
-51,432	558,600	1657,143	2878,949
-50,417	111,158	1641,070	1417,470
-49,403	75,517	1290,803	976,256
-48,388	30,385	1031,310	630,413
-47,373	19,929	993,964	572,937
-46,359	17,415	981,690	557,561
-45,344	14,144	977,851	544,603
-44,330	14,431	976,117	544,558
-43,315	13,835	974,474	541,664
-42,300	13,786	973,442	540,910
-41,286	13,760	972,261	540,145
-40,271	13,786	971,446	539,757
-39,257	13,797	970,588	539,295
-38,242	13,746	969,808	538,674
-37,227	13,793	968,760	538,222
-36,213	13,871	967,654	537,842
-35,198	13,743	966,935	537,005
-34,184	13,749	966,625	536,828
-33,169	13,746	965,262	536,042
-32,154	13,829	964,292	535,750
-31,140	13,787	963,488	535,146
-30,125	13,772	962,904	534,753
-29,111	13,767	961,962	534,193
-28,096	13,801	961,237	533,880
-27,082	13,767	960,596	533,392
-26,067	13,810	959,719	533,021
-25,052	13,802	959,044	532,601
-24,038	13,792	958,357	532,164
-23,023	13,826	957,668	531,870
-22,009	13,786	957,096	531,404
-20,994	13,785	956,421	531,005
-19,979	13,820	955,680	530,684
-18,965	13,846	955,111	530,432
-17,950	13,788	954,618	529,951
-16,936	13,738	954,118	529,491
-15,921	13,734	953,234	528,965
-14,906	13,709	952,490	528,451
-13,892	13,685	951,994	528,078
-12,877	13,726	951,280	527,794
-11,863	13,648	950,616	527,156
-10,848	13,636	950,166	526,846
-9,833	13,717	949,560	526,746
-8,819	13,720	948,893	526,366
-7,804	13,656	948,339	525,834
-6,790	13,718	947,608	525,606
-5,775	13,760	947,115	525,445
-4,760	13,768	946,367	525,034
-3,746	13,654	946,042	524,470
-2,731	13,565	945,167	523,680
-1,717	13,532	944,464	523,166
-0,702	13,524	943,810	522,759
0,313	13,321	943,353	522,649
1,327	16,696	940,880	531,917
2,342	25,723	795,878	473,925
3,356	22,111	460,658	268,737
4,371	-5,029	318,124	156,381
5,386	-8,804	299,909	143,546
6,400	-11,001	293,861	138,430
7,415	-11,172	291,443	137,109
8,429	-11,544	289,799	135,955
9,444	-11,646	289,012	135,472
10,459	-11,496	288,312	135,280
11,473	-11,423	287,602	135,007
12,488	-11,544	287,276	134,722
13,502	-11,355	286,632	134,594
14,517	-11,305	286,239	134,446
15,531	-11,332	285,731	134,169
16,546	-11,395	285,474	133,975
17,561	-11,424	285,010	133,717
18,575	-11,279	284,564	133,637
19,590	-11,503	284,182	133,228
20,604	-11,421	284,023	133,221
21,619	-11,510	283,588	132,919
22,634	-11,413	283,218	132,828
23,648	-11,238	282,944	132,857
24,663	-11,418	282,673	132,544
25,677	-11,427	282,557	132,469
26,692	-11,426	282,112	132,250
27,707	-11,592	281,901	131,979
28,721	-11,474	281,543	131,913
29,736	-11,333	281,180	131,867
30,750	-11,461	280,977	131,637
31,765	-11,418	280,676	131,525
32,780	-11,426	280,663	131,500
33,794	-11,422	280,252	131,299
34,809	-11,455	279,840	131,063
35,823	-11,546	279,828	130,958
36,838	-11,465	279,365	130,808
37,853	-11,486	279,155	130,678
38,867	-11,374	278,960	130,681
39,882	-11,352	278,735	130,585
40,896	-11,472	278,575	130,384
41,911	-11,622	278,249	130,078
42,926	-11,465	277,894	130,049
43,940	-11,526	277,741	129,908
44,955	-11,531	277,472	129,766
45,969	-11,492	277,234	129,680
46,984	-11,603	277,050	129,478
47,999	-11,741	276,698	129,171
49,013	-12,086	276,566	128,773
50,028	-12,033	276,171	128,627
51,042	-12,018	275,700	128,410
52,057	-12,306	275,750	128,152
53,071	-12,098	275,448	128,195
54,086	-11,941	275,213	128,222
55,101	-11,844	275,018	128,210
56,115	-11,834	275,029	128,213
57,130	-11,449	274,814	128,463
58,144	-11,368	274,600	128,427
59,159	-11,281	274,300	128,356
60,174	-11,301	274,122	128,243
61,188	-11,319	273,909	128,115
62,203	-11,481	273,752	127,879
63,217	-11,259	273,316	127,870
64,232	-11,411	273,266	127,695
65,247	-11,372	273,096	127,639
66,261	-11,342	272,678	127,460
67,276	-11,401	272,389	127,259
68,290	-11,769	272,219	126,828
69,305	-11,749	271,983	126,725
70,320	-11,723	271,748	126,629
71,334	-11,644	271,652	126,645
72,349	-11,311	271,482	126,862
73,363	-11,317	271,021	126,630
74,378	-11,255	270,871	126,605
75,393	-11,195	270,762	126,599
76,407	-11,281	270,394	126,336
77,422	-11,295	270,204	126,223
78,436	-11,343	270,011	126,078
79,451	-11,460	269,979	125,945
80,466	-11,462	269,649	125,778
81,480	-11,481	269,441	125,652
82,495	-11,555	269,226	125,473
83,509	-11,397	268,875	125,442
84,524	-11,447	268,728	125,316
85,539	-11,627	268,507	125,038
86,553	-11,637	268,457	124,995
87,568	-11,531	268,114	124,921
88,582	-11,570	267,937	124,791
89,597	-11,524	267,676	124,701
90,611	-11,495	267,637	124,698
91,626	-11,354	267,530	124,765
92,641	-11,359	267,097	124,547
93,655	-11,477	266,945	124,358
94,670	-11,447	266,656	124,240
95,684	-11,361	266,516	124,241
96,699	-11,432	266,371	124,098
97,714	-11,541	266,207	123,912
98,728	-11,560	265,941	123,761
99,743	-11,699	265,754	123,537
100,757	-11,640	265,356	123,393
101,772	-11,588	265,288	123,398
102,787	-11,480	265,087	123,391
103,801	-11,619	264,923	123,178
104,816	-11,362	264,710	123,299
105,830	-11,398	264,628	123,218
106,845	-11,210	264,372	123,256
107,860	-11,361	264,186	123,023
108,874	-11,379	263,952	122,887
109,889	-11,321	263,603	122,766
110,903	-11,481	263,446	122,538
111,918	-11,378	263,217	122,513
112,933	-11,330	262,935	122,413
113,947	-11,621	263,032	122,188
114,962	-11,382	262,634	122,205
115,976	-11,275	262,642	122,294
116,991	-11,288	262,318	122,120
118,006	-11,536	262,145	121,808
119,020	-11,490	261,997	121,769
120,035	-11,399	262,007	121,844
121,049	-11,382	261,725	121,717
122,064	-11,289	261,489	121,679
123,079	-11,234	261,211	121,587
124,093	-11,638	261,029	121,135
125,108	-11,498	260,772	121,129
126,122	-11,786	260,499	120,736
127,137	-11,712	260,252	120,677
128,151	-11,719	260,206	120,639
129,166	-11,591	260,015	120,652
130,181	-11,731	259,636	120,342
131,195	-11,753	259,601	120,296
132,210	-11,449	259,295	120,410
133,224	-11,284	259,299	120,546
134,239	-11,356	259,021	120,343
135,254	-11,239	258,696	120,283
136,268	-11,467	258,501	119,982
137,283	-11,670	258,344	119,722
138,297	-11,541	258,153	119,736
139,312	-11,679	257,983	119,525
140,327	-11,496	257,892	119,632
141,341	-11,264	257,802	119,782
142,356	-11,372	257,615	119,590
143,370	-11,169	257,370	119,643
144,385	-11,056	257,165	119,635
145,400	-11,049	257,022	119,564
146,414	-11,069	256,842	119,452
147,429	-11,116	256,621	119,298
148,443	-11,355	256,437	118,994
149,458	-11,005	256,199	119,177
150,473	-11,216	256,074	118,925
151,487	-11,237	255,857	118,796
152,502	-11,062	255,633	118,832
153,516	-11,177	255,565	118,690
154,531	-11,156	255,248	118,551
155,546	-11,330	255,205	118,370
156,560	-11,289	254,898	118,253
157,575	-11,253	254,759	118,209
158,589	-11,258	254,475	118,062
159,604	-11,210	254,431	118,072
160,619	-11,098	254,161	118,032
161,633	-11,199	253,949	117,837
162,648	-11,071	253,983	117,952
163,662	-11,139	253,558	117,686
164,677	-11,099	253,577	117,718
165,692	-11,248	253,393	117,495
166,706	-11,111	253,228	117,525
167,721	-11,245	253,011	117,299
168,735	-11,165	252,724	117,224
169,750	-11,068	252,571	117,226
170,764	-11,054	252,526	117,206
171,779	-10,923	252,467	117,280
172,794	-11,130	252,329	117,029
173,808	-11,068	252,040	116,938
174,823	-11,523	251,787	116,423
175,837	-11,708	251,405	116,080
176,852	-11,203	251,404	116,496
177,867	-11,213	251,373	116,463
178,881	-11,103	251,162	116,448
179,896	-11,097	251,010	116,373
180,910	-11,044	250,761	116,292
181,925	-11,059	250,633	116,209
182,940	-11,066	250,557	116,158
183,954	-11,141	250,328	115,978
184,969	-11,261	250,267	115,838
185,983	-11,120	249,897	115,776
186,998	-11,122	249,887	115,759
188,013	-11,130	249,684	115,648
189,027	-10,927	249,363	115,659
190,042	-10,900	249,222	115,606
191,056	-11,013	249,020	115,407
192,071	-10,876	248,813	115,416
193,086	-11,109	248,671	115,144
194,100	-11,186	248,468	114,976
195,115	-11,116	248,271	114,933
196,129	-11,114	248,210	114,896
197,144	-11,158	247,931	114,720
198,159	-11,084	247,738	114,682
199,173	-11,140	247,545	114,536
200,188	-11,175	247,292	114,379
201,202	-11,477	247,203	114,077
202,217	-11,631	246,893	113,796
203,232	-11,699	246,792	113,683
204,246	-11,228	246,640	113,993
205,261	-10,709	246,380	114,293
206,275	-11,686	246,061	113,326
207,290	-8,117	247,515	116,954
208,304	-0,154	250,368	124,973
209,319	4,173	251,668	129,246
210,334	4,928	251,643	129,855
211,348	5,122	251,386	129,873
212,363	5,206	251,321	129,898
213,377	5,071	251,219	129,721
214,392	4,958	251,049	129,527
215,407	5,088	250,707	129,447
216,421	4,972	250,561	129,264
217,436	5,064	250,462	129,278
218,450	5,164	250,336	129,284
219,465	4,841	250,098	128,881
220,480	4,750	249,799	128,640
221,494	4,569	249,845	128,502
222,509	4,673	249,556	128,428
223,523	4,417	249,238	128,040
224,538	4,351	249,020	127,862
225,553	4,346	249,077	127,876
226,567	4,646	248,766	127,953
227,582	4,640	248,839	127,975
228,596	4,719	248,605	127,909
229,611	4,229	248,299	127,335
230,626	4,215	248,086	127,202
231,640	4,311	247,955	127,203
232,655	4,586	247,747	127,311
233,669	4,513	247,405	127,065
234,684	4,327	247,471	126,934
235,699	4,583	247,491	127,143
236,713	4,699	247,184	127,070
237,728	4,468	247,043	126,797
238,742	4,164	246,647	126,332
239,757	4,128	246,521	126,227
240,772	4,114	246,446	126,166
241,786	4,210	246,342	126,180
242,801	4,386	246,055	126,166
243,815	4,231	246,005	126,003
244,830	4,499	245,888	126,150
245,844	4,409	245,754	125,996
246,859	4,219	245,504	125,702
247,874	4,347	245,266	125,674
248,888	4,332	245,184	125,608
249,903	4,370	245,147	125,609
250,917	4,499	244,988	125,621
251,932	4,506	244,888	125,564
252,947	4,655	244,743	125,600
253,961	4,501	244,508	125,343
254,976	4,514	244,434	125,304
255,990	4,608	244,183	125,241
257,005	4,265	243,900	124,807
258,020	4,182	243,795	124,675
259,034	4,299	243,637	124,677
260,049	4,529	243,518	124,791
261,063	4,231	243,369	124,463
262,078	4,324	243,120	124,400
263,093	4,389	243,077	124,419
264,107	4,511	242,921	124,427
265,122	4,389	242,760	124,235
266,136	4,717	242,572	124,392
267,151	4,655	242,519	124,303
268,166	4,422	242,257	123,970
269,180	4,180	242,093	123,681
270,195	4,974	242,025	124,272
271,209	5,067	242,008	124,327
272,224	4,313	241,618	123,513
273,239	4,193	241,278	123,231
274,253	3,998	241,412	123,133
275,268	4,354	241,216	123,306
276,282	4,437	241,023	123,263
277,297	4,196	240,697	122,893
278,312	4,280	240,639	122,920
279,326	4,615	240,561	123,135
280,341	4,375	240,432	122,867
281,355	4,461	240,188	122,800
282,370	4,663	240,152	122,931
283,384	4,176	240,013	122,463
284,399	4,143	239,855	122,344
285,414	4,151	239,600	122,210
286,428	4,268	239,431	122,206
287,443	4,345	239,327	122,202
288,457	4,413	239,427	122,296
289,472	4,609	239,105	122,276
290,487	4,492	238,894	122,065
291,501	4,358	238,657	121,827
292,516	3,986	238,546	121,466
293,530	3,936	238,485	121,385
294,545	4,553	238,184	121,707
295,560	4,426	237,981	121,492
296,574	4,068	237,797	121,106
297,589	4,102	237,896	121,172
298,603	4,756	237,619	121,534
299,618	4,640	237,672	121,460
300,633	4,451	237,450	121,187
301,647	4,703	237,336	121,316
302,662	4,852	237,334	121,420
303,676	4,666	237,110	121,149
304,691	4,389	237,000	120,866
305,706	4,847	236,795	121,109
306,720	4,702	236,675	120,923
307,735	4,796	236,351	120,820
308,749	4,497	236,188	120,492
309,764	4,246	236,080	120,231
310,779	4,126	235,848	120,009
311,793	3,985	235,639	119,782
312,808	4,080	235,365	119,706
313,822	4,049	235,268	119,622
314,837	4,125	235,090	119,579
315,852	3,899	235,039	119,368
316,866	4,236	234,973	119,585
317,881	4,322	234,753	119,529
318,895	4,314	234,609	119,438
319,910	4,737	234,601	119,751
320,925	4,497	234,411	119,458
321,939	4,419	234,037	119,197
322,954	4,599	234,178	119,397
323,968	4,374	233,860	119,050
324,983	4,351	233,862	119,024
325,997	4,578	233,710	119,110
327,012	4,813	233,394	119,119
328,027	4,601	233,335	118,915
329,041	4,861	233,337	119,106
330,056	5,378	233,207	119,426
331,070	5,231	233,200	119,299
332,085	4,757	232,906	118,774
333,100	4,565	232,484	118,401
334,114	4,624	232,381	118,384
335,129	4,817	232,400	118,531
336,143	4,964	232,320	118,592
337,158	4,890	232,161	118,443
338,173	4,502	231,857	117,982
339,187	4,492	231,610	117,837
340,202	4,721	231,397	117,893
341,216	4,556	231,398	117,757
342,231	4,351	231,293	117,537
343,246	4,374	231,178	117,486
344,260	4,593	231,133	117,619
345,275	4,830	230,956	117,699
346,289	4,967	230,727	117,676
347,304	4,887	230,576	117,528
348,319	4,669	230,475	117,300
349,333	4,648	230,220	117,143
350,348	4,450	230,060	116,903
351,362	4,589	229,995	116,964
352,377	4,351	229,727	116,637
353,392	3,974	229,615	116,286
354,406	4,139	229,554	116,368
355,421	194,886	1320,747	1394,342
356,435	156,306	1453,653	1394,312
