DTS Sentinel unit serial number:	SN410029Multiplexer serial number:	ORYXHardware model number:	OX2-SRSoftware version number:	ORYX F/W v4,00 Oryx Data Collector v3.7.2.0data status	okinstallation	B5 Nyhavnadifferential loss correction	single-endedforward channel	channel 2reverse channel	N/Adate	2023/12/12time	17:07:13forward acquisition time	300,00reverse acquisition time	0,00gamma	499,1914k internal	0,3156k external	0,3156temperature offset calibration	1,0000default loss term (dB/km)	0,3820temperature slope calibration	1,0000multiplexer offset coefficient	1,0000multiplexer slope coefficient	1,0000fibre end	0,00T internal ref (°C)	15,75T ext. ref 1 (°C)	-0,85T ext. ref 2 (°C)	-1,15length (m)	temperature (°C)	Stokes	anti-Stokes-744,400	64,794	0,062	0,046
-743,385	-63,347	-0,314	0,095
-742,371	-131,904	0,114	-0,011
-741,356	-161,732	-0,304	-0,011
-740,342	-200,000	0,037	0,121
-739,327	-86,223	-0,226	-0,051
-738,312	-43,598	0,076	-0,028
-737,298	-149,632	-0,383	-0,022
-736,283	-58,878	0,122	-0,039
-735,269	-200,000	-0,189	-0,000
-734,254	-165,198	-0,034	0,001
-733,239	-73,639	-0,632	-0,169
-732,225	8,615	0,176	0,098
-731,210	331,481	-0,061	0,087
-730,196	285,818	-0,064	0,086
-729,181	-192,027	-0,034	0,000
-728,167	614,651	-0,004	0,007
-727,152	-153,640	-0,035	0,002
-726,137	-106,694	-0,206	-0,033
-725,123	28,552	-0,035	0,022
-724,108	74,466	0,053	-0,041
-723,094	250,408	0,117	-0,147
-722,079	-50,799	-0,039	-0,013
-721,064	102,117	-0,081	-0,069
-720,050	-0,213	-0,102	0,053
-719,035	90,311	-0,084	-0,069
-718,021	800,000	-0,048	-0,123
-717,006	223,062	0,017	-0,020
-715,991	-200,000	0,023	-0,107
-714,977	-67,547	-0,107	-0,031
-713,962	36,188	-0,115	0,074
-712,948	-96,567	0,072	-0,014
-711,933	235,890	-0,006	0,007
-710,918	-97,701	-0,166	0,031
-709,904	100,542	0,062	-0,053
-708,889	-200,000	0,004	-0,105
-707,875	800,000	0,019	-0,053
-706,860	800,000	-0,031	-0,080
-705,845	-52,189	0,151	-0,051
-704,831	538,750	-0,058	0,102
-703,816	-200,000	0,016	-0,117
-702,802	-200,000	-0,013	0,160
-701,787	800,000	-0,036	-0,092
-700,772	342,447	0,080	0,116
-699,758	-25,847	-0,062	-0,027
-698,743	351,444	-0,006	-0,009
-697,729	264,190	-0,131	0,169
-696,714	21,976	0,171	0,103
-695,699	-140,222	0,003	0,000
-694,685	-55,860	-0,079	0,026
-693,670	92,921	-0,048	-0,040
-692,656	-38,237	0,052	0,020
-691,641	800,000	0,042	0,113
-690,627	373,407	-0,079	0,118
-689,612	-200,000	-0,030	-0,113
-688,597	-200,000	-0,003	0,029
-687,583	-200,000	-0,041	-0,137
-686,568	-51,999	-0,046	0,016
-685,554	-200,000	0,004	-0,028
-684,539	-174,160	0,073	0,002
-683,524	-17,353	-0,052	-0,024
-682,510	-200,000	-0,008	0,111
-681,495	-30,020	0,042	-0,017
-680,481	-171,694	0,037	0,001
-679,466	-200,000	0,013	-0,118
-678,451	-170,240	-0,120	0,003
-677,437	286,468	0,109	0,145
-676,422	202,789	-0,100	0,113
-675,408	202,280	-0,143	-0,163
-674,393	-99,838	0,042	0,008
-673,378	-72,427	-0,055	-0,015
-672,364	-12,981	0,054	-0,026
-671,349	76,342	-0,058	0,045
-670,335	-200,000	-0,026	0,186
-669,320	-54,122	0,106	-0,035
-668,305	542,147	-0,012	-0,021
-667,291	-200,000	0,001	0,010
-666,276	-17,934	-0,118	-0,054
-665,262	-200,000	-0,011	-0,036
-664,247	245,527	-0,019	0,024
-663,232	218,232	0,032	-0,038
-662,218	115,452	0,044	-0,039
-661,203	327,160	0,042	0,059
-660,189	-200,000	0,016	-0,081
-659,174	-57,659	-0,158	-0,050
-658,159	-100,512	-0,080	0,014
-657,145	-200,000	0,021	-0,118
-656,130	3,518	-0,063	-0,033
-655,116	-108,608	0,043	-0,007
-654,101	209,684	0,061	-0,070
-653,086	25,099	-0,061	0,037
-652,072	-200,000	0,006	-0,074
-651,057	231,859	-0,062	-0,075
-650,043	-200,000	-0,011	0,151
-649,028	48,075	-0,101	0,069
-648,014	-200,000	0,007	-0,050
-646,999	218,040	0,061	-0,072
-645,984	334,728	0,040	-0,058
-644,970	-136,050	-0,105	-0,009
-643,955	-20,807	-0,109	0,049
-642,941	477,379	-0,028	0,047
-641,926	-115,330	-0,082	-0,011
-640,911	16,006	0,100	0,058
-639,897	-28,111	0,150	0,064
-638,882	-200,000	-0,002	0,044
-637,868	70,562	-0,077	0,059
-636,853	-33,862	-0,099	-0,040
-635,838	-200,000	0,014	-0,059
-634,824	-89,685	-0,143	0,030
-633,809	-200,000	0,028	0,137
-632,795	-109,959	-0,031	0,005
-631,780	-44,414	-0,087	0,032
-630,765	-79,424	0,092	0,023
-629,751	83,748	-0,082	-0,066
-628,736	-99,220	0,025	0,005
-627,722	-200,000	0,004	0,046
-626,707	360,256	-0,092	-0,135
-625,692	-200,000	-0,001	-0,147
-624,678	-200,000	0,015	-0,167
-623,663	-97,681	-0,049	0,009
-622,649	16,828	-0,106	-0,061
-621,634	7,061	-0,064	-0,035
-620,619	-25,560	-0,014	0,006
-619,605	-200,000	-0,004	-0,019
-618,590	508,914	-0,037	0,063
-617,576	103,894	0,064	-0,056
-616,561	343,246	-0,018	-0,025
-615,546	448,124	-0,058	0,094
-614,532	-14,479	-0,122	-0,057
-613,517	-200,000	0,002	-0,056
-612,503	186,423	0,096	0,104
-611,488	-168,410	0,165	0,005
-610,474	-200,000	0,035	-0,127
-609,459	-55,459	-0,077	0,025
-608,444	-200,000	-0,023	-0,080
-607,430	9,917	-0,101	-0,056
-606,415	-200,000	0,014	-0,060
-605,401	200,591	-0,046	0,052
-604,386	-64,754	0,079	0,023
-603,371	184,761	0,059	0,064
-602,357	-56,196	0,071	-0,023
-601,342	-200,000	0,026	0,137
-600,328	800,000	-0,035	-0,085
-599,313	-200,000	-0,003	0,030
-598,298	149,296	-0,077	-0,077
-597,284	87,625	0,052	-0,042
-596,269	220,624	-0,069	0,081
-595,255	800,000	0,043	-0,128
-594,240	-75,976	0,109	-0,028
-593,225	800,000	0,013	0,036
-592,211	-34,341	0,046	0,018
-591,196	-93,185	0,133	0,027
-590,182	-0,933	0,120	-0,062
-589,167	9,468	-0,041	0,023
-588,152	-200,000	0,003	0,026
-587,138	800,000	-0,054	-0,134
-586,123	-54,013	0,082	-0,027
-585,109	-124,840	-0,245	-0,027
-584,094	14,800	0,057	0,033
-583,079	-200,000	0,005	-0,119
-582,065	109,562	-0,074	0,065
-581,050	56,365	0,116	0,083
-580,036	-29,434	-0,054	-0,023
-579,021	401,662	-0,045	-0,069
-578,006	131,414	-0,059	-0,056
-576,992	-200,000	-0,013	-0,114
-575,977	-200,000	0,004	0,024
-574,963	-10,188	0,062	0,030
-573,948	800,000	-0,043	0,103
-572,934	776,020	0,064	0,129
-571,919	168,696	-0,111	-0,116
-570,904	320,336	-0,085	0,119
-569,890	31,688	0,033	0,021
-568,875	-145,836	-0,109	-0,007
-567,861	-118,644	0,139	0,018
-566,846	28,575	-0,038	0,023
-565,831	62,304	-0,117	0,086
-564,817	-73,858	0,205	0,054
-563,802	-200,000	0,005	0,034
-562,788	72,365	0,121	-0,092
-561,773	800,000	-0,023	0,072
-560,758	-200,000	0,002	0,005
-559,744	437,444	-0,021	-0,033
-558,729	207,265	0,015	0,017
-557,715	129,899	-0,130	-0,122
-556,700	793,942	-0,023	0,046
-555,685	-115,259	-0,068	0,009
-554,671	164,788	-0,032	0,033
-553,656	48,969	-0,055	0,038
-552,642	165,089	-0,119	0,123
-551,627	264,558	0,037	-0,048
-550,612	-200,000	-0,188	-0,001
-549,598	-100,652	-0,103	-0,018
-548,583	324,697	-0,048	0,067
-547,569	-200,000	-0,001	0,125
-546,554	15,109	0,018	-0,011
-545,539	254,338	-0,051	0,064
-544,525	646,178	0,085	0,160
-543,510	-200,000	-0,011	-0,057
-542,496	-9,230	0,046	0,022
-541,481	-200,000	-0,011	0,116
-540,466	800,000	-0,021	-0,054
-539,452	800,000	0,046	0,109
-538,437	44,289	0,081	0,054
-537,423	-200,000	-0,044	0,152
-536,408	-200,000	-0,028	-0,155
-535,393	319,303	-0,169	-0,236
-534,379	101,778	-0,118	-0,101
-533,364	-117,970	0,113	0,015
-532,350	34,662	0,106	0,068
-531,335	-35,119	0,014	-0,005
-530,321	-82,954	0,067	-0,016
-529,306	-56,579	-0,113	-0,036
-528,291	-200,000	-0,000	-0,024
-527,277	-141,330	0,059	-0,004
-526,262	-26,671	0,174	0,074
-525,248	13,088	-0,082	0,047
-524,233	-84,535	-0,028	-0,006
-523,218	800,000	0,042	0,094
-522,204	258,273	-0,044	-0,055
-521,189	-200,000	-0,005	-0,025
-520,175	800,000	-0,036	-0,093
-519,160	-76,735	-0,056	0,014
-518,145	15,795	-0,030	0,017
-517,131	800,000	-0,042	0,108
-516,116	387,999	0,058	0,087
-515,102	-200,000	-0,002	-0,037
-514,087	-28,100	-0,083	-0,035
-513,072	800,000	-0,039	0,084
-512,058	170,056	0,027	-0,029
-511,043	60,654	0,076	0,055
-510,029	369,888	0,084	0,125
-509,014	-62,024	-0,072	-0,022
-507,999	60,953	-0,077	-0,056
-506,985	-87,689	0,110	-0,024
-505,970	90,127	-0,028	-0,023
-504,956	-12,136	-0,053	-0,025
-503,941	202,483	0,095	0,107
-502,926	31,345	0,155	0,097
-501,912	-172,937	0,165	-0,004
-500,897	800,000	-0,023	0,063
-499,883	-200,000	-0,035	-0,136
-498,868	-28,339	-0,048	0,020
-497,853	-200,000	0,021	-0,076
-496,839	-72,010	-0,082	0,022
-495,824	-20,020	-0,020	-0,009
-494,810	-100,466	0,049	-0,009
-493,795	121,561	-0,023	0,021
-492,781	183,919	-0,020	-0,022
-491,766	204,026	-0,048	-0,054
-490,751	565,747	0,052	-0,093
-489,737	-200,000	-0,006	0,031
-488,722	-200,000	-0,016	-0,059
-487,708	629,850	0,045	0,084
-486,693	800,000	0,030	0,065
-485,678	78,388	0,083	0,064
-484,664	183,522	0,029	0,031
-483,649	-20,214	-0,107	-0,048
-482,635	-21,740	0,123	0,055
-481,620	800,000	-0,030	-0,064
-480,605	-200,000	0,021	0,079
-479,591	-25,005	-0,050	0,022
-478,576	-105,328	-0,106	0,018
-477,562	-200,000	-0,003	0,012
-476,547	461,263	-0,089	-0,145
-475,532	-200,000	-0,023	-0,224
-474,518	-200,000	0,035	0,129
-473,503	471,582	-0,034	-0,057
-472,489	-5,156	0,087	-0,043
-471,474	-172,557	0,052	-0,001
-470,459	82,887	-0,097	-0,077
-469,445	-200,000	0,027	-0,142
-468,430	70,355	-0,063	-0,048
-467,416	-200,000	0,032	0,153
-466,401	-200,000	0,020	0,128
-465,386	98,042	0,067	-0,056
-464,372	-200,000	0,001	0,066
-463,357	56,800	-0,042	-0,030
-462,343	131,272	0,037	0,034
-461,328	448,841	0,060	-0,097
-460,313	160,047	0,048	0,048
-459,299	800,000	-0,038	0,090
-458,284	-200,000	-0,030	-0,133
-457,270	105,734	0,051	-0,044
-456,255	-200,000	0,007	-0,150
-455,241	800,000	-0,080	0,187
-454,226	-151,762	-0,131	-0,007
-453,211	800,000	0,042	0,117
-452,197	45,967	0,033	0,022
-451,182	40,211	-0,177	0,116
-450,168	-55,864	-0,011	-0,003
-449,153	-200,000	0,019	0,074
-448,138	-200,000	0,020	0,145
-447,124	-200,000	-0,002	0,159
-446,109	579,541	0,029	-0,051
-445,095	-136,934	0,171	0,014
-444,080	-57,831	0,050	0,016
-443,065	277,098	0,050	0,065
-442,051	145,393	0,107	0,105
-441,036	47,587	-0,035	0,023
-440,022	206,239	0,101	0,114
-439,007	154,329	-0,022	0,022
-437,992	62,786	0,044	-0,032
-436,978	-200,000	0,036	0,142
-435,963	-200,000	0,039	0,171
-434,949	-200,000	-0,028	-0,135
-433,934	-200,000	0,007	-0,059
-432,919	-89,325	-0,151	0,032
-431,905	687,768	0,032	-0,062
-430,890	-200,000	0,010	0,091
-429,876	-37,469	0,084	-0,033
-428,861	41,682	0,026	-0,017
-427,846	-108,625	0,074	0,011
-426,832	800,000	-0,066	-0,186
-425,817	800,000	-0,016	0,045
-424,803	10,663	0,144	-0,080
-423,788	382,685	0,038	-0,058
-422,773	-159,806	0,124	0,005
-421,759	270,213	-0,064	0,082
-420,744	275,293	-0,050	0,065
-419,730	124,842	-0,100	-0,092
-418,715	-200,000	0,034	-0,142
-417,701	348,359	-0,070	-0,101
-416,686	-75,819	-0,132	-0,034
-415,671	-132,923	0,049	-0,005
-414,657	199,976	-0,101	-0,113
-413,642	-139,170	-0,145	-0,011
-412,628	-41,446	0,040	-0,015
-411,613	-65,644	0,071	-0,021
-410,598	-200,000	-0,008	-0,149
-409,584	-17,221	0,074	-0,034
-408,569	-200,000	0,016	0,056
-407,555	-185,094	0,137	0,002
-406,540	615,038	-0,040	0,074
-405,525	-200,000	0,001	-0,103
-404,511	-200,000	-0,015	-0,141
-403,496	330,950	-0,034	-0,048
-402,482	507,080	0,087	0,148
-401,467	-54,277	-0,032	0,011
-400,452	134,233	-0,062	-0,058
-399,438	313,583	0,073	-0,101
-398,423	-35,960	-0,069	-0,027
-397,409	800,000	-0,016	-0,043
-396,394	0,266	0,087	0,045
-395,379	-6,692	-0,012	0,006
-394,365	800,000	0,050	0,117
-393,350	630,364	-0,082	0,152
-392,336	587,042	-0,028	-0,050
-391,321	-200,000	0,012	0,054
-390,306	-149,476	-0,106	-0,006
-389,292	-38,925	-0,110	0,042
-388,277	93,885	0,030	0,025
-387,263	-96,514	0,120	0,023
-386,248	-10,695	0,027	-0,013
-385,233	580,216	0,058	0,103
-384,219	425,820	0,037	0,058
-383,204	-74,200	0,042	-0,011
-382,190	11,462	-0,027	-0,015
-381,175	609,573	0,065	-0,118
-380,160	38,592	0,029	-0,019
-379,146	55,623	0,023	0,016
-378,131	800,000	0,030	-0,093
-377,117	151,386	-0,098	0,097
-376,102	-81,241	-0,120	-0,029
-375,088	-200,000	-0,026	-0,150
-374,073	71,389	0,167	0,126
-373,058	28,545	-0,057	-0,035
-372,044	-86,832	0,106	0,023
-371,029	89,723	0,047	0,038
-370,015	-86,594	0,083	-0,018
-369,000	-60,509	-0,157	-0,048
-367,985	-200,000	-0,024	-0,118
-366,971	-174,326	-0,089	-0,002
-365,956	-45,732	-0,107	0,038
-364,942	-59,753	0,017	-0,005
-363,927	-31,320	0,054	-0,022
-362,912	285,638	0,077	0,102
-361,898	-112,638	-0,018	0,003
-360,883	-24,060	-0,007	0,003
-359,869	800,000	0,020	0,063
-358,854	-200,000	0,043	-0,147
-357,839	-200,000	-0,002	0,025
-356,825	103,223	-0,119	-0,101
-355,810	42,048	0,041	0,027
-354,796	53,290	-0,051	-0,036
-353,781	-200,000	0,021	-0,096
-352,766	-100,009	-0,052	0,009
-351,752	-200,000	0,004	0,062
-350,737	-200,000	-0,017	0,061
-349,723	-57,586	-0,046	-0,015
-348,708	-200,000	-0,008	-0,111
-347,693	-200,000	-0,009	-0,050
-346,679	478,973	-0,017	-0,028
-345,664	-200,000	0,012	0,075
-344,650	22,142	0,092	0,054
-343,635	117,250	-0,121	0,108
-342,620	-200,000	0,010	0,140
-341,606	29,338	-0,055	-0,034
-340,591	258,474	-0,017	0,021
-339,577	-91,247	-0,145	0,030
-338,562	-120,212	0,033	-0,004
-337,548	800,000	-0,043	-0,126
-336,533	-102,389	0,080	0,014
-335,518	74,108	-0,071	0,054
-334,504	649,401	-0,064	-0,119
-333,489	55,193	0,060	-0,042
-332,475	-101,409	-0,046	0,008
-331,460	-200,000	-0,002	0,034
-330,445	192,196	-0,010	-0,011
-329,431	9,437	0,017	-0,009
-328,416	-99,760	0,192	-0,035
-327,402	-110,081	0,052	0,008
-326,387	-200,000	-0,003	0,039
-325,372	498,927	-0,079	-0,132
-324,358	-200,000	-0,012	0,095
-323,343	-5,478	-0,077	-0,038
-322,329	249,031	-0,127	-0,156
-321,314	-200,000	0,013	-0,066
-320,299	83,683	0,147	0,116
-319,285	-178,894	-0,113	-0,002
-318,270	156,361	-0,027	0,027
-317,256	-200,000	0,029	0,207
-316,241	-173,332	-0,135	-0,003
-315,226	31,783	-0,058	-0,036
-314,212	30,171	-0,036	-0,022
-313,197	-200,000	0,008	-0,093
-312,183	28,579	0,069	-0,043
-311,168	-200,000	-0,017	-0,058
-310,153	-200,000	-0,021	-0,198
-309,139	-4,024	0,033	-0,016
-308,124	800,000	-0,007	0,020
-307,110	-157,279	0,062	-0,003
-306,095	-200,000	0,013	0,145
-305,080	-13,640	0,022	-0,010
-304,066	8,314	0,070	-0,038
-303,051	98,862	-0,093	-0,078
-302,037	101,941	-0,026	-0,022
-301,022	84,255	0,118	0,094
-300,008	234,408	0,035	0,042
-298,993	-92,922	-0,033	0,007
-297,978	800,000	0,075	0,167
-296,964	-71,753	-0,137	-0,037
-295,949	-200,000	0,007	0,063
-294,935	96,186	-0,060	0,049
-293,920	-7,019	0,046	0,023
-292,905	-86,012	0,114	-0,025
-291,891	-200,000	-0,012	-0,050
-290,876	-200,000	-0,015	0,055
-289,862	-52,831	0,120	-0,040
-288,847	-200,000	0,012	0,092
-287,832	144,481	-0,080	0,077
-286,818	29,765	-0,031	-0,019
-285,803	-88,011	0,134	0,029
-284,789	321,551	-0,047	0,065
-283,774	-126,207	0,059	-0,006
-282,759	68,696	0,040	-0,029
-281,745	-200,000	0,050	-0,163
-280,730	-200,000	0,006	-0,035
-279,716	-60,471	0,121	-0,037
-278,701	-82,270	0,067	-0,016
-277,686	-3,641	0,046	-0,023
-276,672	-90,535	0,100	-0,021
-275,657	-200,000	0,018	-0,079
-274,643	800,000	-0,029	-0,090
-273,628	-69,453	0,048	0,013
-272,613	800,000	-0,024	0,051
-271,599	416,591	0,009	-0,014
-270,584	-61,237	0,038	-0,011
-269,570	-55,044	0,104	-0,034
-268,555	800,000	0,027	-0,063
-267,540	-104,037	-0,100	-0,017
-266,526	415,973	-0,058	-0,090
-265,511	-200,000	0,029	-0,171
-264,497	371,922	0,049	-0,072
-263,482	26,173	0,110	-0,067
-262,467	116,881	0,063	-0,056
-261,453	-50,061	0,034	-0,012
-260,438	368,129	-0,037	-0,054
-259,424	800,000	0,012	-0,031
-258,409	-59,631	-0,020	-0,006
-257,395	-200,000	-0,019	0,066
-256,380	56,728	0,111	0,078
-255,365	-60,408	0,112	-0,034
-254,351	-15,697	0,093	-0,043
-253,336	-92,966	-0,159	0,032
-252,322	469,226	0,026	-0,042
-251,307	11,037	-0,059	-0,032
-250,292	-200,000	-0,005	-0,113
-249,278	31,748	0,128	-0,079
-248,263	-200,000	0,012	-0,082
-247,249	-45,959	-0,035	-0,013
-246,234	-27,700	-0,010	0,004
-245,219	54,816	-0,039	0,027
-244,205	-4,754	0,221	-0,110
-243,190	-200,000	-0,020	-0,097
-242,176	215,410	0,061	-0,070
-241,161	-200,000	-0,011	0,091
-240,146	800,000	-0,046	0,102
-239,132	-41,534	-0,090	-0,033
-238,117	269,526	-0,051	-0,064
-237,103	162,265	-0,136	-0,138
-236,088	14,128	-0,117	0,066
-235,073	37,614	-0,025	-0,016
-234,059	144,374	0,085	0,082
-233,044	-200,000	0,018	-0,125
-232,030	-7,237	0,109	-0,053
-231,015	-200,000	-0,025	0,092
-230,000	100,006	0,049	-0,041
-228,986	-101,977	0,065	0,011
-227,971	-200,000	-0,012	0,123
-226,957	258,236	-0,051	0,063
-225,942	202,975	-0,005	0,005
-224,927	-76,232	-0,092	-0,023
-223,913	-87,889	-0,037	-0,008
-222,898	23,193	-0,028	0,017
-221,884	-109,826	-0,062	0,009
-220,869	-129,665	0,037	0,004
-219,855	-200,000	0,024	-0,089
-218,840	-200,000	0,012	-0,041
-217,825	391,926	-0,048	0,072
-216,811	800,000	-0,019	-0,044
-215,796	76,757	-0,114	0,088
-214,782	682,866	-0,088	0,166
-213,767	33,257	-0,120	0,075
-212,752	800,000	0,040	0,086
-211,738	557,484	-0,047	0,083
-210,723	-200,000	0,019	0,093
-209,709	-200,000	0,012	0,078
-208,694	89,416	-0,093	-0,075
-207,679	-200,000	0,021	0,000
-206,665	-200,000	0,006	-0,028
-205,650	566,727	0,020	0,036
-204,636	-200,000	-0,016	0,063
-203,621	-170,397	0,047	-0,001
-202,606	800,000	-0,008	0,024
-201,592	800,000	0,028	-0,079
-200,577	314,464	0,027	0,037
-199,563	91,630	0,081	0,066
-198,548	551,229	0,044	0,076
-197,533	-200,000	0,036	-0,115
-196,519	-200,000	0,004	-0,063
-195,504	-98,879	0,137	0,025
-194,490	-200,000	-0,026	-0,085
-193,475	470,230	-0,061	-0,099
-192,460	-90,505	-0,041	0,009
-191,446	-200,000	0,069	0,225
-190,431	800,000	-0,006	0,014
-189,417	-200,000	0,033	0,105
-188,402	-200,000	-0,007	0,052
-187,387	-138,615	-0,179	0,014
-186,373	-200,000	0,015	-0,052
-185,358	-200,000	-0,009	0,080
-184,344	53,761	0,123	0,085
-183,329	-200,000	-0,003	-0,018
-182,315	-3,039	0,126	-0,063
-181,300	-74,625	-0,168	-0,043
-180,285	312,517	-0,031	0,042
-179,271	-7,280	0,040	-0,019
-178,256	-40,400	-0,029	0,011
-177,242	-25,963	0,037	0,016
-176,227	340,454	0,018	-0,025
-175,212	800,000	0,011	-0,034
-174,198	-200,000	0,000	-0,068
-173,183	84,793	-0,073	0,057
-172,169	800,000	-0,016	0,033
-171,154	47,199	0,131	0,088
-170,139	-118,731	0,128	-0,016
-169,125	39,962	0,031	0,020
-168,110	-10,618	-0,108	-0,051
-167,096	344,491	-0,021	-0,030
-166,081	95,886	0,017	0,014
-165,066	-69,256	-0,052	-0,014
-164,052	-200,000	0,030	0,154
-163,037	216,352	0,108	-0,124
-162,023	-200,000	0,010	0,128
-161,008	174,793	0,075	-0,078
-159,993	-200,000	0,024	0,137
-158,979	228,494	-0,086	-0,101
-157,964	708,836	-0,043	-0,083
-156,950	-93,793	0,115	-0,023
-155,935	81,758	0,062	0,048
-154,920	-200,000	-0,020	0,106
-153,906	-142,801	0,072	-0,005
-152,891	120,598	-0,115	0,103
-151,877	-89,879	-0,070	0,015
-150,862	266,727	0,020	-0,025
-149,847	-200,000	-0,008	-0,238
-148,833	-63,915	0,134	0,039
-147,818	53,302	0,106	0,073
-146,804	800,000	-0,048	-0,118
-145,789	800,000	0,047	0,146
-144,775	27,116	0,082	0,049
-143,760	296,769	0,046	-0,061
-142,745	91,466	-0,064	0,052
-141,731	-200,000	0,004	-0,134
-140,716	-200,000	0,005	-0,114
-139,702	19,413	0,134	-0,077
-138,687	14,759	-0,066	0,037
-137,672	-200,000	0,035	0,145
-136,658	-53,102	-0,080	-0,026
-135,643	210,149	-0,068	-0,077
-134,629	-200,000	0,004	0,034
-133,614	-39,691	0,052	-0,019
-132,599	-200,000	-0,013	0,065
-131,585	257,226	0,032	-0,040
-130,570	15,473	0,060	-0,034
-129,556	38,676	-0,152	0,098
-128,541	87,021	0,027	0,022
-127,526	374,688	0,052	0,077
-126,512	167,006	-0,120	0,123
-125,497	-200,000	-0,007	0,062
-124,483	237,348	-0,049	0,058
-123,468	509,493	-0,036	0,061
-122,453	111,711	-0,075	0,065
-121,439	800,000	0,008	-0,025
-120,424	735,742	0,041	0,080
-119,410	38,811	-0,117	-0,075
-118,395	-200,000	0,004	0,074
-117,380	-200,000	0,018	0,143
-116,366	-175,968	-0,047	0,001
-115,351	189,276	-0,098	0,106
-114,337	69,357	-0,079	-0,058
-113,322	439,612	0,088	0,139
-112,307	-200,000	0,016	-0,061
-111,293	41,250	0,103	0,067
-110,278	-200,000	-0,001	0,114
-109,264	403,602	0,028	0,043
-108,249	800,000	-0,046	-0,106
-107,234	800,000	0,022	-0,059
-106,220	-32,515	-0,041	-0,017
-105,205	-77,715	-0,056	0,014
-104,191	299,579	0,081	-0,107
-103,176	-95,866	-0,018	-0,003
-102,162	540,799	0,018	0,032
-101,147	67,134	-0,128	-0,094
-100,132	-200,000	-0,003	-0,018
-99,118	-22,439	0,059	-0,026
-98,103	130,380	0,041	0,038
-97,089	362,461	0,028	0,040
-96,074	-95,492	0,100	-0,019
-95,059	431,144	-0,032	-0,050
-94,045	-200,000	-0,020	0,148
-93,030	249,722	-0,103	0,126
-92,016	50,287	-0,048	0,033
-91,001	-25,913	0,102	-0,043
-89,986	-16,607	-0,105	-0,048
-88,972	-119,382	0,163	0,020
-87,957	214,367	-0,110	0,125
-86,943	44,721	0,038	-0,025
-85,928	10,187	-0,123	-0,067
-84,913	29,991	0,020	-0,012
-83,899	-102,432	0,037	-0,006
-82,884	-200,000	-0,021	0,171
-81,870	-200,000	-0,010	0,082
-80,855	22,215	0,084	0,049
-79,840	175,517	-0,015	-0,015
-78,826	196,968	-0,084	-0,092
-77,811	335,614	0,046	0,064
-76,797	228,729	0,026	0,030
-75,782	-200,000	-0,018	-0,134
-74,767	-162,369	0,068	0,002
-73,753	-200,000	0,006	0,058
-72,738	-122,709	0,079	-0,009
-71,724	800,000	-0,037	-0,106
-70,709	-200,000	0,002	-0,018
-69,694	-200,000	-0,009	-0,057
-68,680	-26,362	0,022	-0,009
-67,665	-104,505	-0,077	0,013
-66,651	800,000	0,034	0,083
-65,636	202,485	-0,048	0,053
-64,622	-149,550	-0,072	0,004
-63,607	-72,499	-0,096	0,025
-62,592	-43,694	0,103	0,037
-61,578	-80,714	0,066	-0,016
-60,563	-34,456	0,071	0,028
-59,549	800,000	0,077	0,187
-58,534	6,197	-1,868	-0,992
-57,519	-200,000	-0,209	-0,852
-56,505	-200,000	-1,363	-4,945
-55,490	58,421	0,717	0,505
-54,476	800,000	5,270	12,080
-53,461	-200,000	17,439	284,524
-52,446	800,000	723,712	2227,000
-51,432	542,511	1639,446	2817,911
-50,417	111,551	1631,422	1412,624
-49,403	75,922	1286,056	975,400
-48,388	32,629	1028,373	636,979
-47,373	20,237	990,088	572,381
-46,359	18,667	978,273	560,374
-45,344	16,048	974,409	549,560
-44,330	16,289	972,630	549,324
-43,315	15,815	971,000	546,831
-42,300	15,742	969,925	545,965
-41,286	15,760	968,922	545,437
-40,271	15,785	967,945	544,949
-39,257	15,813	967,127	544,556
-38,242	15,802	966,150	543,949
-37,227	15,811	965,233	543,440
-36,213	15,743	964,640	542,863
-35,198	15,774	963,559	542,335
-34,184	15,875	962,773	542,199
-33,169	15,790	961,773	541,339
-32,154	15,779	961,051	540,876
-31,140	15,799	959,989	540,319
-30,125	15,831	959,211	539,964
-29,111	15,813	958,562	539,521
-28,096	15,771	957,947	539,016
-27,082	15,813	957,294	538,765
-26,067	15,768	956,531	538,168
-25,052	15,754	955,568	537,558
-24,038	15,794	955,111	537,411
-23,023	15,748	954,429	536,858
-22,009	15,824	953,795	536,723
-20,994	15,798	953,232	536,302
-19,979	15,810	952,677	536,007
-18,965	15,802	951,802	535,467
-17,950	15,850	951,189	535,255
-16,936	15,735	950,767	534,627
-15,921	15,741	949,959	534,173
-14,906	15,645	949,389	533,523
-13,892	15,659	948,828	533,230
-12,877	15,638	948,118	532,743
-11,863	15,607	947,514	532,286
-10,848	15,620	947,046	532,043
-9,833	15,768	946,245	532,043
-8,819	15,742	945,743	531,655
-7,804	15,676	945,049	531,034
-6,790	15,674	944,338	530,609
-5,775	15,697	943,810	530,363
-4,760	15,697	943,227	530,015
-3,746	15,668	942,624	529,564
-2,731	15,578	941,859	528,827
-1,717	15,540	941,360	528,404
-0,702	15,485	940,769	527,879
0,313	15,332	939,999	527,759
1,327	18,411	937,575	536,058
2,342	27,131	795,202	477,791
3,356	23,740	459,427	270,827
4,371	-2,981	314,119	156,786
5,386	-7,186	295,754	143,357
6,400	-9,166	289,741	138,467
7,415	-9,598	287,342	136,884
8,429	-9,670	285,822	136,077
9,444	-9,654	285,003	135,690
10,459	-9,692	284,341	135,326
11,473	-9,852	283,893	134,945
12,488	-9,752	283,200	134,700
13,502	-9,644	282,650	134,532
14,517	-9,552	282,337	134,460
15,531	-9,569	281,837	134,193
16,546	-9,686	281,583	133,947
17,561	-9,520	281,075	133,854
18,575	-9,667	280,868	133,601
19,590	-9,708	280,552	133,400
20,604	-9,506	280,175	133,403
21,619	-9,827	279,920	132,962
22,634	-9,568	279,443	132,971
23,648	-9,657	279,268	132,791
24,663	-9,633	278,962	132,656
25,677	-9,617	278,590	132,483
26,692	-9,530	278,344	132,437
27,707	-9,661	278,072	132,171
28,721	-9,587	277,991	132,191
29,736	-9,720	277,506	131,823
30,750	-9,787	277,357	131,677
31,765	-9,897	277,171	131,473
32,780	-9,626	276,841	131,561
33,794	-9,584	276,678	131,511
34,809	-9,546	276,265	131,339
35,823	-9,668	276,038	131,104
36,838	-9,753	275,993	130,990
37,853	-9,841	275,571	130,697
38,867	-9,639	275,320	130,755
39,882	-9,648	275,102	130,632
40,896	-9,793	274,966	130,419
41,911	-9,796	274,679	130,268
42,926	-9,727	274,499	130,236
43,940	-9,529	274,026	130,185
44,955	-9,801	273,974	129,895
45,969	-9,753	273,628	129,764
46,984	-9,730	273,343	129,639
47,999	-9,929	273,102	129,328
49,013	-10,027	272,907	129,133
50,028	-10,349	272,583	128,669
51,042	-10,396	272,370	128,513
52,057	-10,393	272,121	128,386
53,071	-10,400	271,977	128,300
54,086	-10,274	271,892	128,366
55,101	-10,081	271,584	128,388
56,115	-9,855	271,387	128,492
57,130	-9,636	271,283	128,635
58,144	-9,569	271,013	128,557
59,159	-9,588	270,819	128,436
60,174	-9,381	270,532	128,478
61,188	-9,611	270,354	128,171
62,203	-9,618	270,198	128,079
63,217	-9,604	270,010	127,991
64,232	-9,549	269,661	127,865
65,247	-9,434	269,536	127,899
66,261	-9,523	269,266	127,679
67,276	-9,708	268,884	127,317
68,290	-9,892	268,863	127,128
69,305	-9,880	268,469	126,941
70,320	-9,949	268,379	126,824
71,334	-9,867	268,246	126,824
72,349	-9,533	267,833	126,922
73,363	-9,600	267,859	126,862
74,378	-9,520	267,429	126,720
75,393	-9,460	267,488	126,791
76,407	-9,602	267,264	126,545
77,422	-9,662	266,928	126,320
78,436	-9,498	266,796	126,395
79,451	-9,558	266,371	126,127
80,466	-9,748	266,376	125,947
81,480	-9,695	266,097	125,852
82,495	-9,782	265,782	125,613
83,509	-9,619	265,724	125,721
84,524	-9,702	265,524	125,541
85,539	-9,839	265,055	125,184
86,553	-9,907	264,955	125,064
87,568	-9,588	264,824	125,279
88,582	-9,681	264,594	125,076
89,597	-9,636	264,415	125,020
90,611	-9,410	264,037	125,033
91,626	-9,611	264,037	124,842
92,641	-9,513	263,854	124,832
93,655	-9,662	263,646	124,589
94,670	-9,645	263,309	124,433
95,684	-9,650	263,231	124,381
96,699	-9,719	263,019	124,209
97,714	-9,778	262,993	124,132
98,728	-9,651	262,528	124,015
99,743	-9,791	262,341	123,791
100,757	-9,981	262,240	123,563
101,772	-9,997	262,027	123,437
102,787	-9,568	261,624	123,617
103,801	-9,482	261,688	123,713
104,816	-9,639	261,380	123,417
105,830	-9,664	261,291	123,342
106,845	-9,640	261,059	123,243
107,860	-9,551	260,705	123,143
108,874	-9,670	260,641	122,997
109,889	-9,779	260,458	122,803
110,903	-9,813	260,302	122,688
111,918	-9,790	260,059	122,583
112,933	-9,567	259,853	122,671
113,947	-9,537	259,665	122,598
114,962	-9,786	259,556	122,317
115,976	-9,667	259,183	122,235
116,991	-9,664	259,137	122,205
118,006	-9,608	258,923	122,143
119,020	-9,612	258,878	122,107
120,035	-9,805	258,710	121,848
121,049	-9,471	258,443	122,003
122,064	-9,463	258,359	121,960
123,079	-9,629	258,072	121,669
124,093	-9,776	258,000	121,495
125,108	-9,811	257,606	121,267
126,122	-10,114	257,577	120,979
127,137	-9,754	257,251	121,129
128,151	-9,707	257,038	121,058
129,166	-9,919	256,927	120,812
130,181	-9,820	256,529	120,699
131,195	-9,982	256,440	120,506
132,210	-9,557	256,268	120,783
133,224	-9,540	256,072	120,695
134,239	-9,428	255,816	120,661
135,254	-9,735	255,748	120,352
136,268	-9,811	255,535	120,176
137,283	-9,839	255,103	119,936
138,297	-10,078	255,086	119,712
139,312	-10,084	254,940	119,627
140,327	-9,530	254,699	119,981
141,341	-9,454	254,538	119,960
142,356	-9,508	254,375	119,826
143,370	-9,517	254,292	119,768
144,385	-9,387	254,130	119,793
145,400	-9,608	254,015	119,539
146,414	-9,387	253,788	119,611
147,429	-9,356	253,461	119,473
148,443	-9,581	253,508	119,291
149,458	-9,430	253,164	119,248
150,473	-9,469	252,958	119,107
151,487	-9,644	252,769	118,858
152,502	-9,593	252,501	118,765
153,516	-9,538	252,581	118,839
154,531	-9,396	252,301	118,818
155,546	-9,319	252,156	118,804
156,560	-9,561	251,937	118,484
157,575	-9,664	251,768	118,306
158,589	-9,366	251,556	118,450
159,604	-9,359	251,401	118,372
160,619	-9,389	251,103	118,196
161,633	-9,423	250,958	118,088
162,648	-9,327	250,848	118,107
163,662	-9,322	250,639	118,003
164,677	-9,516	250,656	117,836
165,692	-9,411	250,372	117,781
166,706	-9,346	250,221	117,755
167,721	-9,442	250,002	117,559
168,735	-9,303	249,873	117,605
169,750	-9,450	249,580	117,333
170,764	-9,244	249,631	117,521
171,779	-9,199	249,403	117,440
172,794	-9,346	249,349	117,281
173,808	-9,511	249,009	116,972
174,823	-9,678	248,729	116,690
175,837	-10,033	248,612	116,327
176,852	-9,541	248,360	116,611
177,867	-9,453	248,354	116,671
178,881	-9,465	248,263	116,608
179,896	-9,307	247,986	116,600
180,910	-9,271	247,870	116,564
181,925	-9,482	247,647	116,273
182,940	-9,625	247,577	116,110
183,954	-9,411	247,369	116,181
184,969	-9,379	247,273	116,152
185,983	-9,120	246,936	116,199
186,998	-9,297	246,952	116,050
188,013	-9,229	246,613	115,936
189,027	-9,392	246,522	115,748
190,042	-9,519	246,270	115,513
191,056	-9,404	246,089	115,514
192,071	-9,375	246,020	115,495
193,086	-9,225	245,728	115,472
194,100	-9,285	245,554	115,330
195,115	-9,450	245,490	115,153
196,129	-9,431	245,185	115,016
197,144	-9,313	244,961	114,998
198,159	-9,615	244,863	114,693
199,173	-9,403	244,600	114,733
200,188	-9,391	244,450	114,663
201,202	-9,677	244,282	114,339
202,217	-9,841	244,000	114,062
203,232	-9,974	243,617	113,763
204,246	-9,528	243,774	114,193
205,261	-9,306	243,580	114,273
206,275	-10,053	243,090	113,423
207,290	-6,991	244,452	116,565
208,304	0,147	246,917	123,641
209,319	4,069	247,823	127,331
210,334	4,391	247,815	127,582
211,348	4,663	247,773	127,774
212,363	4,855	247,648	127,856
213,377	4,991	247,435	127,847
214,392	4,566	247,313	127,422
215,407	4,499	247,042	127,216
216,421	4,565	246,894	127,183
217,436	4,609	246,830	127,175
218,450	4,855	246,661	127,278
219,465	4,751	246,326	127,009
220,480	4,275	246,330	126,609
221,494	4,288	246,049	126,464
222,509	4,243	246,093	126,439
223,523	4,372	245,740	126,351
224,538	3,889	245,505	125,825
225,553	4,146	245,324	125,930
226,567	4,172	245,180	125,866
227,582	4,201	245,267	125,923
228,596	4,280	244,897	125,787
229,611	3,833	244,685	125,302
230,626	3,924	244,436	125,238
231,640	4,082	244,332	125,302
232,655	4,045	244,341	125,265
233,669	4,163	244,028	125,189
234,684	4,074	243,848	125,013
235,699	4,329	243,901	125,236
236,713	4,425	243,719	125,210
237,728	4,207	243,513	124,916
238,742	4,272	242,976	124,682
239,757	3,913	243,120	124,454
240,772	3,939	242,972	124,388
241,786	4,026	242,872	124,397
242,801	3,952	242,545	124,158
243,815	3,918	242,421	124,056
244,830	4,100	242,465	124,214
245,844	4,319	242,154	124,220
246,859	4,055	242,037	123,937
247,874	3,923	241,719	123,657
248,888	4,179	241,666	123,824
249,903	4,236	241,487	123,767
250,917	4,216	241,445	123,719
251,932	4,511	241,294	123,867
252,947	4,450	241,076	123,695
253,961	4,192	240,755	123,314
254,976	4,329	240,731	123,400
255,990	4,359	240,587	123,339
257,005	4,028	240,409	122,972
258,020	4,022	240,237	122,869
259,034	4,172	239,989	122,850
260,049	4,263	239,958	122,896
261,063	3,953	239,675	122,493
262,078	3,811	239,628	122,345
263,093	4,349	239,482	122,688
264,107	4,311	239,308	122,557
265,122	4,105	239,197	122,325
266,136	4,219	239,175	122,394
267,151	4,566	238,913	122,525
268,166	4,180	238,700	122,098
269,180	3,905	238,583	121,810
270,195	4,403	238,714	122,260
271,209	4,782	238,525	122,453
272,224	4,307	238,252	121,926
273,239	3,703	237,885	121,251
274,253	3,867	237,737	121,294
275,268	3,963	237,687	121,333
276,282	4,255	237,494	121,454
277,297	3,919	237,287	121,073
278,312	4,121	237,145	121,149
279,326	3,987	237,123	121,021
280,341	4,151	236,994	121,073
281,355	4,079	236,818	120,916
282,370	4,260	236,669	120,971
283,384	4,146	236,535	120,803
284,399	4,091	236,242	120,599
285,414	3,750	236,069	120,233
286,428	4,094	235,982	120,447
287,443	3,900	235,822	120,203
288,457	4,278	235,815	120,485
289,472	4,251	235,704	120,396
290,487	4,240	235,425	120,234
291,501	3,848	235,245	119,825
292,516	3,729	234,896	119,544
293,530	3,653	234,732	119,391
294,545	3,930	234,927	119,695
295,560	4,152	234,637	119,710
296,574	3,804	234,376	119,296
297,589	4,102	234,490	119,574
298,603	4,254	234,404	119,638
299,618	4,246	234,225	119,529
300,633	3,999	234,073	119,250
301,647	4,320	233,956	119,428
302,662	4,448	233,885	119,480
303,676	4,253	233,728	119,239
304,691	4,295	233,466	119,127
305,706	4,479	233,445	119,248
306,720	4,458	233,133	119,061
307,735	4,271	233,069	118,874
308,749	4,158	232,858	118,669
309,764	3,925	232,603	118,349
310,779	3,948	232,449	118,278
311,793	3,786	232,209	118,020
312,808	3,835	232,047	117,966
313,822	3,689	231,911	117,774
314,837	3,681	231,733	117,667
315,852	3,959	231,472	117,736
316,866	3,982	231,436	117,725
317,881	4,199	231,446	117,886
318,895	3,881	231,363	117,590
319,910	4,545	231,343	118,077
320,925	4,419	230,975	117,782
321,939	3,937	230,916	117,374
322,954	4,261	230,671	117,487
323,968	4,120	230,427	117,244
324,983	3,944	230,222	116,995
325,997	4,385	230,263	117,341
327,012	4,557	230,181	117,419
328,027	4,338	229,983	117,141
329,041	4,348	230,002	117,148
330,056	4,970	229,923	117,570
331,070	4,989	229,741	117,481
332,085	4,472	229,551	116,982
333,100	4,370	229,335	116,784
334,114	4,234	229,104	116,553
335,129	4,543	228,986	116,716
336,143	4,803	228,864	116,840
337,158	4,746	228,812	116,760
338,173	4,341	228,595	116,333
339,187	4,242	228,467	116,183
340,202	4,344	228,308	116,169
341,216	4,275	228,228	116,065
342,231	4,348	227,953	115,970
343,246	4,096	227,777	115,682
344,260	4,086	227,677	115,612
345,275	4,511	227,719	115,943
346,289	4,565	227,426	115,824
347,304	4,498	227,419	115,759
348,319	4,545	227,184	115,665
349,333	4,329	227,056	115,428
350,348	4,225	226,869	115,245
351,362	4,265	226,655	115,156
352,377	3,947	226,559	114,859
353,392	3,985	226,424	114,809
354,406	4,198	226,190	114,839
355,421	195,251	1321,976	1398,400
356,435	156,502	1455,486	1398,409
