DTS Sentinel unit serial number:	SN410029Multiplexer serial number:	ORYXHardware model number:	OX2-SRSoftware version number:	ORYX F/W v4,00 Oryx Data Collector v3.7.2.0data status	okinstallation	B5 Nyhavnadifferential loss correction	single-endedforward channel	channel 2reverse channel	N/Adate	2023/12/12time	17:57:13forward acquisition time	300,00reverse acquisition time	0,00gamma	499,1914k internal	0,3156k external	0,3156temperature offset calibration	1,0000default loss term (dB/km)	0,3820temperature slope calibration	1,0000multiplexer offset coefficient	1,0000multiplexer slope coefficient	1,0000fibre end	0,00T internal ref (°C)	15,64T ext. ref 1 (°C)	-0,79T ext. ref 2 (°C)	-1,10length (m)	temperature (°C)	Stokes	anti-Stokes-744,400	120,354	0,071	-0,065
-743,385	-144,342	-0,322	-0,022
-742,371	-200,000	0,013	-0,067
-741,356	-18,400	-0,257	0,118
-740,342	-88,368	0,089	-0,019
-739,327	-148,439	-0,218	0,013
-738,312	596,385	0,080	0,146
-737,298	-53,131	-0,232	-0,078
-736,283	-82,130	0,090	0,021
-735,269	42,270	-0,176	0,118
-734,254	800,000	-0,075	0,160
-733,239	-17,102	-0,307	-0,142
-732,225	-69,111	0,199	-0,056
-731,210	540,463	-0,022	0,039
-730,196	-2,361	-0,070	-0,036
-729,181	727,649	0,069	-0,137
-728,167	800,000	-0,036	-0,073
-727,152	-164,651	-0,055	-0,002
-726,137	-200,000	0,005	-0,121
-725,123	51,603	-0,073	0,051
-724,108	85,890	-0,200	0,162
-723,094	121,407	-0,105	-0,096
-722,079	73,007	-0,053	-0,041
-721,064	-200,000	0,010	0,063
-720,050	391,068	-0,020	-0,031
-719,035	800,000	-0,036	-0,075
-718,021	-200,000	-0,005	0,023
-717,006	800,000	-0,037	-0,119
-715,991	-108,384	0,100	-0,016
-714,977	432,250	-0,061	-0,098
-713,962	-64,449	-0,119	-0,035
-712,948	420,577	-0,023	-0,037
-711,933	-105,443	-0,144	-0,024
-710,918	800,000	-0,025	-0,061
-709,904	139,273	-0,059	-0,058
-708,889	-37,379	-0,064	-0,025
-707,875	20,068	-0,021	-0,013
-706,860	-167,352	-0,079	0,002
-705,845	-159,779	0,045	-0,002
-704,831	800,000	-0,028	0,066
-703,816	-200,000	0,007	-0,063
-702,802	800,000	-0,032	0,092
-701,787	189,300	-0,072	0,080
-700,772	-74,941	-0,056	-0,015
-699,758	-87,971	-0,124	-0,027
-698,743	-180,326	0,178	-0,003
-697,729	-99,339	-0,029	-0,005
-696,714	62,789	0,121	0,089
-695,699	-52,520	0,072	-0,024
-694,685	-57,548	0,067	0,022
-693,670	-55,237	-0,111	-0,037
-692,656	243,850	0,005	-0,007
-691,641	77,814	0,197	0,155
-690,627	-200,000	0,003	-0,037
-689,612	-61,420	-0,082	-0,025
-688,597	-57,074	0,067	0,022
-687,583	235,582	-0,089	0,108
-686,568	192,762	-0,039	0,044
-685,554	193,192	-0,067	-0,075
-684,539	800,000	0,017	0,047
-683,524	720,454	0,019	0,037
-682,510	123,316	0,013	-0,012
-681,495	118,335	0,069	-0,063
-680,481	-29,315	-0,122	0,051
-679,466	431,782	0,070	-0,111
-678,451	-200,000	-0,012	0,075
-677,437	800,000	-0,033	-0,079
-676,422	188,768	0,117	0,128
-675,408	485,434	0,054	0,091
-674,393	-163,501	0,064	0,002
-673,378	40,512	-0,121	-0,080
-672,364	-200,000	-0,014	-0,101
-671,349	80,335	-0,101	-0,080
-670,335	128,082	0,087	0,081
-669,320	44,612	-0,009	-0,006
-668,305	-133,292	0,101	0,009
-667,291	513,175	-0,053	0,092
-666,276	-200,000	0,007	0,030
-665,262	-200,000	-0,006	0,048
-664,247	800,000	0,020	0,050
-663,232	800,000	0,058	-0,156
-662,218	26,293	0,066	0,041
-661,203	-200,000	0,027	0,097
-660,189	471,338	-0,035	-0,059
-659,174	800,000	0,047	-0,104
-658,159	-36,127	-0,212	-0,084
-657,145	-17,310	-0,108	-0,050
-656,130	-200,000	0,049	-0,167
-655,116	134,004	0,057	-0,054
-654,101	-11,621	-0,111	0,053
-653,086	-200,000	-0,019	0,143
-652,072	29,627	-0,131	0,082
-651,057	-200,000	-0,003	0,097
-650,043	-200,000	-0,004	-0,016
-649,028	780,814	-0,020	0,040
-648,014	800,000	-0,008	0,019
-646,999	-200,000	0,024	-0,138
-645,984	697,633	0,025	-0,049
-644,970	434,503	0,027	0,044
-643,955	-98,697	-0,066	-0,012
-642,941	800,000	0,047	-0,113
-641,926	-47,598	0,187	-0,066
-640,911	11,619	0,085	-0,048
-639,897	108,879	0,070	0,061
-638,882	-200,000	0,004	-0,117
-637,868	-170,452	-0,169	0,004
-636,853	-48,340	-0,106	-0,037
-635,838	291,498	0,009	-0,013
-634,824	48,677	0,076	-0,053
-633,809	229,415	0,044	0,053
-632,795	-200,000	0,019	-0,069
-631,780	-21,234	0,015	-0,007
-630,765	24,515	-0,129	0,078
-629,751	800,000	0,068	-0,151
-628,736	800,000	-0,036	-0,088
-627,722	61,404	0,068	0,050
-626,707	-113,978	0,130	-0,018
-625,692	-95,180	0,138	0,027
-624,678	294,067	-0,007	0,009
-623,663	122,462	-0,111	0,102
-622,649	119,175	-0,062	0,056
-621,634	-200,000	-0,023	0,097
-620,619	34,757	0,105	-0,067
-619,605	82,118	0,112	0,089
-618,590	-200,000	-0,002	0,139
-617,576	115,661	0,032	0,029
-616,561	-200,000	-0,001	-0,023
-615,546	394,573	0,039	0,060
-614,532	-75,700	-0,088	-0,023
-613,517	488,827	0,023	0,039
-612,503	225,549	-0,019	-0,023
-611,488	-119,060	-0,056	0,007
-610,474	86,365	-0,098	0,079
-609,459	-200,000	-0,006	-0,086
-608,444	500,372	0,058	-0,099
-607,430	-137,538	0,090	-0,007
-606,415	166,677	-0,071	-0,074
-605,401	-32,332	0,197	-0,080
-604,386	-200,000	-0,013	0,112
-603,371	17,053	0,073	0,043
-602,357	-200,000	-0,004	-0,022
-601,342	-200,000	0,005	-0,106
-600,328	-200,000	0,004	-0,099
-599,313	95,125	-0,077	-0,065
-598,298	-123,703	-0,012	-0,001
-597,284	216,270	0,057	-0,066
-596,269	271,951	0,082	-0,106
-595,255	3,641	-0,067	-0,036
-594,240	21,945	-0,120	0,072
-593,225	-200,000	0,007	0,068
-592,211	-200,000	0,011	0,086
-591,196	181,532	0,145	0,157
-590,182	-25,202	-0,061	-0,026
-589,167	170,599	0,030	0,032
-588,152	113,656	0,099	0,088
-587,138	123,061	-0,107	-0,099
-586,123	32,672	-0,047	-0,030
-585,109	-70,563	-0,099	-0,027
-584,094	-200,000	-0,003	-0,020
-583,079	497,604	-0,065	-0,111
-582,065	-110,710	0,049	-0,007
-581,050	800,000	0,032	0,068
-580,036	800,000	-0,032	-0,069
-579,021	186,211	0,104	-0,113
-578,006	276,118	-0,030	-0,039
-576,992	-200,000	0,010	-0,032
-575,977	311,184	0,131	-0,181
-574,963	-82,839	-0,039	-0,009
-573,948	-43,178	-0,114	0,042
-572,934	56,146	-0,091	0,065
-571,919	326,765	0,023	-0,032
-570,904	-181,700	-0,108	-0,001
-569,890	-200,000	0,021	-0,147
-568,875	-146,534	-0,140	0,009
-567,861	-200,000	0,023	0,190
-566,846	-138,376	-0,084	-0,007
-565,831	398,545	-0,018	0,028
-564,817	-200,000	-0,008	-0,123
-563,802	800,000	-0,060	-0,142
-562,788	123,309	-0,029	-0,027
-561,773	800,000	0,030	0,086
-560,758	-200,000	0,041	0,137
-559,744	250,742	0,072	-0,089
-558,729	7,552	0,051	0,028
-557,715	14,479	0,075	-0,043
-556,700	-117,881	-0,232	-0,030
-555,685	92,831	-0,029	0,024
-554,671	-200,000	-0,005	-0,054
-553,656	525,193	-0,073	0,126
-552,642	313,969	0,044	0,060
-551,627	90,280	0,185	0,151
-550,612	35,892	-0,016	0,010
-549,598	55,912	0,024	0,017
-548,583	-200,000	-0,017	-0,129
-547,569	-200,000	-0,022	-0,133
-546,554	-200,000	0,024	0,120
-545,539	-200,000	-0,030	0,121
-544,525	7,177	0,026	0,014
-543,510	340,017	-0,069	-0,099
-542,496	143,138	0,096	-0,094
-541,481	-200,000	-0,010	-0,068
-540,466	800,000	0,020	0,052
-539,452	-200,000	0,004	0,020
-538,437	54,224	-0,108	0,076
-537,423	244,098	0,059	-0,073
-536,408	-89,053	-0,080	0,017
-535,393	800,000	-0,068	-0,170
-534,379	-200,000	0,003	0,043
-533,364	223,660	-0,021	-0,025
-532,350	-27,422	0,079	-0,033
-531,335	192,604	0,050	-0,055
-530,321	129,496	-0,065	-0,061
-529,306	800,000	-0,018	0,050
-528,291	-200,000	-0,002	-0,029
-527,277	-19,060	0,101	0,046
-526,262	63,335	-0,070	0,051
-525,248	136,431	-0,052	0,050
-524,233	800,000	0,032	-0,070
-523,218	463,014	0,004	0,006
-522,204	-97,976	-0,124	-0,023
-521,189	800,000	-0,047	-0,114
-520,175	211,513	0,018	-0,020
-519,160	-135,749	-0,082	-0,007
-518,145	-200,000	-0,001	0,077
-517,131	76,251	0,108	0,083
-516,116	113,780	-0,014	0,013
-515,102	398,616	0,047	0,073
-514,087	-200,000	-0,045	-0,189
-513,072	301,277	0,093	-0,126
-512,058	-187,740	-0,107	0,001
-511,043	444,576	0,119	0,192
-510,029	-119,329	0,023	0,003
-509,014	-67,958	-0,163	0,046
-507,999	-200,000	0,002	-0,074
-506,985	800,000	-0,065	0,144
-505,970	-200,000	0,014	0,122
-504,956	70,642	-0,037	-0,028
-503,941	800,000	0,038	-0,080
-502,926	800,000	0,062	0,162
-501,912	106,951	0,082	0,071
-500,897	262,123	-0,103	0,130
-499,883	800,000	-0,036	0,082
-498,868	-86,899	-0,117	-0,026
-497,853	464,384	-0,014	-0,022
-496,839	0,868	0,147	0,077
-495,824	20,742	-0,071	-0,042
-494,810	800,000	-0,031	-0,080
-493,795	-2,583	-0,131	0,067
-492,781	24,221	0,044	-0,026
-491,766	-89,743	-0,009	0,002
-490,751	-200,000	0,006	-0,032
-489,737	454,374	-0,032	0,053
-488,722	-120,554	0,120	-0,015
-487,708	182,854	-0,044	0,047
-486,693	-190,530	-0,050	-0,000
-485,678	61,826	0,061	0,045
-484,664	-22,276	-0,082	0,036
-483,649	-200,000	0,005	0,048
-482,635	-200,000	-0,022	-0,149
-481,620	-200,000	0,002	-0,071
-480,605	-164,418	-0,127	0,004
-479,591	-200,000	0,008	-0,039
-478,576	-200,000	0,013	0,049
-477,562	-200,000	-0,033	-0,132
-476,547	-4,009	-0,144	0,073
-475,532	-200,000	-0,024	0,187
-474,518	389,943	0,027	-0,041
-473,503	-39,544	-0,174	0,066
-472,489	-11,870	-0,111	0,053
-471,474	-132,183	0,073	-0,007
-470,459	-200,000	-0,030	-0,152
-469,445	126,044	-0,112	-0,104
-468,430	800,000	-0,027	0,062
-467,416	-200,000	0,007	-0,038
-466,401	53,413	-0,028	0,019
-465,386	800,000	0,028	0,069
-464,372	-39,453	0,079	-0,030
-463,357	21,482	-0,078	-0,046
-462,343	432,491	-0,085	0,135
-461,328	-200,000	0,003	-0,032
-460,313	13,042	-0,092	-0,052
-459,299	132,604	-0,044	0,041
-458,284	-58,238	0,092	-0,029
-457,270	800,000	0,025	0,058
-456,255	800,000	-0,019	0,040
-455,241	-43,314	0,055	-0,020
-454,226	-45,883	-0,025	-0,009
-453,211	406,677	0,005	0,007
-452,197	465,597	0,064	-0,105
-451,182	-51,323	-0,151	0,051
-450,168	430,686	0,034	0,054
-449,153	-200,000	-0,010	-0,075
-448,138	-200,000	-0,013	-0,048
-447,124	453,444	0,042	0,069
-446,109	-135,439	0,040	-0,003
-445,095	-145,209	-0,059	0,004
-444,080	800,000	0,039	0,097
-443,065	244,685	0,090	0,111
-442,051	41,853	0,046	-0,030
-441,036	58,045	0,041	0,029
-440,022	-200,000	-0,008	-0,258
-439,007	-200,000	0,014	-0,151
-437,992	39,011	0,149	-0,097
-436,978	560,014	-0,020	0,036
-435,963	-5,130	0,120	0,060
-434,949	-200,000	-0,013	-0,059
-433,934	50,881	-0,147	-0,102
-432,919	183,542	0,029	-0,031
-431,905	549,489	-0,095	-0,166
-430,890	102,548	0,103	0,087
-429,876	-159,621	0,058	0,002
-428,861	239,798	-0,050	-0,061
-427,846	-200,000	0,005	-0,057
-426,832	800,000	-0,052	-0,146
-425,817	-116,262	0,112	-0,015
-424,803	-200,000	-0,025	-0,117
-423,788	104,102	0,099	0,085
-422,773	-200,000	0,007	0,073
-421,759	270,209	0,058	-0,075
-420,744	229,909	0,068	-0,081
-419,730	-200,000	0,005	-0,138
-418,715	199,931	0,077	0,086
-417,701	635,966	0,045	-0,084
-416,686	-200,000	-0,023	0,122
-415,671	77,144	0,102	-0,079
-414,657	70,592	-0,115	-0,087
-413,642	661,009	-0,062	-0,116
-412,628	800,000	-0,004	-0,012
-411,613	-200,000	0,002	0,033
-410,598	678,384	-0,057	-0,108
-409,584	129,798	0,124	0,116
-408,569	-5,689	0,103	0,051
-407,555	334,830	0,021	0,029
-406,540	134,039	-0,008	-0,008
-405,525	800,000	0,028	0,068
-404,511	-98,624	-0,012	0,002
-403,496	-112,638	0,069	-0,010
-402,482	-48,761	0,077	0,027
-401,467	-25,028	0,141	-0,061
-400,452	-200,000	0,006	-0,080
-399,438	84,720	-0,151	0,120
-398,423	-42,357	0,065	-0,024
-397,409	-46,159	0,025	-0,009
-396,394	242,067	-0,035	-0,042
-395,379	720,981	0,031	0,060
-394,365	129,590	-0,055	0,052
-393,350	-200,000	0,007	0,066
-392,336	101,350	0,097	0,082
-391,321	118,675	0,031	0,028
-390,306	800,000	-0,066	-0,169
-389,292	-49,698	-0,109	-0,038
-388,277	-200,000	0,018	-0,219
-387,263	800,000	0,062	0,147
-386,248	144,387	0,078	0,076
-385,233	70,513	0,095	0,072
-384,219	453,326	0,019	0,030
-383,204	-15,297	-0,196	-0,091
-382,190	-142,635	-0,175	-0,012
-381,175	141,823	0,121	0,117
-380,160	183,899	0,050	-0,054
-379,146	-200,000	-0,010	0,187
-378,131	800,000	0,065	0,145
-377,117	778,749	-0,086	-0,172
-376,102	800,000	0,052	0,126
-375,088	-153,843	-0,125	0,006
-374,073	582,711	-0,071	-0,128
-373,058	92,439	0,050	0,041
-372,044	-200,000	0,020	0,132
-371,029	247,525	0,136	0,168
-370,015	-200,000	0,010	0,081
-369,000	800,000	-0,043	0,100
-367,985	133,740	-0,110	-0,104
-366,971	800,000	-0,011	0,027
-365,956	-200,000	0,044	0,000
-364,942	-75,894	0,127	-0,032
-363,927	800,000	0,027	0,066
-362,912	21,468	-0,008	0,004
-361,898	91,027	-0,109	-0,089
-360,883	119,482	-0,063	-0,057
-359,869	-200,000	0,009	-0,084
-358,854	-200,000	0,001	0,007
-357,839	800,000	-0,034	-0,107
-356,825	275,311	-0,008	-0,011
-355,810	-200,000	0,016	0,076
-354,796	19,529	-0,139	-0,081
-353,781	-200,000	0,006	-0,235
-352,766	-200,000	0,024	-0,090
-351,752	-200,000	0,006	-0,081
-350,737	150,349	0,067	0,066
-349,723	-200,000	-0,020	0,090
-348,708	-5,867	0,032	0,016
-347,693	-140,720	-0,010	-0,001
-346,679	800,000	-0,019	0,042
-345,664	-200,000	0,011	0,058
-344,650	-200,000	-0,010	0,093
-343,635	-17,706	0,175	0,080
-342,620	266,269	0,076	0,097
-341,606	436,078	-0,053	0,084
-340,591	-200,000	-0,007	-0,144
-339,577	-76,013	-0,055	-0,014
-338,562	39,701	-0,134	-0,087
-337,548	-200,000	-0,013	-0,043
-336,533	1,363	0,060	-0,031
-335,518	140,736	0,082	0,078
-334,504	560,706	0,079	0,139
-333,489	370,300	0,046	-0,068
-332,475	-93,806	-0,105	0,021
-331,460	-200,000	-0,003	0,039
-330,445	219,634	0,074	-0,086
-329,431	800,000	-0,015	-0,037
-328,416	122,058	-0,056	0,051
-327,402	-54,294	0,132	-0,043
-326,387	143,426	0,101	0,098
-325,372	-200,000	-0,024	-0,078
-324,358	-12,820	-0,125	0,059
-323,343	-200,000	-0,009	-0,037
-322,329	-200,000	0,012	-0,052
-321,314	-124,365	0,116	-0,013
-320,299	41,718	0,076	0,050
-319,285	298,871	0,059	0,079
-318,270	-200,000	-0,020	0,143
-317,256	-117,698	0,073	-0,009
-316,241	53,679	-0,096	0,067
-315,226	442,419	0,046	-0,073
-314,212	93,727	0,042	-0,035
-313,197	32,788	0,055	0,035
-312,183	5,902	0,059	0,031
-311,168	5,556	0,133	0,071
-310,153	-19,028	-0,166	-0,074
-309,139	-135,056	0,085	-0,007
-308,124	14,771	-0,171	0,097
-307,110	-121,780	0,125	0,015
-306,095	310,753	0,098	0,133
-305,080	-148,625	0,139	-0,008
-304,066	-66,131	-0,099	-0,029
-303,051	800,000	0,005	-0,013
-302,037	-200,000	0,014	-0,064
-301,022	704,819	-0,028	-0,054
-300,008	35,974	0,106	0,067
-298,993	73,303	-0,084	0,063
-297,978	-200,000	0,003	0,018
-296,964	-200,000	0,017	0,056
-295,949	397,036	-0,039	-0,059
-294,935	117,535	0,093	0,083
-293,920	376,263	0,007	0,010
-292,905	-200,000	0,002	0,097
-291,891	-200,000	0,023	0,076
-290,876	21,544	-0,021	-0,012
-289,862	-80,056	-0,098	-0,024
-288,847	387,645	0,104	-0,156
-287,832	28,662	-0,111	0,068
-286,818	-153,211	0,083	0,004
-285,803	194,302	0,019	0,021
-284,789	152,409	0,112	0,111
-283,774	-105,111	0,040	0,007
-282,759	94,280	-0,128	0,105
-281,745	-138,557	-0,061	-0,005
-280,730	43,508	-0,078	-0,051
-279,716	-200,000	-0,012	0,156
-278,701	-200,000	-0,009	-0,048
-277,686	72,130	-0,080	0,060
-276,672	-137,031	0,027	-0,002
-275,657	508,024	-0,053	-0,089
-274,643	-200,000	-0,010	-0,039
-273,628	787,823	-0,046	-0,091
-272,613	800,000	0,028	0,086
-271,599	800,000	0,015	0,040
-270,584	-76,651	0,081	-0,020
-269,570	247,903	0,090	0,110
-268,555	14,444	0,077	0,043
-267,540	-14,451	-0,124	-0,058
-266,526	310,778	0,046	-0,063
-265,511	-159,078	0,085	0,003
-264,497	-4,729	-0,108	0,054
-263,482	324,785	0,065	0,090
-262,467	213,880	-0,016	0,018
-261,453	60,995	0,063	0,045
-260,438	1,206	-0,184	-0,095
-259,424	166,010	0,033	0,034
-258,409	92,197	0,070	0,057
-257,395	800,000	-0,024	-0,053
-256,380	193,050	-0,118	-0,129
-255,365	-1,479	0,045	0,023
-254,351	-34,700	0,068	0,027
-253,336	-22,723	-0,191	-0,083
-252,322	-117,275	-0,090	-0,012
-251,307	227,209	-0,013	0,016
-250,292	494,089	0,105	-0,175
-249,278	-200,000	-0,015	0,060
-248,263	83,828	0,135	0,107
-247,249	228,270	-0,027	0,032
-246,234	-200,000	0,006	-0,056
-245,219	800,000	-0,041	-0,087
-244,205	198,489	0,051	-0,056
-243,190	-200,000	0,007	-0,045
-242,176	25,001	-0,046	0,028
-241,161	27,446	-0,025	-0,015
-240,146	309,604	0,042	0,057
-239,132	-78,854	0,097	-0,024
-238,117	-129,950	-0,106	-0,010
-237,103	141,442	-0,099	-0,095
-236,088	88,761	-0,013	-0,010
-235,073	663,143	-0,050	-0,094
-234,059	20,362	0,064	0,037
-233,044	-200,000	0,006	0,027
-232,030	800,000	-0,022	-0,050
-231,015	193,462	0,028	0,031
-230,000	-168,024	0,155	-0,004
-228,986	616,679	0,054	-0,099
-227,971	345,294	-0,040	0,057
-226,957	536,378	0,029	-0,050
-225,942	-150,131	0,173	0,010
-224,927	119,670	-0,119	0,106
-223,913	800,000	-0,058	-0,175
-222,898	-105,132	0,057	0,009
-221,884	705,502	-0,032	0,061
-220,869	-41,880	0,129	-0,047
-219,855	-109,012	-0,086	-0,013
-218,840	800,000	-0,047	-0,111
-217,825	245,939	0,038	0,046
-216,811	-112,384	-0,055	-0,008
-215,796	-200,000	-0,009	0,069
-214,782	50,836	0,138	0,094
-213,767	157,028	0,036	-0,036
-212,752	270,374	0,037	0,047
-211,738	-57,213	0,142	0,045
-210,723	-119,701	-0,118	-0,015
-209,709	-200,000	0,016	0,151
-208,694	166,452	-0,102	-0,105
-207,679	800,000	-0,028	-0,087
-206,665	-200,000	0,007	0,108
-205,650	-200,000	-0,027	0,183
-204,636	187,527	0,063	0,068
-203,621	66,562	-0,160	0,117
-202,606	127,119	-0,019	-0,017
-201,592	486,601	-0,036	0,059
-200,577	-17,029	-0,013	-0,006
-199,563	-42,203	-0,108	0,040
-198,548	-200,000	0,019	0,163
-197,533	200,512	-0,024	0,027
-196,519	-21,910	0,050	-0,022
-195,504	135,828	0,026	-0,024
-194,490	-200,000	0,005	-0,086
-193,475	182,064	-0,058	-0,062
-192,460	-200,000	-0,028	-0,096
-191,446	220,331	-0,029	-0,034
-190,431	67,210	-0,078	-0,058
-189,417	77,196	-0,071	0,055
-188,402	-200,000	-0,002	-0,058
-187,387	800,000	0,031	-0,068
-186,373	-50,058	-0,082	-0,028
-185,358	-200,000	-0,029	-0,094
-184,344	-8,664	0,086	-0,041
-183,329	-200,000	0,004	0,103
-182,315	70,650	0,012	-0,009
-181,300	355,266	-0,017	-0,024
-180,285	18,415	-0,121	0,070
-179,271	-3,977	-0,103	-0,052
-178,256	52,346	0,105	-0,072
-177,242	-86,589	-0,103	0,023
-176,227	178,132	0,078	0,082
-175,212	9,867	0,081	0,044
-174,198	4,789	-0,020	-0,011
-173,183	-78,381	0,029	-0,007
-172,169	20,015	0,055	-0,032
-171,154	-200,000	-0,016	-0,183
-170,139	-200,000	0,000	0,054
-169,125	-200,000	-0,002	0,081
-168,110	800,000	0,014	0,030
-167,096	302,336	-0,060	-0,080
-166,081	218,098	0,037	-0,043
-165,066	-200,000	-0,033	-0,110
-164,052	737,913	-0,090	0,174
-163,037	84,294	-0,066	0,052
-162,023	-85,449	0,054	-0,012
-161,008	-200,000	-0,010	0,165
-159,993	367,198	0,038	0,055
-158,979	33,591	-0,074	0,046
-157,964	-133,203	0,074	-0,007
-156,950	-200,000	-0,008	-0,044
-155,935	-81,024	-0,025	-0,006
-154,920	800,000	-0,025	0,060
-153,906	12,676	0,030	-0,017
-152,891	-200,000	-0,037	0,164
-151,877	-200,000	-0,025	0,081
-150,862	-86,844	-0,121	-0,026
-149,847	373,499	0,075	-0,110
-148,833	568,283	-0,068	0,120
-147,818	15,820	-0,094	0,053
-146,804	-200,000	0,013	0,042
-145,789	-80,615	-0,141	0,034
-144,775	-200,000	-0,014	-0,075
-143,760	-200,000	-0,024	-0,100
-142,745	201,043	0,027	-0,030
-141,731	800,000	-0,067	0,152
-140,716	-200,000	-0,039	0,127
-139,702	44,304	0,022	0,014
-138,687	-95,495	-0,035	0,007
-137,672	-13,568	-0,148	0,069
-136,658	-50,710	-0,100	0,034
-135,643	-25,842	-0,054	-0,023
-134,629	16,043	-0,068	-0,039
-133,614	800,000	0,019	0,052
-132,599	305,308	0,064	-0,086
-131,585	501,017	-0,057	-0,095
-130,570	800,000	-0,088	-0,193
-129,556	-54,484	0,100	0,033
-128,541	170,932	0,048	-0,050
-127,526	278,027	-0,036	-0,047
-126,512	11,124	0,058	0,032
-125,497	-53,093	-0,055	-0,018
-124,483	6,443	0,174	0,093
-123,468	296,885	0,075	0,100
-122,453	73,818	0,049	-0,037
-121,439	418,003	-0,072	-0,111
-120,424	151,967	0,104	-0,102
-119,410	-200,000	0,002	-0,041
-118,395	703,907	-0,041	-0,078
-117,380	-80,703	0,066	-0,016
-116,366	85,135	-0,167	-0,132
-115,351	-200,000	0,009	-0,038
-114,337	-124,649	-0,261	0,029
-113,322	87,870	0,149	0,119
-112,307	20,146	0,041	-0,024
-111,293	-200,000	-0,009	0,054
-110,278	20,851	0,136	-0,079
-109,264	72,825	-0,191	0,143
-108,249	800,000	0,020	0,048
-107,234	0,749	0,062	-0,032
-106,220	-93,283	0,034	-0,007
-105,205	800,000	0,085	-0,191
-104,191	70,715	-0,027	0,020
-103,176	169,403	0,061	-0,063
-102,162	800,000	-0,051	-0,156
-101,147	-200,000	-0,008	-0,045
-100,132	-200,000	0,002	-0,067
-99,118	-74,932	-0,121	0,031
-98,103	-111,827	0,035	-0,005
-97,089	-54,555	-0,032	-0,010
-96,074	224,998	-0,042	-0,049
-95,059	9,854	-0,089	0,048
-94,045	800,000	-0,022	-0,051
-93,030	-154,512	0,152	0,007
-92,016	-40,682	-0,017	-0,006
-91,001	-138,397	-0,162	-0,013
-89,986	212,515	0,063	-0,071
-88,972	-200,000	0,006	0,107
-87,957	349,320	-0,030	-0,043
-86,943	103,432	-0,122	0,103
-85,928	800,000	-0,058	-0,115
-84,913	-102,170	0,085	-0,015
-83,899	125,483	-0,101	-0,091
-82,884	324,780	0,135	0,186
-81,870	-200,000	0,010	-0,074
-80,855	-86,645	0,167	0,036
-79,840	147,204	-0,070	0,068
-78,826	-23,845	0,089	0,038
-77,811	-37,640	-0,062	0,024
-76,797	-35,935	0,051	0,020
-75,782	231,393	-0,033	-0,039
-74,767	-121,643	0,128	0,015
-73,753	800,000	-0,031	0,073
-72,738	33,102	-0,064	-0,040
-71,724	800,000	-0,025	-0,071
-70,709	800,000	0,040	-0,123
-69,694	-44,200	-0,189	-0,068
-68,680	-200,000	-0,000	-0,014
-67,665	171,708	0,023	-0,023
-66,651	-200,000	-0,009	0,166
-65,636	-34,396	0,176	0,069
-64,622	800,000	-0,035	0,094
-63,607	377,843	0,112	-0,165
-62,592	-200,000	0,024	-0,109
-61,578	-1,279	-0,053	0,027
-60,563	216,437	-0,105	0,120
-59,549	-200,000	-0,002	0,015
-58,534	-21,085	-2,028	-0,887
-57,519	800,000	-0,427	-0,961
-56,505	-200,000	-1,201	-4,849
-55,490	-70,484	0,882	0,238
-54,476	800,000	5,221	11,945
-53,461	-200,000	17,431	284,734
-52,446	800,000	724,706	2224,274
-51,432	540,033	1640,602	2814,603
-50,417	110,959	1632,054	1410,330
-49,403	75,382	1285,992	973,180
-48,388	32,372	1028,159	635,964
-47,373	20,215	989,903	572,191
-46,359	18,608	978,140	560,094
-45,344	15,994	974,045	549,170
-44,330	16,133	972,590	548,780
-43,315	15,749	970,678	546,427
-42,300	15,683	969,696	545,637
-41,286	15,645	968,613	544,881
-40,271	15,692	967,595	544,438
-39,257	15,670	966,647	543,814
-38,242	15,669	965,814	543,320
-37,227	15,687	965,111	542,962
-36,213	15,682	964,371	542,506
-35,198	15,674	963,344	541,883
-34,184	15,690	962,694	541,546
-33,169	15,692	961,577	540,905
-32,154	15,712	960,804	540,512
-31,140	15,751	959,957	540,141
-30,125	15,697	959,176	539,503
-29,111	15,741	958,198	539,074
-28,096	15,650	957,680	538,468
-27,082	15,709	956,918	538,210
-26,067	15,696	956,343	537,823
-25,052	15,636	955,516	537,142
-24,038	15,632	954,760	536,684
-23,023	15,658	954,174	536,416
-22,009	15,656	953,547	536,036
-20,994	15,681	952,897	535,730
-19,979	15,704	952,335	535,464
-18,965	15,665	951,686	534,954
-17,950	15,630	951,097	534,492
-16,936	15,661	950,277	534,108
-15,921	15,625	949,719	533,657
-14,906	15,543	949,121	533,040
-13,892	15,552	948,389	532,635
-12,877	15,553	947,711	532,236
-11,863	15,507	947,067	531,709
-10,848	15,511	946,767	531,531
-9,833	15,684	946,171	531,726
-8,819	15,577	945,537	531,007
-7,804	15,606	944,795	530,662
-6,790	15,600	944,318	530,353
-5,775	15,641	943,548	530,031
-4,760	15,569	943,112	529,537
-3,746	15,577	942,265	529,064
-2,731	15,405	941,783	528,228
-1,717	15,464	941,009	527,962
-0,702	15,344	940,447	527,246
0,313	15,192	939,759	527,176
1,327	18,469	937,332	536,095
2,342	27,265	794,794	477,893
3,356	24,057	459,077	271,102
4,371	-3,155	314,061	156,568
5,386	-7,158	295,722	143,368
6,400	-9,266	289,796	138,392
7,415	-9,741	287,315	136,728
8,429	-10,042	286,012	135,801
9,444	-9,873	284,814	135,384
10,459	-9,796	284,308	135,207
11,473	-9,880	283,837	134,889
12,488	-9,771	283,194	134,677
13,502	-9,894	282,575	134,252
14,517	-9,748	282,296	134,249
15,531	-9,809	281,699	133,894
16,546	-9,786	281,468	133,795
17,561	-9,927	281,166	133,503
18,575	-9,978	280,848	133,291
19,590	-10,031	280,433	133,032
20,604	-9,945	280,221	133,002
21,619	-9,818	279,553	132,794
22,634	-9,661	279,374	132,848
23,648	-9,844	279,022	132,494
24,663	-9,853	278,921	132,426
25,677	-9,724	278,591	132,380
26,692	-9,763	278,307	132,196
27,707	-9,772	277,994	132,027
28,721	-9,963	277,693	131,690
29,736	-9,742	277,470	131,783
30,750	-9,784	277,277	131,639
31,765	-9,793	276,878	131,430
32,780	-9,884	276,643	131,221
33,794	-9,646	276,389	131,313
34,809	-9,777	276,140	131,060
35,823	-9,877	275,896	130,837
36,838	-9,799	275,640	130,778
37,853	-9,838	275,442	130,636
38,867	-10,044	275,293	130,360
39,882	-9,896	274,998	130,347
40,896	-9,793	274,635	130,261
41,911	-9,841	274,440	130,111
42,926	-9,667	274,329	130,211
43,940	-9,853	273,913	129,827
44,955	-9,917	273,889	129,745
45,969	-9,857	273,615	129,659
46,984	-10,111	273,324	129,273
47,999	-10,286	273,121	129,002
49,013	-10,372	272,714	128,718
50,028	-10,417	272,447	128,539
51,042	-10,639	272,449	128,322
52,057	-10,453	272,074	128,307
53,071	-10,346	271,720	128,228
54,086	-10,361	271,678	128,182
55,101	-10,467	271,549	128,012
56,115	-10,260	271,366	128,106
57,130	-9,963	271,142	128,263
58,144	-9,723	270,879	128,349
59,159	-9,661	270,701	128,310
60,174	-9,679	270,448	128,163
61,188	-9,828	270,387	127,985
62,203	-9,753	270,040	127,878
63,217	-9,691	269,928	127,870
64,232	-9,756	269,494	127,594
65,247	-9,853	269,591	127,540
66,261	-9,842	269,209	127,358
67,276	-9,800	268,849	127,214
68,290	-10,065	268,681	126,881
69,305	-10,226	268,514	126,643
70,320	-10,043	268,190	126,647
71,334	-9,611	267,943	126,913
72,349	-9,702	267,921	126,808
73,363	-9,570	267,651	126,789
74,378	-9,634	267,404	126,602
75,393	-9,827	267,345	126,388
76,407	-9,752	267,055	126,307
77,422	-9,707	266,816	126,224
78,436	-9,752	266,540	126,041
79,451	-9,654	266,292	126,002
80,466	-9,878	266,078	125,686
81,480	-9,958	266,022	125,576
82,495	-9,856	265,585	125,451
83,509	-9,703	265,412	125,496
84,524	-9,934	265,264	125,206
85,539	-9,988	265,049	125,046
86,553	-10,051	264,755	124,839
87,568	-9,790	264,579	124,979
88,582	-9,874	264,419	124,817
89,597	-9,966	264,314	124,674
90,611	-9,900	264,074	124,609
91,626	-9,707	263,907	124,692
92,641	-9,856	263,852	124,521
93,655	-9,761	263,432	124,397
94,670	-9,922	263,339	124,198
95,684	-9,718	262,993	124,206
96,699	-9,888	263,025	124,058
97,714	-9,864	262,652	123,892
98,728	-10,137	262,562	123,596
99,743	-9,896	262,188	123,623
100,757	-10,145	262,120	123,358
101,772	-9,997	261,871	123,362
102,787	-9,906	261,688	123,345
103,801	-9,981	261,478	123,169
104,816	-9,879	261,398	123,211
105,830	-9,877	261,325	123,167
106,845	-9,784	261,047	123,107
107,860	-9,611	260,618	123,047
108,874	-9,735	260,495	122,869
109,889	-9,747	260,278	122,745
110,903	-9,913	260,203	122,551
111,918	-9,913	259,845	122,372
112,933	-9,888	259,729	122,328
113,947	-9,762	259,536	122,337
114,962	-9,945	259,470	122,135
115,976	-9,743	259,181	122,166
116,991	-9,978	258,995	121,861
118,006	-9,822	258,828	121,908
119,020	-9,811	258,680	121,837
120,035	-9,755	258,661	121,866
121,049	-9,607	258,253	121,793
122,064	-9,763	258,184	121,613
123,079	-9,761	257,878	121,460
124,093	-9,975	257,877	121,261
125,108	-10,012	257,425	121,005
126,122	-10,155	257,207	120,768
127,137	-10,297	256,996	120,534
128,151	-10,063	256,894	120,679
129,166	-10,127	256,716	120,529
130,181	-9,863	256,304	120,554
131,195	-10,162	256,335	120,299
132,210	-9,793	256,164	120,527
133,224	-9,733	255,933	120,460
134,239	-9,697	255,799	120,418
135,254	-9,718	255,520	120,258
136,268	-9,831	255,293	120,043
137,283	-9,952	255,109	119,841
138,297	-10,099	254,908	119,609
139,312	-10,061	254,713	119,539
140,327	-9,941	254,614	119,586
141,341	-9,703	254,586	119,766
142,356	-9,773	254,321	119,571
143,370	-9,715	254,146	119,527
144,385	-9,779	254,046	119,415
145,400	-9,469	253,750	119,532
146,414	-9,481	253,672	119,474
147,429	-9,493	253,345	119,299
148,443	-9,491	253,315	119,276
149,458	-9,390	253,015	119,210
150,473	-9,621	252,819	118,910
151,487	-9,756	252,722	118,739
152,502	-9,706	252,484	118,659
153,516	-9,694	252,485	118,659
154,531	-9,581	252,157	118,590
155,546	-9,709	252,003	118,399
156,560	-9,668	251,773	118,315
157,575	-9,783	251,654	118,150
158,589	-9,665	251,419	118,129
159,604	-9,548	251,238	118,133
160,619	-9,649	250,890	117,874
161,633	-9,660	250,773	117,799
162,648	-9,542	250,887	117,942
163,662	-9,412	250,537	117,877
164,677	-9,475	250,298	117,701
165,692	-9,620	250,223	117,533
166,706	-9,476	249,967	117,524
167,721	-9,589	249,912	117,391
168,735	-9,623	249,776	117,288
169,750	-9,633	249,686	117,228
170,764	-9,492	249,518	117,257
171,779	-9,589	249,216	117,023
172,794	-9,510	249,082	117,016
173,808	-9,677	248,946	116,801
174,823	-9,793	248,635	116,547
175,837	-10,214	248,407	116,077
176,852	-9,851	248,343	116,341
177,867	-9,478	248,286	116,616
178,881	-9,597	248,145	116,440
179,896	-9,642	248,001	116,325
180,910	-9,419	247,694	116,357
181,925	-9,489	247,661	116,273
182,940	-9,540	247,440	116,116
183,954	-9,717	247,148	115,821
184,969	-9,555	247,073	115,910
185,983	-9,515	246,948	115,874
186,998	-9,671	246,718	115,627
188,013	-9,408	246,476	115,722
189,027	-9,454	246,351	115,614
190,042	-9,572	246,145	115,409
191,056	-9,549	246,031	115,364
192,071	-9,585	245,868	115,248
193,086	-9,619	245,610	115,089
194,100	-9,646	245,680	115,089
195,115	-9,554	245,321	114,986
196,129	-9,641	245,189	114,843
197,144	-9,587	244,825	114,707
198,159	-9,471	244,802	114,781
199,173	-9,671	244,648	114,533
200,188	-9,490	244,342	114,529
201,202	-10,054	244,201	113,989
202,217	-10,118	243,965	113,816
203,232	-10,237	243,685	113,578
204,246	-9,640	243,628	114,031
205,261	-9,497	243,620	114,134
206,275	-10,314	242,988	113,160
207,290	-7,287	244,372	116,282
208,304	0,049	246,780	123,489
209,319	3,819	247,759	127,089
210,334	4,243	247,854	127,478
211,348	4,336	247,571	127,398
212,363	4,566	247,507	127,544
213,377	4,838	247,496	127,751
214,392	4,771	247,266	127,565
215,407	4,388	247,071	127,138
216,421	4,394	246,837	127,011
217,436	4,488	246,780	127,048
218,450	5,001	246,633	127,382
219,465	4,586	246,472	126,947
220,480	4,256	246,081	126,463
221,494	4,148	246,046	126,346
222,509	4,347	245,826	126,384
223,523	4,232	245,628	126,178
224,538	3,967	245,405	125,834
225,553	3,978	245,461	125,861
226,567	4,125	244,976	125,721
227,582	4,212	245,029	125,808
228,596	4,248	244,877	125,749
229,611	3,905	244,575	125,302
230,626	3,940	244,499	125,281
231,640	4,015	244,294	125,225
232,655	4,017	244,186	125,161
233,669	4,120	243,841	125,056
234,684	3,803	243,885	124,810
235,699	4,150	243,864	125,071
236,713	4,260	243,751	125,091
237,728	4,179	243,393	124,830
238,742	3,918	243,263	124,541
239,757	3,777	243,081	124,323
240,772	3,875	242,922	124,310
241,786	4,055	242,672	124,315
242,801	3,837	242,614	124,099
243,815	3,918	242,424	124,056
244,830	4,222	242,315	124,234
245,844	4,126	242,050	124,010
246,859	4,001	241,989	123,867
247,874	3,950	241,836	123,737
248,888	3,995	241,617	123,650
249,903	4,054	241,394	123,572
250,917	4,273	241,377	123,728
251,932	4,197	241,391	123,663
252,947	4,505	241,056	123,727
253,961	4,158	240,736	123,274
254,976	4,023	240,761	123,168
255,990	4,145	240,640	123,193
257,005	3,828	240,502	122,858
258,020	3,642	240,261	122,575
259,034	3,839	240,175	122,678
260,049	4,023	239,926	122,686
261,063	3,604	239,734	122,243
262,078	3,840	239,664	122,385
263,093	4,057	239,556	122,491
264,107	4,181	239,441	122,520
265,122	4,061	239,152	122,266
266,136	4,001	239,050	122,156
267,151	4,443	238,965	122,452
268,166	4,028	238,633	121,942
269,180	3,999	238,514	121,847
270,195	4,552	238,547	122,291
271,209	4,624	238,423	122,274
272,224	4,133	238,066	121,692
273,239	3,742	237,924	121,299
274,253	3,917	237,641	121,282
275,268	3,960	237,633	121,302
276,282	4,348	237,246	121,399
277,297	3,799	237,209	120,937
278,312	3,911	237,175	120,997
279,326	3,957	237,173	121,021
280,341	3,981	236,920	120,900
281,355	4,005	236,719	120,806
282,370	4,146	236,620	120,855
283,384	4,148	236,427	120,747
284,399	3,828	236,430	120,487
285,414	3,777	236,004	120,220
286,428	3,777	235,907	120,159
287,443	3,861	235,898	120,210
288,457	4,054	235,670	120,234
289,472	4,142	235,632	120,272
290,487	4,053	235,408	120,077
291,501	3,595	235,248	119,628
292,516	3,794	234,929	119,610
293,530	3,715	234,736	119,440
294,545	3,998	234,742	119,653
295,560	4,057	234,668	119,649
296,574	3,813	234,404	119,314
297,589	3,869	234,412	119,352
298,603	4,244	234,094	119,470
299,618	4,159	234,007	119,349
300,633	4,082	233,884	119,216
301,647	4,256	233,746	119,270
302,662	4,396	233,837	119,414
303,676	4,320	233,552	119,199
304,691	4,145	233,323	118,936
305,706	4,362	233,283	119,073
306,720	4,410	233,237	119,076
307,735	4,098	232,922	118,664
308,749	4,106	232,719	118,556
309,764	3,748	232,551	118,184
310,779	3,799	232,317	118,095
311,793	3,902	231,995	117,999
312,808	3,810	231,970	117,906
313,822	3,837	231,782	117,820
314,837	3,837	231,726	117,781
315,852	3,774	231,542	117,629
316,866	4,023	231,529	117,802
317,881	4,027	231,340	117,698
318,895	4,265	231,165	117,780
319,910	4,467	231,200	117,942
320,925	4,198	230,957	117,603
321,939	3,778	230,785	117,184
322,954	4,057	230,607	117,296
323,968	3,796	230,446	117,006
324,983	3,639	230,276	116,789
325,997	4,338	230,180	117,262
327,012	4,238	230,199	117,184
328,027	4,031	229,991	116,911
329,041	4,487	229,869	117,185
330,056	4,905	229,885	117,499
331,070	4,653	229,849	117,279
332,085	4,340	229,543	116,875
333,100	4,191	229,203	116,580
334,114	4,013	229,043	116,353
335,129	4,432	228,808	116,540
336,143	4,705	228,805	116,734
337,158	4,500	228,630	116,479
338,173	4,281	228,452	116,214
339,187	4,065	228,421	116,024
340,202	4,391	228,192	116,143
341,216	4,303	228,043	115,991
342,231	4,055	227,894	115,718
343,246	3,980	227,732	115,570
344,260	4,194	227,732	115,720
345,275	4,411	227,605	115,808
346,289	4,238	227,526	115,628
347,304	4,665	227,327	115,836
348,319	4,442	227,111	115,549
349,333	4,318	226,971	115,375
350,348	4,151	226,731	115,117
351,362	4,097	226,683	115,042
352,377	3,959	226,510	114,841
353,392	3,925	226,325	114,712
354,406	4,135	226,059	114,723
355,421	195,624	1322,813	1400,452
356,435	156,805	1456,437	1400,450
