DTS Sentinel unit serial number:	SN410029Multiplexer serial number:	ORYXHardware model number:	OX2-SRSoftware version number:	ORYX F/W v4,00 Oryx Data Collector v3.7.2.0data status	okinstallation	B5 Nyhavnadifferential loss correction	single-endedforward channel	channel 2reverse channel	N/Adate	2023/12/13time	19:17:13forward acquisition time	300,00reverse acquisition time	0,00gamma	499,1914k internal	0,3160k external	0,3160temperature offset calibration	1,0000default loss term (dB/km)	0,3820temperature slope calibration	1,0000multiplexer offset coefficient	1,0000multiplexer slope coefficient	1,0000fibre end	0,00T internal ref (°C)	11,89T ext. ref 1 (°C)	-5,26T ext. ref 2 (°C)	-5,36length (m)	temperature (°C)	Stokes	anti-Stokes-744,400	49,422	0,083	-0,058
-743,385	-108,792	-0,404	-0,063
-742,371	-80,309	-0,084	0,021
-741,356	-137,279	-0,369	0,030
-740,342	16,107	0,149	0,087
-739,327	-180,587	-0,366	-0,005
-738,312	-172,999	0,187	0,004
-737,298	-139,531	-0,295	-0,023
-736,283	97,814	0,178	-0,151
-735,269	-161,546	-0,422	0,016
-734,254	-200,000	0,003	0,138
-733,239	-51,287	-0,529	-0,181
-732,225	-142,893	0,252	0,018
-731,210	-200,000	-0,044	0,192
-730,196	-200,000	0,011	0,038
-729,181	-11,984	-0,172	-0,083
-728,167	800,000	0,007	-0,015
-727,152	281,738	-0,110	0,146
-726,137	168,461	0,055	-0,058
-725,123	800,000	-0,050	-0,157
-724,108	-71,165	-0,029	-0,008
-723,094	214,521	-0,087	-0,102
-722,079	82,312	0,143	-0,114
-721,064	-200,000	-0,018	-0,259
-720,050	370,517	-0,074	0,111
-719,035	114,230	-0,094	0,084
-718,021	800,000	-0,041	-0,117
-717,006	454,297	-0,072	-0,118
-715,991	-200,000	0,018	-0,102
-714,977	23,640	0,125	-0,075
-713,962	41,065	0,045	-0,030
-712,948	-99,264	0,144	-0,027
-711,933	317,590	-0,031	-0,043
-710,918	-200,000	0,003	-0,019
-709,904	355,800	-0,111	-0,163
-708,889	-200,000	-0,002	-0,093
-707,875	191,361	0,036	-0,040
-706,860	-35,413	-0,120	-0,048
-705,845	189,871	0,088	-0,097
-704,831	147,528	-0,099	0,098
-703,816	-200,000	-0,015	-0,077
-702,802	-200,000	-0,009	-0,071
-701,787	-200,000	-0,015	0,122
-700,772	-98,297	-0,167	-0,031
-699,758	-120,372	0,151	0,019
-698,743	737,310	-0,037	-0,074
-697,729	778,220	0,027	0,055
-696,714	-200,000	0,002	-0,022
-695,699	-22,869	-0,222	-0,098
-694,685	-200,000	0,018	-0,130
-693,670	-200,000	-0,023	-0,138
-692,656	-200,000	-0,010	-0,054
-691,641	800,000	-0,033	0,086
-690,627	-200,000	0,004	-0,028
-689,612	24,421	-0,059	-0,035
-688,597	-200,000	0,048	-0,199
-687,583	-188,398	-0,078	-0,001
-686,568	800,000	0,029	0,060
-685,554	-200,000	0,037	-0,144
-684,539	-65,556	-0,052	0,015
-683,524	-200,000	-0,003	0,041
-682,510	599,275	-0,034	-0,061
-681,495	-133,069	-0,037	0,003
-680,481	77,884	-0,114	-0,089
-679,466	-62,938	-0,138	-0,042
-678,451	60,844	0,014	-0,010
-677,437	60,462	-0,054	0,039
-676,422	-118,511	-0,073	0,009
-675,408	248,956	-0,039	0,049
-674,393	800,000	0,023	0,061
-673,378	148,624	-0,035	-0,035
-672,364	23,390	-0,097	-0,059
-671,349	110,434	-0,091	0,081
-670,335	800,000	-0,023	0,056
-669,320	-108,211	0,048	-0,008
-668,305	-71,865	-0,040	0,011
-667,291	-61,776	-0,064	-0,020
-666,276	131,824	0,040	0,038
-665,262	-111,554	-0,073	-0,011
-664,247	230,652	0,070	-0,085
-663,232	800,000	0,036	-0,097
-662,218	800,000	0,084	0,239
-661,203	197,778	0,036	-0,041
-660,189	-148,269	0,033	-0,002
-659,174	800,000	0,032	0,085
-658,159	-200,000	-0,001	-0,154
-657,145	73,904	-0,052	-0,040
-656,130	-5,523	0,044	0,022
-655,116	-163,117	0,058	0,002
-654,101	-23,129	-0,023	-0,010
-653,086	253,899	0,025	-0,031
-652,072	800,000	0,056	-0,177
-651,057	-200,000	0,001	0,008
-650,043	68,026	0,100	-0,075
-649,028	170,505	0,046	0,049
-648,014	-200,000	-0,001	0,050
-646,999	800,000	-0,036	0,075
-645,984	-200,000	-0,040	0,134
-644,970	-200,000	-0,020	0,098
-643,955	800,000	-0,036	0,082
-642,941	800,000	0,014	0,031
-641,926	800,000	0,022	0,061
-640,911	-24,328	-0,057	-0,025
-639,897	-200,000	0,014	-0,062
-638,882	-16,956	-0,045	-0,021
-637,868	645,353	-0,030	-0,057
-636,853	-200,000	-0,011	-0,046
-635,838	-160,383	-0,136	0,005
-634,824	158,843	0,007	-0,007
-633,809	-79,959	-0,036	-0,009
-632,795	460,777	0,018	0,029
-631,780	-48,361	-0,008	0,003
-630,765	384,168	-0,014	0,021
-629,751	165,875	-0,054	-0,056
-628,736	517,652	-0,072	-0,125
-627,722	530,757	0,076	-0,133
-626,707	53,509	0,022	-0,015
-625,692	800,000	-0,024	0,063
-624,678	164,331	0,045	0,046
-623,663	-200,000	-0,003	-0,038
-622,649	-200,000	0,006	-0,091
-621,634	-200,000	-0,048	0,000
-620,619	672,776	-0,047	-0,089
-619,605	800,000	0,008	0,023
-618,590	54,969	0,025	0,018
-617,576	388,115	-0,092	0,140
-616,561	-200,000	-0,037	0,168
-615,546	11,060	-0,026	0,014
-614,532	-31,085	-0,097	0,040
-613,517	-200,000	-0,012	-0,044
-612,503	258,790	-0,031	0,039
-611,488	-131,973	0,085	-0,008
-610,474	180,688	-0,057	-0,062
-609,459	800,000	0,004	0,009
-608,444	354,286	-0,049	-0,072
-607,430	-8,112	-0,141	0,070
-606,415	800,000	-0,042	0,094
-605,401	-61,584	0,057	-0,017
-604,386	-94,721	0,082	0,016
-603,371	86,975	-0,180	0,145
-602,357	56,387	-0,049	0,035
-601,342	-8,070	-0,081	0,040
-600,328	-200,000	-0,003	-0,076
-599,313	-30,230	0,132	-0,055
-598,298	326,558	-0,042	-0,060
-597,284	-53,959	-0,024	0,008
-596,269	800,000	0,031	0,083
-595,255	-200,000	-0,001	0,041
-594,240	33,493	0,084	-0,053
-593,225	407,235	0,089	-0,138
-592,211	89,278	-0,080	-0,065
-591,196	139,168	0,033	-0,032
-590,182	37,152	0,110	0,071
-589,167	-15,551	-0,114	-0,053
-588,152	-20,615	0,129	-0,058
-587,138	179,104	-0,095	0,101
-586,123	-97,053	-0,105	-0,020
-585,109	800,000	0,028	-0,074
-584,094	218,659	0,114	0,134
-583,079	407,936	0,080	-0,124
-582,065	-200,000	-0,040	0,151
-581,050	-200,000	-0,034	0,109
-580,036	168,030	0,084	-0,088
-579,021	-200,000	0,012	-0,048
-578,006	146,470	-0,021	-0,021
-576,992	-50,500	-0,034	-0,012
-575,977	578,475	0,069	0,124
-574,963	-96,856	-0,050	-0,010
-573,948	-200,000	-0,012	0,058
-572,934	-200,000	0,000	0,070
-571,919	339,623	0,042	-0,060
-570,904	-132,691	-0,123	0,011
-569,890	800,000	-0,072	-0,177
-568,875	800,000	-0,033	0,096
-567,861	-160,111	0,095	0,004
-566,846	-138,424	0,044	-0,003
-565,831	-200,000	-0,005	0,093
-564,817	-200,000	-0,019	0,066
-563,802	800,000	-0,058	-0,157
-562,788	135,210	0,040	-0,038
-561,773	171,989	-0,062	0,065
-560,758	144,967	0,122	-0,119
-559,744	475,117	-0,012	-0,019
-558,729	800,000	0,045	-0,131
-557,715	349,849	-0,030	0,043
-556,700	167,257	0,052	-0,054
-555,685	11,150	0,102	-0,057
-554,671	800,000	-0,032	0,097
-553,656	-45,668	0,109	0,039
-552,642	-200,000	-0,013	-0,069
-551,627	-200,000	-0,015	-0,141
-550,612	214,369	-0,043	0,050
-549,598	-43,369	0,062	0,023
-548,583	-200,000	-0,041	-0,136
-547,569	800,000	-0,015	0,046
-546,554	24,871	-0,114	0,069
-545,539	98,276	0,123	0,104
-544,525	61,919	-0,031	-0,023
-543,510	560,912	-0,048	-0,085
-542,496	158,503	-0,064	0,065
-541,481	-200,000	0,056	-0,185
-540,466	-20,951	-0,112	0,050
-539,452	114,262	-0,018	0,016
-538,437	-200,000	0,020	0,072
-537,423	285,081	0,087	0,114
-536,408	-52,330	-0,052	-0,018
-535,393	21,629	0,055	0,033
-534,379	54,957	0,016	-0,011
-533,364	217,522	-0,053	-0,062
-532,350	369,175	-0,059	0,088
-531,335	-145,429	-0,058	-0,004
-530,321	468,189	0,062	-0,103
-529,306	148,378	-0,084	0,083
-528,291	-50,063	-0,118	-0,041
-527,277	-200,000	0,012	-0,049
-526,262	800,000	-0,025	0,072
-525,248	-84,751	0,115	-0,026
-524,233	11,042	-0,050	-0,028
-523,218	70,338	-0,054	-0,041
-522,204	-200,000	0,036	0,129
-521,189	422,032	-0,054	0,085
-520,175	800,000	-0,034	-0,077
-519,160	-200,000	0,003	-0,089
-518,145	800,000	-0,020	0,064
-517,131	74,841	0,051	0,039
-516,116	-162,459	-0,089	-0,003
-515,102	-200,000	0,003	-0,035
-514,087	373,503	-0,069	-0,102
-513,072	211,536	-0,112	-0,128
-512,058	177,959	0,039	-0,042
-511,043	-193,769	0,045	0,000
-510,029	-200,000	-0,013	0,102
-509,014	-200,000	-0,017	0,103
-507,999	4,703	-0,134	-0,071
-506,985	289,370	0,114	-0,151
-505,970	788,407	-0,075	-0,152
-504,956	-16,816	-0,129	0,059
-503,941	308,276	0,048	0,066
-502,926	800,000	-0,020	-0,052
-501,912	-200,000	-0,002	0,148
-500,897	-200,000	-0,005	0,030
-499,883	-96,580	-0,084	-0,016
-498,868	-200,000	-0,004	0,088
-497,853	360,627	0,059	0,087
-496,839	85,470	-0,102	-0,082
-495,824	-200,000	0,031	0,114
-494,810	7,835	0,084	-0,046
-493,795	-200,000	-0,017	0,102
-492,781	-200,000	-0,025	0,130
-491,766	275,029	0,013	0,017
-490,751	27,572	-0,015	-0,009
-489,737	60,647	-0,054	0,039
-488,722	-157,924	-0,032	0,001
-487,708	-18,439	0,168	0,076
-486,693	708,272	-0,049	-0,095
-485,678	-40,389	-0,089	0,033
-484,664	-30,189	-0,067	0,028
-483,649	-200,000	-0,013	-0,065
-482,635	-200,000	-0,001	0,039
-481,620	488,063	0,056	0,094
-480,605	-200,000	-0,017	0,059
-479,591	-200,000	0,015	0,127
-478,576	291,465	-0,053	-0,070
-477,562	-200,000	0,027	0,146
-476,547	-200,000	-0,043	-0,143
-475,532	-54,709	0,059	0,019
-474,518	-161,297	-0,031	-0,001
-473,503	15,095	0,142	0,081
-472,489	-200,000	-0,009	0,042
-471,474	-83,395	0,056	-0,013
-470,459	-120,349	-0,045	-0,006
-469,445	-200,000	0,016	0,071
-468,430	-69,188	-0,113	-0,032
-467,416	-200,000	-0,003	-0,115
-466,401	74,708	-0,089	0,068
-465,386	201,555	-0,018	0,021
-464,372	283,355	-0,024	-0,032
-463,357	-77,776	-0,143	-0,036
-462,343	-200,000	0,008	-0,077
-461,328	-130,126	-0,096	0,009
-460,313	-127,291	-0,033	0,004
-459,299	800,000	-0,046	-0,101
-458,284	-62,522	0,052	0,015
-457,270	162,444	-0,058	0,059
-456,255	162,377	-0,077	-0,078
-455,241	800,000	-0,026	-0,069
-454,226	-200,000	0,016	-0,117
-453,211	294,511	0,051	0,068
-452,197	425,148	-0,048	0,075
-451,182	-144,223	0,108	0,007
-450,168	695,778	-0,068	-0,131
-449,153	790,370	0,027	-0,055
-448,138	-27,588	-0,020	0,008
-447,124	-200,000	-0,026	-0,084
-446,109	-200,000	-0,001	0,075
-445,095	76,030	0,056	0,043
-444,080	800,000	-0,021	0,047
-443,065	284,552	0,107	-0,141
-442,051	-3,676	-0,120	0,061
-441,036	-20,804	0,101	-0,045
-440,022	-30,893	-0,096	-0,039
-439,007	-200,000	0,012	-0,059
-437,992	-58,525	0,137	-0,043
-436,978	800,000	-0,051	0,112
-435,963	-143,621	0,056	0,004
-434,949	305,563	-0,019	0,026
-433,934	-200,000	0,031	-0,103
-432,919	-200,000	0,013	-0,129
-431,905	-17,375	0,011	0,005
-430,890	-106,194	0,116	0,019
-429,876	-13,949	-0,107	0,050
-428,861	168,463	-0,072	0,075
-427,846	-200,000	-0,028	0,190
-426,832	-200,000	-0,004	-0,089
-425,817	-200,000	0,013	0,086
-424,803	800,000	-0,018	-0,052
-423,788	-200,000	0,027	0,110
-422,773	-200,000	0,019	0,077
-421,759	15,644	-0,029	0,017
-420,744	35,490	0,065	-0,041
-419,730	-57,798	-0,076	-0,024
-418,715	-200,000	-0,013	-0,070
-417,701	-200,000	0,001	-0,146
-416,686	477,701	-0,006	0,010
-415,671	310,529	-0,077	0,106
-414,657	-37,387	0,052	-0,020
-413,642	800,000	0,033	0,088
-412,628	411,834	-0,014	-0,022
-411,613	6,587	0,145	-0,078
-410,598	99,639	-0,084	-0,070
-409,584	-44,261	0,069	0,025
-408,569	800,000	0,018	0,049
-407,555	800,000	0,036	0,075
-406,540	-200,000	-0,051	0,169
-405,525	63,622	-0,032	-0,024
-404,511	6,296	-0,110	0,059
-403,496	-200,000	-0,003	0,063
-402,482	465,024	0,166	0,270
-401,467	394,476	0,050	0,077
-400,452	-116,013	0,117	0,016
-399,438	46,531	-0,087	0,059
-398,423	800,000	0,021	0,050
-397,409	-200,000	0,005	-0,080
-396,394	-117,106	0,029	-0,004
-395,379	800,000	0,056	0,114
-394,365	261,536	0,073	0,092
-393,350	511,235	-0,029	0,049
-392,336	37,696	-0,082	0,053
-391,321	-5,779	-0,155	-0,077
-390,306	134,308	-0,067	0,063
-389,292	-200,000	-0,011	-0,084
-388,277	629,781	0,043	-0,079
-387,263	398,782	-0,079	0,121
-386,248	800,000	0,027	0,079
-385,233	365,447	0,088	0,130
-384,219	-13,984	-0,018	0,009
-383,204	-59,060	-0,043	0,013
-382,190	662,354	0,049	-0,092
-381,175	800,000	-0,014	-0,033
-380,160	-46,054	-0,082	-0,029
-379,146	-200,000	-0,020	0,084
-378,131	-200,000	-0,006	0,027
-377,117	-44,867	0,034	0,012
-376,102	-8,948	0,035	-0,017
-375,088	-200,000	-0,006	-0,070
-374,073	-200,000	-0,005	-0,065
-373,058	-84,588	0,152	-0,035
-372,044	237,161	-0,081	-0,097
-371,029	800,000	0,063	0,129
-370,015	48,669	0,089	-0,061
-369,000	-42,882	-0,116	0,043
-367,985	-200,000	-0,004	-0,033
-366,971	-125,447	0,005	-0,001
-365,956	-101,069	0,037	-0,006
-364,942	800,000	-0,007	-0,015
-363,927	-10,033	0,031	-0,015
-362,912	-128,921	0,082	-0,008
-361,898	-175,986	0,040	0,001
-360,883	-100,586	0,090	0,016
-359,869	-131,658	-0,072	-0,007
-358,854	4,084	-0,052	-0,028
-357,839	800,000	0,008	-0,020
-356,825	86,863	0,009	-0,007
-355,810	800,000	0,035	-0,109
-354,796	250,420	-0,045	-0,056
-353,781	800,000	0,019	-0,050
-352,766	68,161	0,027	-0,020
-351,752	800,000	-0,046	0,106
-350,737	366,969	0,079	-0,116
-349,723	162,962	-0,089	0,090
-348,708	-50,315	0,130	0,044
-347,693	359,066	-0,038	-0,055
-346,679	-39,734	-0,105	-0,039
-345,664	-200,000	-0,004	0,036
-344,650	800,000	0,072	0,161
-343,635	70,854	0,101	0,076
-342,620	319,758	0,058	0,080
-341,606	-29,519	0,132	-0,055
-340,591	151,093	-0,136	-0,134
-339,577	-200,000	-0,005	-0,208
-338,562	-108,754	-0,098	-0,015
-337,548	63,331	0,067	0,048
-336,533	796,274	0,074	0,149
-335,518	66,490	0,031	0,023
-334,504	234,922	0,054	0,065
-333,489	-58,768	0,057	-0,018
-332,475	177,022	-0,119	-0,126
-331,460	174,344	0,055	-0,058
-330,445	114,819	0,118	-0,104
-329,431	41,950	0,039	-0,025
-328,416	116,170	0,120	-0,107
-327,402	-0,253	0,034	0,017
-326,387	-82,167	0,092	-0,022
-325,372	-200,000	0,001	-0,108
-324,358	-200,000	0,011	0,052
-323,343	-42,249	0,053	0,020
-322,329	-200,000	0,012	-0,113
-321,314	-200,000	0,012	0,080
-320,299	-200,000	-0,020	0,109
-319,285	800,000	-0,039	-0,116
-318,270	800,000	-0,055	-0,123
-317,256	-113,144	0,058	0,008
-316,241	40,132	-0,162	-0,106
-315,226	800,000	-0,030	0,069
-314,212	-34,138	0,073	0,029
-313,197	80,156	0,088	-0,068
-312,183	-41,063	-0,015	0,005
-311,168	344,049	0,055	-0,079
-310,153	-33,859	-0,080	0,032
-309,139	624,568	-0,028	-0,051
-308,124	-200,000	0,025	0,121
-307,110	167,847	0,014	-0,014
-306,095	-200,000	-0,030	-0,097
-305,080	119,232	0,057	0,051
-304,066	-200,000	-0,008	0,039
-303,051	-149,351	-0,038	0,002
-302,037	-28,798	0,048	-0,020
-301,022	-200,000	-0,026	-0,142
-300,008	-142,170	0,088	0,006
-298,993	800,000	0,033	0,078
-297,978	-92,517	0,031	0,006
-296,964	289,082	-0,042	-0,055
-295,949	-200,000	0,013	-0,092
-294,935	800,000	0,061	-0,122
-293,920	-50,739	0,095	-0,032
-292,905	229,971	0,084	-0,099
-291,891	52,073	-0,058	-0,040
-290,876	-181,214	-0,053	0,001
-289,862	-200,000	0,018	-0,104
-288,847	-94,993	-0,072	0,014
-287,832	-97,007	-0,016	-0,003
-286,818	-35,113	-0,080	0,031
-285,803	800,000	0,017	-0,043
-284,789	-200,000	0,000	0,121
-283,774	-200,000	0,009	-0,081
-282,759	-200,000	0,005	-0,108
-281,745	-200,000	-0,026	-0,173
-280,730	800,000	0,030	-0,075
-279,716	439,882	0,052	-0,083
-278,701	-33,362	0,126	0,050
-277,686	697,309	-0,020	0,039
-276,672	606,758	-0,067	0,122
-275,657	15,885	-0,027	-0,015
-274,643	800,000	0,047	0,125
-273,628	-34,070	-0,071	-0,028
-272,613	800,000	0,008	0,025
-271,599	380,674	0,031	-0,046
-270,584	-200,000	-0,004	-0,093
-269,570	-200,000	-0,003	-0,024
-268,555	800,000	-0,022	-0,049
-267,540	70,119	-0,121	-0,090
-266,526	86,308	0,114	0,091
-265,511	-200,000	0,009	0,162
-264,497	457,994	-0,052	0,084
-263,482	105,959	-0,054	-0,046
-262,467	229,311	0,046	0,055
-261,453	398,298	-0,061	0,093
-260,438	-175,415	0,040	-0,001
-259,424	-49,571	0,138	-0,047
-258,409	-53,386	0,130	-0,043
-257,395	-200,000	-0,000	-0,114
-256,380	681,884	0,030	0,056
-255,365	-200,000	-0,004	0,035
-254,351	75,913	-0,068	0,052
-253,336	113,250	0,041	0,036
-252,322	66,095	0,084	-0,061
-251,307	-100,277	-0,103	0,018
-250,292	-200,000	-0,011	-0,087
-249,278	700,753	-0,106	0,203
-248,263	-200,000	0,002	0,015
-247,249	800,000	0,038	0,111
-246,234	800,000	0,016	0,046
-245,219	361,463	-0,018	0,027
-244,205	800,000	-0,037	-0,115
-243,190	625,369	-0,031	-0,057
-242,176	77,777	-0,132	-0,102
-241,161	-105,046	0,080	0,013
-240,146	-200,000	-0,018	0,113
-239,132	800,000	0,015	-0,047
-238,117	800,000	-0,038	-0,113
-237,103	331,451	0,046	0,065
-236,088	-200,000	0,011	0,088
-235,073	-74,036	-0,050	0,013
-234,059	-200,000	-0,003	0,026
-233,044	-28,846	0,131	-0,054
-232,030	180,694	0,070	-0,075
-231,015	800,000	0,066	-0,145
-230,000	-200,000	-0,048	-0,156
-228,986	147,166	0,046	-0,044
-227,971	44,543	-0,044	-0,029
-226,957	134,720	0,013	0,013
-225,942	776,093	-0,059	-0,116
-224,927	-200,000	-0,026	0,147
-223,913	-45,223	0,053	0,019
-222,898	-58,608	0,084	-0,026
-221,884	483,205	-0,025	0,041
-220,869	79,300	-0,037	-0,029
-219,855	36,543	0,137	0,087
-218,840	649,019	0,019	0,035
-217,825	56,048	-0,122	-0,085
-216,811	81,779	-0,039	-0,031
-215,796	171,498	-0,109	0,113
-214,782	-145,797	0,061	-0,004
-213,767	146,483	0,039	-0,038
-212,752	-200,000	-0,017	0,186
-211,738	-108,893	0,012	-0,002
-210,723	106,298	0,091	-0,078
-209,709	-141,691	-0,227	0,016
-208,694	57,357	0,010	0,007
-207,679	411,561	0,060	-0,093
-206,665	-150,487	-0,047	-0,003
-205,650	800,000	0,020	0,055
-204,636	800,000	-0,028	0,061
-203,621	577,442	-0,083	0,147
-202,606	352,548	-0,101	-0,144
-201,592	800,000	-0,064	-0,153
-200,577	68,830	0,110	-0,081
-199,563	127,766	-0,084	-0,077
-198,548	-200,000	0,010	0,053
-197,533	-132,578	0,125	0,011
-196,519	-39,844	0,092	-0,034
-195,504	800,000	-0,020	0,052
-194,490	358,464	0,017	0,025
-193,475	800,000	0,020	-0,042
-192,460	-117,936	-0,127	-0,016
-191,446	800,000	0,115	0,246
-190,431	-25,914	0,027	0,011
-189,417	-200,000	0,022	-0,091
-188,402	-21,732	0,054	0,024
-187,387	800,000	-0,031	-0,063
-186,373	-200,000	0,033	-0,124
-185,358	-200,000	0,009	-0,193
-184,344	-200,000	0,005	0,110
-183,329	800,000	0,009	-0,026
-182,315	800,000	-0,058	0,158
-181,300	800,000	-0,014	-0,034
-180,285	166,159	0,057	-0,058
-179,271	135,834	-0,111	-0,104
-178,256	-200,000	-0,013	-0,057
-177,242	-20,324	0,081	-0,036
-176,227	-200,000	0,028	0,124
-175,212	36,213	0,117	0,074
-174,198	800,000	0,008	0,020
-173,183	241,969	0,080	-0,096
-172,169	188,470	-0,012	-0,013
-171,154	255,934	-0,071	0,088
-170,139	77,031	0,049	-0,037
-169,125	800,000	0,043	-0,104
-168,110	40,508	0,073	0,048
-167,096	-97,933	0,053	0,010
-166,081	5,425	-0,067	-0,036
-165,066	266,047	0,032	0,040
-164,052	800,000	0,030	0,073
-163,037	664,197	0,056	0,105
-162,023	-27,013	0,136	0,057
-161,008	-200,000	-0,008	-0,083
-159,993	800,000	-0,029	0,068
-158,979	89,707	0,079	0,064
-157,964	298,808	-0,051	-0,067
-156,950	37,528	-0,041	-0,026
-155,935	-4,480	0,029	0,015
-154,920	800,000	0,068	0,150
-153,906	220,279	0,051	0,059
-152,891	-200,000	0,004	-0,013
-151,877	468,651	0,011	-0,018
-150,862	-5,509	0,090	-0,044
-149,847	-200,000	-0,017	-0,167
-148,833	-103,782	0,030	0,005
-147,818	-200,000	-0,013	-0,053
-146,804	-200,000	0,021	0,094
-145,789	-76,182	-0,071	-0,018
-144,775	211,736	-0,078	0,088
-143,760	-200,000	0,011	-0,057
-142,745	161,304	0,045	-0,046
-141,731	133,329	-0,100	0,093
-140,716	177,233	-0,045	0,047
-139,702	-200,000	0,004	0,031
-138,687	313,415	-0,035	-0,047
-137,672	249,265	-0,044	0,054
-136,658	86,609	-0,036	-0,029
-135,643	-164,987	-0,149	0,005
-134,629	-200,000	0,012	0,101
-133,614	156,570	0,049	0,049
-132,599	-63,206	-0,025	-0,007
-131,585	800,000	-0,047	0,094
-130,570	-200,000	-0,001	0,038
-129,556	-134,385	-0,188	0,016
-128,541	-200,000	0,009	0,094
-127,526	352,796	-0,042	0,060
-126,512	114,923	-0,021	0,018
-125,497	-115,215	0,052	0,007
-124,483	15,051	-0,140	-0,078
-123,468	717,050	-0,009	0,017
-122,453	-63,940	-0,025	-0,007
-121,439	-200,000	-0,052	-0,194
-120,424	-21,748	0,109	-0,048
-119,410	-200,000	0,023	0,185
-118,395	800,000	0,046	0,135
-117,380	-200,000	0,022	0,074
-116,366	800,000	-0,038	0,103
-115,351	-125,656	0,098	-0,011
-114,337	152,513	-0,065	-0,064
-113,322	-31,114	-0,119	-0,048
-112,307	766,407	-0,040	0,079
-111,293	15,102	-0,022	0,012
-110,278	800,000	0,060	0,186
-109,264	71,790	-0,031	-0,023
-108,249	385,996	0,025	0,038
-107,234	-200,000	-0,001	-0,167
-106,220	-200,000	-0,015	-0,051
-105,205	9,627	-0,044	0,024
-104,191	445,066	0,080	-0,127
-103,176	729,816	-0,033	0,064
-102,162	6,852	-0,012	-0,006
-101,147	-200,000	-0,003	-0,012
-100,132	-126,198	0,030	-0,003
-99,118	185,639	-0,060	0,064
-98,103	184,020	0,060	-0,064
-97,089	800,000	0,036	-0,090
-96,074	800,000	-0,036	0,108
-95,059	-200,000	-0,005	-0,072
-94,045	-188,184	-0,047	0,000
-93,030	800,000	-0,039	0,086
-92,016	-29,192	-0,126	0,052
-91,001	719,701	-0,069	0,133
-89,986	170,217	-0,035	-0,036
-88,972	-83,680	0,078	0,018
-87,957	631,013	-0,082	-0,151
-86,943	282,078	-0,050	-0,065
-85,928	72,765	-0,105	-0,079
-84,913	-200,000	-0,008	-0,068
-83,899	800,000	-0,009	-0,022
-82,884	-147,718	-0,056	-0,003
-81,870	-200,000	0,035	0,166
-80,855	599,556	0,040	0,072
-79,840	800,000	0,008	0,024
-78,826	800,000	-0,036	0,076
-77,811	78,666	-0,037	-0,028
-76,797	-200,000	0,037	0,163
-75,782	-33,243	0,145	0,058
-74,767	-130,484	-0,022	0,002
-73,753	332,448	0,094	0,131
-72,738	302,070	-0,027	0,036
-71,724	300,574	-0,058	-0,077
-70,709	-200,000	0,008	0,058
-69,694	800,000	0,013	0,033
-68,680	115,643	0,106	0,093
-67,665	127,957	0,084	-0,077
-66,651	-200,000	-0,041	0,168
-65,636	-38,928	0,110	0,041
-64,622	-200,000	-0,026	-0,188
-63,607	190,605	-0,050	0,054
-62,592	800,000	-0,059	0,143
-61,578	201,533	0,020	0,022
-60,563	-134,195	0,076	-0,007
-59,549	-200,000	0,003	0,120
-58,534	56,077	-2,320	-1,613
-57,519	-200,000	0,057	-0,579
-56,505	-200,000	-1,527	-5,227
-55,490	125,419	0,944	0,854
-54,476	800,000	5,492	12,199
-53,461	-200,000	19,787	325,467
-52,446	800,000	751,683	2316,879
-51,432	538,555	1661,750	2844,076
-50,417	115,916	1638,359	1437,580
-49,403	85,582	1285,712	1012,120
-48,388	31,133	1026,039	629,641
-47,373	19,973	989,182	570,246
-46,359	16,106	977,076	550,565
-45,344	12,384	973,669	536,419
-44,330	12,938	971,669	537,111
-43,315	12,008	969,613	532,914
-42,300	11,917	968,679	532,082
-41,286	11,925	967,865	531,640
-40,271	11,975	966,741	531,165
-39,257	11,868	966,149	530,469
-38,242	11,905	965,271	530,087
-37,227	11,867	964,172	529,338
-36,213	11,908	963,389	529,021
-35,198	11,898	962,391	528,418
-34,184	11,948	961,609	528,131
-33,169	11,897	960,909	527,559
-32,154	11,917	959,902	527,051
-31,140	12,012	958,880	526,776
-30,125	11,940	958,332	526,222
-29,111	11,962	957,333	525,722
-28,096	11,951	956,959	525,461
-27,082	12,023	955,970	525,128
-26,067	11,951	955,311	524,516
-25,052	11,979	954,415	524,091
-24,038	11,900	953,862	523,514
-23,023	11,888	953,206	523,094
-22,009	11,970	952,643	523,027
-20,994	11,920	952,056	522,523
-19,979	11,909	951,549	522,189
-18,965	11,923	950,620	521,704
-17,950	11,951	950,144	521,512
-16,936	11,883	949,685	521,022
-15,921	11,863	948,813	520,458
-14,906	11,838	948,098	519,965
-13,892	11,839	947,521	519,633
-12,877	11,775	946,893	519,062
-11,863	11,768	946,149	518,611
-10,848	11,819	945,606	518,455
-9,833	11,880	945,166	518,390
-8,819	11,878	944,520	518,009
-7,804	11,861	943,645	517,453
-6,790	11,851	943,183	517,148
-5,775	11,799	942,769	516,734
-4,760	11,914	942,054	516,688
-3,746	11,835	941,507	516,117
-2,731	11,682	940,751	515,195
-1,717	11,683	940,075	514,810
-0,702	11,666	939,474	514,405
0,313	11,479	938,889	514,269
1,327	15,097	936,514	524,338
2,342	24,400	788,390	465,926
3,356	19,862	454,397	261,630
4,371	-8,125	313,947	150,986
5,386	-12,265	295,993	138,147
6,400	-14,372	289,853	133,178
7,415	-14,491	287,670	132,046
8,429	-14,571	286,029	131,203
9,444	-14,646	285,033	130,661
10,459	-14,396	284,469	130,635
11,473	-14,423	283,738	130,261
12,488	-14,509	283,233	129,934
13,502	-14,604	282,947	129,699
14,517	-14,393	282,402	129,642
15,531	-14,008	282,021	129,827
16,546	-13,911	281,722	129,771
17,561	-13,854	281,214	129,581
18,575	-13,868	281,155	129,529
19,590	-13,923	280,710	129,258
20,604	-13,803	280,440	129,238
21,619	-13,907	280,032	128,939
22,634	-13,776	279,594	128,851
23,648	-13,805	279,234	128,646
24,663	-13,880	279,064	128,485
25,677	-13,900	278,954	128,404
26,692	-13,846	278,633	128,296
27,707	-13,799	278,296	128,174
28,721	-13,789	277,914	127,996
29,736	-13,909	277,595	127,724
30,750	-13,897	277,522	127,691
31,765	-13,934	277,236	127,512
32,780	-13,710	276,932	127,573
33,794	-13,727	276,667	127,423
34,809	-13,888	276,392	127,134
35,823	-13,755	276,137	127,131
36,838	-13,917	275,893	126,854
37,853	-13,812	275,549	126,783
38,867	-13,848	275,332	126,638
39,882	-13,648	275,131	126,722
40,896	-13,720	274,768	126,476
41,911	-13,912	274,573	126,196
42,926	-13,893	274,441	126,141
43,940	-14,023	274,136	125,868
44,955	-13,760	273,978	126,030
45,969	-13,790	273,646	125,838
46,984	-13,870	273,607	125,735
47,999	-13,878	273,404	125,622
49,013	-13,770	273,142	125,592
50,028	-13,827	272,715	125,331
51,042	-13,916	272,705	125,233
52,057	-14,009	272,506	125,043
53,071	-13,979	272,255	124,945
54,086	-13,881	271,872	124,849
55,101	-13,716	271,674	124,899
56,115	-13,867	271,450	124,646
57,130	-13,851	271,273	124,568
58,144	-13,961	270,989	124,325
59,159	-13,907	270,666	124,216
60,174	-13,959	270,491	124,076
61,188	-13,960	270,215	123,938
62,203	-14,046	270,071	123,781
63,217	-13,905	269,899	123,821
64,232	-13,945	269,696	123,680
65,247	-13,853	269,275	123,560
66,261	-14,062	269,108	123,281
67,276	-14,030	268,838	123,176
68,290	-13,922	268,712	123,206
69,305	-13,830	268,395	123,134
70,320	-13,888	268,180	122,971
71,334	-13,922	267,974	122,835
72,349	-13,983	267,816	122,696
73,363	-14,010	267,515	122,522
74,378	-14,209	267,354	122,257
75,393	-14,030	267,170	122,324
76,407	-14,015	266,900	122,204
77,422	-13,903	266,734	122,218
78,436	-13,776	266,472	122,202
79,451	-13,893	266,162	121,944
80,466	-13,909	265,863	121,782
81,480	-13,833	265,840	121,828
82,495	-13,709	265,598	121,819
83,509	-13,829	265,390	121,604
84,524	-14,068	265,259	121,317
85,539	-13,842	264,826	121,312
86,553	-13,870	264,759	121,246
87,568	-13,735	264,482	121,230
88,582	-13,957	264,326	120,947
89,597	-13,711	264,026	121,020
90,611	-13,906	263,976	120,811
91,626	-13,991	263,720	120,607
92,641	-13,944	263,432	120,507
93,655	-13,718	263,317	120,646
94,670	-13,899	263,020	120,337
95,684	-13,954	262,853	120,201
96,699	-13,925	262,669	120,132
97,714	-13,914	262,509	120,058
98,728	-13,882	262,302	119,981
99,743	-13,730	262,048	119,989
100,757	-13,874	261,915	119,790
101,772	-14,048	261,671	119,513
102,787	-13,997	261,394	119,421
103,801	-13,720	261,146	119,542
104,816	-13,982	261,042	119,252
105,830	-13,962	260,828	119,161
106,845	-13,877	260,519	119,085
107,860	-13,932	260,367	118,956
108,874	-13,939	260,125	118,829
109,889	-13,968	259,989	118,731
110,903	-14,003	259,758	118,584
111,918	-14,159	259,730	118,423
112,933	-14,065	259,403	118,346
113,947	-13,836	259,209	118,448
114,962	-13,962	259,002	118,232
115,976	-13,889	258,703	118,149
116,991	-13,930	258,440	117,983
118,006	-13,891	258,336	117,959
119,020	-13,884	258,281	117,929
120,035	-13,964	258,134	117,782
121,049	-13,887	257,941	117,750
122,064	-13,874	257,708	117,645
123,079	-13,983	257,633	117,505
124,093	-13,865	257,335	117,462
125,108	-13,769	256,964	117,365
126,122	-13,935	257,124	117,283
127,137	-13,810	256,838	117,251
128,151	-13,798	256,601	117,143
129,166	-13,979	256,369	116,870
130,181	-13,805	256,020	116,851
131,195	-13,940	255,941	116,688
132,210	-13,811	255,748	116,701
133,224	-13,743	255,400	116,590
134,239	-13,831	255,302	116,459
135,254	-14,043	255,068	116,159
136,268	-13,940	254,851	116,139
137,283	-14,002	254,764	116,035
138,297	-13,831	254,426	116,018
139,312	-13,944	254,282	115,845
140,327	-13,977	254,129	115,737
141,341	-14,038	254,077	115,650
142,356	-13,986	253,673	115,501
143,370	-14,043	253,592	115,404
144,385	-13,961	253,485	115,416
145,400	-13,853	253,201	115,369
146,414	-13,714	252,878	115,330
147,429	-13,907	252,969	115,196
148,443	-13,883	252,733	115,098
149,458	-14,021	252,405	114,822
150,473	-13,951	252,233	114,793
151,487	-14,051	252,080	114,628
152,502	-13,734	251,825	114,771
153,516	-13,765	251,714	114,684
154,531	-13,830	251,427	114,488
155,546	-13,848	251,276	114,393
156,560	-13,823	251,231	114,385
157,575	-13,994	250,965	114,108
158,589	-13,985	250,669	113,970
159,604	-14,039	250,617	113,891
160,619	-13,847	250,433	113,959
161,633	-13,905	250,273	113,828
162,648	-13,757	250,171	113,897
163,662	-14,056	249,809	113,469
164,677	-13,970	249,741	113,501
165,692	-13,903	249,573	113,471
166,706	-13,849	249,419	113,436
167,721	-13,899	249,195	113,282
168,735	-13,814	249,111	113,306
169,750	-13,892	248,806	113,091
170,764	-13,947	248,804	113,034
171,779	-14,095	248,604	112,808
172,794	-14,029	248,524	112,818
173,808	-13,867	248,260	112,823
174,823	-13,889	247,974	112,664
175,837	-13,799	247,866	112,681
176,852	-14,053	247,723	112,393
177,867	-13,813	247,553	112,507
178,881	-13,999	247,308	112,231
179,896	-13,801	247,035	112,262
180,910	-13,840	246,979	112,193
181,925	-13,956	246,701	111,961
182,940	-13,945	246,585	111,907
183,954	-13,872	246,478	111,909
184,969	-13,785	246,274	111,879
185,983	-13,754	246,276	111,896
186,998	-13,815	246,041	111,728
188,013	-13,871	245,686	111,511
189,027	-13,998	245,726	111,414
190,042	-13,939	245,254	111,239
191,056	-14,182	245,111	110,964
192,071	-14,024	244,972	111,021
193,086	-14,156	244,713	110,785
194,100	-14,138	244,608	110,742
195,115	-13,818	244,431	110,915
196,129	-13,812	244,224	110,817
197,144	-13,885	244,016	110,653
198,159	-14,033	243,852	110,447
199,173	-14,055	243,646	110,325
200,188	-14,094	243,359	110,154
201,202	-14,261	243,373	110,014
202,217	-13,869	243,188	110,241
203,232	-13,949	243,017	110,088
204,246	-14,339	242,767	109,646
205,261	-15,194	242,046	108,614
206,275	-14,775	242,099	108,970
207,290	-10,851	243,852	112,967
208,304	-3,694	245,957	119,840
209,319	0,224	247,231	123,691
210,334	1,524	247,442	124,860
211,348	1,927	247,571	125,246
212,363	2,395	247,522	125,597
213,377	3,081	247,387	126,083
214,392	3,324	247,436	126,298
215,407	3,238	247,277	126,134
216,421	3,303	247,108	126,091
217,436	3,556	246,934	126,198
218,450	3,246	246,802	125,864
219,465	3,163	246,437	125,600
220,480	3,078	246,292	125,444
221,494	2,832	246,188	125,179
222,509	2,714	245,732	124,839
223,523	2,284	245,683	124,451
224,538	2,058	245,393	124,108
225,553	2,091	245,156	124,004
226,567	1,952	244,889	123,744
227,582	2,105	244,829	123,828
228,596	1,982	244,656	123,629
229,611	2,065	244,531	123,622
230,626	2,027	244,306	123,467
231,640	2,137	244,204	123,493
232,655	2,124	243,899	123,318
233,669	2,082	243,794	123,220
234,684	1,968	243,561	122,998
235,699	1,920	243,606	122,971
236,713	2,196	243,456	123,109
237,728	2,045	243,268	122,880
238,742	2,217	243,043	122,895
239,757	2,166	242,904	122,772
240,772	2,162	242,599	122,604
241,786	1,950	242,537	122,391
242,801	2,102	242,401	122,433
243,815	2,104	242,344	122,395
244,830	2,008	242,317	122,293
245,844	1,955	241,989	122,074
246,859	1,999	241,763	121,984
247,874	2,202	241,660	122,085
248,888	2,030	241,495	121,852
249,903	2,125	241,323	121,831
250,917	2,191	241,228	121,826
251,932	2,256	241,138	121,822
252,947	2,434	240,880	121,823
253,961	2,327	240,616	121,593
254,976	2,107	240,595	121,395
255,990	2,340	240,388	121,466
257,005	2,236	240,260	121,307
258,020	2,204	240,093	121,187
259,034	2,171	240,007	121,106
260,049	2,258	239,709	121,015
261,063	2,290	239,467	120,907
262,078	2,266	239,338	120,811
263,093	2,162	239,312	120,705
264,107	2,228	239,132	120,657
265,122	2,110	238,999	120,484
266,136	2,173	238,977	120,513
267,151	2,200	238,660	120,364
268,166	2,194	238,583	120,309
269,180	2,054	238,345	120,068
270,195	1,891	238,329	119,920
271,209	2,211	238,170	120,083
272,224	2,321	237,886	120,015
273,239	1,926	237,735	119,616
274,253	2,179	237,635	119,755
275,268	1,995	237,464	119,513
276,282	2,091	237,224	119,458
277,297	2,056	237,114	119,364
278,312	2,187	237,038	119,418
279,326	2,278	236,838	119,378
280,341	2,198	236,761	119,266
281,355	1,906	236,617	118,953
282,370	2,214	236,349	119,049
283,384	2,148	236,229	118,927
284,399	1,884	236,181	118,685
285,414	2,043	235,853	118,635
286,428	2,098	235,900	118,690
287,443	2,058	235,647	118,521
288,457	2,243	235,556	118,610
289,472	2,332	235,230	118,504
290,487	2,172	235,108	118,307
291,501	2,060	234,902	118,106
292,516	2,026	234,938	118,087
293,530	2,072	234,827	118,056
294,545	2,098	234,604	117,954
295,560	2,265	234,383	117,962
296,574	2,078	234,250	117,740
297,589	2,156	234,097	117,713
298,603	2,187	234,018	117,686
299,618	2,110	233,924	117,569
300,633	2,029	233,715	117,391
301,647	2,312	233,523	117,503
302,662	2,236	233,473	117,408
303,676	2,464	233,304	117,489
304,691	2,452	233,125	117,379
305,706	2,387	233,018	117,265
306,720	2,362	232,909	117,180
307,735	2,420	232,694	117,106
308,749	2,326	232,486	116,919
309,764	2,199	232,386	116,760
310,779	2,255	232,144	116,671
311,793	2,090	232,032	116,478
312,808	2,264	231,957	116,564
313,822	2,499	231,749	116,629
314,837	2,264	231,684	116,405
315,852	2,434	231,526	116,446
316,866	2,535	231,336	116,417
317,881	2,527	231,134	116,299
318,895	2,296	230,933	116,011
319,910	2,370	230,773	115,977
320,925	2,340	230,656	115,885
321,939	2,083	230,472	115,586
322,954	2,276	230,407	115,690
323,968	2,382	230,236	115,674
324,983	2,173	230,107	115,440
325,997	2,512	229,968	115,618
327,012	2,308	229,881	115,410
328,027	2,320	229,584	115,259
329,041	2,518	229,514	115,363
330,056	2,393	229,507	115,255
331,070	2,463	229,274	115,181
332,085	2,401	229,097	115,035
333,100	2,240	228,856	114,782
334,114	2,291	228,630	114,697
335,129	2,166	228,646	114,600
336,143	2,069	228,447	114,417
337,158	2,434	228,279	114,598
338,173	2,573	228,248	114,677
339,187	2,558	227,987	114,524
340,202	2,253	227,911	114,246
341,216	2,333	227,659	114,170
342,231	2,328	227,583	114,118
343,246	2,623	227,289	114,181
344,260	2,514	227,282	114,086
345,275	2,196	227,226	113,809
346,289	2,341	226,952	113,770
347,304	2,330	226,945	113,749
348,319	2,440	226,687	113,691
349,333	2,429	226,500	113,580
350,348	2,271	226,376	113,389
351,362	2,346	226,316	113,404
352,377	2,223	226,172	113,231
353,392	2,300	226,148	113,266
354,406	2,451	225,956	113,272
355,421	193,718	1316,904	1386,381
356,435	155,226	1449,749	1386,297
