DTS Sentinel unit serial number:	SN410029Multiplexer serial number:	ORYXHardware model number:	OX2-SRSoftware version number:	ORYX F/W v4,00 Oryx Data Collector v3.7.2.0data status	okinstallation	B5 Nyhavnadifferential loss correction	single-endedforward channel	channel 2reverse channel	N/Adate	2023/12/14time	10:22:13forward acquisition time	300,00reverse acquisition time	0,00gamma	499,1914k internal	0,3161k external	0,3161temperature offset calibration	1,0000default loss term (dB/km)	0,3820temperature slope calibration	1,0000multiplexer offset coefficient	1,0000multiplexer slope coefficient	1,0000fibre end	0,00T internal ref (°C)	6,90T ext. ref 1 (°C)	-8,98T ext. ref 2 (°C)	-9,11length (m)	temperature (°C)	Stokes	anti-Stokes-744,400	-84,671	0,210	-0,048
-743,385	-21,716	-0,451	-0,202
-742,371	-200,000	0,017	0,078
-741,356	33,130	-0,377	-0,240
-740,342	-51,179	0,159	0,055
-739,327	-44,224	-0,418	-0,154
-738,312	-200,000	0,016	0,185
-737,298	2,487	-0,479	-0,255
-736,283	52,189	0,209	0,146
-735,269	-76,512	-0,330	-0,085
-734,254	-197,915	0,250	0,001
-733,239	-51,967	-0,615	-0,209
-732,225	347,572	0,145	0,210
-731,210	-200,000	-0,016	0,113
-730,196	102,430	-0,019	-0,016
-729,181	800,000	-0,053	0,168
-728,167	-16,453	0,114	-0,053
-727,152	756,074	0,021	0,042
-726,137	495,415	0,015	0,025
-725,123	-200,000	0,004	0,029
-724,108	800,000	-0,026	0,058
-723,094	-200,000	0,005	-0,043
-722,079	-200,000	-0,016	-0,105
-721,064	481,107	0,041	-0,068
-720,050	-160,302	-0,025	-0,001
-719,035	157,875	-0,038	0,039
-718,021	-200,000	0,006	0,073
-717,006	-52,761	0,056	-0,019
-715,991	-200,000	0,020	0,098
-714,977	-46,891	-0,084	0,030
-713,962	777,341	-0,027	-0,054
-712,948	309,683	-0,042	0,057
-711,933	666,411	-0,044	-0,084
-710,918	-200,000	-0,002	0,051
-709,904	74,722	0,086	0,067
-708,889	412,899	-0,062	-0,097
-707,875	421,924	-0,036	-0,057
-706,860	-91,137	0,110	-0,023
-705,845	-200,000	-0,004	0,074
-704,831	800,000	-0,012	-0,036
-703,816	244,519	-0,043	0,053
-702,802	237,107	0,069	0,084
-701,787	185,256	-0,021	0,023
-700,772	-200,000	-0,014	-0,236
-699,758	544,393	0,049	-0,086
-698,743	-200,000	-0,023	0,087
-697,729	85,550	-0,072	0,058
-696,714	-98,397	-0,111	0,021
-695,699	-125,069	-0,093	-0,010
-694,685	94,716	-0,084	0,070
-693,670	347,927	0,024	-0,035
-692,656	-98,751	-0,073	-0,014
-691,641	-191,985	0,107	0,001
-690,627	18,932	-0,116	0,068
-689,612	-166,804	-0,080	-0,002
-688,597	244,251	0,075	-0,093
-687,583	-123,928	0,019	0,002
-686,568	182,792	0,057	-0,062
-685,554	20,507	-0,139	-0,082
-684,539	-34,262	0,060	0,024
-683,524	-80,481	0,044	-0,011
-682,510	80,938	-0,121	-0,096
-681,495	239,808	-0,010	-0,013
-680,481	-200,000	0,003	-0,054
-679,466	-22,661	-0,160	-0,071
-678,451	-161,738	-0,075	-0,003
-677,437	-176,798	-0,076	0,001
-676,422	-167,999	0,098	0,003
-675,408	18,936	0,038	-0,022
-674,393	-118,016	-0,045	-0,006
-673,378	-79,114	-0,061	0,015
-672,364	55,555	-0,036	-0,025
-671,349	-41,759	0,066	-0,025
-670,335	800,000	-0,033	0,085
-669,320	-89,751	0,035	0,008
-668,305	800,000	0,038	0,107
-667,291	98,900	0,037	0,032
-666,276	-134,129	-0,240	-0,021
-665,262	229,449	-0,091	-0,109
-664,247	-88,220	0,096	-0,021
-663,232	800,000	-0,036	0,089
-662,218	-33,500	0,069	0,028
-661,203	230,096	-0,070	0,084
-660,189	-9,154	0,148	0,073
-659,174	21,086	-0,178	-0,106
-658,159	298,829	0,063	-0,085
-657,145	-158,100	-0,215	-0,009
-656,130	-111,029	0,123	0,018
-655,116	-200,000	-0,058	0,188
-654,101	-26,649	0,114	0,049
-653,086	-67,538	-0,053	-0,015
-652,072	131,875	0,047	-0,044
-651,057	170,094	-0,160	-0,168
-650,043	-2,177	0,074	0,038
-649,028	282,859	0,063	0,084
-648,014	-108,964	0,049	0,008
-646,999	584,070	-0,094	0,170
-645,984	-200,000	-0,020	0,083
-644,970	-118,003	-0,065	-0,008
-643,955	800,000	0,072	0,155
-642,941	-200,000	-0,021	-0,084
-641,926	10,345	-0,042	0,024
-640,911	261,469	0,040	-0,052
-639,897	-200,000	-0,002	0,008
-638,882	800,000	0,052	0,120
-637,868	-88,099	0,078	0,017
-636,853	800,000	-0,051	-0,113
-635,838	-200,000	-0,029	0,124
-634,824	209,241	-0,115	0,133
-633,809	-96,776	0,160	0,030
-632,795	97,115	-0,062	-0,052
-631,780	269,381	0,029	0,038
-630,765	-200,000	-0,034	-0,123
-629,751	12,530	-0,023	-0,013
-628,736	-83,936	-0,226	-0,052
-627,722	629,791	0,042	-0,078
-626,707	-200,000	0,015	0,083
-625,692	788,586	-0,032	0,065
-624,678	170,886	0,059	0,062
-623,663	112,461	0,029	-0,025
-622,649	-19,145	-0,146	-0,066
-621,634	59,390	-0,029	0,021
-620,619	-200,000	0,028	0,099
-619,605	-27,360	0,042	-0,018
-618,590	-200,000	-0,004	-0,047
-617,576	-200,000	0,002	-0,020
-616,561	5,115	-0,058	0,031
-615,546	-21,589	-0,100	0,045
-614,532	-154,310	-0,156	0,008
-613,517	-37,530	-0,084	0,033
-612,503	-200,000	0,012	-0,051
-611,488	-200,000	0,006	0,093
-610,474	-200,000	0,028	-0,160
-609,459	-143,082	-0,027	-0,002
-608,444	-200,000	-0,008	0,057
-607,430	-82,947	-0,152	-0,036
-606,415	-200,000	0,019	-0,098
-605,401	-200,000	0,013	0,046
-604,386	237,409	0,027	0,033
-603,371	-60,538	0,036	0,011
-602,357	47,755	-0,069	0,047
-601,342	111,707	-0,034	-0,030
-600,328	800,000	-0,035	-0,108
-599,313	-200,000	-0,015	-0,111
-598,298	800,000	-0,019	-0,059
-597,284	-200,000	0,021	0,081
-596,269	-69,686	0,058	-0,016
-595,255	32,502	-0,027	-0,017
-594,240	-5,255	-0,073	-0,037
-593,225	800,000	0,040	-0,089
-592,211	-27,192	0,049	0,021
-591,196	800,000	0,012	0,026
-590,182	323,930	0,073	0,103
-589,167	85,952	-0,130	-0,105
-588,152	-58,539	0,029	-0,009
-587,138	-122,651	-0,078	0,009
-586,123	-91,577	0,076	-0,016
-585,109	72,771	-0,033	-0,025
-584,094	800,000	0,044	0,118
-583,079	65,985	-0,058	0,043
-582,065	0,972	0,033	0,017
-581,050	-200,000	-0,004	0,166
-580,036	-200,000	0,000	-0,034
-579,021	93,079	-0,076	-0,063
-578,006	131,470	-0,151	-0,142
-576,992	-200,000	-0,004	-0,065
-575,977	460,969	0,058	-0,095
-574,963	323,742	-0,017	0,024
-573,948	-200,000	-0,014	0,104
-572,934	800,000	-0,043	-0,106
-571,919	333,706	-0,027	-0,038
-570,904	800,000	0,021	-0,054
-569,890	-78,949	0,058	-0,014
-568,875	421,376	0,063	0,099
-567,861	-200,000	0,012	0,068
-566,846	-144,879	0,142	-0,009
-565,831	-62,644	-0,085	0,026
-564,817	-200,000	0,040	-0,237
-563,802	-95,393	-0,100	-0,020
-562,788	360,469	-0,037	-0,055
-561,773	61,035	-0,085	0,062
-560,758	-53,067	-0,064	-0,021
-559,744	3,836	0,139	-0,074
-558,729	-67,461	-0,085	-0,024
-557,715	-200,000	-0,001	-0,018
-556,700	-121,910	-0,149	-0,018
-555,685	229,681	0,115	-0,137
-554,671	517,270	0,032	0,055
-553,656	-151,970	0,113	-0,006
-552,642	-200,000	0,046	-0,151
-551,627	-116,057	0,083	0,011
-550,612	-103,062	-0,049	0,008
-549,598	79,414	-0,063	0,050
-548,583	-98,703	0,181	0,033
-547,569	207,085	-0,040	-0,045
-546,554	-200,000	0,023	0,075
-545,539	-127,235	0,025	-0,003
-544,525	241,623	-0,097	0,119
-543,510	-200,000	0,003	-0,095
-542,496	-131,507	0,047	0,004
-541,481	-194,349	-0,116	-0,001
-540,466	-200,000	0,008	-0,081
-539,452	-46,506	-0,103	0,037
-538,437	422,581	-0,039	-0,061
-537,423	-186,621	-0,151	-0,002
-536,408	-200,000	-0,006	-0,103
-535,393	-112,892	-0,149	-0,021
-534,379	296,649	-0,080	-0,108
-533,364	20,570	0,027	0,016
-532,350	-70,589	0,036	0,010
-531,335	800,000	-0,034	-0,099
-530,321	-200,000	0,016	0,073
-529,306	310,584	0,067	0,092
-528,291	-133,545	-0,196	-0,018
-527,277	64,992	-0,186	-0,137
-526,262	28,802	0,095	0,058
-525,248	-200,000	0,003	0,075
-524,233	-96,143	0,090	-0,017
-523,218	37,495	0,117	-0,076
-522,204	525,695	-0,074	0,127
-521,189	42,915	-0,088	0,058
-520,175	-160,854	0,024	0,001
-519,160	-88,612	-0,102	-0,022
-518,145	-187,474	0,086	-0,001
-517,131	800,000	-0,007	-0,014
-516,116	197,995	-0,035	0,039
-515,102	-18,611	0,091	-0,041
-514,087	421,644	-0,050	-0,079
-513,072	246,271	-0,095	0,117
-512,058	-200,000	0,011	0,048
-511,043	279,516	0,044	0,057
-510,029	-200,000	-0,048	0,224
-509,014	252,103	-0,087	-0,108
-507,999	-76,243	0,015	0,004
-506,985	68,419	-0,092	0,069
-505,970	384,564	-0,052	0,079
-504,956	99,572	-0,022	-0,018
-503,941	-200,000	-0,049	0,161
-502,926	-200,000	-0,021	0,112
-501,912	204,261	0,124	-0,141
-500,897	451,870	-0,083	0,135
-499,883	193,364	-0,057	0,063
-498,868	800,000	0,049	-0,107
-497,853	80,421	-0,079	-0,062
-496,839	-200,000	0,001	0,008
-495,824	-200,000	0,032	0,140
-494,810	-200,000	0,014	0,094
-493,795	-40,375	-0,123	0,046
-492,781	-200,000	-0,023	-0,080
-491,766	110,034	-0,119	-0,104
-490,751	800,000	-0,020	-0,051
-489,737	-102,975	-0,066	0,011
-488,722	30,250	0,123	0,076
-487,708	-200,000	-0,006	0,129
-486,693	-59,633	-0,120	0,037
-485,678	-55,107	-0,218	-0,071
-484,664	-200,000	-0,009	-0,062
-483,649	133,313	-0,125	-0,118
-482,635	324,138	-0,041	0,057
-481,620	-98,517	0,118	0,022
-480,605	-200,000	0,001	0,085
-479,591	24,534	0,029	0,017
-478,576	384,983	0,017	0,026
-477,562	-87,361	-0,048	-0,011
-476,547	260,292	-0,107	-0,136
-475,532	-14,242	0,058	-0,027
-474,518	107,352	0,023	-0,020
-473,503	-200,000	0,024	0,229
-472,489	92,689	-0,036	0,030
-471,474	-11,266	0,081	-0,039
-470,459	-200,000	-0,026	0,136
-469,445	-200,000	-0,006	0,038
-468,430	-200,000	-0,003	-0,079
-467,416	7,116	-0,082	0,044
-466,401	-26,060	0,086	0,037
-465,386	21,264	-0,022	0,013
-464,372	800,000	0,033	-0,077
-463,357	-29,986	-0,083	0,034
-462,343	461,676	0,070	-0,114
-461,328	14,777	-0,082	-0,046
-460,313	352,622	-0,041	-0,059
-459,299	-200,000	0,040	0,000
-458,284	435,663	-0,084	0,133
-457,270	120,069	-0,051	0,046
-456,255	-200,000	-0,009	-0,033
-455,241	730,934	-0,025	-0,048
-454,226	413,385	0,015	-0,023
-453,211	-125,977	-0,177	0,019
-452,197	-200,000	-0,015	-0,124
-451,182	-200,000	0,023	-0,147
-450,168	-200,000	0,019	0,103
-449,153	-39,578	-0,043	-0,016
-448,138	-200,000	-0,007	-0,070
-447,124	185,178	-0,012	0,013
-446,109	-74,058	0,074	-0,019
-445,095	-200,000	0,002	0,088
-444,080	-200,000	0,006	0,121
-443,065	568,615	0,055	0,098
-442,051	800,000	-0,013	0,031
-441,036	-200,000	0,004	-0,062
-440,022	2,851	0,031	-0,017
-439,007	-200,000	-0,005	-0,036
-437,992	178,377	0,028	-0,029
-436,978	68,643	0,136	-0,102
-435,963	43,451	-0,090	-0,060
-434,949	-10,075	0,113	-0,055
-433,934	-113,789	0,083	-0,012
-432,919	-200,000	-0,018	-0,094
-431,905	130,498	0,098	0,091
-430,890	12,323	0,179	-0,100
-429,876	-200,000	-0,010	0,072
-428,861	131,618	0,059	0,055
-427,846	-1,865	0,086	0,044
-426,832	295,102	-0,017	-0,023
-425,817	79,996	-0,093	-0,073
-424,803	80,073	-0,014	0,011
-423,788	-139,619	-0,057	-0,004
-422,773	-76,348	-0,094	0,024
-421,759	196,791	0,081	0,090
-420,744	-200,000	-0,014	-0,130
-419,730	6,052	-0,042	-0,023
-418,715	-55,274	0,100	-0,032
-417,701	-132,046	-0,147	0,014
-416,686	9,236	0,056	0,031
-415,671	-159,419	0,103	0,004
-414,657	-68,490	-0,015	-0,004
-413,642	226,216	0,030	0,036
-412,628	100,414	-0,061	-0,052
-411,613	44,339	-0,147	-0,098
-410,598	-112,253	-0,075	0,011
-409,584	160,209	0,152	0,155
-408,569	8,319	-0,035	-0,019
-407,555	800,000	-0,063	0,143
-406,540	800,000	-0,008	0,023
-405,525	-111,143	0,073	-0,011
-404,511	-42,287	-0,146	0,054
-403,496	8,695	0,011	-0,006
-402,482	70,177	-0,112	-0,084
-401,467	-113,779	0,236	0,033
-400,452	171,213	-0,075	0,078
-399,438	-200,000	-0,001	0,024
-398,423	-200,000	0,000	-0,046
-397,409	-200,000	-0,019	-0,083
-396,394	-110,615	0,043	-0,006
-395,379	38,092	-0,058	0,037
-394,365	-200,000	-0,004	-0,051
-393,350	-200,000	0,018	0,063
-392,336	-55,776	0,017	-0,005
-391,321	-18,604	-0,004	0,002
-390,306	-151,844	0,053	-0,003
-389,292	51,014	-0,086	-0,059
-388,277	-200,000	-0,005	-0,070
-387,263	160,658	0,060	0,061
-386,248	40,281	-0,097	0,064
-385,233	-200,000	-0,019	-0,097
-384,219	525,486	0,028	0,049
-383,204	92,635	0,055	0,045
-382,190	800,000	-0,046	-0,120
-381,175	684,358	-0,068	-0,130
-380,160	21,777	0,209	-0,123
-379,146	800,000	-0,027	-0,084
-378,131	-200,000	0,019	0,073
-377,117	-161,283	0,128	0,005
-376,102	61,493	0,063	0,045
-375,088	-200,000	-0,003	-0,259
-374,073	243,470	0,066	0,080
-373,058	118,868	-0,079	-0,071
-372,044	131,508	0,102	0,096
-371,029	-143,696	0,035	0,002
-370,015	800,000	-0,015	0,032
-369,000	258,930	-0,066	-0,083
-367,985	-200,000	-0,000	-0,010
-366,971	-116,527	-0,042	0,006
-365,956	-142,533	-0,204	0,014
-364,942	-49,587	0,115	-0,040
-363,927	-200,000	0,026	0,086
-362,912	-1,089	-0,074	0,038
-361,898	267,505	-0,111	-0,141
-360,883	6,330	0,157	0,084
-359,869	-36,387	0,097	-0,038
-358,854	-200,000	-0,024	-0,108
-357,839	60,887	0,120	0,086
-356,825	126,732	-0,114	0,105
-355,810	-90,581	0,015	0,003
-354,796	33,694	-0,052	-0,033
-353,781	800,000	0,027	-0,080
-352,766	-200,000	-0,027	-0,169
-351,752	-33,427	-0,065	-0,026
-350,737	380,995	0,057	0,085
-349,723	242,744	0,116	0,141
-348,708	167,385	0,056	0,058
-347,693	502,848	-0,076	0,128
-346,679	-144,006	-0,201	-0,014
-345,664	-97,480	-0,015	-0,003
-344,650	800,000	0,028	0,087
-343,635	-200,000	0,005	0,109
-342,620	269,799	-0,027	0,035
-341,606	-65,519	0,111	0,032
-340,591	499,190	0,050	-0,084
-339,577	-200,000	-0,010	-0,106
-338,562	286,882	0,010	-0,013
-337,548	-125,809	-0,143	-0,016
-336,533	-92,516	0,033	-0,007
-335,518	-200,000	0,005	0,116
-334,504	800,000	-0,001	0,003
-333,489	-200,000	0,057	0,209
-332,475	-61,378	-0,074	0,022
-331,460	-200,000	-0,031	0,138
-330,445	-64,694	-0,157	-0,046
-329,431	-200,000	0,008	0,027
-328,416	-200,000	-0,011	0,036
-327,402	-200,000	0,016	0,100
-326,387	-200,000	-0,027	-0,108
-325,372	247,470	-0,047	-0,058
-324,358	289,928	-0,027	-0,035
-323,343	-200,000	0,002	0,099
-322,329	110,750	0,062	-0,054
-321,314	11,869	0,121	-0,067
-320,299	-200,000	0,006	-0,054
-319,285	-38,442	0,068	0,026
-318,270	144,118	0,022	-0,021
-317,256	91,750	-0,038	0,031
-316,241	193,726	-0,059	-0,064
-315,226	-200,000	0,005	-0,036
-314,212	-34,885	0,063	0,025
-313,197	-21,661	-0,059	0,026
-312,183	-98,702	0,120	0,022
-311,168	-200,000	0,000	-0,004
-310,153	-146,933	-0,050	-0,003
-309,139	-75,100	0,060	-0,015
-308,124	-31,440	0,147	-0,060
-307,110	-38,029	0,077	0,029
-306,095	133,403	0,054	0,051
-305,080	-200,000	-0,039	0,131
-304,066	-147,956	-0,107	0,006
-303,051	-40,519	-0,050	-0,019
-302,037	76,448	-0,086	0,066
-301,022	-116,880	0,088	-0,012
-300,008	3,509	0,204	0,107
-298,993	-148,357	-0,114	-0,007
-297,978	-48,556	-0,057	-0,020
-296,964	214,083	-0,127	-0,145
-295,949	800,000	0,034	-0,083
-294,935	164,180	-0,129	-0,132
-293,920	122,880	0,057	0,052
-292,905	65,111	0,030	-0,022
-291,891	356,493	0,024	-0,035
-290,876	-32,126	0,007	0,003
-289,862	-62,602	0,223	0,067
-288,847	-200,000	-0,034	0,128
-287,832	-54,811	0,101	-0,033
-286,818	251,563	0,110	-0,135
-285,803	-125,490	-0,041	0,004
-284,789	315,580	-0,020	0,027
-283,774	53,787	0,088	-0,061
-282,759	93,156	0,095	0,078
-281,745	-200,000	0,001	-0,031
-280,730	-200,000	-0,013	0,089
-279,716	-21,288	0,116	0,051
-278,701	-115,181	0,031	0,004
-277,686	644,856	0,070	0,129
-276,672	653,581	-0,065	0,121
-275,657	-75,419	-0,054	-0,014
-274,643	54,989	0,099	-0,069
-273,628	800,000	-0,063	-0,134
-272,613	-200,000	0,050	-0,167
-271,599	-25,202	0,091	-0,039
-270,584	-200,000	0,037	-0,151
-269,570	800,000	0,012	-0,030
-268,555	-84,658	0,026	-0,006
-267,540	335,930	0,035	-0,049
-266,526	735,435	-0,020	-0,039
-265,511	800,000	-0,018	-0,037
-264,497	27,541	0,078	-0,047
-263,482	121,544	0,059	0,053
-262,467	140,105	0,130	0,124
-261,453	46,985	0,068	0,045
-260,438	65,023	-0,041	-0,030
-259,424	-19,685	-0,073	-0,032
-258,409	-200,000	-0,034	-0,115
-257,395	33,233	-0,030	0,019
-256,380	-200,000	0,013	0,054
-255,365	490,054	-0,060	-0,099
-254,351	-93,042	-0,070	-0,014
-253,336	-200,000	-0,008	-0,055
-252,322	800,000	0,019	-0,042
-251,307	800,000	0,068	0,145
-250,292	-86,462	0,151	-0,033
-249,278	23,816	0,049	0,029
-248,263	-4,237	0,047	-0,023
-247,249	475,122	0,063	-0,103
-246,234	-182,326	-0,153	-0,002
-245,219	503,113	0,035	-0,059
-244,205	369,360	-0,038	-0,056
-243,190	3,567	0,103	-0,054
-242,176	-122,860	-0,044	0,005
-241,161	301,356	0,032	0,043
-240,146	-31,387	-0,022	0,009
-239,132	800,000	0,019	-0,053
-238,117	-200,000	-0,013	-0,106
-237,103	146,915	-0,020	0,019
-236,088	-25,488	-0,108	0,046
-235,073	291,656	0,037	-0,049
-234,059	-22,633	0,109	0,047
-233,044	473,388	-0,035	0,056
-232,030	-158,071	0,089	0,004
-231,015	-97,733	-0,087	0,016
-230,000	98,355	0,053	-0,044
-228,986	327,625	-0,037	0,051
-227,971	-176,764	0,142	-0,003
-226,957	-200,000	0,014	0,165
-225,942	800,000	-0,038	0,112
-224,927	-73,742	0,144	0,037
-223,913	-200,000	0,018	-0,103
-222,898	-200,000	0,023	-0,114
-221,884	216,662	0,089	-0,103
-220,869	-200,000	-0,021	0,108
-219,855	539,083	0,101	0,173
-218,840	472,550	0,088	0,144
-217,825	34,106	-0,078	-0,049
-216,811	116,973	-0,071	-0,063
-215,796	-200,000	-0,003	-0,109
-214,782	303,845	-0,043	0,058
-213,767	75,610	0,062	0,048
-212,752	800,000	-0,051	0,147
-211,738	-200,000	0,015	0,049
-210,723	92,425	0,095	-0,077
-209,709	-200,000	-0,030	-0,114
-208,694	572,016	-0,012	-0,021
-207,679	112,788	0,019	0,017
-206,665	-200,000	0,028	0,133
-205,650	119,600	0,120	-0,108
-204,636	-200,000	0,005	-0,027
-203,621	800,000	0,056	0,146
-202,606	359,813	0,050	0,073
-201,592	800,000	-0,040	-0,116
-200,577	157,006	0,069	-0,069
-199,563	-34,481	0,082	0,032
-198,548	28,096	-0,012	0,007
-197,533	-200,000	-0,001	0,072
-196,519	466,921	-0,026	0,043
-195,504	-60,089	-0,032	-0,010
-194,490	74,610	0,069	0,053
-193,475	-174,269	0,103	0,002
-192,460	273,204	0,044	0,056
-191,446	-200,000	0,000	-0,041
-190,431	-47,131	0,013	0,005
-189,417	800,000	0,054	0,154
-188,402	330,811	-0,057	0,080
-187,387	347,765	0,064	-0,091
-186,373	-31,799	0,079	0,032
-185,358	228,762	-0,080	0,094
-184,344	-200,000	-0,055	0,200
-183,329	-200,000	0,005	0,059
-182,315	-200,000	-0,002	0,106
-181,300	-200,000	0,006	-0,141
-180,285	517,057	-0,100	-0,169
-179,271	32,256	-0,015	-0,009
-178,256	-200,000	-0,004	0,136
-177,242	-55,835	0,146	-0,047
-176,227	-75,981	-0,069	-0,017
-175,212	165,040	-0,135	-0,137
-174,198	60,968	0,062	-0,044
-173,183	-200,000	0,008	-0,180
-172,169	800,000	0,100	-0,232
-171,154	-200,000	-0,019	-0,109
-170,139	25,340	-0,058	-0,035
-169,125	125,322	-0,040	-0,036
-168,110	-73,752	0,123	0,032
-167,096	147,755	-0,108	0,104
-166,081	57,213	-0,061	0,043
-165,066	7,015	0,084	-0,045
-164,052	-200,000	0,036	0,139
-163,037	451,430	0,027	0,043
-162,023	-200,000	0,017	0,086
-161,008	9,207	0,152	0,082
-159,993	-200,000	-0,013	-0,054
-158,979	-200,000	-0,007	-0,121
-157,964	-200,000	-0,025	-0,137
-156,950	-200,000	-0,004	0,071
-155,935	-61,126	0,072	0,022
-154,920	-4,297	-0,007	0,004
-153,906	-200,000	-0,004	0,024
-152,891	800,000	0,040	-0,097
-151,877	145,600	-0,046	-0,044
-150,862	-200,000	0,002	0,071
-149,847	-98,221	0,124	0,023
-148,833	-200,000	0,027	-0,184
-147,818	81,206	-0,068	-0,053
-146,804	176,142	0,078	-0,081
-145,789	-200,000	0,050	0,319
-144,775	48,680	-0,175	0,118
-143,760	-20,713	-0,111	-0,049
-142,745	-200,000	0,015	0,153
-141,731	800,000	0,030	-0,082
-140,716	-69,191	-0,087	0,024
-139,702	578,394	-0,047	0,082
-138,687	-49,009	0,068	-0,023
-137,672	201,373	0,022	-0,025
-136,658	-82,435	0,149	0,035
-135,643	-200,000	0,004	0,108
-134,629	800,000	0,050	-0,144
-133,614	-92,288	-0,033	-0,007
-132,599	159,046	-0,046	0,046
-131,585	175,816	0,029	0,031
-130,570	800,000	0,042	0,112
-129,556	-72,228	-0,137	-0,036
-128,541	167,014	0,122	-0,125
-127,526	84,659	-0,055	-0,043
-126,512	-100,791	0,152	-0,027
-125,497	111,866	0,043	0,038
-124,483	-200,000	-0,011	-0,071
-123,468	218,551	0,090	-0,103
-122,453	797,596	0,044	-0,088
-121,439	-113,960	-0,125	0,017
-120,424	-200,000	0,012	-0,094
-119,410	-200,000	0,007	-0,100
-118,395	-184,779	-0,035	-0,000
-117,380	-137,072	0,092	-0,007
-116,366	-200,000	-0,040	-0,130
-115,351	349,254	-0,098	-0,139
-114,337	800,000	-0,030	-0,064
-113,322	15,868	0,091	0,051
-112,307	541,125	-0,080	-0,138
-111,293	-123,284	0,115	-0,013
-110,278	-200,000	0,002	0,124
-109,264	-200,000	0,012	-0,079
-108,249	381,393	0,135	-0,200
-107,234	452,446	0,061	0,097
-106,220	193,951	-0,113	0,123
-105,205	800,000	0,025	0,063
-104,191	211,060	0,068	0,077
-103,176	30,173	-0,112	0,068
-102,162	235,690	0,094	0,112
-101,147	5,949	-0,118	-0,063
-100,132	800,000	0,043	-0,127
-99,118	415,227	-0,055	0,085
-98,103	800,000	0,030	-0,087
-97,089	323,443	-0,014	0,020
-96,074	356,519	-0,084	-0,121
-95,059	33,137	0,057	0,035
-94,045	-170,906	-0,123	0,003
-93,030	800,000	0,026	-0,063
-92,016	481,716	-0,062	-0,102
-91,001	712,684	-0,022	-0,042
-89,986	-200,000	0,022	0,100
-88,972	303,819	0,051	-0,067
-87,957	134,978	-0,046	-0,043
-86,943	-115,032	0,084	0,011
-85,928	236,972	-0,115	-0,138
-84,913	-200,000	-0,033	-0,113
-83,899	-99,731	0,135	0,024
-82,884	-200,000	-0,043	0,175
-81,870	-200,000	0,022	-0,076
-80,855	298,814	0,070	-0,093
-79,840	24,121	-0,064	0,038
-78,826	-200,000	0,011	0,100
-77,811	218,420	-0,035	-0,040
-76,797	-36,892	0,107	0,041
-75,782	151,145	-0,041	0,040
-74,767	-49,876	-0,130	-0,044
-73,753	-25,272	-0,074	0,031
-72,738	-48,062	0,085	0,029
-71,724	13,790	-0,036	-0,020
-70,709	-78,206	0,113	-0,028
-69,694	55,766	-0,127	0,088
-68,680	192,486	0,085	-0,092
-67,665	175,639	-0,103	0,107
-66,651	-6,088	0,073	-0,035
-65,636	800,000	-0,016	-0,050
-64,622	-200,000	-0,010	0,038
-63,607	-63,288	-0,053	-0,016
-62,592	-115,429	-0,057	-0,008
-61,578	-45,135	0,027	-0,010
-60,563	-156,077	0,107	-0,005
-59,549	231,419	0,106	0,125
-58,534	75,487	-2,787	-2,108
-57,519	-61,876	0,542	-0,161
-56,505	800,000	-1,949	-5,577
-55,490	421,628	1,383	2,133
-54,476	800,000	5,161	11,106
-53,461	-200,000	23,281	348,630
-52,446	800,000	766,410	2264,114
-51,432	496,740	1642,605	2718,000
-50,417	92,757	1597,977	1292,333
-49,403	60,310	1252,617	887,058
-48,388	20,896	1005,067	582,326
-47,373	18,322	972,956	555,313
-46,359	11,703	959,807	526,413
-45,344	7,552	956,674	511,253
-44,330	7,926	954,356	511,200
-43,315	6,973	952,602	507,167
-42,300	6,989	951,538	506,632
-41,286	6,973	950,532	506,026
-40,271	6,930	949,553	505,345
-39,257	6,953	948,607	504,897
-38,242	6,907	947,670	504,231
-37,227	6,833	947,268	503,758
-36,213	6,910	946,181	503,409
-35,198	6,913	945,422	502,992
-34,184	6,911	944,719	502,593
-33,169	6,903	943,652	501,979
-32,154	6,941	942,904	501,684
-31,140	6,943	942,041	501,209
-30,125	6,964	941,340	500,885
-29,111	6,883	940,586	500,205
-28,096	6,981	939,947	500,158
-27,082	6,910	939,181	499,504
-26,067	6,920	938,224	499,007
-25,052	6,932	937,775	498,787
-24,038	6,907	936,944	498,247
-23,023	6,948	936,336	498,031
-22,009	6,959	935,560	497,634
-20,994	6,916	935,132	497,253
-19,979	6,979	934,330	497,004
-18,965	6,941	933,820	496,594
-17,950	6,915	933,470	496,305
-16,936	6,915	932,682	495,868
-15,921	6,888	932,112	495,460
-14,906	6,811	931,359	494,795
-13,892	6,876	930,800	494,685
-12,877	6,821	930,258	494,204
-11,863	6,780	929,552	493,681
-10,848	6,834	928,911	493,491
-9,833	6,844	928,634	493,355
-8,819	6,923	927,674	493,073
-7,804	6,855	927,054	492,509
-6,790	6,819	926,608	492,142
-5,775	6,904	926,019	492,074
-4,760	6,891	925,451	491,714
-3,746	6,879	924,818	491,320
-2,731	6,650	924,282	490,298
-1,717	6,682	923,437	489,931
-0,702	6,737	922,867	489,781
0,313	6,585	922,209	489,698
1,327	9,889	919,631	498,562
2,342	18,503	768,679	438,971
3,356	13,615	442,230	245,261
4,371	-11,793	310,220	145,250
5,386	-15,387	293,014	133,577
6,400	-17,521	286,945	128,701
7,415	-17,941	284,242	127,068
8,429	-18,999	282,254	125,145
9,444	-18,849	281,407	124,903
10,459	-18,943	280,893	124,573
11,473	-18,815	280,013	124,295
12,488	-18,746	279,649	124,188
13,502	-18,812	279,108	123,873
14,517	-18,824	278,769	123,700
15,531	-19,014	278,262	123,284
16,546	-18,967	277,944	123,176
17,561	-18,925	277,389	122,959
18,575	-18,873	277,128	122,882
19,590	-18,917	276,920	122,737
20,604	-18,941	276,592	122,558
21,619	-19,189	276,138	122,112
22,634	-18,959	275,901	122,213
23,648	-18,964	275,558	122,046
24,663	-18,874	275,242	121,979
25,677	-18,848	274,998	121,885
26,692	-18,983	274,637	121,587
27,707	-18,832	274,332	121,583
28,721	-18,841	274,169	121,492
29,736	-19,064	273,805	121,110
30,750	-19,000	273,648	121,090
31,765	-19,037	273,367	120,921
32,780	-18,959	273,098	120,864
33,794	-18,883	272,994	120,878
34,809	-19,199	272,673	120,431
35,823	-19,151	272,498	120,387
36,838	-18,810	272,018	120,481
37,853	-18,833	271,795	120,350
38,867	-18,862	271,657	120,251
39,882	-18,960	271,356	120,016
40,896	-18,826	271,072	120,004
41,911	-18,767	270,823	119,938
42,926	-18,827	270,621	119,782
43,940	-18,883	270,361	119,605
44,955	-18,963	270,279	119,485
45,969	-18,712	269,895	119,535
46,984	-18,651	269,771	119,526
47,999	-18,902	269,683	119,245
49,013	-18,774	269,362	119,210
50,028	-18,717	269,200	119,180
51,042	-18,866	268,885	118,893
52,057	-18,835	268,712	118,835
53,071	-18,789	268,456	118,753
54,086	-18,689	268,217	118,729
55,101	-18,865	267,938	118,433
56,115	-18,761	267,710	118,417
57,130	-18,659	267,399	118,362
58,144	-18,972	267,040	117,907
59,159	-18,660	266,817	118,082
60,174	-18,966	266,648	117,718
61,188	-18,715	266,389	117,822
62,203	-18,914	266,309	117,596
63,217	-18,729	266,114	117,667
64,232	-18,762	265,707	117,446
65,247	-18,885	265,629	117,290
66,261	-18,845	265,208	117,130
67,276	-18,834	265,073	117,069
68,290	-18,839	264,912	116,984
69,305	-18,743	264,736	116,982
70,320	-18,752	264,619	116,911
71,334	-18,777	264,131	116,663
72,349	-18,765	263,933	116,576
73,363	-18,934	263,664	116,295
74,378	-18,853	263,569	116,315
75,393	-18,972	263,309	116,084
76,407	-18,732	263,072	116,184
77,422	-18,749	262,831	116,052
78,436	-18,790	262,680	115,938
79,451	-18,557	262,287	115,963
80,466	-18,830	262,188	115,665
81,480	-18,876	261,793	115,439
82,495	-18,731	261,653	115,496
83,509	-18,613	261,436	115,495
84,524	-18,811	261,279	115,239
85,539	-18,816	261,097	115,145
86,553	-18,580	260,713	115,174
87,568	-18,811	260,674	114,942
88,582	-18,719	260,547	114,957
89,597	-18,717	260,268	114,825
90,611	-18,843	260,093	114,627
91,626	-18,876	259,876	114,492
92,641	-18,774	259,622	114,460
93,655	-18,736	259,367	114,370
94,670	-18,612	259,054	114,332
95,684	-18,632	258,832	114,206
96,699	-18,879	258,868	113,994
97,714	-18,856	258,693	113,927
98,728	-18,680	258,472	113,974
99,743	-18,676	258,192	113,844
100,757	-18,652	257,938	113,743
101,772	-18,668	257,747	113,634
102,787	-18,724	257,575	113,499
103,801	-18,712	257,347	113,399
104,816	-18,603	257,175	113,408
105,830	-18,741	257,083	113,237
106,845	-18,722	256,723	113,086
107,860	-18,711	256,475	112,976
108,874	-18,709	256,427	112,947
109,889	-18,729	256,051	112,753
110,903	-18,730	255,874	112,664
111,918	-18,570	255,874	112,793
112,933	-18,636	255,662	112,633
113,947	-18,693	255,364	112,441
114,962	-18,832	255,234	112,254
115,976	-18,801	254,902	112,125
116,991	-18,590	254,741	112,227
118,006	-18,783	254,667	112,017
119,020	-18,491	254,455	112,166
120,035	-18,683	254,335	111,938
121,049	-18,525	254,011	111,921
122,064	-18,638	253,861	111,747
123,079	-18,690	253,751	111,644
124,093	-18,694	253,487	111,515
125,108	-18,958	253,355	111,220
126,122	-18,757	253,060	111,253
127,137	-18,598	252,895	111,306
128,151	-18,716	252,751	111,133
129,166	-18,437	252,494	111,248
130,181	-18,748	252,309	110,891
131,195	-18,501	251,979	110,947
132,210	-18,688	251,904	110,745
133,224	-18,600	251,726	110,732
134,239	-18,581	251,416	110,601
135,254	-18,519	251,205	110,552
136,268	-18,663	251,220	110,426
137,283	-18,657	250,996	110,322
138,297	-18,477	250,691	110,331
139,312	-18,586	250,515	110,152
140,327	-18,635	250,307	110,009
141,341	-18,692	249,961	109,798
142,356	-18,625	249,987	109,857
143,370	-18,626	249,668	109,706
144,385	-18,651	249,477	109,592
145,400	-18,628	249,223	109,489
146,414	-18,837	249,228	109,306
147,429	-18,680	248,821	109,249
148,443	-18,459	248,690	109,369
149,458	-18,581	248,431	109,142
150,473	-18,731	248,490	109,032
151,487	-18,527	248,130	109,036
152,502	-18,691	248,030	108,845
153,516	-18,587	247,776	108,810
154,531	-18,597	247,678	108,749
155,546	-18,968	247,483	108,344
156,560	-18,673	247,158	108,438
157,575	-18,734	247,107	108,355
158,589	-18,600	246,833	108,337
159,604	-18,614	246,647	108,234
160,619	-18,663	246,517	108,127
161,633	-18,658	246,402	108,071
162,648	-18,491	246,066	108,053
163,662	-18,807	246,095	107,792
164,677	-18,664	245,837	107,789
165,692	-18,696	245,721	107,702
166,706	-18,641	245,413	107,603
167,721	-18,777	245,308	107,435
168,735	-18,633	245,099	107,453
169,750	-18,666	244,891	107,325
170,764	-18,557	244,838	107,382
171,779	-18,653	244,642	107,207
172,794	-18,732	244,576	107,103
173,808	-18,664	244,297	107,028
174,823	-18,358	244,178	107,218
175,837	-18,376	243,988	107,110
176,852	-18,735	243,799	106,723
177,867	-18,479	243,739	106,897
178,881	-18,356	243,497	106,883
179,896	-18,349	243,146	106,725
180,910	-18,494	243,124	106,586
181,925	-18,612	243,034	106,442
182,940	-18,656	242,798	106,293
183,954	-18,658	242,659	106,220
184,969	-18,616	242,442	106,150
185,983	-18,747	242,328	105,984
186,998	-18,748	242,082	105,866
188,013	-18,510	241,835	105,942
189,027	-18,628	241,607	105,737
190,042	-18,618	241,523	105,699
191,056	-18,504	241,470	105,759
192,071	-18,666	241,274	105,532
193,086	-18,493	241,162	105,615
194,100	-18,571	240,859	105,409
195,115	-18,483	240,621	105,367
196,129	-18,614	240,456	105,179
197,144	-18,563	240,274	105,132
198,159	-18,667	240,124	104,972
199,173	-18,516	239,940	105,005
200,188	-18,543	239,676	104,858
201,202	-18,440	239,583	104,890
202,217	-18,324	239,401	104,895
203,232	-18,418	239,217	104,729
204,246	-18,331	239,024	104,706
205,261	-18,193	238,983	104,789
206,275	-16,601	239,608	106,338
207,290	-11,490	241,185	111,175
208,304	-5,229	243,099	117,156
209,319	-2,672	243,935	119,637
210,334	-1,641	244,078	120,538
211,348	-0,597	244,338	121,509
212,363	0,041	244,307	122,003
213,377	0,425	244,062	122,183
214,392	0,499	244,217	122,310
215,407	0,665	244,311	122,481
216,421	0,664	244,065	122,347
217,436	0,778	243,893	122,342
218,450	0,864	243,761	122,335
219,465	0,757	243,653	122,182
220,480	1,047	243,432	122,296
221,494	1,156	243,191	122,252
222,509	0,457	243,052	121,605
223,523	0,535	242,774	121,518
224,538	0,402	242,513	121,269
225,553	0,295	242,324	121,078
226,567	0,480	242,135	121,121
227,582	0,274	242,125	120,940
228,596	0,370	241,914	120,901
229,611	0,454	241,656	120,829
230,626	0,318	241,537	120,648
231,640	0,342	241,524	120,651
232,655	0,448	241,166	120,547
233,669	0,218	241,088	120,312
234,684	0,075	240,940	120,112
235,699	0,327	240,784	120,226
236,713	0,339	240,560	120,113
237,728	0,544	240,417	120,196
238,742	0,412	240,171	119,956
239,757	0,349	240,123	119,871
240,772	0,304	240,033	119,780
241,786	0,339	239,781	119,671
242,801	0,415	239,667	119,664
243,815	0,178	239,624	119,443
244,830	0,171	239,426	119,328
245,844	0,293	239,207	119,306
246,859	0,491	238,901	119,300
247,874	0,281	238,969	119,156
248,888	0,430	238,707	119,133
249,903	0,259	238,654	118,960
250,917	0,561	238,380	119,053
251,932	0,414	238,304	118,887
252,947	0,325	238,245	118,777
253,961	0,204	238,063	118,579
254,976	0,612	237,685	118,703
255,990	0,431	237,640	118,527
257,005	0,659	237,455	118,604
258,020	0,461	237,381	118,401
259,034	0,577	237,142	118,362
260,049	0,485	237,077	118,247
261,063	0,304	236,989	118,050
262,078	0,492	236,535	117,961
263,093	0,278	236,588	117,808
264,107	0,454	236,382	117,834
265,122	0,164	236,316	117,562
266,136	0,249	236,216	117,568
267,151	0,497	235,992	117,642
268,166	0,381	235,780	117,435
269,180	0,132	235,734	117,206
270,195	0,431	235,424	117,275
271,209	0,416	235,236	117,159
272,224	0,437	235,100	117,098
273,239	0,358	235,018	116,984
274,253	0,522	234,889	117,038
275,268	0,454	234,606	116,834
276,282	0,506	234,524	116,822
277,297	0,392	234,385	116,654
278,312	0,380	234,375	116,630
279,326	0,493	234,126	116,583
280,341	0,755	233,859	116,643
281,355	0,502	233,827	116,421
282,370	0,459	233,643	116,285
283,384	0,361	233,593	116,174
284,399	0,754	233,159	116,252
285,414	0,406	233,239	116,012
286,428	0,419	233,025	115,905
287,443	0,573	232,880	115,942
288,457	0,214	232,907	115,667
289,472	0,410	232,612	115,662
290,487	0,596	232,480	115,729
291,501	0,542	232,394	115,635
292,516	0,597	232,147	115,544
293,530	0,610	231,912	115,427
294,545	0,717	231,857	115,471
295,560	0,635	231,782	115,361
296,574	0,622	231,537	115,218
297,589	0,555	231,368	115,072
298,603	0,838	231,307	115,249
299,618	0,692	231,273	115,110
300,633	0,662	231,055	114,968
301,647	0,711	230,897	114,917
302,662	0,647	230,793	114,806
303,676	0,807	230,547	114,796
304,691	0,748	230,480	114,706
305,706	0,446	230,379	114,415
306,720	0,758	230,192	114,551
307,735	0,678	230,083	114,425
308,749	0,667	229,974	114,352
309,764	0,621	229,627	114,135
310,779	0,743	229,680	114,243
311,793	0,581	229,504	114,023
312,808	0,603	229,382	113,968
313,822	0,712	229,166	113,933
314,837	0,910	228,999	113,990
315,852	0,685	228,860	113,741
316,866	0,960	228,629	113,824
317,881	0,574	228,663	113,539
318,895	0,726	228,346	113,486
319,910	0,777	228,249	113,466
320,925	0,842	228,091	113,426
321,939	0,747	228,054	113,326
322,954	0,832	227,777	113,243
323,968	0,733	227,742	113,141
324,983	0,767	227,691	113,130
325,997	0,797	227,344	112,971
327,012	0,657	227,296	112,832
328,027	0,579	227,204	112,717
329,041	0,705	226,889	112,645
330,056	0,690	226,825	112,592
331,070	0,905	226,717	112,690
332,085	0,570	226,724	112,432
333,100	0,855	226,131	112,341
334,114	0,945	226,154	112,410
335,129	0,882	226,001	112,277
336,143	0,827	225,857	112,154
337,158	0,733	225,840	112,066
338,173	0,844	225,749	112,093
339,187	0,958	225,527	112,058
340,202	0,995	225,404	112,014
341,216	0,895	225,218	111,837
342,231	0,772	225,203	111,729
343,246	0,666	225,019	111,549
344,260	0,911	224,921	111,672
345,275	1,158	224,665	111,718
346,289	0,808	224,636	111,434
347,304	0,980	224,321	111,395
348,319	1,130	224,236	111,454
349,333	0,856	224,109	111,178
350,348	0,752	224,040	111,058
351,362	0,833	223,895	111,036
352,377	1,037	223,744	111,101
353,392	0,937	223,629	110,961
354,406	0,738	223,406	110,694
355,421	192,226	1312,438	1376,467
356,435	153,910	1444,960	1376,282
