DTS Sentinel unit serial number:	SN410029Multiplexer serial number:	ORYXHardware model number:	OX2-SRSoftware version number:	ORYX F/W v4,00 Oryx Data Collector v3.7.2.0data status	okinstallation	B5 Nyhavnadifferential loss correction	single-endedforward channel	channel 2reverse channel	N/Adate	2023/12/14time	00:57:13forward acquisition time	300,00reverse acquisition time	0,00gamma	499,1914k internal	0,3155k external	0,3155temperature offset calibration	1,0000default loss term (dB/km)	0,3820temperature slope calibration	1,0000multiplexer offset coefficient	1,0000multiplexer slope coefficient	1,0000fibre end	0,00T internal ref (°C)	8,68T ext. ref 1 (°C)	-7,14T ext. ref 2 (°C)	-7,14length (m)	temperature (°C)	Stokes	anti-Stokes-744,400	-119,280	0,206	-0,026
-743,385	-87,551	-0,438	0,097
-742,371	5,142	0,255	0,138
-741,356	-89,616	-0,208	-0,045
-740,342	-60,896	0,149	0,046
-739,327	-115,507	-0,379	-0,052
-738,312	-24,139	0,151	0,066
-737,298	-131,025	-0,329	-0,032
-736,283	-11,670	0,082	-0,039
-735,269	119,252	-0,071	-0,064
-734,254	169,203	0,082	0,086
-733,239	13,402	-0,548	-0,313
-732,225	-90,141	0,304	0,065
-731,210	25,688	0,058	0,036
-730,196	223,251	-0,031	0,036
-729,181	79,182	-0,110	-0,087
-728,167	619,098	-0,066	-0,123
-727,152	172,904	-0,085	0,090
-726,137	110,438	-0,038	-0,033
-725,123	800,000	-0,082	-0,212
-724,108	-95,349	-0,129	0,025
-723,094	-200,000	0,006	-0,079
-722,079	-52,969	0,036	-0,012
-721,064	-200,000	0,017	-0,173
-720,050	473,868	-0,035	-0,058
-719,035	-88,413	-0,129	0,028
-718,021	143,516	-0,132	0,129
-717,006	-200,000	-0,049	-0,172
-715,991	-200,000	-0,008	0,046
-714,977	67,484	0,027	-0,020
-713,962	319,345	-0,030	0,042
-712,948	-200,000	-0,015	-0,075
-711,933	202,195	-0,007	-0,008
-710,918	275,900	0,031	-0,040
-709,904	311,558	-0,067	-0,093
-708,889	301,554	-0,044	-0,060
-707,875	-200,000	0,024	-0,084
-706,860	-152,959	0,057	0,003
-705,845	90,032	-0,026	-0,021
-704,831	181,538	0,108	0,117
-703,816	-46,162	0,112	-0,040
-702,802	800,000	-0,023	-0,057
-701,787	22,023	-0,066	-0,040
-700,772	57,471	-0,044	-0,032
-699,758	157,079	-0,092	-0,094
-698,743	-106,286	0,069	0,011
-697,729	-81,442	-0,095	0,023
-696,714	-200,000	-0,005	-0,023
-695,699	82,181	0,133	0,106
-694,685	-200,000	-0,011	0,083
-693,670	5,778	-0,106	0,057
-692,656	800,000	0,011	-0,026
-691,641	-69,131	-0,054	0,015
-690,627	-200,000	0,000	0,117
-689,612	-200,000	0,017	0,094
-688,597	-200,000	-0,004	-0,056
-687,583	800,000	-0,061	-0,193
-686,568	209,825	0,100	-0,116
-685,554	523,521	-0,042	0,073
-684,539	-200,000	0,024	0,092
-683,524	53,246	-0,055	0,039
-682,510	72,038	-0,165	0,126
-681,495	-200,000	0,010	0,125
-680,481	-107,643	-0,148	0,024
-679,466	12,554	-0,231	-0,131
-678,451	-142,659	0,043	0,003
-677,437	-87,337	0,071	0,016
-676,422	98,171	0,138	0,117
-675,408	120,252	0,051	-0,047
-674,393	-73,910	0,055	-0,015
-673,378	103,627	-0,041	0,035
-672,364	800,000	-0,020	-0,058
-671,349	-151,718	-0,116	-0,006
-670,335	59,784	-0,065	-0,047
-669,320	330,959	-0,092	0,131
-668,305	-200,000	0,015	-0,056
-667,291	214,864	-0,086	0,101
-666,276	-200,000	-0,001	-0,024
-665,262	158,735	-0,103	-0,105
-664,247	-186,569	-0,128	-0,001
-663,232	-49,612	-0,067	-0,023
-662,218	800,000	0,043	-0,134
-661,203	-200,000	-0,030	-0,180
-660,189	-200,000	-0,005	-0,067
-659,174	23,930	-0,127	-0,077
-658,159	-78,905	0,050	-0,013
-657,145	114,900	-0,109	-0,097
-656,130	324,447	-0,031	0,044
-655,116	17,948	0,052	-0,030
-654,101	177,431	-0,051	-0,054
-653,086	800,000	-0,031	0,101
-652,072	-200,000	0,016	-0,086
-651,057	-39,886	-0,200	-0,077
-650,043	-30,674	0,226	0,094
-649,028	-51,705	-0,054	0,019
-648,014	1,371	0,101	-0,053
-646,999	206,375	0,065	0,074
-645,984	770,806	-0,006	-0,012
-644,970	-83,785	-0,125	-0,029
-643,955	-66,659	-0,084	0,024
-642,941	-3,604	-0,049	-0,025
-641,926	-78,900	0,049	0,012
-640,911	185,969	-0,137	0,150
-639,897	205,208	0,070	-0,080
-638,882	-200,000	-0,007	0,058
-637,868	73,361	0,189	0,145
-636,853	-200,000	0,003	-0,068
-635,838	-99,081	-0,192	0,035
-634,824	800,000	-0,024	-0,074
-633,809	634,914	-0,015	-0,029
-632,795	800,000	-0,036	0,087
-631,780	-58,274	0,163	-0,052
-630,765	186,440	-0,044	0,048
-629,751	-125,991	-0,127	0,014
-628,736	685,990	-0,047	0,090
-627,722	309,375	0,036	-0,049
-626,707	172,933	0,043	-0,046
-625,692	-200,000	0,002	0,011
-624,678	-102,168	0,167	-0,029
-623,663	800,000	-0,020	-0,063
-622,649	800,000	-0,041	-0,088
-621,634	3,728	-0,144	-0,077
-620,619	9,135	0,049	-0,027
-619,605	-71,005	0,055	0,015
-618,590	-150,122	-0,019	-0,001
-617,576	147,764	-0,101	-0,100
-616,561	-110,638	-0,083	0,013
-615,546	270,687	-0,026	-0,033
-614,532	-96,957	-0,073	-0,014
-613,517	-85,117	-0,067	-0,015
-612,503	291,212	0,080	-0,107
-611,488	-200,000	-0,024	0,126
-610,474	96,676	0,008	-0,006
-609,459	-147,307	0,121	-0,007
-608,444	614,006	0,014	0,027
-607,430	51,156	-0,098	0,068
-606,415	-17,969	-0,175	-0,080
-605,401	224,482	0,017	0,020
-604,386	-71,968	0,083	0,022
-603,371	-200,000	-0,002	0,152
-602,357	-200,000	0,010	0,039
-601,342	-200,000	0,008	-0,095
-600,328	-45,617	-0,157	-0,057
-599,313	60,761	0,065	-0,047
-598,298	350,577	-0,020	0,028
-597,284	-200,000	-0,020	0,080
-596,269	-49,465	0,067	-0,023
-595,255	-200,000	-0,027	-0,155
-594,240	-85,269	0,016	0,004
-593,225	75,758	0,091	0,070
-592,211	-200,000	-0,022	-0,073
-591,196	-74,099	-0,163	0,043
-590,182	-40,571	0,141	-0,054
-589,167	45,910	0,105	0,071
-588,152	287,450	-0,068	0,091
-587,138	302,647	-0,070	-0,096
-586,123	-200,000	0,006	-0,083
-585,109	-200,000	-0,033	-0,198
-584,094	32,492	0,083	0,053
-583,079	369,986	0,013	-0,019
-582,065	800,000	0,026	0,062
-581,050	54,070	0,040	0,028
-580,036	-147,061	-0,091	0,006
-579,021	800,000	-0,093	-0,197
-578,006	-44,492	-0,110	0,040
-576,992	-200,000	0,009	-0,131
-575,977	334,176	0,041	0,058
-574,963	152,052	0,037	0,037
-573,948	-177,032	0,049	-0,001
-572,934	53,813	0,054	0,038
-571,919	48,862	-0,073	0,050
-570,904	-21,025	0,084	0,038
-569,890	-61,237	-0,057	0,017
-568,875	-200,000	-0,009	0,054
-567,861	-200,000	-0,013	0,064
-566,846	109,208	-0,063	0,055
-565,831	-70,241	-0,072	-0,020
-564,817	-90,125	-0,170	0,036
-563,802	-57,964	-0,076	-0,024
-562,788	-200,000	0,030	-0,102
-561,773	-128,052	-0,032	-0,003
-560,758	800,000	-0,003	-0,011
-559,744	102,045	-0,071	0,060
-558,729	-30,104	-0,029	0,012
-557,715	-24,102	-0,093	-0,040
-556,700	-200,000	-0,001	-0,137
-555,685	-200,000	-0,011	-0,142
-554,671	50,851	0,050	-0,035
-553,656	-164,150	0,143	0,005
-552,642	91,120	-0,069	0,057
-551,627	247,081	0,028	0,035
-550,612	-200,000	0,003	-0,040
-549,598	8,282	-0,045	-0,025
-548,583	-200,000	-0,004	-0,059
-547,569	48,037	0,077	-0,053
-546,554	-200,000	-0,010	-0,052
-545,539	72,968	0,097	0,074
-544,525	800,000	0,022	-0,050
-543,510	231,837	-0,039	-0,047
-542,496	-200,000	-0,002	-0,020
-541,481	-200,000	0,005	0,027
-540,466	290,172	-0,027	0,036
-539,452	-121,866	-0,073	0,009
-538,437	-47,281	-0,105	0,037
-537,423	167,016	-0,042	-0,044
-536,408	575,261	-0,036	0,064
-535,393	331,400	-0,051	-0,072
-534,379	690,885	-0,031	-0,059
-533,364	65,276	-0,143	0,106
-532,350	286,613	0,029	-0,039
-531,335	-34,752	-0,144	-0,057
-530,321	-200,000	0,003	0,081
-529,306	181,284	-0,138	-0,149
-528,291	-200,000	0,005	0,105
-527,277	262,478	-0,139	-0,177
-526,262	4,535	-0,052	0,028
-525,248	146,095	-0,100	0,099
-524,233	-200,000	0,001	0,074
-523,218	135,791	0,047	0,044
-522,204	-0,682	0,045	0,023
-521,189	155,294	-0,140	-0,141
-520,175	166,273	-0,017	0,018
-519,160	109,302	0,070	-0,061
-518,145	361,579	-0,003	-0,004
-517,131	137,947	-0,125	0,120
-516,116	-70,276	-0,067	0,018
-515,102	175,981	-0,078	-0,083
-514,087	800,000	-0,059	-0,144
-513,072	32,791	-0,089	-0,056
-512,058	472,504	-0,047	0,077
-511,043	243,421	0,042	0,051
-510,029	-149,983	-0,117	-0,007
-509,014	202,801	0,120	0,136
-507,999	-156,971	-0,064	-0,003
-506,985	350,431	0,039	-0,057
-505,970	-200,000	-0,004	-0,085
-504,956	-48,559	-0,114	-0,040
-503,941	56,219	0,108	-0,076
-502,926	107,357	0,100	0,087
-501,912	-149,949	0,040	0,002
-500,897	-200,000	-0,000	0,077
-499,883	-76,972	-0,168	0,043
-498,868	-200,000	0,016	0,061
-497,853	800,000	0,022	0,062
-496,839	-200,000	-0,003	0,100
-495,824	376,595	0,038	0,057
-494,810	377,672	0,032	0,048
-493,795	800,000	0,009	0,028
-492,781	-200,000	0,158	-0,000
-491,766	115,459	-0,093	0,083
-490,751	42,377	0,087	0,058
-489,737	-200,000	0,007	-0,050
-488,722	800,000	-0,011	0,023
-487,708	67,252	0,105	0,078
-486,693	-200,000	-0,002	0,066
-485,678	171,940	0,086	0,090
-484,664	-165,719	0,021	-0,001
-483,649	-67,797	0,064	-0,018
-482,635	-134,259	-0,084	0,007
-481,620	-200,000	0,003	-0,028
-480,605	-200,000	0,022	0,230
-479,591	206,976	0,020	0,023
-478,576	-10,442	-0,053	-0,026
-477,562	151,927	-0,063	-0,062
-476,547	292,626	0,046	-0,062
-475,532	43,292	0,022	-0,014
-474,518	277,081	-0,051	-0,066
-473,503	-77,003	0,055	0,014
-472,489	-81,315	-0,091	-0,022
-471,474	158,260	-0,055	0,056
-470,459	-48,591	-0,101	0,035
-469,445	-23,990	-0,090	-0,039
-468,430	-200,000	-0,005	0,044
-467,416	-200,000	-0,021	0,101
-466,401	85,902	0,055	-0,044
-465,386	-138,319	0,144	-0,011
-464,372	193,692	0,030	0,033
-463,357	23,195	0,014	-0,008
-462,343	800,000	0,014	0,029
-461,328	213,779	0,026	0,031
-460,313	349,684	0,071	0,103
-459,299	-200,000	-0,027	0,142
-458,284	-44,575	0,210	0,076
-457,270	775,861	-0,044	-0,089
-456,255	167,066	-0,034	-0,035
-455,241	51,979	-0,086	0,059
-454,226	29,281	-0,100	0,062
-453,211	-82,245	0,032	-0,007
-452,197	115,435	0,014	0,013
-451,182	311,268	0,049	-0,067
-450,168	-64,023	0,132	-0,039
-449,153	202,913	-0,120	-0,135
-448,138	28,917	-0,058	-0,036
-447,124	-159,471	-0,024	-0,001
-446,109	-78,032	-0,040	0,010
-445,095	-115,882	-0,079	-0,011
-444,080	800,000	-0,034	0,103
-443,065	412,348	-0,022	-0,035
-442,051	436,817	-0,049	0,078
-441,036	-200,000	0,007	-0,045
-440,022	-42,729	0,043	0,016
-439,007	-129,261	-0,135	-0,013
-437,992	-200,000	0,001	0,108
-436,978	-1,829	-0,080	0,041
-435,963	-200,000	0,000	0,079
-434,949	-39,124	-0,082	-0,031
-433,934	330,988	-0,036	-0,051
-432,919	-200,000	-0,013	-0,055
-431,905	-53,823	0,019	0,006
-430,890	800,000	-0,041	0,096
-429,876	-200,000	0,038	-0,132
-428,861	-54,591	0,071	0,023
-427,846	-4,528	-0,075	-0,038
-426,832	-2,940	-0,141	-0,071
-425,817	-151,378	-0,115	-0,006
-424,803	46,744	0,124	0,084
-423,788	644,007	-0,018	-0,034
-422,773	92,048	0,078	-0,064
-421,759	-200,000	0,022	-0,083
-420,744	-131,877	-0,015	0,001
-419,730	146,653	-0,135	-0,132
-418,715	800,000	-0,062	-0,161
-417,701	86,946	0,131	-0,106
-416,686	750,269	-0,044	-0,087
-415,671	-1,374	0,103	-0,053
-414,657	-180,406	0,073	-0,001
-413,642	69,307	0,070	-0,052
-412,628	252,247	-0,037	-0,046
-411,613	-200,000	0,011	-0,091
-410,598	472,770	-0,022	0,035
-409,584	15,489	0,067	-0,038
-408,569	-200,000	0,014	0,114
-407,555	-71,223	0,197	-0,053
-406,540	-200,000	0,035	0,123
-405,525	-147,778	-0,144	0,009
-404,511	566,082	0,045	-0,080
-403,496	16,031	0,103	-0,059
-402,482	177,910	0,028	0,029
-401,467	-200,000	0,012	-0,145
-400,452	-200,000	-0,008	0,109
-399,438	800,000	0,049	0,137
-398,423	800,000	-0,062	0,147
-397,409	18,524	-0,056	-0,033
-396,394	-74,340	-0,091	0,024
-395,379	800,000	0,016	0,036
-394,365	225,351	0,016	0,018
-393,350	-30,462	0,070	0,029
-392,336	193,022	0,048	0,053
-391,321	-14,855	0,115	0,054
-390,306	-31,627	-0,125	-0,051
-389,292	800,000	0,043	0,099
-388,277	120,981	0,066	-0,060
-387,263	-200,000	-0,030	0,106
-386,248	143,170	0,061	0,059
-385,233	-200,000	-0,009	0,091
-384,219	172,534	-0,081	-0,084
-383,204	-200,000	-0,008	-0,031
-382,190	240,095	0,081	0,098
-381,175	179,897	0,033	-0,036
-380,160	310,700	0,064	-0,087
-379,146	215,406	-0,006	0,007
-378,131	800,000	0,018	0,054
-377,117	-7,540	-0,076	-0,037
-376,102	354,517	0,025	0,037
-375,088	-200,000	-0,031	0,123
-374,073	306,228	0,078	-0,106
-373,058	800,000	0,041	-0,084
-372,044	-92,300	0,111	-0,023
-371,029	605,591	-0,056	-0,102
-370,015	-200,000	-0,006	0,103
-369,000	800,000	-0,013	-0,039
-367,985	800,000	0,022	-0,061
-366,971	800,000	0,027	-0,065
-365,956	-200,000	-0,006	-0,041
-364,942	-47,422	0,119	0,042
-363,927	-83,793	-0,061	-0,014
-362,912	-51,402	0,106	0,036
-361,898	-66,276	0,057	0,016
-360,883	98,149	0,017	0,014
-359,869	610,204	-0,032	0,059
-358,854	-73,614	-0,081	0,021
-357,839	112,333	0,106	0,093
-356,825	167,402	-0,007	0,007
-355,810	-25,010	-0,109	0,047
-354,796	-200,000	0,008	-0,069
-353,781	-159,339	0,097	0,004
-352,766	-200,000	0,002	-0,059
-351,752	-200,000	-0,023	0,077
-350,737	779,867	0,024	0,047
-349,723	-200,000	-0,012	0,078
-348,708	-98,191	0,063	-0,012
-347,693	-106,738	0,098	-0,016
-346,679	-20,551	-0,065	0,029
-345,664	800,000	0,051	-0,104
-344,650	-6,319	0,072	-0,036
-343,635	-200,000	0,154	-0,000
-342,620	-7,343	0,058	0,029
-341,606	800,000	-0,039	-0,121
-340,591	561,289	-0,043	0,076
-339,577	24,579	-0,155	0,093
-338,562	114,663	0,047	-0,042
-337,548	40,862	0,068	0,044
-336,533	367,067	0,027	0,040
-335,518	58,722	0,192	0,137
-334,504	-200,000	0,031	0,193
-333,489	740,947	0,023	0,045
-332,475	463,184	-0,035	0,056
-331,460	800,000	-0,059	0,152
-330,445	311,258	0,058	-0,079
-329,431	591,639	-0,041	0,073
-328,416	-9,655	0,106	-0,051
-327,402	105,884	0,056	0,048
-326,387	-76,101	-0,040	-0,010
-325,372	280,675	-0,022	0,029
-324,358	-200,000	-0,015	0,052
-323,343	-200,000	-0,016	0,099
-322,329	133,640	-0,017	-0,016
-321,314	-115,636	0,074	0,010
-320,299	800,000	-0,026	0,075
-319,285	800,000	-0,033	0,075
-318,270	-200,000	0,012	0,110
-317,256	74,278	-0,081	-0,062
-316,241	800,000	-0,004	-0,010
-315,226	-200,000	-0,019	-0,073
-314,212	247,002	0,069	-0,085
-313,197	-200,000	0,025	0,086
-312,183	209,647	0,077	-0,087
-311,168	125,835	-0,062	0,057
-310,153	-46,815	0,063	0,022
-309,139	-200,000	-0,019	-0,089
-308,124	-200,000	-0,006	0,064
-307,110	-200,000	-0,011	-0,054
-306,095	-8,103	-0,023	-0,011
-305,080	176,937	-0,074	0,079
-304,066	68,240	-0,113	0,084
-303,051	386,458	-0,057	0,086
-302,037	146,500	-0,050	0,049
-301,022	104,548	0,042	-0,036
-300,008	-36,292	0,032	-0,013
-298,993	-200,000	0,021	0,091
-297,978	-47,908	-0,107	-0,037
-296,964	-200,000	0,006	-0,088
-295,949	108,669	-0,011	-0,010
-294,935	-77,714	-0,123	-0,031
-293,920	-85,233	0,078	-0,017
-292,905	-32,860	0,131	-0,052
-291,891	-200,000	0,020	0,134
-290,876	-80,475	-0,158	-0,038
-289,862	-163,930	0,117	0,004
-288,847	8,261	0,053	0,029
-287,832	-200,000	0,010	-0,145
-286,818	-200,000	-0,009	-0,080
-285,803	41,279	0,093	-0,061
-284,789	-200,000	0,016	0,180
-283,774	-53,874	0,048	0,016
-282,759	-200,000	-0,007	-0,144
-281,745	35,870	-0,073	-0,047
-280,730	-44,925	-0,089	0,032
-279,716	800,000	-0,028	0,071
-278,701	-79,196	0,079	-0,019
-277,686	-200,000	0,004	0,120
-276,672	-137,490	0,017	0,001
-275,657	-200,000	0,014	-0,079
-274,643	593,835	-0,047	-0,085
-273,628	-14,083	-0,109	-0,051
-272,613	800,000	-0,028	0,069
-271,599	79,898	-0,064	-0,050
-270,584	58,422	0,056	-0,040
-269,570	31,855	-0,036	-0,022
-268,555	-200,000	0,013	-0,057
-267,540	800,000	-0,034	0,075
-266,526	82,498	-0,079	-0,062
-265,511	-27,411	0,073	0,030
-264,497	283,856	0,108	-0,141
-263,482	800,000	-0,043	0,105
-262,467	134,087	-0,149	-0,140
-261,453	800,000	0,038	-0,076
-260,438	-200,000	0,001	0,036
-259,424	14,942	0,093	-0,052
-258,409	-3,142	0,036	0,018
-257,395	78,549	-0,049	-0,038
-256,380	114,952	0,089	0,079
-255,365	800,000	-0,052	0,105
-254,351	-200,000	-0,002	-0,062
-253,336	386,307	-0,060	-0,089
-252,322	-200,000	0,021	-0,098
-251,307	800,000	0,016	-0,046
-250,292	130,927	0,045	-0,042
-249,278	83,735	0,075	0,059
-248,263	29,311	0,261	0,160
-247,249	-149,478	-0,245	-0,014
-246,234	-23,240	-0,033	-0,014
-245,219	-200,000	0,002	-0,045
-244,205	-200,000	-0,049	-0,171
-243,190	-59,228	-0,037	-0,012
-242,176	-91,282	-0,052	0,011
-241,161	-143,762	0,082	0,005
-240,146	768,691	0,028	-0,055
-239,132	800,000	-0,065	-0,168
-238,117	12,551	-0,148	-0,082
-237,103	610,119	0,040	-0,073
-236,088	800,000	0,032	-0,098
-235,073	40,939	0,050	0,033
-234,059	-14,222	0,015	-0,007
-233,044	-69,782	0,043	-0,012
-232,030	13,681	0,209	-0,117
-231,015	279,299	0,031	0,040
-230,000	96,125	-0,068	-0,056
-228,986	-54,743	-0,033	0,011
-227,971	76,379	0,043	0,033
-226,957	68,838	0,108	0,080
-225,942	-131,792	0,043	0,004
-224,927	-25,792	0,030	0,013
-223,913	565,380	-0,063	0,111
-222,898	-200,000	0,010	0,061
-221,884	-181,555	0,063	-0,001
-220,869	88,718	0,153	-0,123
-219,855	84,651	0,024	-0,019
-218,840	4,957	-0,078	-0,041
-217,825	1,226	-0,083	-0,043
-216,811	301,395	0,087	0,116
-215,796	-200,000	0,005	0,040
-214,782	-135,233	-0,142	-0,012
-213,767	-166,512	0,037	-0,001
-212,752	-142,222	0,156	-0,011
-211,738	-51,780	0,147	-0,049
-210,723	-200,000	0,004	-0,126
-209,709	800,000	-0,048	-0,133
-208,694	-115,444	0,013	0,002
-207,679	171,574	-0,031	-0,032
-206,665	793,826	-0,082	0,164
-205,650	132,768	0,105	0,098
-204,636	353,743	0,033	-0,048
-203,621	-79,449	-0,093	0,023
-202,606	35,024	-0,022	-0,014
-201,592	-101,792	0,078	-0,013
-200,577	-200,000	-0,001	-0,039
-199,563	47,001	0,084	0,056
-198,548	117,399	-0,098	-0,087
-197,533	-200,000	0,030	-0,103
-196,519	-38,643	0,129	0,049
-195,504	287,634	0,039	-0,051
-194,490	800,000	-0,034	-0,071
-193,475	-76,543	-0,123	0,031
-192,460	-36,504	0,064	-0,025
-191,446	-108,572	-0,073	0,011
-190,431	-149,313	0,179	0,010
-189,417	-200,000	0,002	0,105
-188,402	686,030	0,096	-0,181
-187,387	-200,000	0,021	-0,088
-186,373	564,643	0,047	0,083
-185,358	-52,132	0,121	0,040
-184,344	358,652	0,086	-0,125
-183,329	-200,000	-0,009	-0,042
-182,315	-200,000	-0,003	0,019
-181,300	-14,047	-0,073	0,034
-180,285	-200,000	-0,014	-0,147
-179,271	104,008	0,033	-0,028
-178,256	-200,000	0,017	0,063
-177,242	-134,915	0,115	-0,010
-176,227	-200,000	0,005	0,174
-175,212	-200,000	0,019	0,122
-174,198	189,405	-0,017	0,019
-173,183	294,033	0,031	0,041
-172,169	800,000	0,042	-0,101
-171,154	-132,706	0,070	-0,006
-170,139	800,000	0,039	0,096
-169,125	-66,900	-0,037	-0,011
-168,110	-131,248	0,048	-0,005
-167,096	32,826	0,060	0,037
-166,081	708,945	0,021	-0,041
-165,066	219,060	-0,091	0,105
-164,052	115,817	-0,107	0,095
-163,037	427,559	0,070	0,110
-162,023	105,461	0,102	0,087
-161,008	32,567	0,033	-0,020
-159,993	71,773	-0,037	0,028
-158,979	1,156	0,071	0,037
-157,964	192,101	-0,126	-0,137
-156,950	5,026	-0,005	-0,003
-155,935	91,361	-0,070	-0,057
-154,920	-2,308	-0,037	0,019
-153,906	-188,372	0,038	-0,000
-152,891	-105,139	-0,052	0,009
-151,877	312,578	0,031	-0,043
-150,862	278,495	-0,004	-0,006
-149,847	629,763	-0,034	0,063
-148,833	-200,000	0,016	-0,089
-147,818	-107,873	0,090	-0,014
-146,804	800,000	-0,047	0,097
-145,789	743,466	-0,009	-0,017
-144,775	-200,000	0,019	-0,118
-143,760	-188,881	-0,088	0,001
-142,745	354,834	0,055	0,080
-141,731	800,000	-0,021	-0,054
-140,716	22,742	-0,117	0,069
-139,702	-200,000	0,016	0,161
-138,687	-200,000	0,066	0,229
-137,672	-200,000	0,007	0,037
-136,658	-17,863	-0,058	-0,026
-135,643	-200,000	-0,062	0,000
-134,629	800,000	-0,092	-0,217
-133,614	44,054	-0,020	-0,014
-132,599	-0,909	0,214	-0,109
-131,585	-68,785	-0,060	0,017
-130,570	228,280	-0,047	0,056
-129,556	800,000	0,021	-0,048
-128,541	-56,050	-0,041	-0,013
-127,526	-200,000	-0,013	0,111
-126,512	800,000	-0,010	0,022
-125,497	-36,925	-0,040	-0,015
-124,483	-200,000	0,009	-0,090
-123,468	271,755	-0,031	-0,040
-122,453	91,381	-0,142	-0,115
-121,439	342,076	-0,102	-0,144
-120,424	144,216	-0,067	-0,065
-119,410	782,664	-0,003	0,005
-118,395	-200,000	-0,014	0,070
-117,380	-200,000	0,004	-0,068
-116,366	46,241	0,094	0,063
-115,351	379,898	-0,044	0,065
-114,337	33,290	0,092	-0,057
-113,322	-41,680	0,060	-0,022
-112,307	-117,197	0,113	0,015
-111,293	68,609	0,032	-0,023
-110,278	800,000	-0,053	0,128
-109,264	800,000	0,028	-0,069
-108,249	124,271	0,052	-0,047
-107,234	775,055	-0,063	-0,124
-106,220	-60,762	-0,124	-0,038
-105,205	38,777	-0,036	-0,023
-104,191	239,234	0,093	-0,112
-103,176	13,180	0,011	-0,006
-102,162	-190,968	-0,163	-0,001
-101,147	253,266	-0,057	0,070
-100,132	185,973	0,031	0,033
-99,118	412,372	-0,024	-0,037
-98,103	776,207	0,057	-0,112
-97,089	-200,000	0,015	-0,049
-96,074	209,420	-0,080	0,091
-95,059	-200,000	-0,012	-0,050
-94,045	611,258	0,041	-0,074
-93,030	386,474	-0,021	-0,032
-92,016	-200,000	0,001	-0,206
-91,001	800,000	0,015	0,046
-89,986	800,000	0,023	-0,063
-88,972	-136,053	0,023	0,002
-87,957	-64,616	0,107	-0,031
-86,943	-39,436	0,204	0,076
-85,928	800,000	-0,004	-0,009
-84,913	11,464	0,070	-0,038
-83,899	-64,649	-0,120	-0,035
-82,884	-15,127	-0,066	0,030
-81,870	-200,000	-0,010	-0,105
-80,855	177,246	0,037	0,039
-79,840	421,546	0,020	0,031
-78,826	800,000	0,019	0,048
-77,811	800,000	0,012	-0,035
-76,797	294,712	0,150	0,198
-75,782	-102,488	-0,059	-0,010
-74,767	-129,065	0,070	-0,007
-73,753	231,068	-0,092	-0,109
-72,738	137,646	0,043	-0,040
-71,724	28,609	-0,077	0,047
-70,709	-200,000	0,024	-0,078
-69,694	-121,867	-0,062	0,007
-68,680	108,711	0,138	0,119
-67,665	-40,311	0,133	-0,049
-66,651	-67,480	-0,052	0,015
-65,636	630,994	0,009	0,016
-64,622	578,175	0,055	0,098
-63,607	19,763	-0,085	0,049
-62,592	800,000	0,006	-0,016
-61,578	800,000	-0,077	-0,197
-60,563	79,608	0,049	0,037
-59,549	-200,000	0,016	0,125
-58,534	83,763	-2,472	-1,936
-57,519	54,325	0,291	-0,201
-56,505	-200,000	-1,644	-5,525
-55,490	399,908	1,083	1,635
-54,476	800,000	5,312	11,400
-53,461	-200,000	21,837	344,770
-52,446	800,000	761,286	2311,496
-51,432	518,612	1653,114	2790,259
-50,417	103,871	1618,037	1364,909
-49,403	73,433	1273,527	956,327
-48,388	25,412	1022,045	608,752
-47,373	19,308	988,335	568,463
-46,359	13,449	975,720	541,939
-45,344	9,408	972,149	526,653
-44,330	9,854	970,292	527,091
-43,315	8,772	968,549	522,574
-42,300	8,698	967,336	521,656
-41,286	8,712	966,288	521,115
-40,271	8,674	965,206	520,385
-39,257	8,676	964,558	520,024
-38,242	8,717	963,388	519,506
-37,227	8,720	962,716	519,132
-36,213	8,676	962,043	518,606
-35,198	8,632	961,228	518,002
-34,184	8,735	960,283	517,809
-33,169	8,705	959,294	517,157
-32,154	8,705	958,516	516,716
-31,140	8,691	957,648	516,183
-30,125	8,743	956,686	515,811
-29,111	8,671	956,060	515,220
-28,096	8,731	955,339	515,005
-27,082	8,755	954,716	514,727
-26,067	8,672	954,076	514,094
-25,052	8,753	953,040	513,775
-24,038	8,679	952,481	513,216
-23,023	8,744	951,563	512,911
-22,009	8,739	951,174	512,663
-20,994	8,720	950,578	512,260
-19,979	8,768	949,870	512,014
-18,965	8,806	949,019	511,658
-17,950	8,725	948,897	511,312
-16,936	8,708	947,911	510,706
-15,921	8,680	947,520	510,383
-14,906	8,686	946,504	509,834
-13,892	8,599	945,983	509,256
-12,877	8,581	945,431	508,881
-11,863	8,574	944,655	508,421
-10,848	8,597	944,157	508,206
-9,833	8,681	943,762	508,243
-8,819	8,605	943,098	507,622
-7,804	8,589	942,396	507,173
-6,790	8,587	941,910	506,884
-5,775	8,650	941,150	506,655
-4,760	8,633	940,593	506,283
-3,746	8,631	940,120	506,001
-2,731	8,472	939,214	504,989
-1,717	8,466	938,794	504,723
-0,702	8,448	937,958	504,195
0,313	8,308	937,275	504,146
1,327	11,674	935,205	513,641
2,342	20,463	783,537	453,481
3,356	15,692	450,296	253,374
4,371	-10,616	313,387	148,284
5,386	-14,369	295,650	136,075
6,400	-16,306	289,565	131,337
7,415	-16,512	286,928	129,927
8,429	-17,131	285,209	128,530
9,444	-17,220	284,173	127,965
10,459	-17,336	283,855	127,697
11,473	-17,069	282,895	127,514
12,488	-17,187	282,413	127,171
13,502	-17,340	282,183	126,908
14,517	-17,340	281,636	126,650
15,531	-17,280	281,103	126,457
16,546	-17,120	280,731	126,433
17,561	-17,274	280,506	126,172
18,575	-17,152	279,953	126,029
19,590	-17,293	279,691	125,765
20,604	-17,167	279,272	125,685
21,619	-17,286	278,904	125,395
22,634	-17,137	278,638	125,407
23,648	-17,392	278,365	125,029
24,663	-17,197	277,940	125,014
25,677	-17,166	277,755	124,948
26,692	-17,187	277,412	124,763
27,707	-17,134	277,329	124,765
28,721	-17,166	276,908	124,534
29,736	-17,232	276,654	124,346
30,750	-17,127	276,437	124,337
31,765	-17,287	276,218	124,076
32,780	-17,300	275,977	123,944
33,794	-17,065	275,574	123,974
34,809	-17,230	275,480	123,765
35,823	-17,267	275,262	123,621
36,838	-17,196	274,926	123,526
37,853	-17,198	274,626	123,379
38,867	-17,181	274,383	123,274
39,882	-17,180	274,206	123,185
40,896	-17,080	273,960	123,157
41,911	-17,169	273,759	122,973
42,926	-16,987	273,385	122,963
43,940	-17,233	273,178	122,629
44,955	-17,116	273,051	122,671
45,969	-17,164	272,650	122,435
46,984	-17,110	272,497	122,405
47,999	-17,142	272,288	122,271
49,013	-16,966	272,195	122,382
50,028	-17,024	272,062	122,258
51,042	-17,012	271,815	122,147
52,057	-17,141	271,334	121,800
53,071	-17,189	271,379	121,765
54,086	-17,160	271,001	121,611
55,101	-17,228	270,719	121,411
56,115	-17,129	270,592	121,434
57,130	-17,026	270,375	121,422
58,144	-17,198	269,963	121,067
59,159	-17,167	269,754	120,992
60,174	-17,200	269,531	120,850
61,188	-17,267	269,279	120,665
62,203	-17,195	269,072	120,628
63,217	-16,933	268,704	120,692
64,232	-17,085	268,668	120,526
65,247	-17,284	268,281	120,159
66,261	-17,164	268,128	120,189
67,276	-17,091	267,879	120,134
68,290	-17,137	267,806	120,049
69,305	-17,160	267,613	119,930
70,320	-17,057	267,458	119,944
71,334	-17,134	267,164	119,732
72,349	-16,985	266,767	119,678
73,363	-17,065	266,589	119,515
74,378	-17,025	266,293	119,408
75,393	-17,115	266,259	119,301
76,407	-17,159	265,921	119,098
77,422	-17,215	265,865	119,013
78,436	-16,967	265,451	119,040
79,451	-17,093	265,334	118,863
80,466	-17,120	265,006	118,682
81,480	-17,067	264,800	118,626
82,495	-17,072	264,516	118,484
83,509	-16,842	264,348	118,606
84,524	-16,989	264,167	118,382
85,539	-16,874	263,968	118,385
86,553	-17,025	263,889	118,204
87,568	-17,194	263,557	117,892
88,582	-17,004	263,322	117,947
89,597	-16,951	263,101	117,885
90,611	-17,118	262,994	117,677
91,626	-17,064	262,808	117,632
92,641	-17,084	262,449	117,443
93,655	-17,058	262,362	117,417
94,670	-17,042	262,046	117,279
95,684	-16,978	261,947	117,282
96,699	-17,245	261,858	116,993
97,714	-17,115	261,586	116,976
98,728	-17,153	261,304	116,807
99,743	-16,951	261,061	116,867
100,757	-16,981	260,963	116,786
101,772	-17,034	260,631	116,580
102,787	-17,026	260,269	116,414
103,801	-17,077	260,268	116,358
104,816	-17,099	259,977	116,198
105,830	-17,093	259,890	116,156
106,845	-16,931	259,763	116,231
107,860	-17,016	259,462	116,011
108,874	-17,157	259,207	115,762
109,889	-16,915	258,863	115,811
110,903	-16,950	258,599	115,652
111,918	-17,121	258,674	115,525
112,933	-17,058	258,514	115,498
113,947	-16,978	258,185	115,411
114,962	-16,979	257,988	115,312
115,976	-17,054	257,807	115,156
116,991	-17,070	257,489	114,989
118,006	-16,975	257,522	115,077
119,020	-17,117	257,391	114,884
120,035	-16,956	257,134	114,899
121,049	-17,030	257,034	114,780
122,064	-17,173	256,811	114,546
123,079	-17,073	256,588	114,523
124,093	-17,102	256,390	114,399
125,108	-17,047	256,212	114,357
126,122	-16,836	255,874	114,379
127,137	-17,032	255,881	114,202
128,151	-17,040	255,497	114,014
129,166	-16,971	255,423	114,030
130,181	-17,102	255,125	113,774
131,195	-17,066	254,902	113,695
132,210	-16,882	254,608	113,713
133,224	-17,021	254,457	113,515
134,239	-16,903	254,265	113,521
135,254	-16,963	254,119	113,395
136,268	-16,992	253,974	113,295
137,283	-16,949	253,666	113,184
138,297	-17,070	253,614	113,046
139,312	-17,094	253,186	112,825
140,327	-17,064	253,243	112,866
141,341	-16,956	252,843	112,770
142,356	-17,054	252,791	112,654
143,370	-16,896	252,495	112,647
144,385	-16,926	252,417	112,576
145,400	-16,844	252,053	112,473
146,414	-17,019	251,926	112,258
147,429	-16,986	251,690	112,170
148,443	-16,917	251,554	112,159
149,458	-16,964	251,368	112,026
150,473	-17,026	251,385	111,971
151,487	-16,960	251,024	111,856
152,502	-17,055	250,881	111,702
153,516	-17,234	250,829	111,516
154,531	-17,092	250,659	111,551
155,546	-16,907	250,186	111,488
156,560	-16,870	250,027	111,438
157,575	-16,999	249,849	111,240
158,589	-16,881	249,583	111,211
159,604	-17,054	249,428	110,986
160,619	-16,959	249,280	110,990
161,633	-17,076	249,181	110,838
162,648	-16,958	249,063	110,874
163,662	-16,793	248,905	110,934
164,677	-16,868	248,675	110,758
165,692	-16,950	248,496	110,599
166,706	-17,016	248,418	110,499
167,721	-16,971	248,170	110,418
168,735	-16,919	247,976	110,365
169,750	-16,854	247,909	110,379
170,764	-16,950	247,610	110,156
171,779	-16,794	247,577	110,262
172,794	-16,972	247,377	110,014
173,808	-16,907	247,132	109,950
174,823	-17,046	247,047	109,786
175,837	-17,022	246,817	109,694
176,852	-17,055	246,644	109,580
177,867	-16,995	246,512	109,562
178,881	-16,760	246,254	109,632
179,896	-17,003	246,146	109,373
180,910	-16,862	245,918	109,379
181,925	-16,860	245,741	109,292
182,940	-16,964	245,594	109,131
183,954	-16,971	245,448	109,050
184,969	-16,942	245,310	109,003
185,983	-16,774	245,022	109,005
186,998	-16,795	244,829	108,892
188,013	-16,955	244,658	108,673
189,027	-16,976	244,603	108,622
190,042	-17,042	244,363	108,451
191,056	-16,894	244,095	108,445
192,071	-16,999	244,017	108,314
193,086	-16,768	243,786	108,392
194,100	-16,720	243,541	108,313
195,115	-16,966	243,579	108,117
196,129	-16,993	243,250	107,940
197,144	-16,884	243,037	107,925
198,159	-16,963	242,765	107,730
199,173	-16,749	242,612	107,827
200,188	-17,050	242,648	107,588
201,202	-16,705	242,410	107,755
202,217	-17,095	242,325	107,388
203,232	-16,813	241,979	107,456
204,246	-16,921	241,924	107,334
205,261	-16,805	241,484	107,223
206,275	-15,566	241,998	108,453
207,290	-10,487	243,781	113,414
208,304	-4,513	245,668	119,216
209,319	-1,726	246,147	121,737
210,334	-0,927	246,633	122,627
211,348	0,203	246,881	123,674
212,363	0,899	246,927	124,260
213,377	1,137	246,836	124,400
214,392	1,352	246,863	124,580
215,407	1,615	246,649	124,678
216,421	1,902	246,669	124,913
217,436	2,139	246,314	124,917
218,450	1,861	246,237	124,639
219,465	1,573	246,114	124,329
220,480	1,725	245,983	124,377
221,494	1,605	245,670	124,109
222,509	1,266	245,473	123,720
223,523	1,063	245,157	123,383
224,538	1,020	244,960	123,238
225,553	0,911	244,735	123,024
226,567	0,874	244,595	122,913
227,582	0,878	244,441	122,828
228,596	0,888	244,202	122,705
229,611	0,930	244,126	122,690
230,626	0,638	244,077	122,416
231,640	0,726	243,882	122,379
232,655	0,840	243,654	122,347
233,669	0,826	243,435	122,214
234,684	0,596	243,405	122,002
235,699	0,951	243,220	122,187
236,713	1,011	243,060	122,143
237,728	0,989	242,812	121,991
238,742	0,848	242,718	121,819
239,757	0,730	242,636	121,671
240,772	0,776	242,423	121,590
241,786	0,861	242,226	121,549
242,801	0,689	242,229	121,401
243,815	0,745	241,951	121,296
244,830	0,894	241,781	121,320
245,844	0,800	241,659	121,172
246,859	0,887	241,351	121,077
247,874	0,906	241,337	121,074
248,888	0,798	241,112	120,864
249,903	0,728	240,932	120,707
250,917	0,899	240,968	120,851
251,932	1,094	240,750	120,888
252,947	0,979	240,444	120,632
253,961	0,708	240,448	120,405
254,976	0,846	240,117	120,339
255,990	1,042	239,936	120,394
257,005	1,157	239,810	120,413
258,020	0,968	239,746	120,218
259,034	1,044	239,499	120,144
260,049	0,799	239,455	119,916
261,063	1,046	239,216	119,983
262,078	0,941	239,059	119,810
263,093	0,881	238,945	119,694
264,107	0,891	238,850	119,644
265,122	0,808	238,721	119,502
266,136	0,885	238,596	119,490
267,151	0,869	238,359	119,349
268,166	0,858	238,251	119,275
269,180	0,919	238,047	119,210
270,195	0,846	237,783	119,010
271,209	0,878	237,690	118,978
272,224	1,052	237,477	118,999
273,239	0,897	237,416	118,835
274,253	0,839	237,314	118,727
275,268	0,916	237,173	118,707
276,282	0,876	237,000	118,578
277,297	0,709	236,940	118,406
278,312	0,977	236,576	118,425
279,326	0,741	236,467	118,173
280,341	0,871	236,279	118,171
281,355	0,863	236,170	118,100
282,370	0,859	236,070	118,036
283,384	0,948	235,988	118,055
284,399	0,942	235,647	117,869
285,414	0,756	235,561	117,670
286,428	0,882	235,374	117,664
287,443	0,876	235,233	117,579
288,457	0,934	235,040	117,517
289,472	0,961	234,906	117,460
290,487	1,084	234,707	117,447
291,501	0,908	234,647	117,269
292,516	0,941	234,545	117,233
293,530	1,035	234,486	117,267
294,545	0,926	234,253	117,054
295,560	0,969	234,175	117,039
296,574	0,858	233,951	116,830
297,589	1,159	233,747	116,952
298,603	1,156	233,608	116,869
299,618	0,901	233,597	116,655
300,633	1,141	233,289	116,677
301,647	1,057	233,260	116,587
302,662	1,088	233,180	116,561
303,676	0,961	232,889	116,307
304,691	1,056	232,777	116,314
305,706	1,167	232,637	116,319
306,720	1,231	232,582	116,331
307,735	1,145	232,279	116,102
308,749	1,139	232,193	116,045
309,764	0,977	232,091	115,859
310,779	1,172	231,876	115,890
311,793	1,028	231,752	115,708
312,808	1,045	231,476	115,572
313,822	1,190	231,239	115,555
314,837	1,210	231,296	115,588
315,852	1,165	231,101	115,446
316,866	1,102	230,969	115,322
317,881	1,249	230,888	115,383
318,895	1,259	230,592	115,233
319,910	1,322	230,502	115,226
320,925	1,281	230,372	115,120
321,939	1,213	230,281	115,012
322,954	1,188	230,179	114,931
323,968	1,197	230,017	114,847
324,983	0,973	230,000	114,658
325,997	1,076	229,806	114,629
327,012	1,232	229,544	114,607
328,027	0,942	229,390	114,300
329,041	1,136	229,154	114,319
330,056	1,099	229,172	114,290
331,070	1,114	229,061	114,235
332,085	0,951	228,876	114,009
333,100	1,409	228,608	114,212
334,114	1,311	228,335	113,992
335,129	1,225	228,353	113,926
336,143	1,192	228,166	113,797
337,158	1,355	228,025	113,840
338,173	1,280	227,858	113,689
339,187	1,205	227,841	113,615
340,202	1,065	227,674	113,416
341,216	1,164	227,479	113,383
342,231	0,989	227,372	113,188
343,246	1,248	227,126	113,250
344,260	1,213	227,055	113,178
345,275	1,335	226,935	113,200
346,289	1,190	226,788	113,008
347,304	1,144	226,653	112,896
348,319	1,362	226,479	112,963
349,333	1,273	226,366	112,829
350,348	1,221	226,153	112,674
351,362	1,333	226,009	112,676
352,377	1,112	225,920	112,456
353,392	1,248	225,797	112,487
354,406	1,467	225,549	112,517
355,421	190,987	1313,072	1375,874
356,435	152,931	1445,446	1375,733
