DTS Sentinel unit serial number:	SN410029Multiplexer serial number:	ORYXHardware model number:	OX2-SRSoftware version number:	ORYX F/W v4,00 Oryx Data Collector v3.7.2.0data status	okinstallation	B5 Nyhavnadifferential loss correction	single-endedforward channel	channel 2reverse channel	N/Adate	2023/12/12time	04:37:13forward acquisition time	300,00reverse acquisition time	0,00gamma	499,1914k internal	0,3157k external	0,3157temperature offset calibration	1,0000default loss term (dB/km)	0,3820temperature slope calibration	1,0000multiplexer offset coefficient	1,0000multiplexer slope coefficient	1,0000fibre end	0,00T internal ref (°C)	15,47T ext. ref 1 (°C)	-0,96T ext. ref 2 (°C)	-1,26length (m)	temperature (°C)	Stokes	anti-Stokes-744,400	-155,810	0,131	0,006
-743,385	-90,109	-0,246	-0,052
-742,371	70,274	0,116	0,088
-741,356	-31,007	-0,254	0,105
-740,342	800,000	0,055	0,166
-739,327	315,336	-0,105	0,146
-738,312	470,933	0,070	0,117
-737,298	-123,401	-0,297	-0,034
-736,283	-34,352	0,046	0,019
-735,269	-12,585	-0,309	0,148
-734,254	-33,122	0,115	-0,047
-733,239	-65,722	-0,531	-0,156
-732,225	-81,888	0,179	0,043
-731,210	214,657	-0,035	0,040
-730,196	800,000	-0,019	-0,046
-729,181	525,263	-0,046	0,080
-728,167	342,300	0,009	-0,012
-727,152	-200,000	0,013	-0,104
-726,137	-200,000	0,007	-0,030
-725,123	172,592	-0,091	0,097
-724,108	64,264	-0,127	-0,094
-723,094	67,204	-0,065	-0,049
-722,079	289,033	-0,129	-0,173
-721,064	-100,749	0,053	0,010
-720,050	-200,000	-0,012	-0,116
-719,035	391,781	0,040	0,062
-718,021	155,104	0,037	0,038
-717,006	-1,778	-0,074	-0,038
-715,991	800,000	-0,044	-0,140
-714,977	-27,558	-0,066	-0,028
-713,962	308,956	0,065	0,089
-712,948	53,761	-0,095	0,067
-711,933	-10,062	-0,119	0,058
-710,918	238,240	-0,109	0,133
-709,904	-200,000	0,002	-0,016
-708,889	422,262	-0,092	-0,146
-707,875	-200,000	-0,012	-0,084
-706,860	151,678	0,071	-0,071
-705,845	80,012	0,122	0,097
-704,831	-200,000	0,018	0,078
-703,816	-43,405	-0,031	0,012
-702,802	7,139	0,022	0,012
-701,787	800,000	0,042	-0,093
-700,772	167,671	0,072	0,076
-699,758	96,417	-0,105	0,088
-698,743	423,082	-0,036	-0,057
-697,729	-53,748	0,048	-0,016
-696,714	122,772	-0,083	0,077
-695,699	128,599	-0,020	0,019
-694,685	-149,364	-0,109	-0,006
-693,670	-159,587	0,072	-0,003
-692,656	75,957	-0,075	-0,059
-691,641	-200,000	-0,004	0,033
-690,627	617,233	-0,039	-0,073
-689,612	-9,413	-0,141	0,069
-688,597	222,493	-0,081	0,096
-687,583	-200,000	-0,004	-0,033
-686,568	27,003	0,121	0,074
-685,554	-160,688	-0,093	0,004
-684,539	47,957	-0,088	-0,060
-683,524	-27,276	0,073	0,031
-682,510	489,139	-0,035	0,059
-681,495	-19,213	-0,090	-0,041
-680,481	-3,105	-0,114	0,058
-679,466	-200,000	0,008	-0,084
-678,451	-88,088	-0,111	0,024
-677,437	-167,563	0,042	0,001
-676,422	800,000	0,072	-0,152
-675,408	-72,555	-0,205	-0,055
-674,393	-200,000	-0,028	0,169
-673,378	-109,841	-0,149	0,023
-672,364	502,401	0,021	-0,035
-671,349	-200,000	-0,051	0,000
-670,335	-66,703	-0,060	-0,017
-669,320	-105,582	-0,101	-0,017
-668,305	-168,211	-0,054	0,002
-667,291	220,894	0,042	-0,050
-666,276	672,304	-0,054	-0,103
-665,262	-200,000	-0,017	-0,079
-664,247	145,188	0,092	-0,090
-663,232	-133,167	-0,081	-0,007
-662,218	-120,390	0,135	-0,017
-661,203	800,000	-0,066	0,173
-660,189	-200,000	-0,010	0,042
-659,174	-28,564	-0,130	-0,055
-658,159	-21,456	0,064	0,029
-657,145	-113,320	-0,107	0,015
-656,130	-200,000	0,006	-0,049
-655,116	800,000	-0,028	-0,074
-654,101	17,972	-0,088	-0,051
-653,086	448,212	-0,027	0,043
-652,072	123,635	-0,076	0,070
-651,057	-200,000	0,040	-0,198
-650,043	-68,912	-0,105	-0,030
-649,028	-61,390	-0,071	0,022
-648,014	63,682	0,124	0,091
-646,999	88,038	0,058	0,047
-645,984	800,000	-0,045	-0,109
-644,970	59,054	0,101	0,073
-643,955	-200,000	-0,008	0,049
-642,941	-54,680	-0,071	-0,023
-641,926	-80,496	-0,045	0,011
-640,911	75,573	0,111	0,086
-639,897	44,755	-0,016	0,011
-638,882	-200,000	-0,015	0,069
-637,868	-137,171	0,021	-0,002
-636,853	570,714	0,043	-0,077
-635,838	83,064	-0,056	0,045
-634,824	-66,160	-0,047	-0,014
-633,809	221,225	0,131	-0,155
-632,795	281,875	0,060	0,079
-631,780	-135,503	-0,076	0,007
-630,765	24,185	-0,049	0,030
-629,751	-24,226	-0,166	0,072
-628,736	31,827	-0,073	0,046
-627,722	156,461	-0,070	0,071
-626,707	-155,703	-0,078	0,004
-625,692	800,000	-0,021	-0,062
-624,678	-151,713	0,086	0,005
-623,663	-28,070	-0,096	0,040
-622,649	291,338	-0,082	-0,110
-621,634	-153,227	0,058	0,003
-620,619	-200,000	0,003	-0,079
-619,605	-200,000	0,022	0,169
-618,590	455,234	0,052	-0,085
-617,576	-146,133	0,064	-0,004
-616,561	-200,000	-0,004	-0,103
-615,546	-200,000	0,003	-0,041
-614,532	-200,000	-0,014	-0,056
-613,517	-200,000	0,021	-0,116
-612,503	-170,008	-0,026	0,001
-611,488	618,106	0,064	-0,118
-610,474	71,148	0,086	0,065
-609,459	266,065	-0,074	0,094
-608,444	516,455	0,024	-0,041
-607,430	800,000	-0,043	-0,136
-606,415	-200,000	-0,025	-0,096
-605,401	-79,019	0,114	-0,028
-604,386	800,000	-0,024	0,057
-603,371	10,973	-0,093	-0,052
-602,357	-200,000	0,011	-0,091
-601,342	-200,000	-0,008	-0,109
-600,328	184,926	0,036	0,039
-599,313	14,601	0,067	0,038
-598,298	-2,618	-0,042	-0,021
-597,284	675,567	-0,040	0,077
-596,269	-200,000	0,002	0,020
-595,255	-70,474	-0,107	-0,029
-594,240	800,000	-0,009	0,019
-593,225	-200,000	-0,014	-0,146
-592,211	55,671	-0,145	-0,103
-591,196	448,136	0,050	0,080
-590,182	-60,673	0,176	0,054
-589,167	-200,000	-0,008	0,055
-588,152	23,296	0,074	0,045
-587,138	148,813	-0,085	0,085
-586,123	-200,000	0,011	-0,118
-585,109	-85,190	-0,120	-0,027
-584,094	-68,558	0,145	-0,041
-583,079	18,039	0,144	-0,084
-582,065	437,875	0,037	0,060
-581,050	264,639	-0,074	0,095
-580,036	129,501	0,186	0,174
-579,021	-132,147	0,071	0,007
-578,006	-68,082	-0,131	-0,037
-576,992	272,516	0,130	-0,169
-575,977	22,493	0,070	0,042
-574,963	-200,000	-0,011	-0,135
-573,948	131,338	0,034	-0,032
-572,934	-200,000	-0,005	-0,069
-571,919	-26,870	-0,154	-0,065
-570,904	800,000	-0,006	-0,017
-569,890	488,202	0,029	0,048
-568,875	22,184	-0,121	0,072
-567,861	800,000	0,037	-0,098
-566,846	150,042	0,095	0,095
-565,831	-71,592	0,017	0,005
-564,817	-200,000	0,002	-0,096
-563,802	551,822	-0,062	-0,109
-562,788	-200,000	0,032	0,223
-561,773	33,940	0,049	0,031
-560,758	-155,399	-0,030	-0,001
-559,744	-200,000	-0,025	-0,099
-558,729	-79,768	-0,088	0,022
-557,715	181,654	-0,054	-0,058
-556,700	439,514	0,035	0,057
-555,685	280,546	0,027	-0,036
-554,671	-200,000	-0,004	-0,086
-553,656	67,495	0,010	0,007
-552,642	-200,000	0,021	0,081
-551,627	-134,239	0,047	-0,004
-550,612	800,000	-0,034	0,071
-549,598	-40,382	-0,083	-0,031
-548,583	233,955	-0,072	-0,087
-547,569	800,000	-0,007	-0,015
-546,554	-57,705	0,142	-0,045
-545,539	-24,803	-0,023	0,010
-544,525	69,483	0,086	0,064
-543,510	800,000	0,033	-0,097
-542,496	598,925	-0,061	-0,111
-541,481	603,715	0,074	-0,135
-540,466	-200,000	0,018	0,085
-539,452	197,456	0,072	-0,080
-538,437	139,346	0,045	-0,043
-537,423	-200,000	-0,016	0,100
-536,408	554,585	-0,102	-0,181
-535,393	336,334	-0,083	-0,118
-534,379	800,000	-0,063	0,170
-533,364	-200,000	0,005	0,071
-532,350	-47,694	0,121	-0,043
-531,335	-71,607	0,072	-0,020
-530,321	-200,000	-0,004	-0,027
-529,306	551,032	0,072	-0,127
-528,291	133,933	0,083	-0,078
-527,277	-120,066	-0,132	-0,016
-526,262	800,000	0,038	0,078
-525,248	-168,912	0,170	0,005
-524,233	800,000	0,014	-0,037
-523,218	-167,282	0,090	0,003
-522,204	-188,655	-0,085	-0,001
-521,189	53,320	0,080	0,056
-520,175	-6,607	-0,095	-0,047
-519,160	800,000	0,022	-0,049
-518,145	-50,932	-0,051	0,017
-517,131	260,356	-0,066	0,083
-516,116	135,553	-0,080	0,076
-515,102	-200,000	0,002	0,077
-514,087	743,711	-0,064	-0,126
-513,072	-200,000	0,000	-0,099
-512,058	614,890	-0,056	0,103
-511,043	-31,793	0,031	0,013
-510,029	-39,564	-0,059	-0,023
-509,014	325,360	0,059	0,083
-507,999	-19,185	0,153	0,069
-506,985	228,471	0,024	0,029
-505,970	-200,000	-0,021	0,093
-504,956	800,000	-0,072	-0,153
-503,941	-38,316	-0,165	0,063
-502,926	74,985	0,080	-0,061
-501,912	-200,000	0,006	-0,077
-500,897	-6,447	0,057	0,028
-499,883	-128,931	0,081	0,008
-498,868	-200,000	-0,005	-0,026
-497,853	800,000	-0,032	-0,081
-496,839	-13,655	0,057	-0,027
-495,824	-49,040	-0,068	-0,024
-494,810	-52,348	0,103	0,034
-493,795	109,910	0,064	-0,056
-492,781	-11,571	-0,065	-0,031
-491,766	-200,000	0,022	0,083
-490,751	-27,243	0,080	0,034
-489,737	-59,295	-0,137	-0,043
-488,722	379,669	-0,039	0,059
-487,708	686,364	-0,041	0,078
-486,693	-73,430	0,103	0,027
-485,678	800,000	0,033	-0,098
-484,664	59,937	-0,045	-0,032
-483,649	-120,865	-0,063	-0,008
-482,635	-200,000	0,008	-0,071
-481,620	-200,000	0,007	0,080
-480,605	800,000	-0,021	-0,054
-479,591	-68,489	0,051	0,014
-478,576	800,000	-0,021	-0,052
-477,562	800,000	0,036	0,084
-476,547	-79,526	-0,118	-0,029
-475,532	306,703	0,061	0,083
-474,518	800,000	0,039	0,116
-473,503	-200,000	-0,038	0,216
-472,489	800,000	0,031	0,068
-471,474	800,000	-0,036	0,083
-470,459	-200,000	-0,004	-0,111
-469,445	703,729	-0,052	-0,101
-468,430	-120,218	-0,021	0,003
-467,416	637,933	0,080	0,148
-466,401	9,387	0,032	-0,018
-465,386	86,788	-0,046	0,037
-464,372	800,000	0,030	0,094
-463,357	-200,000	-0,012	-0,046
-462,343	327,220	0,040	-0,056
-461,328	-200,000	0,026	-0,184
-460,313	800,000	0,081	-0,173
-459,299	-200,000	0,026	0,146
-458,284	-80,565	0,061	-0,015
-457,270	800,000	0,039	0,090
-456,255	445,355	0,020	-0,033
-455,241	-200,000	-0,018	-0,129
-454,226	66,834	0,055	0,041
-453,211	22,076	0,028	0,017
-452,197	96,376	0,117	0,098
-451,182	800,000	0,068	0,155
-450,168	42,040	-0,015	0,010
-449,153	-200,000	0,023	-0,139
-448,138	-200,000	0,050	0,175
-447,124	733,338	-0,045	-0,088
-446,109	160,339	-0,127	0,129
-445,095	800,000	-0,011	-0,025
-444,080	-200,000	0,004	0,129
-443,065	800,000	-0,011	0,029
-442,051	-64,122	0,023	0,007
-441,036	18,048	0,108	-0,062
-440,022	-97,897	-0,053	0,010
-439,007	302,965	0,095	0,128
-437,992	466,629	0,082	-0,134
-436,978	285,456	0,066	-0,087
-435,963	-49,384	-0,093	0,032
-434,949	-200,000	-0,017	0,073
-433,934	61,918	0,144	0,104
-432,919	-200,000	-0,029	-0,155
-431,905	555,780	0,033	0,059
-430,890	-200,000	0,018	0,079
-429,876	127,035	0,132	0,122
-428,861	445,573	-0,054	0,087
-427,846	375,123	-0,072	0,107
-426,832	-24,214	-0,085	-0,037
-425,817	264,949	-0,081	-0,104
-424,803	389,805	-0,050	-0,076
-423,788	800,000	-0,031	-0,067
-422,773	-154,562	0,126	-0,006
-421,759	348,514	0,033	-0,048
-420,744	-200,000	0,016	0,054
-419,730	0,656	-0,114	0,059
-418,715	-200,000	-0,001	-0,038
-417,701	-59,715	0,087	-0,027
-416,686	178,447	-0,074	-0,079
-415,671	-200,000	0,013	0,043
-414,657	-126,476	0,142	0,015
-413,642	51,286	-0,145	0,100
-412,628	20,643	0,031	0,018
-411,613	83,601	-0,087	0,069
-410,598	243,345	0,024	-0,029
-409,584	251,508	-0,040	-0,050
-408,569	42,387	0,069	-0,046
-407,555	-200,000	-0,030	-0,226
-406,540	211,957	-0,010	-0,011
-405,525	-200,000	-0,011	0,100
-404,511	317,638	0,062	0,086
-403,496	-200,000	-0,004	-0,093
-402,482	-50,699	-0,080	0,027
-401,467	800,000	0,046	-0,133
-400,452	104,111	-0,080	0,068
-399,438	228,233	0,027	0,032
-398,423	-200,000	-0,004	0,047
-397,409	-200,000	-0,023	-0,160
-396,394	108,641	0,041	0,035
-395,379	312,234	-0,106	-0,145
-394,365	411,461	0,022	0,035
-393,350	614,703	0,025	0,046
-392,336	-200,000	0,018	0,143
-391,321	-200,000	0,017	0,143
-390,306	640,515	-0,034	-0,062
-389,292	-60,899	-0,068	-0,021
-388,277	-83,392	0,061	0,014
-387,263	476,076	-0,080	0,132
-386,248	-172,881	0,059	0,001
-385,233	767,605	-0,096	0,192
-384,219	350,558	-0,041	-0,059
-383,204	800,000	0,060	-0,178
-382,190	-86,035	-0,098	0,022
-381,175	-89,544	-0,091	-0,019
-380,160	-200,000	0,019	-0,062
-379,146	645,852	-0,075	0,140
-378,131	1,601	0,031	-0,016
-377,117	-106,667	0,007	-0,001
-376,102	8,807	-0,169	0,092
-375,088	-200,000	0,035	0,121
-374,073	219,955	0,041	-0,048
-373,058	800,000	0,014	-0,038
-372,044	-4,096	0,046	-0,023
-371,029	23,109	-0,017	0,010
-370,015	-200,000	0,003	-0,167
-369,000	599,235	0,082	-0,148
-367,985	-53,413	-0,009	0,003
-366,971	718,305	0,046	-0,090
-365,956	46,304	-0,147	0,099
-364,942	-200,000	0,012	0,039
-363,927	-43,769	0,090	0,033
-362,912	-157,071	-0,057	-0,002
-361,898	137,449	0,074	-0,070
-360,883	-200,000	-0,034	-0,114
-359,869	122,208	0,087	-0,079
-358,854	84,979	-0,081	-0,065
-357,839	-200,000	0,001	0,051
-356,825	207,580	0,091	-0,104
-355,810	-123,705	0,087	-0,010
-354,796	-96,586	-0,067	0,013
-353,781	-17,924	-0,078	-0,035
-352,766	800,000	0,010	0,021
-351,752	-113,174	0,034	0,005
-350,737	-30,248	0,083	0,034
-349,723	-44,390	0,068	-0,025
-348,708	400,653	0,050	0,076
-347,693	185,813	0,159	0,172
-346,679	-38,887	0,044	0,017
-345,664	-35,322	0,126	-0,049
-344,650	-91,689	-0,070	0,014
-343,635	-200,000	0,006	0,069
-342,620	-200,000	0,004	0,100
-341,606	-18,121	-0,044	0,020
-340,591	-200,000	-0,001	-0,041
-339,577	-108,650	-0,031	0,005
-338,562	49,107	-0,073	-0,050
-337,548	-81,945	-0,125	-0,029
-336,533	77,915	0,127	0,098
-335,518	788,527	0,066	0,132
-334,504	-200,000	-0,009	0,081
-333,489	-200,000	-0,009	0,140
-332,475	-89,157	0,063	-0,013
-331,460	-6,533	-0,020	0,010
-330,445	800,000	0,017	-0,053
-329,431	101,342	0,044	0,037
-328,416	266,401	0,053	-0,067
-327,402	66,125	-0,065	-0,048
-326,387	441,734	-0,050	0,080
-325,372	311,309	0,005	-0,006
-324,358	441,296	-0,060	-0,096
-323,343	-85,826	-0,126	0,028
-322,329	-200,000	-0,009	0,082
-321,314	-163,975	0,101	0,003
-320,299	800,000	0,019	0,054
-319,285	-180,009	0,051	0,001
-318,270	19,643	-0,195	0,114
-317,256	-200,000	-0,017	0,117
-316,241	693,466	0,028	0,054
-315,226	632,423	-0,016	0,030
-314,212	132,492	0,064	0,060
-313,197	4,532	-0,013	-0,007
-312,183	107,231	0,056	-0,048
-311,168	-200,000	-0,003	0,064
-310,153	-200,000	0,002	0,068
-309,139	-200,000	-0,012	0,056
-308,124	19,188	0,096	-0,056
-307,110	462,811	0,049	0,079
-306,095	-63,424	0,157	-0,047
-305,080	610,605	-0,014	-0,026
-304,066	800,000	0,067	-0,178
-303,051	-27,624	-0,142	-0,059
-302,037	104,690	-0,089	-0,076
-301,022	168,465	0,093	-0,096
-300,008	800,000	-0,027	0,087
-298,993	157,956	0,098	0,099
-297,978	-53,238	-0,083	-0,028
-296,964	792,356	-0,055	0,110
-295,949	-59,804	-0,102	0,031
-294,935	-116,668	-0,138	0,018
-293,920	-200,000	0,030	0,121
-292,905	48,813	0,044	0,030
-291,891	800,000	0,024	0,057
-290,876	800,000	-0,005	0,012
-289,862	141,459	-0,048	-0,046
-288,847	-200,000	-0,004	-0,062
-287,832	-75,512	-0,079	0,020
-286,818	-119,484	0,147	-0,018
-285,803	-200,000	0,021	-0,108
-284,789	-153,451	0,092	0,005
-283,774	222,878	-0,024	-0,028
-282,759	-29,850	-0,126	-0,052
-281,745	-200,000	0,006	0,084
-280,730	26,210	-0,096	-0,058
-279,716	489,852	-0,007	-0,011
-278,701	-57,405	-0,117	0,037
-277,686	563,990	0,065	0,114
-276,672	218,116	-0,049	0,057
-275,657	57,184	0,060	0,042
-274,643	-24,427	-0,086	0,037
-273,628	-58,491	-0,107	0,033
-272,613	-200,000	0,000	0,092
-271,599	800,000	0,045	0,137
-270,584	-80,799	0,095	-0,023
-269,570	-30,252	-0,101	0,041
-268,555	-55,943	-0,102	-0,033
-267,540	-150,686	-0,057	-0,003
-266,526	-122,314	-0,025	-0,003
-265,511	230,326	-0,013	-0,016
-264,497	116,991	0,067	0,060
-263,482	76,041	0,072	-0,055
-262,467	-117,163	0,068	-0,009
-261,453	-16,616	-0,026	0,012
-260,438	800,000	0,021	0,044
-259,424	-110,961	0,101	0,015
-258,409	-18,003	-0,187	-0,085
-257,395	-105,844	-0,102	0,017
-256,380	800,000	-0,014	0,037
-255,365	241,466	-0,016	-0,019
-254,351	-84,930	0,064	0,014
-253,336	355,433	-0,020	-0,030
-252,322	13,440	-0,043	0,024
-251,307	160,648	0,024	-0,025
-250,292	800,000	-0,055	-0,156
-249,278	572,927	0,127	0,225
-248,263	-179,925	-0,093	0,001
-247,249	89,422	-0,102	0,082
-246,234	-200,000	-0,028	0,098
-245,219	-55,449	-0,099	0,032
-244,205	129,258	-0,106	-0,098
-243,190	203,055	0,086	-0,097
-242,176	-21,076	0,085	-0,037
-241,161	-185,637	-0,180	-0,002
-240,146	-200,000	0,017	0,068
-239,132	-200,000	-0,025	-0,150
-238,117	-200,000	0,018	-0,070
-237,103	-200,000	-0,008	-0,086
-236,088	-200,000	0,022	-0,071
-235,073	157,801	0,130	0,130
-234,059	-175,984	-0,109	-0,002
-233,044	-42,900	-0,044	0,016
-232,030	-154,148	0,041	0,002
-231,015	-122,295	-0,057	-0,007
-230,000	-56,820	-0,135	-0,043
-228,986	800,000	0,009	-0,021
-227,971	800,000	0,007	0,019
-226,957	-200,000	0,017	0,072
-225,942	-30,650	0,091	0,037
-224,927	175,461	-0,111	-0,117
-223,913	-200,000	-0,001	-0,081
-222,898	49,177	-0,136	-0,092
-221,884	560,244	0,021	-0,037
-220,869	375,159	0,030	0,044
-219,855	47,011	0,096	-0,064
-218,840	704,810	0,065	-0,124
-217,825	-200,000	0,007	-0,143
-216,811	800,000	-0,017	-0,053
-215,796	800,000	0,047	-0,136
-214,782	800,000	-0,038	-0,081
-213,767	-148,180	-0,051	-0,003
-212,752	11,561	0,163	0,090
-211,738	106,339	-0,039	0,034
-210,723	-200,000	0,019	0,106
-209,709	-38,206	0,054	0,020
-208,694	-200,000	0,011	-0,083
-207,679	800,000	-0,021	0,053
-206,665	-96,173	0,029	-0,005
-205,650	-64,608	0,132	0,038
-204,636	800,000	0,110	0,278
-203,621	-168,042	-0,118	0,003
-202,606	300,505	-0,049	-0,065
-201,592	-74,949	0,010	-0,003
-200,577	800,000	0,011	-0,027
-199,563	215,866	-0,026	-0,029
-198,548	10,705	0,101	-0,056
-197,533	336,332	0,063	-0,088
-196,519	-40,599	-0,158	-0,059
-195,504	22,885	-0,093	-0,055
-194,490	-200,000	-0,032	-0,146
-193,475	-200,000	0,026	-0,173
-192,460	110,124	-0,039	-0,034
-191,446	-187,554	-0,093	0,001
-190,431	800,000	-0,078	0,168
-189,417	262,491	0,057	0,071
-188,402	232,238	-0,052	-0,061
-187,387	-21,635	-0,152	-0,067
-186,373	800,000	0,037	0,087
-185,358	-200,000	-0,013	0,045
-184,344	183,562	0,168	0,180
-183,329	-200,000	0,015	0,048
-182,315	-200,000	0,016	0,123
-181,300	112,068	-0,008	0,007
-180,285	44,210	-0,103	-0,068
-179,271	-200,000	0,024	-0,137
-178,256	-83,500	-0,136	-0,031
-177,242	-34,030	0,051	0,020
-176,227	-131,875	-0,136	-0,013
-175,212	800,000	0,025	-0,058
-174,198	560,295	-0,035	0,060
-173,183	639,373	0,046	-0,085
-172,169	-42,642	-0,107	0,039
-171,154	265,230	0,046	-0,057
-170,139	46,408	-0,075	-0,050
-169,125	-113,833	0,063	0,009
-168,110	800,000	-0,044	0,112
-167,096	524,412	0,090	0,154
-166,081	800,000	0,036	0,095
-165,066	410,861	0,071	-0,109
-164,052	169,100	0,126	-0,129
-163,037	263,326	-0,025	-0,031
-162,023	-27,102	0,162	0,068
-161,008	800,000	-0,024	-0,061
-159,993	-200,000	-0,180	-0,000
-158,979	-200,000	0,000	0,076
-157,964	237,896	-0,124	-0,148
-156,950	800,000	0,012	-0,033
-155,935	177,025	-0,073	0,076
-154,920	-98,664	0,160	0,029
-153,906	-200,000	-0,001	-0,044
-152,891	-84,996	0,140	0,031
-151,877	20,711	0,055	-0,032
-150,862	-3,503	-0,101	0,050
-149,847	800,000	-0,030	0,080
-148,833	61,577	-0,077	-0,055
-147,818	-200,000	-0,029	0,146
-146,804	-31,148	0,116	-0,047
-145,789	49,190	0,126	0,085
-144,775	16,494	0,156	0,089
-143,760	-69,392	0,084	0,023
-142,745	620,649	-0,072	-0,130
-141,731	800,000	0,026	-0,067
-140,716	-144,727	0,109	-0,007
-139,702	208,662	-0,052	-0,059
-138,687	125,444	0,070	-0,064
-137,672	-200,000	0,013	-0,129
-136,658	-200,000	-0,013	-0,066
-135,643	800,000	0,034	-0,078
-134,629	800,000	-0,048	-0,121
-133,614	-200,000	0,008	0,075
-132,599	609,777	-0,033	-0,060
-131,585	-200,000	-0,030	0,140
-130,570	701,078	-0,055	0,104
-129,556	-200,000	0,000	-0,045
-128,541	-183,872	0,073	0,001
-127,526	205,263	-0,044	-0,050
-126,512	-200,000	-0,001	0,128
-125,497	47,349	0,086	0,057
-124,483	800,000	0,079	0,208
-123,468	-13,071	-0,062	-0,029
-122,453	-105,627	-0,102	0,016
-121,439	-200,000	0,010	-0,054
-120,424	800,000	-0,055	-0,141
-119,410	224,270	0,084	0,098
-118,395	-105,288	0,045	-0,007
-117,380	800,000	-0,066	0,167
-116,366	-200,000	-0,001	-0,034
-115,351	-95,631	0,049	-0,009
-114,337	10,551	0,085	-0,046
-113,322	-200,000	-0,000	0,067
-112,307	2,211	-0,104	0,054
-111,293	119,067	0,091	-0,081
-110,278	-100,565	-0,093	-0,016
-109,264	91,046	0,103	0,083
-108,249	88,835	-0,062	-0,050
-107,234	92,229	-0,071	-0,058
-106,220	222,862	-0,037	-0,043
-105,205	315,281	-0,015	0,021
-104,191	800,000	-0,036	-0,103
-103,176	-90,384	-0,039	0,008
-102,162	118,226	-0,066	-0,058
-101,147	800,000	-0,040	-0,125
-100,132	247,653	-0,058	-0,070
-99,118	-109,603	0,033	0,005
-98,103	119,522	0,099	0,088
-97,089	63,972	-0,147	0,106
-96,074	-200,000	0,044	0,156
-95,059	105,652	-0,127	0,108
-94,045	349,102	-0,024	-0,033
-93,030	-179,932	-0,020	-0,000
-92,016	-96,272	-0,039	0,007
-91,001	-146,943	0,059	0,004
-89,986	70,360	-0,073	0,054
-88,972	-135,097	0,099	0,008
-87,957	336,952	0,038	0,054
-86,943	-200,000	-0,007	0,100
-85,928	800,000	0,051	-0,137
-84,913	411,657	-0,083	-0,127
-83,899	167,946	-0,098	-0,100
-82,884	-200,000	-0,052	0,211
-81,870	548,977	0,036	0,063
-80,855	561,038	0,072	0,126
-79,840	-200,000	0,026	-0,177
-78,826	29,931	-0,124	-0,076
-77,811	800,000	-0,021	-0,064
-76,797	69,622	0,079	-0,059
-75,782	-200,000	-0,018	-0,144
-74,767	52,348	0,084	-0,058
-73,753	800,000	-0,015	-0,046
-72,738	800,000	0,022	0,069
-71,724	120,001	-0,087	-0,078
-70,709	574,080	-0,112	-0,197
-69,694	68,559	0,081	0,060
-68,680	240,325	-0,040	0,048
-67,665	-200,000	-0,020	0,067
-66,651	-105,722	0,130	0,021
-65,636	-5,825	-0,047	0,023
-64,622	188,702	-0,140	-0,150
-63,607	297,135	-0,058	-0,076
-62,592	7,928	-0,060	0,032
-61,578	-52,288	0,062	-0,021
-60,563	-11,453	0,036	-0,017
-59,549	12,425	0,036	-0,020
-58,534	-9,670	-1,944	-0,927
-57,519	-200,000	-0,124	-0,790
-56,505	-200,000	-1,136	-4,800
-55,490	81,857	0,726	0,564
-54,476	800,000	5,370	12,266
-53,461	-200,000	17,431	282,617
-52,446	800,000	726,372	2213,808
-51,432	535,457	1642,737	2808,182
-50,417	110,160	1633,713	1407,789
-49,403	75,268	1286,469	972,977
-48,388	32,146	1027,891	634,958
-47,373	20,135	989,804	571,807
-46,359	18,576	977,761	559,711
-45,344	15,805	973,675	548,280
-44,330	16,016	972,199	548,118
-43,315	15,527	970,390	545,477
-42,300	15,501	969,315	544,768
-41,286	15,424	968,426	543,994
-40,271	15,454	967,375	543,481
-39,257	15,511	966,247	543,010
-38,242	15,526	965,450	542,592
-37,227	15,470	964,597	541,907
-36,213	15,493	963,904	541,572
-35,198	15,475	962,918	540,939
-34,184	15,539	962,235	540,739
-33,169	15,481	961,228	539,966
-32,154	15,460	960,434	539,428
-31,140	15,550	959,462	539,151
-30,125	15,527	958,703	538,631
-29,111	15,524	957,743	538,060
-28,096	15,512	957,330	537,769
-27,082	15,514	956,672	537,383
-26,067	15,527	955,734	536,877
-25,052	15,504	955,014	536,378
-24,038	15,477	954,497	535,979
-23,023	15,426	953,814	535,410
-22,009	15,563	953,046	535,397
-20,994	15,504	952,352	534,797
-19,979	15,533	951,812	534,566
-18,965	15,512	951,198	534,131
-17,950	15,471	950,634	533,664
-16,936	15,455	949,978	533,223
-15,921	15,429	949,396	532,792
-14,906	15,370	948,489	532,075
-13,892	15,424	947,696	531,781
-12,877	15,392	947,320	531,445
-11,863	15,360	946,611	530,926
-10,848	15,349	946,164	530,619
-9,833	15,506	945,556	530,757
-8,819	15,483	944,983	530,340
-7,804	15,410	944,465	529,797
-6,790	15,406	943,979	529,489
-5,775	15,405	943,317	529,094
-4,760	15,418	942,662	528,747
-3,746	15,378	942,046	528,254
-2,731	15,287	941,355	527,558
-1,717	15,262	940,797	527,146
-0,702	15,232	940,075	526,623
0,313	15,068	939,302	526,469
1,327	18,220	937,065	535,101
2,342	27,245	794,380	477,540
3,356	23,933	459,091	270,892
4,371	-3,238	314,604	156,733
5,386	-7,301	296,336	143,505
6,400	-9,175	290,239	138,679
7,415	-9,635	287,767	137,032
8,429	-9,907	286,420	136,112
9,444	-9,852	285,434	135,685
10,459	-9,932	284,994	135,386
11,473	-9,967	284,316	135,017
12,488	-9,724	283,651	134,926
13,502	-9,996	283,326	134,495
14,517	-9,808	282,853	134,441
15,531	-9,771	282,237	134,172
16,546	-9,896	282,096	133,972
17,561	-9,857	281,609	133,766
18,575	-9,838	281,424	133,684
19,590	-9,774	280,815	133,445
20,604	-9,722	280,654	133,406
21,619	-9,923	280,207	132,990
22,634	-9,674	280,013	133,124
23,648	-9,991	279,623	132,624
24,663	-9,804	279,357	132,664
25,677	-9,901	279,122	132,448
26,692	-9,663	278,880	132,548
27,707	-9,755	278,518	132,277
28,721	-9,894	278,386	132,070
29,736	-9,932	278,005	131,842
30,750	-9,764	277,615	131,804
31,765	-9,710	277,471	131,775
32,780	-9,897	277,375	131,541
33,794	-10,057	277,029	131,214
34,809	-9,869	276,715	131,231
35,823	-9,781	276,453	131,178
36,838	-10,008	276,297	130,879
37,853	-9,986	276,085	130,787
38,867	-9,901	275,810	130,725
39,882	-9,897	275,481	130,561
40,896	-9,841	275,328	130,530
41,911	-9,877	275,146	130,397
42,926	-9,967	274,871	130,172
43,940	-9,917	274,491	130,027
44,955	-9,821	274,284	130,007
45,969	-9,839	274,133	129,907
46,984	-10,052	273,869	129,571
47,999	-10,283	273,540	129,188
49,013	-10,457	273,321	128,911
50,028	-10,519	272,953	128,669
51,042	-10,624	272,890	128,530
52,057	-10,512	272,567	128,470
53,071	-10,523	272,225	128,288
54,086	-10,323	272,080	128,393
55,101	-10,231	272,015	128,436
56,115	-10,094	271,807	128,453
57,130	-9,880	271,787	128,631
58,144	-9,849	271,520	128,522
59,159	-9,827	271,319	128,436
60,174	-9,682	271,072	128,441
61,188	-9,835	270,863	128,189
62,203	-9,711	270,530	128,135
63,217	-9,800	270,353	127,958
64,232	-9,811	270,079	127,807
65,247	-9,778	270,007	127,791
66,261	-9,823	269,592	127,542
67,276	-9,837	269,390	127,422
68,290	-9,870	269,033	127,212
69,305	-10,203	268,964	126,863
70,320	-10,269	268,884	126,753
71,334	-9,958	268,621	126,903
72,349	-9,824	268,380	126,900
73,363	-9,666	268,093	126,897
74,378	-9,729	267,902	126,738
75,393	-9,704	267,749	126,677
76,407	-9,721	267,510	126,537
77,422	-9,734	267,220	126,376
78,436	-9,730	267,164	126,343
79,451	-9,749	266,931	126,204
80,466	-9,826	266,524	125,930
81,480	-9,842	266,306	125,802
82,495	-9,921	266,041	125,593
83,509	-9,836	265,921	125,603
84,524	-9,969	265,831	125,429
85,539	-10,024	265,440	125,184
86,553	-10,111	265,276	125,017
87,568	-9,963	265,169	125,089
88,582	-9,963	264,948	124,973
89,597	-9,969	264,810	124,891
90,611	-9,821	264,570	124,901
91,626	-9,789	264,366	124,821
92,641	-9,840	264,290	124,728
93,655	-9,789	263,850	124,555
94,670	-9,844	263,809	124,476
95,684	-9,829	263,481	124,323
96,699	-9,809	263,431	124,306
97,714	-9,883	263,056	124,052
98,728	-9,919	262,869	123,921
99,743	-10,017	262,659	123,724
100,757	-10,095	262,451	123,545
101,772	-9,962	262,329	123,595
102,787	-9,882	262,078	123,537
103,801	-9,821	261,889	123,491
104,816	-9,760	261,799	123,492
105,830	-9,695	261,613	123,451
106,845	-9,773	261,463	123,300
107,860	-9,756	261,131	123,147
108,874	-9,870	260,941	122,945
109,889	-9,907	260,814	122,843
110,903	-9,888	260,527	122,712
111,918	-10,041	260,492	122,550
112,933	-9,729	260,052	122,607
113,947	-9,796	259,991	122,509
114,962	-9,797	259,734	122,376
115,976	-9,601	259,580	122,465
116,991	-9,774	259,421	122,227
118,006	-9,849	259,262	122,075
119,020	-9,885	259,051	121,933
120,035	-9,621	258,904	122,085
121,049	-9,953	258,955	121,807
122,064	-9,724	258,640	121,848
123,079	-9,839	258,399	121,623
124,093	-9,889	258,206	121,477
125,108	-10,085	257,994	121,196
126,122	-10,042	257,540	121,009
127,137	-10,213	257,330	120,751
128,151	-10,058	257,338	120,880
129,166	-9,947	256,975	120,794
130,181	-9,886	256,943	120,822
131,195	-10,154	256,717	120,472
132,210	-9,760	256,472	120,688
133,224	-9,865	256,317	120,513
134,239	-9,731	256,176	120,553
135,254	-9,658	255,927	120,488
136,268	-9,804	255,725	120,255
137,283	-10,049	255,431	119,895
138,297	-10,286	255,319	119,626
139,312	-10,319	255,152	119,509
140,327	-9,879	255,038	119,825
141,341	-9,639	254,975	119,992
142,356	-9,697	254,769	119,834
143,370	-9,551	254,543	119,843
144,385	-9,845	254,427	119,525
145,400	-9,611	254,221	119,618
146,414	-9,618	254,060	119,526
147,429	-9,472	253,817	119,526
148,443	-9,561	253,642	119,357
149,458	-9,709	253,531	119,167
150,473	-9,448	253,226	119,236
151,487	-9,675	253,060	118,953
152,502	-9,664	252,978	118,914
153,516	-9,464	252,672	118,930
154,531	-9,706	252,625	118,691
155,546	-9,717	252,349	118,541
156,560	-9,557	252,181	118,588
157,575	-9,722	251,919	118,314
158,589	-9,693	251,812	118,278
159,604	-9,614	251,447	118,163
160,619	-9,662	251,305	118,044
161,633	-9,474	251,232	118,159
162,648	-9,606	251,134	117,991
163,662	-9,729	251,037	117,831
164,677	-9,708	250,897	117,772
165,692	-9,844	250,710	117,559
166,706	-9,583	250,407	117,626
167,721	-9,465	250,197	117,617
168,735	-9,575	250,097	117,467
169,750	-9,567	250,017	117,425
170,764	-9,374	249,858	117,503
171,779	-9,554	249,635	117,236
172,794	-9,554	249,580	117,199
173,808	-9,760	249,362	116,913
174,823	-10,003	248,967	116,514
175,837	-10,233	248,776	116,221
176,852	-9,622	248,519	116,603
177,867	-9,505	248,604	116,731
178,881	-9,662	248,545	116,560
179,896	-9,495	248,261	116,556
180,910	-9,419	248,018	116,496
181,925	-9,578	247,878	116,287
182,940	-9,507	247,668	116,237
183,954	-9,550	247,607	116,163
184,969	-9,546	247,486	116,098
185,983	-9,447	247,214	116,043
186,998	-9,625	247,163	115,861
188,013	-9,377	246,839	115,904
189,027	-9,497	246,746	115,751
190,042	-9,475	246,589	115,685
191,056	-9,604	246,408	115,483
192,071	-9,736	246,257	115,293
193,086	-9,730	246,057	115,193
194,100	-9,537	245,877	115,259
195,115	-9,463	245,529	115,146
196,129	-9,424	245,357	115,088
197,144	-9,588	245,096	114,820
198,159	-9,710	245,165	114,741
199,173	-9,618	244,897	114,681
200,188	-9,531	244,758	114,677
201,202	-9,888	244,437	114,223
202,217	-10,096	244,207	113,935
203,232	-10,119	244,009	113,814
204,246	-9,471	243,882	114,275
205,261	-9,262	244,010	114,497
206,275	-10,148	243,657	113,595
207,290	-7,305	244,801	116,458
208,304	-0,683	246,995	122,978
209,319	3,373	247,800	126,727
210,334	3,800	247,855	127,098
211,348	4,002	247,822	127,236
212,363	4,247	247,598	127,313
213,377	4,191	247,754	127,335
214,392	3,969	247,296	126,905
215,407	3,903	247,150	126,765
216,421	3,951	247,121	126,778
217,436	4,296	246,872	126,923
218,450	4,231	246,590	126,713
219,465	3,770	246,552	126,303
220,480	3,733	246,256	126,110
221,494	3,624	246,148	125,954
222,509	3,776	245,952	125,967
223,523	3,715	245,818	125,838
224,538	3,359	245,500	125,372
225,553	3,390	245,431	125,351
226,567	3,572	245,369	125,457
227,582	3,715	245,191	125,471
228,596	3,651	244,951	125,285
229,611	3,483	244,891	125,106
230,626	3,417	244,435	124,808
231,640	3,181	244,562	124,670
232,655	3,538	244,256	124,793
233,669	3,523	244,023	124,651
234,684	3,429	243,829	124,465
235,699	3,728	243,885	124,725
236,713	3,921	243,855	124,854
237,728	3,640	243,431	124,399
238,742	3,329	243,197	124,017
239,757	3,182	243,188	123,881
240,772	3,622	242,917	124,089
241,786	3,599	242,810	124,004
242,801	3,293	242,718	123,699
243,815	3,459	242,452	123,686
244,830	3,546	242,387	123,713
245,844	3,553	242,304	123,664
246,859	3,548	242,040	123,515
247,874	3,596	241,826	123,433
248,888	3,362	241,910	123,277
249,903	3,445	241,790	123,272
250,917	3,615	241,418	123,208
251,932	3,877	241,500	123,448
252,947	3,787	241,222	123,223
253,961	3,575	240,891	122,873
254,976	3,598	240,879	122,875
255,990	3,924	240,680	123,023
257,005	3,505	240,536	122,604
258,020	3,459	240,348	122,460
259,034	3,369	240,155	122,278
260,049	3,446	239,991	122,246
261,063	3,435	239,927	122,193
262,078	3,467	239,592	122,037
263,093	3,528	239,682	122,121
264,107	3,440	239,660	122,029
265,122	3,451	239,271	121,829
266,136	3,566	239,199	121,873
267,151	3,699	239,016	121,874
268,166	3,697	238,925	121,815
269,180	3,403	238,664	121,438
270,195	4,062	238,589	121,911
271,209	4,041	238,577	121,877
272,224	3,567	238,234	121,317
273,239	3,260	238,069	120,979
274,253	3,434	237,843	120,991
275,268	3,543	237,717	121,002
276,282	3,566	237,611	120,956
277,297	3,431	237,307	120,684
278,312	3,469	237,329	120,714
279,326	3,484	237,259	120,679
280,341	3,627	237,089	120,694
281,355	3,498	236,827	120,449
282,370	3,694	236,876	120,618
283,384	3,617	236,496	120,353
284,399	3,484	236,347	120,162
285,414	3,287	236,182	119,913
286,428	3,372	236,118	119,936
287,443	3,433	235,954	119,890
288,457	3,421	235,910	119,848
289,472	3,770	235,708	120,007
290,487	3,510	235,495	119,685
291,501	3,475	235,378	119,588
292,516	3,315	235,077	119,300
293,530	3,155	234,946	119,097
294,545	3,357	234,984	119,263
295,560	3,598	234,702	119,297
296,574	3,427	234,516	119,059
297,589	3,447	234,415	119,013
298,603	3,591	234,379	119,096
299,618	3,860	234,221	119,213
300,633	3,848	234,109	119,137
301,647	3,717	234,024	118,981
302,662	3,993	234,039	119,192
303,676	3,947	233,710	118,978
304,691	3,803	233,533	118,766
305,706	3,959	233,430	118,824
306,720	3,977	233,289	118,755
307,735	3,775	233,137	118,511
308,749	3,561	232,950	118,240
309,764	3,262	232,751	117,899
310,779	3,350	232,491	117,824
311,793	3,412	232,170	117,699
312,808	3,319	232,143	117,603
313,822	3,283	231,962	117,473
314,837	3,382	231,869	117,492
315,852	3,189	231,698	117,247
316,866	3,443	231,664	117,414
317,881	3,645	231,477	117,463
318,895	3,797	231,521	117,591
319,910	3,889	231,343	117,561
320,925	3,551	231,181	117,210
321,939	3,255	231,062	116,913
322,954	3,675	230,694	117,036
323,968	3,410	230,646	116,800
324,983	3,267	230,393	116,552
325,997	3,257	230,410	116,543
327,012	3,874	230,220	116,905
328,027	3,669	230,112	116,685
329,041	3,787	230,071	116,743
330,056	4,018	229,957	116,850
331,070	4,005	229,776	116,738
332,085	3,547	229,599	116,290
333,100	4,138	229,356	116,604
334,114	4,077	229,184	116,460
335,129	3,775	229,160	116,209
336,143	3,750	228,975	116,087
337,158	3,934	228,807	116,130
338,173	3,804	228,813	116,024
339,187	3,902	228,474	115,916
340,202	4,059	228,358	115,965
341,216	3,635	228,216	115,563
342,231	3,774	227,960	115,528
343,246	3,648	227,961	115,424
344,260	3,899	227,884	115,563
345,275	3,984	227,703	115,524
346,289	4,095	227,562	115,526
347,304	4,060	227,502	115,459
348,319	3,879	227,343	115,232
349,333	3,776	227,187	115,066
350,348	3,639	226,833	114,774
351,362	3,787	226,889	114,903
352,377	3,508	226,674	114,575
353,392	3,404	226,541	114,420
354,406	3,529	226,481	114,472
355,421	195,477	1320,758	1397,655
356,435	156,706	1454,068	1397,644
