DTS Sentinel unit serial number:	SN410029Multiplexer serial number:	ORYXHardware model number:	OX2-SRSoftware version number:	ORYX F/W v4,00 Oryx Data Collector v3.7.2.0data status	okinstallation	B5 Nyhavnadifferential loss correction	single-endedforward channel	channel 2reverse channel	N/Adate	2023/12/13time	09:42:14forward acquisition time	300,00reverse acquisition time	0,00gamma	499,1914k internal	0,3160k external	0,3160temperature offset calibration	1,0000default loss term (dB/km)	0,3820temperature slope calibration	1,0000multiplexer offset coefficient	1,0000multiplexer slope coefficient	1,0000fibre end	0,00T internal ref (°C)	13,66T ext. ref 1 (°C)	-2,70T ext. ref 2 (°C)	-3,00length (m)	temperature (°C)	Stokes	anti-Stokes-744,400	-60,496	0,070	-0,022
-743,385	-182,471	-0,270	0,004
-742,371	76,261	0,122	0,095
-741,356	-54,845	-0,230	0,076
-740,342	-200,000	0,030	0,136
-739,327	-82,077	-0,356	-0,085
-738,312	800,000	0,032	0,082
-737,298	-128,682	-0,381	0,039
-736,283	-124,946	0,096	0,011
-735,269	-94,630	-0,244	-0,048
-734,254	-129,506	0,211	0,021
-733,239	-97,542	-0,462	-0,087
-732,225	364,989	0,069	0,102
-731,210	-73,598	0,114	-0,030
-730,196	-7,658	0,156	-0,077
-729,181	-59,524	-0,134	0,042
-728,167	800,000	-0,054	0,134
-727,152	-200,000	0,009	0,087
-726,137	118,892	-0,147	-0,134
-725,123	38,708	0,093	0,061
-724,108	-200,000	-0,020	-0,169
-723,094	489,532	0,053	-0,089
-722,079	231,252	0,064	-0,078
-721,064	84,197	0,038	0,031
-720,050	-119,631	0,026	-0,003
-719,035	384,688	-0,066	-0,101
-718,021	37,895	-0,080	-0,052
-717,006	-59,930	-0,195	-0,061
-715,991	118,759	-0,102	0,092
-714,977	714,652	0,072	-0,141
-713,962	69,023	-0,009	-0,007
-712,948	65,597	0,066	-0,049
-711,933	244,686	-0,028	-0,035
-710,918	57,499	0,062	-0,045
-709,904	11,168	-0,100	-0,056
-708,889	800,000	0,014	-0,037
-707,875	642,036	0,018	-0,033
-706,860	47,109	-0,049	0,033
-705,845	-31,446	0,109	0,045
-704,831	319,498	0,034	0,048
-703,816	269,586	-0,113	-0,146
-702,802	298,695	-0,127	-0,172
-701,787	-118,035	0,083	0,011
-700,772	670,626	-0,042	-0,080
-699,758	-173,324	-0,106	0,002
-698,743	800,000	-0,005	0,017
-697,729	-200,000	-0,027	0,144
-696,714	95,502	-0,057	-0,048
-695,699	52,652	-0,130	0,092
-694,685	90,975	0,010	0,009
-693,670	46,897	-0,083	0,057
-692,656	800,000	-0,026	-0,058
-691,641	-200,000	0,011	-0,075
-690,627	800,000	-0,032	-0,100
-689,612	456,970	0,062	0,101
-688,597	-53,604	-0,028	0,009
-687,583	156,031	-0,117	-0,118
-686,568	460,128	-0,066	-0,108
-685,554	800,000	-0,017	-0,046
-684,539	-200,000	-0,009	-0,068
-683,524	416,575	-0,051	-0,080
-682,510	-32,365	0,075	0,030
-681,495	9,207	0,042	0,023
-680,481	-40,705	-0,107	-0,041
-679,466	-66,873	-0,058	-0,017
-678,451	379,132	-0,093	0,140
-677,437	295,505	0,010	-0,014
-676,422	-128,265	0,027	-0,003
-675,408	800,000	0,046	0,143
-674,393	-94,236	-0,065	-0,013
-673,378	406,191	0,023	-0,036
-672,364	51,023	-0,110	-0,077
-671,349	-200,000	-0,018	-0,106
-670,335	-26,033	-0,008	-0,003
-669,320	165,287	-0,085	-0,088
-668,305	309,232	0,062	0,085
-667,291	-200,000	0,007	-0,143
-666,276	1,678	-0,249	-0,131
-665,262	-48,760	0,062	0,022
-664,247	-200,000	-0,010	0,046
-663,232	-200,000	0,024	-0,152
-662,218	-200,000	0,002	-0,038
-661,203	-122,381	0,031	0,004
-660,189	-200,000	-0,007	0,037
-659,174	396,798	-0,083	0,127
-658,159	-164,973	-0,080	-0,003
-657,145	21,871	-0,089	-0,053
-656,130	-200,000	-0,009	0,077
-655,116	758,271	0,011	0,022
-654,101	-200,000	0,002	0,255
-653,086	-200,000	-0,009	-0,050
-652,072	583,692	0,023	-0,042
-651,057	757,157	-0,052	-0,105
-650,043	800,000	-0,052	-0,149
-649,028	800,000	0,039	-0,107
-648,014	800,000	0,016	0,047
-646,999	276,365	-0,074	0,096
-645,984	-129,163	0,092	-0,009
-644,970	110,442	-0,096	-0,084
-643,955	-200,000	0,007	-0,059
-642,941	-200,000	-0,003	-0,012
-641,926	-67,025	0,023	-0,007
-640,911	-66,815	0,051	0,015
-639,897	52,898	0,025	0,018
-638,882	99,971	0,120	0,102
-637,868	-200,000	-0,004	-0,039
-636,853	19,570	-0,113	-0,066
-635,838	215,900	0,010	0,012
-634,824	9,604	0,071	0,039
-633,809	-200,000	-0,000	0,033
-632,795	177,675	-0,037	0,040
-631,780	636,729	0,054	0,101
-630,765	-4,816	-0,136	-0,069
-629,751	94,868	-0,107	-0,089
-628,736	-89,735	-0,201	-0,043
-627,722	800,000	-0,016	0,047
-626,707	-114,265	-0,098	0,014
-625,692	-200,000	0,004	0,074
-624,678	800,000	-0,058	0,186
-623,663	107,937	0,022	-0,020
-622,649	108,550	-0,080	-0,070
-621,634	642,256	-0,010	0,019
-620,619	-200,000	-0,022	-0,172
-619,605	-80,379	0,029	-0,007
-618,590	-40,097	-0,010	-0,004
-617,576	-200,000	-0,034	0,160
-616,561	138,819	-0,076	0,073
-615,546	-110,206	-0,123	-0,019
-614,532	122,516	0,069	-0,063
-613,517	-200,000	-0,030	0,166
-612,503	196,018	0,084	0,094
-611,488	204,977	0,040	0,046
-610,474	-200,000	-0,018	0,070
-609,459	-200,000	0,001	0,167
-608,444	-200,000	0,041	0,137
-607,430	327,344	0,027	-0,037
-606,415	70,724	0,102	-0,077
-605,401	-200,000	0,021	0,086
-604,386	149,841	-0,101	0,100
-603,371	17,863	-0,057	-0,033
-602,357	146,245	0,196	0,193
-601,342	800,000	0,018	0,050
-600,328	-104,712	0,024	-0,004
-599,313	800,000	-0,043	-0,116
-598,298	800,000	0,069	-0,195
-597,284	-200,000	0,034	0,152
-596,269	144,723	0,080	-0,078
-595,255	570,410	0,017	-0,031
-594,240	51,049	0,143	-0,099
-593,225	-134,698	-0,176	0,015
-592,211	800,000	0,024	-0,058
-591,196	18,539	0,016	-0,010
-590,182	208,892	-0,039	-0,045
-589,167	800,000	0,029	0,092
-588,152	220,149	0,069	0,082
-587,138	-39,070	0,142	0,055
-586,123	-200,000	-0,012	-0,116
-585,109	-124,103	0,054	-0,006
-584,094	-111,596	0,149	-0,022
-583,079	51,924	0,110	0,077
-582,065	-48,358	-0,101	0,036
-581,050	-200,000	-0,019	0,070
-580,036	-8,244	0,065	0,032
-579,021	-23,972	-0,149	-0,065
-578,006	800,000	0,045	-0,095
-576,992	404,522	0,063	0,097
-575,977	222,378	-0,171	0,202
-574,963	262,064	-0,049	-0,062
-573,948	800,000	-0,034	0,103
-572,934	-200,000	-0,013	0,196
-571,919	-12,899	-0,132	0,063
-570,904	800,000	0,055	-0,118
-569,890	668,448	-0,022	-0,041
-568,875	-200,000	0,031	0,164
-567,861	267,994	0,083	0,106
-566,846	800,000	0,042	-0,103
-565,831	33,769	-0,048	-0,030
-564,817	-104,750	-0,108	0,018
-563,802	-105,868	-0,152	-0,025
-562,788	133,177	-0,132	-0,125
-561,773	800,000	0,055	0,128
-560,758	11,416	0,048	0,027
-559,744	800,000	-0,041	0,109
-558,729	-19,441	0,098	-0,044
-557,715	-16,932	0,099	0,046
-556,700	109,714	-0,122	-0,107
-555,685	-200,000	-0,013	-0,086
-554,671	91,162	0,088	0,072
-553,656	-200,000	-0,000	0,136
-552,642	800,000	-0,049	0,156
-551,627	27,128	0,143	0,088
-550,612	-200,000	0,129	0,000
-549,598	522,920	-0,007	0,011
-548,583	-112,701	0,066	-0,009
-547,569	-57,266	0,074	-0,024
-546,554	-200,000	-0,003	0,058
-545,539	-200,000	0,033	0,107
-544,525	-110,908	0,051	0,008
-543,510	-200,000	-0,005	0,028
-542,496	105,315	0,109	-0,094
-541,481	-200,000	-0,010	0,065
-540,466	770,792	-0,095	-0,190
-539,452	-200,000	-0,011	0,100
-538,437	123,534	0,043	0,039
-537,423	60,580	-0,105	-0,076
-536,408	-1,215	0,032	-0,016
-535,393	-127,523	-0,214	-0,022
-534,379	-200,000	0,013	-0,231
-533,364	800,000	0,029	0,061
-532,350	207,692	-0,056	-0,064
-531,335	-47,781	-0,012	-0,004
-530,321	274,762	0,101	0,132
-529,306	-109,275	0,107	-0,016
-528,291	-67,564	-0,097	0,028
-527,277	-200,000	0,002	-0,038
-526,262	-53,003	0,061	0,020
-525,248	-200,000	-0,023	-0,115
-524,233	-200,000	-0,007	0,051
-523,218	63,904	0,067	0,049
-522,204	800,000	0,048	0,145
-521,189	219,184	0,074	0,087
-520,175	755,185	-0,067	-0,132
-519,160	-38,236	-0,153	-0,059
-518,145	631,794	-0,019	-0,035
-517,131	168,279	0,039	-0,041
-516,116	154,801	-0,029	-0,029
-515,102	-157,003	-0,070	0,003
-514,087	-200,000	0,039	-0,188
-513,072	235,687	-0,093	-0,113
-512,058	-200,000	0,051	-0,203
-511,043	-200,000	-0,025	0,118
-510,029	-162,754	0,098	-0,003
-509,014	-114,574	0,069	-0,010
-507,999	169,924	0,114	0,119
-506,985	-200,000	-0,030	0,121
-505,970	-118,937	0,023	0,003
-504,956	-41,814	0,079	-0,029
-503,941	27,307	0,051	0,031
-502,926	741,592	-0,068	0,134
-501,912	-24,569	-0,068	0,030
-500,897	-200,000	-0,003	0,106
-499,883	-48,670	0,103	-0,036
-498,868	536,702	0,029	-0,051
-497,853	-12,417	0,029	-0,014
-496,839	80,669	0,011	0,008
-495,824	201,439	-0,074	0,083
-494,810	-140,119	0,165	0,012
-493,795	262,824	0,026	0,033
-492,781	-200,000	0,046	0,218
-491,766	800,000	-0,038	-0,108
-490,751	-98,855	-0,051	-0,009
-489,737	509,127	0,011	-0,019
-488,722	-164,633	0,069	-0,002
-487,708	800,000	-0,036	0,107
-486,693	69,401	0,061	-0,045
-485,678	-59,228	-0,088	0,027
-484,664	-200,000	0,013	0,088
-483,649	-141,106	-0,259	-0,019
-482,635	114,141	-0,059	-0,052
-481,620	-200,000	0,007	0,059
-480,605	16,990	0,048	0,028
-479,591	429,959	-0,035	-0,055
-478,576	-188,329	0,042	0,000
-477,562	-200,000	0,015	0,139
-476,547	-200,000	0,008	0,032
-475,532	800,000	-0,041	-0,102
-474,518	-29,091	0,080	-0,033
-473,503	42,838	0,120	0,080
-472,489	-135,216	0,042	-0,004
-471,474	124,315	-0,081	-0,075
-470,459	25,646	-0,015	0,009
-469,445	-200,000	0,034	-0,117
-468,430	473,423	0,021	-0,035
-467,416	-200,000	-0,001	0,025
-466,401	-127,845	-0,028	-0,003
-465,386	800,000	0,046	-0,104
-464,372	-12,602	0,059	0,028
-463,357	800,000	-0,027	-0,057
-462,343	-200,000	-0,044	-0,183
-461,328	158,447	-0,101	-0,102
-460,313	-132,457	-0,040	0,004
-459,299	142,863	0,115	0,111
-458,284	-105,135	0,109	0,018
-457,270	12,511	-0,038	0,021
-456,255	12,681	0,078	-0,044
-455,241	-151,865	-0,164	-0,009
-454,226	65,633	-0,060	-0,044
-453,211	800,000	-0,022	-0,045
-452,197	-200,000	-0,010	0,116
-451,182	-27,903	0,184	0,077
-450,168	-50,588	-0,133	-0,045
-449,153	800,000	0,018	0,047
-448,138	-200,000	-0,012	0,043
-447,124	800,000	0,018	-0,042
-446,109	436,003	0,075	-0,119
-445,095	531,525	0,091	-0,158
-444,080	424,038	-0,058	0,091
-443,065	800,000	-0,019	0,048
-442,051	134,594	-0,062	-0,059
-441,036	-117,646	0,040	-0,005
-440,022	-200,000	0,004	-0,088
-439,007	-200,000	-0,010	-0,095
-437,992	-200,000	-0,015	0,083
-436,978	-86,933	-0,045	0,010
-435,963	51,675	-0,047	0,033
-434,949	169,835	-0,168	0,175
-433,934	750,489	-0,056	-0,110
-432,919	-200,000	0,022	-0,167
-431,905	-102,294	-0,165	-0,029
-430,890	140,739	0,063	-0,061
-429,876	238,908	0,129	-0,156
-428,861	104,313	-0,008	-0,007
-427,846	200,931	0,052	0,059
-426,832	97,482	-0,020	-0,017
-425,817	46,203	-0,042	-0,028
-424,803	-200,000	-0,002	-0,050
-423,788	800,000	0,003	-0,007
-422,773	-200,000	-0,003	-0,019
-421,759	-200,000	0,013	-0,101
-420,744	-44,079	-0,049	-0,018
-419,730	305,561	-0,074	0,101
-418,715	86,395	0,050	0,040
-417,701	-200,000	0,015	0,121
-416,686	166,298	0,072	-0,074
-415,671	800,000	-0,024	-0,054
-414,657	145,054	0,045	0,044
-413,642	-6,527	-0,095	-0,047
-412,628	76,416	0,045	-0,034
-411,613	-77,723	-0,065	-0,016
-410,598	800,000	0,037	0,090
-409,584	125,466	-0,017	-0,015
-408,569	-154,514	0,083	-0,004
-407,555	-113,419	-0,128	-0,018
-406,540	-83,332	0,103	0,024
-405,525	-200,000	-0,014	-0,101
-404,511	-200,000	-0,006	-0,048
-403,496	56,602	0,039	0,027
-402,482	-200,000	0,021	0,089
-401,467	-10,133	0,076	-0,037
-400,452	-131,988	0,072	-0,007
-399,438	-200,000	0,005	0,061
-398,423	800,000	-0,044	-0,100
-397,409	92,565	-0,034	-0,028
-396,394	-38,726	0,141	0,054
-395,379	-200,000	-0,015	0,050
-394,365	386,900	0,032	0,048
-393,350	-29,918	-0,098	0,041
-392,336	-161,897	-0,098	-0,004
-391,321	-68,483	-0,067	0,019
-390,306	-101,999	0,134	0,023
-389,292	-59,140	-0,139	0,043
-388,277	800,000	0,055	-0,151
-387,263	-90,642	0,230	0,048
-386,248	800,000	0,026	0,069
-385,233	-200,000	-0,043	-0,142
-384,219	221,188	-0,041	-0,048
-383,204	708,184	-0,086	-0,165
-382,190	-97,706	0,071	0,013
-381,175	-200,000	-0,046	-0,152
-380,160	-95,479	-0,117	-0,023
-379,146	145,445	-0,106	-0,104
-378,131	261,756	-0,014	-0,017
-377,117	-75,940	0,095	0,024
-376,102	-123,947	0,095	-0,011
-375,088	260,885	-0,071	-0,089
-374,073	-106,559	0,135	-0,022
-373,058	-47,014	-0,061	-0,021
-372,044	-200,000	-0,025	0,156
-371,029	60,670	-0,069	-0,050
-370,015	197,513	-0,075	-0,083
-369,000	402,530	0,062	-0,095
-367,985	800,000	-0,023	-0,071
-366,971	-48,632	-0,163	-0,057
-365,956	-88,443	0,054	-0,012
-364,942	-65,044	0,142	0,041
-363,927	800,000	0,026	0,068
-362,912	102,783	-0,077	-0,066
-361,898	-200,000	-0,023	0,103
-360,883	8,438	0,042	-0,023
-359,869	218,497	0,141	-0,163
-358,854	40,590	0,098	-0,064
-357,839	130,173	-0,012	-0,011
-356,825	-98,984	0,062	0,011
-355,810	-200,000	-0,021	0,121
-354,796	-200,000	0,002	-0,085
-353,781	142,808	-0,082	-0,079
-352,766	-21,291	-0,053	-0,024
-351,752	-125,247	0,073	-0,008
-350,737	-200,000	0,011	0,114
-349,723	-200,000	-0,001	0,206
-348,708	-200,000	0,015	-0,062
-347,693	-200,000	-0,009	0,080
-346,679	-200,000	-0,009	-0,094
-345,664	800,000	-0,097	-0,221
-344,650	800,000	0,014	0,042
-343,635	-181,607	0,103	0,001
-342,620	86,285	0,142	0,113
-341,606	-200,000	-0,037	0,134
-340,591	133,751	0,091	0,085
-339,577	10,732	-0,065	-0,036
-338,562	-154,930	0,236	0,011
-337,548	112,237	0,030	0,026
-336,533	260,966	0,073	0,092
-335,518	-200,000	0,014	0,063
-334,504	188,295	-0,091	0,098
-333,489	800,000	0,023	-0,060
-332,475	59,769	0,035	-0,025
-331,460	800,000	-0,059	-0,125
-330,445	-200,000	0,018	-0,065
-329,431	-92,219	-0,077	0,016
-328,416	80,277	0,045	-0,035
-327,402	10,321	0,058	0,032
-326,387	-126,014	0,169	-0,018
-325,372	-200,000	-0,018	-0,090
-324,358	135,677	-0,158	-0,149
-323,343	-200,000	-0,018	0,067
-322,329	240,363	0,136	-0,165
-321,314	-112,962	-0,189	0,027
-320,299	439,176	-0,072	0,114
-319,285	187,181	-0,015	0,016
-318,270	-99,723	0,108	-0,019
-317,256	-200,000	0,018	-0,072
-316,241	-169,103	-0,195	-0,005
-315,226	271,745	0,076	0,097
-314,212	217,510	-0,065	0,075
-313,197	-17,655	0,057	-0,026
-312,183	-95,030	0,112	-0,022
-311,168	-200,000	0,005	0,045
-310,153	-200,000	0,014	-0,050
-309,139	800,000	0,050	-0,116
-308,124	105,818	0,128	0,110
-307,110	800,000	-0,028	-0,081
-306,095	800,000	0,032	0,066
-305,080	-35,270	0,104	0,041
-304,066	304,554	-0,074	-0,100
-303,051	-71,104	-0,122	0,033
-302,037	-81,995	-0,114	0,027
-301,022	-168,000	0,081	-0,002
-300,008	-139,375	-0,054	0,004
-298,993	-200,000	-0,011	0,100
-297,978	-37,416	0,079	0,030
-296,964	-199,670	0,027	0,000
-295,949	-56,849	0,076	0,024
-294,935	355,983	-0,103	-0,148
-293,920	48,533	0,059	-0,040
-292,905	238,786	-0,044	0,053
-291,891	800,000	0,030	0,065
-290,876	116,639	0,066	0,058
-289,862	274,488	0,039	-0,050
-288,847	215,182	0,074	0,085
-287,832	-200,000	0,003	0,016
-286,818	-200,000	-0,016	-0,108
-285,803	17,350	-0,035	0,020
-284,789	46,372	-0,055	0,037
-283,774	333,493	-0,067	0,094
-282,759	800,000	-0,049	0,153
-281,745	97,483	0,044	0,037
-280,730	252,546	-0,062	0,077
-279,716	144,980	-0,103	-0,100
-278,701	-58,233	0,126	0,039
-277,686	171,977	0,082	0,085
-276,672	151,282	-0,056	0,055
-275,657	-160,423	-0,171	0,007
-274,643	129,157	-0,115	-0,107
-273,628	133,780	-0,023	-0,022
-272,613	255,452	0,085	-0,106
-271,599	594,841	0,074	-0,133
-270,584	800,000	0,006	0,018
-269,570	-95,505	-0,044	0,008
-268,555	-121,950	-0,147	0,017
-267,540	800,000	-0,070	-0,147
-266,526	-200,000	-0,015	-0,195
-265,511	37,593	-0,083	-0,053
-264,497	169,106	-0,101	0,104
-263,482	-149,498	0,148	0,008
-262,467	640,280	0,056	0,103
-261,453	6,479	-0,172	-0,092
-260,438	711,110	-0,033	-0,063
-259,424	33,272	0,006	0,004
-258,409	-200,000	0,040	-0,129
-257,395	-200,000	0,009	-0,091
-256,380	74,766	0,118	-0,090
-255,365	-43,768	0,034	-0,012
-254,351	251,353	-0,065	0,080
-253,336	800,000	-0,091	0,206
-252,322	-54,617	-0,052	-0,017
-251,307	142,045	0,095	-0,091
-250,292	684,488	0,061	0,115
-249,278	-200,000	-0,008	0,101
-248,263	800,000	0,007	0,020
-247,249	18,428	-0,103	-0,059
-246,234	-126,958	-0,023	0,002
-245,219	-200,000	0,009	-0,059
-244,205	12,362	0,030	0,017
-243,190	252,330	-0,044	-0,054
-242,176	-200,000	0,009	0,074
-241,161	139,660	-0,109	-0,104
-240,146	-200,000	-0,047	0,183
-239,132	132,803	-0,142	-0,132
-238,117	-200,000	-0,001	-0,101
-237,103	-200,000	0,021	-0,083
-236,088	35,383	0,072	-0,046
-235,073	-134,178	0,038	-0,003
-234,059	-200,000	-0,018	0,084
-233,044	-115,752	0,116	0,015
-232,030	-200,000	0,004	-0,029
-231,015	800,000	0,065	-0,158
-230,000	93,056	0,066	-0,054
-228,986	229,581	0,046	0,055
-227,971	-200,000	-0,014	-0,081
-226,957	-200,000	-0,025	0,085
-225,942	-80,226	0,186	0,045
-224,927	315,486	-0,035	0,048
-223,913	-200,000	0,001	0,076
-222,898	-12,722	0,133	0,062
-221,884	-200,000	-0,030	-0,100
-220,869	-94,412	0,090	-0,018
-219,855	-200,000	-0,035	0,163
-218,840	-45,592	0,125	0,045
-217,825	5,090	-0,031	-0,016
-216,811	109,113	-0,063	-0,054
-215,796	-102,746	-0,114	-0,019
-214,782	-200,000	-0,031	0,101
-213,767	-148,678	0,013	0,001
-212,752	100,265	-0,178	-0,149
-211,738	800,000	0,076	-0,160
-210,723	46,929	0,068	0,046
-209,709	41,311	-0,110	0,072
-208,694	82,921	0,086	0,068
-207,679	-72,365	-0,134	0,035
-206,665	800,000	-0,043	0,113
-205,650	173,013	0,045	0,047
-204,636	-200,000	0,001	0,126
-203,621	93,233	-0,092	0,075
-202,606	-200,000	0,023	-0,087
-201,592	-200,000	-0,032	-0,137
-200,577	212,128	0,036	0,041
-199,563	-155,985	-0,127	-0,006
-198,548	800,000	0,091	0,193
-197,533	105,511	0,048	-0,041
-196,519	-200,000	-0,006	0,057
-195,504	-200,000	-0,002	-0,083
-194,490	-2,243	-0,035	0,018
-193,475	-200,000	-0,039	0,000
-192,460	17,990	-0,089	0,051
-191,446	-200,000	0,003	0,027
-190,431	149,914	0,095	-0,093
-189,417	-188,938	-0,126	-0,001
-188,402	745,419	0,039	-0,076
-187,387	39,121	0,009	0,006
-186,373	165,685	-0,066	-0,067
-185,358	-200,000	-0,009	-0,075
-184,344	-200,000	0,006	-0,033
-183,329	218,481	0,080	0,092
-182,315	800,000	0,033	0,097
-181,300	0,004	0,086	-0,044
-180,285	-200,000	-0,016	0,092
-179,271	-126,524	-0,173	-0,018
-178,256	-200,000	-0,036	-0,117
-177,242	119,074	-0,119	-0,106
-176,227	710,869	0,028	0,054
-175,212	145,923	0,029	0,028
-174,198	444,447	0,047	0,075
-173,183	208,088	0,047	0,053
-172,169	6,943	-0,101	-0,054
-171,154	800,000	0,030	-0,090
-170,139	800,000	0,007	-0,021
-169,125	-45,201	0,095	-0,034
-168,110	-155,825	0,030	0,001
-167,096	218,196	0,012	-0,014
-166,081	-22,200	-0,039	-0,017
-165,066	-200,000	-0,009	-0,148
-164,052	-200,000	0,004	-0,055
-163,037	800,000	-0,006	-0,016
-162,023	3,784	0,016	-0,008
-161,008	-200,000	0,013	0,055
-159,993	-200,000	0,004	0,070
-158,979	212,550	-0,076	0,086
-157,964	-200,000	0,028	0,092
-156,950	800,000	-0,036	-0,110
-155,935	-117,015	0,123	0,016
-154,920	7,260	-0,091	0,049
-153,906	129,898	0,039	0,036
-152,891	-80,090	-0,190	-0,046
-151,877	289,536	-0,040	-0,052
-150,862	361,329	0,034	-0,050
-149,847	-200,000	0,036	-0,207
-148,833	-122,059	-0,075	0,009
-147,818	145,320	-0,020	-0,019
-146,804	-101,753	-0,026	-0,004
-145,789	683,950	0,022	0,042
-144,775	628,117	-0,053	-0,096
-143,760	37,442	-0,103	-0,066
-142,745	-200,000	0,022	-0,140
-141,731	-56,405	0,087	-0,028
-140,716	-75,108	0,056	0,014
-139,702	-110,831	-0,069	0,010
-138,687	800,000	-0,029	0,079
-137,672	-200,000	0,014	0,098
-136,658	-45,099	-0,158	-0,056
-135,643	675,663	-0,025	0,047
-134,629	-63,286	-0,119	-0,035
-133,614	350,428	0,055	0,078
-132,599	191,231	-0,033	0,035
-131,585	462,550	0,067	0,107
-130,570	-200,000	-0,025	-0,142
-129,556	92,238	0,039	0,031
-128,541	-79,879	-0,180	-0,043
-127,526	-200,000	0,000	0,010
-126,512	-200,000	0,004	0,037
-125,497	9,703	0,125	-0,068
-124,483	-65,704	-0,108	0,031
-123,468	-81,934	0,147	-0,034
-122,453	37,733	-0,124	-0,079
-121,439	236,165	0,045	-0,054
-120,424	-200,000	0,000	-0,087
-119,410	-116,833	0,095	0,012
-118,395	-173,968	-0,114	-0,002
-117,380	-200,000	0,022	0,077
-116,366	25,308	-0,063	-0,038
-115,351	134,733	-0,019	-0,018
-114,337	-200,000	0,002	-0,081
-113,322	-106,395	0,025	-0,004
-112,307	36,192	0,060	0,038
-111,293	47,745	0,118	-0,079
-110,278	-200,000	-0,024	-0,107
-109,264	-38,813	0,082	-0,031
-108,249	111,097	-0,037	0,032
-107,234	357,851	-0,055	-0,078
-106,220	800,000	-0,043	-0,125
-105,205	800,000	0,083	0,194
-104,191	202,613	-0,056	-0,062
-103,176	-27,318	0,130	-0,054
-102,162	582,985	-0,054	0,095
-101,147	599,460	-0,071	-0,127
-100,132	260,908	-0,069	0,086
-99,118	-41,469	-0,111	-0,041
-98,103	212,822	0,039	0,044
-97,089	-200,000	0,005	0,160
-96,074	-108,540	0,080	-0,012
-95,059	800,000	-0,035	0,074
-94,045	800,000	-0,044	0,095
-93,030	800,000	0,048	0,118
-92,016	430,247	-0,076	-0,118
-91,001	26,214	-0,100	-0,060
-89,986	800,000	-0,007	-0,015
-88,972	800,000	0,061	0,132
-87,957	3,810	0,069	0,036
-86,943	89,036	0,100	0,080
-85,928	-72,221	-0,116	0,031
-84,913	-197,310	0,060	0,000
-83,899	800,000	-0,032	0,086
-82,884	-127,366	0,201	-0,021
-81,870	800,000	0,050	0,130
-80,855	-200,000	-0,033	0,179
-79,840	108,447	0,081	0,069
-78,826	-182,394	-0,112	0,001
-77,811	-200,000	0,007	-0,024
-76,797	800,000	0,032	-0,087
-75,782	79,516	0,081	-0,062
-74,767	-200,000	-0,035	-0,160
-73,753	-119,884	0,105	0,013
-72,738	-200,000	-0,002	-0,061
-71,724	270,212	-0,113	-0,143
-70,709	-200,000	0,036	-0,134
-69,694	800,000	0,018	0,040
-68,680	526,879	-0,054	-0,091
-67,665	-115,398	0,029	-0,004
-66,651	-125,961	-0,059	-0,006
-65,636	-133,260	-0,093	-0,008
-64,622	-200,000	-0,012	-0,095
-63,607	646,798	-0,004	-0,007
-62,592	800,000	-0,015	0,033
-61,578	327,263	-0,048	0,067
-60,563	-200,000	0,049	0,171
-59,549	-200,000	-0,042	-0,205
-58,534	30,525	-2,104	-1,287
-57,519	-200,000	-0,144	-0,797
-56,505	-200,000	-1,425	-5,106
-55,490	88,401	0,882	0,702
-54,476	800,000	5,399	11,950
-53,461	-200,000	18,742	318,609
-52,446	800,000	741,750	2335,462
-51,432	558,027	1657,554	2878,055
-50,417	111,102	1641,266	1417,167
-49,403	75,410	1291,096	975,910
-48,388	30,290	1031,766	630,276
-47,373	19,949	994,537	573,253
-46,359	17,433	982,094	557,771
-45,344	14,017	978,274	544,342
-44,330	14,362	976,754	544,609
-43,315	13,744	974,696	541,411
-42,300	13,677	973,765	540,652
-41,286	13,761	972,703	540,315
-40,271	13,715	971,892	539,694
-39,257	13,739	970,898	539,197
-38,242	13,721	969,759	538,485
-37,227	13,651	969,345	538,007
-36,213	13,676	968,229	537,448
-35,198	13,619	967,454	536,809
-34,184	13,717	966,660	536,666
-33,169	13,674	965,781	536,017
-32,154	13,704	964,728	535,509
-31,140	13,681	963,815	534,906
-30,125	13,741	962,974	534,614
-29,111	13,640	962,262	533,870
-28,096	13,679	961,785	533,710
-27,082	13,671	961,053	533,257
-26,067	13,671	960,191	532,759
-25,052	13,660	959,596	532,372
-24,038	13,749	958,540	532,050
-23,023	13,679	958,061	531,538
-22,009	13,698	957,492	531,264
-20,994	13,728	956,828	530,969
-19,979	13,662	956,353	530,474
-18,965	13,715	955,433	530,111
-17,950	13,662	955,075	529,723
-16,936	13,643	954,291	529,204
-15,921	13,635	953,776	528,872
-14,906	13,648	952,828	528,369
-13,892	13,605	952,517	528,037
-12,877	13,532	951,593	527,269
-11,863	13,544	950,980	526,947
-10,848	13,558	950,495	526,702
-9,833	13,691	949,987	526,823
-8,819	13,665	949,302	526,340
-7,804	13,593	948,688	525,751
-6,790	13,600	948,031	525,387
-5,775	13,612	947,620	525,179
-4,760	13,609	947,025	524,816
-3,746	13,551	946,454	524,295
-2,731	13,430	945,619	523,428
-1,717	13,405	945,006	522,989
-0,702	13,397	944,204	522,498
0,313	13,238	943,676	522,489
1,327	16,592	941,371	531,790
2,342	25,606	795,882	473,549
3,356	21,800	460,353	268,043
4,371	-4,941	317,409	156,103
5,386	-8,843	299,263	143,176
6,400	-10,841	293,229	138,274
7,415	-11,185	290,784	136,766
8,429	-11,362	289,178	135,823
9,444	-11,413	288,194	135,299
10,459	-11,536	287,590	134,882
11,473	-11,587	287,017	134,551
12,488	-11,623	286,537	134,279
13,502	-11,404	285,892	134,179
14,517	-11,514	285,626	133,935
15,531	-11,536	285,072	133,642
16,546	-11,242	284,548	133,670
17,561	-11,551	284,252	133,219
18,575	-11,268	283,913	133,323
19,590	-11,487	283,530	132,919
20,604	-11,466	283,254	132,798
21,619	-11,558	282,883	132,523
22,634	-11,475	282,555	132,438
23,648	-11,476	282,172	132,246
24,663	-11,544	282,073	132,121
25,677	-11,549	281,844	131,997
26,692	-11,524	281,580	131,887
27,707	-11,533	281,197	131,686
28,721	-11,561	280,830	131,477
29,736	-11,575	280,694	131,388
30,750	-11,519	280,380	131,282
31,765	-11,417	280,136	131,254
32,780	-11,430	279,748	131,049
33,794	-11,406	279,658	131,017
34,809	-11,508	279,376	130,776
35,823	-11,624	279,117	130,533
36,838	-11,582	278,892	130,456
37,853	-11,512	278,719	130,429
38,867	-11,591	278,356	130,173
39,882	-11,576	278,104	130,058
40,896	-11,502	277,842	129,994
41,911	-11,559	277,512	129,775
42,926	-11,517	277,390	129,745
43,940	-11,569	277,054	129,527
44,955	-11,661	276,875	129,345
45,969	-11,591	276,770	129,350
46,984	-11,743	276,358	129,004
47,999	-11,900	276,020	128,687
49,013	-11,879	275,789	128,587
50,028	-12,180	275,631	128,219
51,042	-11,956	275,171	128,203
52,057	-12,254	275,122	127,890
53,071	-12,310	275,036	127,786
54,086	-12,065	274,677	127,837
55,101	-11,917	274,591	127,924
56,115	-11,878	274,488	127,902
57,130	-11,466	274,259	128,168
58,144	-11,327	273,928	128,132
59,159	-11,306	273,777	128,069
60,174	-11,424	273,657	127,891
61,188	-11,500	273,314	127,649
62,203	-11,548	273,173	127,528
63,217	-11,282	272,878	127,626
64,232	-11,426	272,682	127,389
65,247	-11,396	272,475	127,309
66,261	-11,370	272,203	127,194
67,276	-11,589	271,943	126,858
68,290	-11,795	271,645	126,518
69,305	-11,715	271,271	126,406
70,320	-11,610	271,176	126,448
71,334	-11,390	270,968	126,543
72,349	-11,502	270,816	126,357
73,363	-11,316	270,511	126,374
74,378	-11,311	270,461	126,345
75,393	-11,295	270,198	126,225
76,407	-11,441	269,949	125,963
77,422	-11,324	269,603	125,898
78,436	-11,268	269,397	125,842
79,451	-11,271	269,222	125,746
80,466	-11,569	269,037	125,376
81,480	-11,541	268,688	125,227
82,495	-11,512	268,419	125,118
83,509	-11,398	268,415	125,208
84,524	-11,601	268,182	124,904
85,539	-11,524	267,758	124,766
86,553	-11,767	267,648	124,482
87,568	-11,523	267,419	124,586
88,582	-11,525	267,264	124,500
89,597	-11,783	267,040	124,151
90,611	-11,460	266,863	124,350
91,626	-11,285	266,758	124,450
92,641	-11,445	266,547	124,195
93,655	-11,396	266,308	124,117
94,670	-11,365	266,084	124,030
95,684	-11,384	265,935	123,932
96,699	-11,295	265,741	123,910
97,714	-11,447	265,458	123,630
98,728	-11,796	265,338	123,249
99,743	-11,557	264,948	123,272
100,757	-11,647	264,852	123,136
101,772	-11,610	264,767	123,118
102,787	-11,496	264,438	123,057
103,801	-11,430	264,398	123,086
104,816	-11,616	264,171	122,803
105,830	-11,515	263,854	122,735
106,845	-11,382	263,774	122,806
107,860	-11,471	263,546	122,609
108,874	-11,314	263,376	122,659
109,889	-11,436	263,021	122,374
110,903	-11,391	262,994	122,391
111,918	-11,502	262,707	122,147
112,933	-11,501	262,509	122,046
113,947	-11,482	262,363	121,984
114,962	-11,460	262,165	121,900
115,976	-11,452	261,935	121,790
116,991	-11,416	261,837	121,765
118,006	-11,161	261,545	121,844
119,020	-11,450	261,560	121,585
120,035	-11,354	261,356	121,563
121,049	-11,400	261,007	121,349
122,064	-11,347	260,952	121,361
123,079	-11,348	260,719	121,241
124,093	-11,414	260,396	121,020
125,108	-11,559	260,244	120,812
126,122	-11,717	260,028	120,561
127,137	-11,895	259,726	120,254
128,151	-11,692	259,636	120,380
129,166	-11,571	259,387	120,360
130,181	-11,621	259,140	120,191
131,195	-11,634	259,038	120,121
132,210	-11,626	258,901	120,055
133,224	-11,444	258,698	120,109
134,239	-11,331	258,542	120,125
135,254	-11,364	258,377	120,009
136,268	-11,526	258,000	119,681
137,283	-11,687	257,601	119,345
138,297	-11,713	257,535	119,281
139,312	-11,811	257,286	119,071
140,327	-11,493	257,368	119,375
141,341	-11,376	257,125	119,353
142,356	-11,308	257,020	119,352
143,370	-11,440	256,891	119,167
144,385	-11,115	256,429	119,224
145,400	-11,264	256,480	119,108
146,414	-11,166	256,246	119,074
147,429	-11,409	256,198	118,830
148,443	-11,146	255,772	118,849
149,458	-11,109	255,619	118,800
150,473	-10,957	255,420	118,828
151,487	-11,184	255,281	118,556
152,502	-11,145	255,206	118,545
153,516	-11,209	254,804	118,293
154,531	-11,126	254,777	118,341
155,546	-11,059	254,658	118,332
156,560	-11,260	254,371	118,016
157,575	-11,303	253,988	117,791
158,589	-11,370	253,945	117,703
159,604	-11,192	253,854	117,803
160,619	-11,116	253,533	117,708
161,633	-11,382	253,565	117,485
162,648	-11,290	253,312	117,436
163,662	-11,090	253,066	117,483
164,677	-11,062	252,896	117,417
165,692	-11,315	252,829	117,160
166,706	-11,350	252,810	117,111
167,721	-11,083	252,398	117,137
168,735	-11,178	252,341	117,019
169,750	-11,235	252,148	116,870
170,764	-11,126	252,002	116,885
171,779	-11,202	251,847	116,737
172,794	-11,238	251,727	116,642
173,808	-11,148	251,503	116,603
174,823	-11,638	251,237	116,054
175,837	-11,773	250,907	115,778
176,852	-11,359	250,881	116,106
177,867	-11,159	250,726	116,192
178,881	-11,172	250,644	116,134
179,896	-11,191	250,382	115,985
180,910	-10,951	250,231	116,107
181,925	-10,958	249,992	115,980
182,940	-11,053	249,847	115,823
183,954	-11,194	249,706	115,629
184,969	-11,176	249,654	115,609
185,983	-11,190	249,454	115,495
186,998	-11,171	249,265	115,413
188,013	-11,106	249,077	115,369
189,027	-11,166	248,740	115,153
190,042	-10,794	248,824	115,493
191,056	-11,087	248,532	115,103
192,071	-11,108	248,388	115,008
193,086	-11,142	248,170	114,868
194,100	-11,184	247,930	114,712
195,115	-11,109	247,775	114,693
196,129	-11,010	247,570	114,670
197,144	-11,139	247,417	114,481
198,159	-11,168	247,258	114,373
199,173	-11,124	247,099	114,326
200,188	-11,211	246,925	114,163
201,202	-11,495	246,553	113,746
202,217	-11,676	246,388	113,509
203,232	-11,716	246,182	113,372
204,246	-11,164	246,095	113,778
205,261	-10,974	246,107	113,931
206,275	-11,923	245,768	112,980
207,290	-7,564	247,559	117,418
208,304	0,860	250,057	125,647
209,319	4,184	250,943	128,864
210,334	4,752	250,905	129,308
211,348	4,700	250,806	129,202
212,363	5,062	250,728	129,453
213,377	5,276	250,700	129,605
214,392	5,060	250,554	129,338
215,407	5,150	250,142	129,188
216,421	4,974	250,079	128,998
217,436	5,241	249,932	129,133
218,450	5,282	249,904	129,141
219,465	4,932	249,677	128,721
220,480	4,601	249,595	128,392
221,494	4,773	249,214	128,328
222,509	4,812	248,978	128,227
223,523	4,849	248,889	128,201
224,538	4,535	248,526	127,742
225,553	4,444	248,600	127,694
226,567	4,758	248,389	127,834
227,582	4,484	248,360	127,581
228,596	4,602	248,087	127,526
229,611	4,462	247,807	127,256
230,626	4,202	247,620	126,934
231,640	4,277	247,324	126,833
232,655	4,607	247,423	127,144
233,669	4,243	247,164	126,700
234,684	4,338	246,851	126,606
235,699	4,658	246,868	126,867
236,713	4,852	246,829	126,994
237,728	4,471	246,398	126,449
238,742	4,416	246,344	126,365
239,757	4,426	246,083	126,228
240,772	4,379	245,814	126,040
241,786	4,407	245,740	126,014
242,801	4,168	245,742	125,809
243,815	4,265	245,595	125,802
244,830	4,729	245,430	126,084
245,844	4,794	245,344	126,082
246,859	4,340	245,062	125,556
247,874	4,480	244,837	125,544
248,888	4,501	244,763	125,512
249,903	4,437	244,675	125,403
250,917	4,601	244,548	125,460
251,932	4,715	244,420	125,476
252,947	4,804	244,149	125,398
253,961	4,394	243,918	124,936
254,976	4,639	243,929	125,128
255,990	4,668	243,698	125,022
257,005	4,408	243,461	124,680
258,020	4,372	243,153	124,482
259,034	4,366	243,227	124,503
260,049	4,575	242,980	124,535
261,063	4,362	242,763	124,241
262,078	4,496	242,667	124,288
263,093	4,730	242,618	124,440
264,107	4,721	242,545	124,385
265,122	4,651	242,214	124,148
266,136	4,565	242,205	124,063
267,151	4,959	241,977	124,251
268,166	4,396	241,717	123,656
269,180	4,231	241,663	123,484
270,195	4,729	241,751	123,917
271,209	5,128	241,511	124,102
272,224	4,488	241,288	123,466
273,239	4,113	240,749	122,879
274,253	4,208	240,695	122,917
275,268	4,369	240,713	123,043
276,282	4,446	240,626	123,049
277,297	4,206	240,244	122,652
278,312	4,421	240,143	122,760
279,326	4,358	240,100	122,677
280,341	4,263	240,054	122,567
281,355	4,553	239,785	122,649
282,370	4,467	239,731	122,543
283,384	4,530	239,334	122,379
284,399	4,400	239,255	122,224
285,414	4,351	239,132	122,111
286,428	4,299	238,862	121,923
287,443	4,419	238,895	122,023
288,457	4,491	238,822	122,032
289,472	4,569	238,703	122,022
290,487	4,531	238,335	121,793
291,501	4,187	238,264	121,474
292,516	4,341	237,882	121,389
293,530	4,175	237,851	121,233
294,545	4,409	237,867	121,414
295,560	4,428	237,791	121,380
296,574	4,068	237,536	120,955
297,589	4,161	237,355	120,926
298,603	4,710	237,297	121,315
299,618	4,657	237,141	121,184
300,633	4,558	236,976	121,012
301,647	4,750	236,875	121,099
302,662	5,199	236,714	121,358
303,676	5,028	236,613	121,161
304,691	4,730	236,449	120,833
305,706	4,791	236,434	120,863
306,720	5,012	236,068	120,837
307,735	4,744	235,947	120,555
308,749	4,661	235,763	120,386
309,764	4,478	235,634	120,167
310,779	4,178	235,421	119,814
311,793	4,099	235,244	119,652
312,808	4,362	234,976	119,710
313,822	4,014	234,711	119,294
314,837	4,122	234,555	119,288
315,852	3,955	234,481	119,110
316,866	4,822	234,660	119,863
317,881	5,031	234,498	119,930
318,895	4,781	234,278	119,614
319,910	4,801	234,167	119,562
320,925	4,616	233,896	119,270
321,939	4,283	233,655	118,880
322,954	4,618	233,595	119,097
323,968	4,547	233,351	118,907
324,983	4,605	233,382	118,957
325,997	4,556	233,393	118,914
327,012	4,662	233,148	118,861
328,027	4,657	232,970	118,755
329,041	4,665	232,982	118,757
330,056	5,069	232,883	119,006
331,070	5,291	232,756	119,101
332,085	4,897	232,472	118,643
333,100	4,746	232,217	118,387
334,114	4,648	232,167	118,275
335,129	4,914	231,967	118,367
336,143	4,964	231,937	118,379
337,158	4,856	231,673	118,151
338,173	4,665	231,318	117,815
339,187	4,513	231,360	117,709
340,202	4,614	231,226	117,707
341,216	4,624	230,996	117,587
342,231	4,590	230,855	117,479
343,246	4,529	230,721	117,354
344,260	4,704	230,654	117,443
345,275	4,931	230,596	117,575
346,289	4,837	230,416	117,402
347,304	4,873	230,266	117,342
348,319	4,782	230,140	117,198
349,333	4,458	229,912	116,826
350,348	4,402	229,770	116,702
351,362	4,614	229,577	116,753
352,377	4,452	229,404	116,532
353,392	4,393	229,205	116,376
354,406	4,349	229,075	116,267
355,421	194,524	1318,994	1391,140
356,435	155,994	1451,736	1391,093
