DTS Sentinel unit serial number:	SN410029Multiplexer serial number:	ORYXHardware model number:	OX2-SRSoftware version number:	ORYX F/W v4,00 Oryx Data Collector v3.7.2.0data status	okinstallation	B5 Nyhavnadifferential loss correction	single-endedforward channel	channel 2reverse channel	N/Adate	2023/12/11time	19:32:13forward acquisition time	300,00reverse acquisition time	0,00gamma	499,1914k internal	0,3159k external	0,3159temperature offset calibration	1,0000default loss term (dB/km)	0,3820temperature slope calibration	1,0000multiplexer offset coefficient	1,0000multiplexer slope coefficient	1,0000fibre end	0,00T internal ref (°C)	15,67T ext. ref 1 (°C)	-0,09T ext. ref 2 (°C)	-0,32length (m)	temperature (°C)	Stokes	anti-Stokes-744,400	51,327	0,064	-0,045
-743,385	-121,702	-0,322	0,039
-742,371	4,093	0,089	-0,048
-741,356	-0,395	-0,265	0,138
-740,342	10,672	-0,036	0,020
-739,327	-157,826	-0,256	-0,011
-738,312	151,695	0,073	0,073
-737,298	-64,398	-0,383	-0,114
-736,283	-81,395	-0,044	0,011
-735,269	-122,409	-0,179	-0,021
-734,254	153,887	0,073	0,074
-733,239	-78,038	-0,499	-0,126
-732,225	681,930	0,064	0,123
-731,210	-146,174	0,072	0,005
-730,196	-200,000	0,023	-0,177
-729,181	-200,000	-0,033	-0,123
-728,167	-91,877	0,033	0,007
-727,152	-200,000	-0,026	-0,097
-726,137	-102,456	0,027	0,005
-725,123	-200,000	-0,027	0,095
-724,108	764,769	-0,070	-0,140
-723,094	660,936	-0,055	-0,106
-722,079	-116,572	-0,140	-0,019
-721,064	792,927	0,048	0,099
-720,050	-200,000	0,001	-0,086
-719,035	285,221	-0,036	-0,047
-718,021	-35,505	-0,091	0,036
-717,006	-107,937	-0,175	0,028
-715,991	800,000	0,016	-0,047
-714,977	-168,839	0,035	-0,001
-713,962	121,950	-0,053	0,049
-712,948	106,565	0,038	-0,033
-711,933	49,587	-0,093	-0,065
-710,918	-47,629	0,092	0,033
-709,904	72,155	-0,067	0,052
-708,889	-200,000	-0,039	-0,155
-707,875	-200,000	-0,037	-0,193
-706,860	-200,000	-0,025	-0,202
-705,845	69,949	0,109	0,083
-704,831	610,703	0,051	-0,095
-703,816	235,258	0,064	-0,078
-702,802	-69,492	0,052	0,015
-701,787	800,000	0,069	-0,162
-700,772	61,622	-0,059	-0,043
-699,758	41,990	0,047	0,031
-698,743	427,770	0,079	0,125
-697,729	-200,000	0,041	0,171
-696,714	-200,000	-0,012	0,039
-695,699	116,741	0,012	0,011
-694,685	-200,000	0,025	-0,136
-693,670	800,000	-0,040	-0,096
-692,656	400,283	0,056	-0,086
-691,641	-128,491	0,111	-0,011
-690,627	109,899	0,042	-0,037
-689,612	0,981	0,057	-0,030
-688,597	210,475	0,044	0,051
-687,583	-200,000	-0,011	-0,112
-686,568	-35,519	0,094	0,037
-685,554	-200,000	0,004	0,024
-684,539	775,270	-0,008	-0,016
-683,524	-96,615	0,068	0,013
-682,510	0,701	-0,057	-0,030
-681,495	-156,930	0,119	-0,005
-680,481	304,099	0,011	0,015
-679,466	194,662	0,054	-0,060
-678,451	-111,224	0,136	-0,020
-677,437	-200,000	0,042	-0,146
-676,422	12,719	-0,074	0,042
-675,408	52,083	0,019	-0,013
-674,393	-47,667	-0,099	-0,035
-673,378	-200,000	-0,018	-0,076
-672,364	-52,527	-0,103	-0,035
-671,349	-200,000	-0,002	0,017
-670,335	-115,467	-0,041	-0,006
-669,320	374,928	0,006	-0,008
-668,305	-164,913	0,076	-0,002
-667,291	800,000	0,030	0,067
-666,276	-200,000	0,011	0,040
-665,262	132,845	-0,094	-0,090
-664,247	465,088	-0,033	-0,054
-663,232	94,479	0,014	0,012
-662,218	74,858	0,083	0,064
-661,203	-112,662	-0,041	-0,006
-660,189	800,000	0,022	0,056
-659,174	-113,448	-0,122	0,017
-658,159	800,000	0,008	0,027
-657,145	800,000	0,057	-0,154
-656,130	-11,736	-0,136	-0,065
-655,116	208,754	0,038	-0,044
-654,101	304,790	-0,103	0,141
-653,086	-146,569	-0,142	0,009
-652,072	800,000	-0,013	-0,029
-651,057	800,000	-0,079	-0,199
-650,043	35,805	0,033	0,021
-649,028	-200,000	-0,149	0,000
-648,014	-105,479	0,096	0,016
-646,999	-149,679	0,052	-0,003
-645,984	-41,525	0,131	0,049
-644,970	167,700	-0,061	-0,063
-643,955	-35,383	-0,103	-0,041
-642,941	49,462	-0,182	-0,126
-641,926	-129,831	-0,014	0,001
-640,911	372,543	0,053	0,080
-639,897	800,000	0,011	0,030
-638,882	-200,000	0,012	0,053
-637,868	-200,000	-0,008	0,042
-636,853	80,088	-0,095	-0,075
-635,838	-48,537	-0,009	-0,003
-634,824	90,260	-0,055	0,045
-633,809	24,807	0,078	0,047
-632,795	-71,007	0,122	-0,033
-631,780	800,000	0,034	0,099
-630,765	-200,000	-0,002	-0,035
-629,751	-21,675	-0,077	-0,034
-628,736	2,053	-0,057	-0,030
-627,722	47,657	-0,016	0,011
-626,707	588,019	-0,027	-0,048
-625,692	-200,000	-0,025	0,147
-624,678	76,534	-0,109	-0,085
-623,663	-55,578	-0,061	-0,020
-622,649	-200,000	-0,045	-0,243
-621,634	277,813	-0,101	-0,133
-620,619	-84,416	-0,066	0,015
-619,605	-166,517	0,125	-0,004
-618,590	-200,000	0,008	-0,071
-617,576	-149,143	0,100	0,006
-616,561	-200,000	0,002	0,102
-615,546	-123,938	-0,074	-0,008
-614,532	336,313	-0,044	-0,063
-613,517	-200,000	0,043	-0,180
-612,503	-200,000	0,005	-0,055
-611,488	-29,104	0,087	0,037
-610,474	347,625	0,041	-0,059
-609,459	-17,909	0,030	0,014
-608,444	100,075	-0,048	-0,041
-607,430	800,000	-0,023	-0,058
-606,415	-33,078	0,049	0,020
-605,401	-20,224	0,051	-0,023
-604,386	110,474	-0,106	-0,093
-603,371	-200,000	0,008	0,074
-602,357	88,370	0,072	0,059
-601,342	-108,550	-0,100	-0,016
-600,328	92,359	-0,107	-0,088
-599,313	496,268	-0,037	0,063
-598,298	605,576	-0,034	-0,062
-597,284	343,745	-0,015	-0,022
-596,269	86,440	-0,025	0,020
-595,255	-52,149	0,147	-0,050
-594,240	181,229	0,034	-0,036
-593,225	800,000	0,059	0,126
-592,211	486,473	0,039	0,065
-591,196	427,854	0,060	-0,094
-590,182	-182,650	-0,078	0,001
-589,167	398,538	0,042	0,065
-588,152	-200,000	0,014	-0,110
-587,138	800,000	-0,034	0,070
-586,123	369,915	0,074	-0,111
-585,109	3,997	-0,011	0,006
-584,094	440,286	-0,060	-0,096
-583,079	21,620	0,123	-0,073
-582,065	493,195	0,064	0,108
-581,050	800,000	-0,017	0,041
-580,036	-200,000	0,003	-0,014
-579,021	2,254	0,137	-0,072
-578,006	-200,000	-0,004	0,012
-576,992	-107,704	-0,018	-0,003
-575,977	800,000	-0,070	0,146
-574,963	87,979	-0,090	0,073
-573,948	664,499	-0,066	0,126
-572,934	-200,000	0,014	0,062
-571,919	-200,000	-0,030	-0,162
-570,904	-31,215	0,051	-0,021
-569,890	185,686	-0,063	-0,069
-568,875	135,033	0,122	0,116
-567,861	-75,568	-0,032	0,008
-566,846	52,762	-0,065	-0,046
-565,831	-59,459	0,055	0,017
-564,817	-135,890	0,067	-0,006
-563,802	-60,494	-0,097	-0,030
-562,788	-83,253	-0,143	-0,033
-561,773	-97,219	0,033	0,006
-560,758	108,859	0,080	0,070
-559,744	-200,000	-0,007	0,066
-558,729	800,000	-0,012	0,038
-557,715	357,868	-0,068	-0,099
-556,700	-46,180	-0,054	0,019
-555,685	-34,946	0,060	0,024
-554,671	800,000	0,017	-0,042
-553,656	-200,000	0,017	-0,056
-552,642	-197,618	0,116	-0,001
-551,627	-200,000	0,008	-0,035
-550,612	-4,356	0,018	0,009
-549,598	0,740	-0,066	-0,034
-548,583	70,969	0,114	-0,086
-547,569	800,000	0,038	-0,119
-546,554	800,000	-0,011	-0,033
-545,539	438,628	-0,100	0,160
-544,525	152,634	-0,010	-0,010
-543,510	800,000	-0,032	-0,087
-542,496	729,325	0,057	0,112
-541,481	-200,000	0,011	-0,070
-540,466	442,824	0,043	0,069
-539,452	-23,906	-0,057	0,025
-538,437	-200,000	-0,013	-0,054
-537,423	395,963	-0,069	-0,106
-536,408	-131,075	-0,080	0,008
-535,393	-200,000	-0,004	-0,114
-534,379	-200,000	0,008	0,119
-533,364	234,572	0,045	0,054
-532,350	800,000	0,032	0,081
-531,335	-200,000	-0,035	-0,135
-530,321	-135,607	-0,039	0,003
-529,306	50,383	0,040	0,028
-528,291	-200,000	0,017	-0,123
-527,277	597,280	0,032	0,059
-526,262	-200,000	-0,018	-0,096
-525,248	-200,000	-0,020	-0,086
-524,233	206,594	-0,046	-0,053
-523,218	-200,000	0,011	-0,095
-522,204	-104,368	-0,153	-0,026
-521,189	317,544	0,090	-0,125
-520,175	-200,000	0,021	-0,105
-519,160	119,300	0,077	0,070
-518,145	-7,377	0,028	0,014
-517,131	800,000	-0,059	-0,153
-516,116	-66,606	-0,078	0,022
-515,102	-200,000	0,014	0,060
-514,087	747,353	-0,048	0,094
-513,072	800,000	0,034	0,079
-512,058	800,000	0,030	-0,096
-511,043	-163,427	-0,030	-0,001
-510,029	800,000	0,061	0,173
-509,014	-200,000	0,012	0,109
-507,999	-110,966	-0,047	-0,007
-506,985	800,000	0,012	-0,025
-505,970	261,536	0,045	-0,057
-504,956	-200,000	0,015	-0,057
-503,941	-72,705	-0,134	-0,036
-502,926	-73,504	0,187	-0,049
-501,912	800,000	0,025	0,071
-500,897	363,676	0,085	-0,125
-499,883	396,892	0,012	-0,018
-498,868	-129,056	0,150	-0,015
-497,853	-200,000	-0,003	0,088
-496,839	-200,000	-0,005	0,034
-495,824	170,565	-0,051	0,053
-494,810	65,242	-0,059	0,043
-493,795	-200,000	0,007	-0,062
-492,781	-25,420	0,097	0,042
-491,766	583,309	-0,049	-0,089
-490,751	-200,000	0,001	0,017
-489,737	237,079	0,076	-0,093
-488,722	-72,123	0,170	0,046
-487,708	260,200	-0,047	-0,059
-486,693	110,845	0,066	0,058
-485,678	800,000	0,025	-0,065
-484,664	-200,000	0,002	-0,152
-483,649	800,000	0,012	-0,024
-482,635	54,466	-0,009	-0,006
-481,620	291,585	0,077	0,103
-480,605	268,423	-0,057	0,073
-479,591	-200,000	-0,024	0,120
-478,576	-200,000	-0,005	-0,167
-477,562	53,129	-0,098	-0,069
-476,547	379,618	0,087	0,131
-475,532	-55,081	-0,039	-0,013
-474,518	-74,408	0,141	0,037
-473,503	-200,000	-0,010	0,095
-472,489	-200,000	0,043	0,159
-471,474	-200,000	0,009	0,150
-470,459	-131,150	0,019	0,002
-469,445	167,066	-0,057	-0,059
-468,430	222,562	0,034	-0,040
-467,416	800,000	0,019	-0,045
-466,401	-87,156	-0,123	0,027
-465,386	202,856	0,062	0,070
-464,372	800,000	0,018	0,041
-463,357	-200,000	0,023	0,086
-462,343	8,785	0,036	-0,020
-461,328	323,594	0,066	-0,092
-460,313	-200,000	-0,014	-0,101
-459,299	-200,000	0,001	-0,050
-458,284	800,000	0,029	0,076
-457,270	20,224	-0,149	0,087
-456,255	-105,274	-0,058	-0,009
-455,241	435,211	-0,083	-0,132
-454,226	58,242	-0,060	-0,043
-453,211	-200,000	-0,012	0,057
-452,197	467,898	0,036	0,059
-451,182	-200,000	0,026	0,109
-450,168	-4,868	-0,022	0,011
-449,153	17,293	-0,047	-0,027
-448,138	800,000	0,092	-0,235
-447,124	107,493	-0,045	-0,039
-446,109	800,000	0,021	0,063
-445,095	-7,352	0,038	-0,019
-444,080	283,242	0,091	0,119
-443,065	800,000	-0,059	0,124
-442,051	-200,000	0,011	0,065
-441,036	-200,000	0,018	-0,070
-440,022	-15,590	0,063	0,029
-439,007	15,547	0,131	-0,075
-437,992	173,184	-0,143	0,150
-436,978	-145,640	0,121	-0,008
-435,963	295,201	0,061	0,082
-434,949	-43,692	-0,106	-0,039
-433,934	203,544	-0,061	0,068
-432,919	800,000	-0,030	-0,082
-431,905	-109,199	0,115	0,018
-430,890	-200,000	-0,024	0,109
-429,876	267,743	-0,092	-0,117
-428,861	-51,666	0,095	-0,032
-427,846	-21,414	0,052	-0,023
-426,832	263,769	0,096	-0,121
-425,817	105,787	-0,164	-0,141
-424,803	800,000	0,032	0,078
-423,788	121,416	0,045	0,041
-422,773	800,000	-0,068	-0,143
-421,759	800,000	-0,025	-0,054
-420,744	225,672	0,083	0,098
-419,730	-132,995	-0,224	0,020
-418,715	-200,000	-0,029	-0,124
-417,701	800,000	-0,051	-0,116
-416,686	7,628	-0,100	-0,055
-415,671	-128,398	-0,171	0,017
-414,657	-200,000	-0,001	-0,026
-413,642	-200,000	0,009	0,128
-412,628	-61,253	-0,057	0,017
-411,613	-200,000	-0,012	-0,090
-410,598	-170,838	-0,052	-0,001
-409,584	209,530	-0,055	0,063
-408,569	76,812	0,073	0,056
-407,555	212,883	0,034	0,039
-406,540	357,628	0,080	-0,116
-405,525	-200,000	0,009	-0,091
-404,511	-200,000	0,000	-0,212
-403,496	800,000	-0,050	-0,153
-402,482	18,728	-0,186	-0,108
-401,467	-101,358	0,046	0,008
-400,452	-65,083	0,050	0,015
-399,438	-200,000	0,005	-0,055
-398,423	137,023	-0,057	-0,054
-397,409	424,324	0,026	0,040
-396,394	188,038	-0,006	-0,007
-395,379	-3,910	-0,053	-0,027
-394,365	366,297	-0,083	0,121
-393,350	486,890	0,047	0,079
-392,336	-23,719	-0,117	0,051
-391,321	-120,319	0,039	-0,005
-390,306	-37,356	-0,096	0,037
-389,292	17,859	-0,035	0,020
-388,277	-200,000	-0,016	-0,137
-387,263	800,000	0,036	0,110
-386,248	57,696	0,080	-0,057
-385,233	-31,164	-0,131	-0,053
-384,219	-200,000	-0,010	-0,073
-383,204	637,537	0,076	-0,140
-382,190	800,000	0,065	-0,174
-381,175	-200,000	-0,024	-0,161
-380,160	308,615	-0,049	-0,066
-379,146	-200,000	0,035	0,273
-378,131	792,744	0,052	0,104
-377,117	79,290	-0,100	0,078
-376,102	30,985	-0,084	-0,052
-375,088	220,215	0,023	0,027
-374,073	800,000	-0,038	-0,089
-373,058	43,149	0,003	0,002
-372,044	-200,000	-0,007	-0,049
-371,029	800,000	0,008	0,026
-370,015	-200,000	-0,045	0,158
-369,000	456,002	-0,018	-0,029
-367,985	123,111	0,051	0,047
-366,971	-21,194	-0,020	0,009
-365,956	485,836	0,033	0,054
-364,942	-200,000	0,005	-0,032
-363,927	495,944	0,025	-0,042
-362,912	45,562	-0,154	-0,103
-361,898	-200,000	-0,000	-0,072
-360,883	21,459	-0,037	0,022
-359,869	66,739	-0,207	0,153
-358,854	-118,017	0,020	0,003
-357,839	547,732	0,048	0,084
-356,825	-200,000	-0,008	0,277
-355,810	434,359	0,060	-0,095
-354,796	-200,000	-0,003	0,042
-353,781	800,000	-0,073	-0,195
-352,766	432,224	-0,041	-0,065
-351,752	291,709	-0,039	0,051
-350,737	27,750	0,163	-0,100
-349,723	-40,787	-0,008	0,003
-348,708	800,000	-0,019	0,044
-347,693	-91,261	-0,024	-0,005
-346,679	-200,000	0,032	0,241
-345,664	116,182	0,108	-0,096
-344,650	-200,000	0,002	0,051
-343,635	-200,000	0,014	-0,086
-342,620	-164,769	0,107	-0,003
-341,606	90,983	0,086	-0,070
-340,591	-200,000	-0,027	0,093
-339,577	106,898	-0,042	0,036
-338,562	12,462	0,122	0,068
-337,548	800,000	0,013	-0,040
-336,533	-106,738	0,059	-0,009
-335,518	-200,000	0,044	0,168
-334,504	706,391	-0,045	0,087
-333,489	-200,000	-0,001	0,042
-332,475	800,000	0,008	-0,018
-331,460	-47,348	-0,148	-0,052
-330,445	-141,630	0,080	0,006
-329,431	74,876	0,143	0,109
-328,416	257,166	-0,104	0,129
-327,402	-80,173	-0,064	0,015
-326,387	-113,647	0,135	-0,019
-325,372	239,680	-0,148	-0,179
-324,358	428,259	-0,028	-0,043
-323,343	-200,000	-0,001	0,017
-322,329	800,000	0,023	0,073
-321,314	-85,441	0,172	0,039
-320,299	54,657	0,090	-0,063
-319,285	355,902	-0,037	0,054
-318,270	-200,000	0,025	0,083
-317,256	202,038	0,121	-0,135
-316,241	-200,000	-0,021	-0,118
-315,226	-200,000	0,000	0,081
-314,212	32,058	0,029	0,018
-313,197	681,270	-0,025	0,048
-312,183	-200,000	0,012	-0,053
-311,168	-200,000	0,001	-0,072
-310,153	-49,401	-0,092	-0,031
-309,139	108,907	0,041	0,036
-308,124	342,898	-0,045	0,064
-307,110	153,786	-0,138	0,137
-306,095	309,478	0,054	0,074
-305,080	-200,000	0,007	-0,026
-304,066	-59,997	-0,085	0,026
-303,051	337,723	-0,049	-0,070
-302,037	-107,150	-0,086	0,014
-301,022	800,000	-0,047	-0,115
-300,008	144,417	0,132	0,128
-298,993	-200,000	-0,018	-0,120
-297,978	-76,361	-0,036	0,009
-296,964	-200,000	-0,017	-0,121
-295,949	-68,796	0,029	0,008
-294,935	762,850	-0,024	-0,048
-293,920	112,455	-0,037	0,032
-292,905	800,000	-0,052	0,112
-291,891	176,882	0,030	-0,032
-290,876	-6,215	0,092	0,045
-289,862	301,374	-0,058	0,077
-288,847	-200,000	-0,018	-0,162
-287,832	-21,758	-0,119	-0,052
-286,818	-0,591	0,024	0,012
-285,803	-200,000	0,002	-0,061
-284,789	800,000	0,043	0,092
-283,774	-41,376	0,097	-0,036
-282,759	56,384	-0,096	0,067
-281,745	247,502	0,084	0,103
-280,730	-43,688	0,041	-0,015
-279,716	-33,274	0,114	0,045
-278,701	800,000	-0,060	0,172
-277,686	-200,000	0,047	0,000
-276,672	800,000	-0,054	0,172
-275,657	800,000	0,045	0,127
-274,643	-200,000	0,007	0,060
-273,628	137,621	-0,075	0,071
-272,613	1,563	-0,034	0,018
-271,599	281,619	0,040	0,052
-270,584	43,963	0,120	0,079
-269,570	-134,262	0,112	0,010
-268,555	433,600	0,039	0,061
-267,540	-4,844	0,096	0,047
-266,526	-70,173	-0,051	-0,014
-265,511	-29,688	-0,063	-0,026
-264,497	-200,000	0,008	-0,094
-263,482	-69,145	0,087	0,024
-262,467	-95,924	-0,117	-0,022
-261,453	-174,837	0,100	0,002
-260,438	12,438	0,062	-0,034
-259,424	221,769	-0,054	-0,063
-258,409	800,000	-0,019	-0,050
-257,395	3,498	-0,034	0,018
-256,380	800,000	0,008	0,019
-255,365	800,000	-0,014	0,034
-254,351	800,000	-0,027	0,058
-253,336	203,937	-0,016	0,018
-252,322	49,397	-0,109	0,074
-251,307	81,229	-0,053	-0,041
-250,292	233,357	-0,043	-0,052
-249,278	-200,000	0,002	-0,013
-248,263	-90,803	-0,089	0,018
-247,249	-200,000	-0,001	0,095
-246,234	13,351	0,044	0,024
-245,219	283,361	-0,043	-0,056
-244,205	-85,356	0,130	-0,029
-243,190	48,039	0,076	-0,051
-242,176	-200,000	0,004	0,107
-241,161	237,432	-0,021	0,026
-240,146	-200,000	-0,016	0,092
-239,132	-127,927	0,134	0,014
-238,117	800,000	0,032	-0,076
-237,103	-112,301	-0,071	-0,010
-236,088	800,000	-0,026	0,067
-235,073	-67,781	-0,107	0,030
-234,059	-200,000	-0,005	-0,026
-233,044	275,566	0,017	-0,022
-232,030	214,943	-0,013	0,015
-231,015	-200,000	-0,001	0,043
-230,000	714,330	-0,039	-0,075
-228,986	40,545	0,091	0,059
-227,971	524,947	0,101	0,172
-226,957	-200,000	0,005	0,027
-225,942	48,253	0,144	-0,097
-224,927	122,614	-0,084	-0,076
-223,913	800,000	0,046	-0,101
-222,898	38,735	-0,169	0,109
-221,884	45,396	0,200	0,133
-220,869	800,000	-0,076	0,160
-219,855	800,000	0,071	0,200
-218,840	699,853	-0,058	0,110
-217,825	-104,403	-0,098	-0,016
-216,811	-189,817	0,087	0,001
-215,796	-200,000	-0,002	-0,094
-214,782	-11,148	0,083	0,039
-213,767	151,357	-0,026	-0,026
-212,752	11,064	-0,044	0,024
-211,738	321,294	-0,077	-0,106
-210,723	-200,000	0,008	-0,038
-209,709	-156,475	-0,136	-0,006
-208,694	373,910	-0,032	0,048
-207,679	-96,205	-0,151	-0,029
-206,665	141,993	0,057	-0,055
-205,650	800,000	0,064	0,132
-204,636	-16,335	0,109	0,050
-203,621	497,861	-0,027	-0,045
-202,606	-200,000	-0,039	-0,234
-201,592	-200,000	-0,030	-0,156
-200,577	800,000	0,046	-0,132
-199,563	-31,503	-0,019	0,007
-198,548	-200,000	-0,027	0,109
-197,533	-85,950	-0,047	0,011
-196,519	4,216	-0,053	0,028
-195,504	-89,574	0,116	0,024
-194,490	299,389	-0,118	-0,157
-193,475	277,226	-0,044	0,056
-192,460	-78,282	0,107	-0,026
-191,446	800,000	0,012	0,027
-190,431	41,194	0,148	0,096
-189,417	700,043	0,044	-0,083
-188,402	800,000	-0,016	0,043
-187,387	392,827	-0,030	0,045
-186,373	-81,156	0,050	-0,012
-185,358	-188,298	0,089	0,001
-184,344	223,041	0,064	-0,075
-183,329	-120,670	0,050	0,006
-182,315	-71,785	-0,135	0,036
-181,300	7,909	0,074	-0,040
-180,285	87,924	-0,137	-0,110
-179,271	-200,000	0,004	0,012
-178,256	-200,000	0,001	-0,072
-177,242	-200,000	0,022	0,102
-176,227	800,000	0,055	0,130
-175,212	137,372	0,061	0,057
-174,198	214,432	-0,075	0,085
-173,183	-13,695	-0,124	-0,058
-172,169	800,000	-0,035	-0,076
-171,154	800,000	-0,022	-0,047
-170,139	132,137	0,129	0,120
-169,125	-200,000	0,012	0,110
-168,110	-177,226	0,101	0,002
-167,096	275,646	-0,028	-0,036
-166,081	800,000	0,038	-0,095
-165,066	800,000	0,045	-0,108
-164,052	800,000	0,027	-0,060
-163,037	19,639	0,062	-0,036
-162,023	-140,306	-0,041	0,003
-161,008	56,932	0,039	0,028
-159,993	-145,399	-0,116	0,007
-158,979	-27,859	-0,085	0,035
-157,964	800,000	0,035	0,094
-156,950	-66,522	0,182	0,052
-155,935	24,177	0,096	-0,057
-154,920	-200,000	0,002	0,191
-153,906	-200,000	0,006	0,063
-152,891	9,960	-0,072	0,039
-151,877	-200,000	0,028	0,115
-150,862	-106,452	-0,109	0,017
-149,847	-25,845	-0,110	-0,047
-148,833	800,000	-0,012	0,025
-147,818	-87,977	0,047	-0,010
-146,804	18,164	0,046	0,026
-145,789	99,150	-0,017	-0,014
-144,775	478,188	0,022	-0,036
-143,760	-33,499	-0,105	-0,042
-142,745	399,068	-0,071	-0,108
-141,731	527,589	-0,020	0,035
-140,716	-200,000	-0,001	0,004
-139,702	-200,000	-0,010	-0,099
-138,687	308,930	-0,052	0,071
-137,672	800,000	-0,028	0,074
-136,658	-77,749	0,044	0,011
-135,643	-171,336	-0,125	0,003
-134,629	-200,000	-0,041	0,135
-133,614	-115,491	-0,105	-0,014
-132,599	-122,729	0,094	0,011
-131,585	466,769	-0,048	0,078
-130,570	316,004	-0,014	-0,020
-129,556	-200,000	-0,005	0,023
-128,541	-40,495	0,132	-0,049
-127,526	53,295	0,042	-0,029
-126,512	-120,572	0,056	-0,007
-125,497	-200,000	-0,023	0,178
-124,483	-158,483	0,158	-0,006
-123,468	-200,000	0,020	-0,168
-122,453	147,303	0,102	-0,099
-121,439	65,255	-0,069	-0,050
-120,424	-114,547	0,110	0,015
-119,410	-20,073	-0,100	-0,044
-118,395	-80,031	0,060	-0,014
-117,380	-200,000	-0,008	-0,028
-116,366	-98,046	0,018	-0,003
-115,351	-2,911	-0,116	0,058
-114,337	-200,000	0,005	-0,093
-113,322	18,227	0,090	-0,051
-112,307	120,451	0,058	0,052
-111,293	240,064	0,047	0,056
-110,278	173,656	0,090	0,094
-109,264	-152,292	0,130	-0,007
-108,249	112,614	0,042	-0,037
-107,234	212,583	-0,052	0,059
-106,220	-200,000	-0,026	-0,155
-105,205	-200,000	-0,049	-0,177
-104,191	145,075	0,099	0,095
-103,176	389,695	0,021	0,031
-102,162	163,915	0,086	0,088
-101,147	-200,000	-0,004	0,020
-100,132	800,000	-0,033	-0,091
-99,118	39,769	-0,085	-0,055
-98,103	488,019	-0,042	-0,069
-97,089	-200,000	-0,044	0,145
-96,074	540,393	0,086	0,147
-95,059	4,098	0,080	0,042
-94,045	267,790	0,041	0,052
-93,030	226,371	0,020	0,023
-92,016	-115,292	-0,149	-0,020
-91,001	58,847	-0,103	-0,072
-89,986	-200,000	0,005	0,090
-88,972	-81,109	0,147	-0,035
-87,957	319,710	0,055	0,075
-86,943	-127,186	0,178	0,019
-85,928	800,000	-0,024	-0,062
-84,913	16,732	-0,062	-0,035
-83,899	-96,398	0,062	-0,012
-82,884	-106,894	-0,055	0,009
-81,870	800,000	0,063	0,177
-80,855	-200,000	-0,006	0,132
-79,840	-173,658	-0,091	-0,002
-78,826	-58,319	-0,063	0,020
-77,811	-1,926	0,019	-0,010
-76,797	387,058	-0,013	-0,019
-75,782	-107,624	0,126	0,020
-74,767	317,666	-0,082	0,112
-73,753	117,827	0,035	0,031
-72,738	-200,000	-0,007	-0,094
-71,724	-164,987	-0,221	0,007
-70,709	-38,063	0,064	0,024
-69,694	222,808	0,071	-0,083
-68,680	349,910	0,063	0,090
-67,665	-121,107	0,017	-0,002
-66,651	-200,000	-0,017	-0,069
-65,636	-200,000	0,026	0,158
-64,622	53,035	-0,107	-0,073
-63,607	-200,000	0,038	0,137
-62,592	-200,000	0,018	0,070
-61,578	-131,271	-0,120	0,011
-60,563	-54,438	0,104	0,034
-59,549	-200,000	0,018	0,066
-58,534	-3,967	-2,018	-1,000
-57,519	-200,000	-0,278	-0,942
-56,505	-200,000	-1,181	-5,104
-55,490	-25,068	0,806	0,341
-54,476	800,000	5,393	12,208
-53,461	-200,000	17,418	282,706
-52,446	800,000	724,762	2216,712
-51,432	536,285	1640,916	2804,352
-50,417	110,777	1632,353	1408,310
-49,403	75,133	1286,072	971,273
-48,388	32,374	1027,981	635,227
-47,373	20,142	989,944	571,402
-46,359	18,642	977,914	559,521
-45,344	16,000	974,013	548,622
-44,330	16,236	972,406	548,467
-43,315	15,732	970,701	545,839
-42,300	15,681	969,677	545,076
-41,286	15,695	968,514	544,444
-40,271	15,704	967,561	543,916
-39,257	15,651	966,850	543,323
-38,242	15,709	965,776	542,887
-37,227	15,710	965,082	542,478
-36,213	15,714	964,129	541,934
-35,198	15,653	963,370	541,288
-34,184	15,777	962,502	541,179
-33,169	15,610	961,743	540,193
-32,154	15,731	960,736	539,997
-31,140	15,701	959,810	539,358
-30,125	15,718	959,065	538,972
-29,111	15,649	958,457	538,387
-28,096	15,698	957,651	538,069
-27,082	15,678	957,165	537,713
-26,067	15,704	956,146	537,201
-25,052	15,691	955,359	536,697
-24,038	15,710	954,615	536,317
-23,023	15,655	953,892	535,714
-22,009	15,695	953,618	535,668
-20,994	15,704	952,792	535,209
-19,979	15,726	952,130	534,888
-18,965	15,705	951,530	534,461
-17,950	15,655	951,069	534,021
-16,936	15,688	950,377	533,718
-15,921	15,627	949,650	533,093
-14,906	15,610	948,965	532,634
-13,892	15,636	948,395	532,377
-12,877	15,620	947,598	531,857
-11,863	15,562	947,009	531,319
-10,848	15,575	946,560	531,088
-9,833	15,678	946,058	531,112
-8,819	15,648	945,544	530,709
-7,804	15,629	944,769	530,193
-6,790	15,585	944,194	529,709
-5,775	15,679	943,616	529,662
-4,760	15,622	943,004	529,117
-3,746	15,591	942,435	528,678
-2,731	15,446	941,708	527,790
-1,717	15,399	941,107	527,285
-0,702	15,454	940,465	527,078
0,313	15,252	939,795	526,857
1,327	18,382	937,458	535,360
2,342	27,229	794,653	477,236
3,356	23,901	458,801	270,431
4,371	-2,711	313,381	156,548
5,386	-6,753	295,485	143,519
6,400	-8,573	289,526	138,812
7,415	-9,214	287,133	137,022
8,429	-9,261	285,574	136,220
9,444	-9,396	284,599	135,611
10,459	-9,392	283,952	135,295
11,473	-9,299	283,422	135,120
12,488	-9,399	282,912	134,769
13,502	-9,317	282,439	134,610
14,517	-9,331	281,922	134,339
15,531	-9,421	281,439	134,010
16,546	-9,499	281,017	133,722
17,561	-9,531	280,651	133,506
18,575	-9,514	280,311	133,348
19,590	-9,602	279,912	133,062
20,604	-9,537	279,551	132,941
21,619	-9,375	279,175	132,905
22,634	-9,582	278,984	132,604
23,648	-9,581	278,819	132,516
24,663	-9,663	278,430	132,241
25,677	-9,565	278,145	132,186
26,692	-9,586	277,749	131,967
27,707	-9,564	277,536	131,875
28,721	-9,570	277,285	131,738
29,736	-9,639	276,966	131,510
30,750	-9,480	276,661	131,503
31,765	-9,601	276,507	131,304
32,780	-9,634	276,209	131,120
33,794	-9,691	275,932	130,923
34,809	-9,774	275,897	130,817
35,823	-9,624	275,392	130,706
36,838	-9,683	275,110	130,505
37,853	-9,608	274,896	130,462
38,867	-9,621	274,754	130,371
39,882	-9,551	274,441	130,276
40,896	-9,554	274,306	130,198
41,911	-9,767	274,077	129,879
42,926	-9,729	273,930	129,833
43,940	-9,656	273,506	129,688
44,955	-9,675	273,348	129,585
45,969	-9,754	273,084	129,374
46,984	-9,920	272,873	129,109
47,999	-10,032	272,517	128,825
49,013	-10,179	272,314	128,581
50,028	-10,208	271,988	128,389
51,042	-10,213	271,820	128,293
52,057	-10,217	271,385	128,072
53,071	-10,361	271,220	127,850
54,086	-10,200	271,218	127,987
55,101	-10,039	271,018	128,029
56,115	-9,925	270,859	128,048
57,130	-9,492	270,663	128,343
58,144	-9,367	270,326	128,287
59,159	-9,202	270,301	128,416
60,174	-9,439	270,175	128,126
61,188	-9,470	269,910	127,960
62,203	-9,342	269,652	127,944
63,217	-9,626	269,424	127,564
64,232	-9,693	269,184	127,377
65,247	-9,379	269,012	127,573
66,261	-9,515	268,677	127,278
67,276	-9,720	268,311	126,906
68,290	-9,917	268,249	126,685
69,305	-9,663	267,957	126,768
70,320	-9,802	267,774	126,543
71,334	-9,431	267,479	126,730
72,349	-9,426	267,511	126,739
73,363	-9,350	267,151	126,626
74,378	-9,507	266,966	126,385
75,393	-9,608	266,786	126,197
76,407	-9,563	266,564	126,121
77,422	-9,496	266,274	126,033
78,436	-9,370	266,167	126,085
79,451	-9,571	265,869	125,751
80,466	-9,635	265,721	125,612
81,480	-9,807	265,429	125,308
82,495	-9,666	265,253	125,341
83,509	-9,587	265,031	125,295
84,524	-9,714	264,840	125,079
85,539	-9,835	264,519	124,809
86,553	-9,773	264,392	124,793
87,568	-9,705	264,109	124,709
88,582	-9,767	263,995	124,588
89,597	-9,670	263,780	124,563
90,611	-9,443	263,540	124,641
91,626	-9,459	263,468	124,582
92,641	-9,421	263,238	124,497
93,655	-9,578	262,931	124,200
94,670	-9,692	262,804	124,028
95,684	-9,475	262,635	124,130
96,699	-9,534	262,502	124,004
97,714	-9,540	262,299	123,891
98,728	-9,844	262,151	123,540
99,743	-9,735	261,959	123,535
100,757	-9,761	261,575	123,320
101,772	-9,667	261,427	123,323
102,787	-9,779	261,256	123,132
103,801	-9,702	261,102	123,116
104,816	-9,475	260,840	123,182
105,830	-9,334	260,740	123,249
106,845	-9,396	260,509	123,074
107,860	-9,461	260,416	122,962
108,874	-9,439	260,168	122,853
109,889	-9,523	259,922	122,652
110,903	-9,500	259,721	122,567
111,918	-9,534	259,586	122,462
112,933	-9,377	259,244	122,427
113,947	-9,395	259,337	122,445
114,962	-9,548	258,983	122,133
115,976	-9,672	258,823	121,937
116,991	-9,531	258,600	121,945
118,006	-9,510	258,334	121,827
119,020	-9,499	258,433	121,872
120,035	-9,497	258,133	121,722
121,049	-9,539	257,910	121,569
122,064	-9,496	257,728	121,510
123,079	-9,613	257,585	121,329
124,093	-9,457	257,209	121,278
125,108	-9,648	257,006	121,005
126,122	-9,819	256,797	120,748
127,137	-9,879	256,643	120,612
128,151	-9,893	256,410	120,480
129,166	-9,845	256,271	120,445
130,181	-9,785	256,069	120,391
131,195	-9,631	255,806	120,390
132,210	-9,654	255,900	120,403
133,224	-9,554	255,666	120,370
134,239	-9,259	255,493	120,532
135,254	-9,419	255,243	120,265
136,268	-9,484	254,965	120,068
137,283	-9,849	254,699	119,617
138,297	-9,925	254,457	119,428
139,312	-9,951	254,277	119,310
140,327	-9,560	254,065	119,535
141,341	-9,504	254,100	119,590
142,356	-9,410	253,963	119,595
143,370	-9,193	253,747	119,669
144,385	-9,333	253,631	119,484
145,400	-9,182	253,345	119,467
146,414	-9,415	253,341	119,255
147,429	-9,353	252,984	119,130
148,443	-9,245	252,954	119,197
149,458	-9,331	252,765	119,024
150,473	-9,395	252,606	118,884
151,487	-9,463	252,198	118,624
152,502	-9,388	252,170	118,663
153,516	-9,366	251,980	118,583
154,531	-9,090	251,661	118,656
155,546	-9,363	251,594	118,382
156,560	-9,491	251,442	118,191
157,575	-9,510	251,107	118,007
158,589	-9,292	250,953	118,110
159,604	-9,262	250,860	118,080
160,619	-9,454	250,703	117,833
161,633	-9,349	250,389	117,764
162,648	-9,359	250,320	117,712
163,662	-9,270	250,216	117,728
164,677	-9,187	249,917	117,647
165,692	-9,482	249,942	117,400
166,706	-9,121	249,592	117,528
167,721	-9,200	249,464	117,391
168,735	-9,186	249,397	117,362
169,750	-9,148	249,060	117,224
170,764	-9,143	249,088	117,231
171,779	-9,258	248,903	117,037
172,794	-9,195	248,866	117,062
173,808	-9,043	248,566	117,038
174,823	-9,713	248,351	116,365
175,837	-9,927	248,089	116,054
176,852	-9,312	248,024	116,526
177,867	-9,269	247,922	116,504
178,881	-9,347	247,679	116,315
179,896	-9,015	247,405	116,452
180,910	-9,079	247,346	116,360
181,925	-9,266	247,277	116,162
182,940	-9,146	247,035	116,138
183,954	-9,209	246,968	116,044
184,969	-9,115	246,732	116,000
185,983	-9,181	246,466	115,810
186,998	-9,045	246,257	115,814
188,013	-9,106	246,188	115,721
189,027	-9,163	246,053	115,600
190,042	-9,340	245,867	115,356
191,056	-8,834	245,591	115,635
192,071	-9,216	245,687	115,353
193,086	-9,024	245,248	115,295
194,100	-9,220	245,302	115,149
195,115	-9,046	244,896	115,091
196,129	-8,980	244,830	115,104
197,144	-9,227	244,689	114,825
198,159	-8,996	244,288	114,816
199,173	-9,145	244,308	114,693
200,188	-9,028	244,054	114,659
201,202	-9,398	243,790	114,221
202,217	-9,754	243,645	113,852
203,232	-9,853	243,352	113,624
204,246	-9,325	243,309	114,025
205,261	-8,546	243,314	114,654
206,275	-9,113	243,017	114,042
207,290	-6,580	243,974	116,556
208,304	-1,764	245,634	121,303
209,319	1,249	246,192	124,048
210,334	1,552	246,300	124,340
211,348	1,777	246,165	124,446
212,363	2,024	246,162	124,637
213,377	2,344	246,088	124,851
214,392	2,435	245,859	124,798
215,407	2,124	245,781	124,493
216,421	2,221	245,469	124,403
217,436	2,276	245,455	124,429
218,450	2,441	245,395	124,523
219,465	2,087	245,102	124,074
220,480	2,109	244,856	123,956
221,494	2,171	244,778	123,956
222,509	2,466	244,523	124,057
223,523	2,185	244,521	123,816
224,538	1,629	244,147	123,162
225,553	1,846	243,951	123,229
226,567	1,929	243,911	123,265
227,582	2,169	243,745	123,366
228,596	2,015	243,641	123,176
229,611	1,917	243,282	122,905
230,626	1,758	243,131	122,689
231,640	2,104	242,977	122,880
232,655	2,268	242,873	122,950
233,669	2,013	242,661	122,625
234,684	1,779	242,574	122,381
235,699	2,280	242,591	122,784
236,713	2,475	242,355	122,810
237,728	1,943	242,108	122,245
238,742	1,997	241,958	122,202
239,757	1,944	241,897	122,118
240,772	1,884	241,752	121,985
241,786	2,065	241,434	121,960
242,801	1,760	241,304	121,638
243,815	1,785	241,023	121,506
244,830	1,865	241,064	121,579
245,844	2,216	240,901	121,768
246,859	1,910	240,761	121,441
247,874	2,039	240,527	121,416
248,888	1,998	240,472	121,345
249,903	2,201	240,298	121,408
250,917	2,214	240,292	121,405
251,932	2,409	240,211	121,508
252,947	2,104	239,908	121,101
253,961	1,811	239,588	120,695
254,976	2,196	239,389	120,891
255,990	2,344	239,240	120,922
257,005	1,915	239,179	120,540
258,020	1,913	238,834	120,354
259,034	1,989	238,828	120,400
260,049	2,039	238,672	120,350
261,063	1,859	238,420	120,070
262,078	2,002	238,309	120,116
263,093	2,217	238,147	120,194
264,107	2,247	238,043	120,155
265,122	1,984	237,917	119,872
266,136	2,117	237,753	119,885
267,151	2,286	237,777	120,020
268,166	2,166	237,472	119,760
269,180	1,891	237,318	119,455
270,195	2,600	237,402	120,046
271,209	2,603	237,257	119,964
272,224	1,993	236,799	119,242
273,239	1,824	236,680	119,039
274,253	1,873	236,375	118,913
275,268	1,832	236,449	118,908
276,282	2,064	236,305	119,007
277,297	1,749	236,151	118,671
278,312	1,910	236,004	118,714
279,326	2,027	235,810	118,697
280,341	2,069	235,658	118,643
281,355	2,077	235,530	118,573
282,370	2,151	235,463	118,587
283,384	2,115	235,261	118,447
284,399	2,019	234,987	118,223
285,414	1,857	234,749	117,967
286,428	2,139	234,711	118,157
287,443	2,180	234,516	118,079
288,457	2,366	234,577	118,245
289,472	2,243	234,436	118,067
290,487	2,090	234,175	117,807
291,501	1,986	233,951	117,603
292,516	1,756	233,659	117,267
293,530	1,689	233,572	117,162
294,545	1,770	233,566	117,211
295,560	1,792	233,547	117,208
296,574	1,805	233,184	117,025
297,589	1,780	232,997	116,901
298,603	2,267	233,028	117,283
299,618	2,294	232,872	117,215
300,633	2,205	232,682	117,039
301,647	2,513	232,668	117,259
302,662	2,616	232,649	117,319
303,676	2,537	232,343	117,094
304,691	2,524	232,253	117,027
305,706	2,690	232,036	117,036
306,720	2,496	231,868	116,791
307,735	2,335	231,760	116,602
308,749	2,070	231,560	116,289
309,764	2,193	231,294	116,239
310,779	2,009	231,052	115,966
311,793	1,875	230,950	115,803
312,808	1,947	230,633	115,688
313,822	1,932	230,626	115,663
314,837	1,837	230,529	115,531
315,852	1,883	230,257	115,420
316,866	2,059	230,194	115,512
317,881	2,233	230,211	115,642
318,895	2,610	230,223	115,925
319,910	2,604	230,148	115,872
320,925	2,265	229,802	115,430
321,939	2,265	229,421	115,230
322,954	2,530	229,441	115,429
323,968	2,534	229,364	115,384
324,983	2,386	229,201	115,179
325,997	2,514	229,086	115,208
327,012	2,135	228,991	114,864
328,027	1,975	228,666	114,569
329,041	2,270	228,651	114,774
330,056	2,668	228,581	115,029
331,070	3,111	228,373	115,248
332,085	2,893	228,266	115,020
333,100	2,517	228,159	114,673
334,114	2,435	227,819	114,429
335,129	2,542	227,713	114,447
336,143	2,272	227,581	114,168
337,158	2,401	227,548	114,238
338,173	2,507	227,473	114,269
339,187	2,411	227,153	114,027
340,202	2,547	227,079	114,081
341,216	2,600	226,822	113,981
342,231	2,439	226,731	113,805
343,246	2,335	226,592	113,647
344,260	2,631	226,415	113,769
345,275	2,705	226,480	113,847
346,289	2,589	226,414	113,717
347,304	2,744	226,223	113,727
348,319	2,893	225,917	113,674
349,333	2,477	225,784	113,288
350,348	2,010	225,616	112,845
351,362	2,385	225,419	113,015
352,377	2,131	225,211	112,713
353,392	2,196	225,222	112,756
354,406	2,429	224,987	112,801
355,421	195,871	1319,142	1395,955
356,435	157,000	1452,457	1395,965
