DTS Sentinel unit serial number:	SN410029Multiplexer serial number:	ORYXHardware model number:	OX2-SRSoftware version number:	ORYX F/W v4,00 Oryx Data Collector v3.7.2.0data status	okinstallation	B5 Nyhavnadifferential loss correction	single-endedforward channel	channel 2reverse channel	N/Adate	2023/12/12time	08:57:13forward acquisition time	300,00reverse acquisition time	0,00gamma	499,1914k internal	0,3158k external	0,3158temperature offset calibration	1,0000default loss term (dB/km)	0,3820temperature slope calibration	1,0000multiplexer offset coefficient	1,0000multiplexer slope coefficient	1,0000fibre end	0,00T internal ref (°C)	15,06T ext. ref 1 (°C)	-1,28T ext. ref 2 (°C)	-1,58length (m)	temperature (°C)	Stokes	anti-Stokes-744,400	-123,485	0,155	-0,018
-743,385	-46,365	-0,229	0,083
-742,371	-142,614	0,149	0,011
-741,356	-50,130	-0,323	-0,112
-740,342	-35,294	0,189	0,075
-739,327	-80,296	-0,247	-0,060
-738,312	2,739	0,081	0,043
-737,298	-70,461	-0,362	-0,100
-736,283	-16,172	0,115	0,054
-735,269	-97,534	-0,231	0,044
-734,254	144,350	0,057	0,056
-733,239	-140,441	-0,422	-0,032
-732,225	-53,434	0,075	-0,025
-731,210	-200,000	-0,014	-0,047
-730,196	-200,000	-0,014	-0,107
-729,181	-74,090	0,096	0,025
-728,167	443,177	0,038	-0,062
-727,152	800,000	-0,018	0,041
-726,137	-115,794	-0,044	-0,006
-725,123	305,981	-0,117	-0,161
-724,108	800,000	-0,014	0,043
-723,094	122,703	-0,138	-0,127
-722,079	273,747	0,058	-0,076
-721,064	-102,060	-0,012	0,002
-720,050	-6,757	-0,189	-0,094
-719,035	-139,061	-0,045	-0,004
-718,021	608,922	-0,116	0,214
-717,006	-86,199	-0,048	-0,011
-715,991	247,223	-0,117	-0,145
-714,977	-200,000	0,056	-0,192
-713,962	-17,067	0,178	0,082
-712,948	-124,596	-0,157	0,018
-711,933	800,000	0,012	-0,029
-710,918	-200,000	0,016	0,078
-709,904	-200,000	-0,009	-0,161
-708,889	6,643	-0,070	-0,038
-707,875	-120,595	-0,175	0,022
-706,860	-200,000	-0,022	0,102
-705,845	140,548	-0,038	-0,037
-704,831	-32,380	0,010	0,004
-703,816	-200,000	-0,001	0,115
-702,802	-85,087	0,055	-0,013
-701,787	-200,000	-0,010	-0,066
-700,772	800,000	-0,045	-0,122
-699,758	83,235	0,045	-0,036
-698,743	800,000	-0,035	0,082
-697,729	-94,096	0,085	0,017
-696,714	-200,000	-0,004	0,016
-695,699	-200,000	0,008	-0,115
-694,685	-181,099	-0,078	0,001
-693,670	347,084	-0,055	-0,080
-692,656	-133,303	0,071	0,007
-691,641	199,033	-0,114	-0,128
-690,627	-117,555	0,113	-0,015
-689,612	-52,499	-0,117	-0,040
-688,597	-200,000	0,007	-0,109
-687,583	-17,522	-0,147	-0,068
-686,568	46,906	-0,071	-0,049
-685,554	65,430	-0,019	0,014
-684,539	-116,967	-0,101	0,013
-683,524	248,859	0,134	-0,167
-682,510	-82,852	0,164	0,039
-681,495	-200,000	-0,001	0,055
-680,481	800,000	-0,034	-0,106
-679,466	70,017	-0,032	0,024
-678,451	-120,295	-0,029	-0,004
-677,437	-58,634	0,104	0,033
-676,422	-94,920	0,032	-0,006
-675,408	-200,000	-0,008	-0,177
-674,393	-111,665	-0,210	0,031
-673,378	800,000	0,046	-0,097
-672,364	325,441	-0,032	-0,045
-671,349	46,238	0,041	0,028
-670,335	43,040	-0,129	0,086
-669,320	-14,500	0,080	-0,038
-668,305	-10,290	-0,027	0,013
-667,291	-200,000	0,014	0,117
-666,276	244,809	-0,066	-0,082
-665,262	82,491	-0,119	-0,095
-664,247	-67,648	0,072	-0,020
-663,232	280,026	0,025	-0,032
-662,218	750,762	-0,044	0,089
-661,203	800,000	-0,055	0,138
-660,189	314,110	0,017	0,024
-659,174	800,000	0,036	-0,079
-658,159	-75,280	-0,144	-0,038
-657,145	296,859	-0,106	0,143
-656,130	358,758	-0,075	0,110
-655,116	800,000	-0,039	-0,080
-654,101	45,357	0,026	0,018
-653,086	-162,466	-0,049	-0,002
-652,072	-200,000	-0,006	-0,115
-651,057	24,642	-0,097	-0,059
-650,043	202,290	-0,091	-0,104
-649,028	124,917	0,140	-0,130
-648,014	-177,308	0,173	0,003
-646,999	-23,324	0,070	-0,031
-645,984	-34,777	0,086	-0,034
-644,970	-96,051	0,087	-0,017
-643,955	-163,173	-0,227	-0,008
-642,941	-200,000	0,001	-0,154
-641,926	-200,000	0,002	0,007
-640,911	-143,632	-0,061	0,004
-639,897	-200,000	0,034	0,116
-638,882	-137,901	0,034	0,003
-637,868	31,833	-0,059	0,037
-636,853	-94,736	-0,008	0,001
-635,838	-200,000	0,000	0,011
-634,824	236,460	0,064	0,078
-633,809	163,608	-0,100	-0,103
-632,795	132,233	-0,012	0,012
-631,780	-200,000	0,004	0,071
-630,765	685,694	0,072	-0,140
-629,751	-10,390	-0,092	0,045
-628,736	800,000	-0,020	-0,057
-627,722	-13,239	-0,046	-0,022
-626,707	-26,863	-0,074	0,032
-625,692	-112,460	0,107	0,016
-624,678	-200,000	-0,010	0,088
-623,663	-27,374	-0,076	-0,032
-622,649	-200,000	0,017	0,064
-621,634	-90,250	-0,055	0,012
-620,619	26,928	0,125	-0,077
-619,605	187,440	-0,101	-0,111
-618,590	-132,836	0,061	0,006
-617,576	-9,867	-0,105	-0,051
-616,561	119,419	0,029	-0,027
-615,546	-29,013	0,048	-0,020
-614,532	148,185	0,078	-0,077
-613,517	60,064	0,043	-0,031
-612,503	40,348	-0,029	0,019
-611,488	-200,000	-0,010	0,124
-610,474	-200,000	0,009	-0,063
-609,459	15,344	-0,061	0,035
-608,444	-14,402	0,025	0,012
-607,430	-200,000	-0,004	-0,066
-606,415	208,120	0,046	0,053
-605,401	-34,934	-0,032	0,013
-604,386	100,488	0,053	0,045
-603,371	-170,849	0,012	-0,000
-602,357	-27,097	0,072	0,031
-601,342	-40,242	0,086	-0,033
-600,328	-116,816	-0,101	0,013
-599,313	-200,000	0,024	-0,078
-598,298	23,865	-0,048	-0,029
-597,284	-37,243	0,025	-0,010
-596,269	-200,000	0,001	-0,020
-595,255	-200,000	0,020	-0,077
-594,240	441,806	-0,043	-0,069
-593,225	-200,000	-0,019	0,127
-592,211	-200,000	-0,024	-0,165
-591,196	-200,000	-0,009	0,132
-590,182	-114,631	0,119	0,017
-589,167	-32,377	-0,087	-0,035
-588,152	114,215	-0,071	0,063
-587,138	800,000	-0,023	0,056
-586,123	111,413	-0,029	-0,026
-585,109	-43,371	0,073	-0,027
-584,094	672,202	0,021	-0,040
-583,079	733,529	0,012	0,024
-582,065	800,000	-0,025	0,058
-581,050	2,207	-0,045	0,024
-580,036	-200,000	0,025	-0,109
-579,021	398,822	-0,061	-0,093
-578,006	100,281	-0,052	0,045
-576,992	-200,000	-0,002	0,064
-575,977	800,000	0,022	0,050
-574,963	-200,000	-0,031	-0,162
-573,948	186,260	0,088	0,096
-572,934	-105,672	-0,090	-0,015
-571,919	-97,794	-0,113	-0,021
-570,904	306,503	-0,059	-0,081
-569,890	800,000	0,022	-0,063
-568,875	800,000	0,027	-0,077
-567,861	186,267	-0,065	-0,071
-566,846	1,516	-0,209	0,110
-565,831	-39,851	-0,042	-0,016
-564,817	97,977	0,013	0,011
-563,802	34,971	-0,066	0,042
-562,788	439,679	0,071	0,114
-561,773	2,395	0,087	-0,046
-560,758	31,325	-0,124	0,077
-559,744	447,571	0,128	0,207
-558,729	-33,680	-0,092	-0,037
-557,715	-200,000	-0,037	-0,183
-556,700	800,000	0,019	0,046
-555,685	-200,000	0,006	-0,107
-554,671	488,338	0,021	-0,035
-553,656	-82,361	-0,188	-0,044
-552,642	800,000	-0,063	0,153
-551,627	46,876	-0,031	0,021
-550,612	-173,722	-0,052	0,001
-549,598	59,318	-0,062	-0,044
-548,583	-200,000	0,003	-0,130
-547,569	-91,425	0,112	-0,023
-546,554	-114,154	0,106	-0,015
-545,539	673,352	0,043	0,082
-544,525	-200,000	0,018	0,124
-543,510	-149,499	-0,131	-0,007
-542,496	701,537	0,005	-0,010
-541,481	-63,734	-0,130	-0,039
-540,466	698,105	0,054	0,105
-539,452	-200,000	0,008	0,109
-538,437	122,953	-0,096	-0,088
-537,423	-160,991	0,075	-0,003
-536,408	536,732	-0,040	-0,069
-535,393	-200,000	-0,007	-0,225
-534,379	800,000	-0,033	-0,072
-533,364	800,000	0,011	-0,022
-532,350	61,641	0,042	0,030
-531,335	-60,344	0,135	0,042
-530,321	104,299	0,038	0,033
-529,306	40,221	-0,077	-0,051
-528,291	-2,993	0,012	-0,006
-527,277	800,000	0,030	-0,088
-526,262	140,193	0,055	0,053
-525,248	800,000	0,011	-0,033
-524,233	-7,561	-0,098	-0,048
-523,218	81,240	0,071	0,056
-522,204	-35,794	0,129	-0,051
-521,189	-88,349	0,018	-0,004
-520,175	-102,272	-0,097	-0,017
-519,160	-58,758	0,054	-0,017
-518,145	233,229	-0,095	-0,115
-517,131	-165,811	0,008	-0,000
-516,116	0,048	0,152	0,079
-515,102	800,000	0,016	0,050
-514,087	138,244	-0,058	-0,055
-513,072	-7,477	0,048	0,024
-512,058	-18,120	-0,135	-0,062
-511,043	-200,000	0,004	-0,077
-510,029	54,937	0,045	-0,032
-509,014	136,789	0,069	0,066
-507,999	-49,480	0,075	-0,026
-506,985	-200,000	-0,037	-0,154
-505,970	-90,143	0,180	0,038
-504,956	-90,445	-0,211	-0,044
-503,941	-56,308	0,156	0,050
-502,926	38,180	0,052	-0,033
-501,912	-119,890	-0,109	0,014
-500,897	-95,295	0,091	0,018
-499,883	206,662	-0,107	-0,122
-498,868	382,174	0,033	-0,049
-497,853	279,866	0,020	-0,026
-496,839	-92,896	0,030	0,006
-495,824	-133,131	-0,067	0,006
-494,810	-141,634	0,110	0,008
-493,795	595,580	0,059	0,107
-492,781	-72,431	0,124	0,033
-491,766	800,000	0,063	0,152
-490,751	-116,487	0,095	0,013
-489,737	-200,000	0,001	0,030
-488,722	-200,000	0,023	0,082
-487,708	-117,422	0,077	-0,010
-486,693	-132,989	-0,066	0,006
-485,678	51,926	-0,105	-0,073
-484,664	-89,708	-0,108	-0,023
-483,649	219,031	0,044	0,051
-482,635	97,994	-0,137	-0,115
-481,620	-200,000	0,022	-0,166
-480,605	-200,000	0,003	0,133
-479,591	800,000	0,026	0,077
-478,576	294,932	0,088	-0,118
-477,562	-200,000	-0,016	-0,069
-476,547	360,103	-0,038	0,056
-475,532	72,289	-0,037	-0,028
-474,518	800,000	0,008	-0,021
-473,503	116,151	-0,080	-0,072
-472,489	68,678	0,024	0,018
-471,474	-44,990	-0,114	-0,041
-470,459	78,381	-0,077	0,060
-469,445	-200,000	-0,035	-0,163
-468,430	130,649	0,030	-0,028
-467,416	800,000	0,030	-0,075
-466,401	-200,000	0,058	0,217
-465,386	-200,000	0,045	-0,161
-464,372	180,193	-0,063	0,067
-463,357	173,720	0,136	-0,143
-462,343	-132,446	-0,094	0,009
-461,328	695,013	-0,015	0,029
-460,313	-118,756	0,093	0,012
-459,299	800,000	-0,079	0,163
-458,284	322,861	0,092	-0,129
-457,270	370,837	0,035	0,052
-456,255	90,747	-0,074	0,061
-455,241	-200,000	-0,000	-0,003
-454,226	-166,672	-0,147	-0,004
-453,211	-105,418	-0,117	-0,019
-452,197	-200,000	-0,002	0,020
-451,182	-173,590	0,052	0,001
-450,168	78,650	-0,048	-0,037
-449,153	-200,000	0,005	0,065
-448,138	151,135	-0,029	0,029
-447,124	-200,000	0,034	-0,191
-446,109	-161,929	0,045	-0,002
-445,095	71,709	0,113	0,085
-444,080	446,626	-0,018	0,030
-443,065	-101,233	-0,040	-0,007
-442,051	-200,000	-0,023	-0,136
-441,036	800,000	-0,053	-0,148
-440,022	-145,302	-0,061	0,004
-439,007	454,756	-0,097	0,157
-437,992	-74,839	-0,093	-0,024
-436,978	-74,433	-0,047	0,012
-435,963	139,343	0,103	0,099
-434,949	32,731	-0,017	-0,011
-433,934	-200,000	-0,065	-0,222
-432,919	81,576	-0,060	-0,047
-431,905	-79,524	-0,010	-0,002
-430,890	-200,000	0,008	-0,089
-429,876	-181,719	0,088	-0,001
-428,861	-200,000	0,024	0,102
-427,846	-200,000	-0,005	0,079
-426,832	-200,000	0,001	0,091
-425,817	-9,846	-0,099	-0,048
-424,803	-189,783	0,112	0,001
-423,788	0,563	0,129	-0,067
-422,773	127,221	-0,044	0,041
-421,759	428,710	-0,046	0,073
-420,744	174,916	0,081	0,085
-419,730	674,767	0,047	0,089
-418,715	-200,000	0,001	-0,007
-417,701	-200,000	-0,001	-0,066
-416,686	636,442	-0,006	0,011
-415,671	800,000	0,031	0,078
-414,657	229,403	0,086	0,102
-413,642	-57,949	-0,104	0,033
-412,628	800,000	-0,032	-0,101
-411,613	151,868	0,058	-0,058
-410,598	-73,838	-0,097	-0,025
-409,584	-200,000	0,014	-0,070
-408,569	-200,000	0,015	0,056
-407,555	74,874	0,060	-0,046
-406,540	-110,633	-0,084	0,012
-405,525	65,367	0,046	-0,034
-404,511	-200,000	-0,010	0,085
-403,496	-2,937	0,038	0,019
-402,482	103,705	0,037	-0,031
-401,467	800,000	0,024	0,066
-400,452	800,000	0,015	0,049
-399,438	81,835	-0,074	-0,059
-398,423	-83,018	0,046	-0,011
-397,409	46,415	-0,094	0,063
-396,394	-17,543	-0,136	0,062
-395,379	-19,110	-0,134	0,060
-394,365	230,972	0,086	-0,103
-393,350	-200,000	-0,030	0,114
-392,336	800,000	-0,033	0,104
-391,321	-75,145	-0,033	-0,009
-390,306	191,217	-0,085	-0,093
-389,292	191,675	0,055	-0,060
-388,277	746,753	-0,087	0,171
-387,263	13,158	0,080	-0,045
-386,248	800,000	0,036	-0,103
-385,233	16,200	-0,093	0,053
-384,219	240,557	0,100	0,122
-383,204	192,370	0,026	-0,029
-382,190	-109,631	0,023	0,003
-381,175	-65,085	0,124	0,036
-380,160	-200,000	0,013	-0,158
-379,146	-77,846	-0,062	-0,015
-378,131	-3,461	0,111	0,056
-377,117	-85,030	-0,147	-0,033
-376,102	800,000	-0,044	0,113
-375,088	183,180	-0,063	-0,067
-374,073	61,715	0,030	-0,022
-373,058	777,301	-0,021	0,041
-372,044	-200,000	-0,010	0,139
-371,029	358,644	0,028	0,040
-370,015	800,000	0,050	-0,117
-369,000	255,631	0,016	0,020
-367,985	-200,000	0,019	-0,176
-366,971	-137,000	0,114	-0,009
-365,956	-200,000	-0,023	0,104
-364,942	-18,722	-0,076	0,034
-363,927	147,101	-0,055	0,054
-362,912	-55,787	0,086	0,028
-361,898	-52,598	-0,070	0,023
-360,883	89,587	-0,095	0,077
-359,869	-88,362	-0,082	0,018
-358,854	-200,000	-0,004	0,032
-357,839	26,083	0,092	0,055
-356,825	273,508	0,097	0,124
-355,810	84,151	0,102	0,081
-354,796	-111,865	-0,152	-0,022
-353,781	-84,292	0,083	-0,019
-352,766	-200,000	0,018	-0,089
-351,752	463,363	0,033	0,053
-350,737	800,000	-0,030	-0,067
-349,723	-200,000	0,003	-0,063
-348,708	-200,000	-0,008	-0,040
-347,693	-119,832	0,157	-0,019
-346,679	538,631	-0,094	-0,162
-345,664	752,576	0,057	-0,113
-344,650	800,000	0,034	0,093
-343,635	800,000	0,006	-0,014
-342,620	35,389	0,107	0,068
-341,606	-62,772	0,129	0,039
-340,591	-200,000	-0,042	0,184
-339,577	16,612	-0,208	0,119
-338,562	800,000	0,070	-0,152
-337,548	-200,000	-0,013	-0,085
-336,533	270,102	-0,082	0,105
-335,518	800,000	0,024	-0,048
-334,504	576,034	0,019	0,033
-333,489	-41,841	-0,056	0,021
-332,475	14,303	-0,065	0,037
-331,460	8,445	0,038	0,021
-330,445	-119,807	0,134	0,017
-329,431	34,040	0,033	-0,021
-328,416	-200,000	-0,009	0,130
-327,402	591,268	-0,051	-0,091
-326,387	590,440	-0,025	0,046
-325,372	215,609	0,056	0,065
-324,358	-85,454	-0,087	0,020
-323,343	277,459	0,073	-0,094
-322,329	-200,000	0,002	-0,051
-321,314	669,417	0,042	-0,080
-320,299	-76,608	0,097	0,025
-319,285	-200,000	0,020	-0,088
-318,270	35,048	-0,042	-0,026
-317,256	-200,000	-0,014	-0,086
-316,241	-27,129	0,121	-0,051
-315,226	38,642	0,087	0,056
-314,212	-71,540	-0,122	0,033
-313,197	-97,383	-0,035	0,007
-312,183	-13,494	0,070	0,033
-311,168	35,415	-0,101	-0,064
-310,153	705,945	0,032	-0,061
-309,139	247,132	0,017	-0,021
-308,124	-200,000	-0,024	-0,098
-307,110	800,000	-0,025	-0,077
-306,095	97,690	0,051	0,042
-305,080	800,000	-0,028	0,068
-304,066	800,000	-0,017	0,043
-303,051	-200,000	0,003	-0,042
-302,037	144,559	-0,093	0,090
-301,022	-73,553	-0,139	0,037
-300,008	-41,765	0,076	0,028
-298,993	-105,274	-0,119	-0,019
-297,978	-38,572	0,058	0,022
-296,964	116,646	0,070	0,062
-295,949	-75,746	-0,203	0,052
-294,935	800,000	-0,018	0,037
-293,920	12,738	0,026	-0,015
-292,905	800,000	0,013	0,042
-291,891	334,568	0,008	0,011
-290,876	91,089	0,068	0,055
-289,862	-200,000	-0,005	-0,061
-288,847	-167,310	0,115	0,003
-287,832	-73,893	-0,063	-0,016
-286,818	-150,824	0,095	0,005
-285,803	257,189	0,095	0,118
-284,789	80,603	0,029	0,023
-283,774	39,398	-0,099	0,064
-282,759	0,589	-0,077	0,040
-281,745	-120,456	-0,049	-0,006
-280,730	800,000	-0,034	0,088
-279,716	-28,909	-0,023	0,010
-278,701	-200,000	-0,002	0,094
-277,686	-8,451	-0,076	0,037
-276,672	138,108	-0,058	0,055
-275,657	-200,000	0,000	0,116
-274,643	-0,774	0,160	0,082
-273,628	800,000	0,015	0,042
-272,613	-104,050	-0,168	-0,028
-271,599	800,000	0,057	-0,138
-270,584	531,385	0,042	0,071
-269,570	5,376	0,208	0,111
-268,555	-200,000	0,005	0,117
-267,540	-37,430	-0,069	0,026
-266,526	-200,000	-0,005	-0,023
-265,511	-200,000	0,007	-0,051
-264,497	800,000	0,035	0,070
-263,482	129,942	0,130	0,121
-262,467	-128,413	0,088	-0,009
-261,453	-23,408	-0,051	0,022
-260,438	-200,000	-0,004	0,065
-259,424	282,970	-0,041	0,054
-258,409	-58,490	-0,129	-0,040
-257,395	-62,154	-0,082	0,025
-256,380	-30,014	0,102	-0,042
-255,365	-200,000	-0,006	0,030
-254,351	-15,258	0,069	-0,032
-253,336	800,000	-0,011	0,036
-252,322	-148,189	-0,067	-0,004
-251,307	800,000	0,029	-0,081
-250,292	42,326	-0,062	-0,041
-249,278	-56,308	-0,053	0,017
-248,263	-3,738	0,033	0,017
-247,249	23,337	-0,146	-0,087
-246,234	-200,000	-0,008	-0,211
-245,219	-118,212	-0,074	-0,009
-244,205	-200,000	-0,011	-0,136
-243,190	-19,366	-0,098	0,044
-242,176	-174,807	0,051	0,001
-241,161	-52,088	0,141	0,047
-240,146	525,785	0,004	-0,006
-239,132	-90,134	-0,155	0,032
-238,117	16,425	-0,016	0,009
-237,103	-71,877	0,156	-0,042
-236,088	-200,000	-0,022	0,084
-235,073	-200,000	0,016	0,112
-234,059	-200,000	0,014	0,124
-233,044	-200,000	-0,003	0,036
-232,030	-200,000	0,017	0,061
-231,015	261,547	-0,058	-0,073
-230,000	535,865	-0,043	-0,074
-228,986	655,636	-0,021	0,038
-227,971	-33,682	0,184	0,073
-226,957	75,260	0,077	0,058
-225,942	-2,804	0,114	-0,057
-224,927	-200,000	0,015	-0,065
-223,913	-30,557	-0,082	0,034
-222,898	-74,671	-0,044	-0,011
-221,884	-157,053	0,049	-0,002
-220,869	-200,000	-0,007	-0,117
-219,855	781,060	-0,078	0,155
-218,840	47,005	-0,151	0,101
-217,825	-58,697	0,102	0,032
-216,811	800,000	0,020	0,062
-215,796	-200,000	-0,024	0,105
-214,782	-200,000	0,013	-0,082
-213,767	-98,865	0,120	0,022
-212,752	627,112	0,040	-0,074
-211,738	-200,000	-0,020	0,105
-210,723	-93,022	-0,083	-0,017
-209,709	131,402	-0,049	0,045
-208,694	-51,099	-0,084	-0,028
-207,679	-200,000	-0,007	-0,147
-206,665	-82,613	0,104	0,024
-205,650	-141,356	-0,047	-0,003
-204,636	-200,000	-0,006	0,066
-203,621	-200,000	-0,020	-0,164
-202,606	285,256	-0,062	0,081
-201,592	-19,653	-0,089	0,040
-200,577	284,576	0,021	0,027
-199,563	197,943	0,034	-0,038
-198,548	84,462	0,069	0,055
-197,533	-48,790	0,113	0,039
-196,519	84,294	0,027	0,021
-195,504	-200,000	0,006	0,088
-194,490	148,685	0,079	-0,077
-193,475	272,237	0,059	0,075
-192,460	-91,998	0,016	-0,003
-191,446	-94,433	0,116	0,023
-190,431	-200,000	-0,012	-0,135
-189,417	-32,274	0,156	0,063
-188,402	-25,298	-0,176	-0,075
-187,387	520,996	-0,072	-0,122
-186,373	-119,001	0,114	-0,014
-185,358	800,000	0,009	0,020
-184,344	-137,371	0,026	-0,002
-183,329	22,491	0,078	-0,046
-182,315	-18,061	0,048	0,022
-181,300	-44,607	-0,098	0,035
-180,285	149,765	-0,136	-0,133
-179,271	800,000	-0,054	-0,130
-178,256	53,410	0,104	0,072
-177,242	-160,119	0,016	-0,001
-176,227	13,531	0,094	0,053
-175,212	257,691	0,126	0,157
-174,198	-66,028	-0,051	-0,015
-173,183	-200,000	0,003	-0,068
-172,169	105,100	-0,045	-0,038
-171,154	-200,000	0,025	-0,128
-170,139	-133,948	-0,136	-0,012
-169,125	-114,558	0,052	-0,007
-168,110	800,000	-0,041	0,131
-167,096	-170,561	-0,073	-0,002
-166,081	-7,535	0,098	0,047
-165,066	-200,000	0,006	-0,019
-164,052	555,467	0,078	-0,136
-163,037	676,914	0,055	-0,103
-162,023	-56,577	0,169	0,054
-161,008	-27,499	-0,103	-0,043
-159,993	-200,000	-0,007	-0,125
-158,979	-200,000	0,017	-0,084
-157,964	182,347	-0,048	-0,051
-156,950	-131,211	-0,100	0,009
-155,935	125,935	0,076	0,070
-154,920	800,000	-0,013	0,032
-153,906	429,233	-0,040	0,062
-152,891	800,000	-0,009	-0,020
-151,877	-22,149	0,041	-0,018
-150,862	245,633	-0,061	-0,074
-149,847	136,340	-0,036	0,034
-148,833	-200,000	0,014	0,057
-147,818	-50,153	-0,080	-0,027
-146,804	-29,112	-0,022	0,009
-145,789	589,640	0,044	0,078
-144,775	-200,000	0,009	-0,071
-143,760	-125,391	-0,050	-0,005
-142,745	-158,719	-0,114	-0,005
-141,731	-200,000	-0,002	-0,037
-140,716	-200,000	-0,030	-0,122
-139,702	800,000	-0,013	0,042
-138,687	66,212	-0,125	0,091
-137,672	124,368	0,030	-0,027
-136,658	-32,428	-0,111	-0,044
-135,643	29,480	0,104	0,064
-134,629	-200,000	-0,050	-0,170
-133,614	117,169	-0,065	0,057
-132,599	-89,908	0,042	0,009
-131,585	-151,400	0,049	0,003
-130,570	800,000	-0,027	0,054
-129,556	-200,000	0,001	-0,054
-128,541	-111,203	-0,085	0,012
-127,526	-200,000	-0,023	-0,087
-126,512	-200,000	0,006	0,096
-125,497	226,812	0,123	0,144
-124,483	753,736	0,049	-0,096
-123,468	-172,451	-0,110	0,002
-122,453	-200,000	0,019	-0,066
-121,439	290,162	-0,076	-0,099
-120,424	443,159	0,061	-0,096
-119,410	-200,000	-0,018	-0,143
-118,395	-184,370	0,044	-0,001
-117,380	124,132	0,069	-0,062
-116,366	-200,000	-0,006	-0,033
-115,351	-108,321	-0,112	-0,017
-114,337	102,008	-0,117	-0,098
-113,322	351,468	-0,014	0,019
-112,307	-8,310	0,075	0,036
-111,293	-200,000	-0,015	0,055
-110,278	-107,753	-0,130	0,020
-109,264	178,939	-0,045	0,047
-108,249	198,152	-0,046	0,050
-107,234	213,166	0,041	0,046
-106,220	-94,875	-0,181	-0,035
-105,205	366,217	0,049	0,071
-104,191	-53,576	-0,109	0,036
-103,176	800,000	0,028	0,082
-102,162	-85,595	0,219	0,049
-101,147	-200,000	0,010	-0,096
-100,132	800,000	0,063	-0,140
-99,118	190,796	-0,094	-0,101
-98,103	-120,284	0,094	0,011
-97,089	800,000	0,025	-0,071
-96,074	179,908	-0,065	0,068
-95,059	-123,501	0,119	0,013
-94,045	-200,000	0,005	-0,050
-93,030	-200,000	-0,003	-0,077
-92,016	-200,000	-0,030	0,097
-91,001	124,857	0,045	-0,041
-89,986	-80,420	0,150	-0,036
-88,972	-200,000	0,006	0,047
-87,957	-25,219	0,096	0,041
-86,943	-135,066	-0,103	-0,009
-85,928	-13,762	0,087	0,040
-84,913	119,754	0,020	0,018
-83,899	-200,000	-0,007	-0,060
-82,884	-200,000	-0,024	0,091
-81,870	204,814	0,082	-0,092
-80,855	-200,000	-0,021	-0,076
-79,840	-200,000	0,011	-0,099
-78,826	-154,426	-0,164	0,008
-77,811	163,744	-0,074	-0,075
-76,797	-121,929	-0,064	0,007
-75,782	407,821	-0,075	0,114
-74,767	-200,000	-0,008	0,179
-73,753	37,937	-0,184	-0,117
-72,738	-200,000	-0,008	0,132
-71,724	-4,150	-0,092	-0,046
-70,709	-200,000	0,004	0,109
-69,694	59,707	-0,168	-0,119
-68,680	-20,489	0,050	0,022
-67,665	765,160	-0,038	0,074
-66,651	17,110	-0,035	-0,020
-65,636	250,924	-0,014	0,017
-64,622	800,000	-0,016	-0,040
-63,607	14,481	-0,102	-0,057
-62,592	-138,216	-0,088	0,007
-61,578	-30,100	0,138	0,056
-60,563	800,000	0,102	0,212
-59,549	52,487	-0,069	0,047
-58,534	12,584	-1,964	-1,085
-57,519	-200,000	-0,136	-0,826
-56,505	-200,000	-1,204	-5,210
-55,490	45,247	0,859	0,567
-54,476	800,000	5,441	12,192
-53,461	-200,000	17,705	287,853
-52,446	800,000	728,936	2229,637
-51,432	537,816	1645,262	2816,443
-50,417	109,655	1635,740	1406,557
-49,403	75,598	1287,350	974,580
-48,388	31,855	1027,369	633,396
-47,373	20,143	989,168	571,239
-46,359	18,275	977,205	558,185
-45,344	15,332	972,985	546,126
-44,330	15,609	971,580	546,221
-43,315	15,158	969,637	543,637
-42,300	15,084	968,608	542,795
-41,286	15,033	967,657	542,076
-40,271	15,080	966,670	541,652
-39,257	15,125	965,667	541,216
-38,242	15,081	964,877	540,608
-37,227	15,084	963,954	540,080
-36,213	15,092	963,148	539,633
-35,198	15,049	962,156	538,917
-34,184	15,153	961,318	538,763
-33,169	15,043	960,449	537,899
-32,154	15,059	959,518	537,408
-31,140	15,081	958,603	536,946
-30,125	15,145	957,925	536,750
-29,111	15,083	957,195	536,121
-28,096	15,185	956,402	535,982
-27,082	15,087	955,715	535,262
-26,067	15,145	955,005	535,030
-25,052	15,064	954,257	534,328
-24,038	15,044	953,708	533,934
-23,023	15,061	952,901	533,517
-22,009	15,105	952,354	533,330
-20,994	15,127	951,698	533,014
-19,979	15,111	951,051	532,579
-18,965	15,091	950,348	532,099
-17,950	15,105	949,681	531,748
-16,936	15,104	949,087	531,392
-15,921	15,030	948,525	530,821
-14,906	14,997	947,760	530,266
-13,892	14,974	947,201	529,857
-12,877	14,925	946,493	529,286
-11,863	14,973	945,967	529,124
-10,848	14,932	945,528	528,727
-9,833	15,065	944,888	528,771
-8,819	15,033	944,205	528,265
-7,804	14,957	943,547	527,635
-6,790	14,951	943,048	527,318
-5,775	14,993	942,418	527,076
-4,760	15,021	941,866	526,834
-3,746	15,054	941,054	526,464
-2,731	14,867	940,338	525,451
-1,717	14,798	939,810	524,917
-0,702	14,787	939,295	524,574
0,313	14,672	938,507	524,563
1,327	17,902	936,425	533,525
2,342	27,022	793,102	475,996
3,356	23,801	458,316	270,125
4,371	-3,489	314,365	156,283
5,386	-7,554	296,057	143,057
6,400	-9,522	289,963	138,147
7,415	-9,921	287,373	136,509
8,429	-10,078	285,979	135,681
9,444	-10,214	285,071	135,105
10,459	-9,987	284,534	135,060
11,473	-10,203	283,868	134,522
12,488	-10,053	283,374	134,421
13,502	-10,157	282,708	133,993
14,517	-10,146	282,359	133,827
15,531	-10,188	281,959	133,584
16,546	-10,189	281,630	133,416
17,561	-10,115	280,942	133,149
18,575	-10,206	280,979	133,067
19,590	-10,208	280,471	132,813
20,604	-10,047	280,183	132,818
21,619	-10,018	279,857	132,681
22,634	-10,291	279,410	132,196
23,648	-10,127	279,085	132,187
24,663	-10,112	278,776	132,043
25,677	-10,251	278,712	131,868
26,692	-10,269	278,435	131,708
27,707	-10,138	278,055	131,641
28,721	-10,177	277,882	131,511
29,736	-10,014	277,421	131,435
30,750	-10,292	277,349	131,126
31,765	-10,279	277,075	130,998
32,780	-10,226	276,929	130,967
33,794	-10,118	276,530	130,868
34,809	-10,027	276,184	130,779
35,823	-10,181	276,068	130,566
36,838	-10,134	275,630	130,392
37,853	-10,174	275,552	130,306
38,867	-10,110	275,228	130,202
39,882	-10,252	274,888	129,895
40,896	-10,176	274,778	129,904
41,911	-10,288	274,582	129,694
42,926	-10,117	274,300	129,709
43,940	-10,146	273,878	129,472
44,955	-10,138	273,786	129,424
45,969	-10,341	273,619	129,144
46,984	-10,527	273,309	128,813
47,999	-10,596	272,965	128,575
49,013	-10,818	272,885	128,319
50,028	-10,739	272,410	128,158
51,042	-10,966	272,407	127,934
52,057	-10,979	272,042	127,739
53,071	-10,814	271,756	127,746
54,086	-10,775	271,579	127,688
55,101	-10,655	271,540	127,769
56,115	-10,323	271,237	127,922
57,130	-10,151	271,168	128,037
58,144	-9,925	270,849	128,083
59,159	-10,030	270,680	127,896
60,174	-9,942	270,601	127,928
61,188	-9,971	270,171	127,686
62,203	-10,125	270,043	127,473
63,217	-10,095	269,768	127,359
64,232	-10,120	269,481	127,190
65,247	-10,020	269,342	127,204
66,261	-10,086	269,208	127,069
67,276	-10,280	268,881	126,726
68,290	-10,361	268,576	126,496
69,305	-10,412	268,321	126,319
70,320	-10,339	268,181	126,308
71,334	-10,319	268,157	126,304
72,349	-10,028	267,815	126,396
73,363	-10,179	267,580	126,136
74,378	-10,095	267,414	126,123
75,393	-9,936	267,142	126,128
76,407	-10,041	266,943	125,928
77,422	-10,065	266,732	125,796
78,436	-10,109	266,490	125,630
79,451	-10,037	266,266	125,579
80,466	-10,141	265,964	125,331
81,480	-10,189	265,689	125,147
82,495	-10,194	265,609	125,094
83,509	-10,059	265,425	125,118
84,524	-10,270	265,212	124,816
85,539	-10,371	264,876	124,556
86,553	-10,455	264,846	124,455
87,568	-10,275	264,591	124,486
88,582	-10,200	264,403	124,454
89,597	-10,306	264,157	124,231
90,611	-10,070	263,878	124,301
91,626	-10,003	263,921	124,370
92,641	-10,023	263,649	124,213
93,655	-10,107	263,470	124,042
94,670	-10,374	263,215	123,672
95,684	-10,186	262,945	123,703
96,699	-10,155	262,846	123,673
97,714	-10,252	262,689	123,502
98,728	-10,325	262,427	123,302
99,743	-10,413	262,067	123,044
100,757	-10,350	261,740	122,935
101,772	-10,324	261,714	122,935
102,787	-10,287	261,627	122,916
103,801	-10,075	261,418	122,995
104,816	-10,130	261,272	122,867
105,830	-10,023	261,116	122,877
106,845	-9,951	260,811	122,786
107,860	-10,183	260,728	122,531
108,874	-10,080	260,437	122,475
109,889	-10,181	260,199	122,263
110,903	-10,219	260,078	122,161
111,918	-10,160	259,859	122,099
112,933	-10,150	259,640	121,994
113,947	-10,014	259,318	121,952
114,962	-10,135	259,237	121,797
115,976	-10,153	259,113	121,711
116,991	-10,039	258,878	121,690
118,006	-9,861	258,724	121,764
119,020	-10,149	258,624	121,453
120,035	-10,157	258,582	121,415
121,049	-10,124	258,291	121,297
122,064	-10,125	258,069	121,181
123,079	-10,136	257,769	121,020
124,093	-10,116	257,594	120,944
125,108	-10,251	257,409	120,729
126,122	-10,368	257,077	120,460
127,137	-10,550	256,865	120,192
128,151	-10,308	256,684	120,307
129,166	-10,318	256,580	120,239
130,181	-10,427	256,408	120,053
131,195	-10,344	256,117	119,978
132,210	-10,234	256,169	120,087
133,224	-10,236	255,979	119,986
134,239	-10,100	255,778	119,999
135,254	-10,102	255,505	119,858
136,268	-10,258	255,331	119,631
137,283	-10,308	255,071	119,455
138,297	-10,437	254,583	119,104
139,312	-10,305	254,419	119,131
140,327	-10,182	254,480	119,255
141,341	-9,914	254,377	119,426
142,356	-9,970	254,175	119,272
143,370	-9,870	254,006	119,268
144,385	-9,798	253,802	119,224
145,400	-9,873	253,580	119,045
146,414	-9,772	253,513	119,089
147,429	-9,981	253,328	118,813
148,443	-9,833	253,184	118,861
149,458	-9,952	252,829	118,583
150,473	-9,806	252,789	118,678
151,487	-9,824	252,462	118,499
152,502	-9,851	252,325	118,401
153,516	-9,807	252,074	118,310
154,531	-9,836	252,128	118,300
155,546	-9,860	251,900	118,162
156,560	-9,697	251,567	118,133
157,575	-10,016	251,405	117,776
158,589	-9,922	251,112	117,708
159,604	-9,927	251,002	117,641
160,619	-10,008	250,917	117,523
161,633	-9,933	250,564	117,410
162,648	-9,876	250,575	117,453
163,662	-10,048	250,510	117,267
164,677	-9,990	250,328	117,221
165,692	-9,911	250,107	117,173
166,706	-9,864	249,815	117,065
167,721	-9,781	249,681	117,061
168,735	-9,789	249,587	117,001
169,750	-9,854	249,344	116,821
170,764	-9,845	249,315	116,806
171,779	-9,849	249,228	116,751
172,794	-9,740	248,973	116,713
173,808	-9,925	248,815	116,472
174,823	-10,122	248,494	116,147
175,837	-10,415	248,149	115,731
176,852	-10,169	248,270	115,982
177,867	-9,756	247,977	116,181
178,881	-9,720	247,879	116,154
179,896	-9,860	247,785	115,983
180,910	-9,710	247,500	115,964
181,925	-9,765	247,388	115,855
182,940	-9,895	247,252	115,673
183,954	-9,980	246,998	115,474
184,969	-10,038	246,949	115,392
185,983	-9,907	246,785	115,414
186,998	-9,789	246,602	115,416
188,013	-9,833	246,504	115,323
189,027	-9,720	246,196	115,263
190,042	-9,949	246,011	114,976
191,056	-9,978	245,886	114,883
192,071	-9,777	245,712	114,958
193,086	-9,902	245,337	114,669
194,100	-9,858	245,260	114,659
195,115	-9,779	245,177	114,675
196,129	-9,818	244,944	114,524
197,144	-9,782	244,743	114,450
198,159	-9,807	244,485	114,298
199,173	-9,760	244,427	114,299
200,188	-9,856	244,176	114,093
201,202	-10,180	244,067	113,766
202,217	-10,332	243,762	113,489
203,232	-10,292	243,395	113,340
204,246	-9,937	243,433	113,639
205,261	-9,411	243,351	114,021
206,275	-10,257	243,038	113,172
207,290	-6,049	244,610	117,353
208,304	1,016	246,780	124,224
209,319	3,595	247,479	126,697
210,334	3,839	247,523	126,910
211,348	4,192	247,367	127,109
212,363	4,221	247,412	127,146
213,377	4,270	247,266	127,099
214,392	4,281	247,122	127,023
215,407	4,218	246,841	126,816
216,421	4,076	246,672	126,601
217,436	4,399	246,691	126,865
218,450	4,580	246,441	126,873
219,465	4,152	246,075	126,322
220,480	4,091	245,944	126,194
221,494	3,873	245,802	125,932
222,509	4,007	245,644	125,949
223,523	3,752	245,418	125,614
224,538	3,489	245,326	125,340
225,553	3,778	245,043	125,420
226,567	3,901	245,005	125,490
227,582	3,928	244,831	125,411
228,596	4,016	244,636	125,372
229,611	3,562	244,506	124,925
230,626	3,480	244,210	124,696
231,640	3,821	244,049	124,879
232,655	3,797	243,990	124,819
233,669	3,572	243,729	124,491
234,684	3,476	243,477	124,274
235,699	4,070	243,486	124,748
236,713	4,149	243,435	124,775
237,728	3,820	243,141	124,348
238,742	3,534	243,000	124,033
239,757	3,609	242,636	123,896
240,772	3,656	242,561	123,885
241,786	3,818	242,561	124,005
242,801	3,670	242,267	123,725
243,815	3,616	242,085	123,577
244,830	3,864	241,965	123,704
245,844	3,985	241,889	123,751
246,859	3,586	241,779	123,363
247,874	3,634	241,459	123,227
248,888	3,674	241,422	123,230
249,903	3,806	241,325	123,275
250,917	4,031	241,112	123,336
251,932	4,182	241,068	123,424
252,947	3,924	240,859	123,099
253,961	3,800	240,568	122,839
254,976	3,889	240,587	122,910
255,990	4,015	240,327	122,866
257,005	3,819	240,100	122,583
258,020	3,786	239,904	122,446
259,034	3,585	239,980	122,314
260,049	3,714	239,594	122,209
261,063	3,665	239,516	122,119
262,078	3,444	239,350	121,848
263,093	3,851	239,345	122,158
264,107	3,820	239,116	122,006
265,122	3,722	238,952	121,833
266,136	3,993	238,714	121,916
267,151	4,135	238,588	121,953
268,166	3,811	238,470	121,625
269,180	3,629	238,228	121,347
270,195	4,275	238,266	121,866
271,209	4,475	238,115	121,936
272,224	3,795	237,958	121,309
273,239	3,520	237,457	120,825
274,253	3,631	237,521	120,935
275,268	3,982	237,436	121,157
276,282	3,835	237,224	120,922
277,297	3,907	236,953	120,830
278,312	3,711	236,937	120,657
279,326	3,841	236,713	120,634
280,341	3,957	236,667	120,691
281,355	3,798	236,566	120,505
282,370	3,778	236,404	120,395
283,384	3,772	236,199	120,276
284,399	3,517	236,015	119,971
285,414	3,439	235,942	119,863
286,428	3,598	235,696	119,851
287,443	3,925	235,542	120,017
288,457	3,662	235,613	119,837
289,472	3,918	235,288	119,861
290,487	3,844	235,263	119,780
291,501	3,556	234,891	119,356
292,516	3,306	234,852	119,131
293,530	3,590	234,604	119,215
294,545	3,677	234,721	119,331
295,560	3,714	234,470	119,223
296,574	3,561	234,279	118,995
297,589	3,382	234,172	118,792
298,603	3,936	234,015	119,131
299,618	3,898	233,912	119,039
300,633	3,914	233,680	118,922
301,647	3,825	233,814	118,910
302,662	4,320	233,637	119,193
303,676	4,158	233,424	118,948
304,691	4,121	233,241	118,816
305,706	4,325	233,040	118,860
306,720	4,093	232,892	118,595
307,735	4,137	232,580	118,460
308,749	3,860	232,414	118,152
309,764	3,735	232,440	118,059
310,779	3,335	232,170	117,604
311,793	3,388	231,984	117,540
312,808	3,305	231,931	117,439
313,822	3,633	231,650	117,537
314,837	3,668	231,424	117,438
315,852	3,611	231,332	117,338
316,866	3,628	231,445	117,398
317,881	4,025	231,160	117,546
318,895	3,996	231,116	117,491
319,910	4,184	230,894	117,511
320,925	3,916	230,679	117,187
321,939	3,202	230,473	116,528
322,954	3,705	230,496	116,913
323,968	4,018	230,259	117,020
324,983	3,876	230,213	116,878
325,997	3,867	230,148	116,828
327,012	3,706	229,965	116,602
328,027	3,389	229,621	116,177
329,041	3,837	229,584	116,488
330,056	4,619	229,617	117,087
331,070	4,591	229,537	117,014
332,085	4,288	229,205	116,605
333,100	4,012	228,893	116,228
334,114	4,008	228,840	116,188
335,129	4,265	228,830	116,366
336,143	4,346	228,652	116,326
337,158	4,261	228,489	116,169
338,173	4,083	228,241	115,898
339,187	3,783	228,199	115,641
340,202	4,112	227,858	115,705
341,216	3,803	228,034	115,552
342,231	4,007	227,707	115,529
343,246	3,795	227,624	115,318
344,260	3,906	227,560	115,358
345,275	4,236	227,428	115,529
346,289	4,075	227,261	115,313
347,304	4,370	227,095	115,439
348,319	4,227	226,842	115,193
349,333	4,061	226,778	115,026
350,348	3,766	226,724	114,768
351,362	3,890	226,581	114,778
352,377	3,924	226,205	114,603
353,392	3,716	226,077	114,373
354,406	3,838	225,971	114,400
355,421	196,221	1320,970	1399,687
356,435	157,314	1454,364	1399,672
