DTS Sentinel unit serial number:	SN410029Multiplexer serial number:	ORYXHardware model number:	OX2-SRSoftware version number:	ORYX F/W v4,00 Oryx Data Collector v3.7.2.0data status	okinstallation	B5 Nyhavnadifferential loss correction	single-endedforward channel	channel 2reverse channel	N/Adate	2023/12/13time	08:37:13forward acquisition time	300,00reverse acquisition time	0,00gamma	499,1914k internal	0,3160k external	0,3160temperature offset calibration	1,0000default loss term (dB/km)	0,3820temperature slope calibration	1,0000multiplexer offset coefficient	1,0000multiplexer slope coefficient	1,0000fibre end	0,00T internal ref (°C)	13,63T ext. ref 1 (°C)	-2,70T ext. ref 2 (°C)	-2,99length (m)	temperature (°C)	Stokes	anti-Stokes-744,400	-19,890	0,110	0,050
-743,385	-114,055	-0,364	-0,051
-742,371	-14,477	0,082	0,039
-741,356	-134,020	-0,380	0,034
-740,342	236,945	0,054	-0,066
-739,327	-177,527	-0,367	-0,006
-738,312	270,439	0,040	0,052
-737,298	-72,989	-0,401	-0,108
-736,283	-51,296	0,133	-0,046
-735,269	-117,042	-0,170	-0,023
-734,254	-90,269	0,111	0,024
-733,239	-42,087	-0,500	-0,188
-732,225	-33,875	0,243	0,098
-731,210	-200,000	0,017	0,073
-730,196	-142,052	0,072	-0,005
-729,181	-18,994	-0,058	0,026
-728,167	334,001	0,047	-0,067
-727,152	800,000	0,009	-0,018
-726,137	16,824	-0,074	0,043
-725,123	762,382	-0,063	0,126
-724,108	-63,899	0,141	0,042
-723,094	637,792	-0,097	-0,182
-722,079	130,083	0,098	-0,092
-721,064	-200,000	0,012	-0,083
-720,050	-68,537	0,056	0,016
-719,035	452,789	-0,033	-0,054
-718,021	-200,000	0,004	-0,146
-717,006	-114,223	-0,066	-0,009
-715,991	-77,518	0,017	-0,004
-714,977	-167,869	0,129	-0,004
-713,962	-102,278	-0,052	0,009
-712,948	-78,832	-0,091	0,023
-711,933	673,608	0,069	-0,132
-710,918	10,527	-0,196	-0,109
-709,904	-61,772	0,107	0,033
-708,889	581,586	-0,068	-0,124
-707,875	-39,433	-0,047	-0,018
-706,860	63,674	-0,166	-0,122
-705,845	128,543	0,085	-0,079
-704,831	-10,034	-0,084	-0,041
-703,816	800,000	-0,031	-0,084
-702,802	-200,000	-0,001	-0,015
-701,787	-200,000	-0,024	-0,114
-700,772	800,000	0,030	-0,067
-699,758	-18,447	-0,084	0,039
-698,743	-200,000	0,019	-0,109
-697,729	130,719	0,030	0,028
-696,714	-99,887	-0,057	0,010
-695,699	18,628	-0,047	-0,027
-694,685	57,668	-0,088	0,063
-693,670	210,830	0,032	0,037
-692,656	459,677	-0,044	-0,072
-691,641	-10,650	0,087	-0,042
-690,627	-85,377	0,088	0,020
-689,612	163,910	-0,051	-0,052
-688,597	65,263	-0,081	-0,060
-687,583	-156,199	0,122	-0,006
-686,568	-200,000	-0,002	0,032
-685,554	-124,965	-0,110	-0,012
-684,539	800,000	-0,024	0,060
-683,524	-200,000	-0,016	-0,088
-682,510	-153,336	-0,051	-0,003
-681,495	500,184	-0,034	-0,058
-680,481	174,105	-0,097	-0,103
-679,466	81,322	-0,102	-0,081
-678,451	-92,103	0,086	0,018
-677,437	-177,428	0,102	0,002
-676,422	71,808	0,166	0,127
-675,408	100,876	0,096	0,082
-674,393	-11,939	-0,054	-0,026
-673,378	-171,360	0,057	0,001
-672,364	-200,000	-0,010	-0,105
-671,349	-200,000	-0,017	0,093
-670,335	800,000	0,036	-0,076
-669,320	-200,000	0,001	-0,007
-668,305	338,423	-0,033	-0,048
-667,291	-133,445	0,151	-0,014
-666,276	132,886	-0,154	-0,147
-665,262	553,046	0,016	0,029
-664,247	49,741	0,035	-0,024
-663,232	-95,541	-0,118	-0,023
-662,218	-80,121	0,174	-0,043
-661,203	518,689	0,048	0,083
-660,189	30,246	0,030	0,019
-659,174	-200,000	-0,009	-0,036
-658,159	204,485	-0,118	-0,135
-657,145	800,000	-0,039	-0,090
-656,130	-12,004	-0,016	0,008
-655,116	-138,259	0,036	-0,003
-654,101	-81,329	-0,081	0,020
-653,086	-200,000	0,007	-0,111
-652,072	-89,793	-0,187	-0,040
-651,057	-156,845	-0,192	0,008
-650,043	396,912	0,053	0,082
-649,028	-200,000	-0,022	0,136
-648,014	24,364	0,075	-0,046
-646,999	-200,000	-0,001	0,053
-645,984	-114,459	-0,123	0,017
-644,970	335,605	0,075	0,107
-643,955	-200,000	0,026	0,133
-642,941	-39,909	-0,078	-0,030
-641,926	298,649	-0,065	-0,089
-640,911	-200,000	-0,004	0,058
-639,897	209,456	0,042	0,048
-638,882	-104,387	-0,129	0,022
-637,868	130,498	-0,069	-0,064
-636,853	-200,000	0,004	-0,077
-635,838	800,000	-0,038	0,092
-634,824	-12,328	0,028	-0,014
-633,809	-58,417	0,063	0,020
-632,795	-67,218	0,122	-0,035
-631,780	110,753	-0,063	0,055
-630,765	-37,574	-0,165	-0,064
-629,751	166,414	-0,105	-0,110
-628,736	62,937	-0,131	-0,096
-627,722	38,303	-0,036	-0,023
-626,707	-200,000	0,003	0,127
-625,692	70,640	-0,103	0,078
-624,678	577,544	0,047	0,085
-623,663	-200,000	0,005	-0,056
-622,649	-25,885	0,048	-0,021
-621,634	-62,570	-0,106	-0,032
-620,619	126,051	0,062	-0,058
-619,605	449,513	0,035	0,057
-618,590	2,128	-0,020	-0,010
-617,576	-143,048	0,138	0,010
-616,561	42,401	-0,167	-0,111
-615,546	-200,000	-0,022	0,140
-614,532	-200,000	0,018	0,099
-613,517	320,272	-0,099	-0,138
-612,503	329,497	0,037	-0,052
-611,488	-109,922	-0,046	0,007
-610,474	75,499	0,054	0,042
-609,459	-200,000	-0,003	-0,076
-608,444	-96,260	-0,030	0,006
-607,430	319,814	0,043	-0,060
-606,415	71,997	-0,094	-0,072
-605,401	-128,887	-0,100	-0,010
-604,386	93,393	0,071	-0,059
-603,371	-74,540	-0,041	0,011
-602,357	240,341	-0,035	-0,043
-601,342	-200,000	-0,019	0,061
-600,328	329,573	-0,078	-0,110
-599,313	-89,635	-0,170	0,036
-598,298	-200,000	-0,036	-0,119
-597,284	800,000	-0,024	-0,061
-596,269	424,688	0,061	0,097
-595,255	108,424	-0,052	-0,046
-594,240	250,612	-0,045	-0,056
-593,225	-167,179	-0,092	-0,003
-592,211	800,000	-0,035	-0,086
-591,196	800,000	0,045	0,118
-590,182	-96,469	-0,032	0,006
-589,167	215,821	0,061	0,071
-588,152	-43,564	-0,057	-0,021
-587,138	-200,000	-0,006	-0,128
-586,123	-200,000	0,001	-0,045
-585,109	-42,764	-0,198	0,073
-584,094	800,000	0,031	-0,068
-583,079	-33,172	-0,063	0,026
-582,065	800,000	-0,047	0,124
-581,050	-125,461	0,220	0,024
-580,036	-119,311	-0,075	0,009
-579,021	418,427	-0,042	0,066
-578,006	-200,000	-0,001	0,061
-576,992	-200,000	-0,002	0,083
-575,977	800,000	0,003	-0,009
-574,963	-108,629	0,076	0,012
-573,948	-200,000	-0,005	0,050
-572,934	-32,041	0,088	-0,036
-571,919	38,418	0,059	-0,038
-570,904	-90,286	-0,045	-0,009
-569,890	-142,490	-0,077	-0,005
-568,875	-137,771	0,056	-0,005
-567,861	-200,000	-0,006	0,049
-566,846	-149,892	0,037	0,002
-565,831	193,690	-0,063	-0,070
-564,817	-20,045	-0,139	0,062
-563,802	793,259	-0,030	-0,060
-562,788	-200,000	0,013	-0,079
-561,773	800,000	0,019	0,045
-560,758	-200,000	0,013	0,099
-559,744	702,966	-0,020	0,038
-558,729	45,068	-0,152	0,102
-557,715	-200,000	0,006	-0,097
-556,700	-200,000	0,009	0,045
-555,685	800,000	0,076	-0,174
-554,671	800,000	0,026	-0,071
-553,656	-135,145	-0,156	0,014
-552,642	-200,000	0,008	0,062
-551,627	-60,488	0,034	0,011
-550,612	-200,000	0,016	-0,067
-549,598	-122,601	-0,094	-0,011
-548,583	-200,000	0,003	0,025
-547,569	-200,000	-0,004	0,122
-546,554	102,759	-0,042	-0,036
-545,539	800,000	0,038	0,077
-544,525	-200,000	-0,018	0,119
-543,510	233,899	-0,043	0,052
-542,496	-75,968	-0,100	-0,026
-541,481	-83,535	0,174	-0,040
-540,466	-200,000	0,008	0,039
-539,452	-200,000	-0,004	-0,050
-538,437	216,617	-0,015	-0,018
-537,423	97,524	0,061	-0,051
-536,408	-145,687	-0,104	-0,007
-535,393	260,169	-0,129	-0,164
-534,379	66,645	-0,066	-0,049
-533,364	-200,000	0,001	-0,096
-532,350	27,084	0,060	0,037
-531,335	-148,495	-0,060	0,004
-530,321	-200,000	-0,003	-0,068
-529,306	800,000	0,043	-0,131
-528,291	188,492	0,149	-0,163
-527,277	-37,135	-0,040	0,015
-526,262	0,602	0,052	-0,027
-525,248	-147,949	-0,100	-0,006
-524,233	-112,988	0,085	0,012
-523,218	-59,055	-0,080	0,025
-522,204	-82,490	-0,080	0,019
-521,189	88,251	-0,069	-0,056
-520,175	-57,795	0,132	0,042
-519,160	411,613	0,066	-0,102
-518,145	30,267	0,111	-0,069
-517,131	325,093	0,009	-0,013
-516,116	-200,000	-0,024	0,101
-515,102	800,000	-0,034	0,074
-514,087	106,396	-0,033	0,029
-513,072	-122,279	-0,099	-0,012
-512,058	-112,067	0,024	-0,004
-511,043	483,137	0,065	0,108
-510,029	49,364	0,115	0,079
-509,014	339,330	0,088	0,126
-507,999	141,779	0,043	-0,041
-506,985	506,446	0,006	-0,009
-505,970	800,000	0,025	-0,060
-504,956	-12,396	0,077	-0,037
-503,941	-200,000	0,015	-0,163
-502,926	-75,540	0,060	-0,015
-501,912	437,440	0,028	-0,045
-500,897	800,000	-0,068	-0,182
-499,883	800,000	0,022	0,060
-498,868	113,015	-0,036	-0,032
-497,853	800,000	0,011	-0,024
-496,839	-200,000	0,003	-0,091
-495,824	-200,000	0,037	0,131
-494,810	-135,315	-0,064	-0,006
-493,795	-146,746	0,207	-0,013
-492,781	-200,000	-0,018	-0,168
-491,766	46,626	0,089	-0,060
-490,751	28,626	0,118	-0,073
-489,737	-200,000	-0,001	0,043
-488,722	435,152	-0,024	0,039
-487,708	91,326	0,082	0,067
-486,693	148,562	-0,032	-0,031
-485,678	198,255	-0,046	0,051
-484,664	0,720	-0,059	-0,031
-483,649	800,000	0,039	-0,080
-482,635	-66,076	-0,034	0,010
-481,620	800,000	0,076	0,157
-480,605	-139,340	-0,074	0,006
-479,591	-134,084	0,083	0,007
-478,576	-78,911	-0,091	0,022
-477,562	-33,483	-0,145	-0,058
-476,547	-200,000	0,018	-0,088
-475,532	-200,000	-0,004	0,045
-474,518	-74,694	0,154	0,040
-473,503	800,000	-0,026	-0,053
-472,489	195,889	0,163	0,181
-471,474	-180,438	-0,119	0,002
-470,459	119,019	-0,071	-0,064
-469,445	-200,000	0,026	-0,107
-468,430	103,681	0,084	0,072
-467,416	800,000	0,032	-0,066
-466,401	-109,665	-0,101	-0,015
-465,386	-200,000	-0,008	0,183
-464,372	800,000	0,040	0,091
-463,357	-32,232	-0,033	-0,013
-462,343	-100,936	0,163	-0,029
-461,328	117,251	0,053	0,048
-460,313	-200,000	0,033	0,126
-459,299	136,012	0,117	-0,112
-458,284	-200,000	0,023	-0,170
-457,270	-200,000	-0,005	0,094
-456,255	-200,000	0,010	-0,090
-455,241	800,000	-0,023	-0,068
-454,226	-78,239	-0,033	-0,008
-453,211	218,344	0,036	-0,041
-452,197	-3,099	0,053	-0,027
-451,182	800,000	0,043	-0,118
-450,168	445,462	-0,037	-0,060
-449,153	-3,399	0,040	0,020
-448,138	-77,970	0,162	0,040
-447,124	-200,000	-0,004	-0,081
-446,109	500,373	0,096	0,163
-445,095	-10,648	0,146	0,070
-444,080	-177,935	0,091	-0,002
-443,065	-200,000	0,028	-0,143
-442,051	-200,000	0,008	0,050
-441,036	187,027	-0,072	-0,078
-440,022	8,385	-0,089	0,049
-439,007	57,837	0,116	0,082
-437,992	186,293	0,063	0,068
-436,978	457,296	0,070	0,114
-435,963	142,079	0,047	0,045
-434,949	53,196	0,047	-0,033
-433,934	62,500	-0,013	-0,009
-432,919	521,139	0,037	0,063
-431,905	-200,000	0,008	-0,112
-430,890	31,684	0,093	-0,058
-429,876	-200,000	0,004	-0,018
-428,861	315,713	-0,072	-0,099
-427,846	358,555	-0,017	0,025
-426,832	800,000	-0,032	-0,102
-425,817	-32,883	0,029	-0,011
-424,803	-46,412	-0,155	0,055
-423,788	242,467	-0,031	0,038
-422,773	359,253	-0,075	-0,109
-421,759	41,675	0,058	0,038
-420,744	679,298	0,042	0,079
-419,730	-200,000	0,000	-0,033
-418,715	-200,000	0,005	-0,109
-417,701	-96,172	0,051	0,010
-416,686	-93,895	0,043	0,008
-415,671	126,145	0,022	-0,020
-414,657	-200,000	-0,017	-0,070
-413,642	-19,966	-0,088	0,039
-412,628	142,212	0,083	-0,080
-411,613	83,433	-0,101	0,080
-410,598	-2,684	0,053	0,027
-409,584	-200,000	-0,013	-0,057
-408,569	-200,000	0,003	-0,049
-407,555	12,772	0,138	-0,078
-406,540	245,035	-0,052	-0,064
-405,525	-161,747	-0,144	0,005
-404,511	-159,761	-0,038	-0,001
-403,496	800,000	0,016	-0,046
-402,482	-39,669	-0,093	0,035
-401,467	97,928	-0,137	-0,115
-400,452	-26,357	0,031	0,013
-399,438	-97,836	-0,097	0,018
-398,423	-200,000	-0,013	-0,089
-397,409	-85,844	-0,113	0,025
-396,394	-61,145	-0,144	0,044
-395,379	800,000	0,054	0,116
-394,365	-43,363	0,088	-0,032
-393,350	42,714	-0,049	0,033
-392,336	93,775	0,068	-0,056
-391,321	800,000	0,045	0,091
-390,306	25,414	0,066	-0,040
-389,292	93,968	-0,071	-0,059
-388,277	189,131	0,091	-0,099
-387,263	-200,000	0,032	0,104
-386,248	10,680	-0,042	0,023
-385,233	-91,434	0,136	-0,028
-384,219	-32,542	-0,062	0,025
-383,204	-200,000	-0,009	-0,060
-382,190	250,157	-0,019	-0,024
-381,175	800,000	0,019	-0,056
-380,160	117,576	0,115	0,103
-379,146	16,276	0,125	0,072
-378,131	-172,014	-0,046	-0,001
-377,117	1,301	-0,104	0,054
-376,102	-153,640	0,087	-0,004
-375,088	189,079	0,029	-0,032
-374,073	-150,469	0,108	-0,006
-373,058	-141,373	0,089	0,006
-372,044	-134,020	0,083	-0,007
-371,029	344,069	0,067	0,095
-370,015	-57,778	0,094	-0,030
-369,000	-200,000	-0,034	-0,184
-367,985	108,498	-0,142	-0,123
-366,971	144,569	0,145	-0,141
-365,956	-200,000	-0,009	0,120
-364,942	-200,000	0,029	-0,158
-363,927	-200,000	-0,001	-0,129
-362,912	108,423	0,154	0,133
-361,898	-13,386	-0,119	0,056
-360,883	427,490	0,092	-0,145
-359,869	-39,607	0,097	0,037
-358,854	-31,858	-0,018	0,007
-357,839	800,000	-0,050	-0,112
-356,825	-73,007	0,054	-0,014
-355,810	-200,000	-0,025	-0,148
-354,796	-200,000	0,016	-0,076
-353,781	800,000	-0,015	0,040
-352,766	125,650	-0,032	-0,030
-351,752	473,829	0,048	0,079
-350,737	200,733	0,106	0,119
-349,723	511,228	0,024	0,041
-348,708	-200,000	-0,014	-0,110
-347,693	139,692	-0,083	-0,079
-346,679	74,438	0,150	-0,114
-345,664	800,000	-0,052	-0,109
-344,650	-200,000	-0,018	0,083
-343,635	-200,000	0,006	-0,074
-342,620	-200,000	0,025	0,203
-341,606	-200,000	0,021	0,147
-340,591	800,000	-0,054	-0,155
-339,577	-200,000	0,002	0,114
-338,562	-136,663	-0,024	-0,002
-337,548	21,671	0,069	0,040
-336,533	229,793	-0,057	0,067
-335,518	646,614	-0,069	0,129
-334,504	-84,497	0,014	0,003
-333,489	-200,000	-0,015	0,068
-332,475	-47,688	-0,126	0,044
-331,460	151,411	-0,099	0,098
-330,445	105,895	-0,064	0,055
-329,431	247,096	0,049	-0,060
-328,416	-54,757	-0,081	0,026
-327,402	265,877	0,055	-0,069
-326,387	158,174	0,091	-0,091
-325,372	56,222	0,041	-0,029
-324,358	-106,423	0,096	-0,015
-323,343	-154,458	0,052	-0,002
-322,329	111,706	-0,057	-0,050
-321,314	286,333	-0,032	-0,042
-320,299	53,076	0,148	0,103
-319,285	-1,427	0,101	0,052
-318,270	51,835	-0,089	-0,061
-317,256	99,777	0,059	-0,050
-316,241	594,898	0,003	-0,005
-315,226	-200,000	0,009	-0,045
-314,212	-200,000	-0,007	0,078
-313,197	-200,000	0,023	-0,132
-312,183	16,331	-0,069	-0,040
-311,168	-200,000	-0,040	0,150
-310,153	-72,016	0,072	0,019
-309,139	-200,000	0,007	-0,031
-308,124	-200,000	0,005	0,035
-307,110	567,372	0,048	-0,084
-306,095	214,073	0,068	0,078
-305,080	-200,000	0,015	0,063
-304,066	232,666	-0,072	0,085
-303,051	69,709	-0,063	-0,047
-302,037	-102,572	0,092	-0,016
-301,022	800,000	0,064	-0,178
-300,008	-200,000	-0,003	-0,024
-298,993	-200,000	-0,002	-0,011
-297,978	104,037	0,098	0,084
-296,964	80,789	-0,070	-0,054
-295,949	-200,000	0,005	-0,089
-294,935	-35,625	-0,040	-0,016
-293,920	755,661	0,061	0,119
-292,905	-200,000	-0,027	0,144
-291,891	800,000	0,042	0,118
-290,876	-30,754	-0,126	-0,051
-289,862	178,419	0,102	-0,108
-288,847	-200,000	-0,034	-0,153
-287,832	-170,351	-0,098	0,002
-286,818	-150,443	0,071	-0,004
-285,803	-176,909	0,063	-0,001
-284,789	-116,172	-0,051	-0,007
-283,774	528,824	-0,056	0,096
-282,759	-34,611	0,138	0,054
-281,745	-85,664	-0,062	0,014
-280,730	49,987	-0,048	0,032
-279,716	-200,000	0,004	0,140
-278,701	800,000	-0,078	0,196
-277,686	27,733	-0,138	-0,084
-276,672	232,285	-0,054	-0,065
-275,657	-35,430	0,107	0,042
-274,643	-30,414	-0,051	-0,021
-273,628	800,000	0,037	-0,112
-272,613	800,000	-0,039	0,085
-271,599	226,760	0,078	0,092
-270,584	-200,000	0,001	0,188
-269,570	-200,000	-0,012	0,052
-268,555	-200,000	-0,020	-0,096
-267,540	-73,201	-0,098	0,026
-266,526	7,480	0,077	0,042
-265,511	-124,161	-0,157	0,018
-264,497	189,785	-0,051	-0,055
-263,482	98,492	0,075	0,062
-262,467	368,350	0,111	-0,163
-261,453	-72,011	0,067	0,018
-260,438	800,000	0,029	-0,058
-259,424	114,137	-0,045	-0,040
-258,409	-63,602	-0,038	-0,011
-257,395	42,908	0,007	-0,005
-256,380	-140,356	0,093	0,007
-255,365	265,418	-0,014	-0,018
-254,351	-200,000	0,038	0,167
-253,336	-10,449	-0,096	-0,046
-252,322	36,488	-0,117	0,075
-251,307	392,895	-0,037	0,056
-250,292	221,642	0,100	0,116
-249,278	800,000	-0,068	0,178
-248,263	-29,337	-0,160	0,066
-247,249	-200,000	0,040	0,165
-246,234	-68,298	-0,049	0,014
-245,219	-94,942	-0,078	0,015
-244,205	9,902	-0,024	0,013
-243,190	-63,243	0,171	0,051
-242,176	37,780	0,024	-0,016
-241,161	800,000	-0,063	-0,137
-240,146	-133,843	0,060	0,005
-239,132	-17,485	-0,127	0,057
-238,117	800,000	-0,024	0,067
-237,103	20,965	-0,122	0,071
-236,088	-180,717	-0,171	-0,002
-235,073	235,798	0,059	0,071
-234,059	-171,842	0,130	-0,003
-233,044	-200,000	-0,002	-0,131
-232,030	541,057	-0,045	-0,078
-231,015	29,489	-0,062	-0,038
-230,000	800,000	0,029	-0,059
-228,986	639,232	0,067	0,123
-227,971	-200,000	0,012	0,049
-226,957	300,152	0,102	-0,136
-225,942	-172,566	0,122	0,003
-224,927	800,000	-0,071	0,182
-223,913	-62,078	-0,161	0,048
-222,898	-200,000	0,012	-0,124
-221,884	-200,000	-0,001	-0,013
-220,869	-200,000	-0,013	-0,184
-219,855	86,940	0,066	-0,053
-218,840	800,000	0,034	0,094
-217,825	124,063	0,015	-0,013
-216,811	-200,000	0,007	0,096
-215,796	-200,000	-0,009	-0,038
-214,782	-76,015	0,142	-0,036
-213,767	-135,945	0,037	-0,003
-212,752	60,418	0,042	-0,030
-211,738	-90,046	0,097	0,020
-210,723	800,000	-0,035	0,084
-209,709	10,997	-0,118	-0,065
-208,694	35,589	0,022	-0,014
-207,679	-30,350	-0,119	0,049
-206,665	324,074	0,022	-0,030
-205,650	-119,116	0,198	-0,025
-204,636	-200,000	-0,001	-0,141
-203,621	-200,000	-0,004	-0,033
-202,606	30,905	-0,061	0,038
-201,592	-200,000	-0,007	0,087
-200,577	-27,341	-0,048	0,020
-199,563	-102,874	-0,133	0,023
-198,548	800,000	0,027	-0,086
-197,533	-200,000	0,014	-0,100
-196,519	219,517	0,014	0,016
-195,504	-200,000	-0,002	0,077
-194,490	92,443	0,048	-0,039
-193,475	51,266	-0,139	-0,095
-192,460	-2,546	0,098	0,049
-191,446	-200,000	-0,006	0,211
-190,431	76,045	-0,073	0,056
-189,417	-88,173	-0,138	0,030
-188,402	-200,000	0,003	0,143
-187,387	594,578	-0,006	0,010
-186,373	-48,423	0,044	0,015
-185,358	520,269	0,089	-0,152
-184,344	-72,834	-0,016	-0,004
-183,329	67,436	0,094	0,069
-182,315	-33,808	0,141	0,056
-181,300	76,103	0,032	0,025
-180,285	110,060	-0,050	-0,044
-179,271	-84,295	-0,059	-0,013
-178,256	-85,543	-0,027	-0,006
-177,242	3,216	0,129	0,067
-176,227	480,419	-0,071	0,116
-175,212	180,483	-0,068	0,072
-174,198	800,000	0,023	-0,060
-173,183	-133,807	-0,072	-0,006
-172,169	-30,619	-0,140	-0,057
-171,154	-200,000	0,022	-0,145
-170,139	800,000	0,043	0,126
-169,125	155,409	-0,074	0,073
-168,110	36,061	0,052	0,033
-167,096	704,326	0,073	0,139
-166,081	83,368	-0,106	0,083
-165,066	311,404	0,054	0,073
-164,052	-123,171	-0,083	0,009
-163,037	167,822	-0,111	0,113
-162,023	-117,953	0,062	0,008
-161,008	-200,000	-0,002	-0,029
-159,993	448,727	0,032	-0,052
-158,979	387,685	-0,034	-0,051
-157,964	-74,834	-0,008	-0,002
-156,950	253,217	-0,060	-0,074
-155,935	-18,248	-0,077	-0,035
-154,920	19,036	0,055	0,032
-153,906	-25,794	0,039	-0,017
-152,891	-200,000	-0,030	0,096
-151,877	177,324	0,087	-0,092
-150,862	99,549	-0,084	-0,070
-149,847	-120,645	0,210	0,025
-148,833	800,000	0,012	-0,033
-147,818	85,786	0,007	-0,005
-146,804	-72,999	-0,092	0,024
-145,789	247,439	-0,022	-0,027
-144,775	50,999	-0,061	0,042
-143,760	-200,000	0,048	-0,178
-142,745	10,845	0,083	0,046
-141,731	-148,385	0,155	-0,009
-140,716	800,000	-0,009	0,027
-139,702	542,668	0,056	-0,097
-138,687	574,839	-0,051	0,091
-137,672	-200,000	-0,047	-0,154
-136,658	-8,112	-0,092	-0,044
-135,643	217,937	-0,033	0,037
-134,629	1,732	0,081	0,042
-133,614	-200,000	0,052	0,205
-132,599	-163,567	0,067	-0,002
-131,585	-132,690	0,145	0,013
-130,570	-154,294	0,173	0,008
-129,556	-53,089	0,101	-0,033
-128,541	-200,000	-0,020	-0,201
-127,526	570,782	0,066	-0,116
-126,512	-200,000	0,016	0,066
-125,497	55,508	0,095	0,066
-124,483	800,000	-0,023	0,046
-123,468	-56,167	0,110	0,035
-122,453	-200,000	0,010	-0,035
-121,439	-200,000	-0,009	0,113
-120,424	27,755	0,094	-0,057
-119,410	-171,614	-0,068	0,002
-118,395	407,227	-0,031	0,048
-117,380	800,000	0,046	0,115
-116,366	512,884	-0,035	-0,059
-115,351	-123,960	0,089	0,010
-114,337	-29,983	0,170	0,069
-113,322	-91,603	0,100	0,020
-112,307	565,669	0,103	-0,179
-111,293	-200,000	-0,000	0,127
-110,278	789,653	-0,072	0,143
-109,264	7,798	-0,090	0,049
-108,249	-134,931	0,038	-0,003
-107,234	-109,725	-0,065	-0,010
-106,220	799,521	0,030	-0,061
-105,205	151,642	0,074	-0,073
-104,191	492,899	-0,069	-0,113
-103,176	-106,081	0,159	-0,025
-102,162	-39,397	-0,093	0,035
-101,147	323,897	0,052	0,072
-100,132	-140,517	-0,106	0,008
-99,118	144,541	-0,025	-0,024
-98,103	21,848	0,041	-0,024
-97,089	800,000	0,042	0,087
-96,074	158,824	-0,022	0,022
-95,059	716,119	-0,039	0,074
-94,045	800,000	0,043	-0,137
-93,030	-84,883	-0,181	-0,040
-92,016	-56,609	0,061	-0,019
-91,001	183,197	0,044	0,047
-89,986	183,666	-0,066	0,070
-88,972	-19,632	0,092	-0,041
-87,957	-200,000	-0,028	-0,117
-86,943	-200,000	-0,019	-0,110
-85,928	-200,000	-0,007	-0,090
-84,913	688,235	0,030	0,056
-83,899	-200,000	-0,006	-0,082
-82,884	614,751	-0,091	0,165
-81,870	212,782	-0,020	0,022
-80,855	-23,017	0,134	-0,058
-79,840	-200,000	-0,026	-0,138
-78,826	-35,487	0,064	-0,025
-77,811	-15,497	-0,091	0,041
-76,797	-200,000	-0,004	0,069
-75,782	65,136	-0,027	0,020
-74,767	25,199	0,105	0,063
-73,753	-126,625	0,076	-0,008
-72,738	-52,827	-0,053	0,017
-71,724	-200,000	0,028	-0,155
-70,709	-56,694	0,074	-0,023
-69,694	296,648	0,040	-0,053
-68,680	244,270	0,060	-0,073
-67,665	101,587	0,150	0,125
-66,651	-200,000	-0,003	0,045
-65,636	167,767	0,045	0,046
-64,622	-80,008	0,061	0,015
-63,607	41,106	-0,092	-0,060
-62,592	-95,566	0,092	-0,018
-61,578	-200,000	-0,009	0,091
-60,563	-114,842	-0,095	-0,013
-59,549	50,565	0,049	0,033
-58,534	28,166	-2,082	-1,258
-57,519	-200,000	-0,137	-0,808
-56,505	-200,000	-1,445	-5,036
-55,490	85,887	0,828	0,653
-54,476	800,000	5,398	11,895
-53,461	-200,000	18,651	317,790
-52,446	800,000	741,373	2334,468
-51,432	558,505	1657,231	2878,744
-50,417	111,092	1641,348	1417,314
-49,403	75,362	1291,383	976,022
-48,388	30,236	1031,889	630,221
-47,373	19,892	994,191	572,913
-46,359	17,364	982,023	557,553
-45,344	13,992	978,244	544,292
-44,330	14,309	976,448	544,312
-43,315	13,735	974,693	541,428
-42,300	13,632	973,603	540,464
-41,286	13,651	972,700	540,001
-40,271	13,679	971,709	539,523
-39,257	13,667	970,780	538,946
-38,242	13,632	970,029	538,392
-37,227	13,631	969,229	537,925
-36,213	13,663	968,255	537,467
-35,198	13,612	967,407	536,809
-34,184	13,636	966,635	536,436
-33,169	13,664	965,421	535,833
-32,154	13,729	964,452	535,484
-31,140	13,633	963,771	534,774
-30,125	13,670	963,060	534,478
-29,111	13,674	962,112	533,945
-28,096	13,702	961,446	533,644
-27,082	13,705	960,877	533,318
-26,067	13,693	960,185	532,873
-25,052	13,688	959,349	532,371
-24,038	13,720	958,692	532,088
-23,023	13,635	958,116	531,474
-22,009	13,656	957,555	531,210
-20,994	13,690	956,780	530,867
-19,979	13,706	956,270	530,617
-18,965	13,651	955,579	530,034
-17,950	13,646	955,094	529,727
-16,936	13,672	954,337	529,370
-15,921	13,626	953,688	528,842
-14,906	13,621	952,803	528,314
-13,892	13,550	952,336	527,805
-12,877	13,547	951,664	527,402
-11,863	13,483	951,186	526,913
-10,848	13,485	950,473	526,505
-9,833	13,626	949,851	526,588
-8,819	13,568	949,230	526,038
-7,804	13,547	948,569	525,584
-6,790	13,596	947,866	525,329
-5,775	13,600	947,315	525,016
-4,760	13,577	946,904	524,696
-3,746	13,499	946,448	524,172
-2,731	13,459	945,479	523,488
-1,717	13,342	944,869	522,758
-0,702	13,386	944,230	522,523
0,313	13,255	943,604	522,550
1,327	16,522	941,204	531,521
2,342	25,581	795,801	473,476
3,356	22,069	459,979	268,263
4,371	-4,945	317,235	156,026
5,386	-8,733	298,906	143,130
6,400	-10,729	293,008	138,294
7,415	-11,068	290,447	136,736
8,429	-11,449	288,940	135,638
9,444	-11,488	287,807	135,055
10,459	-11,458	287,173	134,775
11,473	-11,398	286,614	134,559
12,488	-11,370	286,124	134,345
13,502	-11,469	285,531	133,958
14,517	-11,420	285,211	133,844
15,531	-11,431	284,751	133,605
16,546	-11,386	284,346	133,447
17,561	-11,399	283,871	133,199
18,575	-11,215	283,451	133,169
19,590	-11,471	283,227	132,804
20,604	-11,341	282,857	132,745
21,619	-11,644	282,729	132,380
22,634	-11,317	282,178	132,425
23,648	-11,457	281,877	132,138
24,663	-11,389	281,708	132,112
25,677	-11,575	281,354	131,755
26,692	-11,474	281,115	131,729
27,707	-11,492	280,788	131,547
28,721	-11,422	280,486	131,461
29,736	-11,462	280,283	131,315
30,750	-11,322	279,943	131,277
31,765	-11,517	279,801	131,013
32,780	-11,408	279,465	130,948
33,794	-11,434	279,233	130,803
34,809	-11,363	279,000	130,750
35,823	-11,533	278,719	130,444
36,838	-11,327	278,529	130,540
37,853	-11,522	278,310	130,241
38,867	-11,555	278,077	130,088
39,882	-11,415	277,693	130,030
40,896	-11,441	277,538	129,921
41,911	-11,468	277,286	129,766
42,926	-11,349	276,814	129,646
43,940	-11,464	276,639	129,444
44,955	-11,598	276,541	129,260
45,969	-11,547	276,191	129,134
46,984	-11,584	275,907	128,954
47,999	-12,013	275,732	128,458
49,013	-12,012	275,515	128,346
50,028	-12,059	275,334	128,206
51,042	-12,167	274,888	127,886
52,057	-12,368	274,781	127,636
53,071	-12,270	274,460	127,567
54,086	-12,223	274,331	127,540
55,101	-11,760	274,086	127,848
56,115	-11,594	274,057	127,977
57,130	-11,429	273,881	128,037
58,144	-11,311	273,645	128,026
59,159	-11,237	273,366	127,953
60,174	-11,438	273,185	127,670
61,188	-11,446	272,858	127,498
62,203	-11,385	272,755	127,495
63,217	-11,337	272,370	127,348
64,232	-11,387	272,213	127,217
65,247	-11,317	272,033	127,187
66,261	-11,296	271,735	127,056
67,276	-11,632	271,474	126,611
68,290	-11,671	271,312	126,489
69,305	-11,651	270,887	126,298
70,320	-11,793	270,873	126,149
71,334	-11,354	270,615	126,422
72,349	-11,387	270,469	126,312
73,363	-11,341	270,381	126,303
74,378	-11,426	270,125	126,092
75,393	-11,276	269,901	126,115
76,407	-11,279	269,651	125,985
77,422	-11,360	269,391	125,777
78,436	-11,302	269,116	125,690
79,451	-11,380	268,960	125,535
80,466	-11,312	268,627	125,431
81,480	-11,497	268,253	125,076
82,495	-11,740	268,165	124,803
83,509	-11,444	267,961	124,966
84,524	-11,590	267,770	124,733
85,539	-11,670	267,487	124,517
86,553	-11,689	267,321	124,412
87,568	-11,605	267,136	124,390
88,582	-11,530	266,931	124,352
89,597	-11,591	266,752	124,202
90,611	-11,528	266,536	124,148
91,626	-11,376	266,418	124,219
92,641	-11,341	266,221	124,148
93,655	-11,354	265,879	123,966
94,670	-11,506	265,908	123,831
95,684	-11,513	265,514	123,630
96,699	-11,538	265,360	123,525
97,714	-11,444	265,201	123,524
98,728	-11,688	265,025	123,212
99,743	-11,855	264,778	122,937
100,757	-11,576	264,539	123,064
101,772	-11,733	264,287	122,796
102,787	-11,529	264,144	122,901
103,801	-11,431	263,925	122,876
104,816	-11,533	263,903	122,764
105,830	-11,345	263,631	122,794
106,845	-11,424	263,400	122,605
107,860	-11,536	263,120	122,364
108,874	-11,253	263,030	122,563
109,889	-11,451	262,782	122,260
110,903	-11,370	262,454	122,169
111,918	-11,569	262,546	122,024
112,933	-11,595	262,231	121,843
113,947	-11,485	262,208	121,919
114,962	-11,287	261,929	121,955
115,976	-11,245	261,634	121,844
116,991	-11,479	261,451	121,540
118,006	-11,570	261,332	121,394
119,020	-11,514	261,353	121,443
120,035	-11,360	261,023	121,414
121,049	-11,378	260,791	121,280
122,064	-11,283	260,609	121,268
123,079	-11,256	260,321	121,147
124,093	-11,286	259,960	120,942
125,108	-11,812	259,898	120,439
126,122	-11,627	259,539	120,425
127,137	-11,874	259,400	120,133
128,151	-11,836	259,280	120,100
129,166	-11,576	259,023	120,198
130,181	-11,538	258,755	120,096
131,195	-11,602	258,593	119,954
132,210	-11,446	258,406	119,993
133,224	-11,301	258,444	120,126
134,239	-11,242	258,117	120,016
135,254	-11,287	257,872	119,851
136,268	-11,631	257,760	119,490
137,283	-11,714	257,517	119,294
138,297	-11,820	257,189	119,039
139,312	-11,861	256,866	118,843
140,327	-11,477	256,870	119,168
141,341	-11,288	256,834	119,304
142,356	-11,224	256,582	119,232
143,370	-11,316	256,395	119,055
144,385	-11,030	256,255	119,227
145,400	-11,163	256,084	119,022
146,414	-11,088	255,879	118,981
147,429	-11,263	255,811	118,787
148,443	-11,433	255,670	118,565
149,458	-11,168	255,379	118,648
150,473	-11,299	255,227	118,453
151,487	-11,061	254,984	118,535
152,502	-11,385	254,780	118,150
153,516	-11,134	254,467	118,211
154,531	-11,254	254,449	118,089
155,546	-11,242	254,241	117,992
156,560	-11,262	254,016	117,860
157,575	-11,321	253,682	117,644
158,589	-11,295	253,565	117,602
159,604	-11,258	253,458	117,573
160,619	-11,158	253,200	117,528
161,633	-11,250	253,229	117,453
162,648	-11,131	252,958	117,418
163,662	-11,091	252,848	117,391
164,677	-11,169	252,832	117,306
165,692	-11,234	252,571	117,119
166,706	-11,186	252,208	116,982
167,721	-11,191	252,016	116,878
168,735	-11,257	251,949	116,780
169,750	-11,071	251,810	116,863
170,764	-11,180	251,718	116,718
171,779	-11,115	251,573	116,695
172,794	-11,036	251,307	116,629
173,808	-11,178	251,065	116,385
174,823	-11,478	250,692	115,948
175,837	-11,804	250,666	115,650
176,852	-11,302	250,579	116,024
177,867	-11,146	250,436	116,080
178,881	-11,090	250,334	116,069
179,896	-11,062	250,084	115,967
180,910	-10,974	249,891	115,940
181,925	-11,170	249,784	115,715
182,940	-11,122	249,525	115,626
183,954	-11,078	249,331	115,562
184,969	-11,274	249,356	115,399
185,983	-11,160	249,084	115,358
186,998	-11,149	248,885	115,265
188,013	-10,938	248,638	115,317
189,027	-11,087	248,612	115,170
190,042	-11,035	248,262	115,041
191,056	-11,196	248,342	114,933
192,071	-11,064	248,123	114,932
193,086	-11,219	247,923	114,700
194,100	-11,223	247,803	114,631
195,115	-10,889	247,347	114,687
196,129	-11,085	247,272	114,479
197,144	-11,259	247,139	114,263
198,159	-11,058	246,786	114,256
199,173	-10,889	246,760	114,375
200,188	-11,249	246,612	113,997
201,202	-11,349	246,272	113,747
202,217	-11,595	245,931	113,376
203,232	-11,515	245,796	113,370
204,246	-11,215	245,642	113,536
205,261	-10,800	245,604	113,851
206,275	-11,866	245,257	112,801
207,290	-7,854	246,927	116,888
208,304	0,518	249,554	125,120
209,319	4,210	250,709	128,777
210,334	4,802	250,690	129,251
211,348	5,066	250,516	129,369
212,363	5,218	250,550	129,502
213,377	5,323	250,361	129,481
214,392	5,156	250,266	129,281
215,407	4,994	249,894	128,942
216,421	4,761	249,750	128,663
217,436	5,084	249,712	128,900
218,450	5,315	249,545	128,994
219,465	4,937	249,204	128,493
220,480	4,863	249,018	128,325
221,494	4,794	249,062	128,278
222,509	4,790	248,779	128,118
223,523	4,843	248,396	127,953
224,538	4,345	248,258	127,459
225,553	4,515	248,212	127,564
226,567	4,657	248,025	127,574
227,582	4,667	247,909	127,512
228,596	4,756	247,689	127,460
229,611	4,547	247,438	127,148
230,626	4,351	247,326	126,918
231,640	4,646	246,984	126,973
232,655	4,482	246,988	126,829
233,669	4,376	246,827	126,648
234,684	4,224	246,534	126,362
235,699	4,555	246,672	126,693
236,713	4,882	246,458	126,839
237,728	4,567	246,190	126,432
238,742	4,299	245,766	125,985
239,757	4,170	245,907	125,941
240,772	4,432	245,627	126,000
241,786	4,562	245,516	126,037
242,801	4,144	245,366	125,608
243,815	4,402	245,176	125,710
244,830	4,574	245,109	125,804
245,844	4,587	245,134	125,817
246,859	4,623	244,686	125,605
247,874	4,429	244,451	125,315
248,888	4,440	244,469	125,323
249,903	4,428	244,383	125,257
250,917	4,693	244,113	125,323
251,932	4,586	244,205	125,271
252,947	4,681	243,905	125,184
253,961	4,352	243,701	124,802
254,976	4,499	243,659	124,888
255,990	4,654	243,465	124,902
257,005	4,364	243,231	124,537
258,020	4,524	242,860	124,465
259,034	4,297	242,879	124,281
260,049	4,540	242,690	124,369
261,063	4,282	242,512	124,059
262,078	4,144	242,403	123,881
263,093	4,473	242,215	124,038
264,107	4,701	241,992	124,096
265,122	4,384	241,788	123,726
266,136	4,643	241,852	123,956
267,151	4,832	241,689	124,012
268,166	4,471	241,370	123,549
269,180	4,235	241,290	123,308
270,195	4,941	241,367	123,901
271,209	5,286	241,094	124,026
272,224	4,676	240,857	123,406
273,239	4,161	240,624	122,865
274,253	4,453	240,394	122,969
275,268	4,445	240,343	122,926
276,282	4,430	240,294	122,877
277,297	4,481	239,897	122,704
278,312	4,338	239,777	122,518
279,326	4,649	239,734	122,732
280,341	4,377	239,796	122,537
281,355	4,445	239,489	122,423
282,370	4,554	239,400	122,453
283,384	4,483	239,096	122,231
284,399	4,304	239,031	122,045
285,414	4,275	238,620	121,802
286,428	4,488	238,754	122,027
287,443	4,299	238,566	121,771
288,457	4,590	238,380	121,895
289,472	4,569	238,308	121,830
290,487	4,393	238,096	121,572
291,501	4,123	237,991	121,296
292,516	4,216	237,682	121,200
293,530	4,090	237,544	121,020
294,545	4,464	237,543	121,302
295,560	4,458	237,275	121,150
296,574	4,404	237,023	120,969
297,589	4,337	236,951	120,868
298,603	4,653	236,988	121,124
299,618	4,589	236,794	120,964
300,633	4,686	236,647	120,954
301,647	4,713	236,615	120,947
302,662	4,914	236,499	121,035
303,676	4,719	236,211	120,724
304,691	4,705	236,133	120,663
305,706	5,001	235,865	120,746
306,720	4,860	235,817	120,601
307,735	4,474	235,687	120,223
308,749	4,638	235,487	120,238
309,764	4,488	235,162	119,945
310,779	4,237	235,146	119,730
311,793	3,958	234,752	119,303
312,808	4,203	234,580	119,395
313,822	4,100	234,546	119,287
314,837	4,131	234,460	119,257
315,852	4,102	234,199	119,091
316,866	4,234	234,133	119,149
317,881	4,736	234,190	119,555
318,895	4,758	234,147	119,540
319,910	4,814	233,890	119,441
320,925	4,450	233,541	118,972
321,939	4,028	233,468	118,599
322,954	4,347	233,353	118,775
323,968	4,564	233,158	118,833
324,983	4,565	233,030	118,758
325,997	4,857	233,015	118,964
327,012	4,713	232,891	118,779
328,027	4,635	232,618	118,569
329,041	4,983	232,649	118,841
330,056	5,191	232,511	118,920
331,070	5,281	232,367	118,905
332,085	4,868	232,056	118,419
333,100	4,408	231,900	117,977
334,114	4,618	231,768	118,061
335,129	4,798	231,653	118,128
336,143	4,915	231,525	118,142
337,158	4,702	231,379	117,894
338,173	4,555	231,114	117,637
339,187	4,567	230,938	117,546
340,202	4,702	230,882	117,610
341,216	4,809	230,668	117,572
342,231	4,554	230,612	117,339
343,246	4,385	230,361	117,072
344,260	4,486	230,361	117,138
345,275	4,958	230,194	117,401
346,289	4,950	230,082	117,327
347,304	4,962	230,027	117,298
348,319	4,954	229,735	117,132
349,333	4,695	229,584	116,849
350,348	4,590	229,420	116,676
351,362	4,509	229,389	116,589
352,377	4,459	229,132	116,410
353,392	4,365	228,911	116,216
354,406	4,240	228,850	116,081
355,421	195,455	1317,952	1393,115
356,435	156,776	1450,599	1393,074
