DTS Sentinel unit serial number:	SN410029Multiplexer serial number:	ORYXHardware model number:	OX2-SRSoftware version number:	ORYX F/W v4,00 Oryx Data Collector v3.7.2.0data status	okinstallation	B5 Nyhavnadifferential loss correction	single-endedforward channel	channel 2reverse channel	N/Adate	2023/12/14time	16:12:13forward acquisition time	300,00reverse acquisition time	0,00gamma	499,1914k internal	0,3157k external	0,3157temperature offset calibration	1,0000default loss term (dB/km)	0,3820temperature slope calibration	1,0000multiplexer offset coefficient	1,0000multiplexer slope coefficient	1,0000fibre end	0,00T internal ref (°C)	7,94T ext. ref 1 (°C)	-7,69T ext. ref 2 (°C)	-7,72length (m)	temperature (°C)	Stokes	anti-Stokes-744,400	26,516	0,245	0,151
-743,385	-61,392	-0,422	-0,130
-742,371	-17,028	0,121	0,056
-741,356	-24,205	-0,368	-0,161
-740,342	-34,685	0,079	0,032
-739,327	-78,556	-0,442	-0,111
-738,312	-51,167	0,177	0,061
-737,298	-116,486	-0,379	0,051
-736,283	5,932	0,159	0,086
-735,269	8,465	-0,335	-0,185
-734,254	-90,569	0,199	0,042
-733,239	-15,769	-0,589	-0,276
-732,225	-39,590	0,215	0,083
-731,210	-200,000	-0,006	-0,032
-730,196	35,842	-0,156	-0,101
-729,181	-9,896	-0,076	-0,037
-728,167	625,870	-0,086	0,160
-727,152	800,000	-0,025	-0,053
-726,137	-16,849	-0,082	-0,038
-725,123	516,342	-0,024	-0,041
-724,108	263,417	-0,060	0,077
-723,094	800,000	0,006	0,014
-722,079	-67,087	0,025	0,007
-721,064	404,973	0,038	0,060
-720,050	-88,648	0,083	0,018
-719,035	163,245	-0,098	0,102
-718,021	29,646	0,064	0,040
-717,006	211,663	-0,022	-0,026
-715,991	130,894	-0,117	-0,111
-714,977	690,633	-0,031	-0,061
-713,962	479,641	-0,089	-0,149
-712,948	-200,000	0,100	-0,000
-711,933	171,481	-0,003	-0,004
-710,918	-200,000	-0,065	-0,000
-709,904	800,000	0,051	-0,140
-708,889	-200,000	-0,011	0,070
-707,875	800,000	0,069	-0,172
-706,860	-200,000	0,026	-0,138
-705,845	-125,229	-0,033	-0,004
-704,831	702,743	0,012	-0,023
-703,816	600,713	-0,053	-0,097
-702,802	-200,000	-0,010	0,132
-701,787	-200,000	-0,015	-0,115
-700,772	68,546	0,117	0,088
-699,758	116,651	-0,067	0,061
-698,743	800,000	0,009	0,022
-697,729	472,950	-0,111	0,185
-696,714	72,791	-0,063	0,049
-695,699	-66,968	-0,124	0,036
-694,685	39,786	-0,106	-0,070
-693,670	4,670	-0,188	-0,101
-692,656	-200,000	0,001	-0,043
-691,641	277,566	-0,085	-0,112
-690,627	-200,000	-0,040	0,218
-689,612	-109,295	0,077	0,012
-688,597	29,270	-0,009	0,006
-687,583	-144,206	-0,047	0,003
-686,568	-71,012	-0,061	-0,017
-685,554	13,111	-0,121	0,069
-684,539	-129,588	0,015	-0,001
-683,524	-73,840	0,074	-0,020
-682,510	284,627	0,070	0,093
-681,495	160,923	-0,075	0,077
-680,481	-14,120	-0,080	-0,038
-679,466	800,000	0,038	-0,083
-678,451	307,049	0,024	-0,033
-677,437	-188,670	-0,179	-0,002
-676,422	10,977	-0,046	0,026
-675,408	-59,035	-0,101	-0,032
-674,393	-200,000	-0,027	-0,115
-673,378	-200,000	-0,028	0,119
-672,364	-126,835	0,039	0,004
-671,349	-132,786	-0,104	-0,010
-670,335	164,879	-0,098	0,102
-669,320	-200,000	0,010	0,046
-668,305	-155,064	0,038	-0,002
-667,291	211,944	-0,112	-0,130
-666,276	-24,119	-0,134	-0,059
-665,262	800,000	-0,020	-0,052
-664,247	695,682	0,021	0,040
-663,232	50,357	-0,066	-0,046
-662,218	-66,072	-0,054	-0,016
-661,203	-200,000	-0,037	0,125
-660,189	319,153	0,050	0,070
-659,174	-183,518	-0,206	-0,003
-658,159	-200,000	0,001	-0,020
-657,145	49,827	-0,037	0,026
-656,130	41,239	0,084	-0,055
-655,116	-200,000	-0,004	-0,047
-654,101	67,689	0,143	0,107
-653,086	63,173	0,072	0,053
-652,072	-175,746	-0,075	0,001
-651,057	800,000	0,025	-0,052
-650,043	-100,390	-0,125	0,023
-649,028	-50,442	0,138	0,048
-648,014	-73,166	0,094	-0,025
-646,999	562,596	0,060	-0,106
-645,984	-200,000	-0,006	-0,051
-644,970	-106,683	0,028	0,004
-643,955	-200,000	-0,022	-0,078
-642,941	144,822	-0,105	-0,103
-641,926	-19,852	-0,090	-0,041
-640,911	800,000	0,015	-0,035
-639,897	-69,238	0,050	0,014
-638,882	252,491	0,052	-0,065
-637,868	67,131	0,025	0,019
-636,853	59,873	-0,072	-0,052
-635,838	800,000	-0,039	-0,114
-634,824	245,307	-0,078	-0,097
-633,809	10,465	-0,064	-0,036
-632,795	-200,000	-0,015	-0,108
-631,780	800,000	-0,044	0,113
-630,765	21,445	-0,059	-0,035
-629,751	800,000	-0,022	-0,068
-628,736	306,532	0,029	0,040
-627,722	-200,000	0,011	-0,102
-626,707	6,103	0,034	0,018
-625,692	356,466	-0,040	0,058
-624,678	-29,705	-0,032	-0,013
-623,663	603,709	0,043	0,078
-622,649	647,045	0,048	-0,091
-621,634	-200,000	0,016	-0,125
-620,619	-67,420	-0,070	-0,020
-619,605	800,000	0,033	-0,071
-618,590	800,000	-0,028	-0,060
-617,576	800,000	-0,044	-0,103
-616,561	-200,000	0,000	-0,069
-615,546	75,811	0,054	0,042
-614,532	269,814	-0,070	-0,090
-613,517	443,961	0,014	-0,022
-612,503	117,124	-0,146	-0,131
-611,488	175,774	-0,057	-0,060
-610,474	-55,527	-0,115	-0,037
-609,459	-66,937	0,069	-0,020
-608,444	-200,000	-0,007	-0,067
-607,430	-124,890	-0,125	0,014
-606,415	-200,000	0,028	-0,137
-605,401	-81,564	-0,070	-0,017
-604,386	-36,262	-0,025	0,010
-603,371	90,596	0,032	-0,026
-602,357	-200,000	0,015	-0,149
-601,342	-200,000	-0,018	0,170
-600,328	134,758	0,033	0,032
-599,313	-24,962	0,127	0,055
-598,298	54,754	-0,023	0,016
-597,284	-105,514	0,087	0,014
-596,269	-200,000	0,004	0,057
-595,255	46,287	0,089	-0,060
-594,240	-144,739	-0,167	0,011
-593,225	756,155	0,038	-0,075
-592,211	362,625	-0,048	-0,070
-591,196	438,388	-0,026	-0,042
-590,182	-76,202	-0,055	-0,014
-589,167	226,716	-0,037	0,044
-588,152	-200,000	-0,006	0,063
-587,138	-200,000	-0,003	0,036
-586,123	800,000	-0,056	-0,135
-585,109	391,881	-0,053	-0,081
-584,094	-200,000	-0,021	0,102
-583,079	-36,853	0,064	0,025
-582,065	58,840	-0,100	0,072
-581,050	24,359	0,074	-0,045
-580,036	-200,000	-0,007	0,029
-579,021	-200,000	0,010	-0,092
-578,006	108,133	-0,042	-0,037
-576,992	-200,000	-0,002	-0,109
-575,977	156,977	-0,031	-0,031
-574,963	800,000	-0,050	0,117
-573,948	-96,871	-0,120	0,023
-572,934	-200,000	-0,024	0,096
-571,919	-200,000	0,012	0,090
-570,904	60,628	-0,027	0,020
-569,890	-200,000	0,011	-0,050
-568,875	-66,329	0,127	-0,037
-567,861	-200,000	-0,029	-0,095
-566,846	96,417	-0,078	0,065
-565,831	800,000	0,062	0,195
-564,817	-173,249	-0,112	-0,002
-563,802	-34,337	-0,039	0,016
-562,788	50,621	0,144	-0,100
-561,773	159,056	-0,069	-0,070
-560,758	252,057	0,024	-0,030
-559,744	242,648	-0,036	-0,045
-558,729	800,000	-0,029	-0,065
-557,715	-89,927	0,064	-0,014
-556,700	-200,000	0,030	0,155
-555,685	-200,000	0,017	0,056
-554,671	23,812	0,030	-0,018
-553,656	289,110	-0,089	-0,118
-552,642	-200,000	-0,035	0,128
-551,627	131,871	-0,090	-0,085
-550,612	-200,000	0,037	0,144
-549,598	-84,407	-0,139	-0,032
-548,583	-87,953	-0,095	-0,021
-547,569	-47,031	0,066	0,023
-546,554	800,000	0,025	-0,053
-545,539	-200,000	0,006	-0,055
-544,525	-200,000	-0,023	0,081
-543,510	-185,250	-0,123	-0,001
-542,496	92,882	-0,059	-0,049
-541,481	-21,312	0,110	0,049
-540,466	258,847	0,027	0,034
-539,452	-150,850	0,108	-0,006
-538,437	-109,700	0,066	0,010
-537,423	100,710	-0,080	0,068
-536,408	390,337	-0,063	0,096
-535,393	65,015	0,091	0,067
-534,379	151,726	-0,073	-0,073
-533,364	-84,225	-0,161	0,037
-532,350	-60,012	0,061	-0,019
-531,335	800,000	0,023	0,058
-530,321	-200,000	-0,013	-0,162
-529,306	-116,016	0,119	-0,016
-528,291	59,311	0,110	-0,079
-527,277	488,588	-0,044	-0,074
-526,262	-70,878	0,022	-0,006
-525,248	15,854	0,079	-0,045
-524,233	213,956	-0,038	0,044
-523,218	49,288	0,068	-0,047
-522,204	122,417	-0,062	-0,057
-521,189	800,000	-0,005	-0,014
-520,175	57,171	-0,114	0,081
-519,160	148,759	-0,077	-0,076
-518,145	-135,135	-0,053	-0,005
-517,131	154,269	0,066	0,066
-516,116	608,527	0,066	-0,121
-515,102	112,074	-0,047	-0,042
-514,087	603,106	0,026	0,048
-513,072	38,141	-0,128	-0,083
-512,058	-22,929	0,132	-0,058
-511,043	194,150	0,076	0,084
-510,029	162,200	-0,026	0,027
-509,014	-200,000	0,009	-0,061
-507,999	-68,528	-0,054	-0,015
-506,985	-200,000	0,018	-0,079
-505,970	280,078	0,058	0,076
-504,956	-200,000	0,013	-0,045
-503,941	-106,579	0,059	0,009
-502,926	6,589	0,131	0,071
-501,912	-200,000	0,015	-0,108
-500,897	-155,045	-0,125	0,006
-499,883	244,232	-0,075	-0,092
-498,868	48,453	-0,071	-0,049
-497,853	-198,834	-0,094	0,000
-496,839	800,000	-0,049	0,102
-495,824	33,103	-0,052	-0,033
-494,810	-200,000	-0,030	0,177
-493,795	-39,408	-0,083	-0,031
-492,781	-200,000	-0,011	0,161
-491,766	334,279	-0,106	-0,151
-490,751	151,344	0,091	-0,091
-489,737	-200,000	0,011	0,048
-488,722	-200,000	-0,006	0,056
-487,708	76,808	-0,073	0,057
-486,693	-200,000	-0,005	0,040
-485,678	646,767	0,040	0,075
-484,664	-74,592	-0,015	0,004
-483,649	-35,914	-0,095	-0,037
-482,635	-118,085	-0,062	0,008
-481,620	-30,276	0,061	-0,025
-480,605	194,808	0,117	-0,130
-479,591	448,887	-0,052	0,084
-478,576	442,367	0,043	0,069
-477,562	-200,000	0,015	-0,146
-476,547	-148,030	0,111	0,007
-475,532	120,157	-0,085	-0,077
-474,518	-93,167	-0,058	-0,012
-473,503	-48,690	0,075	0,026
-472,489	65,116	0,065	0,048
-471,474	17,177	-0,035	0,020
-470,459	-163,975	-0,086	0,003
-469,445	406,874	-0,131	-0,202
-468,430	-113,944	0,105	-0,015
-467,416	-78,110	-0,086	0,022
-466,401	-33,501	0,105	-0,042
-465,386	135,395	0,051	-0,048
-464,372	292,455	-0,064	0,085
-463,357	-123,107	-0,045	-0,005
-462,343	4,604	-0,025	-0,013
-461,328	-200,000	0,007	-0,045
-460,313	800,000	0,037	0,078
-459,299	51,533	-0,026	-0,018
-458,284	24,807	-0,058	-0,035
-457,270	800,000	0,029	-0,081
-456,255	-100,336	-0,018	0,003
-455,241	455,264	0,032	-0,051
-454,226	630,107	-0,061	-0,112
-453,211	-200,000	-0,018	0,070
-452,197	-45,327	0,152	0,055
-451,182	-200,000	0,044	0,154
-450,168	-47,481	0,079	-0,028
-449,153	-84,344	-0,071	0,016
-448,138	-34,694	0,082	-0,032
-447,124	72,597	-0,052	0,039
-446,109	-200,000	0,015	0,116
-445,095	800,000	0,077	0,190
-444,080	406,440	0,031	0,048
-443,065	-200,000	-0,004	-0,015
-442,051	-176,708	0,056	0,001
-441,036	92,951	0,071	-0,058
-440,022	149,243	-0,092	-0,090
-439,007	215,850	0,082	0,095
-437,992	42,048	0,216	0,142
-436,978	800,000	0,050	0,112
-435,963	-45,267	-0,119	0,043
-434,949	396,447	-0,061	0,093
-433,934	800,000	-0,008	0,022
-432,919	-102,553	0,119	0,020
-431,905	800,000	0,059	-0,123
-430,890	-200,000	-0,032	0,133
-429,876	-157,667	0,062	-0,003
-428,861	274,732	-0,059	0,077
-427,846	155,767	-0,020	-0,020
-426,832	-200,000	-0,035	-0,122
-425,817	108,894	-0,063	-0,055
-424,803	92,812	0,057	-0,047
-423,788	0,555	-0,109	-0,057
-422,773	154,282	-0,069	0,069
-421,759	-200,000	-0,028	0,104
-420,744	-11,760	0,056	0,027
-419,730	-126,092	-0,044	0,005
-418,715	800,000	0,033	-0,091
-417,701	375,846	-0,084	-0,124
-416,686	-196,968	0,056	0,000
-415,671	-200,000	-0,011	0,196
-414,657	334,487	0,052	0,073
-413,642	-200,000	0,027	-0,126
-412,628	23,892	0,059	0,035
-411,613	-11,879	-0,084	0,040
-410,598	-200,000	-0,010	0,071
-409,584	-200,000	-0,030	-0,118
-408,569	-200,000	0,015	0,074
-407,555	-130,802	-0,080	-0,008
-406,540	-200,000	0,002	-0,059
-405,525	40,161	0,167	0,109
-404,511	-200,000	-0,030	0,118
-403,496	-127,102	-0,202	0,021
-402,482	259,524	0,089	0,111
-401,467	-200,000	0,005	0,084
-400,452	149,023	-0,041	-0,040
-399,438	300,870	-0,031	0,042
-398,423	126,395	-0,055	0,050
-397,409	-200,000	0,019	-0,113
-396,394	366,494	-0,057	-0,084
-395,379	286,352	0,030	0,040
-394,365	-200,000	0,010	-0,075
-393,350	10,785	0,084	0,047
-392,336	-113,678	0,070	-0,010
-391,321	92,188	0,064	0,053
-390,306	109,333	-0,047	-0,041
-389,292	451,052	0,030	-0,049
-388,277	800,000	-0,018	0,038
-387,263	101,263	0,008	0,006
-386,248	-32,714	-0,018	-0,007
-385,233	2,844	0,133	-0,070
-384,219	-200,000	0,001	0,090
-383,204	78,287	0,050	-0,039
-382,190	-68,523	0,042	-0,012
-381,175	48,895	-0,096	0,065
-380,160	-200,000	0,001	0,011
-379,146	130,333	-0,158	0,147
-378,131	146,362	-0,018	-0,017
-377,117	6,209	0,067	0,036
-376,102	159,467	-0,072	-0,073
-375,088	6,289	-0,055	-0,030
-374,073	-69,911	0,135	-0,037
-373,058	19,499	-0,130	0,076
-372,044	800,000	-0,074	-0,177
-371,029	326,096	0,032	-0,044
-370,015	-103,308	-0,110	0,019
-369,000	570,564	-0,015	0,027
-367,985	237,684	0,019	0,023
-366,971	286,808	0,050	-0,066
-365,956	43,577	0,079	-0,052
-364,942	-200,000	0,035	0,117
-363,927	750,457	-0,058	-0,114
-362,912	-200,000	0,007	-0,122
-361,898	-200,000	0,037	-0,229
-360,883	-25,246	-0,202	-0,086
-359,869	-200,000	-0,012	-0,148
-358,854	8,518	0,148	0,081
-357,839	118,858	-0,052	0,046
-356,825	149,120	0,069	0,068
-355,810	-63,648	-0,107	-0,032
-354,796	161,624	-0,043	-0,043
-353,781	-172,169	-0,073	0,002
-352,766	-117,315	0,060	-0,008
-351,752	-200,000	0,040	0,137
-350,737	-129,728	-0,059	-0,006
-349,723	-120,108	-0,027	0,003
-348,708	-200,000	0,017	-0,081
-347,693	402,722	0,029	0,045
-346,679	43,183	0,071	0,047
-345,664	215,175	-0,114	-0,132
-344,650	220,900	0,077	0,090
-343,635	6,928	-0,076	0,041
-342,620	-36,736	0,130	0,050
-341,606	705,327	0,047	0,090
-340,591	-200,000	0,028	-0,094
-339,577	39,285	-0,055	0,035
-338,562	-166,779	-0,079	0,002
-337,548	800,000	-0,033	-0,075
-336,533	-200,000	-0,009	-0,098
-335,518	-101,519	-0,139	0,024
-334,504	-200,000	-0,050	0,163
-333,489	-46,235	-0,086	0,030
-332,475	736,019	-0,026	-0,050
-331,460	-102,633	-0,071	0,012
-330,445	-186,254	-0,048	-0,000
-329,431	17,113	0,091	0,052
-328,416	-200,000	0,010	0,067
-327,402	526,713	-0,036	-0,062
-326,387	-105,809	0,175	0,028
-325,372	800,000	-0,032	0,086
-324,358	50,595	-0,101	-0,069
-323,343	-128,572	0,065	0,007
-322,329	-140,299	0,144	-0,011
-321,314	529,507	-0,011	0,019
-320,299	-8,213	-0,007	-0,003
-319,285	58,284	0,142	-0,100
-318,270	-200,000	-0,013	-0,061
-317,256	-96,712	0,124	-0,023
-316,241	-200,000	-0,011	0,036
-315,226	17,716	0,029	0,017
-314,212	800,000	0,018	0,052
-313,197	-200,000	0,027	-0,129
-312,183	-74,937	0,153	-0,039
-311,168	166,044	-0,092	-0,094
-310,153	-200,000	-0,009	-0,183
-309,139	-47,533	0,075	-0,026
-308,124	-200,000	-0,009	0,139
-307,110	-83,336	0,078	0,018
-306,095	-200,000	0,015	0,142
-305,080	-200,000	-0,010	0,165
-304,066	72,698	0,058	0,044
-303,051	232,393	-0,070	-0,083
-302,037	0,965	-0,104	-0,054
-301,022	-200,000	-0,006	0,149
-300,008	3,313	0,172	0,091
-298,993	43,898	0,071	0,047
-297,978	-200,000	0,010	0,052
-296,964	800,000	-0,023	0,052
-295,949	373,621	-0,032	0,047
-294,935	125,312	-0,081	-0,074
-293,920	-112,197	0,042	-0,006
-292,905	-200,000	-0,007	0,118
-291,891	205,710	0,114	0,129
-290,876	181,058	-0,030	0,031
-289,862	27,321	0,031	0,019
-288,847	-200,000	0,004	0,041
-287,832	461,683	0,078	0,126
-286,818	154,945	0,157	0,156
-285,803	-200,000	-0,008	0,052
-284,789	800,000	0,055	0,113
-283,774	-24,988	-0,105	0,045
-282,759	-59,497	0,082	0,025
-281,745	434,505	0,047	0,075
-280,730	800,000	-0,059	0,133
-279,716	800,000	0,030	0,077
-278,701	800,000	0,093	0,231
-277,686	-47,478	-0,042	0,015
-276,672	165,025	0,074	0,076
-275,657	-177,984	-0,073	0,001
-274,643	483,419	-0,077	-0,126
-273,628	800,000	0,031	-0,087
-272,613	-200,000	0,002	-0,033
-271,599	124,579	0,088	-0,080
-270,584	-144,044	-0,080	0,005
-269,570	48,437	0,055	-0,037
-268,555	-200,000	-0,011	-0,054
-267,540	404,474	0,054	-0,082
-266,526	-68,225	0,156	0,044
-265,511	462,692	0,049	-0,079
-264,497	-81,280	-0,045	-0,011
-263,482	530,332	-0,011	-0,018
-262,467	-0,994	-0,088	-0,045
-261,453	-200,000	-0,040	-0,206
-260,438	-200,000	-0,016	0,114
-259,424	800,000	0,034	-0,079
-258,409	111,413	-0,078	0,068
-257,395	-200,000	0,002	0,021
-256,380	800,000	0,032	0,101
-255,365	-200,000	-0,002	0,087
-254,351	800,000	0,029	-0,061
-253,336	800,000	0,029	0,060
-252,322	165,842	-0,014	-0,014
-251,307	-200,000	-0,002	-0,085
-250,292	-7,198	0,102	-0,050
-249,278	800,000	0,052	-0,159
-248,263	36,488	0,180	0,115
-247,249	-200,000	0,047	-0,177
-246,234	97,503	-0,139	0,115
-245,219	-200,000	-0,036	-0,204
-244,205	0,066	0,014	-0,007
-243,190	43,093	0,158	-0,104
-242,176	64,491	0,056	-0,041
-241,161	-62,264	-0,032	0,010
-240,146	-200,000	-0,019	0,078
-239,132	82,571	-0,081	-0,064
-238,117	-139,607	0,024	-0,002
-237,103	-60,325	-0,084	0,026
-236,088	-103,028	0,084	-0,014
-235,073	727,092	0,083	0,161
-234,059	-200,000	0,029	0,105
-233,044	353,540	0,079	0,114
-232,030	-200,000	0,042	0,173
-231,015	61,140	0,018	0,013
-230,000	-200,000	0,004	-0,144
-228,986	470,258	-0,046	0,075
-227,971	-152,388	0,083	0,004
-226,957	-200,000	-0,048	0,155
-225,942	-110,832	0,074	0,011
-224,927	-200,000	-0,005	-0,087
-223,913	-20,647	-0,073	0,032
-222,898	800,000	-0,008	0,019
-221,884	-54,730	0,027	-0,009
-220,869	200,536	-0,073	0,081
-219,855	-78,272	0,164	-0,040
-218,840	-200,000	-0,008	0,116
-217,825	44,336	-0,093	-0,061
-216,811	2,528	-0,046	-0,024
-215,796	-12,559	-0,037	0,017
-214,782	800,000	0,019	0,057
-213,767	-200,000	0,052	-0,236
-212,752	142,166	0,069	-0,066
-211,738	800,000	0,034	-0,069
-210,723	-200,000	0,028	-0,089
-209,709	14,546	-0,024	0,013
-208,694	381,221	0,024	0,035
-207,679	-122,168	0,138	0,016
-206,665	-200,000	-0,027	0,165
-205,650	473,051	-0,035	0,057
-204,636	774,471	0,031	-0,061
-203,621	249,664	0,040	0,049
-202,606	-11,243	-0,078	0,037
-201,592	345,961	0,047	-0,066
-200,577	-33,040	0,128	-0,051
-199,563	-200,000	-0,027	-0,102
-198,548	800,000	-0,061	0,156
-197,533	145,298	0,046	0,044
-196,519	211,742	0,072	-0,082
-195,504	-78,606	0,017	-0,004
-194,490	169,077	-0,031	-0,032
-193,475	-200,000	-0,018	-0,064
-192,460	259,171	-0,017	-0,021
-191,446	800,000	0,038	0,108
-190,431	-127,129	-0,010	-0,001
-189,417	-54,951	0,121	-0,039
-188,402	-92,920	-0,058	-0,012
-187,387	-200,000	-0,040	-0,170
-186,373	-200,000	-0,001	-0,012
-185,358	-78,944	-0,115	-0,028
-184,344	-184,111	0,133	0,002
-183,329	-200,000	-0,032	0,105
-182,315	-200,000	-0,017	0,143
-181,300	-200,000	-0,007	0,067
-180,285	35,140	-0,076	0,048
-179,271	160,089	-0,110	-0,110
-178,256	-200,000	0,006	0,051
-177,242	-200,000	0,008	0,121
-176,227	590,808	-0,039	0,070
-175,212	-200,000	-0,023	-0,075
-174,198	-200,000	-0,108	0,000
-173,183	800,000	-0,047	-0,136
-172,169	-118,286	-0,142	0,018
-171,154	-200,000	0,016	0,052
-170,139	139,127	-0,049	0,046
-169,125	773,183	0,056	0,111
-168,110	718,283	-0,078	-0,150
-167,096	211,626	-0,043	-0,049
-166,081	105,257	0,011	0,009
-165,066	15,485	-0,121	0,068
-164,052	8,460	0,135	-0,073
-163,037	-200,000	0,011	0,144
-162,023	-200,000	0,035	0,250
-161,008	-200,000	0,005	-0,020
-159,993	264,312	0,091	0,114
-158,979	-200,000	0,030	-0,119
-157,964	-107,878	0,025	0,004
-156,950	32,146	-0,018	-0,011
-155,935	199,321	-0,058	0,064
-154,920	-104,646	0,138	-0,023
-153,906	-191,841	0,104	-0,001
-152,891	-84,558	-0,177	-0,040
-151,877	800,000	-0,012	-0,027
-150,862	-14,431	0,049	-0,023
-149,847	431,589	-0,030	-0,047
-148,833	352,778	-0,046	0,066
-147,818	-200,000	0,031	0,130
-146,804	-200,000	-0,004	0,021
-145,789	-200,000	0,000	-0,108
-144,775	-118,038	-0,032	-0,004
-143,760	-42,358	0,172	-0,063
-142,745	553,062	-0,012	0,021
-141,731	150,009	0,065	-0,064
-140,716	310,957	0,013	0,017
-139,702	221,981	-0,075	-0,087
-138,687	-32,181	0,150	-0,060
-137,672	64,790	0,033	0,024
-136,658	-5,581	-0,128	0,063
-135,643	-60,861	-0,023	0,007
-134,629	474,831	-0,035	0,057
-133,614	-200,000	-0,010	0,086
-132,599	329,691	0,046	0,064
-131,585	275,627	0,053	0,068
-130,570	76,173	-0,031	-0,024
-129,556	457,136	-0,066	-0,105
-128,541	107,631	0,058	0,050
-127,526	13,653	0,081	-0,045
-126,512	38,848	-0,040	-0,026
-125,497	72,645	0,008	0,006
-124,483	135,476	-0,085	0,080
-123,468	511,960	0,036	-0,060
-122,453	800,000	-0,047	0,097
-121,439	-138,819	-0,106	-0,008
-120,424	-200,000	-0,004	0,088
-119,410	-37,754	0,018	-0,007
-118,395	54,635	0,051	0,035
-117,380	800,000	-0,058	0,165
-116,366	-42,876	0,116	-0,042
-115,351	-200,000	0,015	0,053
-114,337	-151,125	-0,139	-0,007
-113,322	159,958	0,042	0,042
-112,307	1,504	-0,077	-0,040
-111,293	800,000	0,006	0,012
-110,278	157,981	-0,049	0,049
-109,264	-61,405	-0,132	-0,040
-108,249	-18,132	-0,083	0,037
-107,234	-79,364	0,191	0,046
-106,220	-21,723	-0,058	-0,025
-105,205	-167,713	0,138	-0,004
-104,191	545,686	0,031	0,053
-103,176	70,697	0,049	0,037
-102,162	-200,000	-0,004	-0,065
-101,147	379,599	0,098	-0,145
-100,132	279,236	-0,057	0,074
-99,118	223,819	-0,058	-0,068
-98,103	-169,250	0,061	-0,002
-97,089	-200,000	0,000	0,007
-96,074	-128,227	0,159	-0,016
-95,059	-200,000	-0,012	0,089
-94,045	84,752	-0,063	-0,050
-93,030	232,400	-0,039	-0,046
-92,016	301,547	-0,037	-0,049
-91,001	-45,689	-0,119	-0,042
-89,986	16,486	0,075	-0,042
-88,972	-147,568	-0,102	0,006
-87,957	-200,000	0,008	-0,044
-86,943	758,268	-0,022	-0,043
-85,928	330,339	-0,071	-0,098
-84,913	14,836	-0,063	-0,035
-83,899	-63,714	-0,065	0,019
-82,884	169,838	-0,088	-0,090
-81,870	278,461	0,029	0,037
-80,855	-35,000	0,044	-0,017
-79,840	83,199	-0,068	-0,053
-78,826	3,900	-0,106	0,056
-77,811	209,353	0,054	-0,060
-76,797	800,000	-0,078	-0,161
-75,782	137,527	-0,078	-0,073
-74,767	89,093	0,028	0,022
-73,753	43,523	-0,123	0,080
-72,738	534,884	0,056	0,096
-71,724	340,898	-0,056	-0,079
-70,709	-122,869	-0,041	-0,005
-69,694	-11,669	-0,100	0,047
-68,680	-122,164	0,130	0,015
-67,665	-200,000	0,001	0,250
-66,651	-66,833	0,044	0,012
-65,636	800,000	-0,056	-0,167
-64,622	-43,371	0,043	0,015
-63,607	-64,639	-0,045	-0,013
-62,592	-182,793	0,031	-0,000
-61,578	42,091	-0,046	0,030
-60,563	466,479	0,024	0,038
-59,549	27,345	0,104	0,063
-58,534	72,710	-2,790	-2,089
-57,519	110,269	0,328	-0,283
-56,505	-200,000	-1,684	-5,508
-55,490	453,432	1,304	2,080
-54,476	800,000	5,231	11,094
-53,461	-200,000	22,176	348,396
-52,446	800,000	760,326	2296,174
-51,432	513,841	1645,749	2765,396
-50,417	97,472	1609,244	1325,933
-49,403	65,280	1266,130	917,737
-48,388	23,020	1017,632	597,596
-47,373	19,402	984,992	566,476
-46,359	12,898	972,076	537,752
-45,344	8,569	968,810	521,743
-44,330	9,036	966,762	522,150
-43,315	8,054	964,839	517,878
-42,300	8,008	963,675	517,085
-41,286	7,995	962,581	516,435
-40,271	7,979	961,777	515,929
-39,257	7,977	960,838	515,399
-38,242	7,914	960,067	514,761
-37,227	7,963	959,340	514,511
-36,213	8,038	958,341	514,197
-35,198	7,979	957,427	513,495
-34,184	7,955	956,878	513,101
-33,169	7,914	956,053	512,507
-32,154	8,018	954,978	512,246
-31,140	7,997	953,971	511,619
-30,125	8,065	953,274	511,442
-29,111	7,995	952,600	510,834
-28,096	7,993	951,928	510,447
-27,082	7,999	951,199	510,057
-26,067	7,924	950,507	509,425
-25,052	8,030	949,464	509,184
-24,038	7,956	948,981	508,668
-23,023	7,929	948,274	508,182
-22,009	8,013	947,833	508,195
-20,994	7,977	946,955	507,589
-19,979	7,967	946,465	507,273
-18,965	7,961	945,702	506,825
-17,950	7,942	945,269	506,513
-16,936	7,942	944,587	506,128
-15,921	7,938	943,750	505,648
-14,906	7,893	942,941	505,048
-13,892	7,817	942,491	504,545
-12,877	7,818	941,932	504,228
-11,863	7,795	941,249	503,771
-10,848	7,825	940,837	503,625
-9,833	7,970	940,224	503,739
-8,819	7,889	939,648	503,154
-7,804	7,906	938,962	502,818
-6,790	7,815	938,486	502,256
-5,775	7,896	937,830	502,142
-4,760	7,916	937,084	501,785
-3,746	7,901	936,688	501,506
-2,731	7,757	936,008	500,667
-1,717	7,712	935,185	500,062
-0,702	7,718	934,696	499,801
0,313	7,611	933,905	499,794
1,327	10,942	931,858	509,159
2,342	19,558	780,145	448,853
3,356	14,778	448,176	250,635
4,371	-11,179	312,462	147,146
5,386	-14,722	294,812	135,242
6,400	-16,810	288,952	130,472
7,415	-17,227	286,172	128,796
8,429	-18,147	284,269	127,031
9,444	-18,214	283,430	126,580
10,459	-18,006	282,762	126,473
11,473	-18,038	282,278	126,214
12,488	-18,096	281,546	125,819
13,502	-18,111	281,239	125,656
14,517	-18,051	280,643	125,436
15,531	-18,157	280,234	125,140
16,546	-18,101	279,958	125,060
17,561	-18,148	279,477	124,789
18,575	-18,141	279,251	124,683
19,590	-18,093	278,788	124,511
20,604	-17,967	278,575	124,525
21,619	-18,002	278,199	124,313
22,634	-18,070	277,830	124,072
23,648	-18,096	277,472	123,876
24,663	-18,185	277,198	123,659
25,677	-18,159	277,129	123,641
26,692	-18,181	276,846	123,484
27,707	-18,155	276,504	123,344
28,721	-18,119	276,208	123,236
29,736	-18,234	275,885	122,972
30,750	-18,143	275,694	122,962
31,765	-18,114	275,227	122,770
32,780	-18,079	275,058	122,716
33,794	-18,128	274,770	122,531
34,809	-18,040	274,600	122,527
35,823	-18,134	274,347	122,315
36,838	-18,046	274,131	122,291
37,853	-18,114	273,855	122,092
38,867	-18,098	273,612	121,988
39,882	-17,956	273,275	121,960
40,896	-17,858	273,092	121,959
41,911	-17,956	272,803	121,727
42,926	-18,007	272,528	121,546
43,940	-18,160	272,319	121,299
44,955	-17,979	272,165	121,388
45,969	-17,935	271,852	121,279
46,984	-18,060	271,742	121,103
47,999	-17,850	271,430	121,148
49,013	-17,698	271,208	121,180
50,028	-17,962	271,160	120,902
51,042	-17,754	270,865	120,952
52,057	-17,798	270,515	120,744
53,071	-17,969	270,335	120,495
54,086	-17,915	270,214	120,481
55,101	-17,836	269,797	120,357
56,115	-17,935	269,708	120,215
57,130	-17,838	269,340	120,130
58,144	-18,095	269,120	119,785
59,159	-17,968	268,869	119,779
60,174	-17,972	268,485	119,594
61,188	-18,147	268,566	119,459
62,203	-18,072	268,264	119,382
63,217	-17,986	267,970	119,319
64,232	-17,993	267,788	119,221
65,247	-17,953	267,508	119,123
66,261	-18,048	267,345	118,953
67,276	-18,062	267,067	118,806
68,290	-17,889	266,854	118,858
69,305	-17,762	266,751	118,917
70,320	-17,825	266,317	118,656
71,334	-17,987	266,261	118,473
72,349	-18,005	265,998	118,329
73,363	-17,922	265,682	118,253
74,378	-18,058	265,431	118,008
75,393	-18,059	265,277	117,928
76,407	-17,956	265,052	117,911
77,422	-18,011	264,976	117,816
78,436	-17,848	264,471	117,729
79,451	-18,019	264,287	117,481
80,466	-17,925	264,094	117,470
81,480	-17,804	263,831	117,451
82,495	-17,934	263,654	117,246
83,509	-17,910	263,565	117,217
84,524	-17,984	263,370	117,053
85,539	-17,903	263,027	116,963
86,553	-17,800	262,840	116,962
87,568	-17,778	262,630	116,877
88,582	-18,087	262,506	116,536
89,597	-17,908	262,273	116,581
90,611	-17,934	262,028	116,439
91,626	-17,621	261,836	116,622
92,641	-18,026	261,641	116,165
93,655	-17,796	261,338	116,224
94,670	-17,794	261,223	116,164
95,684	-17,912	261,073	115,983
96,699	-17,806	260,757	115,926
97,714	-17,784	260,622	115,875
98,728	-17,907	260,334	115,628
99,743	-17,965	260,355	115,576
100,757	-18,026	260,111	115,403
101,772	-17,905	259,757	115,342
102,787	-18,004	259,478	115,120
103,801	-18,116	259,512	115,027
104,816	-17,951	259,262	115,051
105,830	-17,754	259,123	115,153
106,845	-17,851	258,625	114,836
107,860	-17,813	258,525	114,814
108,874	-17,844	258,326	114,689
109,889	-17,712	258,010	114,654
110,903	-17,961	257,825	114,344
111,918	-17,849	257,650	114,354
112,933	-17,938	257,703	114,289
113,947	-17,869	257,380	114,196
114,962	-18,025	257,191	113,966
115,976	-17,785	256,878	114,026
116,991	-18,000	256,701	113,750
118,006	-17,905	256,463	113,718
119,020	-17,873	256,407	113,710
120,035	-18,042	256,258	113,487
121,049	-17,770	256,077	113,633
122,064	-17,833	255,822	113,455
123,079	-17,621	255,706	113,578
124,093	-17,811	255,440	113,284
125,108	-17,839	255,210	113,149
126,122	-17,794	255,089	113,124
127,137	-17,742	254,841	113,048
128,151	-17,766	254,709	112,959
129,166	-17,815	254,409	112,773
130,181	-17,645	254,278	112,852
131,195	-17,821	254,097	112,610
132,210	-17,804	253,826	112,495
133,224	-17,727	253,606	112,453
134,239	-17,940	253,560	112,239
135,254	-17,842	253,273	112,187
136,268	-17,858	253,136	112,102
137,283	-17,785	252,932	112,064
138,297	-17,812	252,688	111,923
139,312	-17,572	252,473	112,023
140,327	-17,865	252,288	111,681
141,341	-18,099	252,260	111,458
142,356	-17,879	252,104	111,567
143,370	-17,915	251,714	111,354
144,385	-17,931	251,461	111,219
145,400	-18,065	251,314	111,030
146,414	-17,843	250,957	111,051
147,429	-17,939	250,880	110,925
148,443	-17,796	250,697	110,956
149,458	-17,702	250,497	110,938
150,473	-17,643	250,373	110,922
151,487	-17,892	250,223	110,635
152,502	-17,854	249,990	110,554
153,516	-17,850	249,880	110,499
154,531	-17,893	249,571	110,316
155,546	-17,789	249,472	110,350
156,560	-17,773	249,138	110,207
157,575	-17,696	249,102	110,246
158,589	-17,787	248,944	110,089
159,604	-17,901	248,601	109,832
160,619	-17,820	248,420	109,811
161,633	-17,769	248,244	109,765
162,648	-17,911	248,072	109,560
163,662	-17,740	248,023	109,672
164,677	-17,769	247,904	109,586
165,692	-17,532	247,595	109,638
166,706	-17,736	247,624	109,470
167,721	-17,885	247,361	109,220
168,735	-17,908	247,190	109,115
169,750	-17,779	246,950	109,107
170,764	-17,735	246,899	109,112
171,779	-17,774	246,717	108,989
172,794	-17,671	246,580	109,004
173,808	-17,777	246,334	108,798
174,823	-17,625	246,245	108,876
175,837	-17,729	246,033	108,686
176,852	-17,653	245,929	108,693
177,867	-17,830	245,784	108,472
178,881	-17,717	245,508	108,434
179,896	-17,805	245,286	108,254
180,910	-17,807	245,228	108,217
181,925	-17,874	245,062	108,079
182,940	-17,639	244,644	108,079
183,954	-17,855	244,514	107,834
184,969	-17,671	244,404	107,927
185,983	-17,572	244,093	107,861
186,998	-17,630	244,082	107,799
188,013	-17,637	243,835	107,675
189,027	-17,648	243,757	107,622
190,042	-17,833	243,628	107,403
191,056	-17,801	243,341	107,293
192,071	-17,809	243,182	107,207
193,086	-17,687	243,066	107,246
194,100	-17,437	242,783	107,317
195,115	-17,816	242,620	106,924
196,129	-17,806	242,511	106,875
197,144	-17,554	242,209	106,939
198,159	-17,742	242,060	106,710
199,173	-17,543	241,732	106,718
200,188	-17,710	241,820	106,611
201,202	-17,733	241,619	106,494
202,217	-17,677	241,522	106,488
203,232	-17,655	241,215	106,361
204,246	-17,621	240,934	106,255
205,261	-17,516	240,980	106,351
206,275	-15,909	241,308	107,793
207,290	-11,566	243,136	112,156
208,304	-5,473	244,828	117,940
209,319	-3,128	245,451	120,160
210,334	-2,642	245,455	120,551
211,348	-1,763	245,610	121,340
212,363	-1,266	245,701	121,782
213,377	-0,510	245,702	122,393
214,392	-0,168	245,878	122,751
215,407	0,237	245,701	122,985
216,421	0,438	245,566	123,071
217,436	0,319	245,436	122,897
218,450	0,384	245,353	122,899
219,465	0,423	245,188	122,837
220,480	0,543	245,140	122,900
221,494	0,680	244,851	122,856
222,509	0,285	244,627	122,410
223,523	0,285	244,269	122,220
224,538	0,133	244,260	122,081
225,553	0,076	243,982	121,884
226,567	-0,000	243,880	121,760
227,582	0,021	243,679	121,666
228,596	0,083	243,542	121,637
229,611	0,106	243,454	121,601
230,626	-0,146	243,354	121,336
231,640	-0,050	243,107	121,280
232,655	0,081	242,855	121,249
233,669	0,115	242,634	121,156
234,684	-0,016	242,626	121,035
235,699	0,174	242,501	121,115
236,713	0,198	242,177	120,963
237,728	0,179	242,137	120,916
238,742	0,187	241,825	120,756
239,757	0,047	241,829	120,634
240,772	0,134	241,558	120,559
241,786	0,086	241,484	120,473
242,801	-0,142	241,369	120,221
243,815	0,091	241,148	120,287
244,830	-0,093	241,117	120,113
245,844	0,018	240,847	120,057
246,859	-0,161	240,735	119,847
247,874	0,127	240,432	119,917
248,888	-0,060	240,375	119,727
249,903	0,006	240,293	119,729
250,917	0,040	240,160	119,679
251,932	0,087	240,047	119,649
252,947	0,396	239,668	119,696
253,961	0,217	239,581	119,500
254,976	-0,062	239,497	119,224
255,990	0,147	239,222	119,243
257,005	0,157	239,173	119,216
258,020	0,056	239,064	119,071
259,034	0,245	238,671	119,015
260,049	0,239	238,529	118,929
261,063	0,118	238,619	118,867
262,078	0,277	238,216	118,782
263,093	0,048	238,277	118,620
264,107	0,107	238,047	118,542
265,122	0,001	237,867	118,357
266,136	0,119	237,694	118,354
267,151	0,209	237,544	118,340
268,166	0,059	237,388	118,133
269,180	-0,073	237,203	117,926
270,195	0,112	237,034	117,978
271,209	0,221	236,955	118,014
272,224	0,211	236,771	117,904
273,239	0,116	236,677	117,771
274,253	-0,091	236,578	117,549
275,268	0,105	236,315	117,561
276,282	0,162	236,202	117,540
277,297	0,362	235,952	117,562
278,312	0,122	235,883	117,329
279,326	0,043	235,844	117,237
280,341	0,149	235,476	117,127
281,355	0,232	235,433	117,160
282,370	0,195	235,390	117,099
283,384	0,196	235,145	116,968
284,399	0,063	235,076	116,819
285,414	0,100	234,852	116,726
286,428	0,018	234,777	116,614
287,443	0,208	234,548	116,638
288,457	0,252	234,393	116,585
289,472	0,195	234,225	116,446
290,487	0,304	234,029	116,423
291,501	0,036	234,020	116,201
292,516	0,295	233,863	116,313
293,530	0,099	233,709	116,074
294,545	0,381	233,441	116,149
295,560	0,218	233,381	115,983
296,574	0,284	233,312	115,989
297,589	0,383	233,028	115,914
298,603	0,265	232,870	115,734
299,618	0,298	232,616	115,623
300,633	0,589	232,550	115,804
301,647	0,364	232,566	115,628
302,662	0,250	232,493	115,494
303,676	0,218	232,209	115,318
304,691	0,256	232,089	115,277
305,706	0,131	231,892	115,073
306,720	0,634	231,718	115,363
307,735	0,463	231,655	115,190
308,749	0,407	231,408	115,014
309,764	0,411	231,367	114,986
310,779	0,368	231,159	114,840
311,793	0,241	231,046	114,676
312,808	0,503	230,844	114,766
313,822	0,264	230,811	114,557
314,837	0,341	230,579	114,490
315,852	0,402	230,480	114,477
316,866	0,520	230,343	114,489
317,881	0,641	230,013	114,408
318,895	0,364	229,962	114,160
319,910	0,533	229,811	114,204
320,925	0,479	229,577	114,037
321,939	0,504	229,448	113,981
322,954	0,548	229,483	114,022
323,968	0,484	229,306	113,875
324,983	0,432	229,088	113,717
325,997	0,394	228,991	113,630
327,012	0,421	228,783	113,537
328,027	0,462	228,781	113,557
329,041	0,549	228,634	113,540
330,056	0,634	228,301	113,429
331,070	0,621	228,156	113,337
332,085	0,798	228,021	113,393
333,100	0,459	228,023	113,128
334,114	0,599	227,705	113,066
335,129	0,568	227,683	113,022
336,143	0,469	227,450	112,821
337,158	0,628	227,322	112,868
338,173	0,736	227,340	112,947
339,187	0,612	227,195	112,772
340,202	0,638	227,014	112,692
341,216	0,691	226,802	112,616
342,231	0,580	226,588	112,417
343,246	0,582	226,524	112,377
344,260	0,722	226,395	112,407
345,275	0,480	226,361	112,199
346,289	0,693	226,144	112,241
347,304	0,575	226,102	112,122
348,319	0,734	225,835	112,098
349,333	0,808	225,581	112,017
350,348	0,573	225,429	111,757
351,362	0,690	225,372	111,805
352,377	0,539	225,362	111,678
353,392	0,945	225,171	111,875
354,406	0,635	225,057	111,578
355,421	192,466	1311,652	1378,174
356,435	154,173	1443,884	1378,018
