DTS Sentinel unit serial number:	SN410029Multiplexer serial number:	ORYXHardware model number:	OX2-SRSoftware version number:	ORYX F/W v4,00 Oryx Data Collector v3.7.2.0data status	okinstallation	B5 Nyhavnadifferential loss correction	single-endedforward channel	channel 2reverse channel	N/Adate	2023/12/14time	14:02:13forward acquisition time	300,00reverse acquisition time	0,00gamma	499,1914k internal	0,3157k external	0,3157temperature offset calibration	1,0000default loss term (dB/km)	0,3820temperature slope calibration	1,0000multiplexer offset coefficient	1,0000multiplexer slope coefficient	1,0000fibre end	0,00T internal ref (°C)	8,06T ext. ref 1 (°C)	-7,93T ext. ref 2 (°C)	-8,00length (m)	temperature (°C)	Stokes	anti-Stokes-744,400	80,708	0,064	0,051
-743,385	-73,086	-0,404	-0,109
-742,371	40,746	0,222	0,147
-741,356	-141,104	-0,382	0,028
-740,342	-200,000	0,031	0,110
-739,327	-101,292	-0,332	-0,059
-738,312	140,127	0,175	0,170
-737,298	-53,487	-0,403	-0,135
-736,283	-9,921	0,122	0,060
-735,269	-30,273	-0,292	-0,122
-734,254	54,187	0,204	0,144
-733,239	-52,098	-0,791	-0,269
-732,225	-108,766	0,324	0,051
-731,210	117,430	-0,053	-0,048
-730,196	-48,881	-0,089	0,031
-729,181	137,093	-0,027	0,026
-728,167	549,605	0,013	-0,022
-727,152	377,739	0,040	-0,060
-726,137	-24,510	-0,071	-0,031
-725,123	-200,000	-0,044	-0,184
-724,108	-125,316	0,087	0,010
-723,094	-17,800	-0,147	-0,068
-722,079	28,720	-0,026	0,016
-721,064	-129,009	-0,085	0,009
-720,050	-200,000	-0,028	-0,104
-719,035	-200,000	0,003	0,106
-718,021	338,765	0,013	0,019
-717,006	52,956	-0,089	-0,063
-715,991	33,483	-0,148	0,095
-714,977	-106,767	0,007	0,001
-713,962	98,619	-0,090	-0,077
-712,948	-200,000	-0,032	0,114
-711,933	282,612	-0,076	0,101
-710,918	36,223	-0,101	0,065
-709,904	-167,481	-0,053	0,002
-708,889	-200,000	-0,028	-0,092
-707,875	499,390	-0,093	-0,159
-706,860	125,306	-0,064	0,059
-705,845	78,691	-0,042	-0,033
-704,831	183,416	0,061	0,066
-703,816	702,491	0,034	0,066
-702,802	-85,712	-0,182	0,041
-701,787	538,635	0,042	-0,075
-700,772	-200,000	0,014	-0,106
-699,758	-52,338	0,015	0,005
-698,743	145,781	0,107	0,106
-697,729	-200,000	-0,034	-0,117
-696,714	-130,203	-0,019	0,002
-695,699	152,702	0,047	-0,047
-694,685	284,930	-0,038	-0,050
-693,670	800,000	-0,061	-0,134
-692,656	106,064	0,093	-0,081
-691,641	33,945	-0,109	-0,070
-690,627	-81,112	-0,037	-0,009
-689,612	93,284	-0,025	-0,020
-688,597	-115,070	0,104	-0,014
-687,583	800,000	0,006	-0,016
-686,568	-200,000	0,032	-0,110
-685,554	800,000	0,021	-0,045
-684,539	800,000	0,013	-0,043
-683,524	263,391	-0,033	0,043
-682,510	147,382	0,032	0,031
-681,495	47,203	-0,079	0,054
-680,481	-60,073	-0,066	-0,021
-679,466	7,901	-0,186	-0,102
-678,451	427,410	0,062	-0,099
-677,437	505,913	-0,003	-0,005
-676,422	800,000	0,054	0,176
-675,408	-200,000	0,010	0,054
-674,393	-95,402	-0,051	0,010
-673,378	268,402	-0,097	-0,125
-672,364	-108,364	-0,160	0,025
-671,349	36,312	-0,063	0,041
-670,335	-200,000	-0,006	0,164
-669,320	-110,659	0,025	0,004
-668,305	-94,848	-0,065	-0,013
-667,291	-200,000	-0,021	-0,136
-666,276	89,090	-0,123	-0,101
-665,262	-13,359	-0,136	-0,064
-664,247	-16,810	-0,066	-0,031
-663,232	43,688	-0,055	0,037
-662,218	-59,162	0,038	-0,012
-661,203	193,721	-0,053	0,059
-660,189	-200,000	0,007	0,173
-659,174	-200,000	0,005	-0,060
-658,159	-200,000	0,006	0,052
-657,145	-90,013	0,187	0,040
-656,130	-30,910	-0,100	-0,041
-655,116	800,000	-0,009	0,020
-654,101	-5,960	-0,101	-0,051
-653,086	180,323	0,064	-0,069
-652,072	-200,000	-0,004	0,049
-651,057	-113,015	-0,117	0,017
-650,043	123,517	-0,161	0,149
-649,028	220,833	0,069	0,081
-648,014	-60,423	-0,147	0,046
-646,999	-106,474	-0,032	-0,005
-645,984	-156,708	-0,140	0,006
-644,970	153,616	-0,060	-0,060
-643,955	117,930	-0,061	-0,055
-642,941	391,402	0,108	-0,165
-641,926	216,309	0,059	-0,069
-640,911	367,553	0,060	-0,090
-639,897	800,000	0,017	0,043
-638,882	138,493	-0,064	-0,062
-637,868	97,078	0,073	-0,062
-636,853	21,560	-0,113	-0,067
-635,838	40,613	0,071	-0,047
-634,824	252,741	-0,069	-0,086
-633,809	-53,360	-0,089	-0,030
-632,795	772,054	-0,071	0,142
-631,780	-200,000	0,008	0,126
-630,765	-112,955	0,054	0,008
-629,751	-81,134	0,098	0,024
-628,736	-104,575	-0,116	-0,020
-627,722	-200,000	-0,008	-0,094
-626,707	177,933	-0,089	0,095
-625,692	-200,000	-0,020	0,123
-624,678	90,933	0,031	0,025
-623,663	800,000	-0,016	-0,053
-622,649	800,000	-0,050	-0,156
-621,634	527,072	0,052	0,090
-620,619	-200,000	-0,020	-0,141
-619,605	-15,358	-0,022	0,010
-618,590	-7,073	-0,123	-0,061
-617,576	800,000	-0,023	-0,053
-616,561	-104,340	-0,044	-0,007
-615,546	-106,011	-0,064	-0,010
-614,532	332,336	-0,094	0,134
-613,517	288,157	-0,058	0,077
-612,503	-200,000	0,018	0,079
-611,488	-200,000	-0,015	0,066
-610,474	109,365	0,071	0,062
-609,459	800,000	-0,026	-0,055
-608,444	24,942	-0,102	0,062
-607,430	-148,753	-0,214	-0,013
-606,415	-87,822	0,063	-0,014
-605,401	70,293	-0,043	0,032
-604,386	800,000	-0,038	0,087
-603,371	-104,297	0,156	0,026
-602,357	-41,185	-0,030	0,011
-601,342	-200,000	0,016	-0,056
-600,328	452,727	-0,138	-0,224
-599,313	-25,446	-0,081	-0,035
-598,298	800,000	0,062	-0,166
-597,284	-78,159	0,172	0,043
-596,269	-137,674	-0,025	-0,002
-595,255	-200,000	-0,031	0,114
-594,240	-200,000	0,023	0,078
-593,225	-38,417	-0,047	0,018
-592,211	400,351	0,077	-0,118
-591,196	467,624	0,017	-0,029
-590,182	-200,000	0,004	-0,050
-589,167	63,766	-0,052	-0,039
-588,152	75,051	-0,091	-0,070
-587,138	-139,313	-0,082	-0,006
-586,123	800,000	0,020	-0,041
-585,109	-139,135	-0,114	-0,009
-584,094	-200,000	-0,023	-0,083
-583,079	147,539	0,054	-0,053
-582,065	203,698	-0,106	-0,120
-581,050	-5,393	0,113	0,057
-580,036	2,646	0,081	0,043
-579,021	800,000	-0,040	-0,131
-578,006	-200,000	-0,022	0,082
-576,992	-200,000	0,001	-0,091
-575,977	800,000	-0,021	0,062
-574,963	-101,169	0,168	0,030
-573,948	-200,000	0,006	-0,025
-572,934	-115,544	-0,033	-0,004
-571,919	-77,628	-0,099	-0,025
-570,904	-31,239	-0,041	0,017
-569,890	-200,000	-0,004	-0,052
-568,875	-200,000	-0,024	0,137
-567,861	71,215	0,080	-0,061
-566,846	221,367	0,044	0,052
-565,831	17,613	0,026	-0,015
-564,817	304,792	-0,004	0,006
-563,802	-53,374	-0,064	0,021
-562,788	800,000	-0,022	-0,048
-561,773	-200,000	-0,004	-0,121
-560,758	-19,772	-0,052	-0,023
-559,744	112,175	-0,054	0,048
-558,729	800,000	0,042	-0,105
-557,715	262,202	0,055	-0,070
-556,700	-200,000	0,001	0,031
-555,685	69,426	-0,063	-0,047
-554,671	18,504	-0,057	-0,033
-553,656	800,000	-0,027	-0,071
-552,642	124,121	0,080	0,074
-551,627	-151,754	-0,124	-0,007
-550,612	-142,824	0,120	-0,008
-549,598	800,000	0,035	0,100
-548,583	56,588	-0,056	-0,040
-547,569	-200,000	0,008	-0,064
-546,554	-7,798	0,056	0,028
-545,539	722,672	0,073	0,143
-544,525	374,438	-0,056	-0,084
-543,510	11,759	0,084	0,047
-542,496	-52,030	0,049	-0,017
-541,481	210,014	-0,039	-0,045
-540,466	-200,000	0,058	0,000
-539,452	450,092	-0,013	-0,020
-538,437	-200,000	0,026	0,092
-537,423	780,567	0,007	-0,015
-536,408	-200,000	0,005	0,112
-535,393	109,405	0,051	-0,044
-534,379	546,187	-0,098	-0,172
-533,364	-200,000	-0,013	-0,077
-532,350	-68,519	0,092	0,026
-531,335	-125,121	0,067	0,007
-530,321	-58,221	-0,168	0,053
-529,306	37,464	-0,070	-0,045
-528,291	-0,950	-0,101	-0,052
-527,277	-97,547	0,077	0,014
-526,262	-121,065	-0,092	-0,011
-525,248	-78,956	-0,147	-0,036
-524,233	-24,037	0,033	0,014
-523,218	800,000	-0,006	-0,014
-522,204	-200,000	-0,026	0,104
-521,189	-43,252	-0,146	0,054
-520,175	-99,292	-0,204	-0,037
-519,160	-200,000	-0,006	0,075
-518,145	-79,412	0,160	0,039
-517,131	800,000	-0,013	0,034
-516,116	81,250	0,106	-0,083
-515,102	800,000	-0,014	0,038
-514,087	111,167	-0,124	-0,109
-513,072	-200,000	0,011	-0,143
-512,058	800,000	-0,047	-0,145
-511,043	-48,154	-0,013	-0,005
-510,029	-200,000	0,000	-0,042
-509,014	-42,141	0,062	0,023
-507,999	-200,000	-0,007	-0,060
-506,985	-200,000	-0,012	0,073
-505,970	-200,000	-0,012	-0,151
-504,956	57,927	0,078	-0,055
-503,941	800,000	0,007	0,015
-502,926	800,000	0,049	-0,102
-501,912	724,230	0,041	0,080
-500,897	110,297	-0,101	-0,088
-499,883	-200,000	-0,054	-0,191
-498,868	251,770	0,019	-0,024
-497,853	800,000	-0,008	-0,025
-496,839	-200,000	0,003	-0,025
-495,824	351,914	0,053	0,078
-494,810	-35,665	0,131	-0,052
-493,795	-200,000	0,008	0,031
-492,781	-200,000	0,010	0,048
-491,766	29,538	-0,126	0,078
-490,751	161,586	0,066	-0,067
-489,737	32,171	-0,072	0,045
-488,722	-66,085	0,077	0,022
-487,708	-83,074	0,138	-0,032
-486,693	-200,000	0,017	0,081
-485,678	450,888	-0,051	0,082
-484,664	-55,353	0,131	-0,043
-483,649	800,000	0,047	-0,115
-482,635	800,000	-0,051	0,159
-481,620	-22,044	0,095	0,042
-480,605	763,557	-0,034	0,069
-479,591	-177,820	0,077	-0,001
-478,576	-200,000	0,001	0,021
-477,562	800,000	-0,016	-0,038
-476,547	-112,238	0,062	-0,009
-475,532	370,914	-0,095	-0,141
-474,518	-48,164	0,094	-0,033
-473,503	-34,578	0,141	0,056
-472,489	48,230	-0,040	-0,027
-471,474	-70,146	0,068	-0,019
-470,459	-200,000	0,001	-0,050
-469,445	19,185	0,059	0,034
-468,430	38,679	0,114	-0,074
-467,416	-200,000	0,024	0,097
-466,401	-200,000	0,005	0,081
-465,386	-200,000	-0,009	0,106
-464,372	43,069	-0,114	-0,076
-463,357	237,327	-0,027	0,032
-462,343	-200,000	-0,008	-0,035
-461,328	62,676	-0,178	0,130
-460,313	237,678	0,040	-0,048
-459,299	631,846	0,094	0,174
-458,284	-200,000	0,006	-0,136
-457,270	800,000	0,056	-0,139
-456,255	84,895	-0,127	0,101
-455,241	-200,000	0,009	-0,043
-454,226	-28,883	-0,164	-0,069
-453,211	661,815	-0,037	-0,069
-452,197	-200,000	-0,043	0,221
-451,182	156,306	0,102	0,103
-450,168	-47,273	0,043	0,015
-449,153	66,016	-0,104	-0,076
-448,138	800,000	0,009	0,020
-447,124	-200,000	-0,026	-0,106
-446,109	180,989	-0,035	0,037
-445,095	103,726	0,093	0,080
-444,080	-161,318	0,227	-0,008
-443,065	739,400	0,060	0,117
-442,051	585,212	-0,063	0,113
-441,036	800,000	0,041	-0,114
-440,022	-49,751	-0,232	-0,080
-439,007	427,947	-0,024	0,037
-437,992	17,411	-0,037	0,022
-436,978	800,000	0,012	-0,034
-435,963	-66,536	-0,062	-0,018
-434,949	-200,000	-0,002	0,062
-433,934	55,878	0,022	0,015
-432,919	231,061	-0,045	-0,053
-431,905	438,033	-0,029	-0,045
-430,890	-200,000	-0,006	0,035
-429,876	-200,000	0,004	-0,032
-428,861	343,126	-0,054	0,078
-427,846	104,921	-0,029	0,025
-426,832	800,000	-0,028	0,079
-425,817	-200,000	0,021	0,099
-424,803	-200,000	-0,000	-0,016
-423,788	-200,000	0,043	0,160
-422,773	-79,315	0,079	0,019
-421,759	397,940	-0,020	0,030
-420,744	365,785	0,107	-0,158
-419,730	-88,350	-0,198	0,043
-418,715	140,883	-0,061	0,058
-417,701	60,178	0,038	0,027
-416,686	59,853	0,048	0,035
-415,671	-200,000	0,008	-0,117
-414,657	800,000	-0,104	0,212
-413,642	-142,733	-0,162	-0,011
-412,628	99,158	-0,061	-0,052
-411,613	-69,296	0,048	0,013
-410,598	-41,312	-0,098	-0,037
-409,584	-200,000	0,005	0,140
-408,569	-153,179	0,099	0,005
-407,555	-30,687	0,029	0,012
-406,540	-70,138	-0,058	0,016
-405,525	-62,406	0,155	0,047
-404,511	44,738	-0,097	-0,065
-403,496	2,977	-0,079	-0,042
-402,482	800,000	-0,051	0,147
-401,467	-136,933	0,119	-0,010
-400,452	-63,040	0,105	-0,031
-399,438	-200,000	0,014	0,190
-398,423	-200,000	0,012	0,058
-397,409	249,077	0,041	-0,051
-396,394	7,784	0,108	-0,059
-395,379	-4,098	0,097	0,049
-394,365	-94,854	-0,134	0,026
-393,350	29,617	0,091	0,056
-392,336	-154,218	-0,134	0,006
-391,321	722,041	-0,041	0,079
-390,306	-200,000	0,018	-0,074
-389,292	-107,064	0,045	0,007
-388,277	-5,702	0,078	0,039
-387,263	-91,417	0,166	0,034
-386,248	494,757	0,025	0,041
-385,233	111,462	0,105	0,092
-384,219	800,000	-0,055	0,169
-383,204	48,119	-0,073	-0,049
-382,190	-36,110	-0,069	0,027
-381,175	654,818	0,086	-0,162
-380,160	800,000	-0,039	0,123
-379,146	-200,000	0,010	0,097
-378,131	694,952	0,046	-0,088
-377,117	171,083	-0,077	-0,080
-376,102	-66,112	0,006	-0,002
-375,088	69,224	0,084	-0,063
-374,073	560,764	-0,057	-0,101
-373,058	800,000	0,040	-0,085
-372,044	-30,419	-0,040	0,017
-371,029	474,848	0,049	0,081
-370,015	-92,647	0,096	-0,019
-369,000	-200,000	-0,015	0,050
-367,985	292,528	-0,037	-0,050
-366,971	183,249	0,029	0,031
-365,956	800,000	0,044	0,099
-364,942	58,634	0,039	0,028
-363,927	15,648	-0,104	0,059
-362,912	-165,146	0,037	-0,001
-361,898	-54,291	0,129	-0,042
-360,883	-200,000	0,020	-0,118
-359,869	-200,000	-0,010	-0,116
-358,854	-200,000	-0,003	0,023
-357,839	800,000	-0,062	0,167
-356,825	800,000	-0,032	0,087
-355,810	677,176	-0,041	0,078
-354,796	106,949	0,072	-0,062
-353,781	-200,000	-0,005	-0,052
-352,766	415,659	0,036	-0,056
-351,752	-200,000	-0,028	0,222
-350,737	703,197	-0,018	-0,035
-349,723	602,357	-0,012	-0,022
-348,708	212,487	-0,052	0,060
-347,693	5,084	0,136	-0,072
-346,679	128,950	0,070	0,065
-345,664	46,953	0,044	-0,030
-344,650	80,813	0,063	-0,049
-343,635	800,000	0,019	0,041
-342,620	558,197	-0,031	-0,054
-341,606	800,000	-0,038	0,092
-340,591	-70,578	-0,111	-0,030
-339,577	135,328	0,041	-0,039
-338,562	-160,953	-0,104	0,004
-337,548	800,000	-0,073	-0,150
-336,533	40,889	0,119	0,078
-335,518	195,753	0,068	0,075
-334,504	323,281	0,050	0,069
-333,489	800,000	0,026	-0,057
-332,475	-200,000	0,004	-0,055
-331,460	-95,633	0,003	-0,001
-330,445	107,740	0,047	0,040
-329,431	-200,000	0,009	-0,062
-328,416	14,817	0,071	0,040
-327,402	223,011	0,046	0,054
-326,387	169,060	0,060	0,062
-325,372	-157,575	0,015	0,001
-324,358	-200,000	-0,016	-0,153
-323,343	435,108	0,028	-0,044
-322,329	-34,779	0,189	-0,074
-321,314	-200,000	0,027	-0,093
-320,299	-72,259	-0,041	0,011
-319,285	-200,000	-0,023	0,112
-318,270	800,000	-0,053	-0,108
-317,256	800,000	0,026	-0,066
-316,241	585,363	-0,027	0,048
-315,226	-55,019	0,042	0,014
-314,212	-200,000	0,018	0,189
-313,197	-124,495	0,059	0,007
-312,183	-200,000	-0,030	0,208
-311,168	-200,000	-0,006	-0,116
-310,153	-200,000	-0,002	-0,075
-309,139	-73,915	0,082	-0,022
-308,124	-121,857	-0,034	-0,004
-307,110	127,294	0,146	0,134
-306,095	-200,000	0,029	0,129
-305,080	800,000	0,050	0,100
-304,066	194,921	-0,024	-0,027
-303,051	-200,000	-0,014	-0,128
-302,037	-70,786	0,101	-0,027
-301,022	441,249	-0,037	-0,059
-300,008	401,666	0,111	0,170
-298,993	79,870	0,051	0,040
-297,978	-200,000	0,014	0,067
-296,964	208,937	0,060	-0,068
-295,949	-149,692	-0,036	-0,002
-294,935	7,133	-0,037	0,020
-293,920	-46,542	0,096	-0,034
-292,905	-200,000	-0,003	-0,073
-291,891	-106,943	0,136	-0,022
-290,876	-200,000	-0,022	0,073
-289,862	9,594	0,033	0,018
-288,847	1,089	0,045	0,023
-287,832	-77,742	-0,143	0,036
-286,818	-111,519	0,017	-0,003
-285,803	208,065	0,007	-0,008
-284,789	-200,000	0,027	0,097
-283,774	368,394	-0,079	0,116
-282,759	-18,691	0,063	0,028
-281,745	729,649	0,058	-0,113
-280,730	-200,000	-0,003	-0,152
-279,716	36,586	-0,099	-0,063
-278,701	-200,000	-0,002	-0,016
-277,686	39,994	-0,038	0,025
-276,672	-125,159	0,155	0,017
-275,657	-200,000	0,019	0,071
-274,643	84,831	-0,038	0,030
-273,628	-200,000	-0,002	-0,008
-272,613	219,619	-0,074	-0,086
-271,599	46,606	0,146	0,098
-270,584	706,059	-0,014	-0,026
-269,570	-62,344	0,101	0,030
-268,555	-200,000	0,007	-0,086
-267,540	12,288	-0,037	0,021
-266,526	-25,189	-0,067	-0,028
-265,511	-27,147	0,116	-0,049
-264,497	-62,387	0,078	-0,023
-263,482	66,351	-0,072	0,053
-262,467	-132,374	0,134	0,012
-261,453	-200,000	0,008	-0,074
-260,438	742,119	-0,027	0,053
-259,424	85,774	0,085	-0,068
-258,409	-170,714	0,070	0,002
-257,395	-3,100	0,126	0,064
-256,380	54,044	-0,041	0,028
-255,365	194,220	0,066	0,073
-254,351	-200,000	0,021	0,099
-253,336	800,000	0,034	0,077
-252,322	281,727	0,120	-0,156
-251,307	201,694	-0,071	-0,080
-250,292	-200,000	0,006	0,079
-249,278	486,673	0,118	0,195
-248,263	-200,000	0,004	0,152
-247,249	156,433	-0,101	0,101
-246,234	-200,000	0,013	0,043
-245,219	122,404	-0,124	0,112
-244,205	-28,647	-0,059	0,024
-243,190	800,000	0,015	0,035
-242,176	-120,653	0,058	-0,007
-241,161	-200,000	0,023	0,101
-240,146	-93,916	-0,028	0,005
-239,132	88,087	-0,050	0,040
-238,117	52,610	-0,074	-0,051
-237,103	-15,881	-0,101	0,046
-236,088	-200,000	0,018	-0,093
-235,073	82,665	0,048	0,037
-234,059	-200,000	0,021	0,079
-233,044	-200,000	-0,035	-0,123
-232,030	-85,144	0,087	0,019
-231,015	-19,186	-0,053	0,024
-230,000	800,000	0,020	-0,043
-228,986	23,626	0,026	-0,016
-227,971	168,887	0,029	0,030
-226,957	-79,403	-0,094	-0,023
-225,942	-143,861	-0,043	0,003
-224,927	73,335	0,155	-0,117
-223,913	205,448	-0,042	-0,047
-222,898	80,293	-0,111	-0,086
-221,884	0,344	0,091	-0,047
-220,869	800,000	0,048	-0,149
-219,855	-77,830	-0,089	-0,022
-218,840	433,831	0,073	0,114
-217,825	-132,706	-0,026	0,002
-216,811	96,829	-0,061	-0,051
-215,796	-189,418	-0,023	0,000
-214,782	-69,146	0,069	0,019
-213,767	245,092	-0,032	-0,038
-212,752	-81,552	-0,115	0,027
-211,738	800,000	-0,029	-0,066
-210,723	74,031	0,073	0,055
-209,709	367,381	0,021	-0,031
-208,694	-200,000	0,032	-0,108
-207,679	-4,824	-0,159	-0,079
-206,665	332,166	-0,103	-0,143
-205,650	-20,149	0,098	0,043
-204,636	2,852	-0,068	0,036
-203,621	-200,000	-0,036	-0,156
-202,606	64,928	-0,069	-0,050
-201,592	395,523	-0,022	0,034
-200,577	199,553	-0,057	-0,064
-199,563	-52,272	-0,118	0,039
-198,548	-85,873	0,117	0,026
-197,533	-38,656	0,131	0,050
-196,519	-170,639	-0,070	-0,002
-195,504	138,725	-0,105	0,099
-194,490	800,000	0,059	-0,163
-193,475	-200,000	-0,025	-0,130
-192,460	-39,443	0,053	-0,020
-191,446	63,087	-0,052	0,038
-190,431	800,000	-0,010	0,026
-189,417	323,776	-0,049	-0,067
-188,402	-198,728	-0,079	-0,000
-187,387	-136,878	0,079	0,006
-186,373	-50,381	0,022	0,007
-185,358	258,875	0,022	0,027
-184,344	800,000	0,008	0,024
-183,329	764,655	0,056	0,110
-182,315	54,840	-0,061	0,042
-181,300	-15,593	-0,095	0,044
-180,285	-200,000	-0,013	-0,049
-179,271	-116,676	0,075	0,010
-178,256	78,499	0,058	-0,045
-177,242	800,000	-0,051	-0,127
-176,227	313,166	-0,038	0,052
-175,212	-144,799	0,186	-0,012
-174,198	-1,768	-0,066	0,033
-173,183	191,088	-0,041	-0,044
-172,169	-16,447	-0,122	-0,055
-171,154	-200,000	0,003	0,069
-170,139	-200,000	-0,013	0,095
-169,125	-41,715	0,107	-0,040
-168,110	-26,123	-0,122	-0,051
-167,096	144,953	-0,064	0,062
-166,081	53,926	-0,130	-0,090
-165,066	-111,330	-0,101	-0,015
-164,052	-200,000	-0,008	-0,050
-163,037	-14,365	-0,071	0,033
-162,023	64,416	0,041	0,030
-161,008	13,245	0,129	-0,072
-159,993	-200,000	0,035	0,144
-158,979	44,156	-0,111	-0,073
-157,964	553,351	0,028	-0,049
-156,950	232,809	-0,078	-0,092
-155,935	381,635	0,125	-0,185
-154,920	-140,238	-0,108	-0,008
-153,906	-200,000	0,009	0,216
-152,891	-200,000	0,039	0,151
-151,877	-69,342	-0,062	0,017
-150,862	58,570	-0,098	-0,069
-149,847	800,000	-0,055	-0,119
-148,833	-200,000	-0,055	0,226
-147,818	75,177	0,077	0,058
-146,804	522,260	-0,030	-0,051
-145,789	-16,479	-0,043	-0,020
-144,775	670,507	-0,061	-0,114
-143,760	800,000	-0,008	-0,016
-142,745	-200,000	-0,021	-0,171
-141,731	345,175	0,064	0,091
-140,716	-176,602	0,070	0,001
-139,702	800,000	0,030	0,068
-138,687	122,901	-0,029	-0,026
-137,672	-126,770	-0,108	0,011
-136,658	61,155	-0,094	-0,067
-135,643	-78,697	0,062	-0,015
-134,629	153,112	-0,045	0,044
-133,614	258,605	-0,022	0,027
-132,599	-200,000	-0,004	0,016
-131,585	-200,000	0,007	0,040
-130,570	72,656	-0,049	-0,037
-129,556	800,000	0,013	-0,026
-128,541	-92,284	-0,149	0,030
-127,526	131,649	0,069	0,064
-126,512	-123,410	0,057	-0,007
-125,497	654,458	0,058	-0,107
-124,483	314,900	0,056	-0,076
-123,468	-200,000	-0,011	0,076
-122,453	-37,068	-0,106	0,041
-121,439	173,028	-0,048	-0,050
-120,424	800,000	-0,045	-0,127
-119,410	623,668	0,072	-0,131
-118,395	31,273	-0,072	-0,045
-117,380	-114,848	-0,034	0,005
-116,366	28,262	-0,013	0,008
-115,351	-107,487	0,010	0,002
-114,337	64,813	0,058	0,042
-113,322	-28,933	-0,079	0,033
-112,307	62,047	-0,050	0,036
-111,293	175,159	0,047	-0,049
-110,278	-39,247	0,163	0,061
-109,264	159,777	-0,087	0,087
-108,249	-200,000	-0,011	-0,082
-107,234	-127,709	-0,056	-0,006
-106,220	-160,548	-0,048	0,002
-105,205	-50,742	0,137	0,046
-104,191	-25,919	-0,061	0,026
-103,176	-200,000	0,024	0,080
-102,162	115,245	-0,105	0,093
-101,147	-200,000	-0,012	0,056
-100,132	71,426	-0,135	-0,101
-99,118	16,195	-0,074	0,042
-98,103	518,211	0,046	0,078
-97,089	-29,572	0,043	0,017
-96,074	-200,000	-0,010	0,052
-95,059	-20,525	0,074	0,032
-94,045	377,284	-0,072	0,107
-93,030	800,000	0,016	0,045
-92,016	34,802	0,118	0,074
-91,001	-42,588	-0,031	0,011
-89,986	539,116	0,051	0,087
-88,972	138,318	0,053	0,050
-87,957	-105,524	-0,159	-0,026
-86,943	800,000	0,018	0,043
-85,928	-200,000	0,001	0,021
-84,913	800,000	-0,047	-0,108
-83,899	-200,000	-0,016	0,055
-82,884	-200,000	-0,009	0,064
-81,870	-63,723	0,067	-0,020
-80,855	212,979	-0,025	-0,029
-79,840	179,087	-0,098	0,103
-78,826	-44,304	-0,009	0,003
-77,811	-91,914	-0,159	0,032
-76,797	427,407	0,066	0,103
-75,782	-35,083	0,035	-0,014
-74,767	800,000	-0,075	-0,150
-73,753	18,353	-0,086	0,049
-72,738	-200,000	0,009	0,232
-71,724	245,673	-0,082	0,100
-70,709	-19,391	-0,110	-0,049
-69,694	37,914	0,033	-0,021
-68,680	800,000	-0,010	-0,028
-67,665	-200,000	-0,014	-0,157
-66,651	-200,000	-0,014	0,078
-65,636	659,899	-0,043	0,079
-64,622	353,231	-0,064	-0,092
-63,607	3,707	-0,009	-0,005
-62,592	-84,999	0,047	0,010
-61,578	620,155	-0,026	0,048
-60,563	-200,000	-0,020	0,092
-59,549	800,000	-0,081	0,178
-58,534	71,256	-2,677	-1,992
-57,519	102,092	0,374	-0,313
-56,505	-200,000	-1,629	-5,496
-55,490	524,660	1,149	1,949
-54,476	800,000	5,150	11,204
-53,461	-200,000	22,113	347,647
-52,446	800,000	760,385	2300,247
-51,432	515,440	1646,591	2770,941
-50,417	98,530	1610,691	1332,493
-49,403	66,610	1267,288	924,088
-48,388	23,395	1018,253	599,361
-47,373	19,299	985,338	566,451
-46,359	12,920	972,229	538,017
-45,344	8,748	969,088	522,587
-44,330	9,156	967,046	522,803
-43,315	8,190	965,250	518,651
-42,300	8,145	964,170	517,903
-41,286	8,076	963,166	517,120
-40,271	8,139	962,070	516,714
-39,257	8,044	961,473	516,064
-38,242	8,121	960,261	515,644
-37,227	8,068	959,654	515,126
-36,213	8,069	958,640	514,564
-35,198	8,088	957,812	514,160
-34,184	8,178	957,036	514,014
-33,169	8,078	956,370	513,313
-32,154	8,119	955,373	512,891
-31,140	8,099	954,636	512,410
-30,125	8,129	953,777	512,026
-29,111	8,094	952,787	511,360
-28,096	8,119	952,132	511,069
-27,082	8,141	951,591	510,830
-26,067	8,062	950,791	510,124
-25,052	8,080	949,868	509,666
-24,038	8,121	949,224	509,434
-23,023	8,017	948,832	508,868
-22,009	8,165	948,006	508,881
-20,994	8,131	947,510	508,484
-19,979	8,096	946,850	507,998
-18,965	8,078	946,124	507,531
-17,950	8,143	945,494	507,380
-16,936	8,056	944,875	506,750
-15,921	7,978	944,285	506,164
-14,906	7,965	943,437	505,649
-13,892	7,968	942,747	505,269
-12,877	7,940	942,415	504,979
-11,863	7,953	941,686	504,613
-10,848	7,949	941,109	504,270
-9,833	8,045	940,682	504,326
-8,819	8,066	939,944	503,977
-7,804	8,008	939,016	503,275
-6,790	8,002	938,710	503,071
-5,775	8,092	938,040	502,980
-4,760	8,044	937,498	502,517
-3,746	7,955	937,103	502,004
-2,731	7,859	936,290	501,244
-1,717	7,800	935,573	500,651
-0,702	7,850	934,971	500,468
0,313	7,703	934,255	500,375
1,327	11,109	932,001	509,870
2,342	19,813	780,044	449,554
3,356	14,795	448,486	250,886
4,371	-11,688	313,129	146,943
5,386	-15,184	295,551	135,139
6,400	-17,246	289,477	130,303
7,415	-17,448	286,961	128,960
8,429	-18,078	284,921	127,416
9,444	-18,209	284,081	126,902
10,459	-18,129	283,582	126,745
11,473	-18,185	282,874	126,363
12,488	-18,181	282,317	126,107
13,502	-18,021	281,982	126,101
14,517	-18,127	281,458	125,753
15,531	-18,340	281,065	125,361
16,546	-18,230	280,676	125,282
17,561	-18,161	280,372	125,201
18,575	-18,040	280,077	125,175
19,590	-18,033	279,601	124,958
20,604	-18,056	279,308	124,794
21,619	-18,049	278,885	124,600
22,634	-18,158	278,567	124,343
23,648	-18,164	278,182	124,154
24,663	-18,040	277,839	124,108
25,677	-18,111	277,678	123,958
26,692	-18,039	277,257	123,827
27,707	-18,056	277,170	123,761
28,721	-18,032	276,899	123,652
29,736	-18,198	276,626	123,362
30,750	-18,172	276,301	123,230
31,765	-18,244	276,201	123,106
32,780	-18,044	275,667	123,047
33,794	-18,050	275,593	122,996
34,809	-18,164	275,341	122,765
35,823	-18,139	275,005	122,628
36,838	-18,058	274,735	122,574
37,853	-18,135	274,392	122,337
38,867	-18,031	274,268	122,368
39,882	-18,070	273,992	122,198
40,896	-17,993	273,833	122,189
41,911	-17,898	273,493	122,115
42,926	-17,848	273,264	122,048
43,940	-18,008	273,199	121,859
44,955	-17,935	272,701	121,694
45,969	-18,028	272,636	121,567
46,984	-18,100	272,539	121,446
47,999	-17,998	272,362	121,451
49,013	-18,109	272,036	121,191
50,028	-17,943	271,789	121,225
51,042	-17,874	271,441	121,123
52,057	-17,932	271,364	121,024
53,071	-17,966	271,135	120,880
54,086	-18,026	270,890	120,704
55,101	-18,033	270,627	120,570
56,115	-18,049	270,470	120,474
57,130	-18,019	270,129	120,339
58,144	-17,849	269,886	120,377
59,159	-18,020	269,461	120,019
60,174	-17,996	269,346	119,979
61,188	-18,161	269,174	119,741
62,203	-17,996	268,900	119,760
63,217	-18,025	268,769	119,664
64,232	-18,118	268,552	119,471
65,247	-17,986	268,190	119,420
66,261	-18,015	268,123	119,353
67,276	-17,833	267,751	119,344
68,290	-17,935	267,677	119,207
69,305	-18,072	267,425	118,959
70,320	-17,900	267,169	118,991
71,334	-18,026	266,959	118,773
72,349	-18,018	266,610	118,613
73,363	-17,922	266,418	118,605
74,378	-18,121	266,192	118,313
75,393	-17,974	266,062	118,378
76,407	-17,814	265,712	118,357
77,422	-17,851	265,337	118,146
78,436	-17,897	265,228	118,045
79,451	-18,021	265,119	117,875
80,466	-17,929	264,819	117,814
81,480	-18,009	264,597	117,632
82,495	-18,075	264,426	117,486
83,509	-17,902	264,221	117,540
84,524	-17,896	263,986	117,431
85,539	-17,972	263,774	117,257
86,553	-17,921	263,522	117,181
87,568	-18,037	263,469	117,043
88,582	-17,845	262,981	116,987
89,597	-17,867	263,026	116,977
90,611	-17,967	262,768	116,762
91,626	-17,987	262,634	116,674
92,641	-17,969	262,343	116,550
93,655	-17,842	262,123	116,556
94,670	-18,089	262,015	116,277
95,684	-17,898	261,617	116,261
96,699	-17,982	261,439	116,096
97,714	-18,009	261,338	116,017
98,728	-17,772	261,079	116,102
99,743	-17,910	261,007	115,937
100,757	-17,979	260,749	115,751
101,772	-18,008	260,475	115,593
102,787	-17,842	260,189	115,603
103,801	-18,107	260,135	115,335
104,816	-17,943	259,833	115,335
105,830	-18,067	259,716	115,163
106,845	-17,883	259,456	115,200
107,860	-17,784	259,186	115,158
108,874	-18,080	258,973	114,792
109,889	-17,967	258,849	114,826
110,903	-17,771	258,533	114,848
111,918	-17,962	258,507	114,658
112,933	-18,007	258,214	114,479
113,947	-17,910	258,069	114,490
114,962	-17,793	257,824	114,473
115,976	-18,076	257,841	114,223
116,991	-17,972	257,300	114,064
118,006	-17,945	257,160	114,015
119,020	-17,955	257,044	113,945
120,035	-17,841	256,840	113,944
121,049	-18,025	256,817	113,762
122,064	-17,810	256,590	113,839
123,079	-17,900	256,223	113,587
124,093	-17,782	256,018	113,589
125,108	-17,763	255,950	113,565
126,122	-17,934	255,843	113,360
127,137	-17,812	255,516	113,310
128,151	-17,779	255,308	113,237
129,166	-17,997	255,031	112,915
130,181	-17,782	254,841	113,007
131,195	-17,882	254,701	112,848
132,210	-18,019	254,634	112,690
133,224	-17,869	254,242	112,636
134,239	-17,743	254,009	112,631
135,254	-17,714	253,814	112,559
136,268	-17,731	253,704	112,486
137,283	-17,846	253,558	112,313
138,297	-17,767	253,255	112,236
139,312	-18,003	253,183	111,991
140,327	-17,692	252,778	112,069
141,341	-17,731	252,571	111,933
142,356	-17,839	252,572	111,831
143,370	-17,787	252,307	111,749
144,385	-17,923	252,268	111,605
145,400	-17,876	252,002	111,518
146,414	-17,933	251,794	111,368
147,429	-17,961	251,584	111,240
148,443	-17,858	251,393	111,234
149,458	-17,838	251,120	111,121
150,473	-17,964	250,970	110,937
151,487	-17,764	250,735	110,993
152,502	-17,856	250,717	110,897
153,516	-17,983	250,395	110,637
154,531	-17,680	250,118	110,762
155,546	-17,847	249,955	110,538
156,560	-17,955	250,004	110,459
157,575	-17,892	249,725	110,379
158,589	-17,911	249,465	110,238
159,604	-17,853	249,317	110,211
160,619	-17,733	249,094	110,204
161,633	-17,915	248,959	109,981
162,648	-17,986	248,890	109,881
163,662	-17,804	248,697	109,939
164,677	-17,657	248,437	109,938
165,692	-17,655	248,325	109,880
166,706	-17,768	248,155	109,701
167,721	-17,785	247,957	109,589
168,735	-18,021	247,800	109,312
169,750	-17,980	247,632	109,263
170,764	-17,840	247,509	109,316
171,779	-17,699	247,265	109,316
172,794	-17,909	247,115	109,065
173,808	-17,773	247,013	109,123
174,823	-17,770	246,846	109,042
175,837	-17,883	246,751	108,896
176,852	-17,958	246,526	108,725
177,867	-17,847	246,378	108,742
178,881	-17,667	246,173	108,792
179,896	-17,791	246,070	108,634
180,910	-17,734	245,874	108,585
181,925	-17,777	245,469	108,361
182,940	-17,875	245,458	108,264
183,954	-17,866	245,358	108,219
184,969	-17,791	245,005	108,116
185,983	-17,743	244,914	108,105
186,998	-17,543	244,780	108,202
188,013	-17,694	244,652	108,011
189,027	-17,649	244,484	107,964
190,042	-17,851	244,138	107,636
191,056	-17,884	244,100	107,582
192,071	-17,700	243,783	107,584
193,086	-17,976	243,739	107,328
194,100	-17,730	243,580	107,450
195,115	-17,778	243,232	107,248
196,129	-17,834	243,078	107,124
197,144	-17,814	242,854	107,032
198,159	-17,731	242,605	106,981
199,173	-17,681	242,536	106,982
200,188	-17,661	242,228	106,853
201,202	-17,698	242,028	106,725
202,217	-17,607	242,004	106,779
203,232	-17,568	241,914	106,761
204,246	-17,835	241,628	106,408
205,261	-17,609	241,343	106,457
206,275	-16,111	241,894	107,912
207,290	-11,537	243,852	112,534
208,304	-5,447	245,535	118,327
209,319	-3,125	246,107	120,509
210,334	-2,579	246,132	120,960
211,348	-1,756	246,251	121,687
212,363	-0,760	246,343	122,543
213,377	-0,355	246,372	122,881
214,392	0,079	246,456	123,269
215,407	0,500	246,243	123,498
216,421	0,437	246,391	123,510
217,436	0,522	246,164	123,454
218,450	0,593	245,981	123,410
219,465	0,697	245,845	123,416
220,480	0,912	245,560	123,438
221,494	0,610	245,501	123,150
222,509	0,352	245,255	122,805
223,523	0,273	244,924	122,563
224,538	0,266	244,727	122,448
225,553	-0,131	244,615	122,056
226,567	0,227	244,432	122,246
227,582	0,223	244,365	122,199
228,596	0,134	244,204	122,035
229,611	0,211	244,106	122,038
230,626	0,034	243,837	121,749
231,640	-0,045	243,717	121,613
232,655	0,080	243,575	121,633
233,669	0,127	243,316	121,531
234,684	0,076	243,272	121,457
235,699	0,075	243,081	121,350
236,713	0,157	242,902	121,317
237,728	0,097	242,803	121,207
238,742	0,186	242,470	121,102
239,757	0,225	242,243	121,010
240,772	0,131	242,209	120,906
241,786	0,216	242,050	120,884
242,801	-0,011	242,053	120,692
243,815	-0,021	241,771	120,533
244,830	0,155	241,480	120,518
245,844	0,139	241,567	120,538
246,859	0,113	241,174	120,310
247,874	-0,022	241,114	120,161
248,888	-0,003	241,005	120,111
249,903	0,037	240,851	120,056
250,917	0,165	240,679	120,063
251,932	0,136	240,751	120,064
252,947	0,264	240,422	119,992
253,961	0,289	240,138	119,859
254,976	0,267	239,895	119,710
255,990	-0,009	239,806	119,434
257,005	0,224	239,632	119,523
258,020	0,022	239,651	119,361
259,034	0,015	239,480	119,259
260,049	0,136	239,256	119,234
261,063	0,171	238,977	119,112
262,078	0,018	238,946	118,964
263,093	0,028	238,772	118,874
264,107	0,162	238,583	118,877
265,122	0,230	238,550	118,903
266,136	0,275	238,319	118,813
267,151	0,116	238,217	118,625
268,166	-0,113	237,933	118,292
269,180	-0,130	237,912	118,258
270,195	0,044	237,665	118,263
271,209	-0,064	237,580	118,124
272,224	0,034	237,385	118,094
273,239	0,071	237,294	118,067
274,253	0,347	237,148	118,202
275,268	0,283	236,940	118,037
276,282	0,255	236,663	117,867
277,297	0,012	236,736	117,701
278,312	-0,194	236,555	117,438
279,326	0,103	236,459	117,614
280,341	0,141	236,277	117,543
281,355	0,261	236,057	117,517
282,370	0,249	235,921	117,429
283,384	0,027	235,800	117,185
284,399	-0,022	235,671	117,072
285,414	0,118	235,587	117,129
286,428	0,221	235,326	117,070
287,443	0,084	235,285	116,932
288,457	0,158	235,033	116,854
289,472	0,045	234,718	116,598
290,487	0,178	234,702	116,684
291,501	-0,039	234,571	116,440
292,516	0,271	234,396	116,584
293,530	0,312	234,139	116,478
294,545	0,178	234,179	116,383
295,560	0,231	234,056	116,352
296,574	0,157	233,826	116,170
297,589	0,382	233,620	116,232
298,603	0,205	233,553	116,051
299,618	0,368	233,392	116,087
300,633	0,293	233,137	115,891
301,647	0,410	233,061	115,934
302,662	0,505	232,820	115,877
303,676	0,320	232,786	115,707
304,691	0,218	232,661	115,556
305,706	0,452	232,457	115,625
306,720	0,590	232,306	115,646
307,735	0,307	232,297	115,413
308,749	0,596	232,175	115,564
309,764	0,388	231,866	115,240
310,779	0,519	231,765	115,281
311,793	0,375	231,670	115,112
312,808	0,357	231,452	114,980
313,822	0,258	231,235	114,786
314,837	0,343	231,178	114,813
315,852	0,421	231,095	114,821
316,866	0,605	230,919	114,864
317,881	0,462	230,782	114,676
318,895	0,565	230,491	114,600
319,910	0,500	230,455	114,522
320,925	0,165	230,320	114,189
321,939	0,323	230,211	114,246
322,954	0,565	230,071	114,351
323,968	0,504	229,836	114,177
324,983	0,651	229,616	114,170
325,997	0,426	229,576	113,968
327,012	0,400	229,420	113,861
328,027	0,558	229,209	113,866
329,041	0,446	229,080	113,707
330,056	0,490	229,023	113,702
331,070	0,469	228,924	113,627
332,085	0,472	228,684	113,499
333,100	0,334	228,593	113,340
334,114	0,654	228,234	113,393
335,129	0,470	228,310	113,282
336,143	0,331	228,052	113,039
337,158	0,542	228,023	113,174
338,173	0,731	227,837	113,214
339,187	0,447	227,719	112,932
340,202	0,508	227,511	112,864
341,216	0,609	227,328	112,839
342,231	0,469	227,332	112,725
343,246	0,648	227,179	112,774
344,260	0,564	226,944	112,584
345,275	0,600	226,933	112,596
346,289	0,483	226,829	112,446
347,304	0,671	226,660	112,494
348,319	0,436	226,504	112,230
349,333	0,630	226,222	112,225
350,348	0,804	226,041	112,255
351,362	0,666	226,018	112,131
352,377	0,400	225,862	111,845
353,392	0,629	225,683	111,917
354,406	0,632	225,629	111,883
355,421	193,226	1311,689	1380,906
356,435	154,830	1443,860	1380,754
