DTS Sentinel unit serial number:	SN410029Multiplexer serial number:	ORYXHardware model number:	OX2-SRSoftware version number:	ORYX F/W v4,00 Oryx Data Collector v3.7.2.0data status	okinstallation	B5 Nyhavnadifferential loss correction	single-endedforward channel	channel 2reverse channel	N/Adate	2023/12/12time	03:52:13forward acquisition time	300,00reverse acquisition time	0,00gamma	499,1914k internal	0,3156k external	0,3156temperature offset calibration	1,0000default loss term (dB/km)	0,3820temperature slope calibration	1,0000multiplexer offset coefficient	1,0000multiplexer slope coefficient	1,0000fibre end	0,00T internal ref (°C)	15,62T ext. ref 1 (°C)	-0,83T ext. ref 2 (°C)	-1,14length (m)	temperature (°C)	Stokes	anti-Stokes-744,400	-111,499	0,152	-0,023
-743,385	-31,250	-0,224	0,093
-742,371	-81,593	0,149	0,036
-741,356	-88,078	-0,324	-0,071
-740,342	-26,699	0,130	0,056
-739,327	-71,938	-0,366	-0,100
-738,312	142,682	-0,015	0,015
-737,298	-174,944	-0,422	0,009
-736,283	-195,267	0,126	-0,001
-735,269	-25,531	-0,258	0,112
-734,254	65,058	0,071	0,053
-733,239	-9,904	-0,431	-0,210
-732,225	-58,884	0,168	0,053
-731,210	800,000	-0,079	0,161
-730,196	800,000	0,026	0,076
-729,181	-200,000	-0,007	0,042
-728,167	-20,933	-0,108	-0,049
-727,152	800,000	0,004	0,008
-726,137	-200,000	0,007	0,044
-725,123	33,652	0,054	0,034
-724,108	-8,617	0,102	0,050
-723,094	-132,455	-0,136	-0,013
-722,079	115,834	0,095	-0,085
-721,064	-19,048	-0,025	-0,011
-720,050	7,611	0,086	-0,047
-719,035	-200,000	0,020	-0,178
-718,021	138,137	-0,055	-0,054
-717,006	393,253	-0,060	-0,093
-715,991	-52,953	-0,253	-0,085
-714,977	800,000	-0,043	-0,107
-713,962	-64,700	0,131	-0,039
-712,948	-200,000	-0,057	0,246
-711,933	45,604	-0,131	0,089
-710,918	106,690	-0,127	0,111
-709,904	-60,054	0,068	0,021
-708,889	800,000	-0,061	-0,149
-707,875	-200,000	-0,033	0,264
-706,860	302,835	0,015	-0,020
-705,845	-75,922	-0,104	-0,027
-704,831	-98,410	-0,082	-0,015
-703,816	253,564	0,074	-0,093
-702,802	118,060	-0,038	-0,034
-701,787	-200,000	0,005	0,058
-700,772	-23,146	0,062	0,027
-699,758	54,586	0,081	-0,057
-698,743	-86,139	-0,033	0,007
-697,729	-200,000	-0,015	0,098
-696,714	67,061	-0,077	0,058
-695,699	115,141	-0,162	-0,146
-694,685	183,016	-0,148	-0,161
-693,670	-200,000	-0,029	0,119
-692,656	3,123	0,087	-0,047
-691,641	-38,289	-0,067	0,026
-690,627	-200,000	-0,020	-0,068
-689,612	39,220	-0,055	-0,036
-688,597	23,983	-0,109	0,066
-687,583	199,595	0,035	0,039
-686,568	-172,934	-0,155	-0,003
-685,554	15,458	-0,122	0,071
-684,539	64,504	0,242	-0,179
-683,524	354,068	0,052	-0,077
-682,510	-200,000	-0,021	-0,147
-681,495	800,000	-0,068	-0,175
-680,481	-32,168	0,070	0,029
-679,466	347,714	-0,079	-0,115
-678,451	10,446	-0,103	-0,057
-677,437	124,518	-0,019	-0,018
-676,422	236,102	0,058	-0,071
-675,408	800,000	0,020	-0,048
-674,393	180,277	0,064	0,069
-673,378	300,377	-0,058	-0,079
-672,364	600,773	0,038	-0,069
-671,349	800,000	-0,027	-0,066
-670,335	-60,014	-0,118	0,037
-669,320	104,330	-0,047	-0,041
-668,305	-108,798	-0,037	0,006
-667,291	800,000	-0,024	0,056
-666,276	-101,992	-0,111	-0,020
-665,262	20,235	0,078	-0,046
-664,247	43,756	-0,135	-0,091
-663,232	292,179	-0,064	0,086
-662,218	-72,604	0,198	0,053
-661,203	102,198	0,061	-0,053
-660,189	79,481	0,027	-0,022
-659,174	381,168	0,031	0,047
-658,159	-200,000	-0,005	-0,033
-657,145	-200,000	-0,006	0,056
-656,130	128,285	-0,034	0,032
-655,116	290,760	-0,031	-0,042
-654,101	175,021	0,053	0,057
-653,086	11,685	0,102	-0,057
-652,072	6,826	0,059	0,032
-651,057	451,892	-0,025	-0,041
-650,043	-74,419	-0,075	-0,020
-649,028	-200,000	0,019	-0,101
-648,014	10,535	0,037	0,021
-646,999	364,137	-0,048	-0,072
-645,984	-1,847	-0,120	-0,062
-644,970	256,547	0,016	0,020
-643,955	-200,000	-0,028	-0,250
-642,941	-200,000	0,031	-0,136
-641,926	781,061	-0,052	-0,104
-640,911	269,033	0,070	0,090
-639,897	800,000	0,018	0,047
-638,882	-81,438	0,136	0,033
-637,868	6,785	-0,029	-0,016
-636,853	-200,000	-0,014	-0,104
-635,838	-200,000	0,001	-0,222
-634,824	-101,958	0,090	0,016
-633,809	-120,119	0,052	0,006
-632,795	-43,363	0,081	0,030
-631,780	48,906	-0,112	-0,077
-630,765	167,146	-0,064	-0,067
-629,751	507,914	-0,067	-0,115
-628,736	-200,000	0,007	-0,097
-627,722	800,000	-0,038	-0,082
-626,707	163,955	-0,085	0,088
-625,692	368,891	0,055	0,082
-624,678	28,331	-0,096	-0,059
-623,663	-112,255	-0,110	-0,016
-622,649	170,551	-0,053	-0,056
-621,634	-183,568	-0,132	-0,002
-620,619	-32,228	-0,105	0,043
-619,605	90,969	0,135	0,111
-618,590	184,297	0,071	0,077
-617,576	-11,374	0,118	0,057
-616,561	800,000	0,019	0,043
-615,546	-25,045	0,090	-0,039
-614,532	666,690	0,005	-0,010
-613,517	43,199	-0,027	0,018
-612,503	153,713	-0,040	0,040
-611,488	11,786	-0,022	0,013
-610,474	-53,717	0,093	-0,031
-609,459	-200,000	-0,004	-0,018
-608,444	-120,977	-0,095	-0,012
-607,430	800,000	0,055	-0,171
-606,415	149,706	-0,066	-0,066
-605,401	-104,469	0,029	0,005
-604,386	336,903	-0,049	-0,070
-603,371	800,000	0,041	0,128
-602,357	-41,600	0,046	0,017
-601,342	800,000	0,020	-0,058
-600,328	180,637	0,015	0,017
-599,313	490,047	-0,064	0,107
-598,298	-20,993	-0,029	0,013
-597,284	-84,961	0,154	-0,035
-596,269	200,591	-0,049	-0,056
-595,255	173,991	0,036	0,038
-594,240	466,223	0,034	0,056
-593,225	340,226	0,030	-0,043
-592,211	-6,163	-0,114	-0,057
-591,196	800,000	0,015	0,045
-590,182	28,308	-0,041	-0,025
-589,167	800,000	-0,052	-0,116
-588,152	171,294	0,080	0,084
-587,138	30,724	-0,130	0,081
-586,123	800,000	0,020	0,051
-585,109	-0,558	-0,110	0,057
-584,094	-98,107	-0,010	-0,002
-583,079	-200,000	0,016	0,086
-582,065	-200,000	-0,031	0,108
-581,050	-200,000	0,018	0,078
-580,036	-130,246	-0,108	0,011
-579,021	-143,124	-0,192	0,013
-578,006	-200,000	-0,003	0,034
-576,992	54,347	-0,013	0,009
-575,977	-200,000	-0,031	0,112
-574,963	84,418	0,089	-0,072
-573,948	800,000	0,064	0,151
-572,934	-200,000	0,009	-0,084
-571,919	159,840	-0,080	-0,082
-570,904	-200,000	0,024	-0,178
-569,890	-200,000	0,033	-0,116
-568,875	-29,015	0,060	0,025
-567,861	-147,317	0,121	0,007
-566,846	-200,000	0,029	0,182
-565,831	-200,000	-0,001	0,076
-564,817	-36,306	-0,047	-0,018
-563,802	-98,472	-0,192	-0,036
-562,788	-168,219	0,047	-0,001
-561,773	800,000	-0,074	0,170
-560,758	131,400	0,049	0,047
-559,744	-141,116	0,042	0,003
-558,729	200,196	-0,028	-0,032
-557,715	134,245	-0,039	-0,037
-556,700	98,837	-0,069	-0,058
-555,685	52,076	-0,057	0,040
-554,671	28,720	0,084	0,052
-553,656	-30,316	0,079	-0,033
-552,642	800,000	0,013	-0,028
-551,627	800,000	-0,077	-0,161
-550,612	-200,000	0,009	-0,088
-549,598	134,281	-0,023	0,022
-548,583	60,268	0,052	0,037
-547,569	557,996	-0,080	0,142
-546,554	77,561	-0,159	0,124
-545,539	-162,075	-0,082	-0,003
-544,525	800,000	-0,018	-0,051
-543,510	-59,416	-0,061	0,019
-542,496	403,075	0,037	0,057
-541,481	-200,000	-0,002	-0,066
-540,466	-51,570	-0,068	0,023
-539,452	800,000	0,029	0,082
-538,437	403,068	0,045	0,069
-537,423	9,461	-0,039	-0,022
-536,408	53,659	-0,068	-0,048
-535,393	490,724	0,067	0,112
-534,379	107,428	-0,052	-0,046
-533,364	58,746	0,036	-0,026
-532,350	-57,490	0,118	-0,038
-531,335	338,655	0,016	0,023
-530,321	-200,000	0,003	-0,062
-529,306	-67,939	-0,058	-0,016
-528,291	182,415	-0,212	-0,228
-527,277	-131,905	0,093	-0,009
-526,262	618,707	0,037	-0,069
-525,248	135,208	-0,016	-0,015
-524,233	800,000	-0,029	0,069
-523,218	-200,000	0,001	-0,125
-522,204	8,392	0,054	-0,030
-521,189	281,466	-0,081	-0,106
-520,175	442,027	0,067	-0,107
-519,160	-200,000	-0,008	0,047
-518,145	298,954	0,048	0,064
-517,131	238,101	0,029	-0,035
-516,116	-200,000	0,021	0,175
-515,102	-147,979	0,055	0,003
-514,087	-52,160	-0,196	-0,066
-513,072	265,643	0,062	-0,080
-512,058	-200,000	-0,005	-0,057
-511,043	-200,000	0,009	-0,041
-510,029	749,776	-0,053	0,105
-509,014	-200,000	0,015	0,118
-507,999	159,160	-0,088	0,090
-506,985	106,670	-0,095	0,083
-505,970	800,000	0,041	-0,105
-504,956	-200,000	0,033	0,133
-503,941	535,901	-0,021	-0,036
-502,926	-61,348	0,045	-0,014
-501,912	1,264	-0,144	0,075
-500,897	248,126	0,047	-0,058
-499,883	440,623	-0,028	-0,044
-498,868	8,741	-0,060	0,033
-497,853	134,267	-0,097	-0,091
-496,839	-86,873	0,121	-0,027
-495,824	62,639	0,089	-0,065
-494,810	800,000	0,033	-0,093
-493,795	-146,800	0,037	-0,002
-492,781	800,000	-0,007	-0,016
-491,766	80,084	-0,120	-0,094
-490,751	51,485	0,081	0,056
-489,737	-200,000	0,004	0,085
-488,722	-1,858	0,103	0,053
-487,708	-63,576	0,021	-0,006
-486,693	54,341	-0,038	-0,027
-485,678	-200,000	-0,012	-0,054
-484,664	-106,929	0,065	0,010
-483,649	73,143	0,061	-0,047
-482,635	-200,000	0,010	-0,036
-481,620	252,558	0,078	0,097
-480,605	-148,106	0,185	0,011
-479,591	-71,596	0,052	-0,014
-478,576	-61,229	-0,125	0,038
-477,562	262,611	0,068	-0,087
-476,547	-80,042	-0,102	0,025
-475,532	0,256	0,074	0,038
-474,518	-30,842	-0,037	-0,015
-473,503	49,484	-0,060	-0,041
-472,489	-200,000	0,030	0,126
-471,474	-106,446	-0,088	0,014
-470,459	-27,322	0,037	-0,016
-469,445	168,455	-0,157	-0,164
-468,430	-82,304	0,036	-0,009
-467,416	-119,657	-0,013	0,002
-466,401	-63,956	-0,096	0,029
-465,386	-46,995	0,208	0,074
-464,372	-131,245	-0,020	0,002
-463,357	83,070	0,052	-0,041
-462,343	123,560	0,032	0,029
-461,328	11,296	-0,020	-0,011
-460,313	257,828	0,042	0,052
-459,299	168,047	-0,080	0,083
-458,284	-200,000	0,006	-0,048
-457,270	-200,000	0,028	0,100
-456,255	-200,000	-0,009	0,129
-455,241	185,366	0,021	-0,023
-454,226	-200,000	0,009	-0,058
-453,211	-69,280	-0,031	-0,009
-452,197	37,670	-0,134	0,087
-451,182	78,156	0,150	0,117
-450,168	-200,000	0,005	0,097
-449,153	578,029	-0,047	0,084
-448,138	85,972	0,099	-0,080
-447,124	31,828	-0,084	0,053
-446,109	-46,590	0,004	-0,001
-445,095	-120,435	0,129	0,016
-444,080	162,313	0,058	0,059
-443,065	-88,428	0,104	0,022
-442,051	800,000	-0,019	0,045
-441,036	-95,991	0,053	0,010
-440,022	415,594	0,109	-0,170
-439,007	99,257	0,091	-0,077
-437,992	152,814	-0,059	0,059
-436,978	-69,494	0,095	-0,026
-435,963	-200,000	0,028	0,094
-434,949	-3,478	0,123	-0,062
-433,934	155,108	-0,083	0,083
-432,919	-86,363	0,111	0,025
-431,905	234,542	0,069	-0,083
-430,890	-200,000	0,009	0,052
-429,876	-159,999	0,096	0,004
-428,861	22,724	0,107	0,063
-427,846	131,351	-0,120	0,112
-426,832	-1,093	-0,067	0,035
-425,817	-103,458	-0,134	0,023
-424,803	175,211	-0,028	-0,030
-423,788	-200,000	-0,005	0,076
-422,773	204,117	0,099	0,112
-421,759	241,341	-0,088	0,108
-420,744	-200,000	0,006	0,104
-419,730	-64,811	-0,155	-0,045
-418,715	-101,663	-0,112	0,020
-417,701	3,784	0,043	-0,023
-416,686	-11,074	0,100	-0,048
-415,671	-200,000	0,007	0,131
-414,657	-105,390	0,081	0,013
-413,642	572,889	-0,026	0,046
-412,628	-200,000	-0,002	0,083
-411,613	6,638	-0,085	0,046
-410,598	52,295	0,154	0,107
-409,584	-200,000	0,002	-0,051
-408,569	-68,696	0,047	-0,013
-407,555	-43,847	-0,153	-0,056
-406,540	79,889	-0,078	0,061
-405,525	800,000	-0,027	0,056
-404,511	-123,631	0,037	0,004
-403,496	76,100	0,057	-0,044
-402,482	-103,967	-0,113	-0,019
-401,467	-43,278	0,084	-0,031
-400,452	29,618	0,108	0,067
-399,438	567,927	0,053	0,095
-398,423	-70,742	0,058	0,016
-397,409	89,976	-0,051	-0,041
-396,394	-200,000	0,031	-0,122
-395,379	-200,000	0,011	0,131
-394,365	-200,000	0,000	-0,041
-393,350	-200,000	0,008	-0,057
-392,336	-200,000	-0,012	0,098
-391,321	121,097	0,047	-0,043
-390,306	-5,928	-0,042	-0,021
-389,292	90,398	-0,022	0,018
-388,277	-62,641	0,040	0,012
-387,263	-70,849	0,132	0,036
-386,248	-43,474	0,066	-0,024
-385,233	800,000	0,030	0,087
-384,219	-200,000	0,021	0,233
-383,204	259,585	-0,066	0,083
-382,190	-39,430	0,064	-0,024
-381,175	-200,000	0,000	0,062
-380,160	-200,000	0,010	0,059
-379,146	86,787	0,053	-0,042
-378,131	-35,077	0,114	0,045
-377,117	-85,296	0,059	-0,013
-376,102	-200,000	-0,014	-0,049
-375,088	741,507	-0,060	-0,117
-374,073	800,000	-0,017	-0,040
-373,058	800,000	0,049	-0,117
-372,044	-36,964	0,126	0,049
-371,029	-200,000	0,007	-0,063
-370,015	-74,367	-0,133	0,035
-369,000	189,716	-0,040	0,044
-367,985	-200,000	0,008	0,086
-366,971	297,848	-0,067	-0,090
-365,956	-39,298	0,111	0,042
-364,942	88,869	0,110	0,089
-363,927	270,581	-0,025	-0,032
-362,912	-200,000	-0,025	-0,095
-361,898	800,000	0,050	-0,141
-360,883	103,149	-0,099	0,084
-359,869	167,131	-0,106	-0,110
-358,854	497,311	-0,030	-0,050
-357,839	-38,238	0,057	0,022
-356,825	-200,000	0,003	0,026
-355,810	39,707	-0,167	0,109
-354,796	104,231	0,087	0,074
-353,781	224,079	0,040	0,047
-352,766	-150,416	-0,099	-0,005
-351,752	800,000	0,030	0,061
-350,737	-200,000	0,019	0,108
-349,723	-200,000	0,010	0,159
-348,708	176,258	-0,032	-0,034
-347,693	43,770	-0,041	0,028
-346,679	-80,707	0,035	-0,008
-345,664	575,147	-0,085	-0,151
-344,650	191,116	0,053	-0,057
-343,635	-60,988	0,114	0,035
-342,620	114,676	0,067	0,060
-341,606	-28,343	-0,039	-0,016
-340,591	-200,000	-0,018	0,084
-339,577	2,079	-0,033	0,017
-338,562	-200,000	-0,032	0,121
-337,548	-100,878	0,068	0,012
-336,533	-137,007	-0,110	-0,009
-335,518	800,000	0,035	0,106
-334,504	-200,000	-0,019	0,062
-333,489	326,072	0,072	0,100
-332,475	39,465	0,118	0,077
-331,460	800,000	-0,055	0,119
-330,445	259,193	-0,034	-0,043
-329,431	-122,831	-0,069	0,008
-328,416	202,592	-0,129	0,145
-327,402	-9,185	0,215	-0,104
-326,387	800,000	-0,043	-0,107
-325,372	694,773	0,100	-0,191
-324,358	556,397	0,092	-0,162
-323,343	152,974	-0,123	0,122
-322,329	406,995	0,014	0,022
-321,314	187,830	-0,043	0,047
-320,299	479,073	0,016	0,026
-319,285	-200,000	0,036	0,132
-318,270	208,258	-0,039	0,045
-317,256	800,000	0,013	-0,041
-316,241	409,246	0,022	-0,034
-315,226	389,558	-0,031	-0,047
-314,212	-200,000	0,012	0,075
-313,197	355,870	0,017	0,025
-312,183	-25,632	0,042	-0,018
-311,168	800,000	-0,015	-0,040
-310,153	-49,264	-0,067	0,023
-309,139	-200,000	0,008	0,055
-308,124	-4,108	-0,087	-0,044
-307,110	-1,502	0,057	-0,029
-306,095	78,168	0,075	0,058
-305,080	800,000	-0,041	0,090
-304,066	176,267	0,039	-0,041
-303,051	-114,762	-0,094	-0,013
-302,037	-24,162	0,076	-0,033
-301,022	-200,000	0,021	0,092
-300,008	-200,000	0,004	-0,177
-298,993	221,748	0,039	0,045
-297,978	-200,000	-0,020	0,108
-296,964	412,664	-0,078	-0,120
-295,949	-120,323	0,181	-0,022
-294,935	443,650	-0,117	-0,186
-293,920	-54,024	-0,121	0,040
-292,905	-200,000	0,003	-0,010
-291,891	-145,065	-0,047	-0,003
-290,876	-125,264	0,071	0,008
-289,862	222,761	0,089	0,105
-288,847	-145,552	-0,171	-0,011
-287,832	357,140	0,089	-0,129
-286,818	-116,441	-0,033	0,004
-285,803	166,759	-0,119	0,122
-284,789	-200,000	0,032	0,158
-283,774	71,845	0,034	0,026
-282,759	-12,655	0,108	-0,051
-281,745	-200,000	-0,003	-0,082
-280,730	385,662	-0,030	-0,045
-279,716	151,307	0,026	-0,026
-278,701	-62,999	0,147	-0,044
-277,686	-6,418	0,069	0,034
-276,672	24,229	-0,024	0,015
-275,657	-11,631	-0,102	0,048
-274,643	-138,178	-0,041	-0,003
-273,628	165,802	0,029	-0,029
-272,613	-133,278	0,062	0,006
-271,599	-36,235	0,199	-0,077
-270,584	48,092	0,053	-0,036
-269,570	-107,852	0,155	-0,024
-268,555	-21,633	0,033	-0,014
-267,540	-156,513	-0,195	0,009
-266,526	-42,294	-0,100	0,037
-265,511	-200,000	-0,018	0,060
-264,497	-98,813	-0,144	-0,026
-263,482	72,789	0,019	-0,014
-262,467	-200,000	-0,002	0,095
-261,453	198,709	0,088	-0,097
-260,438	61,074	-0,029	-0,021
-259,424	256,527	-0,136	-0,169
-258,409	-6,491	0,163	-0,080
-257,395	-10,468	0,031	-0,015
-256,380	106,781	0,105	0,090
-255,365	648,778	0,101	0,187
-254,351	-82,953	0,146	0,034
-253,336	-200,000	0,012	-0,102
-252,322	435,873	0,033	-0,052
-251,307	-200,000	-0,021	-0,092
-250,292	800,000	0,032	0,098
-249,278	-98,973	-0,082	-0,015
-248,263	800,000	-0,035	-0,104
-247,249	-69,250	0,071	-0,020
-246,234	800,000	-0,052	-0,125
-245,219	-97,329	0,125	0,023
-244,205	-53,710	-0,167	-0,055
-243,190	43,579	-0,035	-0,023
-242,176	681,399	0,021	0,039
-241,161	800,000	-0,024	0,048
-240,146	-200,000	0,023	0,101
-239,132	-200,000	-0,008	-0,085
-238,117	349,994	0,020	-0,029
-237,103	47,626	-0,139	0,094
-236,088	-200,000	-0,003	-0,188
-235,073	-41,201	-0,028	-0,010
-234,059	-200,000	0,022	-0,074
-233,044	-200,000	-0,014	-0,054
-232,030	157,258	-0,100	0,100
-231,015	-200,000	-0,011	-0,157
-230,000	800,000	-0,023	-0,061
-228,986	-200,000	-0,022	-0,123
-227,971	-168,940	-0,069	0,002
-226,957	800,000	-0,019	-0,056
-225,942	518,753	0,012	0,021
-224,927	120,907	-0,073	-0,066
-223,913	299,378	-0,047	-0,063
-222,898	-200,000	-0,007	-0,045
-221,884	-200,000	-0,016	-0,201
-220,869	800,000	0,037	-0,076
-219,855	800,000	-0,014	0,041
-218,840	54,677	0,118	-0,082
-217,825	458,011	-0,083	-0,134
-216,811	587,904	0,012	-0,022
-215,796	800,000	-0,045	-0,106
-214,782	-179,793	0,133	0,002
-213,767	-37,576	0,038	0,015
-212,752	174,602	0,029	0,030
-211,738	-13,802	0,117	0,054
-210,723	-2,756	0,014	0,007
-209,709	-200,000	0,010	-0,100
-208,694	-138,138	-0,082	0,006
-207,679	-145,882	-0,110	-0,007
-206,665	-200,000	0,005	-0,024
-205,650	-200,000	0,007	0,046
-204,636	160,250	0,176	-0,177
-203,621	-120,466	0,090	0,011
-202,606	-200,000	-0,035	-0,116
-201,592	-200,000	-0,014	0,075
-200,577	-120,640	-0,036	-0,004
-199,563	-33,315	0,092	0,037
-198,548	800,000	0,042	0,088
-197,533	800,000	-0,081	0,214
-196,519	800,000	-0,020	-0,044
-195,504	-58,796	-0,115	0,036
-194,490	-174,617	-0,058	0,001
-193,475	-200,000	0,005	0,061
-192,460	-97,272	0,071	-0,013
-191,446	800,000	-0,057	-0,153
-190,431	214,133	-0,080	0,092
-189,417	-173,760	0,087	0,002
-188,402	117,283	-0,120	0,107
-187,387	-200,000	-0,017	-0,141
-186,373	71,545	-0,093	-0,070
-185,358	24,084	-0,135	-0,080
-184,344	-119,363	0,178	0,022
-183,329	795,063	-0,044	0,088
-182,315	650,272	0,037	-0,069
-181,300	-74,463	-0,124	-0,032
-180,285	-200,000	0,003	-0,076
-179,271	-86,465	-0,142	0,031
-178,256	26,249	-0,069	-0,042
-177,242	-39,915	-0,103	0,039
-176,227	670,720	0,052	-0,097
-175,212	800,000	0,016	0,040
-174,198	335,603	0,063	0,089
-173,183	252,124	0,048	0,059
-172,169	800,000	-0,058	-0,154
-171,154	323,599	0,071	0,097
-170,139	69,508	-0,068	0,051
-169,125	-12,645	-0,069	0,032
-168,110	31,370	0,129	0,080
-167,096	-162,166	-0,040	0,001
-166,081	391,461	-0,049	0,073
-165,066	-42,234	-0,147	0,054
-164,052	14,763	0,168	-0,095
-163,037	-7,908	-0,061	-0,029
-162,023	-102,025	0,108	-0,019
-161,008	83,191	0,039	0,031
-159,993	72,562	-0,062	-0,047
-158,979	-72,737	-0,029	0,008
-157,964	-91,515	-0,165	0,034
-156,950	116,031	-0,118	-0,104
-155,935	-200,000	0,012	0,119
-154,920	-11,817	0,131	0,062
-153,906	-200,000	-0,012	-0,079
-152,891	65,354	0,089	-0,064
-151,877	-200,000	-0,002	-0,045
-150,862	103,690	0,052	-0,044
-149,847	136,079	-0,099	-0,093
-148,833	-2,359	0,125	-0,063
-147,818	122,231	0,064	-0,058
-146,804	-200,000	-0,017	0,059
-145,789	800,000	0,023	-0,057
-144,775	-200,000	-0,036	0,145
-143,760	147,289	-0,077	-0,075
-142,745	-200,000	-0,027	-0,093
-141,731	-157,929	0,072	0,003
-140,716	76,103	0,059	0,045
-139,702	-80,235	0,131	0,031
-138,687	106,168	-0,026	-0,022
-137,672	-200,000	0,019	0,087
-136,658	-34,405	0,045	-0,018
-135,643	63,958	-0,016	-0,012
-134,629	-18,196	-0,088	0,039
-133,614	-200,000	-0,017	0,154
-132,599	-200,000	-0,019	0,074
-131,585	58,288	0,092	0,065
-130,570	-200,000	0,009	0,035
-129,556	-200,000	-0,018	-0,146
-128,541	-126,457	-0,134	0,014
-127,526	23,541	-0,067	-0,040
-126,512	145,755	0,056	0,054
-125,497	590,720	-0,064	0,114
-124,483	-85,411	-0,084	0,019
-123,468	-51,058	0,136	-0,046
-122,453	-82,318	-0,061	-0,014
-121,439	-71,625	-0,026	0,007
-120,424	-200,000	-0,013	-0,054
-119,410	56,508	0,018	0,012
-118,395	30,840	-0,092	0,056
-117,380	-200,000	0,014	0,139
-116,366	-200,000	-0,016	0,109
-115,351	772,006	-0,017	-0,034
-114,337	-70,036	0,096	-0,026
-113,322	-24,840	0,086	-0,036
-112,307	229,504	-0,015	0,018
-111,293	-16,076	-0,030	0,014
-110,278	198,276	0,051	0,056
-109,264	382,201	-0,064	0,095
-108,249	-200,000	0,007	0,089
-107,234	324,353	0,033	-0,046
-106,220	73,260	-0,129	-0,097
-105,205	80,812	0,072	0,056
-104,191	-133,239	0,148	-0,013
-103,176	-91,015	0,145	0,030
-102,162	-200,000	-0,023	-0,104
-101,147	800,000	-0,002	-0,007
-100,132	323,250	-0,033	-0,045
-99,118	-200,000	0,005	-0,057
-98,103	800,000	0,034	-0,102
-97,089	425,814	0,061	0,095
-96,074	-200,000	-0,016	0,093
-95,059	605,418	-0,103	-0,186
-94,045	544,679	-0,062	-0,108
-93,030	-200,000	0,014	0,098
-92,016	800,000	0,060	-0,174
-91,001	5,443	0,054	-0,029
-89,986	9,089	-0,015	0,008
-88,972	-200,000	0,001	0,127
-87,957	-119,751	0,105	0,013
-86,943	-200,000	0,013	0,055
-85,928	800,000	-0,058	-0,172
-84,913	-121,497	0,092	-0,011
-83,899	157,108	0,036	-0,036
-82,884	210,278	-0,037	0,042
-81,870	-200,000	0,037	0,128
-80,855	-200,000	0,009	-0,091
-79,840	-40,055	-0,050	-0,019
-78,826	50,933	-0,059	-0,040
-77,811	187,094	0,067	0,072
-76,797	9,795	-0,035	0,019
-75,782	102,370	-0,028	0,024
-74,767	-200,000	-0,001	0,097
-73,753	82,651	0,067	0,052
-72,738	-46,056	-0,051	0,018
-71,724	372,941	-0,053	0,078
-70,709	-1,096	-0,060	-0,031
-69,694	25,442	-0,051	-0,030
-68,680	-200,000	-0,042	0,187
-67,665	-91,466	-0,118	0,024
-66,651	148,931	0,159	-0,154
-65,636	-69,996	-0,051	-0,014
-64,622	-52,296	-0,076	0,025
-63,607	-84,337	-0,052	-0,012
-62,592	-58,859	0,002	0,001
-61,578	445,602	0,024	-0,038
-60,563	-143,403	0,034	-0,002
-59,549	75,134	-0,058	0,044
-58,534	-10,101	-1,999	-0,950
-57,519	-200,000	-0,233	-0,943
-56,505	-200,000	-1,044	-4,837
-55,490	-40,501	0,762	0,282
-54,476	800,000	5,383	12,173
-53,461	-200,000	17,470	283,455
-52,446	800,000	725,787	2217,778
-51,432	537,326	1641,657	2810,547
-50,417	110,544	1632,622	1408,789
-49,403	75,186	1286,505	972,749
-48,388	32,341	1027,937	635,698
-47,373	20,191	990,032	572,168
-46,359	18,566	978,088	559,911
-45,344	15,944	973,818	548,858
-44,330	16,158	972,526	548,809
-43,315	15,703	970,637	546,233
-42,300	15,652	969,580	545,450
-41,286	15,652	968,432	544,784
-40,271	15,661	967,348	544,180
-39,257	15,659	966,712	543,794
-38,242	15,618	965,816	543,137
-37,227	15,672	965,103	542,891
-36,213	15,695	964,096	542,376
-35,198	15,585	963,363	541,587
-34,184	15,698	962,507	541,449
-33,169	15,650	961,465	540,686
-32,154	15,723	960,601	540,413
-31,140	15,635	959,741	539,623
-30,125	15,684	959,090	539,395
-29,111	15,652	958,268	538,810
-28,096	15,638	957,731	538,440
-27,082	15,679	956,844	538,053
-26,067	15,689	956,052	537,619
-25,052	15,675	955,207	537,075
-24,038	15,603	954,742	536,561
-23,023	15,622	954,099	536,239
-22,009	15,700	953,386	536,068
-20,994	15,715	952,749	535,738
-19,979	15,660	952,189	535,226
-18,965	15,681	951,548	534,911
-17,950	15,695	950,900	534,568
-16,936	15,622	950,198	533,919
-15,921	15,566	949,603	533,387
-14,906	15,518	949,025	532,888
-13,892	15,541	948,386	532,580
-12,877	15,562	947,549	532,157
-11,863	15,496	946,992	531,613
-10,848	15,561	946,235	531,372
-9,833	15,630	945,942	531,406
-8,819	15,538	945,212	530,684
-7,804	15,582	944,686	530,505
-6,790	15,526	944,115	529,989
-5,775	15,642	943,628	530,062
-4,760	15,590	942,983	529,512
-3,746	15,548	942,281	528,966
-2,731	15,423	941,739	528,245
-1,717	15,398	940,826	527,633
-0,702	15,371	940,319	527,240
0,313	15,157	939,752	527,041
1,327	18,289	937,456	535,583
2,342	27,177	794,800	477,648
3,356	23,895	458,892	270,736
4,371	-3,154	314,021	156,544
5,386	-7,258	295,998	143,396
6,400	-9,236	289,898	138,466
7,415	-9,586	287,454	136,941
8,429	-9,795	285,851	135,962
9,444	-9,783	284,920	135,519
10,459	-9,869	284,483	135,214
11,473	-9,777	283,933	135,030
12,488	-9,708	283,300	134,785
13,502	-9,946	282,928	134,364
14,517	-9,769	282,288	134,220
15,531	-9,731	281,864	134,043
16,546	-9,709	281,456	133,858
17,561	-9,556	281,125	133,836
18,575	-9,644	280,790	133,581
19,590	-9,779	280,439	133,271
20,604	-9,686	280,243	133,256
21,619	-9,824	279,997	132,995
22,634	-9,688	279,427	132,842
23,648	-9,897	279,145	132,497
24,663	-9,681	278,861	132,556
25,677	-9,746	278,633	132,374
26,692	-9,848	278,532	132,217
27,707	-9,617	278,054	132,199
28,721	-9,681	277,813	132,011
29,736	-9,824	277,545	131,736
30,750	-9,771	277,308	131,662
31,765	-9,606	277,144	131,729
32,780	-9,682	276,905	131,532
33,794	-9,869	276,795	131,291
34,809	-9,602	276,322	131,307
35,823	-9,827	276,121	130,987
36,838	-9,739	275,758	130,886
37,853	-9,849	275,560	130,678
38,867	-9,808	275,489	130,670
39,882	-9,705	275,146	130,593
40,896	-9,539	274,806	130,576
41,911	-9,872	274,465	130,090
42,926	-9,862	274,411	130,062
43,940	-9,947	274,166	129,855
44,955	-10,007	273,956	129,687
45,969	-9,800	273,688	129,743
46,984	-10,088	273,500	129,373
47,999	-10,246	273,199	129,072
49,013	-10,317	272,861	128,834
50,028	-10,418	272,618	128,614
51,042	-10,321	272,341	128,562
52,057	-10,595	272,015	128,143
53,071	-10,473	271,788	128,137
54,086	-10,478	271,753	128,105
55,101	-10,026	271,567	128,424
56,115	-10,048	271,447	128,336
57,130	-9,752	271,296	128,526
58,144	-9,665	271,064	128,486
59,159	-9,590	270,713	128,377
60,174	-9,609	270,587	128,288
61,188	-9,665	270,543	128,204
62,203	-9,771	270,099	127,885
63,217	-9,754	269,848	127,770
64,232	-9,645	269,696	127,787
65,247	-9,649	269,304	127,587
66,261	-9,726	269,180	127,446
67,276	-9,947	269,073	127,181
68,290	-10,016	268,887	127,019
69,305	-9,999	268,396	126,791
70,320	-9,974	268,227	126,722
71,334	-9,805	268,226	126,865
72,349	-9,626	267,979	126,901
73,363	-9,652	267,704	126,736
74,378	-9,651	267,475	126,616
75,393	-9,677	267,263	126,481
76,407	-9,727	267,223	126,406
77,422	-9,483	266,885	126,456
78,436	-9,890	266,690	125,983
79,451	-9,552	266,483	126,180
80,466	-9,750	266,113	125,815
81,480	-9,840	265,943	125,642
82,495	-9,958	265,802	125,457
83,509	-9,855	265,550	125,420
84,524	-9,827	265,310	125,320
85,539	-9,841	265,059	125,179
86,553	-9,958	264,842	124,960
87,568	-9,871	264,595	124,910
88,582	-9,908	264,462	124,802
89,597	-9,939	264,402	124,735
90,611	-9,535	264,165	124,976
91,626	-9,785	264,033	124,677
92,641	-9,739	263,898	124,644
93,655	-9,651	263,546	124,546
94,670	-9,672	263,291	124,395
95,684	-9,745	263,206	124,278
96,699	-9,654	262,954	124,230
97,714	-9,684	262,740	124,091
98,728	-9,846	262,516	123,829
99,743	-9,912	262,048	123,539
100,757	-10,020	262,019	123,418
101,772	-9,952	261,885	123,404
102,787	-9,832	261,607	123,368
103,801	-9,773	261,506	123,363
104,816	-9,766	261,328	123,273
105,830	-9,748	261,060	123,153
106,845	-9,621	261,041	123,245
107,860	-9,546	260,641	123,112
108,874	-9,684	260,604	122,961
109,889	-9,651	260,408	122,886
110,903	-9,735	260,073	122,644
111,918	-9,764	259,945	122,547
112,933	-9,855	259,813	122,393
113,947	-9,694	259,609	122,428
114,962	-9,820	259,234	122,129
115,976	-9,769	259,220	122,157
116,991	-9,730	259,135	122,140
118,006	-9,702	258,916	122,050
119,020	-9,750	258,842	121,963
120,035	-9,556	258,545	121,982
121,049	-9,638	258,469	121,863
122,064	-9,667	258,175	121,689
123,079	-9,571	258,044	121,699
124,093	-9,768	257,699	121,354
125,108	-9,827	257,552	121,222
126,122	-10,104	257,256	120,831
127,137	-10,185	257,096	120,674
128,151	-9,867	256,779	120,791
129,166	-9,790	256,697	120,809
130,181	-9,823	256,360	120,611
131,195	-10,034	256,253	120,367
132,210	-9,879	256,236	120,483
133,224	-9,566	255,992	120,629
134,239	-9,688	255,822	120,432
135,254	-9,518	255,479	120,407
136,268	-9,795	255,463	120,149
137,283	-10,042	255,035	119,724
138,297	-10,080	254,891	119,613
139,312	-9,911	254,735	119,675
140,327	-9,845	254,682	119,695
141,341	-9,575	254,542	119,852
142,356	-9,667	254,339	119,667
143,370	-9,435	254,217	119,798
144,385	-9,573	254,070	119,599
145,400	-9,625	253,983	119,503
146,414	-9,495	253,555	119,403
147,429	-9,650	253,425	119,198
148,443	-9,475	253,245	119,253
149,458	-9,518	253,098	119,136
150,473	-9,354	252,934	119,188
151,487	-9,552	252,756	118,924
152,502	-9,513	252,482	118,818
153,516	-9,515	252,393	118,764
154,531	-9,450	252,142	118,691
155,546	-9,456	251,983	118,600
156,560	-9,611	251,857	118,399
157,575	-9,613	251,530	118,232
158,589	-9,601	251,465	118,202
159,604	-9,441	251,247	118,225
160,619	-9,390	250,903	118,095
161,633	-9,498	250,684	117,891
162,648	-9,570	250,632	117,794
163,662	-9,433	250,685	117,925
164,677	-9,391	250,338	117,786
165,692	-9,618	250,323	117,577
166,706	-9,552	250,070	117,503
167,721	-9,545	249,868	117,404
168,735	-9,622	249,852	117,321
169,750	-9,552	249,690	117,294
170,764	-9,408	249,456	117,294
171,779	-9,307	249,275	117,284
172,794	-9,377	249,075	117,120
173,808	-9,479	248,974	116,977
174,823	-9,779	248,694	116,583
175,837	-9,985	248,454	116,288
176,852	-9,639	248,329	116,508
177,867	-9,587	248,315	116,535
178,881	-9,621	248,286	116,483
179,896	-9,295	247,851	116,541
180,910	-9,516	247,674	116,262
181,925	-9,499	247,603	116,233
182,940	-9,355	247,328	116,213
183,954	-9,551	247,226	115,992
184,969	-9,461	247,125	116,009
185,983	-9,720	247,045	115,745
186,998	-9,371	246,737	115,881
188,013	-9,572	246,600	115,640
189,027	-9,418	246,420	115,673
190,042	-9,464	246,134	115,490
191,056	-9,461	245,971	115,405
192,071	-9,523	245,929	115,324
193,086	-9,510	245,658	115,198
194,100	-9,496	245,418	115,086
195,115	-9,302	245,169	115,119
196,129	-9,338	245,106	115,049
197,144	-9,571	244,813	114,710
198,159	-9,675	244,920	114,664
199,173	-9,347	244,736	114,838
200,188	-9,424	244,446	114,629
201,202	-9,807	244,236	114,204
202,217	-9,987	243,872	113,876
203,232	-10,046	243,732	113,753
204,246	-9,717	243,721	114,007
205,261	-9,349	243,610	114,246
206,275	-10,570	243,160	113,026
207,290	-7,494	244,247	116,049
208,304	-0,638	246,566	122,811
209,319	3,310	247,374	126,467
210,334	3,543	247,503	126,714
211,348	3,800	247,302	126,813
212,363	4,066	247,108	126,921
213,377	4,178	247,086	126,991
214,392	3,951	246,890	126,692
215,407	3,833	246,710	126,491
216,421	3,758	246,574	126,348
217,436	3,984	246,508	126,489
218,450	4,203	246,382	126,593
219,465	3,689	246,054	125,992
220,480	3,790	245,776	125,920
221,494	3,721	245,713	125,821
222,509	3,788	245,504	125,758
223,523	3,715	245,368	125,616
224,538	3,295	245,114	125,132
225,553	3,232	245,059	125,042
226,567	3,417	244,824	125,061
227,582	3,566	244,626	125,070
228,596	3,838	244,438	125,184
229,611	3,255	244,331	124,644
230,626	3,327	244,187	124,618
231,640	3,262	244,038	124,479
232,655	3,549	243,814	124,586
233,669	3,377	243,578	124,315
234,684	3,140	243,528	124,086
235,699	3,748	243,490	124,548
236,713	3,907	243,280	124,559
237,728	3,510	243,071	124,119
238,742	3,132	242,890	123,710
239,757	3,290	242,699	123,729
240,772	3,394	242,639	123,771
241,786	3,454	242,420	123,698
242,801	3,407	242,291	123,583
243,815	3,199	242,013	123,263
244,830	3,500	241,851	123,411
245,844	3,485	241,875	123,400
246,859	3,445	241,737	123,287
247,874	3,371	241,491	123,091
248,888	3,555	241,342	123,152
249,903	3,611	241,193	123,110
250,917	3,547	241,033	122,966
251,932	3,781	241,045	123,148
252,947	3,620	240,759	122,862
253,961	3,368	240,449	122,492
254,976	3,501	240,428	122,576
255,990	3,597	240,361	122,608
257,005	3,403	240,100	122,309
258,020	3,153	240,064	122,080
259,034	3,364	239,744	122,075
260,049	3,565	239,727	122,215
261,063	3,327	239,479	121,889
262,078	3,262	239,320	121,745
263,093	3,618	239,356	122,036
264,107	3,646	239,126	121,930
265,122	3,431	238,916	121,641
266,136	3,372	238,869	121,559
267,151	3,630	238,843	121,741
268,166	3,436	238,460	121,380
269,180	3,434	238,127	121,198
270,195	3,881	238,325	121,643
271,209	3,948	238,331	121,688
272,224	3,447	237,859	121,040
273,239	3,238	237,447	120,655
274,253	3,344	237,389	120,698
275,268	3,632	237,174	120,805
276,282	3,665	237,045	120,754
277,297	3,217	237,023	120,380
278,312	3,415	236,827	120,425
279,326	3,395	236,782	120,376
280,341	3,586	236,577	120,411
281,355	3,557	236,450	120,312
282,370	3,533	236,289	120,202
283,384	3,458	236,192	120,083
284,399	3,479	235,765	119,872
285,414	3,234	235,796	119,685
286,428	3,236	235,756	119,655
287,443	3,441	235,465	119,657
288,457	3,416	235,530	119,660
289,472	3,739	235,326	119,798
290,487	3,595	235,083	119,551
291,501	3,332	234,798	119,191
292,516	3,169	234,818	119,063
293,530	3,227	234,553	118,963
294,545	3,374	234,500	119,041
295,560	3,333	234,333	118,913
296,574	3,198	234,090	118,674
297,589	3,287	234,003	118,689
298,603	3,625	234,028	118,952
299,618	3,453	233,907	118,747
300,633	3,427	233,614	118,568
301,647	3,589	233,632	118,692
302,662	4,054	233,607	119,028
303,676	4,085	233,312	118,891
304,691	3,785	233,078	118,530
305,706	3,927	232,991	118,584
306,720	3,923	232,861	118,505
307,735	3,974	232,584	118,392
308,749	3,412	232,560	117,937
309,764	3,348	232,442	117,817
310,779	3,254	232,148	117,586
311,793	3,151	231,825	117,333
312,808	3,178	231,811	117,335
313,822	3,142	231,565	117,173
314,837	3,177	231,475	117,144
315,852	3,142	231,207	116,971
316,866	3,542	231,244	117,286
317,881	3,586	231,130	117,251
318,895	4,032	230,819	117,423
319,910	3,916	230,905	117,368
320,925	3,523	230,677	116,942
321,939	3,337	230,644	116,772
322,954	3,501	230,424	116,776
323,968	3,413	230,265	116,618
324,983	3,147	230,046	116,294
325,997	3,273	229,918	116,315
327,012	3,419	229,943	116,429
328,027	3,623	229,658	116,428
329,041	3,700	229,575	116,434
330,056	4,082	229,656	116,755
331,070	3,999	229,303	116,502
332,085	3,750	229,082	116,191
333,100	3,603	228,959	116,007
334,114	3,644	228,834	115,965
335,129	3,995	228,630	116,115
336,143	3,686	228,572	115,843
337,158	3,636	228,390	115,702
338,173	3,897	228,292	115,839
339,187	3,553	228,306	115,577
340,202	3,789	228,078	115,629
341,216	3,549	227,943	115,369
342,231	3,592	227,637	115,236
343,246	3,631	227,537	115,205
344,260	3,829	227,324	115,235
345,275	3,980	227,339	115,346
346,289	3,895	227,172	115,187
347,304	4,044	226,954	115,177
348,319	3,920	226,946	115,070
349,333	3,734	226,658	114,775
350,348	3,835	226,463	114,742
351,362	3,565	226,450	114,523
352,377	3,547	226,263	114,405
353,392	3,382	226,152	114,216
354,406	3,292	226,007	114,066
355,421	195,473	1321,025	1398,031
356,435	156,684	1454,443	1398,028
