DTS Sentinel unit serial number:	SN410029Multiplexer serial number:	ORYXHardware model number:	OX2-SRSoftware version number:	ORYX F/W v4,00 Oryx Data Collector v3.7.2.0data status	okinstallation	B5 Nyhavnadifferential loss correction	single-endedforward channel	channel 2reverse channel	N/Adate	2023/12/14time	04:47:13forward acquisition time	300,00reverse acquisition time	0,00gamma	499,1914k internal	0,3156k external	0,3156temperature offset calibration	1,0000default loss term (dB/km)	0,3820temperature slope calibration	1,0000multiplexer offset coefficient	1,0000multiplexer slope coefficient	1,0000fibre end	0,00T internal ref (°C)	7,81T ext. ref 1 (°C)	-8,66T ext. ref 2 (°C)	-8,70length (m)	temperature (°C)	Stokes	anti-Stokes-744,400	-134,654	0,275	-0,024
-743,385	-97,443	-0,356	-0,068
-742,371	-126,795	0,188	0,020
-741,356	-142,363	-0,344	0,025
-740,342	-200,000	0,015	0,207
-739,327	-76,455	-0,376	-0,097
-738,312	800,000	0,041	-0,100
-737,298	15,007	-0,442	-0,254
-736,283	503,871	0,038	0,065
-735,269	-97,200	-0,277	-0,053
-734,254	19,713	0,070	-0,042
-733,239	-106,379	-0,523	-0,085
-732,225	-102,829	0,133	0,023
-731,210	-94,819	-0,132	-0,026
-730,196	67,604	-0,141	-0,106
-729,181	-200,000	-0,007	-0,034
-728,167	315,724	-0,047	0,065
-727,152	138,188	-0,142	-0,138
-726,137	-40,076	-0,213	-0,081
-725,123	-200,000	-0,033	0,111
-724,108	-139,071	-0,079	-0,006
-723,094	776,331	-0,020	0,041
-722,079	34,322	-0,138	-0,089
-721,064	-200,000	0,004	0,106
-720,050	199,567	0,029	-0,033
-719,035	800,000	0,042	-0,090
-718,021	800,000	-0,050	-0,113
-717,006	-6,681	-0,104	-0,052
-715,991	-16,281	-0,130	-0,061
-714,977	202,972	-0,027	-0,030
-713,962	177,448	0,072	-0,077
-712,948	-99,062	-0,060	-0,011
-711,933	-200,000	-0,025	0,119
-710,918	-102,187	-0,028	0,005
-709,904	82,237	-0,158	-0,126
-708,889	676,115	0,079	-0,153
-707,875	-200,000	-0,034	-0,174
-706,860	-200,000	0,017	-0,085
-705,845	730,180	0,044	0,087
-704,831	-200,000	-0,008	0,068
-703,816	-126,461	-0,191	0,021
-702,802	237,295	0,045	-0,055
-701,787	800,000	-0,030	-0,078
-700,772	-200,000	-0,028	0,176
-699,758	-104,075	-0,072	-0,012
-698,743	-80,266	0,016	0,004
-697,729	114,803	-0,051	0,046
-696,714	-200,000	0,014	0,071
-695,699	-61,726	0,105	0,032
-694,685	426,526	-0,069	-0,109
-693,670	-97,312	0,035	-0,007
-692,656	-200,000	0,006	0,124
-691,641	19,166	-0,102	-0,060
-690,627	-47,712	0,137	0,049
-689,612	249,523	-0,064	0,080
-688,597	-75,445	0,099	-0,026
-687,583	-0,668	-0,098	-0,051
-686,568	-200,000	-0,005	0,062
-685,554	186,277	-0,097	-0,106
-684,539	588,107	0,056	-0,102
-683,524	786,408	-0,028	-0,056
-682,510	640,525	-0,039	-0,073
-681,495	-11,824	-0,111	-0,054
-680,481	121,128	-0,121	-0,111
-679,466	-200,000	0,051	-0,179
-678,451	386,448	0,032	0,049
-677,437	17,300	0,054	0,031
-676,422	58,984	-0,027	-0,020
-675,408	41,229	-0,041	0,027
-674,393	713,559	-0,020	-0,040
-673,378	800,000	0,030	-0,092
-672,364	63,961	-0,101	-0,075
-671,349	737,990	-0,095	-0,189
-670,335	-12,461	-0,077	-0,037
-669,320	-103,406	0,206	0,035
-668,305	-115,115	-0,087	-0,012
-667,291	373,750	-0,063	0,094
-666,276	-74,826	-0,071	0,019
-665,262	227,768	-0,049	-0,059
-664,247	-200,000	0,013	-0,063
-663,232	-200,000	-0,040	-0,168
-662,218	-81,125	0,027	-0,006
-661,203	800,000	-0,069	-0,155
-660,189	-28,188	0,073	0,031
-659,174	-200,000	0,009	0,042
-658,159	800,000	0,142	-0,300
-657,145	155,274	-0,049	0,050
-656,130	359,302	-0,046	0,068
-655,116	-23,894	0,089	0,039
-654,101	471,982	0,054	0,089
-653,086	800,000	0,042	-0,111
-652,072	-72,201	0,155	-0,042
-651,057	-182,656	-0,104	0,001
-650,043	-200,000	0,008	-0,052
-649,028	-131,096	-0,147	-0,014
-648,014	378,853	-0,065	-0,098
-646,999	-200,000	-0,003	-0,036
-645,984	-200,000	-0,027	-0,128
-644,970	-200,000	0,007	-0,029
-643,955	-200,000	-0,069	-0,226
-642,941	-55,714	-0,092	0,030
-641,926	121,315	-0,058	0,053
-640,911	-168,359	0,069	0,002
-639,897	493,429	-0,046	-0,079
-638,882	183,179	0,031	0,034
-637,868	-54,503	-0,059	0,020
-636,853	800,000	-0,038	-0,087
-635,838	-200,000	-0,063	-0,215
-634,824	-86,909	-0,093	0,021
-633,809	-94,029	-0,129	0,026
-632,795	-148,202	0,088	-0,005
-631,780	-41,646	0,024	0,009
-630,765	-139,833	-0,075	0,006
-629,751	-200,000	0,019	-0,184
-628,736	-81,352	-0,188	0,045
-627,722	-18,652	-0,030	-0,014
-626,707	69,790	-0,085	-0,064
-625,692	800,000	-0,052	0,150
-624,678	575,862	-0,022	0,039
-623,663	38,811	0,027	-0,018
-622,649	-200,000	0,021	-0,125
-621,634	38,028	0,140	-0,091
-620,619	800,000	0,083	-0,184
-619,605	350,886	-0,031	-0,046
-618,590	-200,000	-0,018	0,058
-617,576	-2,756	0,162	0,083
-616,561	-200,000	0,010	0,097
-615,546	-172,160	-0,173	0,004
-614,532	-145,766	-0,056	0,004
-613,517	68,255	0,066	-0,050
-612,503	170,148	0,065	0,069
-611,488	-43,644	-0,082	0,030
-610,474	592,974	-0,003	0,005
-609,459	214,220	-0,033	-0,038
-608,444	-23,054	-0,151	-0,066
-607,430	-48,657	-0,080	-0,028
-606,415	237,088	0,045	-0,055
-605,401	800,000	0,013	0,040
-604,386	800,000	-0,005	-0,012
-603,371	688,708	-0,076	-0,146
-602,357	114,297	-0,033	-0,029
-601,342	-200,000	-0,007	0,023
-600,328	-200,000	-0,005	-0,183
-599,313	800,000	0,042	-0,122
-598,298	86,253	-0,119	-0,096
-597,284	239,721	-0,009	-0,012
-596,269	-27,230	0,121	0,052
-595,255	318,971	-0,051	-0,071
-594,240	171,060	0,045	0,047
-593,225	438,495	-0,049	-0,079
-592,211	-1,846	0,092	0,047
-591,196	-168,791	-0,052	0,001
-590,182	800,000	0,036	0,113
-589,167	-68,991	-0,158	-0,044
-588,152	-118,985	0,148	-0,019
-587,138	371,783	-0,040	-0,059
-586,123	-200,000	0,009	-0,162
-585,109	-32,046	0,047	0,019
-584,094	-135,940	-0,031	0,003
-583,079	-200,000	-0,015	-0,070
-582,065	800,000	0,051	0,160
-581,050	-20,228	0,073	-0,033
-580,036	-120,364	-0,096	-0,012
-579,021	-72,604	-0,074	0,020
-578,006	800,000	0,079	0,173
-576,992	101,517	0,113	0,097
-575,977	569,380	-0,040	-0,072
-574,963	90,543	0,087	0,072
-573,948	-55,557	-0,083	0,027
-572,934	-200,000	-0,023	0,098
-571,919	-33,282	-0,046	-0,019
-570,904	25,476	-0,038	0,023
-569,890	-61,103	0,068	0,021
-568,875	-200,000	-0,211	0,000
-567,861	-200,000	0,024	0,124
-566,846	-200,000	0,004	0,227
-565,831	-69,728	-0,084	-0,023
-564,817	-200,000	0,008	-0,083
-563,802	-176,742	0,009	0,000
-562,788	667,013	-0,023	0,043
-561,773	774,313	0,035	-0,069
-560,758	-200,000	-0,022	0,101
-559,744	800,000	-0,047	0,097
-558,729	426,970	-0,074	0,118
-557,715	155,409	-0,091	-0,092
-556,700	23,524	-0,190	-0,114
-555,685	190,621	0,119	-0,131
-554,671	-200,000	0,021	0,122
-553,656	-97,464	-0,209	-0,039
-552,642	800,000	-0,040	0,128
-551,627	-200,000	-0,017	0,089
-550,612	737,382	-0,027	-0,053
-549,598	-200,000	-0,009	-0,079
-548,583	800,000	0,029	-0,094
-547,569	501,468	0,010	-0,017
-546,554	-200,000	-0,011	-0,099
-545,539	31,416	0,033	0,021
-544,525	-200,000	0,008	0,110
-543,510	-200,000	-0,006	0,037
-542,496	389,038	0,070	0,106
-541,481	-200,000	-0,011	-0,105
-540,466	800,000	0,004	-0,012
-539,452	-33,350	-0,065	-0,026
-538,437	107,215	0,135	0,117
-537,423	-90,365	-0,084	0,018
-536,408	-200,000	-0,008	-0,055
-535,393	800,000	-0,028	-0,078
-534,379	52,594	-0,073	-0,051
-533,364	800,000	0,034	-0,105
-532,350	-93,625	-0,066	0,013
-531,335	-200,000	-0,002	0,170
-530,321	800,000	0,055	0,116
-529,306	187,721	0,041	-0,045
-528,291	69,761	-0,075	0,057
-527,277	199,032	0,099	-0,111
-526,262	508,531	-0,039	-0,067
-525,248	-200,000	0,007	-0,031
-524,233	-200,000	-0,006	0,113
-523,218	-17,206	-0,100	-0,046
-522,204	-200,000	-0,036	0,187
-521,189	-200,000	-0,013	0,108
-520,175	270,428	-0,075	0,096
-519,160	800,000	-0,058	-0,179
-518,145	121,021	-0,100	0,091
-517,131	800,000	-0,044	-0,133
-516,116	20,221	-0,160	-0,094
-515,102	342,067	-0,101	0,145
-514,087	-150,029	-0,089	0,005
-513,072	100,225	0,123	0,104
-512,058	58,907	-0,041	0,029
-511,043	-200,000	-0,003	-0,056
-510,029	-160,054	0,063	-0,002
-509,014	-42,160	0,095	0,035
-507,999	-6,734	0,137	0,068
-506,985	115,994	-0,080	-0,071
-505,970	-72,229	0,016	0,004
-504,956	85,345	-0,115	-0,092
-503,941	-77,609	0,051	-0,013
-502,926	-92,873	0,083	0,017
-501,912	800,000	0,017	0,052
-500,897	-85,747	0,105	0,023
-499,883	-200,000	0,002	0,071
-498,868	-200,000	-0,039	0,201
-497,853	800,000	0,006	-0,012
-496,839	-200,000	0,010	-0,060
-495,824	452,603	-0,032	-0,052
-494,810	65,396	0,042	0,031
-493,795	-129,857	0,076	0,008
-492,781	-62,587	-0,129	0,039
-491,766	86,005	-0,102	0,082
-490,751	-1,661	-0,039	0,020
-489,737	306,183	-0,013	-0,017
-488,722	800,000	0,058	0,121
-487,708	107,018	0,090	-0,078
-486,693	-90,321	-0,063	-0,013
-485,678	0,979	0,092	-0,048
-484,664	570,632	-0,070	-0,126
-483,649	67,746	-0,044	-0,033
-482,635	258,739	-0,054	-0,069
-481,620	52,851	0,044	0,030
-480,605	-200,000	0,038	0,187
-479,591	286,097	0,067	-0,088
-478,576	206,111	0,088	-0,100
-477,562	-200,000	-0,021	-0,151
-476,547	-200,000	0,070	-0,243
-475,532	800,000	-0,011	0,032
-474,518	154,589	0,091	0,091
-473,503	447,529	0,033	0,054
-472,489	800,000	0,029	0,080
-471,474	142,718	-0,012	0,012
-470,459	50,556	0,037	-0,026
-469,445	524,357	-0,088	-0,152
-468,430	-200,000	-0,016	-0,080
-467,416	-200,000	0,004	-0,119
-466,401	58,518	0,069	-0,049
-465,386	-121,265	0,065	0,008
-464,372	572,179	0,057	0,102
-463,357	592,449	-0,103	0,186
-462,343	-91,729	-0,131	-0,027
-461,328	41,820	-0,106	-0,070
-460,313	-155,373	-0,075	-0,003
-459,299	111,652	0,072	0,063
-458,284	-56,253	-0,113	0,036
-457,270	114,134	-0,082	0,073
-456,255	176,294	0,079	-0,084
-455,241	800,000	0,021	-0,052
-454,226	-200,000	0,027	-0,172
-453,211	-200,000	-0,003	0,041
-452,197	26,681	0,097	0,059
-451,182	-200,000	-0,010	-0,119
-450,168	-78,846	0,028	0,007
-449,153	701,072	0,006	0,012
-448,138	-31,743	0,076	-0,031
-447,124	458,419	-0,027	-0,045
-446,109	-80,006	-0,216	0,053
-445,095	161,748	0,093	0,095
-444,080	123,111	0,022	0,020
-443,065	-200,000	-0,009	0,099
-442,051	-112,295	0,077	0,011
-441,036	89,501	-0,079	0,064
-440,022	-200,000	-0,092	0,000
-439,007	201,173	0,055	-0,062
-437,992	799,389	-0,024	0,048
-436,978	306,862	-0,068	-0,093
-435,963	-200,000	0,010	0,073
-434,949	-125,899	-0,175	-0,019
-433,934	-200,000	-0,046	0,160
-432,919	-200,000	-0,003	0,045
-431,905	-153,892	0,177	-0,009
-430,890	-125,774	0,096	-0,010
-429,876	800,000	-0,076	0,161
-428,861	-135,304	0,189	-0,016
-427,846	-149,199	0,071	0,004
-426,832	-200,000	-0,011	-0,097
-425,817	-200,000	-0,007	-0,036
-424,803	-200,000	-0,012	-0,062
-423,788	363,879	0,062	0,091
-422,773	-70,292	-0,060	0,017
-421,759	-72,001	-0,134	-0,036
-420,744	-200,000	0,008	0,026
-419,730	-78,634	-0,096	0,024
-418,715	-200,000	-0,010	0,096
-417,701	76,069	-0,029	0,022
-416,686	167,410	0,099	0,102
-415,671	-200,000	0,009	0,083
-414,657	276,414	0,105	0,136
-413,642	-90,642	0,151	-0,031
-412,628	-200,000	0,042	-0,167
-411,613	-30,926	-0,145	-0,059
-410,598	28,171	-0,077	-0,048
-409,584	-200,000	-0,013	-0,130
-408,569	450,470	-0,015	0,025
-407,555	479,092	-0,042	0,070
-406,540	80,800	-0,079	-0,062
-405,525	-33,009	-0,149	0,060
-404,511	655,814	0,097	-0,183
-403,496	-200,000	0,006	-0,099
-402,482	-126,145	0,042	-0,005
-401,467	69,514	-0,032	-0,024
-400,452	-174,933	0,152	0,003
-399,438	-200,000	-0,001	0,016
-398,423	214,687	-0,079	0,091
-397,409	-144,083	0,071	-0,005
-396,394	312,544	-0,042	0,057
-395,379	-130,938	0,090	0,009
-394,365	166,856	0,044	-0,045
-393,350	-150,079	0,166	0,009
-392,336	-35,954	0,100	0,039
-391,321	1,555	0,013	0,007
-390,306	-70,363	0,110	-0,030
-389,292	270,282	-0,088	0,112
-388,277	65,061	-0,088	0,065
-387,263	-46,932	0,070	-0,025
-386,248	81,522	0,167	0,132
-385,233	-200,000	-0,026	0,158
-384,219	18,748	0,046	0,027
-383,204	118,177	-0,120	-0,107
-382,190	800,000	-0,060	-0,171
-381,175	-14,840	-0,113	0,053
-380,160	383,095	0,036	0,054
-379,146	-200,000	0,010	-0,059
-378,131	800,000	-0,072	0,162
-377,117	-120,834	0,105	0,013
-376,102	-200,000	0,001	-0,068
-375,088	-200,000	0,018	-0,089
-374,073	70,998	0,033	-0,025
-373,058	-43,041	0,041	0,015
-372,044	90,213	0,112	0,091
-371,029	114,440	-0,067	0,060
-370,015	-200,000	-0,020	0,109
-369,000	-137,989	0,071	-0,006
-367,985	543,223	-0,077	-0,134
-366,971	-200,000	0,027	0,106
-365,956	-47,194	0,040	-0,014
-364,942	800,000	-0,037	-0,098
-363,927	-106,067	0,169	0,027
-362,912	800,000	0,047	0,112
-361,898	404,667	0,011	0,017
-360,883	-200,000	-0,015	-0,094
-359,869	-36,074	0,045	-0,017
-358,854	774,112	0,033	-0,065
-357,839	61,947	-0,063	0,045
-356,825	-52,732	0,149	-0,050
-355,810	79,585	0,040	0,031
-354,796	-119,986	-0,063	0,008
-353,781	-17,233	-0,041	0,019
-352,766	139,092	0,094	-0,089
-351,752	72,103	0,082	0,062
-350,737	-3,685	-0,075	0,038
-349,723	360,926	0,037	-0,054
-348,708	57,378	0,024	0,017
-347,693	476,755	0,038	0,063
-346,679	-151,530	0,117	-0,006
-345,664	93,514	0,097	-0,079
-344,650	800,000	0,053	-0,119
-343,635	-3,826	0,054	-0,027
-342,620	8,127	0,103	-0,056
-341,606	-45,123	0,081	-0,029
-340,591	-23,783	0,072	-0,031
-339,577	739,942	-0,031	0,060
-338,562	-187,770	-0,065	0,001
-337,548	70,299	-0,042	0,031
-336,533	529,588	0,013	0,023
-335,518	134,128	0,065	-0,061
-334,504	-200,000	0,043	0,161
-333,489	800,000	-0,021	-0,046
-332,475	800,000	0,048	0,110
-331,460	279,472	-0,045	-0,059
-330,445	30,717	-0,179	-0,111
-329,431	-72,796	-0,077	0,021
-328,416	-133,206	0,083	-0,007
-327,402	800,000	-0,038	0,084
-326,387	230,995	0,068	0,081
-325,372	-94,692	0,073	-0,014
-324,358	800,000	-0,065	-0,133
-323,343	396,479	0,036	0,054
-322,329	-8,415	-0,009	-0,004
-321,314	91,416	-0,056	0,045
-320,299	86,823	0,108	0,087
-319,285	542,339	-0,029	-0,050
-318,270	129,859	-0,073	0,068
-317,256	-200,000	0,010	0,061
-316,241	202,270	-0,091	0,102
-315,226	800,000	0,083	-0,175
-314,212	800,000	0,045	-0,100
-313,197	232,102	-0,021	0,025
-312,183	156,850	-0,050	-0,050
-311,168	112,163	0,144	-0,126
-310,153	213,055	-0,063	-0,072
-309,139	11,905	-0,037	-0,021
-308,124	147,543	0,087	0,085
-307,110	800,000	0,046	-0,094
-306,095	-124,646	0,085	0,009
-305,080	-59,445	0,048	0,015
-304,066	-200,000	-0,017	-0,172
-303,051	25,034	0,085	0,051
-302,037	-134,429	-0,141	-0,012
-301,022	800,000	-0,033	0,101
-300,008	111,848	0,082	-0,072
-298,993	187,009	0,038	0,041
-297,978	800,000	-0,039	0,092
-296,964	205,294	0,035	0,040
-295,949	51,407	0,045	0,031
-294,935	310,992	-0,073	0,100
-293,920	-66,111	-0,136	0,039
-292,905	800,000	0,022	-0,056
-291,891	-150,339	0,068	0,004
-290,876	142,328	0,027	0,026
-289,862	800,000	-0,048	-0,152
-288,847	-41,649	-0,100	-0,037
-287,832	235,340	0,058	-0,070
-286,818	178,689	0,060	-0,064
-285,803	-48,814	0,097	-0,034
-284,789	235,250	-0,054	0,065
-283,774	184,793	0,040	0,043
-282,759	800,000	0,052	-0,142
-281,745	-68,830	0,020	-0,006
-280,730	-94,953	0,076	0,015
-279,716	-89,307	-0,096	0,020
-278,701	800,000	0,031	0,073
-277,686	635,336	-0,016	0,029
-276,672	-200,000	-0,013	0,051
-275,657	-200,000	0,041	0,135
-274,643	64,839	-0,087	-0,064
-273,628	294,994	0,020	0,027
-272,613	236,992	0,035	0,041
-271,599	800,000	-0,059	-0,119
-270,584	-138,585	0,073	0,006
-269,570	-200,000	0,016	0,234
-268,555	421,937	0,063	0,098
-267,540	-128,301	-0,058	-0,006
-266,526	-200,000	-0,013	-0,058
-265,511	410,349	0,060	0,093
-264,497	-200,000	0,018	-0,096
-263,482	800,000	-0,015	0,046
-262,467	67,692	-0,051	0,038
-261,453	-200,000	0,001	-0,031
-260,438	-120,123	-0,041	-0,005
-259,424	-17,985	-0,108	0,049
-258,409	100,346	-0,068	-0,057
-257,395	258,859	0,060	0,075
-256,380	116,617	-0,042	0,037
-255,365	-106,858	0,062	0,010
-254,351	365,505	0,044	-0,064
-253,336	238,922	-0,073	0,088
-252,322	291,124	-0,037	-0,049
-251,307	75,483	0,053	-0,041
-250,292	726,062	0,039	0,075
-249,278	39,562	-0,155	0,100
-248,263	221,283	0,138	0,161
-247,249	49,290	0,037	0,025
-246,234	-200,000	-0,008	0,083
-245,219	-62,535	0,108	0,032
-244,205	229,999	0,105	-0,124
-243,190	174,142	0,053	0,055
-242,176	-39,413	0,188	0,071
-241,161	-125,398	0,147	-0,016
-240,146	-200,000	0,016	-0,125
-239,132	-200,000	-0,020	0,103
-238,117	-200,000	0,037	-0,209
-237,103	-25,729	-0,113	-0,048
-236,088	-45,036	-0,136	0,049
-235,073	27,416	0,156	0,095
-234,059	168,693	0,087	-0,090
-233,044	800,000	0,028	0,082
-232,030	-200,000	-0,022	-0,094
-231,015	242,555	-0,044	-0,054
-230,000	462,042	-0,114	0,185
-228,986	26,397	-0,079	-0,048
-227,971	-167,489	0,065	0,002
-226,957	-68,721	-0,198	-0,055
-225,942	800,000	0,037	0,119
-224,927	-5,094	-0,035	0,018
-223,913	-39,649	-0,133	-0,050
-222,898	66,082	0,090	-0,066
-221,884	20,046	0,040	0,023
-220,869	206,615	0,076	-0,086
-219,855	-200,000	0,002	0,045
-218,840	-200,000	0,013	-0,072
-217,825	-200,000	0,007	0,065
-216,811	-125,341	0,111	-0,012
-215,796	800,000	-0,018	0,050
-214,782	800,000	-0,010	0,030
-213,767	572,516	0,054	0,095
-212,752	70,488	0,089	0,066
-211,738	-195,683	-0,063	-0,000
-210,723	-200,000	-0,037	-0,133
-209,709	287,030	-0,033	-0,043
-208,694	800,000	0,029	-0,076
-207,679	-200,000	0,002	-0,059
-206,665	61,617	0,090	-0,065
-205,650	-80,870	0,088	-0,021
-204,636	617,773	-0,052	-0,095
-203,621	40,213	-0,078	0,050
-202,606	-54,725	0,173	0,056
-201,592	-99,204	-0,061	-0,011
-200,577	-200,000	-0,006	-0,128
-199,563	71,315	0,080	0,060
-198,548	259,672	0,148	0,184
-197,533	-200,000	-0,012	0,119
-196,519	-41,456	-0,182	0,067
-195,504	800,000	0,035	-0,096
-194,490	208,935	0,077	-0,088
-193,475	422,232	-0,035	-0,055
-192,460	-73,483	-0,090	-0,023
-191,446	-194,846	0,119	-0,001
-190,431	-200,000	0,008	0,105
-189,417	160,799	-0,045	0,045
-188,402	-200,000	0,006	0,073
-187,387	-46,573	0,033	-0,012
-186,373	351,127	0,024	0,034
-185,358	800,000	-0,038	-0,103
-184,344	800,000	-0,028	0,081
-183,329	-200,000	-0,015	-0,078
-182,315	656,690	-0,066	0,122
-181,300	20,671	0,179	-0,104
-180,285	-200,000	0,003	-0,085
-179,271	-60,714	-0,113	-0,034
-178,256	391,858	-0,030	0,045
-177,242	778,493	-0,011	-0,022
-176,227	93,138	-0,142	-0,116
-175,212	800,000	0,031	0,081
-174,198	290,387	-0,042	0,055
-173,183	252,617	0,038	0,047
-172,169	-200,000	0,011	-0,159
-171,154	-15,890	-0,100	-0,046
-170,139	5,713	-0,022	0,012
-169,125	91,008	-0,062	0,050
-168,110	227,886	0,066	0,077
-167,096	-161,695	-0,051	-0,002
-166,081	657,384	-0,013	-0,024
-165,066	50,939	-0,044	-0,030
-164,052	266,936	-0,011	-0,014
-163,037	21,399	0,114	-0,067
-162,023	800,000	-0,020	-0,045
-161,008	113,236	0,084	0,073
-159,993	9,399	0,088	-0,048
-158,979	-121,488	-0,088	-0,010
-157,964	434,373	-0,062	0,097
-156,950	384,151	-0,067	0,099
-155,935	-127,547	0,130	0,013
-154,920	800,000	-0,033	-0,079
-153,906	-0,258	0,084	-0,043
-152,891	800,000	0,027	0,073
-151,877	-94,692	0,148	0,029
-150,862	-138,809	0,079	-0,006
-149,847	-200,000	0,038	0,153
-148,833	800,000	0,025	0,057
-147,818	342,908	-0,043	-0,061
-146,804	800,000	0,023	0,047
-145,789	-118,019	0,028	0,004
-144,775	-200,000	0,047	-0,255
-143,760	98,871	-0,027	-0,023
-142,745	198,757	0,058	-0,064
-141,731	377,135	-0,011	0,017
-140,716	-26,370	-0,109	0,046
-139,702	-95,489	0,061	-0,012
-138,687	-37,225	0,113	0,043
-137,672	-8,486	-0,019	-0,009
-136,658	-122,427	-0,022	0,003
-135,643	119,039	0,092	0,082
-134,629	-200,000	-0,013	0,146
-133,614	-200,000	-0,022	0,207
-132,599	800,000	-0,038	-0,090
-131,585	257,317	0,071	0,088
-130,570	-200,000	0,026	0,101
-129,556	800,000	0,027	-0,086
-128,541	523,681	0,048	0,081
-127,526	800,000	-0,020	-0,050
-126,512	-127,684	0,039	-0,004
-125,497	-200,000	-0,027	0,090
-124,483	52,385	0,130	-0,089
-123,468	-74,498	-0,119	0,031
-122,453	800,000	0,076	-0,175
-121,439	-200,000	0,001	0,031
-120,424	115,411	0,104	-0,091
-119,410	-108,720	0,179	-0,027
-118,395	228,360	-0,027	-0,032
-117,380	-200,000	0,016	-0,052
-116,366	100,887	-0,078	0,065
-115,351	800,000	-0,042	0,106
-114,337	239,639	-0,041	0,049
-113,322	-25,841	0,184	0,077
-112,307	-200,000	-0,004	-0,014
-111,293	14,431	0,092	-0,051
-110,278	13,184	0,114	-0,063
-109,264	-104,727	-0,145	-0,024
-108,249	159,378	0,024	-0,024
-107,234	-131,770	-0,039	-0,004
-106,220	199,986	0,026	-0,029
-105,205	53,580	-0,035	0,024
-104,191	-20,951	0,100	0,044
-103,176	120,303	-0,086	-0,077
-102,162	88,518	0,064	-0,051
-101,147	800,000	0,020	-0,052
-100,132	-11,434	-0,048	-0,023
-99,118	-200,000	0,002	-0,025
-98,103	329,925	-0,065	0,090
-97,089	229,845	0,073	0,086
-96,074	800,000	0,034	0,070
-95,059	-38,311	-0,074	0,028
-94,045	-200,000	-0,002	0,046
-93,030	-200,000	0,079	-0,271
-92,016	394,030	-0,089	0,133
-91,001	75,373	0,087	0,066
-89,986	-200,000	0,036	0,141
-88,972	154,962	0,073	0,072
-87,957	-101,191	0,117	0,020
-86,943	-200,000	-0,036	0,132
-85,928	-44,559	0,093	-0,033
-84,913	231,784	-0,090	0,106
-83,899	-139,353	-0,195	0,015
-82,884	-139,509	0,055	-0,004
-81,870	38,903	-0,068	0,044
-80,855	-90,683	-0,052	-0,011
-79,840	-200,000	0,008	-0,105
-78,826	-200,000	-0,051	-0,186
-77,811	41,715	-0,160	-0,104
-76,797	-200,000	-0,042	-0,137
-75,782	133,685	0,019	-0,018
-74,767	148,639	0,111	0,108
-73,753	223,083	-0,050	-0,058
-72,738	-200,000	-0,013	0,064
-71,724	800,000	-0,017	0,050
-70,709	282,742	0,108	0,139
-69,694	800,000	0,038	0,084
-68,680	-38,480	0,104	0,039
-67,665	755,978	-0,025	0,048
-66,651	234,092	-0,046	0,055
-65,636	-62,576	-0,188	-0,056
-64,622	-200,000	0,000	-0,099
-63,607	797,881	-0,052	-0,103
-62,592	800,000	0,023	-0,049
-61,578	-56,948	0,207	-0,065
-60,563	-200,000	0,016	0,138
-59,549	-200,000	-0,086	0,273
-58,534	85,011	-2,726	-2,145
-57,519	52,020	0,423	-0,289
-56,505	-200,000	-1,713	-5,495
-55,490	523,556	1,125	1,906
-54,476	800,000	5,266	11,284
-53,461	-200,000	22,289	349,663
-52,446	800,000	760,609	2296,010
-51,432	513,160	1645,158	2763,824
-50,417	96,751	1607,822	1321,737
-49,403	64,446	1264,567	913,580
-48,388	22,761	1016,728	596,390
-47,373	19,480	984,191	566,465
-46,359	12,785	971,284	537,125
-45,344	8,490	968,019	521,233
-44,330	8,944	966,069	521,651
-43,315	7,919	964,182	517,261
-42,300	7,933	963,097	516,705
-41,286	7,868	962,132	515,956
-40,271	7,877	961,156	515,440
-39,257	7,879	960,093	514,856
-38,242	7,849	959,467	514,401
-37,227	7,876	958,411	513,902
-36,213	7,779	957,808	513,245
-35,198	7,849	956,906	512,967
-34,184	7,856	956,201	512,591
-33,169	7,791	955,269	511,863
-32,154	7,916	954,240	511,695
-31,140	7,862	953,461	511,082
-30,125	7,888	952,703	510,739
-29,111	7,799	951,954	510,029
-28,096	7,899	951,183	509,919
-27,082	7,881	950,622	509,541
-26,067	7,868	949,843	509,060
-25,052	7,831	948,980	508,460
-24,038	7,891	948,205	508,217
-23,023	7,803	947,602	507,592
-22,009	7,823	947,183	507,412
-20,994	7,862	946,351	507,069
-19,979	7,837	945,826	506,688
-18,965	7,809	945,222	506,253
-17,950	7,847	944,387	505,910
-16,936	7,815	943,906	505,529
-15,921	7,814	943,120	505,085
-14,906	7,709	942,430	504,361
-13,892	7,716	941,830	504,042
-12,877	7,678	941,364	503,649
-11,863	7,713	940,812	503,446
-10,848	7,734	940,091	503,106
-9,833	7,810	939,900	503,229
-8,819	7,800	938,935	502,659
-7,804	7,755	938,272	502,140
-6,790	7,714	937,843	501,760
-5,775	7,807	937,246	501,717
-4,760	7,781	936,488	501,209
-3,746	7,697	936,212	500,777
-2,731	7,592	935,261	499,913
-1,717	7,626	934,503	499,596
-0,702	7,630	934,032	499,339
0,313	7,416	933,365	499,058
1,327	10,961	931,090	508,973
2,342	19,655	779,040	448,623
3,356	14,704	446,950	249,924
4,371	-11,945	311,561	145,954
5,386	-15,740	294,130	133,947
6,400	-17,709	287,949	129,175
7,415	-17,723	285,372	127,995
8,429	-18,653	283,763	126,356
9,444	-18,599	282,685	125,916
10,459	-18,316	282,025	125,885
11,473	-18,568	281,508	125,400
12,488	-18,556	280,972	125,162
13,502	-18,674	280,585	124,865
14,517	-18,266	280,098	125,028
15,531	-18,399	279,550	124,645
16,546	-18,227	279,262	124,670
17,561	-18,190	278,830	124,501
18,575	-18,165	278,551	124,390
19,590	-18,233	278,269	124,188
20,604	-17,931	277,801	124,256
21,619	-18,342	277,561	123,746
22,634	-18,024	277,214	123,883
23,648	-18,175	276,784	123,536
24,663	-18,052	276,745	123,625
25,677	-18,312	276,540	123,276
26,692	-18,158	276,050	123,192
27,707	-18,061	275,793	123,158
28,721	-18,119	275,591	123,002
29,736	-18,208	275,404	122,824
30,750	-18,061	275,008	122,774
31,765	-18,225	274,686	122,466
32,780	-18,300	274,755	122,415
33,794	-18,153	274,230	122,308
34,809	-18,335	274,229	122,125
35,823	-18,303	273,848	121,975
36,838	-18,158	273,372	121,888
37,853	-18,004	273,233	121,959
38,867	-18,191	273,040	121,688
39,882	-18,116	272,786	121,633
40,896	-18,094	272,562	121,544
41,911	-17,915	272,084	121,486
42,926	-18,215	272,098	121,202
43,940	-18,164	271,734	121,076
44,955	-18,169	271,668	121,032
45,969	-18,150	271,338	120,891
46,984	-18,179	271,131	120,761
47,999	-18,252	271,089	120,664
49,013	-17,774	270,818	120,976
50,028	-18,014	270,583	120,638
51,042	-18,062	270,409	120,505
52,057	-17,985	270,185	120,466
53,071	-18,052	269,907	120,269
54,086	-17,941	269,850	120,335
55,101	-17,926	269,511	120,187
56,115	-18,138	269,223	119,853
57,130	-18,047	268,966	119,812
58,144	-18,166	268,617	119,537
59,159	-18,073	268,370	119,501
60,174	-18,084	268,028	119,328
61,188	-18,059	267,973	119,316
62,203	-18,046	267,628	119,163
63,217	-18,002	267,556	119,161
64,232	-17,998	267,203	118,997
65,247	-18,253	267,031	118,678
66,261	-18,057	266,776	118,731
67,276	-17,907	266,542	118,754
68,290	-17,964	266,304	118,585
69,305	-17,962	266,256	118,555
70,320	-17,877	265,852	118,442
71,334	-17,957	265,676	118,280
72,349	-18,067	265,411	118,051
73,363	-18,235	265,222	117,805
74,378	-18,292	264,931	117,614
75,393	-18,127	264,813	117,700
76,407	-18,106	264,546	117,590
77,422	-18,075	264,437	117,559
78,436	-18,060	263,988	117,362
79,451	-18,348	263,961	117,081
80,466	-18,052	263,650	117,199
81,480	-18,179	263,604	117,053
82,495	-18,005	263,276	117,054
83,509	-18,008	263,081	116,954
84,524	-18,053	262,774	116,766
85,539	-18,007	262,658	116,746
86,553	-17,837	262,401	116,773
87,568	-17,895	262,126	116,589
88,582	-18,057	261,966	116,362
89,597	-18,068	261,779	116,258
90,611	-18,023	261,613	116,215
91,626	-18,002	261,454	116,153
92,641	-18,033	261,113	115,963
93,655	-18,128	260,890	115,770
94,670	-17,914	260,624	115,831
95,684	-18,262	260,670	115,532
96,699	-18,101	260,380	115,536
97,714	-18,145	260,089	115,358
98,728	-18,062	259,871	115,325
99,743	-17,824	259,649	115,426
100,757	-17,804	259,492	115,364
101,772	-17,986	259,256	115,087
102,787	-18,003	259,008	114,952
103,801	-18,044	258,897	114,856
104,816	-17,790	258,663	114,966
105,830	-18,145	258,608	114,619
106,845	-18,099	258,401	114,557
107,860	-18,111	258,232	114,461
108,874	-18,169	257,789	114,204
109,889	-18,017	257,738	114,305
110,903	-17,970	257,356	114,167
111,918	-17,919	257,309	114,180
112,933	-17,950	257,092	114,046
113,947	-17,964	256,844	113,914
114,962	-17,886	256,641	113,882
115,976	-18,138	256,484	113,582
116,991	-18,032	256,300	113,583
118,006	-18,036	256,124	113,492
119,020	-18,106	255,867	113,307
120,035	-17,970	255,787	113,379
121,049	-17,881	255,493	113,316
122,064	-17,872	255,347	113,249
123,079	-18,083	255,284	113,028
124,093	-17,904	254,931	113,017
125,108	-18,038	254,758	112,814
126,122	-18,078	254,752	112,767
127,137	-17,826	254,260	112,756
128,151	-17,909	254,241	112,666
129,166	-17,851	253,894	112,553
130,181	-18,008	253,664	112,305
131,195	-18,030	253,543	112,223
132,210	-17,899	253,293	112,215
133,224	-17,925	253,199	112,141
134,239	-17,939	252,888	111,981
135,254	-18,019	252,735	111,834
136,268	-17,989	252,574	111,779
137,283	-17,851	252,292	111,762
138,297	-17,832	252,262	111,756
139,312	-17,904	251,986	111,562
140,327	-17,921	251,651	111,389
141,341	-18,013	251,389	111,185
142,356	-18,198	251,410	111,026
143,370	-17,902	251,152	111,155
144,385	-17,895	251,029	111,096
145,400	-18,077	250,723	110,796
146,414	-17,887	250,409	110,808
147,429	-18,179	250,440	110,565
148,443	-17,964	250,153	110,610
149,458	-17,924	250,211	110,660
150,473	-17,755	249,643	110,542
151,487	-17,931	249,758	110,434
152,502	-17,954	249,402	110,247
153,516	-17,813	249,133	110,237
154,531	-17,980	249,184	110,110
155,546	-17,942	248,944	110,025
156,560	-17,844	248,617	109,954
157,575	-17,998	248,566	109,792
158,589	-17,888	248,213	109,719
159,604	-18,137	248,222	109,503
160,619	-17,884	247,924	109,575
161,633	-17,901	247,895	109,537
162,648	-17,942	247,676	109,397
163,662	-17,718	247,431	109,466
164,677	-17,835	247,293	109,298
165,692	-17,876	247,158	109,194
166,706	-18,123	246,967	108,893
167,721	-18,083	246,882	108,880
168,735	-17,796	246,588	108,980
169,750	-17,834	246,318	108,819
170,764	-18,103	246,314	108,584
171,779	-18,159	246,139	108,450
172,794	-18,049	246,140	108,532
173,808	-17,852	245,770	108,523
174,823	-17,805	245,632	108,492
175,837	-17,897	245,593	108,389
176,852	-17,852	245,360	108,313
177,867	-18,022	245,092	108,044
178,881	-17,865	245,084	108,161
179,896	-17,817	244,792	108,062
180,910	-17,894	244,590	107,900
181,925	-17,928	244,519	107,831
182,940	-18,106	244,301	107,578
183,954	-18,049	244,010	107,488
184,969	-17,979	243,867	107,473
185,983	-18,029	243,717	107,355
186,998	-18,036	243,546	107,265
188,013	-17,905	243,284	107,248
189,027	-17,879	243,034	107,149
190,042	-18,097	242,985	106,940
191,056	-17,979	242,608	106,861
192,071	-18,027	242,660	106,835
193,086	-17,963	242,398	106,762
194,100	-17,883	242,200	106,731
195,115	-18,076	242,085	106,513
196,129	-17,882	241,818	106,544
197,144	-17,900	241,644	106,443
198,159	-18,098	241,462	106,192
199,173	-18,041	241,343	106,177
200,188	-18,211	241,158	105,948
201,202	-17,986	241,102	106,097
202,217	-17,775	240,811	106,131
203,232	-17,762	240,680	106,074
204,246	-17,977	240,261	105,706
205,261	-18,258	240,149	105,419
206,275	-16,849	240,629	106,764
207,290	-12,250	242,391	111,292
208,304	-5,597	244,232	117,591
209,319	-2,373	245,320	120,758
210,334	-1,020	245,495	121,946
211,348	-0,202	245,684	122,702
212,363	0,328	245,620	123,094
213,377	0,445	245,542	123,140
214,392	0,787	245,372	123,325
215,407	0,851	245,357	123,359
216,421	1,118	245,387	123,581
217,436	1,267	245,035	123,515
218,450	1,240	245,083	123,506
219,465	1,333	244,868	123,463
220,480	1,508	244,685	123,503
221,494	1,109	244,586	123,116
222,509	0,864	244,163	122,692
223,523	0,614	244,017	122,404
224,538	0,532	243,833	122,234
225,553	0,482	243,502	122,016
226,567	0,412	243,403	121,898
227,582	0,538	243,333	121,955
228,596	0,636	243,147	121,931
229,611	0,412	243,008	121,668
230,626	0,580	242,749	121,664
231,640	0,484	242,687	121,545
232,655	0,445	242,570	121,444
233,669	0,472	242,296	121,317
234,684	0,609	242,145	121,341
235,699	0,658	242,054	121,324
236,713	0,628	241,864	121,195
237,728	0,677	241,642	121,112
238,742	0,368	241,554	120,808
239,757	0,499	241,401	120,826
240,772	0,676	241,086	120,800
241,786	0,516	241,164	120,699
242,801	0,351	240,896	120,422
243,815	0,349	240,713	120,318
244,830	0,462	240,561	120,323
245,844	0,466	240,449	120,259
246,859	0,392	240,253	120,091
247,874	0,249	240,071	119,874
248,888	0,407	239,952	119,930
249,903	0,484	239,850	119,931
250,917	0,595	239,707	119,937
251,932	0,636	239,581	119,896
252,947	0,850	239,156	119,843
253,961	0,487	239,194	119,562
254,976	0,549	239,018	119,513
255,990	0,512	238,990	119,459
257,005	0,530	238,637	119,286
258,020	0,729	238,541	119,386
259,034	0,822	238,427	119,391
260,049	0,468	238,357	119,066
261,063	0,569	238,226	119,069
262,078	0,476	237,957	118,850
263,093	0,391	237,934	118,761
264,107	0,485	237,609	118,663
265,122	0,483	237,618	118,655
266,136	0,497	237,369	118,532
267,151	0,526	237,210	118,464
268,166	0,789	236,994	118,553
269,180	0,488	236,735	118,176
270,195	0,513	236,744	118,190
271,209	0,495	236,617	118,101
272,224	0,747	236,464	118,212
273,239	0,428	236,306	117,872
274,253	0,581	236,070	117,864
275,268	0,537	235,897	117,733
276,282	0,395	235,793	117,559
277,297	0,497	235,649	117,557
278,312	0,731	235,442	117,627
279,326	0,570	235,417	117,478
280,341	0,290	235,259	117,169
281,355	0,570	234,984	117,240
282,370	0,714	234,857	117,279
283,384	0,544	234,830	117,122
284,399	0,543	234,746	117,069
285,414	0,338	234,519	116,786
286,428	0,479	234,333	116,792
287,443	0,608	234,127	116,780
288,457	0,352	234,082	116,548
289,472	0,557	233,859	116,585
290,487	0,726	233,622	116,588
291,501	0,604	233,640	116,492
292,516	0,807	233,333	116,486
293,530	0,749	233,314	116,421
294,545	0,679	233,170	116,284
295,560	0,767	232,979	116,247
296,574	0,695	232,833	116,109
297,589	0,611	232,764	115,999
298,603	0,640	232,552	115,905
299,618	0,690	232,432	115,873
300,633	0,709	232,323	115,823
301,647	0,852	232,074	115,799
302,662	0,960	231,839	115,754
303,676	0,680	231,971	115,595
304,691	0,926	231,527	115,552
305,706	0,796	231,557	115,457
306,720	0,853	231,361	115,392
307,735	0,706	231,374	115,276
308,749	0,840	231,082	115,223
309,764	1,051	230,732	115,199
310,779	0,899	230,678	115,046
311,793	0,685	230,589	114,828
312,808	0,939	230,449	114,942
313,822	0,629	230,180	114,561
314,837	0,761	230,119	114,621
315,852	1,010	230,078	114,780
316,866	0,827	229,908	114,546
317,881	0,962	229,705	114,537
318,895	0,919	229,627	114,455
319,910	0,876	229,428	114,313
320,925	0,697	229,312	114,109
321,939	0,647	229,177	113,993
322,954	0,705	229,197	114,038
323,968	1,064	228,957	114,180
324,983	0,829	228,880	113,954
325,997	0,807	228,597	113,786
327,012	0,751	228,552	113,711
328,027	0,837	228,195	113,588
329,041	1,025	228,261	113,753
330,056	0,788	228,042	113,455
331,070	0,996	227,922	113,541
332,085	0,910	227,689	113,351
333,100	0,783	227,574	113,187
334,114	0,970	227,300	113,182
335,129	0,976	227,200	113,127
336,143	0,744	227,128	112,907
337,158	0,992	226,931	112,985
338,173	0,812	227,027	112,887
339,187	1,085	226,637	112,888
340,202	1,005	226,450	112,725
341,216	0,969	226,423	112,674
342,231	1,007	226,225	112,594
343,246	0,890	226,191	112,480
344,260	1,006	225,973	112,448
345,275	0,886	225,839	112,282
346,289	0,882	225,730	112,215
347,304	1,009	225,629	112,249
348,319	1,010	225,470	112,161
349,333	1,216	225,282	112,211
350,348	0,987	225,035	111,907
351,362	1,162	224,856	111,938
352,377	0,823	224,886	111,691
353,392	1,053	224,726	111,772
354,406	0,900	224,449	111,512
355,421	191,549	1310,592	1374,617
356,435	153,382	1442,782	1374,454
