DTS Sentinel unit serial number:	SN410029Multiplexer serial number:	ORYXHardware model number:	OX2-SRSoftware version number:	ORYX F/W v4,00 Oryx Data Collector v3.7.2.0data status	okinstallation	B5 Nyhavnadifferential loss correction	single-endedforward channel	channel 2reverse channel	N/Adate	2023/12/14time	07:02:13forward acquisition time	300,00reverse acquisition time	0,00gamma	499,1914k internal	0,3159k external	0,3159temperature offset calibration	1,0000default loss term (dB/km)	0,3820temperature slope calibration	1,0000multiplexer offset coefficient	1,0000multiplexer slope coefficient	1,0000fibre end	0,00T internal ref (°C)	7,28T ext. ref 1 (°C)	-9,15T ext. ref 2 (°C)	-9,25length (m)	temperature (°C)	Stokes	anti-Stokes-744,400	-95,776	0,144	-0,028
-743,385	-123,738	-0,335	-0,039
-742,371	-107,759	0,236	0,037
-741,356	-101,648	-0,354	-0,063
-740,342	318,034	0,140	0,196
-739,327	-76,001	-0,432	-0,112
-738,312	-101,534	0,148	0,026
-737,298	-134,412	-0,395	-0,035
-736,283	-60,033	0,168	-0,053
-735,269	-82,177	-0,431	0,103
-734,254	56,120	0,200	0,143
-733,239	-50,035	-0,517	-0,180
-732,225	96,522	0,252	0,213
-731,210	104,095	-0,031	0,027
-730,196	-143,860	-0,052	-0,004
-729,181	485,362	0,066	-0,111
-728,167	800,000	0,074	-0,171
-727,152	64,973	0,044	0,033
-726,137	4,046	-0,188	0,101
-725,123	-17,215	-0,086	-0,040
-724,108	800,000	0,037	-0,088
-723,094	-141,898	-0,232	-0,017
-722,079	-200,000	-0,012	-0,049
-721,064	800,000	-0,017	-0,041
-720,050	-200,000	-0,003	-0,086
-719,035	494,807	-0,056	-0,095
-718,021	-200,000	0,004	0,018
-717,006	198,840	0,035	-0,040
-715,991	83,490	-0,053	-0,042
-714,977	-117,989	-0,115	-0,015
-713,962	35,737	0,084	0,054
-712,948	800,000	-0,076	0,209
-711,933	-112,694	-0,135	0,020
-710,918	201,820	-0,080	0,091
-709,904	150,289	-0,028	-0,028
-708,889	353,881	-0,054	-0,080
-707,875	216,753	-0,086	-0,101
-706,860	-200,000	-0,013	-0,078
-705,845	90,716	-0,147	0,121
-704,831	138,103	-0,063	0,061
-703,816	-200,000	-0,002	-0,029
-702,802	30,229	-0,020	0,013
-701,787	117,098	0,070	0,063
-700,772	30,337	-0,076	-0,048
-699,758	-116,037	0,052	-0,007
-698,743	-44,211	-0,063	0,023
-697,729	47,661	0,124	-0,085
-696,714	-49,867	0,206	-0,071
-695,699	-200,000	0,001	0,077
-694,685	55,959	-0,024	-0,017
-693,670	-200,000	-0,050	-0,218
-692,656	7,652	-0,053	0,029
-691,641	-200,000	0,006	-0,023
-690,627	-174,284	0,063	0,001
-689,612	142,043	0,022	0,022
-688,597	800,000	-0,042	0,111
-687,583	-89,084	-0,122	-0,026
-686,568	-200,000	-0,004	-0,060
-685,554	-23,166	0,071	-0,032
-684,539	206,127	0,099	-0,113
-683,524	800,000	0,046	0,103
-682,510	-135,054	-0,040	0,003
-681,495	529,289	-0,018	-0,032
-680,481	-200,000	-0,033	0,114
-679,466	-82,732	0,011	0,002
-678,451	-200,000	0,001	-0,074
-677,437	800,000	-0,017	-0,040
-676,422	-167,331	0,014	-0,000
-675,408	18,851	-0,106	-0,062
-674,393	-162,395	-0,063	-0,002
-673,378	568,285	-0,066	-0,119
-672,364	800,000	-0,029	-0,063
-671,349	200,153	-0,068	-0,077
-670,335	800,000	0,021	0,049
-669,320	137,359	0,184	0,177
-668,305	-85,128	0,039	0,009
-667,291	104,350	0,031	-0,027
-666,276	71,017	-0,066	-0,050
-665,262	-142,617	-0,051	0,004
-664,247	-200,000	0,009	-0,157
-663,232	-200,000	0,004	0,050
-662,218	296,431	0,107	0,145
-661,203	-34,662	-0,054	0,022
-660,189	-124,912	-0,073	0,008
-659,174	151,533	-0,021	0,021
-658,159	-200,000	0,000	-0,083
-657,145	81,868	-0,059	0,047
-656,130	-102,241	-0,009	-0,002
-655,116	204,229	0,029	-0,033
-654,101	-95,609	0,133	0,026
-653,086	-200,000	-0,023	-0,087
-652,072	-23,258	-0,128	-0,056
-651,057	-140,734	-0,130	-0,010
-650,043	415,345	-0,070	0,110
-649,028	-200,000	-0,008	-0,068
-648,014	52,385	0,053	0,037
-646,999	-200,000	0,008	-0,160
-645,984	72,012	0,068	0,052
-644,970	59,080	-0,061	0,044
-643,955	23,984	-0,125	-0,076
-642,941	-200,000	0,023	0,074
-641,926	76,789	0,112	0,087
-640,911	800,000	0,038	-0,087
-639,897	360,874	-0,031	0,045
-638,882	708,483	0,028	-0,055
-637,868	800,000	-0,047	-0,107
-636,853	-200,000	0,036	0,154
-635,838	86,927	0,045	-0,037
-634,824	-200,000	0,001	-0,008
-633,809	800,000	-0,047	-0,132
-632,795	-200,000	-0,049	-0,164
-631,780	82,596	0,089	0,071
-630,765	800,000	0,031	0,093
-629,751	-124,966	-0,066	-0,007
-628,736	91,440	-0,045	-0,037
-627,722	31,398	-0,042	-0,026
-626,707	-58,512	0,095	-0,030
-625,692	800,000	0,026	0,078
-624,678	-200,000	-0,005	0,149
-623,663	726,996	0,052	-0,101
-622,649	217,846	-0,093	-0,109
-621,634	107,009	0,050	0,044
-620,619	119,687	-0,068	0,062
-619,605	-200,000	0,005	-0,054
-618,590	-6,202	0,024	-0,012
-617,576	800,000	0,069	-0,189
-616,561	188,854	-0,018	-0,020
-615,546	158,159	-0,050	-0,051
-614,532	324,986	-0,094	-0,132
-613,517	-92,938	-0,034	0,007
-612,503	-109,112	0,075	-0,012
-611,488	-124,318	0,051	-0,006
-610,474	350,204	-0,058	-0,084
-609,459	-200,000	0,047	-0,162
-608,444	-200,000	0,031	0,129
-607,430	-200,000	0,001	0,081
-606,415	342,886	-0,129	-0,186
-605,401	93,008	-0,119	-0,099
-604,386	-200,000	0,005	-0,066
-603,371	-91,790	0,083	0,017
-602,357	15,382	0,099	0,057
-601,342	201,155	0,084	-0,095
-600,328	-200,000	-0,002	-0,017
-599,313	-200,000	0,010	0,033
-598,298	111,958	-0,071	-0,063
-597,284	26,238	0,136	-0,083
-596,269	-49,056	-0,081	0,028
-595,255	-33,548	-0,091	0,037
-594,240	143,413	-0,053	0,052
-593,225	-111,442	-0,180	-0,027
-592,211	-200,000	-0,008	-0,033
-591,196	107,296	0,082	0,072
-590,182	157,114	0,068	-0,069
-589,167	-61,289	0,111	0,034
-588,152	77,785	-0,111	0,086
-587,138	-200,000	0,006	0,022
-586,123	-200,000	0,023	-0,162
-585,109	-57,400	0,077	0,025
-584,094	-135,008	-0,098	0,009
-583,079	800,000	-0,036	-0,102
-582,065	-200,000	0,057	0,252
-581,050	800,000	-0,040	0,114
-580,036	31,421	-0,022	0,014
-579,021	-200,000	-0,035	-0,145
-578,006	269,413	0,034	0,044
-576,992	-75,044	0,038	0,010
-575,977	-120,623	-0,070	0,009
-574,963	482,863	0,034	0,056
-573,948	-200,000	0,006	0,130
-572,934	-200,000	0,053	-0,178
-571,919	137,360	-0,062	-0,059
-570,904	-200,000	-0,003	-0,023
-569,890	-8,716	-0,156	0,076
-568,875	800,000	0,065	0,142
-567,861	508,555	0,006	-0,011
-566,846	-143,893	0,030	-0,002
-565,831	-200,000	0,005	-0,030
-564,817	800,000	0,056	-0,172
-563,802	26,343	-0,090	0,055
-562,788	800,000	0,052	0,120
-561,773	-200,000	0,032	-0,239
-560,758	147,365	0,119	-0,118
-559,744	221,299	-0,072	0,085
-558,729	800,000	-0,048	0,122
-557,715	99,195	-0,045	0,038
-556,700	-117,467	-0,072	0,009
-555,685	556,360	0,026	0,046
-554,671	-200,000	0,020	-0,086
-553,656	-200,000	0,016	0,062
-552,642	-18,247	0,060	0,027
-551,627	800,000	0,033	0,107
-550,612	142,106	-0,038	0,037
-549,598	-13,858	0,038	-0,018
-548,583	-82,886	-0,179	-0,042
-547,569	37,599	-0,075	0,049
-546,554	167,898	0,056	-0,058
-545,539	-121,599	-0,037	-0,004
-544,525	-97,436	-0,025	0,005
-543,510	800,000	-0,062	-0,200
-542,496	-184,208	-0,145	-0,002
-541,481	-83,492	-0,075	-0,017
-540,466	-37,136	-0,162	-0,063
-539,452	93,345	0,117	0,096
-538,437	800,000	-0,069	0,169
-537,423	-12,421	-0,104	0,050
-536,408	-82,254	0,132	-0,031
-535,393	-74,456	-0,096	-0,025
-534,379	-121,167	-0,070	-0,009
-533,364	-81,384	-0,101	0,024
-532,350	800,000	0,044	0,111
-531,335	-102,493	0,030	-0,005
-530,321	-200,000	0,005	-0,067
-529,306	-49,974	0,055	-0,019
-528,291	-62,983	-0,009	-0,003
-527,277	76,820	-0,053	0,041
-526,262	64,357	-0,122	-0,090
-525,248	58,678	0,076	-0,054
-524,233	8,493	0,122	0,067
-523,218	753,149	-0,018	0,035
-522,204	-200,000	-0,008	-0,050
-521,189	231,156	0,088	-0,106
-520,175	800,000	0,011	-0,030
-519,160	235,647	0,098	-0,119
-518,145	800,000	0,009	-0,024
-517,131	-124,334	0,089	-0,010
-516,116	800,000	-0,042	-0,110
-515,102	-85,438	-0,137	0,031
-514,087	-35,320	-0,071	-0,028
-513,072	-200,000	-0,006	-0,083
-512,058	800,000	0,049	-0,128
-511,043	206,282	0,062	0,071
-510,029	800,000	0,024	-0,060
-509,014	-145,362	0,156	-0,010
-507,999	-200,000	-0,019	-0,095
-506,985	44,735	-0,117	-0,078
-505,970	-200,000	-0,013	-0,114
-504,956	-200,000	0,014	-0,199
-503,941	338,331	0,075	-0,107
-502,926	314,820	0,012	-0,016
-501,912	-200,000	-0,033	0,145
-500,897	-200,000	-0,009	0,037
-499,883	800,000	-0,019	0,058
-498,868	-132,278	-0,072	0,007
-497,853	-169,292	0,097	-0,003
-496,839	269,975	-0,021	0,026
-495,824	-79,026	-0,064	0,016
-494,810	800,000	-0,041	0,103
-493,795	666,884	0,075	-0,142
-492,781	-126,109	-0,050	0,005
-491,766	20,604	-0,087	-0,051
-490,751	138,863	0,088	-0,085
-489,737	-200,000	-0,008	-0,077
-488,722	61,097	0,120	0,087
-487,708	24,722	0,064	0,039
-486,693	-156,028	0,031	-0,001
-485,678	-50,046	-0,127	0,044
-484,664	-193,943	0,094	0,001
-483,649	350,360	-0,096	0,139
-482,635	-1,573	0,050	-0,026
-481,620	435,895	0,077	0,122
-480,605	94,661	0,085	-0,071
-479,591	-200,000	0,050	-0,179
-478,576	-53,824	0,049	-0,016
-477,562	-200,000	-0,006	-0,085
-476,547	532,075	0,016	-0,028
-475,532	-36,284	-0,146	0,057
-474,518	-200,000	-0,006	-0,021
-473,503	12,270	0,070	0,039
-472,489	364,742	0,045	0,066
-471,474	-196,342	-0,062	-0,000
-470,459	367,157	-0,055	-0,082
-469,445	-153,782	0,091	0,004
-468,430	-6,367	0,084	0,042
-467,416	-200,000	-0,015	-0,077
-466,401	383,923	-0,063	-0,095
-465,386	-200,000	-0,037	0,231
-464,372	111,891	-0,059	-0,052
-463,357	9,914	-0,074	-0,041
-462,343	323,161	-0,084	-0,117
-461,328	493,097	0,033	-0,056
-460,313	800,000	-0,029	0,066
-459,299	-37,375	0,083	0,032
-458,284	632,661	-0,120	0,223
-457,270	-200,000	-0,001	-0,046
-456,255	25,623	-0,145	-0,088
-455,241	-200,000	0,002	-0,127
-454,226	536,892	0,097	0,169
-453,211	-37,671	-0,103	-0,040
-452,197	-200,000	0,027	-0,121
-451,182	575,617	-0,017	-0,030
-450,168	510,098	0,011	-0,018
-449,153	-71,498	-0,034	0,009
-448,138	173,184	-0,042	-0,044
-447,124	-130,731	-0,056	0,005
-446,109	-76,996	0,027	0,007
-445,095	29,468	-0,080	0,049
-444,080	356,818	0,023	0,034
-443,065	-26,010	0,040	-0,017
-442,051	-200,000	-0,003	-0,108
-441,036	65,076	-0,083	-0,061
-440,022	125,933	-0,020	0,018
-439,007	-200,000	-0,004	-0,125
-437,992	-200,000	0,030	0,100
-436,978	-42,111	0,029	0,011
-435,963	-200,000	-0,003	0,082
-434,949	29,005	0,025	0,015
-433,934	-173,623	0,036	0,001
-432,919	66,931	0,030	0,023
-431,905	293,472	-0,033	-0,044
-430,890	-48,803	0,111	0,038
-429,876	506,235	0,051	0,086
-428,861	-54,518	-0,019	0,006
-427,846	-200,000	0,005	0,101
-426,832	-200,000	0,006	0,029
-425,817	-51,929	-0,074	-0,025
-424,803	238,778	-0,036	-0,044
-423,788	-200,000	-0,010	0,063
-422,773	-63,877	0,138	0,041
-421,759	550,722	0,096	-0,168
-420,744	-102,922	-0,024	-0,004
-419,730	18,736	0,073	-0,042
-418,715	-126,119	-0,045	-0,005
-417,701	800,000	-0,034	0,072
-416,686	-11,289	0,199	0,095
-415,671	-125,175	-0,146	-0,016
-414,657	-200,000	-0,017	0,127
-413,642	800,000	0,045	-0,117
-412,628	16,703	0,126	0,072
-411,613	-30,369	-0,067	0,027
-410,598	21,466	0,105	0,062
-409,584	47,279	0,067	0,046
-408,569	-125,636	0,062	-0,007
-407,555	-3,643	0,036	-0,018
-406,540	145,885	0,113	0,110
-405,525	-23,680	-0,086	-0,037
-404,511	10,868	-0,070	0,039
-403,496	-200,000	0,000	0,009
-402,482	44,040	0,080	-0,053
-401,467	109,410	0,038	0,033
-400,452	800,000	0,009	-0,021
-399,438	-118,642	-0,077	-0,010
-398,423	59,987	0,117	0,084
-397,409	-116,391	0,112	-0,015
-396,394	-142,890	-0,104	0,007
-395,379	459,477	0,040	-0,065
-394,365	-200,000	0,002	0,035
-393,350	166,052	0,114	-0,117
-392,336	333,902	0,042	0,059
-391,321	189,340	0,093	0,101
-390,306	-81,147	0,038	-0,009
-389,292	72,552	-0,108	-0,082
-388,277	100,065	0,037	-0,031
-387,263	-97,974	-0,073	0,014
-386,248	800,000	0,012	-0,029
-385,233	-200,000	0,021	0,154
-384,219	167,786	-0,106	0,109
-383,204	-200,000	-0,010	-0,061
-382,190	-200,000	-0,031	-0,102
-381,175	746,841	-0,052	-0,102
-380,160	-200,000	-0,015	0,089
-379,146	51,111	-0,068	-0,047
-378,131	-67,857	0,047	0,013
-377,117	-89,050	-0,144	0,031
-376,102	-8,352	0,046	0,022
-375,088	-141,213	-0,092	0,007
-374,073	431,413	-0,031	-0,049
-373,058	229,626	-0,032	-0,038
-372,044	-200,000	-0,014	0,062
-371,029	16,470	0,088	0,050
-370,015	800,000	0,039	0,109
-369,000	253,052	-0,077	0,095
-367,985	208,675	0,034	0,039
-366,971	570,149	0,040	0,071
-365,956	44,390	-0,020	0,014
-364,942	-200,000	0,002	-0,090
-363,927	800,000	0,042	0,097
-362,912	800,000	0,005	0,012
-361,898	-200,000	-0,013	-0,087
-360,883	-142,546	-0,205	-0,014
-359,869	-122,472	0,070	0,008
-358,854	-200,000	0,015	-0,073
-357,839	442,114	0,051	0,081
-356,825	55,717	0,016	-0,012
-355,810	-200,000	-0,017	0,063
-354,796	-6,082	0,052	-0,026
-353,781	-93,822	-0,099	-0,020
-352,766	-200,000	0,042	-0,208
-351,752	-73,291	-0,080	0,021
-350,737	-200,000	-0,019	0,165
-349,723	-200,000	-0,065	-0,000
-348,708	209,235	-0,022	0,025
-347,693	4,808	-0,086	-0,046
-346,679	-200,000	0,018	-0,117
-345,664	-178,073	-0,198	-0,003
-344,650	228,901	-0,035	0,042
-343,635	295,778	-0,025	0,033
-342,620	55,929	0,041	0,029
-341,606	-200,000	0,062	0,224
-340,591	-200,000	-0,004	0,029
-339,577	-200,000	-0,024	-0,086
-338,562	745,109	-0,045	-0,089
-337,548	800,000	0,013	0,039
-336,533	-1,534	0,073	0,037
-335,518	12,752	0,022	-0,012
-334,504	-200,000	0,001	-0,041
-333,489	275,455	-0,089	0,115
-332,475	302,126	-0,079	-0,106
-331,460	-200,000	-0,001	-0,014
-330,445	-200,000	-0,002	0,033
-329,431	166,980	0,103	0,107
-328,416	507,479	-0,111	0,188
-327,402	-90,318	-0,053	-0,011
-326,387	550,765	0,096	-0,167
-325,372	249,428	-0,070	-0,087
-324,358	800,000	0,032	-0,080
-323,343	561,829	-0,030	-0,054
-322,329	-200,000	-0,000	0,076
-321,314	-35,479	-0,074	0,029
-320,299	-200,000	-0,016	0,225
-319,285	-200,000	0,007	0,085
-318,270	-88,386	0,085	0,018
-317,256	499,351	0,029	0,049
-316,241	6,190	-0,060	-0,032
-315,226	-200,000	-0,002	0,008
-314,212	-100,262	-0,102	-0,018
-313,197	-200,000	-0,024	0,135
-312,183	-200,000	-0,020	0,095
-311,168	-139,913	-0,137	-0,010
-310,153	-200,000	-0,010	-0,050
-309,139	162,073	-0,055	-0,056
-308,124	51,524	0,092	0,063
-307,110	-15,184	0,041	0,019
-306,095	4,769	0,007	0,004
-305,080	-79,299	-0,100	0,024
-304,066	-100,914	0,031	0,006
-303,051	-100,363	0,123	0,022
-302,037	-122,247	0,017	-0,002
-301,022	-200,000	0,001	0,126
-300,008	722,364	-0,049	0,095
-298,993	783,582	0,067	0,133
-297,978	297,650	-0,075	-0,100
-296,964	660,745	-0,029	-0,055
-295,949	120,259	-0,043	0,038
-294,935	497,121	-0,041	0,068
-293,920	-26,118	-0,133	-0,057
-292,905	800,000	0,014	-0,040
-291,891	-100,544	-0,035	0,006
-290,876	77,167	-0,090	-0,069
-289,862	44,336	0,137	-0,091
-288,847	-156,855	-0,193	0,008
-287,832	19,920	0,089	-0,052
-286,818	-55,363	0,123	-0,040
-285,803	800,000	0,041	0,099
-284,789	-200,000	-0,010	0,056
-283,774	69,198	0,110	0,082
-282,759	379,070	-0,074	-0,110
-281,745	26,278	0,045	-0,027
-280,730	113,979	0,082	0,072
-279,716	-90,297	0,050	0,010
-278,701	203,027	0,045	0,050
-277,686	146,723	0,025	-0,024
-276,672	55,337	-0,097	0,068
-275,657	-13,415	-0,096	0,045
-274,643	-200,000	0,004	0,024
-273,628	-60,610	0,123	-0,038
-272,613	-200,000	-0,034	-0,133
-271,599	-109,440	-0,013	-0,002
-270,584	128,867	0,108	0,100
-269,570	739,333	-0,017	0,033
-268,555	800,000	-0,010	0,029
-267,540	-200,000	0,036	-0,132
-266,526	-200,000	-0,028	-0,106
-265,511	-81,209	0,037	0,009
-264,497	-200,000	0,042	0,167
-263,482	126,016	0,072	0,066
-262,467	-28,121	0,092	-0,038
-261,453	-133,024	-0,080	-0,007
-260,438	671,448	0,032	-0,061
-259,424	26,222	-0,029	-0,017
-258,409	-200,000	-0,006	-0,158
-257,395	-200,000	0,000	0,107
-256,380	396,059	-0,025	0,038
-255,365	-200,000	0,033	0,191
-254,351	-18,716	0,056	-0,025
-253,336	-200,000	0,027	-0,098
-252,322	507,081	0,037	-0,062
-251,307	-122,449	-0,067	-0,008
-250,292	-200,000	0,002	0,043
-249,278	142,800	0,081	0,078
-248,263	105,898	0,090	0,077
-247,249	800,000	0,019	0,048
-246,234	-10,688	0,110	-0,052
-245,219	800,000	0,055	-0,111
-244,205	66,252	-0,009	0,007
-243,190	-200,000	-0,007	0,127
-242,176	159,692	-0,018	-0,018
-241,161	-165,057	0,131	0,004
-240,146	-155,163	0,054	0,003
-239,132	451,672	-0,030	0,049
-238,117	-200,000	0,013	0,051
-237,103	-200,000	-0,045	-0,176
-236,088	131,848	-0,086	-0,080
-235,073	32,918	0,090	-0,056
-234,059	324,480	0,016	0,022
-233,044	-115,659	0,159	-0,021
-232,030	465,703	0,070	0,113
-231,015	-200,000	0,021	-0,080
-230,000	-90,179	0,092	0,019
-228,986	56,260	0,093	0,065
-227,971	109,470	-0,121	0,105
-226,957	-78,517	0,184	0,045
-225,942	9,134	0,049	-0,027
-224,927	538,676	-0,107	0,184
-223,913	9,044	-0,086	0,047
-222,898	560,946	0,080	0,140
-221,884	-36,867	-0,088	0,034
-220,869	-93,600	-0,060	0,012
-219,855	-200,000	-0,010	0,084
-218,840	168,229	0,014	-0,014
-217,825	-200,000	-0,036	-0,174
-216,811	131,511	0,021	-0,020
-215,796	63,428	0,079	0,057
-214,782	800,000	-0,033	0,069
-213,767	-200,000	0,003	0,035
-212,752	473,627	0,042	0,069
-211,738	-10,592	0,058	-0,028
-210,723	-200,000	-0,000	-0,050
-209,709	-200,000	0,009	-0,113
-208,694	-200,000	0,009	-0,143
-207,679	800,000	0,016	-0,041
-206,665	-200,000	-0,004	0,070
-205,650	-83,151	-0,157	0,036
-204,636	-200,000	-0,003	0,066
-203,621	-200,000	0,008	-0,125
-202,606	150,053	-0,058	-0,057
-201,592	-200,000	-0,019	-0,115
-200,577	0,627	-0,040	-0,021
-199,563	-200,000	0,000	-0,045
-198,548	-145,697	0,107	-0,007
-197,533	-177,191	0,020	0,000
-196,519	-129,434	-0,083	-0,008
-195,504	195,310	-0,090	-0,099
-194,490	800,000	0,070	-0,207
-193,475	34,700	-0,097	-0,061
-192,460	-116,339	-0,041	0,005
-191,446	-115,099	-0,105	0,014
-190,431	0,546	0,124	0,064
-189,417	-200,000	-0,014	0,129
-188,402	211,708	-0,037	0,042
-187,387	-120,485	-0,028	-0,003
-186,373	800,000	-0,038	-0,081
-185,358	745,087	-0,068	-0,133
-184,344	800,000	0,033	0,072
-183,329	-45,111	0,096	0,034
-182,315	45,534	0,067	-0,045
-181,300	-135,509	0,060	-0,005
-180,285	772,632	-0,033	0,066
-179,271	-200,000	0,019	-0,088
-178,256	800,000	0,117	0,262
-177,242	-200,000	-0,007	0,067
-176,227	536,700	-0,045	-0,078
-175,212	415,029	0,056	0,086
-174,198	66,982	0,114	-0,084
-173,183	765,505	-0,030	0,060
-172,169	453,964	-0,062	-0,099
-171,154	-112,616	-0,091	0,013
-170,139	-200,000	0,007	0,063
-169,125	-200,000	-0,002	-0,048
-168,110	800,000	0,020	0,045
-167,096	800,000	0,056	0,126
-166,081	215,464	-0,114	0,130
-165,066	-77,856	-0,050	0,012
-164,052	-200,000	0,008	0,049
-163,037	800,000	0,019	-0,046
-162,023	-145,997	-0,067	0,004
-161,008	260,140	-0,019	-0,024
-159,993	-171,624	0,089	0,002
-158,979	-66,130	-0,025	0,007
-157,964	-200,000	0,007	0,034
-156,950	83,513	0,060	-0,047
-155,935	526,533	0,023	0,040
-154,920	-141,308	0,149	-0,011
-153,906	267,767	0,020	-0,025
-152,891	212,161	-0,049	0,056
-151,877	-200,000	0,040	0,165
-150,862	741,012	0,053	0,103
-149,847	424,070	0,034	-0,054
-148,833	4,322	0,046	0,024
-147,818	-153,697	-0,053	-0,003
-146,804	-65,293	-0,071	0,021
-145,789	516,161	0,061	-0,103
-144,775	-41,341	-0,130	-0,048
-143,760	55,676	-0,031	-0,022
-142,745	-200,000	-0,020	-0,134
-141,731	-94,258	0,026	-0,005
-140,716	-49,909	0,084	-0,029
-139,702	562,789	0,078	0,137
-138,687	698,267	0,021	0,041
-137,672	169,235	0,023	0,024
-136,658	7,641	0,044	0,023
-135,643	125,844	-0,036	-0,033
-134,629	237,379	0,025	0,030
-133,614	444,628	-0,098	0,155
-132,599	800,000	0,023	0,056
-131,585	149,918	-0,072	0,070
-130,570	363,193	-0,049	-0,071
-129,556	-117,399	0,074	0,010
-128,541	28,364	-0,055	-0,033
-127,526	65,583	-0,107	-0,078
-126,512	-161,851	0,093	-0,003
-125,497	392,451	0,100	0,150
-124,483	53,471	0,064	0,044
-123,468	50,354	-0,052	0,035
-122,453	-200,000	0,004	0,126
-121,439	-200,000	-0,014	-0,066
-120,424	50,328	-0,057	-0,039
-119,410	-112,209	0,033	0,005
-118,395	8,066	0,106	-0,057
-117,380	-200,000	0,011	0,092
-116,366	800,000	-0,065	0,134
-115,351	800,000	-0,043	-0,092
-114,337	47,950	-0,088	-0,059
-113,322	-200,000	-0,022	0,185
-112,307	106,271	0,131	0,111
-111,293	-200,000	0,020	0,081
-110,278	-130,654	0,091	0,009
-109,264	-200,000	0,040	0,139
-108,249	-107,550	0,014	-0,002
-107,234	13,901	-0,083	0,046
-106,220	103,872	-0,032	-0,027
-105,205	-67,424	-0,075	0,021
-104,191	44,267	-0,030	-0,020
-103,176	-68,388	0,033	-0,009
-102,162	166,885	-0,100	-0,102
-101,147	-200,000	0,039	-0,175
-100,132	70,986	-0,097	-0,072
-99,118	-200,000	0,000	0,023
-98,103	-200,000	0,001	0,124
-97,089	800,000	0,072	0,209
-96,074	-200,000	0,001	0,048
-95,059	-200,000	0,006	-0,087
-94,045	-200,000	-0,003	-0,146
-93,030	-15,168	0,053	-0,024
-92,016	-200,000	-0,001	-0,021
-91,001	146,177	-0,058	-0,056
-89,986	-200,000	0,004	0,147
-88,972	217,297	0,050	-0,057
-87,957	-128,910	-0,039	0,004
-86,943	48,662	0,114	0,077
-85,928	-200,000	0,014	-0,070
-84,913	-52,994	-0,078	0,026
-83,899	-200,000	-0,007	-0,103
-82,884	-200,000	-0,017	0,132
-81,870	-29,396	-0,047	-0,019
-80,855	53,777	0,030	-0,021
-79,840	104,747	-0,068	-0,058
-78,826	-138,610	-0,138	0,011
-77,811	800,000	0,022	-0,052
-76,797	338,887	-0,063	0,088
-75,782	35,949	-0,050	0,032
-74,767	-200,000	-0,032	0,139
-73,753	190,784	0,010	0,011
-72,738	34,630	-0,156	-0,097
-71,724	-200,000	0,002	0,080
-70,709	129,472	0,091	0,084
-69,694	7,640	0,083	-0,045
-68,680	800,000	-0,012	0,035
-67,665	800,000	0,046	0,117
-66,651	40,227	-0,109	-0,070
-65,636	357,693	-0,050	0,072
-64,622	-3,783	0,055	-0,028
-63,607	107,648	-0,011	0,009
-62,592	190,378	0,035	0,038
-61,578	-52,447	-0,046	-0,015
-60,563	-200,000	0,008	0,160
-59,549	6,017	-0,072	0,038
-58,534	87,952	-2,788	-2,217
-57,519	-46,693	0,449	-0,157
-56,505	-200,000	-1,722	-5,667
-55,490	578,428	1,202	2,119
-54,476	800,000	5,266	11,250
-53,461	-200,000	22,853	348,772
-52,446	800,000	764,890	2269,943
-51,432	499,595	1644,442	2730,047
-50,417	93,601	1601,816	1300,691
-49,403	61,675	1257,860	897,039
-48,388	21,493	1010,257	587,886
-47,373	18,703	977,595	559,716
-46,359	12,114	964,548	530,835
-45,344	7,963	961,460	515,616
-44,330	8,315	959,402	515,636
-43,315	7,426	957,257	511,581
-42,300	7,318	956,593	510,855
-41,286	7,298	955,622	510,250
-40,271	7,368	954,321	509,762
-39,257	7,377	953,825	509,506
-38,242	7,284	952,853	508,665
-37,227	7,308	951,993	508,266
-36,213	7,261	951,157	507,648
-35,198	7,330	950,295	507,389
-34,184	7,364	949,540	507,075
-33,169	7,311	948,601	506,384
-32,154	7,363	947,836	506,123
-31,140	7,344	946,952	505,567
-30,125	7,350	946,280	505,207
-29,111	7,358	945,555	504,826
-28,096	7,296	944,967	504,294
-27,082	7,298	944,307	503,928
-26,067	7,329	943,324	503,482
-25,052	7,342	942,560	503,097
-24,038	7,303	941,863	502,582
-23,023	7,262	941,371	502,168
-22,009	7,312	940,621	501,906
-20,994	7,291	940,210	501,601
-19,979	7,310	939,388	501,204
-18,965	7,325	938,627	500,824
-17,950	7,292	938,299	500,526
-16,936	7,263	937,637	500,059
-15,921	7,251	936,981	499,652
-14,906	7,211	936,220	499,100
-13,892	7,165	935,796	498,707
-12,877	7,186	935,246	498,461
-11,863	7,175	934,424	497,970
-10,848	7,209	933,788	497,719
-9,833	7,290	933,340	497,715
-8,819	7,245	932,708	497,216
-7,804	7,203	931,983	496,678
-6,790	7,294	931,426	496,647
-5,775	7,307	930,825	496,347
-4,760	7,244	930,354	495,878
-3,746	7,228	929,579	495,397
-2,731	7,112	928,932	494,666
-1,717	7,074	928,251	494,166
-0,702	7,105	927,715	493,959
0,313	6,934	926,919	493,741
1,327	10,400	924,627	503,324
2,342	19,127	772,679	443,274
3,356	14,212	442,730	246,653
4,371	-12,338	309,238	144,345
5,386	-15,950	291,789	132,577
6,400	-18,166	285,808	127,675
7,415	-18,247	283,381	126,501
8,429	-18,968	281,507	124,957
9,444	-18,903	280,530	124,575
10,459	-18,716	280,034	124,523
11,473	-18,949	279,503	124,052
12,488	-18,843	279,022	123,929
13,502	-19,068	278,618	123,524
14,517	-18,837	278,264	123,576
15,531	-18,617	277,683	123,516
16,546	-18,447	277,222	123,462
17,561	-18,739	277,057	123,101
18,575	-18,545	276,560	123,053
19,590	-18,484	276,084	122,887
20,604	-18,639	276,074	122,726
21,619	-18,505	275,640	122,648
22,634	-18,707	275,227	122,262
23,648	-18,579	274,967	122,257
24,663	-18,436	274,689	122,257
25,677	-18,517	274,333	122,012
26,692	-18,558	274,262	121,931
27,707	-18,584	273,798	121,689
28,721	-18,574	273,620	121,608
29,736	-18,465	273,335	121,573
30,750	-18,437	273,065	121,468
31,765	-18,452	272,891	121,366
32,780	-18,608	272,686	121,119
33,794	-18,584	272,415	121,010
34,809	-18,493	271,998	120,898
35,823	-18,559	271,809	120,742
36,838	-18,444	271,489	120,696
37,853	-18,677	271,418	120,437
38,867	-18,492	271,164	120,486
39,882	-18,478	270,894	120,369
40,896	-18,463	270,705	120,287
41,911	-18,533	270,258	120,012
42,926	-18,646	270,178	119,862
43,940	-18,725	269,959	119,682
44,955	-18,633	269,714	119,648
45,969	-18,480	269,471	119,669
46,984	-18,358	269,249	119,673
47,999	-18,297	269,043	119,626
49,013	-18,363	268,923	119,502
50,028	-18,358	268,877	119,475
51,042	-18,343	268,487	119,305
52,057	-18,316	268,154	119,171
53,071	-18,316	267,940	119,066
54,086	-18,263	267,741	119,015
55,101	-18,285	267,501	118,878
56,115	-18,350	267,231	118,687
57,130	-18,355	266,881	118,517
58,144	-18,813	266,661	117,992
59,159	-18,726	266,287	117,894
60,174	-18,578	266,296	118,023
61,188	-18,623	266,063	117,869
62,203	-18,648	265,792	117,715
63,217	-18,324	265,610	117,917
64,232	-18,493	265,294	117,614
65,247	-18,423	264,993	117,533
66,261	-18,601	264,913	117,327
67,276	-18,533	264,563	117,222
68,290	-18,464	264,392	117,199
69,305	-18,357	264,374	117,276
70,320	-18,414	264,008	117,052
71,334	-18,396	263,729	116,934
72,349	-18,575	263,517	116,669
73,363	-18,629	263,403	116,559
74,378	-18,421	263,078	116,592
75,393	-18,521	262,945	116,433
76,407	-18,458	262,657	116,351
77,422	-18,294	262,474	116,407
78,436	-18,428	262,105	116,113
79,451	-18,566	261,981	115,924
80,466	-18,576	261,777	115,815
81,480	-18,464	261,431	115,751
82,495	-18,611	261,415	115,603
83,509	-18,498	261,113	115,560
84,524	-18,529	260,940	115,445
85,539	-18,297	260,595	115,488
86,553	-18,364	260,524	115,387
87,568	-18,361	260,209	115,240
88,582	-18,361	260,053	115,160
89,597	-18,276	259,784	115,106
90,611	-18,485	259,633	114,844
91,626	-18,604	259,414	114,632
92,641	-18,487	259,212	114,636
93,655	-18,352	258,779	114,553
94,670	-18,628	258,930	114,367
95,684	-18,507	258,638	114,334
96,699	-18,389	258,309	114,282
97,714	-18,456	258,316	114,216
98,728	-18,349	257,956	114,141
99,743	-18,266	257,879	114,169
100,757	-18,395	257,675	113,956
101,772	-18,335	257,306	113,835
102,787	-18,540	257,171	113,585
103,801	-18,320	256,862	113,631
104,816	-18,367	256,758	113,534
105,830	-18,451	256,528	113,349
106,845	-18,397	256,377	113,319
107,860	-18,356	256,087	113,217
108,874	-18,428	255,894	113,059
109,889	-18,467	255,689	112,924
110,903	-18,417	255,473	112,862
111,918	-18,492	255,281	112,702
112,933	-18,455	255,107	112,647
113,947	-18,356	254,961	112,658
114,962	-18,214	254,625	112,622
115,976	-18,433	254,489	112,363
116,991	-18,836	254,326	111,933
118,006	-18,518	254,285	112,180
119,020	-18,529	253,990	112,030
120,035	-18,512	253,820	111,960
121,049	-18,501	253,697	111,905
122,064	-18,576	253,398	111,698
123,079	-18,476	253,235	111,703
124,093	-18,357	253,066	111,721
125,108	-18,434	252,809	111,531
126,122	-18,281	252,607	111,563
127,137	-18,313	252,484	111,471
128,151	-18,166	252,231	111,475
129,166	-18,441	251,973	111,116
130,181	-18,396	251,899	111,112
131,195	-18,424	251,617	110,954
132,210	-18,383	251,252	110,818
133,224	-18,379	251,209	110,793
134,239	-18,329	251,044	110,753
135,254	-18,689	250,945	110,393
136,268	-18,430	250,574	110,440
137,283	-18,250	250,236	110,433
138,297	-18,285	250,336	110,438
139,312	-18,239	250,021	110,328
140,327	-18,122	249,746	110,296
141,341	-18,377	249,694	110,048
142,356	-18,319	249,355	109,937
143,370	-18,586	249,277	109,668
144,385	-18,244	249,015	109,831
145,400	-18,482	248,821	109,535
146,414	-18,446	248,647	109,479
147,429	-18,432	248,383	109,365
148,443	-18,309	248,221	109,388
149,458	-18,476	248,137	109,200
150,473	-18,513	247,933	109,069
151,487	-18,323	247,626	109,084
152,502	-18,156	247,466	109,144
153,516	-18,281	247,284	108,949
154,531	-18,403	247,243	108,819
155,546	-18,324	246,968	108,755
156,560	-18,416	246,878	108,629
157,575	-18,376	246,690	108,570
158,589	-18,278	246,491	108,554
159,604	-18,448	246,202	108,276
160,619	-18,426	245,955	108,175
161,633	-18,465	245,794	108,063
162,648	-18,419	245,705	108,052
163,662	-18,215	245,527	108,134
164,677	-18,312	245,295	107,941
165,692	-18,490	245,226	107,754
166,706	-18,196	245,077	107,922
167,721	-18,393	244,732	107,597
168,735	-18,490	244,787	107,532
169,750	-18,375	244,476	107,481
170,764	-18,237	244,340	107,526
171,779	-18,501	244,305	107,282
172,794	-18,084	243,935	107,454
173,808	-18,313	243,881	107,232
174,823	-18,094	243,787	107,362
175,837	-18,211	243,621	107,182
176,852	-18,219	243,362	107,052
177,867	-18,337	243,126	106,842
178,881	-18,469	243,127	106,725
179,896	-18,409	242,778	106,611
180,910	-18,380	242,635	106,563
181,925	-18,419	242,479	106,453
182,940	-18,396	242,363	106,411
183,954	-18,440	242,050	106,228
184,969	-18,355	242,008	106,270
185,983	-18,391	241,894	106,181
186,998	-18,420	241,699	106,062
188,013	-18,289	241,415	106,035
189,027	-18,253	241,153	105,940
190,042	-18,393	241,019	105,758
191,056	-18,358	240,815	105,687
192,071	-18,334	240,753	105,670
193,086	-18,409	240,447	105,465
194,100	-18,424	240,236	105,351
195,115	-18,359	240,155	105,359
196,129	-18,468	239,902	105,150
197,144	-18,327	239,698	105,165
198,159	-18,554	239,620	104,938
199,173	-18,370	239,459	105,007
200,188	-18,437	239,291	104,870
201,202	-18,401	239,071	104,793
202,217	-18,114	238,814	104,902
203,232	-18,107	238,743	104,867
204,246	-18,226	238,425	104,623
205,261	-18,481	238,332	104,368
206,275	-17,197	238,792	105,593
207,290	-12,629	240,393	109,989
208,304	-5,861	242,425	116,423
209,319	-2,039	243,555	120,075
210,334	-0,971	243,798	121,056
211,348	-0,125	243,906	121,788
212,363	0,258	243,784	122,029
213,377	0,507	243,759	122,209
214,392	0,630	243,740	122,288
215,407	0,832	243,686	122,415
216,421	1,141	243,535	122,579
217,436	1,182	243,436	122,552
218,450	1,332	243,141	122,514
219,465	1,440	243,234	122,638
220,480	1,289	242,938	122,355
221,494	1,151	242,728	122,127
222,509	0,855	242,307	121,665
223,523	0,766	242,301	121,578
224,538	0,706	242,010	121,373
225,553	0,361	241,839	120,998
226,567	0,469	241,817	121,064
227,582	0,750	241,599	121,170
228,596	0,792	241,259	121,023
229,611	0,563	241,202	120,800
230,626	0,523	241,033	120,671
231,640	0,768	240,845	120,764
232,655	0,499	240,578	120,403
233,669	0,614	240,557	120,474
234,684	0,699	240,403	120,454
235,699	0,413	240,367	120,196
236,713	0,720	240,081	120,289
237,728	0,613	239,949	120,126
238,742	0,566	239,775	119,990
239,757	0,591	239,668	119,946
240,772	0,436	239,429	119,692
241,786	0,506	239,420	119,733
242,801	0,497	239,158	119,584
243,815	0,574	239,007	119,559
244,830	0,390	238,806	119,301
245,844	0,509	238,746	119,356
246,859	0,586	238,458	119,262
247,874	0,568	238,300	119,158
248,888	0,653	238,131	119,131
249,903	0,593	238,110	119,062
250,917	0,481	237,888	118,852
251,932	0,590	237,815	118,891
252,947	0,814	237,546	118,922
253,961	0,479	237,469	118,608
254,976	0,645	237,253	118,621
255,990	0,640	237,134	118,547
257,005	0,578	236,966	118,404
258,020	0,539	236,887	118,324
259,034	0,634	236,755	118,321
260,049	0,570	236,435	118,101
261,063	0,423	236,431	117,972
262,078	0,546	236,167	117,927
263,093	0,484	235,967	117,768
264,107	0,541	235,945	117,792
265,122	0,720	235,665	117,781
266,136	0,742	235,575	117,743
267,151	0,750	235,352	117,627
268,166	0,539	235,309	117,430
269,180	0,614	235,023	117,336
270,195	0,635	234,939	117,300
271,209	0,583	234,751	117,155
272,224	0,667	234,583	117,125
273,239	0,685	234,352	117,014
274,253	0,639	234,322	116,953
275,268	0,607	234,125	116,819
276,282	0,528	234,046	116,708
277,297	0,620	233,771	116,632
278,312	0,433	233,778	116,480
279,326	0,572	233,550	116,463
280,341	0,534	233,541	116,419
281,355	0,569	233,339	116,335
282,370	0,676	233,173	116,325
283,384	0,639	233,080	116,240
284,399	0,663	232,840	116,128
285,414	0,687	232,882	116,157
286,428	0,689	232,455	115,936
287,443	0,542	232,449	115,808
288,457	0,553	232,358	115,762
289,472	0,687	232,043	115,698
290,487	0,553	232,028	115,577
291,501	0,664	231,913	115,594
292,516	0,536	231,688	115,373
293,530	0,790	231,373	115,401
294,545	0,526	231,424	115,213
295,560	0,586	231,278	115,177
296,574	0,771	231,131	115,235
297,589	0,522	231,042	114,990
298,603	0,853	230,659	115,042
299,618	0,728	230,727	114,970
300,633	0,813	230,593	114,958
301,647	0,850	230,381	114,870
302,662	0,708	230,308	114,715
303,676	0,921	230,064	114,746
304,691	0,885	229,845	114,599
305,706	1,022	229,684	114,613
306,720	0,730	229,641	114,359
307,735	0,939	229,503	114,439
308,749	1,077	229,351	114,458
309,764	0,762	229,224	114,145
310,779	0,851	229,084	114,133
311,793	0,920	228,842	114,054
312,808	0,845	228,828	113,980
313,822	0,801	228,535	113,790
314,837	0,699	228,570	113,721
315,852	0,727	228,350	113,622
316,866	0,893	228,262	113,694
317,881	0,931	228,015	113,590
318,895	0,961	227,843	113,516
319,910	1,050	227,816	113,560
320,925	1,072	227,533	113,426
321,939	1,101	227,466	113,404
322,954	0,855	227,197	113,074
323,968	1,019	227,295	113,237
324,983	0,899	226,969	112,974
325,997	0,905	226,794	112,881
327,012	1,239	226,669	113,060
328,027	0,966	226,516	112,768
329,041	0,864	226,501	112,674
330,056	0,779	226,300	112,501
331,070	0,871	226,276	112,548
332,085	0,646	226,148	112,306
333,100	0,844	225,974	112,357
334,114	0,867	225,639	112,197
335,129	0,943	225,597	112,223
336,143	0,939	225,461	112,143
337,158	0,852	225,346	112,011
338,173	1,144	225,072	112,082
339,187	0,904	225,011	111,863
340,202	0,790	224,830	111,679
341,216	0,840	224,745	111,664
342,231	1,178	224,654	111,859
343,246	1,019	224,439	111,624
344,260	0,807	224,288	111,382
345,275	0,980	224,326	111,519
346,289	1,253	224,066	111,582
347,304	1,051	223,908	111,344
348,319	0,857	223,752	111,113
349,333	0,969	223,587	111,104
350,348	0,931	223,486	111,016
351,362	1,147	223,372	111,109
352,377	1,135	223,161	110,985
353,392	1,048	223,173	110,917
354,406	1,177	222,917	110,874
355,421	192,692	1312,772	1379,550
356,435	154,286	1445,403	1379,374
