DTS Sentinel unit serial number:	SN410029Multiplexer serial number:	ORYXHardware model number:	OX2-SRSoftware version number:	ORYX F/W v4,00 Oryx Data Collector v3.7.2.0data status	okinstallation	B5 Nyhavnadifferential loss correction	single-endedforward channel	channel 2reverse channel	N/Adate	2023/12/12time	11:47:13forward acquisition time	300,00reverse acquisition time	0,00gamma	499,1914k internal	0,3158k external	0,3158temperature offset calibration	1,0000default loss term (dB/km)	0,3820temperature slope calibration	1,0000multiplexer offset coefficient	1,0000multiplexer slope coefficient	1,0000fibre end	0,00T internal ref (°C)	15,12T ext. ref 1 (°C)	-0,95T ext. ref 2 (°C)	-1,21length (m)	temperature (°C)	Stokes	anti-Stokes-744,400	-61,169	-0,023	-0,007
-743,385	-100,264	-0,368	0,067
-742,371	165,922	0,116	0,121
-741,356	-109,162	-0,191	0,030
-740,342	384,951	0,075	0,114
-739,327	-137,615	-0,454	0,037
-738,312	25,201	0,094	-0,057
-737,298	-91,066	-0,265	-0,056
-736,283	-80,358	0,173	-0,042
-735,269	-147,259	-0,290	0,018
-734,254	800,000	0,040	0,108
-733,239	60,567	-0,408	-0,297
-732,225	109,572	0,108	0,096
-731,210	232,031	-0,059	-0,072
-730,196	-5,418	-0,059	0,030
-729,181	-144,540	-0,066	0,004
-728,167	221,851	-0,071	-0,085
-727,152	-187,439	-0,044	0,000
-726,137	-134,412	-0,063	-0,006
-725,123	-200,000	-0,016	0,067
-724,108	42,884	-0,079	-0,053
-723,094	722,587	-0,017	0,034
-722,079	-104,724	-0,115	0,019
-721,064	-73,745	-0,037	0,010
-720,050	800,000	-0,036	0,075
-719,035	-59,886	-0,083	0,026
-718,021	101,795	-0,024	-0,021
-717,006	452,714	-0,051	-0,083
-715,991	-200,000	-0,002	0,071
-714,977	-196,297	-0,041	0,000
-713,962	-200,000	-0,012	-0,114
-712,948	-158,914	-0,105	-0,004
-711,933	-81,838	0,016	0,004
-710,918	-200,000	0,002	0,041
-709,904	186,490	-0,087	0,096
-708,889	401,233	-0,119	-0,184
-707,875	-200,000	-0,027	-0,193
-706,860	120,462	-0,026	-0,023
-705,845	-200,000	-0,018	-0,091
-704,831	555,091	0,043	0,077
-703,816	12,589	0,065	-0,037
-702,802	800,000	-0,028	-0,073
-701,787	800,000	-0,051	-0,116
-700,772	-200,000	0,014	0,060
-699,758	-200,000	-0,020	0,080
-698,743	-200,000	0,003	0,028
-697,729	-105,483	-0,050	0,008
-696,714	488,856	0,066	-0,111
-695,699	-91,362	-0,177	0,037
-694,685	-200,000	-0,001	0,033
-693,670	-23,711	0,063	-0,028
-692,656	45,278	0,156	0,105
-691,641	18,233	-0,050	0,029
-690,627	800,000	0,028	0,072
-689,612	-200,000	-0,002	-0,161
-688,597	505,300	-0,022	-0,037
-687,583	-200,000	-0,002	0,071
-686,568	175,364	0,049	0,052
-685,554	-122,882	-0,031	0,004
-684,539	-45,950	0,077	0,028
-683,524	56,342	0,078	-0,056
-682,510	-200,000	-0,016	0,060
-681,495	470,574	0,063	-0,105
-680,481	-200,000	-0,005	0,099
-679,466	800,000	-0,068	-0,145
-678,451	-200,000	-0,011	-0,149
-677,437	-102,678	-0,038	0,007
-676,422	-67,346	0,089	0,026
-675,408	383,679	-0,034	0,052
-674,393	-173,843	-0,051	-0,001
-673,378	510,618	-0,081	-0,138
-672,364	-155,289	-0,143	-0,007
-671,349	5,610	0,112	-0,061
-670,335	-200,000	0,005	-0,068
-669,320	104,378	-0,036	-0,032
-668,305	800,000	0,019	0,053
-667,291	53,502	-0,063	-0,044
-666,276	-200,000	-0,022	-0,110
-665,262	362,375	-0,057	-0,084
-664,247	800,000	-0,036	-0,076
-663,232	35,190	0,080	0,051
-662,218	54,556	0,056	-0,040
-661,203	-67,680	-0,068	0,020
-660,189	-200,000	0,011	-0,157
-659,174	-156,054	-0,031	0,001
-658,159	800,000	-0,033	0,103
-657,145	800,000	-0,011	-0,022
-656,130	58,114	0,102	-0,073
-655,116	-20,027	0,062	-0,028
-654,101	18,325	0,082	0,048
-653,086	2,298	-0,076	0,040
-652,072	156,987	0,002	0,002
-651,057	302,004	-0,113	-0,154
-650,043	800,000	0,027	0,055
-649,028	-97,598	-0,098	-0,018
-648,014	-68,836	0,087	-0,024
-646,999	-80,955	-0,075	-0,018
-645,984	-85,544	-0,063	0,014
-644,970	121,286	-0,131	-0,120
-643,955	107,400	0,035	-0,031
-642,941	-200,000	0,041	-0,170
-641,926	151,056	-0,044	-0,044
-640,911	29,205	0,063	0,039
-639,897	-200,000	0,020	-0,073
-638,882	270,577	0,058	-0,075
-637,868	-200,000	-0,003	-0,023
-636,853	-200,000	-0,004	-0,157
-635,838	-20,117	-0,165	0,074
-634,824	-200,000	0,019	-0,112
-633,809	267,170	0,025	0,032
-632,795	271,236	0,032	-0,042
-631,780	34,035	0,058	0,037
-630,765	126,801	-0,042	0,040
-629,751	481,017	0,059	-0,099
-628,736	-47,985	-0,186	-0,066
-627,722	0,795	0,203	-0,106
-626,707	15,803	-0,062	-0,036
-625,692	-196,383	0,020	0,000
-624,678	-38,244	0,094	-0,036
-623,663	-122,622	-0,059	0,007
-622,649	800,000	-0,021	-0,057
-621,634	-107,927	0,095	0,015
-620,619	-200,000	0,009	-0,085
-619,605	33,408	0,059	-0,038
-618,590	800,000	0,019	-0,043
-617,576	800,000	0,009	-0,023
-616,561	146,517	-0,110	0,109
-615,546	95,056	-0,086	-0,072
-614,532	-200,000	0,007	-0,033
-613,517	800,000	0,030	0,076
-612,503	44,973	-0,067	0,045
-611,488	-200,000	-0,006	-0,022
-610,474	103,045	-0,088	-0,076
-609,459	99,059	-0,020	-0,017
-608,444	-200,000	-0,018	0,064
-607,430	73,883	-0,172	-0,132
-606,415	-76,117	-0,040	-0,010
-605,401	235,878	-0,033	-0,040
-604,386	62,974	-0,048	-0,035
-603,371	-200,000	-0,011	0,098
-602,357	-164,519	-0,103	0,003
-601,342	-200,000	0,020	-0,081
-600,328	-200,000	-0,007	-0,141
-599,313	-200,000	-0,039	0,128
-598,298	-89,965	-0,036	-0,008
-597,284	51,085	-0,062	0,043
-596,269	-22,119	0,071	0,032
-595,255	800,000	0,050	0,129
-594,240	800,000	-0,022	-0,055
-593,225	-200,000	0,002	-0,022
-592,211	12,498	-0,065	0,037
-591,196	800,000	0,026	-0,081
-590,182	800,000	0,043	0,090
-589,167	110,363	0,119	0,105
-588,152	37,632	-0,045	-0,029
-587,138	-35,782	-0,082	-0,032
-586,123	-10,601	-0,073	-0,035
-585,109	800,000	-0,031	-0,065
-584,094	221,906	-0,085	0,101
-583,079	-200,000	0,021	0,090
-582,065	143,806	-0,054	0,052
-581,050	260,511	-0,113	-0,144
-580,036	800,000	-0,017	0,039
-579,021	-200,000	0,018	-0,110
-578,006	52,978	0,090	-0,063
-576,992	-139,972	-0,098	-0,007
-575,977	-158,842	0,031	-0,001
-574,963	-200,000	0,011	0,067
-573,948	-78,575	0,119	0,030
-572,934	9,318	0,037	0,021
-571,919	-56,215	-0,134	-0,044
-570,904	83,376	0,097	-0,077
-569,890	106,940	-0,034	0,030
-568,875	-58,187	0,070	0,022
-567,861	800,000	-0,035	0,081
-566,846	701,554	-0,048	0,092
-565,831	-72,357	-0,077	0,021
-564,817	-45,660	0,083	-0,030
-563,802	53,032	-0,077	-0,054
-562,788	-200,000	-0,034	-0,218
-561,773	197,097	0,075	0,083
-560,758	-200,000	-0,008	0,112
-559,744	677,198	0,089	-0,170
-558,729	800,000	-0,048	-0,107
-557,715	800,000	0,108	-0,233
-556,700	800,000	-0,079	-0,172
-555,685	-11,556	0,114	-0,054
-554,671	800,000	0,063	-0,146
-553,656	-33,550	-0,098	0,039
-552,642	720,084	0,010	0,020
-551,627	800,000	-0,061	0,124
-550,612	800,000	0,011	-0,033
-549,598	31,551	0,107	-0,067
-548,583	800,000	0,044	0,125
-547,569	800,000	0,016	-0,041
-546,554	800,000	0,024	0,078
-545,539	-123,650	0,062	0,007
-544,525	-156,256	0,067	0,003
-543,510	-200,000	0,021	-0,078
-542,496	800,000	0,015	-0,048
-541,481	-26,381	-0,084	-0,036
-540,466	-200,000	0,016	0,097
-539,452	293,628	-0,080	0,107
-538,437	-22,468	-0,077	0,034
-537,423	59,842	-0,083	0,060
-536,408	295,769	-0,040	0,053
-535,393	-139,495	-0,050	-0,004
-534,379	-68,224	-0,115	-0,033
-533,364	800,000	-0,030	-0,063
-532,350	-200,000	-0,028	0,150
-531,335	-74,282	0,083	0,022
-530,321	386,718	-0,128	-0,194
-529,306	800,000	0,087	-0,200
-528,291	518,421	0,040	0,069
-527,277	32,155	-0,016	-0,010
-526,262	-91,542	0,085	-0,018
-525,248	-58,273	-0,089	0,028
-524,233	-53,261	0,089	0,030
-523,218	-57,411	-0,057	0,018
-522,204	284,940	-0,054	-0,071
-521,189	351,930	-0,073	-0,105
-520,175	-200,000	-0,006	-0,051
-519,160	-200,000	0,003	-0,098
-518,145	800,000	-0,034	-0,105
-517,131	30,579	0,088	0,055
-516,116	-200,000	-0,007	-0,032
-515,102	43,191	0,044	-0,029
-514,087	-117,432	0,097	0,013
-513,072	-65,233	-0,185	-0,054
-512,058	-72,055	-0,011	-0,003
-511,043	52,556	0,047	0,033
-510,029	-61,421	-0,033	-0,010
-509,014	419,902	0,066	-0,103
-507,999	658,711	-0,077	-0,146
-506,985	-67,012	0,073	-0,021
-505,970	-87,474	-0,095	-0,021
-504,956	149,575	-0,028	-0,027
-503,941	-106,784	0,072	-0,012
-502,926	-1,027	-0,103	0,053
-501,912	-200,000	-0,023	-0,113
-500,897	3,004	-0,083	0,044
-499,883	-61,918	-0,094	0,028
-498,868	-200,000	0,015	-0,058
-497,853	35,571	0,067	0,043
-496,839	472,819	0,038	-0,062
-495,824	9,100	0,047	0,026
-494,810	234,872	-0,164	0,198
-493,795	-13,987	-0,006	0,003
-492,781	381,444	0,039	-0,059
-491,766	-200,000	0,009	0,040
-490,751	115,252	-0,160	0,142
-489,737	264,004	-0,020	-0,026
-488,722	800,000	-0,040	0,101
-487,708	-200,000	0,001	0,134
-486,693	-200,000	0,032	-0,199
-485,678	125,086	0,067	0,062
-484,664	-38,476	-0,081	-0,031
-483,649	425,481	0,016	-0,026
-482,635	-40,448	0,051	0,019
-481,620	800,000	0,033	0,080
-480,605	213,317	0,051	0,059
-479,591	800,000	-0,043	0,125
-478,576	298,212	0,010	0,014
-477,562	800,000	-0,035	0,090
-476,547	-200,000	0,021	-0,108
-475,532	-112,730	0,156	0,022
-474,518	438,263	0,105	-0,168
-473,503	-35,030	0,055	-0,022
-472,489	198,260	-0,058	0,064
-471,474	41,447	-0,060	0,040
-470,459	800,000	-0,039	-0,116
-469,445	-61,117	-0,153	0,047
-468,430	26,556	0,144	0,087
-467,416	-19,700	0,161	0,073
-466,401	-166,095	0,082	-0,002
-465,386	-91,131	0,029	-0,006
-464,372	-54,181	0,067	0,022
-463,357	-127,734	-0,088	0,009
-462,343	-200,000	-0,010	0,059
-461,328	39,729	-0,103	-0,067
-460,313	276,520	0,112	-0,146
-459,299	405,494	-0,013	-0,020
-458,284	-144,303	0,035	-0,002
-457,270	800,000	-0,020	-0,047
-456,255	183,051	0,091	0,098
-455,241	800,000	0,013	-0,042
-454,226	649,493	-0,054	-0,101
-453,211	125,296	0,048	0,044
-452,197	10,292	-0,004	-0,002
-451,182	-98,479	-0,079	0,015
-450,168	-115,439	0,040	0,005
-449,153	174,380	0,042	0,044
-448,138	73,570	0,097	0,074
-447,124	-200,000	0,020	-0,092
-446,109	800,000	0,025	0,058
-445,095	292,237	0,025	0,033
-444,080	664,656	0,049	0,092
-443,065	789,521	0,016	0,031
-442,051	-200,000	0,010	0,114
-441,036	264,354	-0,072	-0,092
-440,022	-122,022	0,131	0,015
-439,007	795,121	0,018	0,036
-437,992	-170,863	0,137	-0,003
-436,978	-11,295	-0,035	-0,017
-435,963	114,728	0,044	0,039
-434,949	419,947	-0,047	0,074
-433,934	242,150	0,034	-0,041
-432,919	21,011	-0,015	0,009
-431,905	47,030	0,083	0,056
-430,890	-200,000	-0,003	0,062
-429,876	800,000	-0,014	-0,036
-428,861	238,287	0,096	0,116
-427,846	50,100	-0,145	-0,099
-426,832	292,439	0,088	-0,117
-425,817	301,141	0,015	0,021
-424,803	-200,000	-0,011	-0,076
-423,788	-200,000	0,007	0,044
-422,773	240,143	0,106	0,129
-421,759	6,285	-0,079	0,043
-420,744	45,917	0,128	-0,086
-419,730	-134,722	-0,030	-0,003
-418,715	450,140	-0,056	0,091
-417,701	-200,000	0,021	-0,129
-416,686	-115,751	0,063	-0,008
-415,671	100,710	-0,072	-0,061
-414,657	-13,645	0,196	0,092
-413,642	119,912	0,070	-0,063
-412,628	-87,884	0,116	-0,025
-411,613	445,961	-0,018	0,029
-410,598	580,194	-0,049	0,087
-409,584	700,179	0,037	0,071
-408,569	-19,409	-0,060	-0,027
-407,555	154,982	0,050	-0,050
-406,540	454,422	-0,071	0,115
-405,525	41,891	-0,107	0,071
-404,511	-96,492	-0,085	0,016
-403,496	-155,186	0,055	-0,003
-402,482	273,952	0,029	0,037
-401,467	-42,397	-0,175	-0,065
-400,452	-200,000	0,010	0,119
-399,438	317,463	0,029	0,040
-398,423	0,303	-0,096	-0,049
-397,409	-200,000	0,006	-0,024
-396,394	8,907	0,059	-0,032
-395,379	-55,400	-0,055	-0,018
-394,365	-200,000	-0,003	-0,034
-393,350	-48,403	0,080	-0,028
-392,336	-53,612	-0,071	0,023
-391,321	-200,000	-0,020	0,089
-390,306	568,417	-0,054	-0,096
-389,292	507,001	-0,015	-0,026
-388,277	-120,286	-0,046	-0,006
-387,263	-200,000	0,001	0,106
-386,248	399,108	0,018	-0,028
-385,233	800,000	-0,082	-0,176
-384,219	612,050	0,028	-0,051
-383,204	60,805	0,044	0,032
-382,190	20,925	0,070	0,041
-381,175	434,712	0,057	0,090
-380,160	61,936	0,105	0,076
-379,146	-200,000	0,005	0,117
-378,131	401,290	0,082	0,126
-377,117	-73,062	0,139	0,037
-376,102	14,887	-0,114	0,065
-375,088	5,385	0,117	-0,062
-374,073	316,381	0,020	0,027
-373,058	800,000	-0,033	0,102
-372,044	64,934	0,103	0,075
-371,029	-200,000	0,002	-0,024
-370,015	-200,000	0,003	0,051
-369,000	-200,000	0,016	-0,146
-367,985	5,191	0,154	0,082
-366,971	478,143	-0,065	-0,108
-365,956	18,218	0,115	-0,067
-364,942	800,000	0,033	0,085
-363,927	35,021	0,073	-0,046
-362,912	-88,022	-0,065	-0,014
-361,898	124,407	-0,053	0,048
-360,883	-200,000	-0,011	-0,127
-359,869	259,730	0,038	0,048
-358,854	33,314	-0,148	0,093
-357,839	-178,251	-0,090	0,001
-356,825	753,327	-0,038	-0,075
-355,810	387,698	0,046	-0,070
-354,796	338,058	-0,092	0,131
-353,781	113,987	0,120	-0,106
-352,766	-66,860	0,030	-0,009
-351,752	-65,004	0,065	-0,019
-350,737	257,734	-0,074	0,092
-349,723	800,000	0,042	0,084
-348,708	41,649	-0,101	0,066
-347,693	626,571	-0,050	-0,091
-346,679	131,228	0,010	0,010
-345,664	-84,225	-0,065	-0,015
-344,650	-45,482	0,087	0,031
-343,635	10,188	-0,065	-0,036
-342,620	59,537	0,041	0,030
-341,606	-200,000	0,015	0,065
-340,591	-200,000	-0,011	0,041
-339,577	-23,430	-0,201	0,087
-338,562	96,019	-0,102	0,085
-337,548	607,799	0,036	-0,066
-336,533	-40,467	-0,101	-0,038
-335,518	800,000	-0,034	0,083
-334,504	173,990	-0,023	-0,024
-333,489	414,250	-0,047	-0,073
-332,475	140,179	-0,085	-0,081
-331,460	750,041	-0,005	-0,010
-330,445	404,142	-0,072	-0,110
-329,431	39,704	-0,040	-0,026
-328,416	-200,000	-0,025	0,083
-327,402	70,598	-0,087	0,065
-326,387	-70,515	-0,105	0,029
-325,372	-103,785	-0,058	-0,010
-324,358	-200,000	0,020	-0,077
-323,343	109,955	-0,082	0,071
-322,329	165,382	0,187	0,192
-321,314	-65,771	0,073	-0,021
-320,299	-11,631	-0,097	0,046
-319,285	-200,000	0,001	0,129
-318,270	-200,000	0,013	0,085
-317,256	13,323	0,155	-0,087
-316,241	-13,439	-0,128	0,060
-315,226	-200,000	-0,032	-0,143
-314,212	-140,446	0,036	-0,003
-313,197	77,575	-0,049	0,038
-312,183	800,000	0,067	0,147
-311,168	166,027	0,065	0,067
-310,153	800,000	-0,001	-0,002
-309,139	-200,000	-0,011	0,048
-308,124	-200,000	-0,031	0,149
-307,110	103,133	0,057	0,048
-306,095	-200,000	0,021	0,091
-305,080	-148,534	0,108	-0,006
-304,066	-71,118	0,016	-0,004
-303,051	-61,537	-0,164	-0,050
-302,037	800,000	-0,016	-0,039
-301,022	800,000	0,024	0,065
-300,008	-133,936	0,039	-0,003
-298,993	-200,000	-0,029	0,107
-297,978	800,000	0,019	0,043
-296,964	-82,444	-0,171	-0,040
-295,949	-41,581	0,059	-0,022
-294,935	-190,502	0,030	-0,000
-293,920	-116,122	0,048	0,006
-292,905	169,579	0,186	0,192
-291,891	800,000	0,016	0,045
-290,876	26,540	-0,101	0,061
-289,862	800,000	0,027	0,065
-288,847	359,117	0,035	0,051
-287,832	-200,000	-0,016	-0,084
-286,818	-113,503	0,016	-0,002
-285,803	-106,982	0,122	0,019
-284,789	800,000	0,056	0,139
-283,774	-200,000	-0,006	0,065
-282,759	-168,924	-0,098	-0,003
-281,745	-122,708	0,131	-0,015
-280,730	799,490	0,044	-0,087
-279,716	-200,000	-0,015	0,069
-278,701	800,000	0,010	-0,026
-277,686	-51,902	0,085	-0,029
-276,672	43,241	-0,070	-0,046
-275,657	-137,947	-0,178	0,014
-274,643	-103,585	-0,066	0,011
-273,628	800,000	0,038	-0,107
-272,613	-73,346	-0,058	-0,015
-271,599	65,843	0,063	0,046
-270,584	131,530	-0,038	-0,035
-269,570	-137,382	0,087	0,007
-268,555	489,865	-0,051	0,084
-267,540	81,076	-0,077	-0,060
-266,526	-200,000	0,054	-0,215
-265,511	-126,181	0,061	-0,006
-264,497	291,171	-0,032	0,042
-263,482	-57,628	-0,036	0,011
-262,467	124,994	0,026	-0,024
-261,453	17,920	-0,035	-0,020
-260,438	336,315	-0,076	-0,106
-259,424	139,608	-0,070	-0,067
-258,409	181,931	-0,044	-0,046
-257,395	-4,343	0,100	-0,050
-256,380	-176,379	0,142	-0,003
-255,365	144,439	0,104	0,100
-254,351	-123,748	0,046	0,005
-253,336	-200,000	0,013	0,044
-252,322	-58,382	-0,154	0,048
-251,307	141,720	-0,092	0,089
-250,292	800,000	-0,039	0,104
-249,278	136,800	0,079	0,075
-248,263	-73,282	0,093	-0,025
-247,249	-200,000	-0,005	0,071
-246,234	147,569	0,083	-0,081
-245,219	800,000	-0,020	-0,064
-244,205	200,902	0,096	-0,106
-243,190	800,000	0,028	-0,085
-242,176	-200,000	0,005	-0,023
-241,161	658,627	-0,033	0,061
-240,146	351,488	-0,059	-0,085
-239,132	-52,739	-0,124	-0,041
-238,117	-200,000	0,017	-0,095
-237,103	-200,000	0,008	0,043
-236,088	-200,000	0,023	-0,074
-235,073	-57,228	0,068	0,021
-234,059	104,694	0,087	0,074
-233,044	90,001	0,055	-0,044
-232,030	-154,564	-0,062	-0,003
-231,015	73,955	-0,064	-0,049
-230,000	-200,000	0,009	-0,086
-228,986	4,124	0,053	-0,028
-227,971	-68,955	0,057	-0,016
-226,957	800,000	0,024	-0,068
-225,942	531,822	-0,018	-0,031
-224,927	800,000	0,059	-0,150
-223,913	387,871	-0,036	-0,054
-222,898	275,063	0,069	0,088
-221,884	-127,211	-0,184	-0,019
-220,869	800,000	0,035	0,101
-219,855	41,681	0,010	-0,007
-218,840	-181,971	-0,073	0,001
-217,825	800,000	0,066	0,146
-216,811	515,448	0,088	-0,149
-215,796	176,061	0,047	-0,049
-214,782	-129,171	0,109	0,011
-213,767	103,944	0,067	0,057
-212,752	-200,000	0,021	-0,108
-211,738	-200,000	0,008	0,110
-210,723	86,905	0,093	0,074
-209,709	208,875	-0,014	-0,016
-208,694	339,004	0,014	-0,019
-207,679	367,357	-0,027	0,040
-206,665	214,253	-0,024	-0,028
-205,650	329,039	0,047	0,065
-204,636	-200,000	0,019	0,127
-203,621	-200,000	-0,006	-0,036
-202,606	222,364	0,043	0,050
-201,592	600,508	-0,089	-0,160
-200,577	800,000	-0,047	0,107
-199,563	800,000	0,010	0,027
-198,548	208,633	0,063	0,072
-197,533	-12,395	0,015	-0,007
-196,519	-200,000	-0,025	0,100
-195,504	154,983	0,026	0,026
-194,490	-200,000	-0,024	-0,082
-193,475	105,549	0,029	0,025
-192,460	-200,000	0,007	-0,043
-191,446	651,229	-0,061	-0,114
-190,431	66,129	0,066	-0,048
-189,417	-38,911	-0,074	0,028
-188,402	378,776	0,010	0,014
-187,387	-77,121	-0,050	0,013
-186,373	551,033	0,023	-0,041
-185,358	502,707	-0,094	0,158
-184,344	88,494	-0,053	0,043
-183,329	800,000	-0,040	0,123
-182,315	-200,000	0,026	0,138
-181,300	-136,120	-0,148	0,012
-180,285	-200,000	-0,021	0,138
-179,271	-200,000	0,007	-0,076
-178,256	-200,000	-0,008	-0,034
-177,242	-200,000	0,003	-0,012
-176,227	12,855	0,137	-0,076
-175,212	-200,000	0,005	-0,115
-174,198	800,000	0,073	-0,148
-173,183	-167,018	0,112	0,003
-172,169	-200,000	-0,012	0,040
-171,154	612,408	0,015	-0,027
-170,139	-200,000	0,046	0,166
-169,125	-36,686	0,104	0,040
-168,110	26,151	-0,038	0,023
-167,096	46,325	-0,094	0,063
-166,081	-84,889	-0,152	0,034
-165,066	320,499	-0,016	0,022
-164,052	125,558	0,009	0,008
-163,037	-200,000	0,035	-0,120
-162,023	-200,000	0,009	0,138
-161,008	-128,105	0,083	0,008
-159,993	800,000	-0,043	-0,119
-158,979	800,000	-0,006	-0,016
-157,964	688,950	0,009	-0,017
-156,950	23,960	-0,082	-0,049
-155,935	75,656	0,098	0,075
-154,920	260,174	-0,057	0,070
-153,906	800,000	0,023	0,064
-152,891	-200,000	-0,012	-0,165
-151,877	577,545	-0,087	-0,154
-150,862	104,568	-0,035	-0,030
-149,847	92,152	-0,056	0,045
-148,833	-200,000	-0,004	-0,037
-147,818	91,120	0,166	0,134
-146,804	765,561	0,037	0,072
-145,789	426,289	-0,063	0,099
-144,775	106,000	-0,092	-0,079
-143,760	-82,176	-0,173	-0,040
-142,745	-120,274	-0,118	-0,014
-141,731	-75,467	-0,105	-0,027
-140,716	428,514	0,019	0,029
-139,702	-155,653	0,043	-0,002
-138,687	800,000	0,044	0,132
-137,672	800,000	0,009	-0,020
-136,658	255,710	0,101	-0,125
-135,643	81,244	-0,086	-0,067
-134,629	34,050	0,076	-0,047
-133,614	-111,472	0,086	0,013
-132,599	-128,050	-0,049	0,005
-131,585	800,000	-0,017	-0,038
-130,570	191,951	0,036	-0,039
-129,556	800,000	0,014	-0,034
-128,541	-113,921	0,065	0,009
-127,526	800,000	-0,057	-0,114
-126,512	-121,932	0,162	-0,019
-125,497	124,992	0,078	-0,071
-124,483	-33,038	0,085	-0,034
-123,468	-200,000	-0,023	0,078
-122,453	107,035	-0,066	0,056
-121,439	-51,799	0,084	-0,028
-120,424	-200,000	0,010	-0,128
-119,410	-200,000	-0,004	0,058
-118,395	-125,439	0,131	0,014
-117,380	-168,381	-0,056	-0,002
-116,366	450,449	0,065	-0,104
-115,351	3,873	0,071	0,037
-114,337	-125,681	-0,082	-0,009
-113,322	-200,000	0,031	-0,121
-112,307	-60,708	-0,149	-0,045
-111,293	-132,936	-0,017	0,002
-110,278	800,000	0,052	0,114
-109,264	-200,000	-0,006	0,093
-108,249	-110,534	-0,070	0,010
-107,234	-60,528	-0,097	-0,029
-106,220	410,183	0,034	-0,052
-105,205	721,229	-0,070	0,135
-104,191	107,212	0,096	0,082
-103,176	539,957	-0,087	0,150
-102,162	-177,849	0,057	0,001
-101,147	67,094	-0,094	0,069
-100,132	84,939	-0,205	-0,161
-99,118	-40,108	0,087	0,032
-98,103	648,533	0,030	-0,055
-97,089	-200,000	-0,012	-0,092
-96,074	-155,148	-0,141	-0,006
-95,059	142,427	0,106	-0,101
-94,045	-97,046	-0,141	-0,026
-93,030	331,904	-0,074	0,102
-92,016	157,696	0,096	-0,095
-91,001	-136,826	-0,132	-0,011
-89,986	-200,000	0,036	0,125
-88,972	554,358	0,047	0,081
-87,957	588,839	-0,050	0,090
-86,943	-200,000	-0,004	0,076
-85,928	-200,000	0,010	-0,057
-84,913	-39,168	-0,016	0,006
-83,899	-157,443	-0,045	0,002
-82,884	-22,651	0,093	0,040
-81,870	-200,000	-0,012	0,049
-80,855	-150,568	0,082	0,004
-79,840	91,196	-0,086	-0,070
-78,826	37,272	-0,017	0,011
-77,811	-200,000	0,003	-0,132
-76,797	19,466	0,017	-0,010
-75,782	-124,609	0,076	-0,008
-74,767	158,830	-0,099	0,099
-73,753	-44,392	0,133	-0,048
-72,738	-49,810	0,016	0,006
-71,724	-200,000	0,012	0,061
-70,709	-200,000	-0,005	-0,046
-69,694	101,615	-0,031	-0,026
-68,680	292,868	-0,064	-0,084
-67,665	-172,676	0,138	-0,003
-66,651	27,284	0,083	0,050
-65,636	30,831	-0,046	-0,028
-64,622	800,000	-0,054	-0,168
-63,607	99,729	0,124	-0,103
-62,592	800,000	-0,050	0,138
-61,578	3,191	0,161	0,084
-60,563	340,210	0,119	0,167
-59,549	22,085	0,020	-0,011
-58,534	-2,686	-2,060	-1,031
-57,519	-200,000	-0,251	-0,837
-56,505	-200,000	-1,334	-5,054
-55,490	-9,503	0,766	0,365
-54,476	800,000	5,401	11,996
-53,461	-200,000	17,717	285,563
-52,446	800,000	727,950	2221,319
-51,432	537,072	1643,854	2812,284
-50,417	109,917	1634,781	1406,909
-49,403	75,902	1286,604	975,175
-48,388	32,026	1027,052	633,747
-47,373	20,112	989,094	571,063
-46,359	18,413	976,894	558,430
-45,344	15,436	973,020	546,456
-44,330	15,681	971,352	546,299
-43,315	15,184	969,406	543,561
-42,300	15,164	968,158	542,775
-41,286	15,130	967,315	542,169
-40,271	15,087	966,405	541,497
-39,257	15,170	965,493	541,235
-38,242	15,155	964,658	540,696
-37,227	15,090	964,031	540,113
-36,213	15,134	962,811	539,551
-35,198	15,158	962,009	539,156
-34,184	15,188	960,983	538,656
-33,169	15,098	960,465	538,057
-32,154	15,197	959,422	537,770
-31,140	15,147	958,505	537,074
-30,125	15,217	957,820	536,893
-29,111	15,211	956,814	536,287
-28,096	15,189	956,297	535,908
-27,082	15,161	955,733	535,478
-26,067	15,178	954,887	535,038
-25,052	15,193	954,062	534,603
-24,038	15,123	953,394	533,983
-23,023	15,122	952,831	533,644
-22,009	15,192	952,152	533,468
-20,994	15,149	951,631	533,014
-19,979	15,218	950,944	532,830
-18,965	15,198	950,209	532,334
-17,950	15,140	949,723	531,856
-16,936	15,062	949,026	531,193
-15,921	15,120	948,234	530,916
-14,906	15,087	947,490	530,372
-13,892	15,011	947,008	529,840
-12,877	15,023	946,304	529,461
-11,863	14,998	945,808	529,083
-10,848	15,039	945,146	528,822
-9,833	15,140	944,633	528,837
-8,819	15,080	944,081	528,316
-7,804	15,086	943,368	527,914
-6,790	15,027	942,916	527,453
-5,775	15,108	942,156	527,266
-4,760	15,098	941,473	526,828
-3,746	15,093	940,776	526,401
-2,731	14,921	940,408	525,631
-1,717	14,915	939,831	525,269
-0,702	14,950	938,918	524,849
0,313	14,746	938,130	524,558
1,327	18,057	936,196	533,852
2,342	27,265	793,414	476,796
3,356	23,961	458,620	270,535
4,371	-3,295	314,594	156,596
5,386	-7,236	296,275	143,476
6,400	-9,084	290,288	138,730
7,415	-9,604	287,724	136,981
8,429	-9,948	286,246	135,928
9,444	-10,039	285,373	135,412
10,459	-9,970	284,674	135,136
11,473	-9,949	284,207	134,922
12,488	-9,819	283,658	134,776
13,502	-9,986	283,065	134,320
14,517	-9,984	282,502	134,044
15,531	-10,101	282,301	133,823
16,546	-10,036	281,717	133,597
17,561	-10,026	281,324	133,408
18,575	-9,800	280,997	133,458
19,590	-10,145	280,878	133,059
20,604	-9,903	280,390	133,047
21,619	-10,158	279,881	132,551
22,634	-9,888	279,614	132,670
23,648	-10,146	279,311	132,269
24,663	-10,056	279,149	132,265
25,677	-9,973	278,821	132,177
26,692	-9,959	278,540	132,046
27,707	-9,957	278,338	131,940
28,721	-10,075	277,969	131,642
29,736	-10,176	277,723	131,417
30,750	-10,152	277,614	131,377
31,765	-10,095	277,162	131,205
32,780	-10,110	276,961	131,084
33,794	-10,060	276,641	130,968
34,809	-10,121	276,507	130,835
35,823	-10,130	276,255	130,696
36,838	-10,174	276,062	130,552
37,853	-10,107	275,688	130,426
38,867	-10,091	275,547	130,363
39,882	-10,043	275,247	130,255
40,896	-10,100	274,890	130,021
41,911	-10,246	274,751	129,806
42,926	-10,219	274,546	129,723
43,940	-10,129	274,096	129,583
44,955	-10,128	274,052	129,552
45,969	-10,207	273,732	129,315
46,984	-10,469	273,668	129,029
47,999	-10,478	273,266	128,820
49,013	-10,617	273,042	128,573
50,028	-10,803	272,744	128,248
51,042	-10,746	272,516	128,182
52,057	-10,751	272,139	127,988
53,071	-10,901	271,980	127,763
54,086	-10,779	271,803	127,782
55,101	-10,678	271,640	127,787
56,115	-10,183	271,513	128,174
57,130	-10,100	271,314	128,146
58,144	-9,934	271,250	128,258
59,159	-9,883	270,900	128,128
60,174	-10,077	270,732	127,858
61,188	-9,899	270,443	127,874
62,203	-10,114	270,427	127,657
63,217	-9,948	270,088	127,639
64,232	-9,841	269,844	127,610
65,247	-9,916	269,732	127,477
66,261	-10,078	269,513	127,213
67,276	-10,046	269,056	127,016
68,290	-10,352	268,781	126,594
69,305	-10,325	268,635	126,540
70,320	-10,153	268,423	126,585
71,334	-10,160	268,389	126,552
72,349	-9,896	268,089	126,640
73,363	-9,992	267,820	126,414
74,378	-9,990	267,610	126,305
75,393	-10,172	267,595	126,121
76,407	-9,975	267,151	126,079
77,422	-10,102	267,073	125,916
78,436	-10,095	266,832	125,797
79,451	-9,796	266,384	125,846
80,466	-10,168	266,309	125,462
81,480	-10,087	265,941	125,351
82,495	-10,128	265,744	125,211
83,509	-9,951	265,607	125,294
84,524	-10,045	265,303	125,054
85,539	-10,274	265,123	124,753
86,553	-10,153	265,005	124,795
87,568	-10,080	264,719	124,714
88,582	-10,216	264,536	124,496
89,597	-10,021	264,299	124,547
90,611	-10,094	264,346	124,493
91,626	-9,988	264,046	124,436
92,641	-10,060	263,910	124,296
93,655	-9,981	263,633	124,225
94,670	-10,072	263,508	124,074
95,684	-10,147	263,298	123,897
96,699	-10,058	262,954	123,804
97,714	-10,049	262,700	123,681
98,728	-10,195	262,701	123,540
99,743	-10,475	262,426	123,151
100,757	-10,195	262,220	123,292
101,772	-10,154	261,847	123,142
102,787	-10,268	261,938	123,072
103,801	-10,084	261,608	123,070
104,816	-10,051	261,478	123,026
105,830	-9,931	261,347	123,061
106,845	-9,817	261,081	123,025
107,860	-10,114	260,927	122,679
108,874	-9,991	260,781	122,708
109,889	-9,942	260,585	122,648
110,903	-9,977	260,272	122,459
111,918	-10,001	260,075	122,334
112,933	-9,994	259,878	122,237
113,947	-9,847	259,772	122,305
114,962	-9,865	259,546	122,173
115,976	-10,037	259,346	121,916
116,991	-10,023	259,215	121,856
118,006	-9,662	258,912	122,019
119,020	-9,917	258,845	121,754
120,035	-9,904	258,761	121,714
121,049	-10,028	258,584	121,512
122,064	-9,967	258,345	121,442
123,079	-9,989	258,019	121,259
124,093	-9,976	257,817	121,164
125,108	-10,238	257,632	120,838
126,122	-10,419	257,380	120,550
127,137	-10,436	257,069	120,379
128,151	-10,279	257,039	120,492
129,166	-10,242	256,968	120,480
130,181	-10,229	256,566	120,292
131,195	-10,186	256,302	120,195
132,210	-9,865	256,278	120,451
133,224	-9,881	256,084	120,335
134,239	-9,921	255,918	120,212
135,254	-9,777	255,590	120,172
136,268	-10,124	255,591	119,862
137,283	-10,288	255,226	119,538
138,297	-10,330	255,071	119,419
139,312	-10,458	254,707	119,127
140,327	-10,212	254,778	119,361
141,341	-9,912	254,626	119,538
142,356	-9,777	254,490	119,580
143,370	-9,819	254,383	119,483
144,385	-9,893	254,180	119,313
145,400	-9,577	253,793	119,392
146,414	-9,903	253,809	119,109
147,429	-9,889	253,731	119,074
148,443	-9,712	253,338	119,030
149,458	-9,568	253,261	119,107
150,473	-9,681	252,969	118,862
151,487	-9,856	252,787	118,617
152,502	-9,912	252,680	118,508
153,516	-9,847	252,601	118,517
154,531	-9,758	252,272	118,427
155,546	-9,906	252,078	118,199
156,560	-9,892	252,162	118,240
157,575	-9,735	251,791	118,189
158,589	-9,963	251,363	117,784
159,604	-9,891	251,394	117,849
160,619	-10,043	251,254	117,645
161,633	-9,991	251,059	117,586
162,648	-9,691	250,726	117,675
163,662	-9,891	250,718	117,490
164,677	-9,721	250,826	117,674
165,692	-9,757	250,350	117,411
166,706	-9,904	250,127	117,171
167,721	-9,795	250,025	117,205
168,735	-9,770	249,942	117,177
169,750	-9,773	249,727	117,063
170,764	-9,675	249,591	117,071
171,779	-9,563	249,571	117,145
172,794	-9,765	249,314	116,845
173,808	-9,838	249,161	116,701
174,823	-10,091	248,727	116,276
175,837	-10,172	248,537	116,109
176,852	-9,846	248,468	116,339
177,867	-9,669	248,346	116,419
178,881	-9,745	248,234	116,293
179,896	-9,678	248,064	116,259
180,910	-9,525	247,837	116,270
181,925	-9,689	247,619	116,020
182,940	-9,544	247,529	116,089
183,954	-9,785	247,436	115,834
184,969	-9,801	247,235	115,716
185,983	-9,691	247,010	115,693
186,998	-9,557	246,741	115,667
188,013	-9,683	246,707	115,536
189,027	-9,609	246,567	115,522
190,042	-9,539	246,342	115,464
191,056	-9,503	246,215	115,424
192,071	-9,535	246,001	115,287
193,086	-9,482	245,949	115,296
194,100	-9,408	245,749	115,254
195,115	-9,432	245,535	115,124
196,129	-9,649	245,231	114,791
197,144	-9,781	245,170	114,643
198,159	-9,649	244,879	114,606
199,173	-9,662	244,715	114,508
200,188	-9,583	244,616	114,516
201,202	-10,030	244,291	113,987
202,217	-10,151	244,064	113,772
203,232	-10,326	243,947	113,563
204,246	-9,785	243,821	113,938
205,261	-9,088	243,757	114,469
206,275	-9,672	243,613	113,914
207,290	-5,738	245,223	117,897
208,304	0,769	247,212	124,230
209,319	3,406	247,813	126,705
210,334	3,781	247,871	127,033
211,348	4,227	247,668	127,286
212,363	4,512	247,615	127,483
213,377	4,397	247,519	127,327
214,392	4,297	247,287	127,114
215,407	4,265	247,232	127,048
216,421	4,118	247,154	126,875
217,436	4,543	246,828	127,046
218,450	4,599	246,703	127,016
219,465	4,221	246,463	126,571
220,480	3,831	246,189	126,099
221,494	3,820	246,128	126,048
222,509	4,102	245,949	126,176
223,523	3,949	245,711	125,917
224,538	3,835	245,310	125,608
225,553	3,900	245,374	125,682
226,567	3,867	245,192	125,551
227,582	4,005	245,109	125,610
228,596	4,037	244,907	125,521
229,611	3,774	244,705	125,192
230,626	3,781	244,450	125,056
231,640	3,884	244,426	125,116
232,655	3,921	244,288	125,065
233,669	3,892	244,000	124,882
234,684	3,709	243,858	124,650
235,699	3,925	243,834	124,802
236,713	4,000	243,808	124,838
237,728	3,783	243,551	124,520
238,742	3,777	243,200	124,325
239,757	3,535	243,074	124,053
240,772	3,850	242,832	124,173
241,786	3,764	242,879	124,117
242,801	3,519	242,670	123,801
243,815	3,743	242,443	123,855
244,830	3,736	242,373	123,803
245,844	3,864	242,288	123,851
246,859	3,917	241,984	123,727
247,874	3,699	241,860	123,478
248,888	3,484	241,735	123,230
249,903	3,843	241,558	123,417
250,917	4,128	241,365	123,536
251,932	4,150	241,284	123,501
252,947	3,933	241,253	123,301
253,961	3,774	240,979	123,022
254,976	3,890	240,838	123,032
255,990	4,042	240,550	122,995
257,005	3,782	240,353	122,677
258,020	3,446	240,314	122,377
259,034	3,639	240,234	122,480
260,049	3,891	240,002	122,551
261,063	3,880	239,753	122,404
262,078	3,799	239,507	122,204
263,093	4,019	239,532	122,380
264,107	3,905	239,470	122,247
265,122	3,720	239,242	121,972
266,136	4,139	238,966	122,153
267,151	4,135	239,032	122,173
268,166	3,704	238,714	121,659
269,180	3,656	238,577	121,540
270,195	4,054	238,743	121,929
271,209	4,409	238,570	122,110
272,224	3,868	238,134	121,449
273,239	3,607	237,959	121,143
274,253	3,703	237,852	121,153
275,268	3,708	237,890	121,166
276,282	3,822	237,605	121,100
277,297	3,482	237,414	120,723
278,312	3,689	237,327	120,832
279,326	3,925	237,092	120,887
280,341	3,644	237,017	120,617
281,355	3,876	236,869	120,713
282,370	3,985	236,663	120,683
283,384	3,966	236,475	120,561
284,399	3,931	236,175	120,370
285,414	3,321	236,133	119,861
286,428	3,643	236,075	120,072
287,443	3,826	235,782	120,056
288,457	3,846	235,766	120,053
289,472	4,128	235,583	120,169
290,487	3,953	235,423	119,939
291,501	3,640	235,261	119,603
292,516	3,642	234,973	119,447
293,530	3,462	234,814	119,216
294,545	3,825	234,811	119,486
295,560	3,896	234,711	119,480
296,574	3,622	234,386	119,091
297,589	3,655	234,292	119,058
298,603	3,909	234,274	119,235
299,618	3,966	234,266	119,265
300,633	3,986	233,962	119,115
301,647	4,113	233,831	119,135
302,662	4,243	233,835	119,228
303,676	4,070	233,659	118,993
304,691	4,239	233,405	118,984
305,706	4,179	233,319	118,884
306,720	4,152	233,141	118,761
307,735	3,909	232,980	118,481
308,749	3,916	232,749	118,359
309,764	3,752	232,600	118,146
310,779	3,637	232,234	117,861
311,793	3,590	232,119	117,757
312,808	3,471	232,003	117,596
313,822	3,615	231,844	117,615
314,837	3,498	231,805	117,495
315,852	3,656	231,570	117,487
316,866	3,827	231,516	117,580
317,881	3,815	231,412	117,507
318,895	4,192	231,165	117,659
319,910	3,994	231,040	117,434
320,925	3,404	230,939	116,922
321,939	3,784	230,731	117,096
322,954	4,067	230,846	117,359
323,968	3,972	230,532	117,118
324,983	3,718	230,352	116,822
325,997	3,929	230,147	116,868
327,012	3,593	230,009	116,533
328,027	3,836	230,041	116,722
329,041	4,279	230,051	117,054
330,056	4,503	229,917	117,145
331,070	4,545	229,884	117,150
332,085	4,239	229,408	116,666
333,100	4,090	229,213	116,443
334,114	4,082	229,038	116,338
335,129	4,342	228,903	116,455
336,143	4,590	228,880	116,620
337,158	4,309	228,587	116,248
338,173	4,188	228,611	116,159
339,187	4,071	228,418	115,963
340,202	3,982	228,330	115,841
341,216	3,980	227,979	115,651
342,231	3,922	227,723	115,467
343,246	3,789	227,801	115,396
344,260	3,985	227,661	115,462
345,275	3,981	227,576	115,406
346,289	4,221	227,424	115,498
347,304	4,158	227,292	115,374
348,319	4,173	227,218	115,337
349,333	4,217	226,860	115,178
350,348	3,751	226,774	114,776
351,362	4,011	226,577	114,860
352,377	3,775	226,434	114,601
353,392	3,678	226,205	114,403
354,406	3,561	226,302	114,354
355,421	195,549	1324,494	1401,205
356,435	156,739	1458,278	1401,186
