DTS Sentinel unit serial number:	SN410029Multiplexer serial number:	ORYXHardware model number:	OX2-SRSoftware version number:	ORYX F/W v4,00 Oryx Data Collector v3.7.2.0data status	okinstallation	B5 Nyhavnadifferential loss correction	single-endedforward channel	channel 2reverse channel	N/Adate	2023/12/12time	06:52:13forward acquisition time	300,00reverse acquisition time	0,00gamma	499,1914k internal	0,3157k external	0,3157temperature offset calibration	1,0000default loss term (dB/km)	0,3820temperature slope calibration	1,0000multiplexer offset coefficient	1,0000multiplexer slope coefficient	1,0000fibre end	0,00T internal ref (°C)	15,19T ext. ref 1 (°C)	-1,16T ext. ref 2 (°C)	-1,44length (m)	temperature (°C)	Stokes	anti-Stokes-744,400	200,302	0,016	0,018
-743,385	-199,082	-0,319	-0,001
-742,371	-148,022	0,170	0,010
-741,356	-66,686	-0,247	-0,072
-740,342	-200,000	0,008	0,068
-739,327	-190,409	-0,340	0,003
-738,312	-28,801	0,060	-0,025
-737,298	-134,464	-0,247	-0,022
-736,283	339,931	0,105	-0,152
-735,269	-39,396	-0,232	0,089
-734,254	-6,672	0,060	0,030
-733,239	-55,042	-0,499	-0,165
-732,225	627,985	0,066	0,123
-731,210	800,000	-0,058	0,126
-730,196	54,671	-0,100	-0,071
-729,181	-40,602	-0,076	0,029
-728,167	632,075	0,039	-0,073
-727,152	-200,000	-0,018	-0,121
-726,137	-88,914	-0,164	-0,036
-725,123	90,776	-0,069	-0,057
-724,108	-145,344	-0,117	-0,008
-723,094	-200,000	-0,012	-0,090
-722,079	40,280	-0,191	-0,126
-721,064	-200,000	0,009	0,176
-720,050	-138,984	-0,115	-0,009
-719,035	-73,463	-0,050	0,013
-718,021	-46,358	0,108	-0,039
-717,006	-83,480	-0,140	-0,033
-715,991	545,187	0,014	-0,025
-714,977	-128,675	-0,082	0,008
-713,962	-142,076	-0,039	-0,003
-712,948	-111,025	0,025	0,004
-711,933	617,140	0,015	-0,028
-710,918	800,000	-0,034	0,107
-709,904	31,940	-0,107	-0,068
-708,889	90,717	0,040	-0,033
-707,875	-200,000	-0,027	-0,185
-706,860	28,791	0,085	0,053
-705,845	-144,097	-0,054	-0,004
-704,831	-71,095	0,078	0,022
-703,816	120,733	-0,132	0,121
-702,802	800,000	-0,057	-0,128
-701,787	800,000	-0,029	-0,081
-700,772	209,254	-0,079	-0,092
-699,758	800,000	-0,010	-0,029
-698,743	331,047	-0,075	0,107
-697,729	-200,000	-0,014	0,088
-696,714	80,439	0,066	-0,052
-695,699	-200,000	-0,005	-0,035
-694,685	182,341	-0,086	-0,094
-693,670	491,370	-0,047	-0,080
-692,656	247,515	-0,011	0,014
-691,641	-200,000	-0,001	-0,016
-690,627	800,000	-0,055	0,132
-689,612	-200,000	-0,000	-0,039
-688,597	-200,000	-0,000	-0,138
-687,583	-200,000	0,019	-0,108
-686,568	-200,000	0,007	-0,054
-685,554	-60,406	0,067	0,021
-684,539	-91,764	-0,043	0,009
-683,524	-38,683	0,137	-0,053
-682,510	800,000	-0,041	-0,109
-681,495	764,052	-0,034	-0,068
-680,481	204,252	-0,072	-0,082
-679,466	-200,000	0,003	-0,078
-678,451	-200,000	0,004	-0,024
-677,437	-25,577	0,061	0,026
-676,422	182,615	-0,041	-0,045
-675,408	-200,000	0,009	-0,130
-674,393	-164,713	0,112	0,004
-673,378	-156,754	-0,097	-0,004
-672,364	800,000	-0,027	-0,074
-671,349	-112,499	-0,109	0,016
-670,335	-200,000	0,001	-0,024
-669,320	-51,777	0,069	-0,024
-668,305	-200,000	-0,004	-0,102
-667,291	10,987	-0,099	-0,055
-666,276	139,951	0,117	-0,113
-665,262	-200,000	-0,020	-0,092
-664,247	133,229	0,006	-0,006
-663,232	-200,000	-0,007	-0,056
-662,218	139,688	-0,032	-0,031
-661,203	238,631	-0,103	0,127
-660,189	-200,000	0,023	-0,081
-659,174	178,420	-0,071	-0,077
-658,159	286,786	0,105	-0,139
-657,145	138,419	-0,067	-0,065
-656,130	-31,345	0,124	0,051
-655,116	-33,557	0,148	0,060
-654,101	-200,000	-0,005	0,040
-653,086	57,352	-0,017	-0,013
-652,072	-114,372	-0,061	-0,009
-651,057	-55,745	-0,051	0,017
-650,043	-45,239	-0,032	-0,012
-649,028	9,172	0,037	0,021
-648,014	23,998	-0,048	0,029
-646,999	-200,000	-0,021	0,132
-645,984	-144,276	-0,242	-0,016
-644,970	85,703	-0,077	0,062
-643,955	150,324	-0,060	-0,060
-642,941	112,312	-0,125	-0,111
-641,926	58,361	0,056	0,040
-640,911	800,000	-0,026	0,055
-639,897	68,720	-0,070	0,052
-638,882	159,040	0,070	0,071
-637,868	209,242	-0,070	0,080
-636,853	21,724	-0,089	0,053
-635,838	388,247	-0,062	-0,095
-634,824	-200,000	0,027	-0,167
-633,809	264,137	0,084	0,107
-632,795	-140,152	-0,074	-0,006
-631,780	-156,033	-0,067	-0,003
-630,765	101,356	0,040	-0,034
-629,751	258,698	0,054	-0,069
-628,736	486,897	-0,035	-0,059
-627,722	800,000	-0,039	-0,107
-626,707	33,229	0,067	0,043
-625,692	-68,377	-0,118	0,033
-624,678	-59,363	-0,066	-0,021
-623,663	88,083	0,018	0,015
-622,649	120,354	0,059	0,053
-621,634	578,644	0,032	-0,058
-620,619	-185,123	-0,154	-0,002
-619,605	102,122	0,066	0,057
-618,590	433,856	-0,068	0,108
-617,576	-19,114	0,060	0,027
-616,561	455,315	0,044	-0,072
-615,546	-7,620	-0,071	0,035
-614,532	-200,000	0,001	0,014
-613,517	-172,705	0,117	-0,003
-612,503	142,894	0,027	0,026
-611,488	338,679	-0,009	-0,013
-610,474	88,887	-0,135	0,110
-609,459	115,247	0,020	0,018
-608,444	-200,000	-0,025	0,137
-607,430	-159,163	-0,063	0,003
-606,415	220,007	-0,092	-0,108
-605,401	301,662	-0,029	-0,040
-604,386	-30,807	0,081	0,033
-603,371	274,835	-0,091	0,118
-602,357	-200,000	0,020	0,119
-601,342	52,710	-0,104	-0,073
-600,328	388,498	0,033	0,050
-599,313	145,475	0,029	0,029
-598,298	-200,000	-0,022	-0,077
-597,284	-50,354	0,118	0,041
-596,269	-9,026	0,015	0,007
-595,255	2,715	-0,089	-0,047
-594,240	346,300	-0,012	-0,017
-593,225	-23,588	-0,044	-0,019
-592,211	-200,000	0,029	-0,183
-591,196	-200,000	0,034	0,119
-590,182	-23,365	-0,110	0,048
-589,167	800,000	-0,091	0,185
-588,152	201,948	-0,104	0,117
-587,138	-21,141	0,093	0,041
-586,123	41,005	0,083	0,055
-585,109	31,787	-0,089	0,056
-584,094	96,747	0,065	-0,055
-583,079	202,042	0,028	0,032
-582,065	26,557	-0,103	0,063
-581,050	-200,000	0,009	0,159
-580,036	148,396	-0,148	-0,147
-579,021	230,038	0,047	0,056
-578,006	-101,798	0,031	-0,006
-576,992	-200,000	0,011	-0,070
-575,977	800,000	-0,027	0,062
-574,963	-135,254	-0,129	-0,011
-573,948	228,982	-0,101	0,120
-572,934	-18,792	0,026	-0,012
-571,919	26,147	0,102	0,063
-570,904	-72,375	-0,110	-0,030
-569,890	-24,381	-0,055	-0,024
-568,875	800,000	0,040	0,082
-567,861	503,808	-0,041	0,070
-566,846	212,620	0,041	0,047
-565,831	369,588	0,031	-0,046
-564,817	355,997	0,038	0,056
-563,802	30,029	0,028	-0,017
-562,788	240,959	-0,037	0,045
-561,773	-33,353	0,024	-0,010
-560,758	50,123	0,072	0,050
-559,744	29,206	-0,072	0,045
-558,729	-200,000	-0,012	0,110
-557,715	359,218	-0,049	0,073
-556,700	-200,000	-0,010	-0,075
-555,685	-81,065	0,081	0,019
-554,671	-142,057	0,159	-0,011
-553,656	-33,107	0,105	0,042
-552,642	-200,000	0,011	0,108
-551,627	100,868	-0,069	0,058
-550,612	-200,000	-0,015	-0,067
-549,598	-200,000	-0,056	-0,187
-548,583	83,733	-0,064	-0,051
-547,569	-52,394	-0,064	-0,022
-546,554	-141,681	0,139	0,010
-545,539	59,714	0,127	-0,092
-544,525	-200,000	-0,010	-0,054
-543,510	-135,788	-0,099	0,008
-542,496	800,000	0,041	0,088
-541,481	-180,686	-0,082	0,001
-540,466	-200,000	0,000	-0,016
-539,452	47,057	0,067	0,046
-538,437	-200,000	0,004	0,025
-537,423	94,149	-0,123	0,102
-536,408	-41,148	0,118	0,044
-535,393	-122,244	-0,037	0,004
-534,379	-200,000	-0,038	-0,169
-533,364	75,462	0,120	0,093
-532,350	-5,014	-0,137	0,069
-531,335	-134,990	0,068	0,006
-530,321	-200,000	-0,002	-0,047
-529,306	-100,908	-0,105	-0,019
-528,291	-50,604	-0,117	0,040
-527,277	-19,720	0,184	-0,083
-526,262	-200,000	-0,072	-0,242
-525,248	410,969	0,081	-0,127
-524,233	45,394	0,061	-0,041
-523,218	800,000	-0,027	0,063
-522,204	-14,605	0,053	0,025
-521,189	98,528	0,091	0,077
-520,175	800,000	0,044	-0,140
-519,160	-84,934	-0,059	-0,013
-518,145	800,000	0,041	0,096
-517,131	-200,000	-0,012	0,166
-516,116	388,596	0,086	0,131
-515,102	-126,376	-0,086	0,009
-514,087	-200,000	0,013	-0,117
-513,072	229,344	0,041	-0,050
-512,058	189,541	0,045	-0,049
-511,043	261,377	0,028	0,035
-510,029	632,049	-0,079	-0,146
-509,014	-168,400	-0,114	-0,003
-507,999	338,550	-0,072	0,102
-506,985	-200,000	-0,002	-0,044
-505,970	-3,157	0,073	-0,037
-504,956	-167,571	-0,019	-0,001
-503,941	57,842	0,098	-0,070
-502,926	-73,594	-0,117	0,031
-501,912	93,963	0,067	0,055
-500,897	40,850	-0,031	0,020
-499,883	66,523	0,034	-0,025
-498,868	-104,922	0,043	0,007
-497,853	-112,514	-0,090	0,013
-496,839	-47,004	0,078	0,028
-495,824	41,019	0,055	0,036
-494,810	528,277	-0,009	0,016
-493,795	42,557	0,091	-0,060
-492,781	-200,000	0,014	-0,088
-491,766	43,558	-0,161	0,107
-490,751	568,393	0,055	0,099
-489,737	-41,533	-0,083	0,031
-488,722	-200,000	-0,002	0,049
-487,708	58,871	-0,067	-0,048
-486,693	39,843	0,030	-0,019
-485,678	-200,000	-0,005	0,029
-484,664	-130,730	0,112	0,011
-483,649	-126,815	-0,043	0,005
-482,635	281,968	0,069	0,090
-481,620	800,000	-0,009	0,023
-480,605	-200,000	-0,015	0,098
-479,591	-200,000	0,009	0,052
-478,576	800,000	0,032	-0,069
-477,562	-55,132	-0,049	-0,016
-476,547	800,000	0,039	-0,104
-475,532	800,000	0,011	-0,034
-474,518	249,462	-0,049	0,061
-473,503	-131,853	0,102	0,010
-472,489	61,130	-0,055	0,040
-471,474	143,525	-0,093	0,091
-470,459	170,422	-0,074	-0,077
-469,445	-200,000	0,022	-0,091
-468,430	800,000	-0,018	-0,055
-467,416	2,487	-0,105	0,055
-466,401	29,312	0,129	0,080
-465,386	800,000	0,032	0,086
-464,372	61,586	0,087	0,063
-463,357	-62,423	-0,111	-0,033
-462,343	800,000	0,008	-0,019
-461,328	-97,411	-0,061	0,011
-460,313	-200,000	0,002	0,015
-459,299	-84,968	-0,070	0,016
-458,284	-47,411	-0,013	0,005
-457,270	278,635	-0,063	-0,082
-456,255	800,000	-0,051	-0,112
-455,241	44,715	-0,154	-0,103
-454,226	800,000	-0,063	-0,157
-453,211	-200,000	0,001	-0,011
-452,197	196,948	-0,059	0,066
-451,182	-16,339	0,101	0,046
-450,168	-58,417	0,099	0,031
-449,153	-29,991	0,091	-0,038
-448,138	455,177	-0,031	-0,050
-447,124	-200,000	0,021	-0,121
-446,109	800,000	0,031	0,091
-445,095	-91,794	0,132	0,027
-444,080	-200,000	-0,006	0,118
-443,065	-93,858	0,113	-0,022
-442,051	-149,709	0,169	0,010
-441,036	800,000	-0,058	0,129
-440,022	206,649	-0,083	-0,094
-439,007	46,259	0,051	-0,034
-437,992	349,427	0,080	0,115
-436,978	99,908	0,097	0,082
-435,963	-74,141	-0,134	-0,035
-434,949	-129,714	-0,135	0,013
-433,934	-200,000	0,005	0,068
-432,919	461,674	0,074	-0,121
-431,905	-200,000	0,017	0,064
-430,890	16,269	0,197	0,113
-429,876	343,861	0,055	-0,079
-428,861	663,548	0,042	0,080
-427,846	-22,809	-0,080	0,035
-426,832	120,027	-0,036	0,032
-425,817	-39,899	-0,015	0,006
-424,803	643,690	-0,008	-0,015
-423,788	-200,000	0,051	-0,196
-422,773	-133,229	-0,054	0,005
-421,759	-200,000	0,026	0,137
-420,744	93,929	0,089	0,073
-419,730	46,892	0,035	0,024
-418,715	199,534	-0,046	-0,052
-417,701	800,000	-0,052	0,107
-416,686	561,310	-0,070	0,124
-415,671	-103,574	-0,151	-0,025
-414,657	-200,000	0,015	0,052
-413,642	28,553	0,125	0,077
-412,628	77,166	0,115	-0,089
-411,613	33,445	-0,049	0,031
-410,598	-200,000	0,006	-0,025
-409,584	298,891	0,017	-0,022
-408,569	-200,000	0,001	-0,123
-407,555	800,000	-0,015	-0,031
-406,540	-111,048	0,068	-0,010
-405,525	31,457	0,045	0,028
-404,511	800,000	-0,058	0,151
-403,496	448,818	-0,034	0,055
-402,482	-47,635	-0,142	0,050
-401,467	800,000	0,021	0,055
-400,452	253,358	0,042	0,052
-399,438	-53,711	0,050	-0,016
-398,423	-104,674	-0,075	0,012
-397,409	-200,000	-0,020	-0,120
-396,394	188,231	-0,074	-0,081
-395,379	-103,930	-0,130	0,022
-394,365	497,237	0,049	0,082
-393,350	-62,088	0,040	-0,012
-392,336	800,000	-0,042	-0,084
-391,321	-200,000	-0,009	-0,068
-390,306	800,000	-0,035	-0,086
-389,292	800,000	-0,071	0,150
-388,277	800,000	-0,009	-0,018
-387,263	-24,456	0,164	0,071
-386,248	-200,000	-0,002	-0,113
-385,233	-32,888	0,150	0,060
-384,219	240,901	-0,089	-0,108
-383,204	-200,000	-0,025	-0,116
-382,190	-43,355	0,082	-0,030
-381,175	-133,687	0,091	0,008
-380,160	509,434	-0,006	-0,010
-379,146	-82,260	0,025	0,006
-378,131	-8,156	0,063	0,031
-377,117	62,570	0,116	0,084
-376,102	248,093	-0,102	-0,126
-375,088	185,827	-0,084	-0,090
-374,073	-200,000	-0,015	0,196
-373,058	166,845	-0,031	0,032
-372,044	375,968	0,043	-0,064
-371,029	-200,000	-0,010	0,161
-370,015	219,562	-0,084	-0,098
-369,000	-200,000	-0,043	-0,160
-367,985	-200,000	-0,031	-0,153
-366,971	-200,000	-0,002	-0,026
-365,956	24,788	0,071	-0,042
-364,942	800,000	0,013	-0,040
-363,927	-200,000	0,010	-0,137
-362,912	800,000	0,037	-0,078
-361,898	-78,430	-0,065	-0,016
-360,883	-200,000	-0,000	-0,060
-359,869	800,000	0,064	-0,132
-358,854	800,000	0,006	-0,014
-357,839	16,757	0,048	-0,027
-356,825	-118,423	0,048	0,006
-355,810	-200,000	0,049	-0,251
-354,796	-200,000	0,027	-0,105
-353,781	-200,000	-0,039	-0,157
-352,766	8,564	-0,043	0,024
-351,752	18,927	-0,072	0,042
-350,737	475,334	-0,013	-0,021
-349,723	-200,000	-0,004	-0,096
-348,708	168,346	0,068	0,070
-347,693	-35,505	0,013	0,005
-346,679	663,913	-0,060	-0,113
-345,664	27,871	-0,041	0,025
-344,650	-7,031	0,080	0,039
-343,635	197,596	0,074	0,082
-342,620	-34,123	0,047	-0,019
-341,606	-200,000	-0,004	0,064
-340,591	-18,282	-0,058	0,026
-339,577	-200,000	-0,028	-0,132
-338,562	63,884	-0,075	0,055
-337,548	53,340	0,047	0,032
-336,533	800,000	0,036	-0,087
-335,518	173,303	0,094	0,098
-334,504	449,246	-0,069	0,111
-333,489	-200,000	-0,013	-0,045
-332,475	133,656	-0,030	-0,028
-331,460	328,789	0,077	-0,108
-330,445	-112,558	-0,152	0,022
-329,431	205,133	0,018	-0,020
-328,416	-130,130	0,118	-0,012
-327,402	-200,000	-0,001	0,123
-326,387	800,000	0,021	-0,053
-325,372	124,363	0,109	0,100
-324,358	-23,306	-0,096	0,042
-323,343	-3,631	-0,111	-0,056
-322,329	-200,000	-0,014	-0,103
-321,314	121,395	0,080	0,073
-320,299	379,039	-0,039	0,058
-319,285	52,373	0,068	0,047
-318,270	-200,000	0,005	-0,114
-317,256	-39,325	-0,059	0,022
-316,241	-190,665	0,015	0,000
-315,226	-200,000	0,022	0,185
-314,212	800,000	-0,027	-0,066
-313,197	-35,898	0,126	0,049
-312,183	-31,256	-0,110	-0,045
-311,168	-200,000	-0,025	-0,085
-310,153	66,569	0,035	-0,026
-309,139	100,542	-0,083	-0,070
-308,124	-141,208	0,086	-0,006
-307,110	-28,840	0,225	0,093
-306,095	62,335	-0,033	-0,024
-305,080	709,984	0,012	-0,023
-304,066	-200,000	0,005	-0,125
-303,051	31,918	-0,092	0,057
-302,037	-140,418	-0,122	-0,009
-301,022	-135,223	-0,080	0,007
-300,008	-101,011	0,160	-0,028
-298,993	-200,000	0,018	0,086
-297,978	-175,056	-0,132	0,003
-296,964	-57,365	-0,084	-0,027
-295,949	-65,656	0,073	-0,021
-294,935	-200,000	0,006	-0,150
-293,920	800,000	0,019	0,040
-292,905	-200,000	0,019	0,117
-291,891	153,999	0,057	0,056
-290,876	86,489	0,055	-0,044
-289,862	374,306	0,030	-0,045
-288,847	800,000	-0,015	-0,049
-287,832	800,000	0,064	-0,151
-286,818	-100,149	0,091	-0,016
-285,803	-82,187	-0,123	-0,029
-284,789	581,294	0,030	0,054
-283,774	75,224	0,080	-0,061
-282,759	-86,069	0,151	0,034
-281,745	-174,162	-0,068	0,001
-280,730	24,119	-0,094	-0,056
-279,716	-61,155	-0,134	-0,041
-278,701	800,000	-0,034	0,083
-277,686	106,514	0,018	0,015
-276,672	62,887	0,014	0,010
-275,657	-72,326	0,031	-0,008
-274,643	93,143	-0,080	-0,066
-273,628	256,282	-0,044	0,055
-272,613	199,729	0,055	0,061
-271,599	282,742	0,035	0,046
-270,584	-12,367	0,051	0,024
-269,570	-200,000	-0,007	-0,056
-268,555	-200,000	0,020	-0,082
-267,540	24,815	0,021	-0,013
-266,526	800,000	-0,030	0,082
-265,511	-200,000	-0,020	-0,102
-264,497	800,000	0,026	0,081
-263,482	-200,000	0,023	0,187
-262,467	2,656	0,120	0,063
-261,453	29,866	0,099	-0,061
-260,438	557,241	-0,042	-0,073
-259,424	-106,122	0,097	-0,016
-258,409	83,065	-0,124	0,098
-257,395	343,021	0,035	-0,050
-256,380	-194,895	0,127	-0,001
-255,365	-68,231	0,104	0,029
-254,351	-148,433	-0,027	-0,002
-253,336	-14,159	0,089	-0,041
-252,322	800,000	0,016	-0,040
-251,307	-200,000	-0,014	0,078
-250,292	-200,000	0,015	0,091
-249,278	-122,560	0,130	-0,015
-248,263	-200,000	-0,007	0,048
-247,249	800,000	-0,048	-0,107
-246,234	-115,582	-0,087	-0,012
-245,219	-11,085	0,090	0,043
-244,205	-200,000	0,016	0,065
-243,190	194,474	-0,024	-0,027
-242,176	800,000	0,068	0,168
-241,161	-200,000	0,024	0,104
-240,146	-73,078	-0,006	-0,002
-239,132	-175,171	-0,088	-0,002
-238,117	241,665	0,097	-0,117
-237,103	-200,000	0,009	-0,045
-236,088	-200,000	-0,020	0,096
-235,073	486,149	0,081	-0,133
-234,059	93,497	-0,107	0,087
-233,044	800,000	0,033	0,074
-232,030	0,523	0,106	-0,055
-231,015	-58,806	-0,195	0,060
-230,000	159,397	0,053	-0,053
-228,986	-154,687	0,039	0,002
-227,971	800,000	0,046	-0,127
-226,957	55,275	0,113	0,079
-225,942	-89,969	0,039	-0,008
-224,927	800,000	-0,007	-0,016
-223,913	316,521	0,014	0,019
-222,898	-169,540	0,063	-0,002
-221,884	-200,000	-0,022	-0,121
-220,869	-200,000	0,019	-0,106
-219,855	800,000	0,040	0,101
-218,840	127,385	0,051	0,047
-217,825	203,501	-0,060	0,067
-216,811	-200,000	-0,003	0,108
-215,796	95,567	-0,027	0,022
-214,782	-58,288	-0,130	0,041
-213,767	16,555	0,044	0,025
-212,752	147,930	-0,063	-0,061
-211,738	394,914	-0,009	-0,014
-210,723	157,244	0,035	0,035
-209,709	87,759	-0,036	-0,029
-208,694	-40,459	-0,082	0,030
-207,679	21,240	0,102	-0,060
-206,665	-21,730	-0,111	-0,049
-205,650	800,000	0,041	0,085
-204,636	-82,269	0,082	-0,019
-203,621	14,913	-0,069	0,039
-202,606	-200,000	0,027	-0,089
-201,592	8,782	0,102	-0,055
-200,577	-200,000	-0,020	-0,098
-199,563	-200,000	0,058	-0,207
-198,548	126,971	0,072	-0,066
-197,533	-200,000	-0,002	0,029
-196,519	800,000	0,069	0,158
-195,504	-89,821	0,032	0,007
-194,490	518,861	-0,020	0,034
-193,475	-200,000	-0,010	-0,104
-192,460	94,689	0,031	-0,026
-191,446	-200,000	0,002	0,038
-190,431	87,014	0,084	-0,067
-189,417	328,621	-0,099	-0,138
-188,402	335,339	0,041	-0,057
-187,387	311,548	-0,056	0,076
-186,373	800,000	-0,087	-0,176
-185,358	429,757	0,021	0,032
-184,344	122,525	0,044	-0,040
-183,329	800,000	0,049	-0,126
-182,315	-200,000	-0,003	0,019
-181,300	-67,385	-0,116	-0,033
-180,285	142,467	-0,057	-0,054
-179,271	401,444	0,049	-0,075
-178,256	-34,060	0,066	0,026
-177,242	800,000	-0,064	0,150
-176,227	43,197	0,020	0,013
-175,212	-16,688	0,072	-0,033
-174,198	-200,000	-0,020	-0,074
-173,183	-200,000	0,006	-0,058
-172,169	-200,000	-0,009	-0,057
-171,154	57,173	-0,091	0,064
-170,139	182,222	-0,022	0,024
-169,125	594,089	-0,050	0,090
-168,110	5,121	-0,044	0,024
-167,096	-71,405	-0,085	0,023
-166,081	711,199	0,020	-0,038
-165,066	389,858	-0,103	0,154
-164,052	44,831	-0,080	-0,053
-163,037	800,000	-0,031	-0,086
-162,023	287,050	-0,005	-0,006
-161,008	-116,970	-0,019	-0,003
-159,993	87,235	-0,059	-0,047
-158,979	627,512	-0,062	-0,112
-157,964	-200,000	0,015	0,079
-156,950	-55,790	0,098	-0,031
-155,935	199,108	0,067	0,075
-154,920	-43,511	-0,044	0,016
-153,906	77,524	0,048	0,037
-152,891	583,178	0,047	-0,083
-151,877	-83,650	-0,153	-0,035
-150,862	-26,096	-0,126	0,053
-149,847	-64,032	-0,112	-0,033
-148,833	-61,881	0,024	-0,007
-147,818	605,506	0,041	0,073
-146,804	-121,517	0,093	0,011
-145,789	58,570	0,090	-0,063
-144,775	599,632	-0,043	-0,077
-143,760	-200,000	0,007	0,034
-142,745	-70,584	0,061	-0,016
-141,731	210,661	0,061	-0,070
-140,716	-22,142	0,093	0,041
-139,702	731,825	0,053	0,103
-138,687	-200,000	0,008	0,037
-137,672	800,000	-0,016	-0,051
-136,658	-96,236	0,083	0,016
-135,643	-200,000	0,008	-0,061
-134,629	-200,000	-0,021	-0,120
-133,614	-125,649	-0,051	-0,006
-132,599	31,324	0,168	0,104
-131,585	586,083	-0,028	0,050
-130,570	-43,676	-0,075	-0,027
-129,556	394,133	-0,030	-0,044
-128,541	354,345	-0,058	-0,083
-127,526	-200,000	-0,046	-0,154
-126,512	-34,116	0,068	0,027
-125,497	-200,000	0,024	0,080
-124,483	-200,000	-0,003	0,041
-123,468	268,087	0,063	-0,079
-122,453	-140,314	-0,133	0,010
-121,439	268,828	-0,061	0,077
-120,424	257,412	0,087	-0,108
-119,410	-47,029	-0,092	-0,032
-118,395	53,690	0,020	0,014
-117,380	21,140	0,062	0,036
-116,366	-62,651	-0,037	0,011
-115,351	275,048	0,029	0,038
-114,337	-9,971	-0,093	0,045
-113,322	-131,486	-0,091	0,009
-112,307	-63,270	0,020	-0,006
-111,293	35,613	-0,042	-0,026
-110,278	171,720	0,064	0,066
-109,264	-141,456	-0,124	0,009
-108,249	633,899	0,047	-0,086
-107,234	371,467	-0,098	-0,144
-106,220	7,680	-0,063	-0,034
-105,205	466,510	0,126	0,204
-104,191	-69,523	0,060	-0,016
-103,176	-200,000	0,010	0,094
-102,162	17,256	-0,120	-0,069
-101,147	-200,000	0,001	0,029
-100,132	354,347	0,069	-0,098
-99,118	-43,036	0,085	-0,031
-98,103	800,000	-0,068	-0,147
-97,089	-43,121	-0,031	-0,011
-96,074	800,000	-0,024	0,070
-95,059	800,000	0,009	0,020
-94,045	800,000	-0,016	-0,052
-93,030	-83,394	0,042	-0,010
-92,016	10,352	-0,056	0,031
-91,001	800,000	-0,039	0,080
-89,986	164,990	0,085	0,086
-88,972	196,323	0,124	0,136
-87,957	-200,000	-0,007	0,058
-86,943	138,208	0,012	-0,011
-85,928	107,685	-0,085	-0,072
-84,913	278,724	0,049	0,062
-83,899	-200,000	-0,025	-0,181
-82,884	-200,000	-0,003	-0,021
-81,870	-49,575	-0,038	0,013
-80,855	-200,000	0,020	0,144
-79,840	253,940	0,086	-0,106
-78,826	-200,000	-0,031	-0,181
-77,811	149,822	-0,115	-0,112
-76,797	800,000	-0,049	0,147
-75,782	-36,396	-0,011	0,004
-74,767	-200,000	0,021	-0,148
-73,753	256,821	0,076	-0,094
-72,738	800,000	-0,024	-0,068
-71,724	-200,000	0,039	-0,126
-70,709	-110,953	-0,136	0,020
-69,694	-74,174	0,058	0,015
-68,680	156,486	0,084	0,083
-67,665	109,058	0,063	0,054
-66,651	-115,825	0,141	-0,019
-65,636	800,000	-0,038	-0,111
-64,622	-115,445	0,037	0,005
-63,607	-117,459	-0,053	-0,007
-62,592	-200,000	-0,035	0,174
-61,578	-166,031	0,048	-0,001
-60,563	-200,000	0,000	0,018
-59,549	-120,573	-0,130	-0,016
-58,534	-7,570	-2,036	-0,985
-57,519	-200,000	-0,269	-0,922
-56,505	-200,000	-1,319	-5,072
-55,490	-12,686	0,861	0,401
-54,476	800,000	5,430	12,238
-53,461	-200,000	17,703	285,442
-52,446	800,000	728,141	2220,774
-51,432	536,240	1644,098	2811,637
-50,417	110,057	1634,662	1407,834
-49,403	75,985	1286,925	976,002
-48,388	32,047	1027,464	634,235
-47,373	20,142	989,338	571,447
-46,359	18,477	976,851	558,757
-45,344	15,553	972,989	546,962
-44,330	15,751	971,542	546,774
-43,315	15,210	969,790	544,000
-42,300	15,230	968,679	543,421
-41,286	15,191	967,607	542,669
-40,271	15,235	966,645	542,252
-39,257	15,177	965,854	541,597
-38,242	15,230	964,788	541,149
-37,227	15,223	963,876	540,595
-36,213	15,185	963,236	540,092
-35,198	15,169	962,335	539,513
-34,184	15,271	961,435	539,317
-33,169	15,176	960,587	538,514
-32,154	15,228	959,618	538,117
-31,140	15,258	958,671	537,661
-30,125	15,188	958,055	537,069
-29,111	15,229	957,375	536,798
-28,096	15,244	956,603	536,392
-27,082	15,291	955,901	536,127
-26,067	15,201	955,239	535,448
-25,052	15,216	954,310	534,952
-24,038	15,214	953,756	534,614
-23,023	15,161	953,096	534,053
-22,009	15,236	952,572	533,979
-20,994	15,298	951,862	533,757
-19,979	15,259	951,058	533,162
-18,965	15,280	950,402	532,839
-17,950	15,237	949,935	532,418
-16,936	15,137	949,420	531,788
-15,921	15,218	948,537	531,533
-14,906	15,108	947,848	530,776
-13,892	15,116	947,268	530,455
-12,877	15,054	946,557	529,839
-11,863	15,101	946,046	529,679
-10,848	15,077	945,406	529,224
-9,833	15,206	944,903	529,331
-8,819	15,170	944,359	528,893
-7,804	15,081	943,807	528,280
-6,790	15,107	943,110	527,952
-5,775	15,173	942,630	527,869
-4,760	15,163	942,100	527,520
-3,746	15,110	941,301	526,884
-2,731	15,052	940,577	526,275
-1,717	14,924	939,950	525,498
-0,702	14,982	939,328	525,315
0,313	14,793	938,655	525,135
1,327	18,108	936,563	534,358
2,342	27,340	793,453	477,139
3,356	24,107	458,483	270,745
4,371	-3,373	314,001	156,258
5,386	-7,479	295,942	143,106
6,400	-9,521	289,776	138,087
7,415	-9,846	287,357	136,602
8,429	-9,985	285,817	135,723
9,444	-9,980	284,808	135,236
10,459	-10,131	284,296	134,834
11,473	-10,144	283,694	134,524
12,488	-10,196	283,290	134,270
13,502	-10,147	282,677	134,015
14,517	-9,957	282,247	133,982
15,531	-10,119	281,831	133,617
16,546	-9,915	281,303	133,551
17,561	-10,095	280,951	133,199
18,575	-10,003	280,641	133,129
19,590	-10,071	280,214	132,849
20,604	-10,110	280,105	132,748
21,619	-9,983	279,593	132,615
22,634	-10,081	279,401	132,418
23,648	-10,116	278,949	132,159
24,663	-9,938	278,708	132,203
25,677	-10,055	278,509	131,985
26,692	-10,222	278,288	131,710
27,707	-10,215	277,961	131,550
28,721	-9,992	277,620	131,589
29,736	-10,144	277,299	131,280
30,750	-10,134	277,081	131,175
31,765	-10,244	277,000	131,021
32,780	-10,055	276,562	130,981
33,794	-10,060	276,435	130,904
34,809	-10,123	276,135	130,691
35,823	-10,158	275,882	130,527
36,838	-10,155	275,539	130,356
37,853	-10,038	275,346	130,363
38,867	-10,077	275,054	130,176
39,882	-10,030	274,955	130,162
40,896	-9,961	274,616	130,055
41,911	-10,131	274,428	129,794
42,926	-10,247	274,159	129,547
43,940	-10,201	273,902	129,457
44,955	-10,120	273,645	129,400
45,969	-10,104	273,518	129,343
46,984	-10,436	273,270	128,905
47,999	-10,608	272,894	128,556
49,013	-10,681	272,636	128,355
50,028	-10,649	272,399	128,261
51,042	-10,770	272,107	128,000
52,057	-10,887	271,794	127,733
53,071	-10,793	271,651	127,742
54,086	-10,777	271,508	127,678
55,101	-10,564	271,327	127,778
56,115	-10,532	271,177	127,726
57,130	-10,053	270,991	128,069
58,144	-10,073	270,910	128,001
59,159	-10,004	270,482	127,851
60,174	-9,871	270,368	127,909
61,188	-9,932	270,257	127,789
62,203	-10,045	269,907	127,507
63,217	-9,907	269,671	127,512
64,232	-9,976	269,575	127,392
65,247	-9,779	269,297	127,429
66,261	-10,027	268,985	127,043
67,276	-10,110	268,692	126,817
68,290	-10,364	268,555	126,509
69,305	-10,487	268,382	126,304
70,320	-10,382	268,100	126,256
71,334	-10,111	267,852	126,375
72,349	-9,961	267,733	126,445
73,363	-10,075	267,541	126,239
74,378	-9,917	267,304	126,259
75,393	-10,018	267,075	126,048
76,407	-10,130	266,887	125,846
77,422	-9,844	266,635	125,976
78,436	-9,938	266,346	125,743
79,451	-9,973	266,304	125,680
80,466	-9,882	265,790	125,509
81,480	-10,103	265,680	125,246
82,495	-10,050	265,343	125,124
83,509	-10,183	265,303	124,973
84,524	-10,083	265,047	124,931
85,539	-10,112	264,692	124,727
86,553	-10,390	264,625	124,435
87,568	-10,231	264,347	124,435
88,582	-10,157	264,216	124,429
89,597	-10,341	263,994	124,148
90,611	-10,052	263,910	124,357
91,626	-9,959	263,722	124,341
92,641	-10,107	263,516	124,100
93,655	-10,028	263,392	124,102
94,670	-10,066	263,034	123,888
95,684	-9,960	262,758	123,841
96,699	-9,997	262,657	123,749
97,714	-10,182	262,425	123,464
98,728	-10,348	262,321	123,256
99,743	-10,387	262,025	123,072
100,757	-10,268	261,765	123,044
101,772	-10,229	261,619	122,999
102,787	-10,041	261,389	123,047
103,801	-10,153	261,253	122,873
104,816	-9,983	261,108	122,945
105,830	-10,061	261,004	122,815
106,845	-9,943	260,698	122,764
107,860	-10,041	260,379	122,517
108,874	-10,170	260,236	122,325
109,889	-9,836	260,182	122,583
110,903	-10,001	259,827	122,260
111,918	-10,111	259,724	122,103
112,933	-9,921	259,422	122,118
113,947	-10,088	259,486	121,990
114,962	-9,947	259,192	121,965
115,976	-9,984	258,885	121,777
116,991	-10,234	258,916	121,562
118,006	-9,965	258,631	121,652
119,020	-10,073	258,532	121,500
120,035	-9,927	258,278	121,498
121,049	-10,037	258,154	121,332
122,064	-9,832	257,820	121,344
123,079	-9,729	257,681	121,357
124,093	-9,921	257,567	121,126
125,108	-10,216	257,234	120,701
126,122	-10,271	256,864	120,469
127,137	-10,327	256,695	120,331
128,151	-10,415	256,598	120,198
129,166	-10,168	256,291	120,257
130,181	-10,278	256,274	120,144
131,195	-10,281	256,013	120,007
132,210	-10,163	255,863	120,028
133,224	-9,951	255,696	120,124
134,239	-10,051	255,573	119,968
135,254	-10,119	255,279	119,760
136,268	-10,272	255,160	119,562
137,283	-10,383	254,906	119,336
138,297	-10,422	254,723	119,207
139,312	-10,300	254,302	119,103
140,327	-10,127	254,300	119,241
141,341	-9,824	254,143	119,418
142,356	-9,949	254,073	119,267
143,370	-9,730	253,816	119,323
144,385	-9,767	253,696	119,224
145,400	-9,793	253,602	119,147
146,414	-9,774	253,415	119,066
147,429	-9,863	253,215	118,884
148,443	-9,822	252,986	118,802
149,458	-9,973	253,027	118,680
150,473	-9,960	252,676	118,517
151,487	-9,899	252,413	118,435
152,502	-9,847	252,239	118,387
153,516	-9,902	252,119	118,273
154,531	-9,959	252,027	118,171
155,546	-9,834	251,699	118,113
156,560	-9,902	251,564	117,981
157,575	-10,082	251,401	117,741
158,589	-9,931	251,175	117,754
159,604	-9,962	251,202	117,729
160,619	-9,896	250,811	117,592
161,633	-9,892	250,576	117,474
162,648	-9,758	250,502	117,542
163,662	-9,764	250,408	117,482
164,677	-9,762	250,116	117,337
165,692	-9,924	250,092	117,178
166,706	-9,804	249,921	117,189
167,721	-10,078	249,678	116,833
168,735	-9,912	249,643	116,946
169,750	-9,782	249,404	116,934
170,764	-10,099	249,421	116,665
171,779	-9,792	249,002	116,716
172,794	-9,792	248,985	116,698
173,808	-9,804	248,608	116,500
174,823	-10,114	248,420	116,142
175,837	-10,323	248,053	115,786
176,852	-9,943	248,178	116,152
177,867	-9,802	248,034	116,192
178,881	-10,004	248,031	116,010
179,896	-9,920	247,727	115,929
180,910	-9,818	247,569	115,930
181,925	-9,786	247,343	115,840
182,940	-9,879	247,119	115,648
183,954	-9,949	247,067	115,554
184,969	-9,826	246,892	115,564
185,983	-9,714	246,588	115,505
186,998	-9,775	246,521	115,413
188,013	-9,819	246,390	115,304
189,027	-9,749	246,181	115,255
190,042	-9,692	245,891	115,156
191,056	-9,942	245,878	114,932
192,071	-10,084	245,704	114,723
193,086	-9,723	245,535	114,932
194,100	-9,754	245,210	114,744
195,115	-9,822	245,133	114,642
196,129	-9,836	244,902	114,512
197,144	-9,701	244,628	114,485
198,159	-9,766	244,413	114,320
199,173	-9,870	244,298	114,171
200,188	-9,870	244,178	114,105
201,202	-9,914	243,976	113,965
202,217	-10,281	243,752	113,548
203,232	-10,418	243,547	113,331
204,246	-9,832	243,292	113,682
205,261	-9,593	243,243	113,844
206,275	-10,615	242,997	112,883
207,290	-7,180	244,045	116,178
208,304	-0,289	246,460	123,012
209,319	3,296	247,381	126,425
210,334	3,786	247,472	126,865
211,348	4,126	247,213	127,001
212,363	4,210	247,164	127,034
213,377	4,330	247,014	127,045
214,392	4,165	246,776	126,775
215,407	4,100	246,693	126,667
216,421	4,179	246,468	126,606
217,436	4,186	246,481	126,607
218,450	4,449	246,193	126,664
219,465	4,036	246,040	126,234
220,480	3,900	245,804	125,991
221,494	3,877	245,563	125,837
222,509	3,959	245,442	125,831
223,523	3,722	245,258	125,532
224,538	3,422	244,951	125,119
225,553	3,437	244,854	125,070
226,567	3,760	244,743	125,266
227,582	3,607	244,668	125,091
228,596	3,891	244,376	125,162
229,611	3,366	244,407	124,739
230,626	3,465	244,073	124,638
231,640	3,513	244,018	124,638
232,655	3,539	243,868	124,572
233,669	3,549	243,570	124,417
234,684	3,318	243,366	124,114
235,699	3,882	243,410	124,582
236,713	3,981	243,202	124,545
237,728	3,549	242,993	124,077
238,742	3,359	242,807	123,818
239,757	3,384	242,627	123,734
240,772	3,447	242,547	123,734
241,786	3,616	242,420	123,794
242,801	3,519	242,121	123,553
243,815	3,368	242,079	123,399
244,830	3,656	241,974	123,566
245,844	3,783	241,733	123,534
246,859	3,707	241,618	123,403
247,874	3,493	241,284	123,049
248,888	3,542	241,276	123,074
249,903	3,895	241,093	123,253
250,917	3,868	241,028	123,187
251,932	4,050	240,972	123,293
252,947	3,951	240,654	123,040
253,961	3,403	240,487	122,506
254,976	3,768	240,264	122,673
255,990	3,898	240,148	122,706
257,005	3,344	240,128	122,243
258,020	3,561	239,831	122,254
259,034	3,508	239,757	122,163
260,049	3,717	239,618	122,248
261,063	3,557	239,413	122,005
262,078	3,329	239,294	121,752
263,093	3,867	239,099	122,069
264,107	3,900	238,903	121,985
265,122	3,562	238,616	121,560
266,136	3,442	238,794	121,544
267,151	4,054	238,534	121,885
268,166	3,469	238,209	121,246
269,180	3,417	238,080	121,129
270,195	4,037	238,157	121,647
271,209	4,354	238,049	121,831
272,224	3,771	237,749	121,207
273,239	3,102	237,482	120,533
274,253	3,406	237,315	120,677
275,268	3,736	237,202	120,869
276,282	3,607	237,077	120,692
277,297	3,457	236,944	120,496
278,312	3,636	236,721	120,512
279,326	3,656	236,687	120,500
280,341	3,630	236,538	120,393
281,355	3,880	236,340	120,477
282,370	3,947	236,072	120,382
283,384	3,812	236,133	120,297
284,399	3,549	235,777	119,900
285,414	3,401	235,539	119,652
286,428	3,464	235,551	119,697
287,443	3,562	235,460	119,716
288,457	3,645	235,352	119,716
289,472	3,734	235,244	119,719
290,487	3,617	235,049	119,519
291,501	3,637	234,698	119,345
292,516	3,126	234,626	118,900
293,530	3,465	234,326	119,001
294,545	3,756	234,381	119,244
295,560	3,697	234,170	119,080
296,574	3,416	233,997	118,764
297,589	3,417	233,866	118,688
298,603	3,830	233,848	118,987
299,618	3,849	233,800	118,968
300,633	3,765	233,646	118,813
301,647	3,865	233,428	118,769
302,662	3,917	233,573	118,873
303,676	4,117	233,124	118,788
304,691	3,821	233,205	118,590
305,706	4,072	232,864	118,600
306,720	3,821	232,884	118,406
307,735	3,888	232,579	118,292
308,749	3,656	232,480	118,052
309,764	3,438	232,075	117,668
310,779	3,529	231,892	117,635
311,793	3,484	231,751	117,519
312,808	3,237	231,652	117,269
313,822	3,128	231,628	117,163
314,837	3,427	231,274	117,202
315,852	3,356	231,199	117,100
316,866	3,820	231,100	117,393
317,881	3,982	231,042	117,477
318,895	4,018	230,896	117,419
319,910	4,203	230,732	117,467
320,925	3,906	230,448	117,086
321,939	3,615	230,239	116,748
322,954	3,543	230,179	116,652
323,968	3,332	230,106	116,444
324,983	3,784	229,887	116,666
325,997	4,068	229,766	116,810
327,012	3,998	229,671	116,698
328,027	3,638	229,523	116,339
329,041	3,788	229,346	116,353
330,056	4,030	229,370	116,538
331,070	4,251	229,342	116,681
332,085	3,989	229,195	116,398
333,100	4,146	228,856	116,334
334,114	3,891	228,716	116,060
335,129	3,831	228,649	115,969
336,143	4,113	228,405	116,048
337,158	3,988	228,379	115,930
338,173	3,815	228,331	115,765
339,187	3,960	228,035	115,714
340,202	3,994	227,864	115,643
341,216	3,990	227,707	115,550
342,231	3,829	227,610	115,370
343,246	3,913	227,353	115,292
344,260	3,969	227,361	115,327
345,275	4,059	227,306	115,357
346,289	4,154	227,058	115,292
347,304	4,061	226,907	115,136
348,319	4,186	226,764	115,146
349,333	3,946	226,696	114,922
350,348	3,923	226,317	114,702
351,362	3,824	226,277	114,597
352,377	3,631	226,005	114,306
353,392	3,582	225,882	114,197
354,406	3,491	225,744	114,049
355,421	194,484	1321,532	1395,043
356,435	155,844	1455,026	1395,033
