DTS Sentinel unit serial number:	SN410029Multiplexer serial number:	ORYXHardware model number:	OX2-SRSoftware version number:	ORYX F/W v4,00 Oryx Data Collector v3.7.2.0data status	okinstallation	B5 Nyhavnadifferential loss correction	single-endedforward channel	channel 2reverse channel	N/Adate	2023/12/14time	02:07:13forward acquisition time	300,00reverse acquisition time	0,00gamma	499,1914k internal	0,3155k external	0,3155temperature offset calibration	1,0000default loss term (dB/km)	0,3820temperature slope calibration	1,0000multiplexer offset coefficient	1,0000multiplexer slope coefficient	1,0000fibre end	0,00T internal ref (°C)	8,62T ext. ref 1 (°C)	-7,61T ext. ref 2 (°C)	-7,65length (m)	temperature (°C)	Stokes	anti-Stokes-744,400	-35,657	0,163	0,065
-743,385	-148,912	-0,374	0,022
-742,371	103,810	0,178	0,155
-741,356	-6,049	-0,278	0,140
-740,342	-4,605	0,176	0,089
-739,327	-80,844	-0,515	-0,125
-738,312	-90,106	0,205	0,044
-737,298	-102,238	-0,331	-0,058
-736,283	127,328	0,142	0,133
-735,269	-122,827	-0,395	-0,047
-734,254	-167,624	0,175	-0,005
-733,239	-34,154	-0,595	-0,240
-732,225	179,324	0,161	0,173
-731,210	247,848	0,023	-0,029
-730,196	-69,498	-0,088	0,025
-729,181	200,987	0,071	-0,081
-728,167	-13,041	-0,132	-0,063
-727,152	34,915	0,116	0,075
-726,137	-72,792	-0,193	-0,052
-725,123	190,082	0,037	-0,041
-724,108	272,476	-0,078	-0,102
-723,094	-20,267	-0,037	0,017
-722,079	87,390	-0,126	-0,103
-721,064	402,469	0,047	0,073
-720,050	-200,000	-0,015	0,101
-719,035	47,712	-0,109	0,075
-718,021	800,000	-0,021	-0,062
-717,006	-50,702	0,069	-0,024
-715,991	-80,777	-0,143	-0,035
-714,977	64,394	-0,054	0,040
-713,962	64,679	-0,093	-0,069
-712,948	14,734	-0,095	-0,055
-711,933	-99,896	-0,061	0,011
-710,918	-200,000	0,007	-0,024
-709,904	800,000	0,019	0,058
-708,889	118,687	-0,011	-0,010
-707,875	85,471	-0,136	-0,110
-706,860	-200,000	0,023	0,106
-705,845	-49,361	-0,054	-0,019
-704,831	800,000	-0,077	0,231
-703,816	800,000	-0,016	-0,038
-702,802	428,145	0,078	-0,125
-701,787	-97,445	-0,035	-0,007
-700,772	-121,250	0,018	0,002
-699,758	-55,135	-0,051	0,017
-698,743	101,404	0,073	0,063
-697,729	800,000	0,041	0,099
-696,714	-108,856	-0,095	-0,015
-695,699	800,000	0,067	-0,169
-694,685	265,448	-0,037	-0,047
-693,670	-82,060	0,090	0,021
-692,656	189,838	-0,059	-0,065
-691,641	-200,000	0,001	-0,024
-690,627	-38,145	-0,096	-0,037
-689,612	-167,905	-0,185	-0,005
-688,597	-57,398	0,018	0,006
-687,583	-115,198	-0,034	0,005
-686,568	-39,115	0,071	-0,027
-685,554	22,816	-0,058	0,035
-684,539	800,000	0,019	0,049
-683,524	-200,000	0,009	0,087
-682,510	25,671	-0,059	0,036
-681,495	-165,087	-0,146	0,005
-680,481	-200,000	0,007	0,096
-679,466	-120,271	0,068	0,008
-678,451	-200,000	0,006	-0,069
-677,437	52,194	-0,124	-0,087
-676,422	415,358	-0,034	-0,054
-675,408	83,775	0,088	-0,071
-674,393	509,503	-0,032	-0,055
-673,378	-1,191	0,071	0,037
-672,364	-65,132	-0,164	-0,048
-671,349	-58,493	-0,113	-0,036
-670,335	-200,000	0,007	-0,093
-669,320	800,000	0,043	0,088
-668,305	-19,711	0,032	-0,015
-667,291	-7,168	0,095	0,047
-666,276	-53,694	-0,160	0,053
-665,262	-24,541	-0,040	0,018
-664,247	451,905	-0,041	-0,066
-663,232	-200,000	0,003	-0,024
-662,218	800,000	-0,063	0,157
-661,203	472,523	-0,036	0,060
-660,189	800,000	0,064	0,161
-659,174	-11,302	-0,040	0,019
-658,159	-107,037	0,093	-0,015
-657,145	133,842	-0,021	0,020
-656,130	-200,000	0,009	0,165
-655,116	-32,263	0,012	0,005
-654,101	-200,000	0,010	0,119
-653,086	800,000	0,057	0,171
-652,072	24,887	-0,031	0,019
-651,057	800,000	-0,040	-0,082
-650,043	194,421	0,013	-0,015
-649,028	765,435	0,039	-0,078
-648,014	-88,861	-0,124	-0,027
-646,999	-151,386	0,037	0,002
-645,984	760,400	0,050	0,101
-644,970	-200,000	-0,005	0,063
-643,955	58,972	0,036	0,026
-642,941	108,250	-0,144	-0,126
-641,926	-39,126	-0,150	-0,058
-640,911	-91,066	0,044	-0,009
-639,897	-200,000	-0,030	-0,137
-638,882	800,000	-0,091	-0,216
-637,868	68,203	0,095	-0,072
-636,853	717,456	-0,045	-0,088
-635,838	-38,340	-0,049	-0,019
-634,824	-142,846	0,016	0,001
-633,809	-200,000	-0,007	0,073
-632,795	161,258	-0,039	-0,040
-631,780	800,000	0,041	0,121
-630,765	-200,000	-0,015	0,052
-629,751	106,056	0,081	0,070
-628,736	-80,376	-0,108	0,026
-627,722	127,776	0,132	-0,123
-626,707	800,000	0,033	0,094
-625,692	-58,047	-0,211	0,067
-624,678	212,865	0,056	0,065
-623,663	22,175	0,035	-0,021
-622,649	-46,038	-0,087	-0,031
-621,634	332,166	0,051	-0,073
-620,619	-200,000	-0,020	-0,081
-619,605	51,584	-0,131	-0,092
-618,590	547,779	-0,029	-0,052
-617,576	53,452	-0,014	0,010
-616,561	800,000	-0,055	0,140
-615,546	-33,607	0,107	0,043
-614,532	165,238	-0,122	-0,126
-613,517	-200,000	-0,008	0,109
-612,503	25,511	-0,058	0,035
-611,488	89,147	0,088	0,072
-610,474	-44,110	-0,130	-0,048
-609,459	-200,000	-0,029	-0,100
-608,444	-200,000	0,011	-0,052
-607,430	800,000	-0,015	-0,039
-606,415	800,000	-0,058	-0,124
-605,401	439,265	-0,055	0,089
-604,386	17,306	-0,063	0,036
-603,371	-50,200	0,133	0,046
-602,357	239,971	-0,046	-0,056
-601,342	-200,000	-0,005	0,021
-600,328	421,034	-0,041	-0,065
-599,313	-32,057	0,033	0,014
-598,298	-30,762	0,118	0,049
-597,284	44,976	0,148	0,100
-596,269	-200,000	0,001	0,021
-595,255	-200,000	-0,015	-0,082
-594,240	542,875	0,039	-0,069
-593,225	-35,712	-0,062	-0,025
-592,211	800,000	-0,029	0,061
-591,196	284,085	-0,036	-0,047
-590,182	-200,000	0,026	0,087
-589,167	579,527	0,040	0,072
-588,152	290,790	-0,030	-0,040
-587,138	12,415	0,061	-0,034
-586,123	-79,263	-0,140	0,035
-585,109	-200,000	0,049	-0,290
-584,094	25,695	0,089	0,054
-583,079	-10,211	0,134	0,065
-582,065	127,735	0,047	-0,044
-581,050	209,214	0,040	-0,046
-580,036	800,000	-0,072	-0,206
-579,021	60,185	-0,110	-0,080
-578,006	-117,298	-0,069	-0,009
-576,992	78,753	-0,026	0,020
-575,977	684,581	-0,041	-0,079
-574,963	-200,000	0,002	-0,040
-573,948	59,269	-0,108	-0,078
-572,934	14,304	0,100	-0,057
-571,919	800,000	-0,037	-0,089
-570,904	238,550	0,042	0,051
-569,890	800,000	-0,043	-0,111
-568,875	-200,000	-0,026	0,102
-567,861	800,000	0,013	-0,026
-566,846	290,363	-0,025	0,033
-565,831	-200,000	-0,037	0,144
-564,817	208,183	-0,008	-0,009
-563,802	-200,000	-0,030	-0,118
-562,788	-21,960	-0,096	0,043
-561,773	-200,000	0,075	0,351
-560,758	-200,000	0,004	0,123
-559,744	-200,000	-0,010	0,033
-558,729	-200,000	0,008	0,146
-557,715	63,219	-0,103	-0,075
-556,700	-200,000	-0,002	-0,034
-555,685	-45,475	-0,120	0,043
-554,671	180,230	-0,041	0,044
-553,656	-200,000	-0,020	-0,132
-552,642	-200,000	0,001	-0,015
-551,627	-200,000	-0,011	-0,042
-550,612	800,000	0,018	0,048
-549,598	-200,000	-0,021	-0,149
-548,583	-41,435	-0,122	0,046
-547,569	-37,795	-0,051	-0,020
-546,554	800,000	-0,046	0,146
-545,539	-200,000	-0,014	0,151
-544,525	-200,000	0,012	0,101
-543,510	800,000	0,031	0,073
-542,496	-161,883	0,042	0,002
-541,481	162,027	-0,048	0,049
-540,466	20,909	0,107	-0,064
-539,452	-200,000	0,004	-0,112
-538,437	-107,678	-0,120	-0,019
-537,423	14,801	-0,022	0,013
-536,408	215,201	0,054	-0,063
-535,393	800,000	-0,033	-0,079
-534,379	-200,000	-0,004	-0,079
-533,364	-200,000	-0,008	0,114
-532,350	-200,000	-0,047	0,156
-531,335	-90,744	0,056	0,012
-530,321	-168,388	-0,005	0,000
-529,306	-17,544	0,125	-0,057
-528,291	26,250	0,035	-0,022
-527,277	-34,476	-0,068	-0,027
-526,262	18,145	-0,020	-0,012
-525,248	91,927	0,093	-0,076
-524,233	-184,295	0,081	-0,001
-523,218	159,149	-0,130	0,133
-522,204	153,352	-0,061	-0,062
-521,189	499,402	0,048	0,081
-520,175	104,831	-0,108	-0,093
-519,160	800,000	-0,030	0,093
-518,145	7,226	0,057	-0,031
-517,131	-105,661	-0,099	-0,016
-516,116	800,000	0,036	0,087
-515,102	94,647	0,067	0,055
-514,087	461,404	-0,054	-0,089
-513,072	-200,000	-0,015	-0,057
-512,058	-14,022	-0,117	0,055
-511,043	510,454	0,077	-0,131
-510,029	-80,685	0,092	-0,022
-509,014	-200,000	-0,019	0,145
-507,999	-200,000	-0,023	0,163
-506,985	125,739	-0,020	-0,018
-505,970	-48,832	-0,102	-0,036
-504,956	-153,640	0,057	0,003
-503,941	107,931	0,112	-0,098
-502,926	-112,509	0,107	0,015
-501,912	800,000	-0,046	0,100
-500,897	800,000	0,010	0,026
-499,883	336,117	0,038	-0,054
-498,868	800,000	0,037	-0,077
-497,853	800,000	0,022	0,047
-496,839	-129,404	-0,087	0,009
-495,824	-81,935	0,098	-0,023
-494,810	-200,000	0,016	-0,088
-493,795	286,356	0,046	0,061
-492,781	45,244	0,031	0,021
-491,766	-200,000	0,003	0,061
-490,751	31,977	0,043	-0,027
-489,737	-200,000	-0,004	-0,017
-488,722	800,000	0,023	-0,056
-487,708	-101,185	0,193	-0,034
-486,693	107,659	0,038	0,033
-485,678	800,000	-0,007	0,019
-484,664	65,804	-0,037	0,027
-483,649	129,144	-0,028	-0,027
-482,635	61,409	-0,076	0,055
-481,620	-9,612	0,146	-0,071
-480,605	31,590	-0,068	-0,043
-479,591	53,307	0,125	0,087
-478,576	381,574	-0,078	-0,118
-477,562	68,976	0,036	-0,027
-476,547	-82,247	-0,069	-0,016
-475,532	800,000	-0,035	0,100
-474,518	-3,218	-0,112	0,057
-473,503	800,000	0,058	-0,134
-472,489	-3,019	-0,076	0,038
-471,474	800,000	-0,018	0,040
-470,459	-150,582	-0,058	-0,003
-469,445	-200,000	0,008	-0,074
-468,430	8,681	0,114	-0,062
-467,416	800,000	0,062	0,147
-466,401	18,991	0,053	-0,031
-465,386	-7,005	0,036	0,018
-464,372	800,000	0,027	0,067
-463,357	119,404	-0,036	-0,032
-462,343	-200,000	-0,014	-0,104
-461,328	800,000	0,030	0,065
-460,313	-90,277	0,151	0,032
-459,299	-200,000	0,026	-0,099
-458,284	800,000	-0,015	-0,045
-457,270	-200,000	-0,057	-0,197
-456,255	466,727	-0,018	-0,030
-455,241	-200,000	-0,004	0,073
-454,226	-94,421	0,082	-0,016
-453,211	800,000	0,029	0,059
-452,197	-82,600	0,114	0,027
-451,182	86,597	-0,046	0,037
-450,168	115,800	-0,052	-0,047
-449,153	55,789	-0,134	0,094
-448,138	-0,805	0,088	-0,045
-447,124	231,325	-0,031	0,037
-446,109	25,427	-0,065	-0,039
-445,095	-110,982	0,181	-0,027
-444,080	128,985	0,023	0,022
-443,065	-61,608	-0,063	0,019
-442,051	-177,633	0,110	-0,002
-441,036	9,421	0,065	0,036
-440,022	-151,632	-0,042	-0,002
-439,007	800,000	-0,012	-0,037
-437,992	-100,925	-0,116	0,021
-436,978	-200,000	0,000	-0,001
-435,963	407,268	0,062	0,095
-434,949	182,131	-0,070	-0,076
-433,934	-149,544	-0,085	-0,005
-432,919	457,479	-0,033	0,054
-431,905	471,915	0,043	0,070
-430,890	108,427	0,075	-0,066
-429,876	253,509	0,007	-0,009
-428,861	-98,195	-0,065	0,012
-427,846	4,862	-0,145	0,077
-426,832	650,339	-0,041	-0,076
-425,817	-137,650	0,040	-0,003
-424,803	-10,733	-0,085	-0,041
-423,788	-75,211	-0,067	-0,017
-422,773	260,936	-0,068	0,086
-421,759	-158,627	-0,041	-0,002
-420,744	328,337	0,026	0,036
-419,730	800,000	0,050	-0,112
-418,715	489,029	-0,083	-0,139
-417,701	-200,000	-0,023	-0,139
-416,686	314,828	0,089	0,123
-415,671	364,484	0,027	0,039
-414,657	553,377	-0,021	-0,036
-413,642	413,628	-0,055	-0,086
-412,628	81,746	-0,222	-0,175
-411,613	-200,000	-0,001	-0,195
-410,598	-200,000	-0,019	-0,158
-409,584	446,907	0,053	0,085
-408,569	-200,000	0,043	0,165
-407,555	-198,642	0,099	-0,000
-406,540	-200,000	0,001	0,010
-405,525	-200,000	-0,022	0,149
-404,511	-5,507	-0,054	0,027
-403,496	800,000	0,032	-0,093
-402,482	-200,000	0,010	0,049
-401,467	193,938	0,101	0,112
-400,452	800,000	0,023	0,069
-399,438	800,000	-0,041	0,091
-398,423	800,000	0,048	0,116
-397,409	-55,924	-0,065	-0,021
-396,394	-200,000	-0,012	-0,040
-395,379	21,608	0,133	-0,078
-394,365	-200,000	0,015	-0,146
-393,350	-77,709	-0,022	0,006
-392,336	9,151	0,089	0,049
-391,321	142,579	-0,181	-0,175
-390,306	234,853	-0,056	-0,067
-389,292	-122,576	-0,166	0,019
-388,277	395,079	-0,034	0,051
-387,263	-72,601	0,104	0,028
-386,248	800,000	-0,066	-0,156
-385,233	-32,175	0,121	0,049
-384,219	-11,987	0,128	0,061
-383,204	143,414	-0,105	-0,102
-382,190	-200,000	-0,016	0,070
-381,175	-45,855	-0,149	0,053
-380,160	-78,430	0,238	-0,059
-379,146	-51,430	-0,199	-0,067
-378,131	-177,948	-0,046	0,001
-377,117	226,929	-0,089	0,105
-376,102	-200,000	0,017	-0,111
-375,088	-118,710	-0,110	0,014
-374,073	11,778	-0,105	0,059
-373,058	800,000	-0,033	-0,070
-372,044	-104,960	0,114	-0,019
-371,029	308,868	-0,027	0,037
-370,015	17,141	0,104	0,060
-369,000	-200,000	-0,070	-0,260
-367,985	-200,000	-0,012	-0,040
-366,971	54,791	0,093	-0,065
-365,956	44,672	0,072	0,048
-364,942	800,000	-0,046	0,125
-363,927	-126,794	0,079	-0,008
-362,912	130,052	-0,061	0,057
-361,898	468,492	0,013	0,022
-360,883	50,002	-0,158	0,108
-359,869	-65,277	0,136	0,040
-358,854	72,466	0,064	-0,049
-357,839	-135,434	-0,051	0,004
-356,825	463,703	0,123	0,201
-355,810	10,146	-0,060	-0,033
-354,796	-3,773	0,050	-0,025
-353,781	-15,407	-0,123	-0,057
-352,766	-120,128	0,107	0,013
-351,752	-200,000	0,015	-0,051
-350,737	151,562	0,070	0,069
-349,723	800,000	-0,008	0,024
-348,708	570,621	0,033	0,059
-347,693	274,905	-0,040	0,052
-346,679	-200,000	0,011	-0,158
-345,664	1,926	-0,091	0,048
-344,650	-160,915	-0,036	0,001
-343,635	-200,000	0,010	-0,129
-342,620	-23,012	0,155	-0,068
-341,606	800,000	-0,065	-0,131
-340,591	-121,264	0,073	-0,009
-339,577	134,117	-0,126	0,119
-338,562	-7,984	0,035	0,017
-337,548	800,000	-0,023	0,052
-336,533	-116,902	0,094	0,012
-335,518	477,047	-0,035	0,058
-334,504	-119,391	-0,090	0,011
-333,489	-200,000	0,021	-0,070
-332,475	-72,501	0,099	-0,026
-331,460	-200,000	-0,003	0,012
-330,445	-122,078	-0,094	-0,011
-329,431	-200,000	-0,024	0,166
-328,416	-167,272	-0,025	-0,001
-327,402	800,000	0,050	-0,108
-326,387	-7,627	0,083	0,041
-325,372	36,448	-0,197	-0,126
-324,358	-200,000	-0,033	-0,132
-323,343	247,717	-0,007	-0,009
-322,329	152,706	-0,032	0,032
-321,314	79,803	0,046	-0,036
-320,299	-84,635	0,140	0,032
-319,285	-26,256	-0,105	0,045
-318,270	-115,725	-0,022	0,003
-317,256	169,646	-0,039	0,041
-316,241	800,000	0,063	0,129
-315,226	407,307	0,052	0,080
-314,212	373,444	0,066	0,097
-313,197	115,943	0,050	0,045
-312,183	-200,000	0,006	-0,023
-311,168	-9,788	-0,067	0,032
-310,153	293,026	0,053	-0,070
-309,139	31,451	0,112	0,070
-308,124	283,473	-0,049	-0,064
-307,110	206,695	-0,093	0,105
-306,095	84,217	0,164	0,130
-305,080	110,310	-0,020	0,018
-304,066	143,431	-0,071	0,069
-303,051	-165,382	0,160	0,005
-302,037	150,107	0,041	-0,040
-301,022	-0,884	-0,104	0,053
-300,008	-200,000	-0,007	0,205
-298,993	-1,038	-0,095	-0,048
-297,978	44,078	0,038	-0,025
-296,964	150,194	0,083	-0,082
-295,949	202,043	0,040	-0,045
-294,935	38,645	-0,069	-0,044
-293,920	-200,000	-0,040	0,211
-292,905	509,371	0,077	0,130
-291,891	-200,000	-0,008	-0,033
-290,876	-200,000	0,011	-0,048
-289,862	111,246	-0,039	0,034
-288,847	-43,990	0,081	-0,029
-287,832	-172,768	-0,096	-0,002
-286,818	-55,851	0,141	-0,045
-285,803	-51,614	-0,115	-0,039
-284,789	-56,571	-0,112	0,036
-283,774	61,460	0,140	0,101
-282,759	688,642	0,038	0,073
-281,745	-48,358	0,068	-0,024
-280,730	600,469	0,091	-0,164
-279,716	-30,173	0,174	-0,071
-278,701	800,000	-0,036	0,080
-277,686	-44,405	0,137	0,049
-276,672	-33,839	0,112	0,045
-275,657	393,968	0,027	-0,041
-274,643	558,755	-0,045	0,079
-273,628	-200,000	-0,001	0,166
-272,613	-101,290	0,069	-0,012
-271,599	800,000	0,035	0,073
-270,584	-98,360	0,135	-0,025
-269,570	38,342	0,113	-0,073
-268,555	-114,121	-0,082	0,011
-267,540	124,154	-0,046	0,042
-266,526	-59,784	-0,150	0,046
-265,511	-200,000	0,006	0,059
-264,497	111,399	-0,041	0,036
-263,482	91,831	0,029	0,023
-262,467	-200,000	0,049	0,159
-261,453	646,927	0,010	0,018
-260,438	194,521	0,059	0,065
-259,424	19,002	0,060	0,035
-258,409	130,898	-0,053	-0,049
-257,395	800,000	-0,015	0,035
-256,380	-163,371	0,173	0,006
-255,365	-200,000	-0,005	0,124
-254,351	-200,000	0,029	-0,113
-253,336	44,419	-0,090	-0,060
-252,322	463,475	-0,078	0,126
-251,307	-200,000	0,028	-0,214
-250,292	-200,000	-0,012	-0,055
-249,278	221,086	-0,053	0,062
-248,263	39,643	0,092	-0,059
-247,249	800,000	0,024	0,053
-246,234	-200,000	-0,009	0,166
-245,219	536,558	-0,035	-0,061
-244,205	-27,665	-0,136	-0,057
-243,190	-94,686	0,153	-0,030
-242,176	542,333	0,010	0,017
-241,161	-94,093	0,101	0,020
-240,146	492,832	-0,052	-0,086
-239,132	-49,996	0,081	0,028
-238,117	-81,954	-0,117	0,028
-237,103	39,336	-0,106	-0,069
-236,088	800,000	-0,011	0,031
-235,073	800,000	0,026	-0,078
-234,059	800,000	0,035	0,090
-233,044	-200,000	0,001	-0,013
-232,030	74,681	0,084	-0,064
-231,015	-154,917	0,082	-0,004
-230,000	491,689	-0,026	0,042
-228,986	-200,000	0,041	-0,137
-227,971	-72,825	-0,115	0,030
-226,957	93,436	-0,077	0,063
-225,942	-26,925	0,168	-0,071
-224,927	-5,395	-0,056	-0,028
-223,913	85,655	-0,059	0,047
-222,898	-36,220	0,108	-0,042
-221,884	800,000	0,049	-0,122
-220,869	-200,000	0,015	0,188
-219,855	-178,011	0,031	-0,001
-218,840	-18,305	0,121	-0,054
-217,825	86,998	-0,082	0,065
-216,811	-26,275	0,105	-0,045
-215,796	-117,494	0,079	0,010
-214,782	-200,000	0,003	0,132
-213,767	-137,312	-0,050	-0,004
-212,752	-109,904	0,105	0,016
-211,738	800,000	0,035	-0,079
-210,723	-3,956	0,025	-0,012
-209,709	323,159	-0,078	-0,108
-208,694	239,423	0,059	-0,071
-207,679	271,886	-0,041	-0,052
-206,665	-18,858	-0,027	0,012
-205,650	-103,433	0,101	0,017
-204,636	217,620	0,048	-0,055
-203,621	-52,852	0,071	0,024
-202,606	-29,402	-0,043	0,018
-201,592	154,195	-0,024	-0,023
-200,577	800,000	-0,042	-0,085
-199,563	85,874	0,068	-0,054
-198,548	205,797	0,118	0,132
-197,533	327,864	-0,036	-0,051
-196,519	351,351	0,014	-0,020
-195,504	-200,000	-0,005	-0,124
-194,490	-86,957	-0,151	0,033
-193,475	-61,549	0,039	-0,012
-192,460	-74,778	-0,086	0,022
-191,446	-29,248	0,061	-0,025
-190,431	800,000	0,030	-0,063
-189,417	348,287	-0,023	-0,032
-188,402	41,422	0,134	0,088
-187,387	-53,829	-0,105	-0,034
-186,373	-115,232	-0,126	-0,017
-185,358	-200,000	0,029	-0,093
-184,344	333,678	-0,098	0,137
-183,329	800,000	0,025	0,066
-182,315	471,572	0,055	0,090
-181,300	171,116	-0,123	-0,127
-180,285	525,361	-0,024	0,041
-179,271	-137,387	-0,152	-0,012
-178,256	720,866	-0,044	0,084
-177,242	235,516	-0,098	0,117
-176,227	135,224	0,125	0,117
-175,212	716,279	-0,035	0,068
-174,198	-200,000	0,016	-0,065
-173,183	-200,000	-0,037	-0,124
-172,169	318,553	0,015	0,020
-171,154	-91,935	0,077	0,016
-170,139	-101,204	0,125	-0,022
-169,125	-17,383	0,113	-0,051
-168,110	-200,000	-0,015	0,143
-167,096	-41,881	-0,034	0,012
-166,081	35,256	-0,133	-0,084
-165,066	-46,106	-0,046	-0,016
-164,052	-6,413	0,065	0,032
-163,037	-200,000	-0,024	0,078
-162,023	-2,588	0,086	0,043
-161,008	-103,572	-0,116	0,019
-159,993	-89,041	0,018	0,004
-158,979	-200,000	0,006	-0,081
-157,964	800,000	-0,063	-0,167
-156,950	481,039	-0,032	-0,053
-155,935	492,059	0,084	0,140
-154,920	800,000	-0,061	-0,131
-153,906	524,789	0,023	0,040
-152,891	-200,000	-0,003	0,056
-151,877	156,934	0,119	-0,119
-150,862	775,853	-0,066	-0,130
-149,847	-24,651	-0,073	0,031
-148,833	74,492	-0,061	0,046
-147,818	-44,990	0,136	0,049
-146,804	147,074	0,122	0,118
-145,789	-31,562	-0,087	0,035
-144,775	-200,000	-0,016	0,135
-143,760	-7,883	-0,140	-0,068
-142,745	84,864	0,030	0,024
-141,731	-184,098	-0,096	0,001
-140,716	149,562	-0,086	0,084
-139,702	-200,000	0,002	0,028
-138,687	1,430	-0,019	0,010
-137,672	-200,000	-0,002	0,025
-136,658	-200,000	0,005	-0,033
-135,643	200,557	0,091	0,101
-134,629	43,026	0,073	0,048
-133,614	84,737	-0,086	0,068
-132,599	800,000	0,062	0,155
-131,585	-106,350	-0,046	0,007
-130,570	800,000	-0,027	-0,075
-129,556	-200,000	0,013	-0,115
-128,541	-17,800	0,053	0,024
-127,526	-165,320	-0,109	0,003
-126,512	-200,000	-0,016	0,052
-125,497	52,183	0,165	0,113
-124,483	575,420	-0,039	-0,070
-123,468	-72,722	0,108	0,028
-122,453	-53,213	-0,048	-0,016
-121,439	66,752	-0,088	-0,065
-120,424	-95,992	0,048	0,009
-119,410	50,504	0,038	0,026
-118,395	-200,000	0,006	-0,055
-117,380	-200,000	0,046	0,191
-116,366	-200,000	-0,004	-0,058
-115,351	-200,000	-0,021	0,068
-114,337	542,232	-0,101	-0,174
-113,322	158,811	-0,089	0,089
-112,307	800,000	-0,010	0,033
-111,293	-1,685	0,152	0,077
-110,278	108,370	-0,095	0,082
-109,264	-200,000	0,001	0,092
-108,249	-200,000	0,045	0,177
-107,234	-200,000	-0,015	-0,096
-106,220	-200,000	0,026	-0,159
-105,205	-33,699	0,076	0,030
-104,191	617,262	-0,014	-0,026
-103,176	-200,000	0,015	0,068
-102,162	28,111	-0,067	0,041
-101,147	-200,000	0,009	-0,135
-100,132	84,470	0,063	0,050
-99,118	515,950	0,042	0,072
-98,103	800,000	-0,019	-0,045
-97,089	-200,000	0,015	0,071
-96,074	-98,122	0,039	-0,007
-95,059	800,000	-0,036	-0,089
-94,045	461,939	-0,025	-0,041
-93,030	184,852	-0,037	-0,039
-92,016	-88,549	0,119	-0,025
-91,001	800,000	-0,028	0,064
-89,986	-200,000	0,006	0,095
-88,972	296,177	0,128	0,169
-87,957	-73,081	-0,100	0,026
-86,943	-145,739	0,069	0,004
-85,928	508,440	-0,069	0,115
-84,913	-147,876	-0,077	0,005
-83,899	-48,769	-0,024	-0,008
-82,884	-200,000	-0,007	0,097
-81,870	800,000	-0,038	0,078
-80,855	800,000	-0,036	0,094
-79,840	-74,561	-0,074	0,019
-78,826	587,578	-0,046	-0,082
-77,811	302,309	-0,081	-0,108
-76,797	190,714	0,059	0,064
-75,782	633,615	-0,033	-0,060
-74,767	-52,676	-0,059	-0,020
-73,753	0,164	0,123	0,063
-72,738	-200,000	0,008	0,031
-71,724	-200,000	-0,026	0,194
-70,709	203,261	-0,090	0,100
-69,694	22,084	-0,018	0,010
-68,680	142,608	0,073	0,069
-67,665	-200,000	-0,011	0,081
-66,651	-130,309	-0,042	-0,004
-65,636	800,000	-0,053	0,122
-64,622	-99,163	0,088	0,016
-63,607	16,932	-0,120	0,068
-62,592	-5,897	-0,051	-0,025
-61,578	-75,967	0,087	-0,022
-60,563	800,000	-0,073	0,146
-59,549	-200,000	0,013	0,323
-58,534	69,429	-2,602	-1,922
-57,519	-5,932	0,404	-0,198
-56,505	800,000	-1,747	-5,361
-55,490	454,686	1,139	1,820
-54,476	800,000	5,482	11,536
-53,461	-200,000	21,949	345,446
-52,446	800,000	761,223	2313,403
-51,432	519,897	1652,020	2791,942
-50,417	103,480	1616,842	1362,360
-49,403	73,072	1272,421	954,294
-48,388	25,237	1021,179	607,789
-47,373	19,279	987,787	568,190
-46,359	13,396	975,111	541,561
-45,344	9,351	971,592	526,291
-44,330	9,796	969,668	526,689
-43,315	8,778	967,839	522,335
-42,300	8,700	966,560	521,370
-41,286	8,663	965,653	520,739
-40,271	8,643	964,595	520,082
-39,257	8,672	963,859	519,761
-38,242	8,682	962,834	519,221
-37,227	8,648	962,060	518,671
-36,213	8,581	961,443	518,097
-35,198	8,601	960,467	517,617
-34,184	8,643	959,712	517,325
-33,169	8,618	958,834	516,752
-32,154	8,660	957,863	516,344
-31,140	8,658	957,111	515,913
-30,125	8,734	956,174	515,634
-29,111	8,740	955,176	515,093
-28,096	8,692	954,719	514,671
-27,082	8,595	954,155	514,033
-26,067	8,612	953,399	513,660
-25,052	8,621	952,517	513,194
-24,038	8,640	951,803	512,850
-23,023	8,631	951,010	512,374
-22,009	8,679	950,602	512,289
-20,994	8,644	950,036	511,848
-19,979	8,673	949,341	511,548
-18,965	8,706	948,651	511,262
-17,950	8,660	948,093	510,795
-16,936	8,620	947,539	510,346
-15,921	8,627	946,867	509,987
-14,906	8,589	945,829	509,284
-13,892	8,590	945,616	509,155
-12,877	8,569	944,719	508,583
-11,863	8,498	944,309	508,117
-10,848	8,538	943,684	507,887
-9,833	8,714	943,069	508,098
-8,819	8,627	942,274	507,371
-7,804	8,543	941,716	506,785
-6,790	8,535	941,192	506,455
-5,775	8,561	940,700	506,255
-4,760	8,580	939,887	505,857
-3,746	8,578	939,317	505,522
-2,731	8,391	938,647	504,548
-1,717	8,373	938,154	504,207
-0,702	8,443	937,311	503,956
0,313	8,303	936,694	503,939
1,327	11,565	934,528	513,050
2,342	19,878	782,900	451,685
3,356	14,880	449,561	251,792
4,371	-11,116	313,071	147,633
5,386	-14,939	295,389	135,409
6,400	-16,840	289,245	130,693
7,415	-16,931	286,663	129,425
8,429	-17,465	284,677	127,996
9,444	-17,490	283,843	127,585
10,459	-17,469	283,294	127,348
11,473	-17,466	282,639	127,044
12,488	-17,436	282,182	126,856
13,502	-17,474	281,706	126,594
14,517	-17,623	281,330	126,271
15,531	-17,396	280,809	126,244
16,546	-17,292	280,607	126,242
17,561	-17,256	280,057	126,018
18,575	-17,370	279,950	125,850
19,590	-17,649	279,616	125,421
20,604	-17,170	279,264	125,710
21,619	-17,211	278,690	125,401
22,634	-17,369	278,427	125,121
23,648	-17,266	278,058	125,042
24,663	-17,243	277,850	124,960
25,677	-17,373	277,597	124,710
26,692	-17,302	277,460	124,706
27,707	-17,167	276,850	124,548
28,721	-17,265	276,829	124,435
29,736	-17,362	276,485	124,177
30,750	-17,194	276,363	124,271
31,765	-17,265	275,838	123,956
32,780	-17,220	275,723	123,936
33,794	-17,283	275,576	123,800
34,809	-17,346	275,234	123,575
35,823	-17,406	275,132	123,462
36,838	-17,262	274,761	123,419
37,853	-17,402	274,588	123,200
38,867	-17,404	274,307	123,061
39,882	-17,257	274,043	123,070
40,896	-17,310	273,792	122,896
41,911	-17,209	273,291	122,754
42,926	-17,326	273,297	122,637
43,940	-17,231	273,016	122,589
44,955	-17,449	272,866	122,307
45,969	-17,270	272,451	122,276
46,984	-17,351	272,594	122,254
47,999	-17,135	272,204	122,270
49,013	-17,174	272,034	122,146
50,028	-17,026	271,676	122,112
51,042	-17,128	271,536	121,944
52,057	-17,339	271,482	121,713
53,071	-17,090	271,037	121,733
54,086	-17,158	270,860	121,580
55,101	-17,228	270,639	121,405
56,115	-17,200	270,256	121,248
57,130	-17,410	270,082	120,966
58,144	-17,383	269,806	120,856
59,159	-17,252	269,624	120,884
60,174	-17,188	269,289	120,782
61,188	-17,299	269,247	120,650
62,203	-17,105	268,931	120,677
63,217	-17,266	268,662	120,397
64,232	-17,330	268,463	120,238
65,247	-17,107	268,121	120,279
66,261	-17,337	268,032	120,018
67,276	-17,116	267,689	120,055
68,290	-17,169	267,423	119,877
69,305	-17,158	267,441	119,885
70,320	-17,350	267,221	119,600
71,334	-17,188	266,834	119,564
72,349	-17,158	266,571	119,462
73,363	-17,231	266,353	119,287
74,378	-17,399	266,267	119,086
75,393	-17,209	265,881	119,075
76,407	-17,247	265,682	118,941
77,422	-17,138	265,440	118,921
78,436	-17,146	265,264	118,824
79,451	-17,135	264,939	118,678
80,466	-17,391	264,786	118,367
81,480	-17,255	264,483	118,344
82,495	-17,258	264,400	118,294
83,509	-17,160	264,159	118,263
84,524	-17,103	263,871	118,176
85,539	-17,154	263,775	118,076
86,553	-17,057	263,492	118,026
87,568	-17,086	263,327	117,916
88,582	-17,373	263,245	117,611
89,597	-17,178	262,869	117,607
90,611	-17,035	262,697	117,647
91,626	-17,110	262,529	117,494
92,641	-17,055	262,345	117,452
93,655	-17,236	262,066	117,154
94,670	-17,328	261,937	117,004
95,684	-17,161	261,721	117,046
96,699	-17,068	261,422	116,984
97,714	-17,312	261,420	116,756
98,728	-17,261	261,118	116,656
99,743	-17,096	260,821	116,659
100,757	-17,210	260,673	116,481
101,772	-17,142	260,473	116,442
102,787	-17,289	260,214	116,186
103,801	-17,145	260,132	116,266
104,816	-16,980	259,615	116,170
105,830	-17,086	259,556	116,040
106,845	-17,073	259,400	115,972
107,860	-17,148	259,344	115,870
108,874	-17,461	258,993	115,427
109,889	-17,164	258,907	115,640
110,903	-17,362	258,814	115,414
111,918	-17,347	258,509	115,281
112,933	-17,238	258,217	115,236
113,947	-17,249	258,098	115,163
114,962	-17,021	257,631	115,144
115,976	-17,271	257,477	114,847
116,991	-17,212	257,349	114,831
118,006	-17,145	257,306	114,860
119,020	-17,186	257,254	114,790
120,035	-17,353	256,994	114,518
121,049	-17,229	256,611	114,445
122,064	-17,041	256,541	114,568
123,079	-17,211	256,188	114,252
124,093	-17,051	256,001	114,298
125,108	-17,220	256,025	114,151
126,122	-17,148	255,686	114,052
127,137	-17,128	255,648	114,043
128,151	-16,957	255,344	114,045
129,166	-16,917	255,051	113,939
130,181	-17,123	255,028	113,740
131,195	-17,210	254,867	113,582
132,210	-17,204	254,509	113,419
133,224	-17,196	254,322	113,332
134,239	-17,273	254,088	113,151
135,254	-17,216	253,920	113,115
136,268	-17,202	253,625	112,986
137,283	-17,118	253,543	113,011
138,297	-16,991	253,300	113,002
139,312	-16,997	253,203	112,943
140,327	-17,205	253,015	112,671
141,341	-17,036	252,731	112,680
142,356	-17,325	252,612	112,368
143,370	-17,146	252,293	112,370
144,385	-17,144	252,164	112,304
145,400	-17,231	252,017	112,154
146,414	-17,187	251,820	112,095
147,429	-16,980	251,572	112,150
148,443	-17,062	251,385	111,987
149,458	-17,125	251,244	111,861
150,473	-17,113	251,010	111,757
151,487	-17,267	250,807	111,526
152,502	-17,022	250,648	111,653
153,516	-16,993	250,409	111,561
154,531	-17,156	250,334	111,379
155,546	-17,117	250,112	111,304
156,560	-17,127	249,886	111,185
157,575	-17,114	249,699	111,102
158,589	-17,004	249,396	111,051
159,604	-17,044	249,142	110,895
160,619	-16,993	249,162	110,936
161,633	-17,203	249,032	110,691
162,648	-17,120	248,927	110,705
163,662	-17,185	248,679	110,529
164,677	-17,041	248,414	110,524
165,692	-17,218	248,275	110,303
166,706	-17,176	248,129	110,263
167,721	-17,243	248,012	110,145
168,735	-17,028	247,836	110,238
169,750	-17,218	247,670	109,995
170,764	-17,082	247,419	109,988
171,779	-17,033	247,325	109,977
172,794	-17,084	247,112	109,830
173,808	-17,223	247,004	109,655
174,823	-16,961	246,685	109,723
175,837	-17,171	246,745	109,565
176,852	-17,094	246,405	109,468
177,867	-17,195	246,281	109,319
178,881	-17,163	246,220	109,309
179,896	-17,000	245,929	109,306
180,910	-17,091	245,714	109,125
181,925	-17,286	245,559	108,884
182,940	-17,085	245,430	108,984
183,954	-17,090	245,344	108,932
184,969	-16,939	244,964	108,879
185,983	-17,041	244,968	108,786
186,998	-16,994	244,693	108,693
188,013	-17,103	244,549	108,529
189,027	-17,039	244,316	108,469
190,042	-16,923	244,037	108,432
191,056	-17,111	244,082	108,286
192,071	-17,011	243,863	108,262
193,086	-17,089	243,636	108,087
194,100	-17,297	243,415	107,809
195,115	-17,193	243,221	107,798
196,129	-17,139	242,976	107,725
197,144	-17,099	242,942	107,732
198,159	-17,336	242,780	107,458
199,173	-17,167	242,409	107,422
200,188	-17,306	242,334	107,265
201,202	-17,264	242,173	107,218
202,217	-17,047	241,948	107,287
203,232	-17,013	241,780	107,231
204,246	-16,998	241,574	107,142
205,261	-17,311	241,184	106,705
206,275	-16,394	241,683	107,664
207,290	-11,445	243,505	112,527
208,304	-4,867	245,459	118,851
209,319	-1,889	246,131	121,625
210,334	-0,979	246,339	122,468
211,348	0,187	246,535	123,517
212,363	0,518	246,636	123,830
213,377	0,787	246,623	124,034
214,392	1,273	246,500	124,362
215,407	1,513	246,610	124,604
216,421	1,569	246,345	124,505
217,436	1,695	246,185	124,517
218,450	1,511	246,085	124,304
219,465	1,666	245,885	124,320
220,480	1,523	245,816	124,157
221,494	1,281	245,504	123,789
222,509	1,173	245,254	123,563
223,523	1,040	244,937	123,284
224,538	0,658	244,797	122,889
225,553	0,822	244,529	122,878
226,567	0,833	244,462	122,843
227,582	0,798	244,276	122,709
228,596	0,751	244,108	122,575
229,611	0,757	244,097	122,564
230,626	0,594	243,871	122,307
231,640	0,643	243,598	122,199
232,655	0,677	243,421	122,127
233,669	0,685	243,199	122,011
234,684	0,538	243,117	121,840
235,699	0,733	243,005	121,931
236,713	0,785	242,745	121,832
237,728	0,942	242,727	121,940
238,742	0,763	242,421	121,630
239,757	0,765	242,338	121,579
240,772	0,627	242,106	121,340
241,786	0,856	242,017	121,470
242,801	0,603	241,895	121,194
243,815	0,596	241,847	121,153
244,830	0,665	241,523	121,036
245,844	0,881	241,218	121,046
246,859	0,753	241,099	120,872
247,874	0,913	241,019	120,950
248,888	0,804	240,871	120,778
249,903	0,608	240,817	120,582
250,917	0,789	240,650	120,633
251,932	0,877	240,438	120,586
252,947	0,868	240,291	120,495
253,961	1,030	240,157	120,547
254,976	0,749	240,033	120,248
255,990	0,909	239,864	120,281
257,005	0,725	239,721	120,052
258,020	0,690	239,567	119,936
259,034	0,926	239,255	119,957
260,049	0,931	239,208	119,927
261,063	0,682	239,054	119,641
262,078	0,799	238,826	119,609
263,093	0,738	238,588	119,430
264,107	0,871	238,372	119,418
265,122	0,811	238,424	119,385
266,136	0,820	238,292	119,315
267,151	0,840	238,111	119,231
268,166	0,890	237,893	119,150
269,180	0,729	237,722	118,927
270,195	0,788	237,678	118,941
271,209	0,932	237,521	118,965
272,224	0,719	237,406	118,729
273,239	0,833	237,098	118,654
274,253	0,708	237,026	118,509
275,268	0,770	236,739	118,403
276,282	0,850	236,757	118,465
277,297	0,700	236,639	118,278
278,312	0,656	236,472	118,149
279,326	0,879	236,269	118,212
280,341	0,989	236,059	118,183
281,355	0,833	235,914	117,977
282,370	1,008	235,768	118,031
283,384	0,997	235,630	117,943
284,399	0,720	235,457	117,629
285,414	0,773	235,236	117,549
286,428	0,778	235,242	117,545
287,443	0,748	235,244	117,513
288,457	0,835	235,048	117,472
289,472	0,790	234,821	117,314
290,487	0,834	234,590	117,222
291,501	0,769	234,481	117,106
292,516	0,926	234,282	117,118
293,530	0,985	234,069	117,047
294,545	0,858	234,003	116,905
295,560	0,990	233,928	116,960
296,574	1,063	233,792	116,938
297,589	0,971	233,500	116,711
298,603	0,957	233,438	116,659
299,618	1,218	233,262	116,762
300,633	1,013	233,233	116,579
301,647	0,959	232,908	116,364
302,662	1,084	232,956	116,474
303,676	0,846	232,760	116,182
304,691	0,925	232,507	116,106
305,706	1,079	232,407	116,164
306,720	1,005	232,309	116,048
307,735	0,851	232,175	115,853
308,749	1,070	232,060	115,953
309,764	1,170	231,776	115,877
310,779	1,010	231,662	115,688
311,793	0,762	231,698	115,504
312,808	1,004	231,276	115,470
313,822	1,070	231,205	115,475
314,837	1,000	231,132	115,374
315,852	0,963	230,880	115,210
316,866	1,177	230,750	115,298
317,881	1,017	230,606	115,094
318,895	1,331	230,379	115,210
319,910	1,170	230,218	114,996
320,925	0,993	230,187	114,835
321,939	1,089	229,967	114,788
322,954	1,028	229,839	114,668
323,968	1,020	229,815	114,639
324,983	1,164	229,736	114,699
325,997	1,146	229,446	114,531
327,012	1,136	229,304	114,442
328,027	1,155	229,143	114,367
329,041	1,077	229,045	114,248
330,056	1,338	228,767	114,297
331,070	1,025	228,818	114,075
332,085	1,313	228,518	114,132
333,100	1,298	228,288	113,997
334,114	1,013	228,268	113,761
335,129	0,807	228,080	113,501
336,143	1,102	227,943	113,646
337,158	1,068	228,006	113,642
338,173	1,238	227,776	113,645
339,187	1,165	227,677	113,531
340,202	1,170	227,467	113,419
341,216	1,099	227,244	113,245
342,231	1,214	227,040	113,219
343,246	1,201	226,972	113,165
344,260	1,342	226,755	113,153
345,275	1,050	226,868	112,980
346,289	1,173	226,559	112,908
347,304	1,186	226,278	112,768
348,319	1,243	226,191	112,757
349,333	1,040	226,215	112,607
350,348	1,204	225,993	112,609
351,362	1,368	225,814	112,632
352,377	1,338	225,640	112,513
353,392	1,210	225,565	112,370
354,406	1,247	225,384	112,298
355,421	193,315	1312,670	1383,193
356,435	154,888	1445,011	1383,042
