DTS Sentinel unit serial number:	SN410029Multiplexer serial number:	ORYXHardware model number:	OX2-SRSoftware version number:	ORYX F/W v4,00 Oryx Data Collector v3.7.2.0data status	okinstallation	B5 Nyhavnadifferential loss correction	single-endedforward channel	channel 2reverse channel	N/Adate	2023/12/13time	14:02:13forward acquisition time	300,00reverse acquisition time	0,00gamma	499,1914k internal	0,3161k external	0,3161temperature offset calibration	1,0000default loss term (dB/km)	0,3820temperature slope calibration	1,0000multiplexer offset coefficient	1,0000multiplexer slope coefficient	1,0000fibre end	0,00T internal ref (°C)	14,86T ext. ref 1 (°C)	-1,14T ext. ref 2 (°C)	-1,42length (m)	temperature (°C)	Stokes	anti-Stokes-744,400	-53,673	0,265	-0,089
-743,385	-48,409	-0,301	0,106
-742,371	-67,557	0,030	-0,009
-741,356	-102,553	-0,351	0,061
-740,342	-73,256	0,153	0,041
-739,327	-163,630	-0,395	-0,013
-738,312	68,632	0,179	-0,135
-737,298	-93,584	-0,379	0,076
-736,283	-122,472	0,179	0,021
-735,269	-85,514	-0,301	0,068
-734,254	244,943	0,042	0,052
-733,239	-91,448	-0,424	-0,088
-732,225	-130,612	0,136	-0,013
-731,210	204,127	-0,073	0,083
-730,196	297,808	-0,046	-0,062
-729,181	-200,000	0,005	-0,025
-728,167	-200,000	-0,025	-0,103
-727,152	800,000	-0,010	0,022
-726,137	-200,000	0,009	-0,123
-725,123	800,000	0,032	-0,074
-724,108	-200,000	-0,028	-0,097
-723,094	89,467	-0,058	-0,047
-722,079	-109,876	-0,107	0,016
-721,064	-76,957	0,090	-0,023
-720,050	-3,108	-0,093	-0,048
-719,035	39,250	0,017	-0,011
-718,021	260,586	-0,054	0,069
-717,006	18,103	0,114	-0,067
-715,991	338,637	0,045	0,064
-714,977	-93,803	-0,119	-0,024
-713,962	800,000	-0,018	0,059
-712,948	5,073	0,071	-0,038
-711,933	449,530	-0,022	0,036
-710,918	-89,742	-0,134	0,029
-709,904	637,130	-0,060	-0,113
-708,889	-97,111	-0,136	-0,026
-707,875	623,190	-0,039	-0,072
-706,860	-200,000	-0,002	0,051
-705,845	281,775	-0,038	0,050
-704,831	483,210	-0,028	0,047
-703,816	266,196	-0,058	-0,074
-702,802	767,758	0,058	0,117
-701,787	-102,782	-0,191	-0,033
-700,772	-200,000	-0,003	-0,063
-699,758	-45,081	0,100	-0,036
-698,743	800,000	-0,032	0,099
-697,729	800,000	0,036	0,076
-696,714	800,000	0,026	0,064
-695,699	-200,000	0,029	-0,136
-694,685	-200,000	0,000	-0,025
-693,670	800,000	0,034	-0,079
-692,656	-132,667	0,042	-0,004
-691,641	423,957	0,063	-0,100
-690,627	-192,553	0,045	-0,000
-689,612	-14,863	-0,076	0,036
-688,597	-136,797	0,096	0,008
-687,583	125,235	-0,131	-0,122
-686,568	123,499	0,096	0,089
-685,554	-13,694	-0,076	-0,036
-684,539	-46,171	-0,040	0,014
-683,524	4,629	0,084	0,045
-682,510	279,789	-0,094	0,123
-681,495	800,000	-0,041	-0,118
-680,481	800,000	-0,008	0,017
-679,466	-8,407	-0,111	-0,055
-678,451	299,358	0,061	0,083
-677,437	-141,040	-0,111	0,008
-676,422	800,000	-0,023	0,069
-675,408	1,263	-0,146	0,077
-674,393	-74,813	-0,045	0,012
-673,378	-200,000	-0,021	-0,158
-672,364	-129,483	0,131	0,013
-671,349	327,913	0,033	-0,046
-670,335	800,000	-0,019	-0,054
-669,320	466,343	0,067	-0,111
-668,305	-170,007	-0,081	0,002
-667,291	-41,781	-0,077	-0,029
-666,276	276,271	0,013	0,018
-665,262	-200,000	-0,017	-0,170
-664,247	-77,696	-0,048	0,012
-663,232	-19,448	0,076	-0,035
-662,218	375,644	-0,061	0,091
-661,203	43,614	-0,107	-0,072
-660,189	29,808	-0,098	-0,061
-659,174	-200,000	-0,016	0,101
-658,159	-99,212	-0,012	0,002
-657,145	-131,461	0,111	-0,011
-656,130	-200,000	-0,007	-0,081
-655,116	800,000	0,058	-0,132
-654,101	55,389	-0,074	-0,052
-653,086	-117,916	0,100	0,013
-652,072	99,023	-0,044	0,038
-651,057	4,340	-0,145	-0,078
-650,043	-200,000	0,017	0,056
-649,028	61,534	-0,064	0,046
-648,014	-15,945	0,184	-0,085
-646,999	485,529	-0,086	0,145
-645,984	-53,874	0,117	-0,039
-644,970	121,958	0,037	0,034
-643,955	304,599	0,051	-0,070
-642,941	-70,595	-0,109	-0,030
-641,926	20,742	-0,110	-0,065
-640,911	-178,665	-0,119	0,002
-639,897	800,000	-0,040	-0,109
-638,882	-188,201	0,095	-0,001
-637,868	346,750	-0,101	0,146
-636,853	253,449	-0,012	0,014
-635,838	-61,733	-0,086	-0,026
-634,824	-11,535	-0,011	-0,005
-633,809	32,972	0,036	0,023
-632,795	800,000	-0,021	0,044
-631,780	34,031	-0,081	0,052
-630,765	-106,297	-0,114	-0,018
-629,751	76,322	-0,111	-0,086
-628,736	-10,229	-0,186	-0,090
-627,722	18,097	-0,166	0,097
-626,707	-93,749	0,068	0,014
-625,692	-115,722	0,028	-0,004
-624,678	-200,000	-0,011	0,045
-623,663	-30,981	-0,108	0,044
-622,649	-3,534	-0,106	-0,054
-621,634	-200,000	-0,021	-0,086
-620,619	-200,000	0,001	-0,039
-619,605	-120,649	-0,163	-0,020
-618,590	800,000	0,022	-0,059
-617,576	-84,717	0,178	0,041
-616,561	-97,884	-0,086	0,016
-615,546	115,375	0,065	0,058
-614,532	108,722	0,057	-0,050
-613,517	-15,146	-0,028	0,013
-612,503	-100,743	0,023	-0,004
-611,488	800,000	-0,033	-0,096
-610,474	266,706	0,007	-0,009
-609,459	-143,860	-0,103	0,007
-608,444	-76,151	-0,163	0,042
-607,430	303,471	0,081	-0,111
-606,415	-200,000	-0,034	-0,121
-605,401	57,623	0,050	-0,036
-604,386	800,000	-0,035	-0,102
-603,371	56,741	0,126	0,090
-602,357	800,000	-0,046	0,102
-601,342	800,000	-0,012	-0,036
-600,328	800,000	-0,035	-0,099
-599,313	-142,069	-0,053	0,004
-598,298	64,424	0,061	0,045
-597,284	-157,042	0,184	-0,008
-596,269	58,532	-0,100	0,072
-595,255	424,607	-0,019	-0,031
-594,240	16,573	0,031	0,018
-593,225	23,402	-0,093	-0,056
-592,211	-141,409	-0,018	0,001
-591,196	121,205	0,066	-0,060
-590,182	177,747	0,110	0,118
-589,167	-200,000	-0,038	0,148
-588,152	39,234	-0,050	-0,033
-587,138	-200,000	0,028	-0,090
-586,123	39,608	-0,155	-0,102
-585,109	270,221	0,139	-0,179
-584,094	-200,000	-0,005	-0,075
-583,079	9,977	0,088	0,049
-582,065	-200,000	-0,001	-0,051
-581,050	142,864	0,011	0,010
-580,036	-200,000	-0,007	0,124
-579,021	410,571	0,045	0,070
-578,006	393,605	0,153	0,235
-576,992	800,000	-0,018	-0,039
-575,977	-200,000	-0,022	0,158
-574,963	-122,332	0,189	0,022
-573,948	394,973	0,013	-0,020
-572,934	6,029	-0,082	0,044
-571,919	20,611	0,090	0,053
-570,904	-200,000	0,006	-0,081
-569,890	495,880	-0,080	-0,135
-568,875	53,981	0,068	0,048
-567,861	109,231	0,061	0,053
-566,846	800,000	0,012	0,032
-565,831	62,901	-0,103	-0,075
-564,817	800,000	-0,016	-0,038
-563,802	152,821	-0,064	0,064
-562,788	-200,000	0,022	-0,109
-561,773	24,903	0,092	-0,056
-560,758	461,901	-0,007	0,012
-559,744	91,080	0,072	-0,059
-558,729	-71,891	-0,084	0,023
-557,715	270,774	-0,054	-0,069
-556,700	11,065	-0,142	0,079
-555,685	-200,000	-0,032	0,161
-554,671	-200,000	-0,014	-0,067
-553,656	-200,000	0,025	-0,103
-552,642	-200,000	-0,010	0,057
-551,627	107,130	-0,040	-0,035
-550,612	-120,604	-0,170	-0,021
-549,598	262,314	0,089	-0,113
-548,583	69,979	-0,147	-0,111
-547,569	800,000	-0,052	-0,132
-546,554	307,396	-0,027	0,037
-545,539	60,912	0,121	0,087
-544,525	206,240	-0,084	-0,096
-543,510	421,212	-0,029	-0,046
-542,496	294,970	0,067	-0,090
-541,481	800,000	-0,089	-0,229
-540,466	-200,000	-0,025	-0,089
-539,452	134,371	0,069	0,065
-538,437	800,000	0,037	0,089
-537,423	209,937	-0,053	-0,060
-536,408	-88,618	-0,094	0,020
-535,393	481,040	-0,045	-0,075
-534,379	-153,758	-0,190	-0,009
-533,364	800,000	0,021	-0,058
-532,350	-29,789	0,118	0,049
-531,335	-116,284	0,049	0,007
-530,321	-8,553	0,099	0,049
-529,306	-200,000	0,022	-0,140
-528,291	591,567	0,066	0,119
-527,277	17,939	-0,071	-0,041
-526,262	-200,000	-0,022	-0,082
-525,248	95,413	-0,055	-0,045
-524,233	212,865	-0,033	0,038
-523,218	558,662	0,014	0,024
-522,204	593,953	0,018	-0,032
-521,189	797,695	0,022	-0,044
-520,175	-40,002	0,123	-0,047
-519,160	-200,000	0,014	-0,091
-518,145	111,652	-0,066	0,058
-517,131	-106,671	0,077	-0,012
-516,116	800,000	-0,024	-0,077
-515,102	-40,231	0,054	-0,020
-514,087	81,016	-0,063	0,050
-513,072	87,314	-0,124	-0,100
-512,058	-42,455	-0,055	0,020
-511,043	533,205	0,041	-0,072
-510,029	800,000	-0,018	0,052
-509,014	-115,208	0,027	0,004
-507,999	800,000	0,060	0,135
-506,985	-18,712	-0,048	-0,022
-505,970	-65,305	-0,056	-0,016
-504,956	473,499	-0,033	-0,054
-503,941	-200,000	-0,002	-0,089
-502,926	89,498	-0,058	0,047
-501,912	-63,608	0,039	-0,012
-500,897	72,257	0,063	0,048
-499,883	566,717	-0,043	0,076
-498,868	269,878	-0,096	-0,123
-497,853	100,515	0,083	-0,070
-496,839	-29,145	-0,083	-0,035
-495,824	800,000	-0,028	0,082
-494,810	800,000	-0,035	0,078
-493,795	-102,509	0,131	0,023
-492,781	658,288	-0,011	-0,021
-491,766	479,013	0,044	-0,073
-490,751	-38,429	0,053	0,020
-489,737	323,139	-0,086	0,120
-488,722	-75,303	0,136	-0,035
-487,708	68,635	0,069	0,051
-486,693	768,111	-0,075	0,150
-485,678	3,636	0,042	0,022
-484,664	-94,367	-0,061	0,012
-483,649	-86,989	-0,119	0,026
-482,635	69,677	0,062	-0,047
-481,620	102,932	0,083	-0,071
-480,605	223,596	0,057	0,067
-479,591	-162,183	0,141	-0,005
-478,576	-82,918	0,018	-0,004
-477,562	207,084	0,036	-0,041
-476,547	218,104	-0,130	-0,151
-475,532	-19,796	-0,152	-0,068
-474,518	-38,734	-0,014	0,005
-473,503	-200,000	-0,002	0,039
-472,489	800,000	-0,028	0,083
-471,474	52,007	0,082	0,056
-470,459	18,172	-0,160	0,093
-469,445	178,390	0,087	0,092
-468,430	410,469	-0,039	-0,061
-467,416	-19,053	0,152	-0,068
-466,401	800,000	-0,059	0,160
-465,386	-3,520	0,080	0,040
-464,372	-42,334	0,108	0,040
-463,357	-200,000	-0,170	0,000
-462,343	-200,000	-0,015	-0,117
-461,328	216,633	0,091	-0,105
-460,313	-200,000	-0,016	-0,063
-459,299	-5,246	0,130	-0,065
-458,284	-200,000	0,002	0,037
-457,270	67,652	-0,030	0,022
-456,255	-200,000	-0,011	0,052
-455,241	-200,000	-0,005	-0,027
-454,226	639,963	0,050	0,093
-453,211	-147,699	-0,159	-0,010
-452,197	384,615	-0,027	0,041
-451,182	-4,566	0,114	0,057
-450,168	-26,460	0,051	-0,022
-449,153	553,965	-0,030	0,053
-448,138	-48,397	-0,061	-0,021
-447,124	614,134	-0,064	-0,118
-446,109	-200,000	-0,005	0,106
-445,095	-105,052	0,035	-0,006
-444,080	22,731	-0,007	-0,004
-443,065	441,430	-0,063	0,100
-442,051	88,699	-0,104	0,084
-441,036	57,602	0,036	0,026
-440,022	800,000	0,012	0,028
-439,007	-131,981	-0,108	0,010
-437,992	-200,000	0,008	0,076
-436,978	800,000	0,027	-0,088
-435,963	327,764	0,056	-0,078
-434,949	37,134	-0,120	-0,077
-433,934	372,053	-0,020	-0,029
-432,919	-19,102	-0,054	-0,024
-431,905	-111,348	0,138	0,020
-430,890	2,860	0,107	0,056
-429,876	800,000	-0,023	0,061
-428,861	-200,000	0,008	-0,043
-427,846	171,008	-0,077	0,080
-426,832	31,022	-0,117	0,073
-425,817	115,892	-0,062	-0,055
-424,803	-200,000	0,001	0,101
-423,788	-6,168	0,134	0,066
-422,773	-100,761	-0,049	0,009
-421,759	765,944	-0,012	0,025
-420,744	710,654	0,048	0,093
-419,730	-200,000	0,009	0,134
-418,715	21,378	-0,041	-0,024
-417,701	-200,000	-0,012	0,060
-416,686	29,254	0,143	0,088
-415,671	-176,228	0,052	0,001
-414,657	266,655	0,041	-0,052
-413,642	259,367	0,054	-0,068
-412,628	-119,710	0,098	-0,012
-411,613	20,015	-0,076	-0,045
-410,598	-75,193	0,118	-0,030
-409,584	112,439	0,033	-0,029
-408,569	101,726	-0,047	0,040
-407,555	-200,000	0,010	0,040
-406,540	-200,000	-0,014	-0,071
-405,525	229,024	-0,101	0,120
-404,511	83,028	0,086	-0,068
-403,496	486,779	-0,079	-0,131
-402,482	-200,000	0,029	0,124
-401,467	322,143	0,030	-0,042
-400,452	-200,000	-0,025	0,104
-399,438	-19,250	0,047	-0,021
-398,423	-200,000	-0,023	-0,131
-397,409	144,327	-0,080	-0,078
-396,394	64,225	0,054	-0,039
-395,379	-135,145	0,128	-0,011
-394,365	-107,171	-0,120	-0,019
-393,350	-200,000	-0,029	0,135
-392,336	350,808	0,076	-0,109
-391,321	-200,000	0,009	0,094
-390,306	115,121	-0,057	-0,050
-389,292	-111,047	-0,283	-0,042
-388,277	800,000	0,016	-0,044
-387,263	-44,483	-0,053	-0,019
-386,248	-200,000	0,042	0,161
-385,233	-137,874	0,115	0,009
-384,219	136,042	0,075	-0,071
-383,204	6,612	-0,056	-0,030
-382,190	-200,000	0,045	-0,212
-381,175	-200,000	-0,002	-0,055
-380,160	-102,926	-0,107	-0,018
-379,146	-200,000	0,053	0,181
-378,131	229,449	-0,037	0,044
-377,117	-161,600	-0,157	0,006
-376,102	-19,073	-0,073	-0,033
-375,088	-92,533	0,021	0,004
-374,073	-200,000	-0,004	0,081
-373,058	-200,000	0,005	0,076
-372,044	29,440	0,018	-0,011
-371,029	-200,000	0,005	-0,086
-370,015	-42,663	0,107	-0,039
-369,000	13,919	-0,070	0,040
-367,985	800,000	-0,107	-0,273
-366,971	251,944	-0,048	-0,059
-365,956	18,147	0,138	0,080
-364,942	-23,893	0,034	0,015
-363,927	800,000	-0,031	0,063
-362,912	278,450	-0,043	0,055
-361,898	107,964	0,083	0,072
-360,883	38,881	-0,074	0,048
-359,869	-7,483	-0,069	-0,034
-358,854	136,025	-0,042	-0,039
-357,839	514,103	-0,032	0,055
-356,825	155,068	0,087	-0,087
-355,810	-200,000	-0,001	0,054
-354,796	-147,389	0,114	-0,007
-353,781	-101,155	-0,081	0,014
-352,766	59,813	0,011	-0,008
-351,752	761,189	0,053	0,105
-350,737	64,283	0,102	0,074
-349,723	98,929	-0,083	0,070
-348,708	-133,609	0,110	-0,010
-347,693	131,318	-0,040	0,037
-346,679	-163,974	-0,049	0,002
-345,664	-200,000	0,001	-0,083
-344,650	476,407	-0,033	0,054
-343,635	-108,926	0,114	-0,017
-342,620	151,438	-0,025	0,025
-341,606	-200,000	-0,003	0,089
-340,591	800,000	0,017	0,053
-339,577	-153,829	0,075	-0,004
-338,562	-200,000	0,006	-0,100
-337,548	-18,406	-0,039	0,018
-336,533	-91,580	-0,131	-0,027
-335,518	546,532	0,063	0,109
-334,504	-143,751	0,075	0,005
-333,489	97,729	-0,067	0,056
-332,475	-200,000	-0,034	-0,130
-331,460	590,398	-0,078	-0,140
-330,445	270,061	-0,013	0,017
-329,431	-71,683	-0,087	-0,023
-328,416	800,000	-0,051	0,137
-327,402	168,435	0,011	0,011
-326,387	-200,000	0,010	0,044
-325,372	-37,628	-0,139	-0,053
-324,358	800,000	0,023	0,066
-323,343	-200,000	0,001	0,115
-322,329	415,499	-0,048	0,074
-321,314	-200,000	0,033	0,132
-320,299	397,605	-0,031	-0,048
-319,285	-59,808	-0,080	-0,025
-318,270	77,689	-0,021	-0,016
-317,256	403,107	0,065	-0,100
-316,241	-151,354	0,087	-0,005
-315,226	800,000	0,061	0,158
-314,212	306,791	0,062	0,083
-313,197	203,019	0,010	-0,011
-312,183	-200,000	0,028	0,131
-311,168	-200,000	-0,010	0,185
-310,153	7,961	-0,128	-0,069
-309,139	-200,000	0,007	-0,073
-308,124	-200,000	-0,006	0,103
-307,110	117,546	0,069	0,061
-306,095	428,127	0,072	0,114
-305,080	406,935	0,033	0,050
-304,066	-26,542	0,091	-0,038
-303,051	46,202	-0,116	0,077
-302,037	800,000	0,037	-0,114
-301,022	-200,000	0,003	-0,043
-300,008	148,515	0,011	0,010
-298,993	-200,000	-0,004	-0,087
-297,978	50,078	0,060	0,041
-296,964	122,290	0,093	-0,084
-295,949	152,349	-0,074	0,073
-294,935	-106,374	-0,057	0,009
-293,920	-200,000	-0,016	0,077
-292,905	-7,546	0,028	-0,014
-291,891	4,124	0,089	0,047
-290,876	800,000	0,011	0,032
-289,862	-200,000	-0,015	-0,127
-288,847	109,649	-0,072	-0,062
-287,832	-200,000	0,024	-0,136
-286,818	-170,066	0,050	-0,001
-285,803	-146,539	-0,070	-0,004
-284,789	-59,394	0,032	0,010
-283,774	-124,777	-0,099	0,011
-282,759	104,436	0,081	0,069
-281,745	-200,000	-0,010	-0,070
-280,730	-155,049	-0,109	0,005
-279,716	800,000	0,022	0,047
-278,701	-200,000	0,007	0,038
-277,686	-100,218	-0,011	-0,002
-276,672	-44,010	-0,077	0,028
-275,657	-132,317	0,137	0,013
-274,643	-200,000	-0,010	-0,091
-273,628	-55,136	0,047	0,015
-272,613	709,182	0,089	-0,170
-271,599	-22,127	0,088	-0,038
-270,584	-200,000	-0,000	-0,066
-269,570	112,725	-0,065	0,057
-268,555	800,000	-0,015	-0,036
-267,540	238,924	0,010	0,013
-266,526	-110,134	-0,139	-0,021
-265,511	118,494	-0,025	0,022
-264,497	644,765	0,034	-0,063
-263,482	-16,262	0,133	0,061
-262,467	363,453	-0,056	0,082
-261,453	29,429	0,118	-0,072
-260,438	51,024	-0,031	-0,021
-259,424	-200,000	0,005	-0,098
-258,409	407,048	-0,038	0,058
-257,395	23,636	0,121	0,072
-256,380	-200,000	-0,027	0,091
-255,365	-200,000	-0,004	0,139
-254,351	755,243	0,031	0,061
-253,336	-200,000	0,017	-0,070
-252,322	-167,658	-0,068	-0,002
-251,307	-64,135	0,179	-0,052
-250,292	800,000	0,058	0,124
-249,278	464,031	0,065	-0,105
-248,263	-200,000	0,003	0,089
-247,249	-68,019	0,123	0,034
-246,234	-4,013	-0,097	-0,048
-245,219	537,625	0,034	-0,058
-244,205	60,300	-0,052	0,037
-243,190	-70,803	-0,032	-0,009
-242,176	156,400	-0,060	-0,060
-241,161	-108,586	0,077	0,012
-240,146	800,000	0,020	0,053
-239,132	284,256	-0,015	0,020
-238,117	206,465	0,086	0,097
-237,103	-15,707	-0,093	-0,042
-236,088	800,000	0,036	0,087
-235,073	-14,841	0,089	0,041
-234,059	-107,271	-0,085	0,013
-233,044	12,624	0,093	0,052
-232,030	800,000	0,013	0,031
-231,015	25,405	-0,200	-0,120
-230,000	-200,000	0,006	-0,083
-228,986	-200,000	0,001	-0,062
-227,971	655,648	-0,026	0,048
-226,957	-104,529	0,187	-0,031
-225,942	386,002	0,080	0,119
-224,927	24,459	-0,035	0,021
-223,913	549,597	0,085	-0,147
-222,898	13,102	-0,178	-0,099
-221,884	800,000	0,030	-0,087
-220,869	106,969	-0,096	-0,082
-219,855	-31,192	-0,088	-0,035
-218,840	800,000	0,037	0,101
-217,825	-9,752	-0,037	-0,018
-216,811	86,259	-0,032	-0,026
-215,796	-116,034	0,079	-0,011
-214,782	-106,444	0,123	0,020
-213,767	-200,000	0,012	-0,237
-212,752	13,036	-0,090	-0,050
-211,738	283,545	0,061	-0,079
-210,723	-117,729	-0,089	-0,011
-209,709	52,229	0,053	-0,036
-208,694	-200,000	-0,015	-0,147
-207,679	298,591	0,025	-0,034
-206,665	-200,000	-0,001	0,034
-205,650	800,000	0,023	-0,051
-204,636	167,418	0,118	0,121
-203,621	228,108	-0,088	0,103
-202,606	254,334	0,028	0,035
-201,592	408,845	-0,085	-0,130
-200,577	800,000	0,009	-0,023
-199,563	800,000	-0,063	-0,147
-198,548	72,571	0,065	-0,049
-197,533	-3,173	-0,070	0,035
-196,519	-107,731	0,139	-0,022
-195,504	-200,000	-0,004	-0,113
-194,490	61,642	0,057	-0,041
-193,475	242,530	0,037	-0,045
-192,460	800,000	0,024	-0,053
-191,446	-200,000	-0,019	0,110
-190,431	95,872	0,025	0,021
-189,417	-118,444	-0,070	0,009
-188,402	-39,130	0,093	0,035
-187,387	-200,000	-0,011	-0,095
-186,373	209,413	-0,053	-0,060
-185,358	-200,000	-0,007	0,051
-184,344	-200,000	0,008	0,080
-183,329	800,000	0,031	0,067
-182,315	-200,000	-0,001	0,052
-181,300	589,782	0,085	0,151
-180,285	78,955	-0,026	0,020
-179,271	-200,000	0,008	0,118
-178,256	800,000	0,031	0,097
-177,242	-36,115	0,053	0,021
-176,227	-200,000	-0,001	-0,031
-175,212	264,196	0,063	0,079
-174,198	-77,226	-0,048	-0,012
-173,183	-52,179	0,068	0,023
-172,169	169,306	0,066	0,068
-171,154	-200,000	-0,011	-0,129
-170,139	82,800	0,051	0,040
-169,125	-187,040	0,143	-0,001
-168,110	800,000	0,029	0,070
-167,096	-82,177	-0,038	0,009
-166,081	374,076	-0,048	0,070
-165,066	-57,193	-0,102	0,032
-164,052	800,000	-0,020	-0,054
-163,037	215,403	0,129	0,148
-162,023	-200,000	0,031	-0,111
-161,008	-200,000	0,005	0,077
-159,993	126,268	0,073	0,066
-158,979	36,290	-0,085	0,054
-157,964	-200,000	0,019	-0,065
-156,950	-100,131	-0,140	-0,025
-155,935	28,855	0,096	-0,058
-154,920	-174,464	0,090	-0,002
-153,906	-21,104	0,113	0,049
-152,891	-80,477	0,130	-0,031
-151,877	800,000	-0,079	-0,165
-150,862	24,998	-0,106	-0,063
-149,847	207,658	-0,023	0,025
-148,833	800,000	-0,047	0,148
-147,818	-157,796	-0,088	0,004
-146,804	-200,000	-0,012	0,098
-145,789	800,000	0,034	0,081
-144,775	-71,028	-0,055	-0,015
-143,760	101,350	0,147	-0,123
-142,745	73,548	-0,125	-0,094
-141,731	-109,225	0,039	0,006
-140,716	800,000	-0,020	-0,062
-139,702	-153,092	0,037	0,002
-138,687	83,246	-0,076	0,060
-137,672	-200,000	0,019	0,094
-136,658	-200,000	-0,035	-0,150
-135,643	-200,000	0,000	0,112
-134,629	-200,000	0,017	0,291
-133,614	66,739	0,152	0,111
-132,599	788,962	0,067	0,133
-131,585	-102,071	-0,058	-0,010
-130,570	98,502	0,078	-0,065
-129,556	-200,000	0,006	-0,095
-128,541	800,000	-0,045	0,105
-127,526	100,024	0,041	-0,034
-126,512	3,265	0,111	-0,058
-125,497	402,999	0,090	0,136
-124,483	647,925	-0,047	-0,086
-123,468	-200,000	0,007	-0,047
-122,453	-200,000	-0,018	-0,087
-121,439	109,757	-0,085	-0,073
-120,424	-57,227	-0,030	-0,009
-119,410	-200,000	0,011	0,036
-118,395	800,000	-0,050	0,129
-117,380	504,312	0,114	0,190
-116,366	739,986	0,057	0,111
-115,351	-82,384	-0,083	-0,019
-114,337	42,361	-0,017	-0,011
-113,322	-200,000	0,004	-0,031
-112,307	-200,000	-0,019	0,070
-111,293	12,610	-0,027	0,015
-110,278	109,625	0,139	0,120
-109,264	616,876	-0,032	-0,057
-108,249	101,718	0,171	0,144
-107,234	-98,149	-0,024	0,004
-106,220	-200,000	-0,043	-0,167
-105,205	17,828	0,205	-0,117
-104,191	-125,097	0,112	0,012
-103,176	140,451	0,045	0,042
-102,162	-162,070	-0,097	-0,003
-101,147	-200,000	0,005	0,067
-100,132	800,000	-0,030	-0,063
-99,118	28,696	0,071	-0,043
-98,103	110,597	0,064	0,055
-97,089	-200,000	-0,006	0,118
-96,074	-200,000	-0,023	-0,086
-95,059	-200,000	0,023	-0,104
-94,045	645,840	0,078	0,144
-93,030	283,120	-0,084	0,108
-92,016	177,076	-0,062	-0,065
-91,001	-103,637	-0,076	0,013
-89,986	365,409	-0,030	0,044
-88,972	-3,220	0,048	0,024
-87,957	235,715	0,053	0,063
-86,943	-110,489	-0,173	-0,025
-85,928	800,000	0,041	0,110
-84,913	254,203	-0,045	-0,055
-83,899	-106,151	-0,092	0,015
-82,884	800,000	-0,023	0,067
-81,870	800,000	-0,013	0,034
-80,855	41,294	0,106	0,068
-79,840	-200,000	0,007	-0,064
-78,826	-152,823	-0,054	-0,003
-77,811	-118,210	-0,116	0,015
-76,797	239,098	0,025	0,030
-75,782	800,000	-0,040	0,115
-74,767	-55,565	0,234	0,075
-73,753	-200,000	-0,001	0,058
-72,738	-73,738	0,084	-0,022
-71,724	800,000	-0,037	-0,113
-70,709	89,565	0,122	0,098
-69,694	163,009	-0,040	0,040
-68,680	-200,000	-0,010	0,037
-67,665	-117,758	0,048	0,006
-66,651	-158,948	0,105	-0,004
-65,636	800,000	0,053	0,117
-64,622	155,535	-0,064	-0,063
-63,607	-200,000	0,006	-0,168
-62,592	-200,000	0,002	0,065
-61,578	-91,536	0,050	0,010
-60,563	231,078	0,140	0,165
-59,549	-11,182	-0,070	-0,033
-58,534	-5,141	-2,007	-0,987
-57,519	-200,000	-0,224	-0,820
-56,505	-200,000	-1,151	-5,027
-55,490	96,014	0,849	0,696
-54,476	800,000	5,240	11,914
-53,461	-200,000	17,871	289,916
-52,446	800,000	729,169	2232,361
-51,432	536,976	1645,051	2811,812
-50,417	109,271	1635,170	1402,997
-49,403	74,755	1286,572	969,766
-48,388	31,478	1027,048	631,361
-47,373	20,036	988,817	570,180
-46,359	18,181	976,389	556,923
-45,344	15,229	972,375	544,968
-44,330	15,413	971,037	544,795
-43,315	14,887	969,114	541,981
-42,300	14,811	968,032	541,106
-41,286	14,833	967,092	540,633
-40,271	14,831	966,212	540,111
-39,257	14,830	965,353	539,606
-38,242	14,877	964,276	539,137
-37,227	14,893	963,253	538,594
-36,213	14,902	962,503	538,181
-35,198	14,870	961,763	537,644
-34,184	14,886	961,094	537,300
-33,169	14,877	959,936	536,604
-32,154	14,907	959,078	536,200
-31,140	14,910	958,087	535,634
-30,125	14,943	957,299	535,276
-29,111	14,919	956,640	534,812
-28,096	14,929	955,842	534,375
-27,082	14,857	955,343	533,844
-26,067	14,912	954,414	533,479
-25,052	14,894	953,596	532,945
-24,038	14,862	953,084	532,535
-23,023	14,845	952,472	532,115
-22,009	14,934	951,748	531,975
-20,994	14,931	950,977	531,513
-19,979	14,932	950,385	531,164
-18,965	14,921	949,831	530,799
-17,950	14,938	949,218	530,491
-16,936	14,838	948,614	529,813
-15,921	14,819	948,077	529,432
-14,906	14,813	947,198	528,901
-13,892	14,822	946,568	528,557
-12,877	14,748	945,958	527,958
-11,863	14,736	945,496	527,642
-10,848	14,748	944,697	527,212
-9,833	14,861	944,432	527,403
-8,819	14,858	943,804	527,021
-7,804	14,783	943,012	526,321
-6,790	14,741	942,525	525,896
-5,775	14,839	941,965	525,874
-4,760	14,832	941,282	525,448
-3,746	14,885	940,482	525,149
-2,731	14,610	939,905	523,936
-1,717	14,612	939,275	523,571
-0,702	14,651	938,614	523,306
0,313	14,408	938,009	522,990
1,327	17,615	935,850	531,828
2,342	26,564	792,392	473,944
3,356	23,214	457,988	268,799
4,371	-3,534	314,178	156,004
5,386	-7,281	295,955	143,159
6,400	-9,406	289,856	138,091
7,415	-9,775	287,426	136,558
8,429	-9,940	285,914	135,667
9,444	-10,046	284,982	135,109
10,459	-10,192	284,376	134,668
11,473	-10,069	283,680	134,445
12,488	-10,189	283,353	134,162
13,502	-10,138	282,746	133,912
14,517	-10,300	282,348	133,555
15,531	-10,249	281,868	133,365
16,546	-10,238	281,363	133,125
17,561	-10,215	280,934	132,932
18,575	-10,276	280,864	132,829
19,590	-10,271	280,340	132,574
20,604	-10,116	280,041	132,568
21,619	-10,158	279,565	132,291
22,634	-10,147	279,332	132,180
23,648	-10,257	278,979	131,897
24,663	-10,381	278,842	131,702
25,677	-10,205	278,478	131,686
26,692	-10,274	278,332	131,540
27,707	-10,225	277,755	131,302
28,721	-10,226	277,603	131,217
29,736	-10,343	277,283	130,943
30,750	-10,345	277,174	130,878
31,765	-10,342	276,807	130,696
32,780	-10,462	276,720	130,529
33,794	-10,424	276,501	130,451
34,809	-10,341	276,045	130,303
35,823	-10,515	276,004	130,107
36,838	-10,247	275,690	130,199
37,853	-10,218	275,271	130,018
38,867	-10,308	274,978	129,783
39,882	-10,322	274,850	129,698
40,896	-10,200	274,600	129,683
41,911	-10,347	274,466	129,470
42,926	-10,485	274,204	129,206
43,940	-10,146	273,831	129,335
44,955	-10,193	273,600	129,171
45,969	-10,243	273,318	128,979
46,984	-10,518	273,046	128,584
47,999	-10,822	272,884	128,213
49,013	-10,842	272,622	128,061
50,028	-11,034	272,289	127,714
51,042	-11,010	272,143	127,657
52,057	-11,042	271,831	127,469
53,071	-11,007	271,587	127,376
54,086	-11,022	271,592	127,353
55,101	-10,869	271,316	127,354
56,115	-10,674	271,174	127,456
57,130	-10,357	271,096	127,701
58,144	-10,046	270,758	127,817
59,159	-10,018	270,572	127,743
60,174	-10,110	270,321	127,528
61,188	-10,147	270,264	127,456
62,203	-10,264	270,003	127,214
63,217	-10,258	269,732	127,080
64,232	-10,007	269,444	127,163
65,247	-10,080	269,396	127,063
66,261	-10,227	268,967	126,715
67,276	-10,295	268,619	126,477
68,290	-10,626	268,489	126,103
69,305	-10,545	268,280	126,067
70,320	-10,650	268,195	125,921
71,334	-10,310	267,786	126,026
72,349	-10,170	267,818	126,158
73,363	-10,116	267,566	126,077
74,378	-9,969	267,246	126,048
75,393	-10,240	266,926	125,640
76,407	-10,284	266,875	125,565
77,422	-10,253	266,696	125,498
78,436	-10,283	266,441	125,340
79,451	-10,098	266,173	125,370
80,466	-10,324	265,813	124,985
81,480	-10,452	265,619	124,767
82,495	-10,380	265,371	124,704
83,509	-10,408	265,307	124,638
84,524	-10,394	265,070	124,528
85,539	-10,737	264,896	124,126
86,553	-10,576	264,682	124,160
87,568	-10,347	264,382	124,213
88,582	-10,335	264,096	124,079
89,597	-10,438	264,024	123,942
90,611	-10,257	263,824	123,999
91,626	-10,324	263,697	123,868
92,641	-10,323	263,450	123,742
93,655	-10,140	263,276	123,813
94,670	-10,140	262,954	123,651
95,684	-10,348	262,856	123,408
96,699	-10,098	262,727	123,559
97,714	-10,103	262,343	123,363
98,728	-10,218	262,197	123,181
99,743	-10,390	261,969	122,910
100,757	-10,611	261,751	122,601
101,772	-10,562	261,580	122,553
102,787	-10,290	261,442	122,718
103,801	-10,122	261,257	122,769
104,816	-10,351	261,128	122,495
105,830	-10,046	260,896	122,645
106,845	-10,025	260,738	122,579
107,860	-10,229	260,563	122,305
108,874	-10,104	260,288	122,276
109,889	-10,030	260,081	122,232
110,903	-10,077	259,833	122,064
111,918	-10,046	259,559	121,952
112,933	-10,325	259,499	121,667
113,947	-10,112	259,263	121,732
114,962	-10,285	259,205	121,543
115,976	-10,372	258,898	121,312
116,991	-10,187	258,695	121,368
118,006	-10,086	258,574	121,389
119,020	-9,907	258,437	121,471
120,035	-10,181	258,343	121,175
121,049	-10,199	258,034	121,003
122,064	-10,142	258,033	121,043
123,079	-9,928	257,535	120,985
124,093	-10,101	257,558	120,834
125,108	-10,283	257,169	120,483
126,122	-10,616	256,987	120,097
127,137	-10,650	256,744	119,943
128,151	-10,626	256,634	119,901
129,166	-10,350	256,343	119,994
130,181	-10,503	256,222	119,794
131,195	-10,509	256,017	119,682
132,210	-10,285	255,865	119,795
133,224	-10,180	255,783	119,836
134,239	-10,150	255,586	119,760
135,254	-10,318	255,523	119,574
136,268	-10,272	255,162	119,434
137,283	-10,407	254,977	119,221
138,297	-10,800	254,705	118,744
139,312	-10,674	254,517	118,754
140,327	-10,258	254,180	118,944
141,341	-9,923	254,154	119,209
142,356	-10,089	254,264	119,108
143,370	-9,954	253,924	119,053
144,385	-9,812	253,685	119,052
145,400	-9,894	253,589	118,927
146,414	-9,952	253,349	118,754
147,429	-10,080	253,198	118,563
148,443	-10,047	253,022	118,498
149,458	-9,963	252,969	118,534
150,473	-10,040	252,714	118,339
151,487	-10,089	252,509	118,191
152,502	-10,096	252,172	118,016
153,516	-10,130	252,276	118,026
154,531	-9,970	252,094	118,066
155,546	-9,950	251,734	117,904
156,560	-10,156	251,482	117,600
157,575	-10,052	251,243	117,566
158,589	-10,134	251,312	117,518
159,604	-9,927	250,946	117,512
160,619	-9,880	250,653	117,404
161,633	-9,917	250,479	117,281
162,648	-10,070	250,613	117,204
163,662	-9,816	250,262	117,244
164,677	-10,058	250,214	117,006
165,692	-9,912	250,098	117,065
166,706	-9,911	249,908	116,967
167,721	-10,035	249,780	116,792
168,735	-9,813	249,458	116,818
169,750	-9,873	249,354	116,708
170,764	-9,786	249,241	116,717
171,779	-9,694	249,110	116,723
172,794	-9,984	248,892	116,367
173,808	-9,991	248,659	116,242
174,823	-10,323	248,221	115,750
175,837	-10,445	248,075	115,569
176,852	-10,064	248,173	115,922
177,867	-9,843	248,002	116,017
178,881	-9,739	247,842	116,019
179,896	-9,864	247,735	115,854
180,910	-10,015	247,698	115,700
181,925	-9,845	247,499	115,739
182,940	-9,754	247,136	115,635
183,954	-9,957	247,047	115,414
184,969	-9,964	246,923	115,339
185,983	-9,841	246,642	115,300
186,998	-9,800	246,593	115,301
188,013	-9,860	246,286	115,097
189,027	-9,775	246,217	115,126
190,042	-9,759	245,913	114,986
191,056	-9,794	245,878	114,930
192,071	-9,827	245,704	114,812
193,086	-9,922	245,616	114,682
194,100	-9,779	245,431	114,704
195,115	-9,808	245,109	114,519
196,129	-9,704	244,903	114,498
197,144	-9,736	244,603	114,322
198,159	-9,958	244,501	114,081
199,173	-10,046	244,506	114,001
200,188	-9,700	244,155	114,111
201,202	-9,955	243,909	113,777
202,217	-10,448	243,715	113,272
203,232	-10,409	243,380	113,138
204,246	-10,002	243,529	113,530
205,261	-9,499	243,331	113,839
206,275	-10,394	242,941	112,917
207,290	-6,361	244,609	116,994
208,304	1,151	247,145	124,410
209,319	4,479	247,980	127,573
210,334	4,907	247,801	127,823
211,348	5,019	247,738	127,871
212,363	5,481	247,695	128,218
213,377	5,578	247,669	128,273
214,392	5,524	247,363	128,059
215,407	5,230	247,189	127,715
216,421	5,226	247,009	127,608
217,436	5,451	246,894	127,722
218,450	5,492	246,847	127,719
219,465	5,453	246,424	127,458
220,480	5,084	246,354	127,108
221,494	5,049	246,295	127,037
222,509	5,102	245,993	126,913
223,523	4,959	245,726	126,647
224,538	4,633	245,558	126,283
225,553	4,786	245,418	126,325
226,567	5,031	245,255	126,430
227,582	4,897	245,219	126,290
228,596	4,726	245,068	126,062
229,611	4,831	244,646	125,919
230,626	4,558	244,496	125,609
231,640	4,714	244,321	125,634
232,655	4,745	244,300	125,637
233,669	4,644	244,026	125,404
234,684	4,463	243,921	125,191
235,699	4,848	243,912	125,488
236,713	5,048	243,734	125,547
237,728	4,902	243,410	125,251
238,742	4,573	243,401	124,970
239,757	4,282	243,208	124,624
240,772	4,623	242,862	124,710
241,786	4,733	242,764	124,738
242,801	4,473	242,696	124,482
243,815	4,611	242,498	124,481
244,830	4,863	242,482	124,665
245,844	4,848	242,286	124,540
246,859	4,817	241,987	124,350
247,874	4,750	241,940	124,261
248,888	4,522	241,814	124,003
249,903	4,907	241,561	124,170
250,917	4,792	241,529	124,051
251,932	4,914	241,437	124,091
252,947	4,814	241,175	123,865
253,961	4,784	240,929	123,703
254,976	4,798	240,835	123,656
255,990	4,881	240,611	123,595
257,005	4,644	240,439	123,307
258,020	4,547	240,357	123,176
259,034	4,487	240,222	123,048
260,049	4,620	240,199	123,132
261,063	4,338	239,888	122,737
262,078	4,462	239,749	122,753
263,093	5,034	239,543	123,091
264,107	4,810	239,503	122,882
265,122	4,608	239,325	122,619
266,136	4,909	239,195	122,780
267,151	4,939	239,093	122,741
268,166	4,778	238,702	122,402
269,180	4,720	238,454	122,218
270,195	5,132	238,706	122,662
271,209	5,422	238,501	122,775
272,224	5,053	238,184	122,310
273,239	4,550	238,064	121,841
274,253	4,311	237,949	121,583
275,268	4,638	237,784	121,744
276,282	4,661	237,653	121,685
277,297	4,451	237,390	121,374
278,312	4,480	237,297	121,339
279,326	4,516	237,207	121,310
280,341	4,823	237,026	121,448
281,355	4,645	236,877	121,221
282,370	4,783	236,873	121,317
283,384	4,602	236,681	121,065
284,399	4,685	236,232	120,890
285,414	4,518	236,163	120,714
286,428	4,596	236,049	120,705
287,443	4,855	235,968	120,855
288,457	4,806	235,903	120,773
289,472	4,710	235,710	120,589
290,487	4,627	235,566	120,439
291,501	4,573	235,310	120,256
292,516	4,265	235,078	119,887
293,530	4,246	234,968	119,806
294,545	4,505	235,045	120,036
295,560	4,894	234,752	120,177
296,574	4,340	234,428	119,571
297,589	4,669	234,293	119,746
298,603	4,969	234,205	119,922
299,618	4,883	234,264	119,876
300,633	4,899	234,102	119,794
301,647	4,753	234,028	119,633
302,662	5,185	233,832	119,856
303,676	5,211	233,778	119,838
304,691	5,118	233,652	119,690
305,706	5,025	233,348	119,453
306,720	5,183	233,238	119,507
307,735	5,096	232,894	119,253
308,749	4,886	232,924	119,097
309,764	4,620	232,678	118,756
310,779	4,416	232,440	118,468
311,793	4,068	232,178	118,056
312,808	4,139	231,979	117,999
313,822	4,391	231,907	118,145
314,837	4,695	231,888	118,357
315,852	4,677	231,812	118,294
316,866	4,927	231,717	118,427
317,881	5,118	231,522	118,462
318,895	4,971	231,416	118,285
319,910	5,224	231,218	118,366
320,925	4,559	231,225	117,852
321,939	4,310	230,835	117,453
322,954	4,709	230,758	117,707
323,968	4,550	230,703	117,548
324,983	4,858	230,552	117,694
325,997	5,130	230,443	117,834
327,012	4,978	230,211	117,591
328,027	4,760	230,068	117,341
329,041	5,156	229,896	117,544
330,056	5,496	229,917	117,801
331,070	5,421	229,835	117,691
332,085	5,148	229,506	117,307
333,100	4,870	229,381	117,022
334,114	4,912	229,225	116,963
335,129	5,068	229,110	117,012
336,143	5,353	229,080	117,202
337,158	4,978	228,881	116,807
338,173	4,818	228,712	116,590
339,187	4,761	228,427	116,391
340,202	5,020	228,229	116,474
341,216	4,860	228,213	116,335
342,231	4,886	228,084	116,278
343,246	4,777	227,880	116,082
344,260	4,944	227,837	116,176
345,275	4,925	227,772	116,118
346,289	5,128	227,539	116,141
347,304	5,104	227,439	116,062
348,319	4,970	227,271	115,865
349,333	5,008	226,887	115,687
350,348	4,523	226,951	115,348
351,362	4,617	226,943	115,404
352,377	4,653	226,490	115,190
353,392	4,723	226,383	115,177
354,406	4,737	226,279	115,124
355,421	196,104	1318,725	1395,714
356,435	157,240	1451,802	1395,698
