DTS Sentinel unit serial number:	SN410029Multiplexer serial number:	ORYXHardware model number:	OX2-SRSoftware version number:	ORYX F/W v4,00 Oryx Data Collector v3.7.2.0data status	okinstallation	B5 Nyhavnadifferential loss correction	single-endedforward channel	channel 2reverse channel	N/Adate	2023/12/11time	19:47:13forward acquisition time	300,00reverse acquisition time	0,00gamma	499,1914k internal	0,3159k external	0,3159temperature offset calibration	1,0000default loss term (dB/km)	0,3820temperature slope calibration	1,0000multiplexer offset coefficient	1,0000multiplexer slope coefficient	1,0000fibre end	0,00T internal ref (°C)	15,76T ext. ref 1 (°C)	0,04T ext. ref 2 (°C)	-0,19length (m)	temperature (°C)	Stokes	anti-Stokes-744,400	-102,796	0,047	0,008
-743,385	-178,564	-0,270	0,004
-742,371	214,415	0,039	0,046
-741,356	-162,154	-0,246	0,009
-740,342	-33,096	0,171	-0,070
-739,327	-122,230	-0,274	0,033
-738,312	800,000	-0,055	0,154
-737,298	30,363	-0,130	0,082
-736,283	-200,000	0,006	-0,091
-735,269	56,432	-0,200	0,143
-734,254	184,544	0,039	0,043
-733,239	-12,668	-0,343	-0,164
-732,225	-108,705	0,102	-0,016
-731,210	-131,680	0,109	0,010
-730,196	-200,000	-0,005	-0,064
-729,181	23,327	0,140	-0,085
-728,167	-200,000	0,008	0,077
-727,152	-200,000	-0,005	0,032
-726,137	427,967	-0,090	-0,143
-725,123	141,765	-0,039	-0,038
-724,108	655,515	-0,008	-0,015
-723,094	-200,000	-0,010	0,036
-722,079	248,270	-0,139	-0,173
-721,064	-91,625	0,071	0,015
-720,050	-27,973	-0,113	-0,048
-719,035	162,306	-0,073	-0,076
-718,021	-13,743	-0,020	-0,010
-717,006	-87,612	-0,062	0,014
-715,991	252,075	-0,032	0,041
-714,977	-200,000	-0,003	-0,023
-713,962	-137,236	-0,161	-0,013
-712,948	164,974	-0,039	0,041
-711,933	800,000	-0,007	-0,020
-710,918	-46,160	-0,053	0,019
-709,904	357,360	-0,028	0,041
-708,889	800,000	0,009	-0,030
-707,875	800,000	-0,015	-0,044
-706,860	170,300	-0,055	-0,058
-705,845	-76,470	0,133	-0,034
-704,831	-200,000	0,020	-0,133
-703,816	-32,347	-0,092	0,037
-702,802	-146,559	-0,008	-0,000
-701,787	-21,618	0,028	-0,013
-700,772	-48,920	0,148	-0,052
-699,758	44,110	-0,051	-0,035
-698,743	-80,240	0,055	0,013
-697,729	-178,091	0,178	-0,003
-696,714	92,229	-0,039	0,032
-695,699	54,630	-0,108	-0,076
-694,685	-200,000	0,007	0,088
-693,670	43,135	-0,024	0,016
-692,656	188,752	-0,000	-0,000
-691,641	800,000	-0,025	-0,063
-690,627	26,132	-0,053	0,033
-689,612	417,925	0,057	-0,089
-688,597	713,757	-0,043	-0,084
-687,583	613,422	-0,053	-0,098
-686,568	-43,121	-0,166	0,061
-685,554	234,355	-0,101	-0,123
-684,539	-200,000	-0,053	-0,177
-683,524	-141,782	-0,119	-0,009
-682,510	-63,459	-0,080	0,024
-681,495	144,840	0,048	0,047
-680,481	-14,928	-0,143	-0,067
-679,466	-36,904	0,113	0,044
-678,451	168,272	0,040	-0,041
-677,437	451,787	-0,031	-0,051
-676,422	-84,364	0,075	0,017
-675,408	-74,428	-0,055	0,014
-674,393	-200,000	-0,001	-0,057
-673,378	-169,810	-0,146	0,004
-672,364	-139,507	-0,132	-0,010
-671,349	-161,050	-0,085	0,003
-670,335	-132,300	-0,123	-0,011
-669,320	-49,419	0,179	-0,062
-668,305	-200,000	-0,009	0,062
-667,291	-200,000	-0,005	-0,024
-666,276	54,914	-0,107	0,076
-665,262	87,068	-0,033	-0,027
-664,247	800,000	0,023	-0,056
-663,232	44,773	0,044	-0,029
-662,218	-93,602	-0,091	0,018
-661,203	800,000	-0,036	0,097
-660,189	59,177	-0,084	-0,061
-659,174	800,000	-0,044	-0,132
-658,159	-91,686	-0,167	-0,034
-657,145	517,238	0,034	-0,059
-656,130	29,509	0,021	-0,013
-655,116	352,130	0,048	0,070
-654,101	-200,000	0,008	0,044
-653,086	800,000	0,059	0,125
-652,072	59,957	-0,115	-0,083
-651,057	800,000	0,015	-0,038
-650,043	-100,139	-0,081	0,015
-649,028	-150,764	0,079	0,004
-648,014	-200,000	-0,003	0,130
-646,999	401,199	-0,038	-0,059
-645,984	-44,225	-0,067	0,024
-644,970	182,040	-0,022	0,024
-643,955	800,000	-0,057	-0,141
-642,941	-109,038	0,048	0,007
-641,926	117,400	0,058	-0,053
-640,911	523,009	-0,070	0,121
-639,897	190,028	0,063	0,070
-638,882	-116,567	-0,145	0,019
-637,868	-43,916	-0,040	0,015
-636,853	-94,383	-0,109	-0,022
-635,838	6,912	-0,159	-0,087
-634,824	-61,499	-0,020	0,006
-633,809	59,931	0,117	0,085
-632,795	-37,220	-0,023	0,009
-631,780	-12,027	0,053	0,026
-630,765	800,000	-0,022	-0,066
-629,751	21,488	-0,140	-0,083
-628,736	-200,000	0,028	-0,123
-627,722	314,606	-0,052	-0,072
-626,707	82,428	0,003	-0,002
-625,692	-200,000	-0,002	-0,045
-624,678	800,000	-0,027	0,066
-623,663	-200,000	-0,047	-0,163
-622,649	209,179	0,066	-0,076
-621,634	-200,000	-0,016	-0,116
-620,619	-9,921	0,031	-0,015
-619,605	-117,112	-0,040	-0,005
-618,590	-120,658	-0,131	-0,016
-617,576	177,527	0,078	-0,084
-616,561	163,268	-0,172	-0,178
-615,546	100,910	0,014	-0,012
-614,532	-200,000	0,003	0,041
-613,517	800,000	-0,069	-0,177
-612,503	-139,996	-0,019	-0,001
-611,488	-200,000	-0,017	0,163
-610,474	-200,000	-0,032	0,136
-609,459	-69,064	-0,199	0,056
-608,444	-35,855	-0,174	-0,069
-607,430	-200,000	-0,024	-0,182
-606,415	313,920	-0,031	-0,043
-605,401	132,792	-0,037	-0,035
-604,386	254,496	0,026	0,033
-603,371	800,000	0,032	-0,087
-602,357	-136,549	0,125	0,010
-601,342	391,430	-0,049	0,074
-600,328	-200,000	0,003	0,090
-599,313	630,218	-0,063	-0,117
-598,298	-78,306	0,064	-0,016
-597,284	-40,066	0,119	-0,045
-596,269	74,746	0,070	0,054
-595,255	-200,000	0,005	0,047
-594,240	-200,000	-0,039	0,172
-593,225	-44,735	0,092	-0,033
-592,211	204,379	-0,097	-0,110
-591,196	-141,004	-0,058	0,004
-590,182	-53,546	0,086	0,029
-589,167	-102,733	0,130	-0,022
-588,152	84,290	-0,032	-0,026
-587,138	-57,679	-0,165	0,053
-586,123	-77,231	-0,139	-0,035
-585,109	-167,302	-0,081	0,002
-584,094	60,299	-0,027	0,020
-583,079	-200,000	0,011	0,074
-582,065	-200,000	0,025	0,119
-581,050	-26,738	-0,028	0,012
-580,036	800,000	0,028	-0,071
-579,021	-54,091	-0,036	0,012
-578,006	-97,903	-0,250	-0,047
-576,992	104,254	-0,029	-0,025
-575,977	-89,533	0,059	0,013
-574,963	-145,858	0,099	0,006
-573,948	7,577	-0,038	-0,021
-572,934	-200,000	-0,008	0,156
-571,919	46,851	-0,084	0,057
-570,904	301,059	-0,075	-0,102
-569,890	-200,000	0,022	0,113
-568,875	-127,671	0,079	-0,008
-567,861	156,408	-0,043	-0,043
-566,846	5,280	0,165	0,089
-565,831	38,766	-0,050	-0,033
-564,817	15,235	0,020	0,012
-563,802	55,840	-0,062	-0,044
-562,788	39,304	-0,081	-0,053
-561,773	-133,194	0,076	-0,007
-560,758	-52,029	-0,072	-0,024
-559,744	746,312	0,068	0,134
-558,729	-200,000	-0,013	0,135
-557,715	800,000	0,031	-0,064
-556,700	800,000	-0,017	-0,052
-555,685	-144,033	-0,104	0,007
-554,671	-127,090	0,073	0,008
-553,656	-78,943	0,034	0,008
-552,642	-200,000	-0,019	0,084
-551,627	-115,131	0,027	0,004
-550,612	800,000	-0,012	0,038
-549,598	-200,000	0,025	0,111
-548,583	55,145	0,101	0,071
-547,569	-193,600	-0,052	0,000
-546,554	-62,669	-0,048	0,014
-545,539	-200,000	0,002	0,020
-544,525	-153,900	-0,102	0,005
-543,510	165,384	0,062	-0,065
-542,496	800,000	0,057	-0,172
-541,481	-200,000	0,003	-0,085
-540,466	8,232	-0,016	-0,009
-539,452	-200,000	0,006	-0,094
-538,437	-200,000	-0,031	-0,117
-537,423	-200,000	-0,007	0,274
-536,408	-42,830	0,028	0,010
-535,393	-34,314	0,027	-0,011
-534,379	75,024	-0,077	-0,059
-533,364	800,000	0,030	0,074
-532,350	-15,441	0,056	-0,026
-531,335	470,023	0,042	-0,069
-530,321	800,000	0,027	0,062
-529,306	91,176	-0,050	0,041
-528,291	-200,000	-0,011	-0,067
-527,277	153,295	0,109	-0,109
-526,262	-159,731	0,195	-0,008
-525,248	475,305	0,035	0,059
-524,233	248,225	0,067	0,083
-523,218	-200,000	0,003	0,038
-522,204	108,625	0,073	0,064
-521,189	800,000	0,074	-0,162
-520,175	-39,086	-0,098	0,037
-519,160	74,345	0,107	-0,082
-518,145	193,120	0,072	0,080
-517,131	800,000	0,030	0,087
-516,116	112,332	-0,019	0,017
-515,102	78,418	-0,089	-0,069
-514,087	460,550	-0,029	0,048
-513,072	-200,000	-0,006	-0,084
-512,058	800,000	-0,060	-0,126
-511,043	800,000	-0,016	0,050
-510,029	-200,000	0,007	0,133
-509,014	-200,000	-0,008	0,088
-507,999	-77,068	0,090	0,023
-506,985	380,404	-0,105	-0,157
-505,970	61,452	0,045	-0,033
-504,956	-46,659	-0,056	0,020
-503,941	126,524	0,085	0,079
-502,926	-42,382	0,041	0,015
-501,912	442,625	0,036	0,057
-500,897	-154,438	-0,069	0,003
-499,883	15,090	-0,059	-0,034
-498,868	-111,884	-0,107	-0,016
-497,853	-135,745	-0,101	-0,009
-496,839	561,083	-0,038	0,067
-495,824	-35,898	-0,099	-0,039
-494,810	-105,913	-0,058	0,009
-493,795	-63,322	0,153	0,046
-492,781	-9,291	0,058	-0,028
-491,766	216,914	-0,065	-0,076
-490,751	-18,201	-0,061	0,028
-489,737	-200,000	-0,019	0,083
-488,722	800,000	0,051	-0,123
-487,708	-112,525	0,012	-0,002
-486,693	247,047	0,125	0,155
-485,678	225,084	0,097	0,114
-484,664	-200,000	-0,007	-0,187
-483,649	50,820	-0,062	-0,043
-482,635	800,000	-0,040	0,093
-481,620	126,194	0,084	0,078
-480,605	-22,746	-0,007	-0,003
-479,591	-23,934	-0,063	0,027
-478,576	2,861	0,112	0,059
-477,562	361,614	-0,090	-0,131
-476,547	40,468	-0,033	-0,022
-475,532	621,984	-0,022	-0,040
-474,518	753,978	0,025	0,050
-473,503	-165,994	0,126	0,004
-472,489	299,424	0,082	0,110
-471,474	-200,000	0,033	-0,115
-470,459	-200,000	-0,029	0,130
-469,445	-62,017	-0,089	0,027
-468,430	800,000	-0,030	-0,095
-467,416	-94,975	0,118	0,023
-466,401	14,512	-0,051	0,029
-465,386	-200,000	0,015	-0,078
-464,372	800,000	-0,019	-0,052
-463,357	800,000	0,028	-0,076
-462,343	255,398	0,057	0,072
-461,328	85,224	-0,027	-0,022
-460,313	800,000	0,034	0,079
-459,299	800,000	-0,020	-0,049
-458,284	-200,000	0,011	-0,063
-457,270	44,045	0,110	0,074
-456,255	-73,544	0,105	-0,028
-455,241	295,586	-0,086	-0,115
-454,226	-200,000	0,007	-0,131
-453,211	-9,943	-0,035	-0,017
-452,197	800,000	-0,027	0,081
-451,182	-200,000	-0,003	-0,068
-450,168	-112,003	-0,122	-0,018
-449,153	381,904	0,051	0,077
-448,138	7,504	-0,088	0,048
-447,124	-200,000	-0,001	-0,028
-446,109	212,704	0,143	0,165
-445,095	-200,000	-0,023	0,135
-444,080	-136,022	0,117	-0,010
-443,065	469,024	-0,042	-0,069
-442,051	-149,284	-0,108	0,006
-441,036	241,890	-0,072	0,088
-440,022	-200,000	0,013	0,060
-439,007	-114,403	-0,032	0,004
-437,992	-93,085	0,049	0,010
-436,978	53,605	0,098	0,068
-435,963	312,550	-0,068	0,093
-434,949	-200,000	0,059	0,192
-433,934	800,000	-0,032	-0,082
-432,919	-58,908	-0,063	0,020
-431,905	-200,000	-0,005	0,083
-430,890	800,000	-0,059	0,164
-429,876	-38,729	0,080	0,031
-428,861	-141,800	0,152	-0,011
-427,846	390,968	0,059	0,089
-426,832	545,780	0,022	-0,038
-425,817	-62,628	0,061	0,018
-424,803	800,000	-0,025	-0,063
-423,788	-200,000	0,029	-0,117
-422,773	172,652	0,096	-0,101
-421,759	-162,339	0,155	-0,006
-420,744	130,809	-0,045	0,042
-419,730	-200,000	0,044	-0,214
-418,715	-200,000	-0,012	-0,044
-417,701	245,500	-0,036	-0,044
-416,686	-200,000	-0,016	-0,120
-415,671	39,522	0,070	0,046
-414,657	800,000	0,023	0,048
-413,642	132,917	-0,080	-0,075
-412,628	729,439	-0,078	0,152
-411,613	800,000	0,029	0,091
-410,598	-200,000	-0,030	-0,146
-409,584	-152,430	0,128	0,007
-408,569	-56,517	0,073	-0,023
-407,555	-104,748	0,107	-0,018
-406,540	-200,000	0,029	0,135
-405,525	-200,000	0,034	0,130
-404,511	287,376	-0,069	-0,092
-403,496	52,016	-0,089	-0,061
-402,482	-7,737	0,185	0,091
-401,467	350,361	-0,048	0,069
-400,452	800,000	0,016	0,043
-399,438	59,767	-0,073	0,052
-398,423	-141,339	0,166	0,012
-397,409	391,538	-0,029	-0,044
-396,394	-47,043	-0,094	-0,033
-395,379	-200,000	-0,004	-0,119
-394,365	27,844	0,075	0,046
-393,350	272,097	0,051	0,066
-392,336	-1,340	-0,107	-0,055
-391,321	87,123	-0,077	-0,062
-390,306	-200,000	-0,014	-0,049
-389,292	67,829	-0,014	-0,010
-388,277	-200,000	-0,003	0,059
-387,263	313,776	0,089	0,122
-386,248	780,176	0,065	0,130
-385,233	455,770	-0,064	0,104
-384,219	-200,000	0,017	-0,094
-383,204	62,882	0,124	-0,090
-382,190	800,000	-0,021	-0,048
-381,175	-85,838	0,072	-0,016
-380,160	528,336	0,100	-0,173
-379,146	243,676	-0,011	0,014
-378,131	-200,000	0,022	0,073
-377,117	-16,312	-0,091	0,042
-376,102	800,000	-0,011	0,022
-375,088	-19,198	0,028	0,013
-374,073	-62,364	0,034	-0,010
-373,058	-93,830	-0,184	0,036
-372,044	-200,000	0,002	0,160
-371,029	93,893	-0,027	-0,022
-370,015	125,123	0,010	-0,009
-369,000	372,990	-0,024	0,035
-367,985	-200,000	0,038	0,146
-366,971	-200,000	0,015	-0,082
-365,956	43,470	0,016	-0,011
-364,942	800,000	0,018	0,047
-363,927	-153,537	-0,119	-0,006
-362,912	-65,268	0,128	-0,037
-361,898	800,000	-0,034	-0,082
-360,883	35,819	-0,160	-0,102
-359,869	-187,973	-0,111	-0,001
-358,854	466,902	0,023	-0,038
-357,839	-200,000	0,020	0,084
-356,825	48,974	-0,057	-0,039
-355,810	79,644	0,048	0,038
-354,796	-55,888	0,121	-0,039
-353,781	27,071	-0,141	-0,086
-352,766	129,465	-0,025	-0,023
-351,752	800,000	0,037	-0,090
-350,737	271,679	0,034	-0,044
-349,723	122,317	0,136	0,123
-348,708	170,948	-0,035	-0,036
-347,693	23,377	0,158	0,094
-346,679	-3,516	0,016	-0,008
-345,664	-129,414	-0,212	-0,021
-344,650	294,511	0,070	0,094
-343,635	-112,225	-0,038	-0,005
-342,620	-200,000	-0,013	0,000
-341,606	-89,748	0,075	0,016
-340,591	78,226	-0,142	0,110
-339,577	416,120	-0,075	-0,116
-338,562	188,525	-0,083	-0,090
-337,548	-6,429	0,024	-0,012
-336,533	-48,582	0,108	0,037
-335,518	800,000	0,045	0,140
-334,504	-90,923	0,088	-0,018
-333,489	-200,000	0,031	-0,174
-332,475	61,148	-0,125	0,090
-331,460	-153,876	-0,136	0,007
-330,445	106,411	-0,046	0,040
-329,431	-63,212	0,125	0,037
-328,416	36,481	0,110	0,070
-327,402	291,894	-0,032	-0,042
-326,387	-87,646	-0,058	-0,013
-325,372	37,663	0,110	0,071
-324,358	800,000	0,037	-0,100
-323,343	223,154	-0,064	-0,075
-322,329	557,922	0,047	-0,083
-321,314	96,951	0,080	-0,067
-320,299	-136,058	0,059	-0,005
-319,285	-31,953	0,163	-0,066
-318,270	-147,935	0,091	-0,005
-317,256	6,335	-0,107	-0,057
-316,241	95,427	0,024	-0,020
-315,226	-200,000	0,005	0,044
-314,212	800,000	0,025	-0,065
-313,197	146,891	0,084	0,081
-312,183	-200,000	0,000	-0,073
-311,168	-4,414	0,061	0,031
-310,153	-200,000	-0,020	-0,086
-309,139	-69,393	-0,104	0,029
-308,124	141,055	0,115	-0,110
-307,110	166,364	-0,049	-0,050
-306,095	-14,478	0,180	-0,084
-305,080	760,908	-0,010	0,020
-304,066	-35,617	-0,075	0,029
-303,051	-95,476	-0,020	-0,004
-302,037	-88,394	-0,124	-0,027
-301,022	29,979	-0,045	-0,028
-300,008	62,215	-0,050	0,036
-298,993	-200,000	0,017	0,129
-297,978	339,634	-0,022	-0,031
-296,964	-186,915	-0,051	0,000
-295,949	800,000	0,046	-0,095
-294,935	-200,000	0,007	-0,046
-293,920	-153,292	0,032	0,002
-292,905	210,572	0,066	0,075
-291,891	800,000	-0,020	-0,044
-290,876	-200,000	-0,002	0,111
-289,862	-88,296	-0,017	-0,004
-288,847	28,190	0,026	0,016
-287,832	-29,584	-0,070	-0,029
-286,818	233,723	-0,130	0,155
-285,803	-25,099	0,058	-0,025
-284,789	8,440	0,021	-0,011
-283,774	17,926	-0,051	0,029
-282,759	514,346	0,057	0,097
-281,745	32,522	0,060	-0,037
-280,730	800,000	-0,032	-0,068
-279,716	174,388	0,056	0,059
-278,701	-184,273	0,201	0,002
-277,686	86,419	0,074	-0,059
-276,672	-7,676	-0,033	0,016
-275,657	-200,000	0,017	0,132
-274,643	800,000	-0,042	-0,086
-273,628	253,626	0,021	-0,026
-272,613	-200,000	0,021	-0,193
-271,599	-200,000	0,027	0,168
-270,584	-200,000	0,021	0,109
-269,570	709,994	-0,037	0,071
-268,555	564,688	0,046	-0,081
-267,540	434,246	-0,098	0,155
-266,526	-7,769	0,007	0,004
-265,511	-157,878	0,098	-0,004
-264,497	253,705	-0,035	-0,043
-263,482	75,295	0,086	0,066
-262,467	-182,130	-0,044	-0,001
-261,453	800,000	0,023	0,069
-260,438	373,728	0,027	-0,040
-259,424	-200,000	-0,034	-0,178
-258,409	-60,571	0,032	0,010
-257,395	214,785	-0,121	0,139
-256,380	165,935	0,064	-0,066
-255,365	-56,797	-0,125	0,040
-254,351	-174,776	-0,155	0,003
-253,336	-63,511	-0,044	0,013
-252,322	-96,108	-0,125	-0,024
-251,307	-27,988	0,045	-0,019
-250,292	-69,697	-0,026	0,007
-249,278	-6,338	-0,142	-0,070
-248,263	-200,000	0,013	0,182
-247,249	-138,995	0,071	-0,006
-246,234	237,977	-0,037	0,044
-245,219	-47,620	-0,053	0,019
-244,205	19,928	0,047	0,027
-243,190	-169,911	-0,059	0,002
-242,176	-200,000	0,014	0,076
-241,161	-66,747	-0,174	-0,050
-240,146	-72,970	0,106	0,028
-239,132	-200,000	0,001	-0,023
-238,117	-200,000	-0,009	-0,061
-237,103	-200,000	-0,041	-0,142
-236,088	345,832	-0,038	0,054
-235,073	256,028	0,109	0,135
-234,059	77,492	0,091	0,070
-233,044	-111,989	0,118	0,017
-232,030	355,778	-0,128	-0,185
-231,015	-200,000	-0,010	-0,040
-230,000	-200,000	-0,029	-0,112
-228,986	-200,000	0,123	0,000
-227,971	-170,344	0,041	-0,001
-226,957	-200,000	-0,021	0,099
-225,942	10,434	0,080	0,044
-224,927	-200,000	0,004	0,148
-223,913	-177,785	-0,125	0,002
-222,898	-200,000	0,001	-0,140
-221,884	217,228	-0,120	-0,138
-220,869	-2,210	0,095	-0,048
-219,855	-30,634	0,176	0,072
-218,840	-69,306	-0,069	0,019
-217,825	-12,699	-0,060	0,028
-216,811	-17,730	-0,051	0,023
-215,796	-66,717	0,036	-0,010
-214,782	25,495	0,031	-0,019
-213,767	-27,703	0,029	0,012
-212,752	-200,000	-0,020	-0,128
-211,738	-140,788	0,079	-0,006
-210,723	-29,877	-0,087	0,036
-209,709	-200,000	0,018	0,060
-208,694	530,523	-0,051	0,086
-207,679	-61,047	-0,146	-0,044
-206,665	17,169	-0,018	0,010
-205,650	233,541	-0,033	0,040
-204,636	-101,649	0,237	-0,041
-203,621	800,000	-0,029	-0,059
-202,606	-155,835	-0,055	0,002
-201,592	375,622	-0,009	0,013
-200,577	779,401	-0,009	-0,017
-199,563	584,921	0,020	0,035
-198,548	193,033	-0,049	-0,053
-197,533	-200,000	0,010	0,042
-196,519	-200,000	-0,000	-0,070
-195,504	-72,089	-0,043	0,011
-194,490	-95,788	0,037	-0,007
-193,475	-45,117	-0,013	0,005
-192,460	-132,070	0,047	0,004
-191,446	24,054	-0,100	-0,059
-190,431	-84,511	0,021	-0,005
-189,417	-128,615	-0,063	-0,006
-188,402	125,257	-0,010	-0,009
-187,387	-200,000	-0,031	0,102
-186,373	151,247	0,079	-0,078
-185,358	-73,649	0,099	0,026
-184,344	-200,000	0,038	0,000
-183,329	206,329	-0,016	0,018
-182,315	-200,000	0,016	0,093
-181,300	183,995	0,085	-0,090
-180,285	-19,910	-0,075	0,033
-179,271	800,000	0,038	-0,091
-178,256	-86,730	0,067	-0,015
-177,242	-23,845	0,145	-0,062
-176,227	-91,190	0,046	-0,009
-175,212	133,423	-0,052	-0,048
-174,198	-200,000	0,022	-0,090
-173,183	167,073	-0,125	0,128
-172,169	26,461	-0,070	0,042
-171,154	578,379	0,015	-0,027
-170,139	79,118	-0,045	0,035
-169,125	-95,304	-0,121	0,023
-168,110	247,987	-0,033	0,041
-167,096	-116,748	-0,095	0,012
-166,081	-22,717	-0,074	-0,032
-165,066	800,000	0,034	-0,092
-164,052	-4,468	0,087	-0,043
-163,037	-200,000	-0,018	0,100
-162,023	-72,620	0,113	-0,030
-161,008	71,435	-0,059	-0,044
-159,993	-5,845	0,070	-0,034
-158,979	85,914	-0,019	0,015
-157,964	18,318	0,085	0,049
-156,950	-200,000	-0,036	-0,128
-155,935	120,143	-0,116	-0,104
-154,920	-10,577	0,071	0,034
-153,906	-200,000	0,008	0,051
-152,891	63,206	0,113	0,082
-151,877	142,427	0,085	-0,081
-150,862	31,385	-0,078	-0,048
-149,847	800,000	0,044	-0,092
-148,833	84,351	-0,077	0,061
-147,818	28,662	0,106	-0,064
-146,804	-29,825	0,040	0,016
-145,789	400,989	-0,016	0,024
-144,775	-91,114	0,063	0,013
-143,760	177,652	-0,082	0,086
-142,745	800,000	0,036	-0,110
-141,731	800,000	0,057	-0,155
-140,716	-119,068	0,073	-0,009
-139,702	231,052	0,021	0,025
-138,687	312,227	0,081	0,110
-137,672	16,142	-0,016	0,009
-136,658	-146,389	-0,168	-0,010
-135,643	-200,000	0,024	-0,095
-134,629	10,644	-0,093	0,051
-133,614	-200,000	0,019	0,089
-132,599	-68,387	-0,079	-0,022
-131,585	710,654	0,043	0,082
-130,570	-135,499	-0,112	-0,009
-129,556	48,149	0,009	0,006
-128,541	-200,000	0,018	-0,076
-127,526	800,000	0,013	0,040
-126,512	-12,381	-0,057	-0,027
-125,497	329,684	0,081	-0,112
-124,483	-200,000	-0,003	0,036
-123,468	-54,064	-0,095	0,031
-122,453	262,828	-0,170	0,212
-121,439	-90,818	0,048	-0,010
-120,424	800,000	-0,029	0,089
-119,410	-50,010	0,066	0,022
-118,395	-200,000	0,011	0,048
-117,380	244,912	-0,038	0,046
-116,366	72,918	-0,024	0,018
-115,351	800,000	-0,018	-0,053
-114,337	538,502	0,023	0,039
-113,322	-200,000	0,001	-0,016
-112,307	800,000	-0,025	0,056
-111,293	165,014	0,073	-0,074
-110,278	-200,000	-0,003	0,043
-109,264	53,018	0,072	-0,050
-108,249	-200,000	-0,011	-0,144
-107,234	233,153	-0,056	0,066
-106,220	-157,728	-0,043	0,002
-105,205	-57,951	-0,083	0,026
-104,191	82,633	0,086	0,067
-103,176	-114,645	-0,105	0,014
-102,162	-145,134	0,231	-0,015
-101,147	118,243	-0,064	0,057
-100,132	-200,000	-0,015	0,095
-99,118	-88,771	0,026	0,006
-98,103	-25,424	0,086	-0,036
-97,089	-200,000	0,005	0,063
-96,074	31,611	0,161	0,099
-95,059	-200,000	0,002	0,014
-94,045	18,978	-0,118	0,068
-93,030	-68,777	0,068	-0,019
-92,016	-7,518	-0,025	-0,012
-91,001	800,000	-0,018	0,049
-89,986	81,827	0,127	-0,099
-88,972	212,093	0,043	0,049
-87,957	800,000	-0,022	0,051
-86,943	-94,498	-0,141	-0,027
-85,928	-200,000	0,004	-0,026
-84,913	-3,166	0,067	-0,034
-83,899	183,837	0,102	-0,109
-82,884	-200,000	0,013	-0,100
-81,870	-200,000	-0,021	-0,077
-80,855	-9,835	0,078	0,037
-79,840	599,218	-0,010	0,018
-78,826	373,296	0,048	-0,071
-77,811	800,000	-0,047	-0,116
-76,797	129,725	-0,061	0,056
-75,782	328,529	0,055	0,076
-74,767	-70,634	0,096	0,026
-73,753	-61,003	-0,110	-0,033
-72,738	81,858	-0,091	0,071
-71,724	800,000	-0,011	0,028
-70,709	-200,000	-0,016	-0,104
-69,694	800,000	-0,040	-0,085
-68,680	-200,000	-0,007	0,040
-67,665	347,251	-0,040	0,056
-66,651	-19,748	0,129	0,057
-65,636	-86,390	-0,177	-0,039
-64,622	95,066	0,086	-0,070
-63,607	-200,000	0,011	-0,072
-62,592	800,000	-0,060	-0,131
-61,578	-200,000	-0,014	0,199
-60,563	-200,000	0,006	0,115
-59,549	708,300	-0,030	0,057
-58,534	-4,327	-1,907	-0,943
-57,519	-200,000	-0,212	-0,983
-56,505	-200,000	-1,357	-4,953
-55,490	-4,578	0,870	0,430
-54,476	800,000	5,191	12,088
-53,461	-200,000	17,273	282,890
-52,446	800,000	723,692	2220,596
-51,432	539,080	1639,942	2809,092
-50,417	111,400	1631,875	1411,094
-49,403	75,631	1286,296	973,589
-48,388	32,604	1028,305	636,310
-47,373	20,198	990,171	571,811
-46,359	18,670	978,129	559,824
-45,344	16,063	974,232	549,040
-44,330	16,269	972,774	548,871
-43,315	15,838	970,904	546,385
-42,300	15,725	969,888	545,424
-41,286	15,777	968,864	544,995
-40,271	15,705	967,869	544,182
-39,257	15,786	967,041	543,956
-38,242	15,818	966,011	543,458
-37,227	15,787	965,284	542,927
-36,213	15,792	964,618	542,550
-35,198	15,702	963,702	541,719
-34,184	15,811	962,764	541,525
-33,169	15,816	961,729	540,938
-32,154	15,883	960,752	540,584
-31,140	15,830	959,917	539,921
-30,125	15,805	959,361	539,505
-29,111	15,793	958,580	539,007
-28,096	15,823	957,952	538,729
-27,082	15,849	957,059	538,289
-26,067	15,820	956,362	537,782
-25,052	15,776	955,826	537,317
-24,038	15,791	955,021	536,891
-23,023	15,768	954,324	536,404
-22,009	15,861	953,643	536,298
-20,994	15,786	953,046	535,702
-19,979	15,778	952,466	535,330
-18,965	15,774	951,898	534,975
-17,950	15,815	951,300	534,748
-16,936	15,716	950,774	534,116
-15,921	15,763	950,045	533,837
-14,906	15,702	949,257	533,177
-13,892	15,707	948,612	532,810
-12,877	15,630	947,931	532,159
-11,863	15,579	947,433	531,695
-10,848	15,654	946,826	531,575
-9,833	15,747	946,304	531,554
-8,819	15,758	945,578	531,162
-7,804	15,706	944,954	530,627
-6,790	15,696	944,567	530,354
-5,775	15,759	943,777	530,088
-4,760	15,710	943,309	529,651
-3,746	15,674	942,641	529,142
-2,731	15,573	941,949	528,413
-1,717	15,629	941,056	528,065
-0,702	15,572	940,666	527,647
0,313	15,348	940,038	527,385
1,327	18,469	937,744	535,880
2,342	27,301	794,990	477,708
3,356	24,042	458,916	270,759
4,371	-2,638	313,492	156,707
5,386	-6,505	295,224	143,666
6,400	-8,402	289,529	139,005
7,415	-9,168	287,090	137,069
8,429	-9,370	285,519	136,109
9,444	-9,220	284,537	135,775
10,459	-9,181	283,791	135,445
11,473	-9,385	283,334	135,017
12,488	-9,250	282,792	134,877
13,502	-9,268	282,331	134,628
14,517	-9,301	281,800	134,332
15,531	-9,577	281,452	133,888
16,546	-9,297	280,788	133,829
17,561	-9,412	280,459	133,550
18,575	-9,290	280,090	133,479
19,590	-9,509	279,717	133,080
20,604	-9,531	279,618	133,000
21,619	-9,482	279,174	132,824
22,634	-9,477	278,851	132,663
23,648	-9,573	278,543	132,413
24,663	-9,482	278,190	132,321
25,677	-9,635	278,078	132,110
26,692	-9,574	277,736	131,993
27,707	-9,411	277,544	132,045
28,721	-9,634	277,166	131,642
29,736	-9,553	276,850	131,556
30,750	-9,523	276,743	131,523
31,765	-9,564	276,403	131,311
32,780	-9,458	276,083	131,247
33,794	-9,487	275,784	131,066
34,809	-9,552	275,666	130,937
35,823	-9,579	275,475	130,809
36,838	-9,686	275,221	130,576
37,853	-9,657	274,903	130,441
38,867	-9,564	274,480	130,316
39,882	-9,556	274,508	130,325
40,896	-9,627	274,183	130,093
41,911	-9,662	273,807	129,870
42,926	-9,517	273,597	129,894
43,940	-9,763	273,570	129,640
44,955	-9,538	273,190	129,658
45,969	-9,613	273,050	129,511
46,984	-9,890	272,795	129,121
47,999	-10,166	272,753	128,832
49,013	-10,200	272,295	128,572
50,028	-10,346	272,000	128,286
51,042	-10,338	271,699	128,140
52,057	-10,217	271,487	128,141
53,071	-10,077	271,171	128,110
54,086	-10,105	271,145	128,061
55,101	-10,002	271,071	128,109
56,115	-9,701	270,803	128,248
57,130	-9,450	270,777	128,456
58,144	-9,509	270,496	128,257
59,159	-9,150	270,324	128,495
60,174	-9,298	269,992	128,190
61,188	-9,317	270,006	128,167
62,203	-9,333	269,657	127,975
63,217	-9,361	269,284	127,762
64,232	-9,407	269,124	127,632
65,247	-9,475	268,911	127,458
66,261	-9,473	268,670	127,333
67,276	-9,556	268,352	127,096
68,290	-9,695	268,099	126,838
69,305	-9,730	267,857	126,680
70,320	-9,634	267,721	126,692
71,334	-9,503	267,579	126,733
72,349	-9,542	267,504	126,650
73,363	-9,460	267,343	126,637
74,378	-9,430	266,972	126,478
75,393	-9,374	266,747	126,410
76,407	-9,429	266,641	126,299
77,422	-9,388	266,365	126,194
78,436	-9,261	266,001	126,125
79,451	-9,414	265,901	125,929
80,466	-9,470	265,539	125,695
81,480	-9,671	265,336	125,406
82,495	-9,811	265,249	125,228
83,509	-9,353	264,952	125,489
84,524	-9,539	264,755	125,218
85,539	-9,800	264,601	124,898
86,553	-9,612	264,298	124,914
87,568	-9,620	264,103	124,803
88,582	-9,603	264,006	124,761
89,597	-9,670	263,756	124,571
90,611	-9,597	263,653	124,577
91,626	-9,443	263,518	124,640
92,641	-9,407	263,227	124,524
93,655	-9,470	263,153	124,421
94,670	-9,535	262,767	124,170
95,684	-9,479	262,591	124,125
96,699	-9,293	262,387	124,184
97,714	-9,527	262,148	123,851
98,728	-9,577	261,904	123,680
99,743	-9,771	261,792	123,444
100,757	-9,646	261,508	123,410
101,772	-9,551	261,397	123,431
102,787	-9,759	261,323	123,200
103,801	-9,434	261,099	123,372
104,816	-9,464	260,904	123,242
105,830	-9,526	260,741	123,100
106,845	-9,412	260,489	123,070
107,860	-9,334	260,277	123,028
108,874	-9,517	260,117	122,780
109,889	-9,297	259,739	122,784
110,903	-9,449	259,614	122,580
111,918	-9,468	259,558	122,526
112,933	-9,493	259,358	122,398
113,947	-9,207	259,081	122,509
114,962	-9,392	258,871	122,236
115,976	-9,473	258,862	122,150
116,991	-9,320	258,508	122,106
118,006	-9,541	258,459	121,878
119,020	-9,286	258,282	122,007
120,035	-9,444	258,122	121,782
121,049	-9,335	257,776	121,704
122,064	-9,340	257,696	121,651
123,079	-9,326	257,658	121,634
124,093	-9,309	257,225	121,434
125,108	-9,577	257,114	121,137
126,122	-9,873	256,728	120,687
127,137	-9,898	256,556	120,574
128,151	-9,632	256,391	120,716
129,166	-9,773	256,385	120,580
130,181	-9,682	256,011	120,473
131,195	-9,720	255,830	120,344
132,210	-9,597	255,606	120,334
133,224	-9,271	255,566	120,586
134,239	-9,310	255,258	120,397
135,254	-9,379	255,158	120,279
136,268	-9,374	254,926	120,164
137,283	-9,732	254,572	119,677
138,297	-9,813	254,378	119,506
139,312	-9,919	254,344	119,388
140,327	-9,579	254,198	119,601
141,341	-9,302	254,197	119,828
142,356	-9,248	253,912	119,729
143,370	-9,177	253,720	119,690
144,385	-9,265	253,570	119,532
145,400	-9,026	253,211	119,557
146,414	-9,062	253,177	119,499
147,429	-9,264	252,979	119,223
148,443	-9,245	252,729	119,110
149,458	-9,304	252,640	119,007
150,473	-9,146	252,326	118,983
151,487	-9,309	252,241	118,794
152,502	-9,335	252,009	118,652
153,516	-9,125	251,839	118,740
154,531	-9,296	251,863	118,595
155,546	-9,121	251,413	118,521
156,560	-9,217	251,319	118,385
157,575	-9,251	250,991	118,192
158,589	-9,066	250,896	118,293
159,604	-9,022	250,625	118,192
160,619	-9,106	250,580	118,088
161,633	-9,398	250,349	117,723
162,648	-9,229	250,414	117,885
163,662	-9,103	250,230	117,895
164,677	-9,184	250,020	117,717
165,692	-9,291	249,944	117,581
166,706	-8,959	249,604	117,689
167,721	-9,073	249,331	117,454
168,735	-9,106	249,334	117,417
169,750	-9,148	249,153	117,287
170,764	-8,914	248,985	117,393
171,779	-9,223	248,970	117,116
172,794	-9,138	248,642	117,023
173,808	-9,263	248,568	116,873
174,823	-9,643	248,282	116,411
175,837	-9,779	248,002	116,155
176,852	-9,377	247,970	116,465
177,867	-9,188	247,836	116,550
178,881	-9,162	247,708	116,501
179,896	-9,019	247,487	116,506
180,910	-9,219	247,273	116,228
181,925	-9,076	247,137	116,273
182,940	-9,138	246,923	116,110
183,954	-9,092	246,820	116,090
184,969	-9,218	246,631	115,886
185,983	-9,206	246,648	115,893
186,998	-9,172	246,374	115,782
188,013	-9,012	246,212	115,829
189,027	-9,274	245,987	115,495
190,042	-9,223	245,873	115,474
191,056	-9,184	245,710	115,419
192,071	-9,071	245,386	115,350
193,086	-9,118	245,364	115,290
194,100	-9,139	245,177	115,175
195,115	-8,964	244,987	115,220
196,129	-8,904	244,603	115,078
197,144	-9,165	244,476	114,794
198,159	-8,933	244,296	114,889
199,173	-9,140	244,175	114,652
200,188	-9,081	244,022	114,619
201,202	-9,284	243,736	114,308
202,217	-9,509	243,358	113,936
203,232	-9,668	243,323	113,780
204,246	-9,215	243,308	114,133
205,261	-8,438	243,134	114,677
206,275	-9,297	243,036	113,919
207,290	-6,817	243,913	116,351
208,304	-1,633	245,432	121,330
209,319	1,009	245,994	123,771
210,334	1,505	246,208	124,275
211,348	1,728	246,163	124,425
212,363	2,139	246,154	124,747
213,377	2,480	245,937	124,906
214,392	2,429	245,805	124,786
215,407	2,258	245,718	124,590
216,421	2,271	245,420	124,439
217,436	2,516	245,377	124,607
218,450	2,554	245,249	124,561
219,465	2,257	244,979	124,170
220,480	2,140	244,774	123,960
221,494	2,394	244,584	124,060
222,509	2,422	244,649	124,105
223,523	2,272	244,503	123,897
224,538	1,829	244,157	123,350
225,553	1,875	243,954	123,274
226,567	2,022	243,818	123,314
227,582	2,157	243,694	123,350
228,596	2,037	243,654	123,221
229,611	1,870	243,471	122,982
230,626	1,952	243,192	122,897
231,640	2,061	242,969	122,861
232,655	2,092	242,892	122,837
233,669	1,936	242,646	122,575
234,684	2,112	242,412	122,588
235,699	2,501	242,605	122,989
236,713	2,369	242,329	122,732
237,728	2,144	242,097	122,421
238,742	2,207	241,973	122,399
239,757	2,209	241,693	122,248
240,772	1,917	241,668	121,989
241,786	2,256	241,247	122,039
242,801	1,993	241,168	121,776
243,815	1,642	240,985	121,391
244,830	2,099	240,912	121,711
245,844	2,485	240,821	121,963
246,859	2,101	240,603	121,534
247,874	2,050	240,547	121,454
248,888	2,080	240,441	121,414
249,903	2,049	240,379	121,347
250,917	2,558	240,117	121,611
251,932	2,345	240,015	121,377
252,947	2,120	239,861	121,109
253,961	2,012	239,439	120,800
254,976	2,153	239,452	120,908
255,990	2,289	239,281	120,919
257,005	1,978	239,057	120,548
258,020	1,698	238,918	120,244
259,034	1,969	238,712	120,345
260,049	2,188	238,557	120,430
261,063	1,818	238,505	120,100
262,078	2,173	238,210	120,221
263,093	2,312	238,109	120,270
264,107	2,351	238,013	120,241
265,122	2,093	237,718	119,878
266,136	2,030	237,700	119,808
267,151	2,581	237,654	120,210
268,166	2,039	237,270	119,577
269,180	2,135	237,136	119,575
270,195	2,624	237,275	120,020
271,209	2,597	237,095	119,897
272,224	2,035	236,716	119,252
273,239	1,838	236,607	119,032
274,253	1,975	236,448	119,049
275,268	2,158	236,397	119,157
276,282	2,035	236,164	118,932
277,297	2,080	235,919	118,833
278,312	2,004	235,840	118,723
279,326	2,288	235,873	118,952
280,341	2,309	235,523	118,781
281,355	2,115	235,557	118,636
282,370	2,562	235,323	118,856
283,384	2,328	235,024	118,513
284,399	1,935	234,972	118,169
285,414	2,066	234,658	118,103
286,428	2,087	234,680	118,120
287,443	2,032	234,540	117,996
288,457	2,464	234,360	118,230
289,472	2,541	234,292	118,246
290,487	2,199	234,073	117,859
291,501	1,874	233,948	117,533
292,516	1,917	233,652	117,407
293,530	1,666	233,600	117,176
294,545	2,037	233,440	117,372
295,560	2,080	233,303	117,326
296,574	1,857	233,010	116,997
297,589	1,911	232,986	117,016
298,603	2,367	232,969	117,349
299,618	2,445	232,848	117,337
300,633	2,360	232,604	117,139
301,647	2,525	232,469	117,187
302,662	2,738	232,440	117,326
303,676	2,838	232,308	117,326
304,691	2,535	232,185	117,020
305,706	2,784	231,977	117,096
306,720	2,530	231,787	116,795
307,735	2,364	231,649	116,588
308,749	2,427	231,397	116,500
309,764	1,973	231,298	116,091
310,779	2,205	230,934	116,075
311,793	1,703	230,800	115,615
312,808	1,898	230,688	115,697
313,822	1,949	230,471	115,617
314,837	1,959	230,452	115,604
315,852	1,952	230,202	115,463
316,866	2,215	230,320	115,713
317,881	2,300	230,233	115,723
318,895	2,551	230,008	115,791
319,910	2,637	230,014	115,849
320,925	2,331	229,689	115,443
321,939	2,365	229,409	115,317
322,954	2,649	229,417	115,527
323,968	2,577	229,318	115,411
324,983	2,292	229,166	115,109
325,997	2,457	228,975	115,127
327,012	2,372	228,777	114,954
328,027	1,975	228,571	114,540
329,041	2,074	228,513	114,576
330,056	2,693	228,505	115,028
331,070	2,953	228,506	115,215
332,085	2,887	228,298	115,050
333,100	2,507	228,031	114,619
334,114	2,566	227,815	114,545
335,129	2,375	227,710	114,338
336,143	2,430	227,461	114,244
337,158	2,511	227,485	114,307
338,173	2,426	227,449	114,215
339,187	2,529	227,110	114,112
340,202	2,570	226,843	113,998
341,216	2,728	226,717	114,043
342,231	2,354	226,671	113,730
343,246	2,406	226,534	113,689
344,260	2,573	226,439	113,756
345,275	2,650	226,208	113,688
346,289	2,567	226,190	113,607
347,304	2,808	226,137	113,750
348,319	2,652	225,895	113,502
349,333	2,677	225,645	113,384
350,348	2,467	225,500	113,145
351,362	2,439	225,483	113,106
352,377	2,328	225,104	112,823
353,392	2,177	225,073	112,685
354,406	2,385	225,054	112,821
355,421	196,351	1320,317	1398,942
356,435	157,399	1453,764	1398,950
