DTS Sentinel unit serial number:	SN410029Multiplexer serial number:	ORYXHardware model number:	OX2-SRSoftware version number:	ORYX F/W v4,00 Oryx Data Collector v3.7.2.0data status	okinstallation	B5 Nyhavnadifferential loss correction	single-endedforward channel	channel 2reverse channel	N/Adate	2023/12/12time	13:22:13forward acquisition time	300,00reverse acquisition time	0,00gamma	499,1914k internal	0,3158k external	0,3158temperature offset calibration	1,0000default loss term (dB/km)	0,3820temperature slope calibration	1,0000multiplexer offset coefficient	1,0000multiplexer slope coefficient	1,0000fibre end	0,00T internal ref (°C)	15,60T ext. ref 1 (°C)	-0,35T ext. ref 2 (°C)	-0,60length (m)	temperature (°C)	Stokes	anti-Stokes-744,400	-20,717	0,071	0,032
-743,385	-121,565	-0,427	0,052
-742,371	-10,067	-0,067	0,033
-741,356	-83,762	-0,247	0,058
-740,342	-85,085	0,189	0,043
-739,327	-173,429	-0,354	-0,008
-738,312	-200,000	-0,039	0,143
-737,298	-71,745	-0,229	0,062
-736,283	15,129	0,146	0,084
-735,269	-95,664	-0,245	0,048
-734,254	-200,000	0,030	0,103
-733,239	-136,023	-0,375	-0,032
-732,225	-133,296	0,025	-0,002
-731,210	29,236	-0,061	-0,038
-730,196	-8,891	0,082	-0,041
-729,181	800,000	-0,081	-0,191
-728,167	800,000	-0,030	0,070
-727,152	0,911	-0,084	-0,044
-726,137	72,681	-0,138	0,106
-725,123	18,910	-0,210	-0,123
-724,108	-63,667	-0,063	0,019
-723,094	17,702	-0,113	-0,066
-722,079	800,000	-0,048	-0,115
-721,064	-200,000	-0,020	0,111
-720,050	582,568	0,034	0,062
-719,035	800,000	-0,015	-0,036
-718,021	-200,000	-0,009	-0,052
-717,006	800,000	-0,036	-0,110
-715,991	-200,000	-0,001	0,065
-714,977	-25,357	-0,125	0,054
-713,962	-94,245	0,066	0,013
-712,948	800,000	0,027	0,073
-711,933	-200,000	0,016	0,072
-710,918	-7,115	-0,067	0,033
-709,904	800,000	-0,028	-0,061
-708,889	107,499	0,098	-0,086
-707,875	-25,240	-0,068	-0,030
-706,860	-37,980	-0,212	0,083
-705,845	-156,496	-0,091	-0,004
-704,831	-12,540	0,091	0,044
-703,816	-133,309	0,081	0,007
-702,802	159,073	0,073	-0,074
-701,787	800,000	0,026	0,055
-700,772	-92,089	-0,052	-0,011
-699,758	-103,110	0,101	0,017
-698,743	-67,952	0,084	0,024
-697,729	-62,238	0,088	0,027
-696,714	800,000	0,034	0,080
-695,699	-153,369	-0,062	-0,003
-694,685	-95,776	-0,127	-0,025
-693,670	305,169	-0,044	0,060
-692,656	487,210	0,060	0,102
-691,641	-154,341	-0,040	-0,002
-690,627	-42,371	0,013	-0,005
-689,612	-200,000	0,025	0,123
-688,597	-200,000	0,013	-0,048
-687,583	86,738	-0,184	-0,149
-686,568	-45,491	-0,195	-0,071
-685,554	-48,446	0,075	0,026
-684,539	-200,000	-0,029	-0,140
-683,524	270,579	-0,062	-0,080
-682,510	800,000	-0,021	-0,062
-681,495	-200,000	-0,028	-0,153
-680,481	295,034	0,098	-0,132
-679,466	6,756	-0,198	-0,108
-678,451	251,414	0,026	-0,033
-677,437	162,957	0,086	-0,089
-676,422	-200,000	0,015	0,071
-675,408	-131,941	-0,087	0,008
-674,393	-125,920	0,012	0,001
-673,378	-73,958	-0,131	-0,035
-672,364	-200,000	0,009	-0,095
-671,349	-130,431	-0,083	-0,008
-670,335	420,600	0,033	0,052
-669,320	140,644	-0,173	0,168
-668,305	-60,259	0,114	-0,035
-667,291	137,197	-0,089	0,086
-666,276	-51,570	-0,071	-0,024
-665,262	108,415	-0,048	0,042
-664,247	43,756	-0,033	-0,022
-663,232	-169,909	-0,071	0,002
-662,218	800,000	-0,040	0,108
-661,203	-159,608	-0,127	0,005
-660,189	-114,586	0,195	0,027
-659,174	-55,718	-0,059	0,019
-658,159	-107,311	0,090	0,014
-657,145	-200,000	-0,039	-0,131
-656,130	-118,507	-0,068	0,009
-655,116	444,343	-0,056	0,091
-654,101	-135,473	0,127	0,011
-653,086	-200,000	0,037	0,173
-652,072	-139,918	-0,183	-0,014
-651,057	-86,035	0,034	0,008
-650,043	0,762	-0,053	-0,028
-649,028	106,402	0,070	0,061
-648,014	-104,233	0,028	0,005
-646,999	-200,000	0,018	0,121
-645,984	-200,000	0,003	-0,131
-644,970	-95,113	0,065	-0,013
-643,955	429,655	-0,009	0,014
-642,941	149,033	-0,085	0,084
-641,926	253,216	-0,052	-0,065
-640,911	78,157	-0,082	0,065
-639,897	137,277	0,101	-0,097
-638,882	357,529	-0,054	-0,079
-637,868	-200,000	0,002	0,069
-636,853	800,000	-0,030	-0,089
-635,838	-2,590	-0,062	-0,032
-634,824	12,361	-0,106	-0,060
-633,809	-51,732	0,094	0,032
-632,795	-200,000	-0,007	0,030
-631,780	211,314	-0,076	0,088
-630,765	226,322	-0,065	-0,077
-629,751	5,930	-0,098	-0,053
-628,736	301,284	-0,091	0,124
-627,722	800,000	-0,067	0,168
-626,707	542,571	0,091	0,160
-625,692	-200,000	-0,022	0,128
-624,678	132,084	-0,066	-0,063
-623,663	800,000	-0,024	0,049
-622,649	151,322	-0,116	-0,116
-621,634	-200,000	-0,034	-0,143
-620,619	800,000	-0,006	-0,014
-619,605	-125,052	0,075	-0,008
-618,590	280,583	0,097	0,127
-617,576	484,685	-0,087	0,147
-616,561	4,534	-0,133	-0,072
-615,546	-66,225	0,114	-0,033
-614,532	-118,669	0,003	-0,000
-613,517	-200,000	-0,013	-0,106
-612,503	-0,665	0,093	-0,048
-611,488	312,514	-0,040	0,056
-610,474	-106,694	-0,085	-0,014
-609,459	148,347	0,042	0,042
-608,444	21,395	0,027	-0,016
-607,430	173,318	-0,053	0,056
-606,415	-60,194	-0,094	-0,029
-605,401	22,113	0,063	0,038
-604,386	792,233	-0,035	0,072
-603,371	-200,000	0,012	0,059
-602,357	208,901	-0,010	0,012
-601,342	576,844	0,029	-0,051
-600,328	-200,000	0,013	-0,070
-599,313	691,095	0,044	0,084
-598,298	800,000	0,041	0,098
-597,284	51,734	-0,075	0,053
-596,269	-200,000	0,009	0,051
-595,255	131,961	0,063	0,059
-594,240	308,146	-0,056	-0,077
-593,225	800,000	-0,049	-0,118
-592,211	110,727	-0,051	-0,045
-591,196	-109,160	0,173	-0,027
-590,182	-151,116	0,095	0,005
-589,167	31,435	-0,053	-0,033
-588,152	68,751	-0,091	0,068
-587,138	95,222	-0,052	-0,044
-586,123	641,077	0,031	-0,059
-585,109	-200,000	0,020	-0,068
-584,094	125,372	0,052	-0,048
-583,079	-103,618	0,102	0,017
-582,065	800,000	-0,068	-0,142
-581,050	511,987	0,070	-0,120
-580,036	-107,727	0,106	-0,017
-579,021	0,047	-0,165	-0,086
-578,006	-123,272	-0,059	-0,007
-576,992	-178,807	0,095	-0,002
-575,977	131,001	0,144	0,136
-574,963	485,652	0,035	-0,059
-573,948	193,883	-0,102	0,113
-572,934	800,000	0,023	0,054
-571,919	-200,000	-0,012	0,142
-570,904	179,339	-0,082	-0,088
-569,890	139,756	-0,046	0,044
-568,875	-200,000	-0,003	0,021
-567,861	21,174	0,174	0,103
-566,846	334,412	0,108	0,153
-565,831	-23,910	-0,204	-0,089
-564,817	800,000	0,051	0,106
-563,802	-88,748	0,062	-0,013
-562,788	800,000	-0,038	-0,115
-561,773	800,000	0,012	0,036
-560,758	-200,000	0,011	0,116
-559,744	-58,653	0,084	0,026
-558,729	143,134	0,024	-0,024
-557,715	-200,000	0,015	-0,166
-556,700	210,127	0,097	-0,112
-555,685	34,640	-0,175	-0,112
-554,671	-3,732	0,054	-0,027
-553,656	-141,581	-0,148	0,011
-552,642	273,314	0,040	-0,052
-551,627	-97,140	-0,253	0,048
-550,612	236,823	-0,033	0,040
-549,598	800,000	0,069	-0,147
-548,583	373,645	-0,076	-0,113
-547,569	800,000	0,051	0,141
-546,554	800,000	-0,063	0,144
-545,539	-95,143	-0,138	0,027
-544,525	-161,388	0,036	-0,001
-543,510	675,448	0,056	-0,107
-542,496	-145,709	-0,090	-0,006
-541,481	-200,000	0,022	-0,105
-540,466	181,165	0,074	0,080
-539,452	800,000	-0,013	0,028
-538,437	304,796	0,060	0,082
-537,423	38,601	0,066	-0,043
-536,408	800,000	-0,027	-0,065
-535,393	-7,535	-0,119	-0,059
-534,379	800,000	0,029	0,072
-533,364	800,000	0,005	-0,015
-532,350	8,241	0,117	-0,064
-531,335	-200,000	0,030	0,107
-530,321	-200,000	-0,010	0,090
-529,306	800,000	-0,036	-0,083
-528,291	-61,964	-0,084	-0,026
-527,277	-200,000	-0,008	-0,051
-526,262	800,000	0,043	0,112
-525,248	-73,420	-0,143	-0,038
-524,233	-200,000	-0,039	-0,156
-523,218	410,261	0,047	-0,074
-522,204	-187,272	0,074	0,001
-521,189	-200,000	-0,028	-0,115
-520,175	-200,000	0,009	-0,161
-519,160	-46,710	-0,124	-0,044
-518,145	-176,712	-0,008	-0,000
-517,131	-200,000	-0,007	-0,028
-516,116	-200,000	-0,013	0,114
-515,102	-22,023	-0,091	0,040
-514,087	800,000	0,074	-0,163
-513,072	-200,000	-0,004	-0,020
-512,058	346,868	-0,072	-0,104
-511,043	-200,000	-0,005	-0,075
-510,029	-131,466	-0,091	-0,009
-509,014	-177,404	-0,087	-0,002
-507,999	-200,000	0,006	-0,063
-506,985	-200,000	0,003	-0,077
-505,970	13,885	-0,033	-0,019
-504,956	-113,249	0,034	-0,005
-503,941	800,000	-0,047	0,139
-502,926	-44,795	-0,074	0,027
-501,912	178,833	0,071	0,076
-500,897	-102,399	0,123	-0,021
-499,883	183,775	0,051	-0,055
-498,868	800,000	-0,085	-0,184
-497,853	-110,555	-0,114	0,017
-496,839	92,323	-0,096	-0,079
-495,824	153,809	0,015	-0,015
-494,810	-200,000	0,019	0,080
-493,795	173,177	-0,103	0,108
-492,781	-200,000	-0,023	-0,081
-491,766	76,907	-0,062	-0,048
-490,751	-81,278	0,059	0,014
-489,737	21,846	-0,061	-0,036
-488,722	800,000	0,005	0,010
-487,708	-28,948	-0,043	0,018
-486,693	65,850	-0,068	0,050
-485,678	68,130	0,045	-0,034
-484,664	419,664	0,015	-0,024
-483,649	-200,000	-0,002	-0,088
-482,635	-77,684	-0,081	0,020
-481,620	-34,233	0,114	-0,045
-480,605	282,800	0,041	-0,053
-479,591	800,000	-0,023	-0,049
-478,576	202,739	0,024	0,027
-477,562	103,238	0,044	-0,038
-476,547	670,020	-0,048	0,091
-475,532	-24,292	-0,031	0,014
-474,518	158,188	0,081	0,082
-473,503	64,873	-0,101	0,075
-472,489	-14,973	0,071	0,033
-471,474	-140,014	-0,190	0,014
-470,459	53,497	-0,216	-0,151
-469,445	187,393	-0,054	0,059
-468,430	-66,140	0,035	-0,010
-467,416	104,856	0,024	0,020
-466,401	-189,934	0,079	0,001
-465,386	-200,000	0,006	-0,073
-464,372	303,240	0,066	-0,090
-463,357	-41,922	0,052	-0,019
-462,343	-73,265	-0,039	0,010
-461,328	492,920	0,034	0,057
-460,313	189,473	-0,049	-0,053
-459,299	-10,518	-0,093	0,045
-458,284	43,085	0,075	-0,050
-457,270	114,318	-0,064	-0,057
-456,255	-200,000	-0,011	0,049
-455,241	-109,411	-0,040	0,006
-454,226	-200,000	0,003	-0,015
-453,211	36,611	0,038	0,024
-452,197	553,295	0,022	0,039
-451,182	-168,443	0,105	0,003
-450,168	151,057	0,086	-0,085
-449,153	-103,396	-0,026	0,004
-448,138	-200,000	0,011	0,111
-447,124	685,546	0,027	-0,051
-446,109	61,528	0,091	-0,066
-445,095	-0,135	0,082	-0,042
-444,080	-102,612	0,080	0,014
-443,065	-58,586	-0,052	0,016
-442,051	360,169	0,047	0,069
-441,036	-0,177	-0,156	0,081
-440,022	56,502	0,011	0,008
-439,007	-43,228	0,015	0,005
-437,992	-50,562	0,128	0,044
-436,978	-200,000	0,016	0,059
-435,963	800,000	-0,046	0,120
-434,949	-200,000	0,004	0,019
-433,934	-28,865	-0,062	0,026
-432,919	536,093	0,076	-0,132
-431,905	-3,277	-0,067	0,034
-430,890	-200,000	-0,030	-0,120
-429,876	-200,000	-0,007	0,072
-428,861	-200,000	0,020	0,081
-427,846	213,615	-0,124	0,143
-426,832	-200,000	0,003	0,059
-425,817	523,964	-0,060	-0,104
-424,803	-16,159	0,089	-0,041
-423,788	353,286	0,007	0,010
-422,773	-9,193	0,036	0,018
-421,759	524,555	0,068	0,117
-420,744	87,816	-0,047	0,038
-419,730	-200,000	0,005	0,025
-418,715	-120,178	0,121	-0,015
-417,701	147,268	-0,059	0,058
-416,686	-200,000	0,011	0,175
-415,671	-184,552	0,086	-0,001
-414,657	800,000	0,072	0,194
-413,642	110,578	0,079	0,069
-412,628	120,002	-0,035	-0,031
-411,613	-26,866	0,042	-0,018
-410,598	-92,613	-0,057	0,012
-409,584	-200,000	0,001	-0,036
-408,569	-10,122	0,059	0,028
-407,555	-100,877	0,122	-0,022
-406,540	800,000	0,024	-0,069
-405,525	594,674	-0,048	-0,086
-404,511	-200,000	-0,028	-0,092
-403,496	-200,000	-0,013	-0,060
-402,482	-60,184	-0,076	0,023
-401,467	133,383	0,047	0,044
-400,452	-42,002	-0,044	0,016
-399,438	800,000	-0,040	0,092
-398,423	-200,000	-0,015	-0,057
-397,409	-200,000	-0,001	0,024
-396,394	-56,632	0,096	-0,031
-395,379	-200,000	-0,033	0,110
-394,365	353,480	0,050	0,072
-393,350	-200,000	-0,003	0,150
-392,336	800,000	0,010	-0,029
-391,321	431,816	-0,030	0,047
-390,306	-200,000	0,003	0,022
-389,292	101,108	-0,132	0,112
-388,277	-124,437	0,084	-0,009
-387,263	784,082	0,016	-0,032
-386,248	800,000	0,038	-0,108
-385,233	-200,000	-0,006	0,033
-384,219	800,000	-0,050	0,152
-383,204	-73,704	-0,125	-0,033
-382,190	-116,892	-0,014	0,002
-381,175	-200,000	0,002	0,012
-380,160	-200,000	-0,015	-0,071
-379,146	149,048	0,084	0,082
-378,131	638,616	-0,042	-0,078
-377,117	209,904	0,029	0,033
-376,102	-17,296	0,029	-0,013
-375,088	333,305	0,075	-0,106
-374,073	800,000	0,054	-0,160
-373,058	120,454	-0,026	0,024
-372,044	-200,000	0,000	0,100
-371,029	-114,129	0,148	0,021
-370,015	-200,000	-0,021	-0,071
-369,000	127,036	-0,084	0,077
-367,985	800,000	-0,019	0,047
-366,971	107,657	0,042	0,036
-365,956	71,704	-0,045	-0,034
-364,942	36,914	-0,064	0,041
-363,927	619,238	0,085	0,156
-362,912	86,210	-0,087	-0,070
-361,898	-200,000	-0,066	0,225
-360,883	-200,000	-0,009	-0,090
-359,869	-200,000	-0,022	-0,108
-358,854	551,743	0,053	0,093
-357,839	162,473	-0,038	0,038
-356,825	-96,228	0,143	-0,027
-355,810	746,731	0,041	-0,080
-354,796	-45,790	-0,130	-0,046
-353,781	406,311	0,068	0,104
-352,766	-96,006	0,081	0,016
-351,752	-38,410	-0,186	0,071
-350,737	-200,000	0,018	0,104
-349,723	800,000	0,007	-0,015
-348,708	-200,000	-0,016	0,196
-347,693	-139,065	-0,101	-0,008
-346,679	275,842	-0,004	-0,006
-345,664	-104,124	-0,061	0,010
-344,650	800,000	0,045	0,092
-343,635	-200,000	-0,005	-0,036
-342,620	-96,623	0,049	-0,009
-341,606	-52,257	-0,130	0,043
-340,591	120,083	-0,117	0,105
-339,577	-200,000	-0,020	0,088
-338,562	-75,720	-0,019	-0,005
-337,548	394,066	-0,019	0,029
-336,533	-200,000	-0,017	0,059
-335,518	-200,000	-0,011	0,044
-334,504	-126,191	-0,058	0,006
-333,489	-200,000	0,012	0,042
-332,475	89,995	0,061	-0,049
-331,460	-36,562	-0,022	0,008
-330,445	235,919	0,090	-0,109
-329,431	800,000	0,060	-0,123
-328,416	-37,170	0,059	0,023
-327,402	457,610	0,042	-0,069
-326,387	-94,147	0,093	0,018
-325,372	102,666	-0,037	-0,032
-324,358	507,123	0,071	-0,121
-323,343	33,097	0,147	-0,092
-322,329	462,505	-0,026	-0,043
-321,314	153,621	0,070	-0,069
-320,299	293,670	0,042	-0,056
-319,285	-200,000	0,025	0,178
-318,270	-146,480	0,102	0,006
-317,256	10,906	0,045	-0,025
-316,241	88,667	0,072	-0,058
-315,226	-200,000	-0,036	-0,178
-314,212	-94,450	0,073	-0,014
-313,197	-76,617	0,037	-0,009
-312,183	-200,000	-0,022	-0,105
-311,168	-137,112	-0,085	0,007
-310,153	173,247	0,025	-0,026
-309,139	215,840	0,168	0,194
-308,124	-82,848	-0,066	-0,015
-307,110	20,411	-0,036	-0,021
-306,095	117,541	0,118	0,105
-305,080	-200,000	-0,013	-0,088
-304,066	143,501	0,083	-0,080
-303,051	-200,000	0,004	-0,053
-302,037	59,130	0,030	0,021
-301,022	-4,200	0,007	0,003
-300,008	-200,000	0,019	0,149
-298,993	800,000	0,049	0,149
-297,978	-48,564	-0,021	-0,007
-296,964	-200,000	0,002	-0,118
-295,949	149,173	-0,093	-0,092
-294,935	-76,689	-0,074	0,019
-293,920	100,617	0,060	0,050
-292,905	-19,232	0,098	-0,044
-291,891	284,677	0,093	0,122
-290,876	-109,959	0,019	0,003
-289,862	160,567	0,044	-0,044
-288,847	247,226	0,124	-0,152
-287,832	-200,000	-0,011	-0,060
-286,818	-85,509	0,044	0,010
-285,803	-22,819	0,116	-0,051
-284,789	32,455	0,075	-0,047
-283,774	-135,701	0,050	0,004
-282,759	800,000	-0,004	0,013
-281,745	789,002	-0,019	0,038
-280,730	774,435	0,057	0,112
-279,716	800,000	0,021	-0,052
-278,701	800,000	0,082	0,172
-277,686	464,796	0,055	0,089
-276,672	798,729	0,017	-0,034
-275,657	291,612	-0,085	-0,112
-274,643	422,826	-0,068	-0,106
-273,628	-200,000	-0,005	-0,022
-272,613	800,000	-0,102	-0,209
-271,599	-77,347	0,073	0,018
-270,584	136,276	0,057	0,054
-269,570	-37,662	0,125	0,048
-268,555	-128,008	-0,048	-0,005
-267,540	-200,000	-0,011	0,114
-266,526	-106,907	0,069	-0,011
-265,511	-80,453	0,114	0,027
-264,497	800,000	-0,045	0,093
-263,482	-60,568	0,173	0,053
-262,467	-200,000	0,000	0,050
-261,453	800,000	0,047	-0,102
-260,438	100,765	-0,100	0,084
-259,424	245,922	-0,054	-0,065
-258,409	74,627	-0,040	-0,030
-257,395	13,198	0,115	0,064
-256,380	-19,249	-0,067	0,030
-255,365	-81,272	0,092	0,022
-254,351	-200,000	-0,004	-0,079
-253,336	56,848	-0,127	-0,089
-252,322	84,096	-0,075	-0,059
-251,307	171,046	0,022	-0,023
-250,292	-200,000	-0,035	0,121
-249,278	-200,000	-0,008	-0,029
-248,263	-200,000	0,001	-0,079
-247,249	-29,887	0,091	-0,037
-246,234	-68,049	0,090	-0,025
-245,219	452,603	-0,012	0,019
-244,205	-92,254	-0,163	0,033
-243,190	-43,556	0,118	-0,043
-242,176	-97,834	0,060	0,011
-241,161	160,741	-0,003	0,003
-240,146	652,443	0,030	-0,057
-239,132	-200,000	0,018	0,076
-238,117	800,000	0,017	0,041
-237,103	134,631	0,156	-0,147
-236,088	800,000	-0,029	-0,086
-235,073	-200,000	0,004	0,080
-234,059	97,454	-0,134	0,111
-233,044	-17,495	0,036	0,016
-232,030	198,249	0,026	0,028
-231,015	-76,217	0,093	0,023
-230,000	794,785	-0,031	-0,061
-228,986	-59,601	-0,131	0,040
-227,971	800,000	0,056	0,159
-226,957	-57,703	0,076	0,024
-225,942	459,308	-0,050	0,080
-224,927	151,091	0,041	-0,040
-223,913	249,910	0,004	0,005
-222,898	506,438	-0,097	0,163
-221,884	438,346	-0,048	-0,076
-220,869	-66,449	-0,075	-0,021
-219,855	149,765	-0,022	0,022
-218,840	-200,000	0,000	-0,106
-217,825	-105,606	-0,033	-0,005
-216,811	-126,611	-0,135	-0,014
-215,796	-125,064	0,066	-0,007
-214,782	186,244	0,028	-0,030
-213,767	-127,456	0,106	0,011
-212,752	-138,624	-0,039	-0,003
-211,738	-117,839	-0,112	0,014
-210,723	63,487	-0,072	-0,052
-209,709	-200,000	0,028	-0,106
-208,694	121,450	-0,061	0,055
-207,679	71,680	-0,105	-0,079
-206,665	27,975	0,079	0,048
-205,650	32,290	0,123	-0,076
-204,636	141,792	-0,070	0,067
-203,621	-37,987	0,151	0,058
-202,606	124,169	-0,015	-0,013
-201,592	165,801	-0,126	0,129
-200,577	38,550	-0,071	-0,046
-199,563	800,000	0,084	-0,168
-198,548	-200,000	-0,011	-0,115
-197,533	219,725	-0,105	-0,121
-196,519	127,921	0,055	0,050
-195,504	671,108	-0,071	0,133
-194,490	-122,619	-0,086	0,010
-193,475	796,147	-0,009	-0,019
-192,460	311,793	-0,097	-0,132
-191,446	-13,369	0,091	0,043
-190,431	800,000	-0,050	-0,141
-189,417	-200,000	-0,013	-0,122
-188,402	267,945	-0,087	-0,111
-187,387	-200,000	0,009	0,050
-186,373	-200,000	0,040	-0,138
-185,358	-200,000	-0,018	-0,081
-184,344	-200,000	0,012	0,053
-183,329	14,835	0,055	-0,031
-182,315	-200,000	0,012	0,078
-181,300	-97,349	-0,084	0,016
-180,285	76,231	-0,043	-0,033
-179,271	164,982	0,025	0,025
-178,256	115,823	-0,088	0,078
-177,242	249,429	0,106	0,130
-176,227	6,910	0,060	0,032
-175,212	-51,945	-0,071	0,024
-174,198	133,393	0,034	-0,032
-173,183	-74,847	0,127	0,033
-172,169	77,795	0,028	-0,022
-171,154	552,257	-0,096	-0,166
-170,139	103,184	0,064	0,054
-169,125	253,513	-0,140	0,173
-168,110	-105,576	0,081	-0,013
-167,096	-200,000	0,004	0,063
-166,081	426,170	-0,074	-0,115
-165,066	-200,000	0,054	-0,241
-164,052	179,183	-0,028	-0,030
-163,037	-200,000	-0,005	0,024
-162,023	391,376	-0,018	-0,028
-161,008	209,219	0,074	0,084
-159,993	7,439	0,075	0,040
-158,979	-54,959	-0,017	0,006
-157,964	800,000	-0,035	-0,100
-156,950	507,550	-0,054	0,090
-155,935	800,000	-0,047	0,105
-154,920	41,399	0,098	0,064
-153,906	800,000	-0,033	0,084
-152,891	800,000	-0,032	-0,097
-151,877	105,017	0,080	-0,068
-150,862	555,302	0,079	-0,137
-149,847	-200,000	-0,002	0,009
-148,833	-58,384	0,085	0,027
-147,818	20,039	0,160	-0,092
-146,804	478,662	0,037	0,060
-145,789	-200,000	-0,007	-0,062
-144,775	-36,276	0,116	0,045
-143,760	-200,000	-0,010	-0,092
-142,745	312,235	-0,097	-0,131
-141,731	-200,000	0,001	0,061
-140,716	227,258	-0,116	-0,136
-139,702	-88,827	0,125	-0,027
-138,687	91,321	0,064	-0,052
-137,672	-121,760	-0,083	-0,010
-136,658	800,000	-0,054	0,161
-135,643	800,000	0,004	0,009
-134,629	13,578	-0,050	-0,028
-133,614	800,000	0,042	0,094
-132,599	355,044	0,037	0,052
-131,585	-200,000	-0,002	0,076
-130,570	-200,000	0,006	-0,087
-129,556	-26,302	-0,227	-0,096
-128,541	800,000	0,006	0,018
-127,526	800,000	0,054	0,125
-126,512	-47,706	0,016	-0,005
-125,497	145,354	-0,059	0,057
-124,483	800,000	-0,044	0,088
-123,468	84,886	-0,050	-0,040
-122,453	158,995	0,026	-0,026
-121,439	250,609	0,030	-0,036
-120,424	-27,208	-0,066	0,028
-119,410	800,000	0,062	0,181
-118,395	93,377	0,038	0,031
-117,380	-200,000	-0,023	0,108
-116,366	-200,000	0,011	0,071
-115,351	-42,873	-0,062	-0,022
-114,337	309,293	0,082	-0,111
-113,322	800,000	0,027	-0,071
-112,307	65,801	0,031	0,023
-111,293	52,813	0,054	0,037
-110,278	-17,318	-0,085	0,038
-109,264	488,015	0,056	-0,092
-108,249	-200,000	0,003	0,075
-107,234	-24,779	0,052	-0,022
-106,220	42,984	-0,088	-0,058
-105,205	339,248	-0,100	0,141
-104,191	322,756	0,095	0,131
-103,176	-200,000	0,036	-0,142
-102,162	-59,020	-0,072	-0,022
-101,147	-115,301	-0,092	0,012
-100,132	-18,347	0,081	-0,036
-99,118	-200,000	0,004	-0,082
-98,103	800,000	0,044	-0,105
-97,089	42,762	-0,104	0,068
-96,074	537,908	-0,028	0,048
-95,059	800,000	0,044	0,099
-94,045	144,401	-0,085	-0,082
-93,030	170,620	0,091	-0,094
-92,016	32,553	0,050	-0,031
-91,001	424,687	-0,056	0,087
-89,986	800,000	0,020	-0,042
-88,972	96,435	0,202	0,166
-87,957	-19,888	-0,069	0,030
-86,943	-200,000	0,001	-0,053
-85,928	580,810	-0,047	-0,083
-84,913	-200,000	-0,011	-0,037
-83,899	210,049	0,041	-0,046
-82,884	-90,774	0,156	-0,032
-81,870	-200,000	-0,014	0,096
-80,855	800,000	0,033	0,076
-79,840	-116,102	-0,148	0,020
-78,826	-133,801	-0,088	-0,008
-77,811	59,950	0,041	0,029
-76,797	800,000	0,018	0,043
-75,782	233,944	0,012	-0,014
-74,767	-190,430	0,069	0,001
-73,753	800,000	0,009	0,019
-72,738	169,519	-0,070	0,072
-71,724	281,293	0,076	-0,098
-70,709	-200,000	-0,030	-0,105
-69,694	21,022	0,078	0,045
-68,680	800,000	0,034	-0,080
-67,665	175,416	-0,012	-0,012
-66,651	-3,025	0,068	0,034
-65,636	-121,320	-0,014	0,002
-64,622	576,107	-0,011	0,019
-63,607	-200,000	0,004	-0,049
-62,592	-200,000	0,012	0,090
-61,578	-30,501	-0,116	-0,047
-60,563	-200,000	0,007	0,037
-59,549	-200,000	-0,027	0,135
-58,534	-18,319	-2,003	-0,895
-57,519	-200,000	-0,261	-0,958
-56,505	-200,000	-1,188	-4,979
-55,490	30,771	0,812	0,498
-54,476	800,000	5,373	12,160
-53,461	-200,000	17,505	284,394
-52,446	800,000	724,904	2221,789
-51,432	539,492	1640,835	2812,717
-50,417	110,863	1632,321	1409,533
-49,403	75,223	1286,203	972,312
-48,388	32,335	1027,862	635,397
-47,373	20,192	989,774	571,809
-46,359	18,621	977,949	559,804
-45,344	15,921	973,889	548,620
-44,330	16,112	972,280	548,317
-43,315	15,676	970,542	545,890
-42,300	15,649	969,302	545,082
-41,286	15,589	968,421	544,371
-40,271	15,620	967,436	543,896
-39,257	15,579	966,652	543,301
-38,242	15,652	965,755	543,012
-37,227	15,632	964,946	542,471
-36,213	15,611	963,859	541,772
-35,198	15,619	963,023	541,305
-34,184	15,632	962,490	541,025
-33,169	15,597	961,478	540,323
-32,154	15,674	960,486	539,991
-31,140	15,696	959,702	539,600
-30,125	15,685	959,015	539,156
-29,111	15,651	958,082	538,501
-28,096	15,613	957,468	538,013
-27,082	15,646	956,848	537,748
-26,067	15,678	955,941	537,321
-25,052	15,646	955,095	536,722
-24,038	15,610	954,487	536,244
-23,023	15,616	954,052	535,998
-22,009	15,624	953,465	535,672
-20,994	15,669	952,509	535,258
-19,979	15,578	952,103	534,717
-18,965	15,632	951,399	534,472
-17,950	15,640	950,709	534,088
-16,936	15,570	950,036	533,466
-15,921	15,563	949,493	533,119
-14,906	15,507	948,822	532,542
-13,892	15,538	948,026	532,172
-12,877	15,516	947,458	531,762
-11,863	15,495	946,870	531,346
-10,848	15,537	946,229	531,097
-9,833	15,603	945,905	531,103
-8,819	15,562	945,344	530,638
-7,804	15,554	944,643	530,197
-6,790	15,515	944,107	529,751
-5,775	15,614	943,486	529,698
-4,760	15,564	942,789	529,127
-3,746	15,565	942,133	528,740
-2,731	15,466	941,495	528,048
-1,717	15,388	940,841	527,413
-0,702	15,379	940,188	526,999
0,313	15,185	939,680	526,895
1,327	18,370	937,336	535,570
2,342	27,222	794,790	477,585
3,356	24,097	459,285	271,178
4,371	-2,736	314,396	157,122
5,386	-6,583	296,192	144,120
6,400	-8,567	290,201	139,223
7,415	-9,261	287,856	137,403
8,429	-9,110	286,040	136,672
9,444	-9,444	285,380	136,018
10,459	-9,313	284,504	135,716
11,473	-9,379	284,030	135,413
12,488	-9,255	283,603	135,318
13,502	-9,381	283,009	134,901
14,517	-9,269	282,606	134,805
15,531	-9,493	282,096	134,334
16,546	-9,393	281,586	134,175
17,561	-9,564	281,275	133,850
18,575	-9,474	281,030	133,808
19,590	-9,581	280,517	133,449
20,604	-9,408	280,216	133,460
21,619	-9,488	279,874	133,209
22,634	-9,483	279,561	133,052
23,648	-9,612	279,220	132,755
24,663	-9,589	279,086	132,702
25,677	-9,416	278,687	132,665
26,692	-9,329	278,449	132,622
27,707	-9,518	278,266	132,343
28,721	-9,653	277,883	132,022
29,736	-9,438	277,613	132,085
30,750	-9,537	277,413	131,885
31,765	-9,674	277,195	131,640
32,780	-9,599	276,940	131,578
33,794	-9,577	276,593	131,422
34,809	-9,444	276,247	131,372
35,823	-9,480	276,032	131,224
36,838	-9,684	275,954	130,982
37,853	-9,544	275,645	130,956
38,867	-9,626	275,465	130,782
39,882	-9,693	275,202	130,583
40,896	-9,468	274,848	130,614
41,911	-9,542	274,653	130,440
42,926	-9,645	274,433	130,228
43,940	-9,605	274,247	130,165
44,955	-9,704	273,996	129,942
45,969	-9,702	273,682	129,783
46,984	-9,806	273,496	129,586
47,999	-10,069	273,161	129,172
49,013	-10,239	272,948	128,901
50,028	-10,362	272,592	128,606
51,042	-10,539	272,364	128,324
52,057	-10,409	272,082	128,300
53,071	-10,247	271,921	128,362
54,086	-10,142	271,711	128,349
55,101	-10,077	271,695	128,390
56,115	-9,916	271,620	128,492
57,130	-9,407	271,289	128,795
58,144	-9,481	271,129	128,639
59,159	-9,371	271,028	128,682
60,174	-9,280	270,784	128,638
61,188	-9,354	270,463	128,406
62,203	-9,379	270,325	128,305
63,217	-9,483	269,850	127,973
64,232	-9,300	269,734	128,075
65,247	-9,382	269,739	127,991
66,261	-9,358	269,228	127,758
67,276	-9,723	269,200	127,400
68,290	-9,847	268,804	127,088
69,305	-9,856	268,609	126,975
70,320	-9,755	268,274	126,898
71,334	-9,602	268,376	127,075
72,349	-9,364	268,139	127,168
73,363	-9,469	267,865	126,931
74,378	-9,324	267,572	126,913
75,393	-9,239	267,440	126,917
76,407	-9,343	267,216	126,704
77,422	-9,372	266,946	126,539
78,436	-9,420	266,734	126,383
79,451	-9,359	266,609	126,368
80,466	-9,331	266,256	126,215
81,480	-9,529	266,025	125,915
82,495	-9,600	265,899	125,780
83,509	-9,537	265,747	125,754
84,524	-9,606	265,568	125,595
85,539	-9,631	265,144	125,361
86,553	-9,815	265,006	125,119
87,568	-9,886	264,867	124,979
88,582	-9,610	264,756	125,164
89,597	-9,607	264,432	125,002
90,611	-9,436	264,236	125,051
91,626	-9,505	264,247	124,984
92,641	-9,564	263,912	124,762
93,655	-9,484	263,775	124,757
94,670	-9,639	263,447	124,452
95,684	-9,573	263,307	124,433
96,699	-9,447	263,226	124,497
97,714	-9,633	262,954	124,191
98,728	-9,572	262,621	124,078
99,743	-9,717	262,460	123,860
100,757	-9,898	262,167	123,551
101,772	-9,704	262,004	123,635
102,787	-9,607	261,943	123,681
103,801	-9,662	261,770	123,540
104,816	-9,450	261,419	123,551
105,830	-9,410	261,341	123,539
106,845	-9,526	261,242	123,378
107,860	-9,406	260,948	123,335
108,874	-9,616	260,783	123,060
109,889	-9,572	260,530	122,969
110,903	-9,531	260,316	122,893
111,918	-9,456	260,087	122,840
112,933	-9,489	259,905	122,714
113,947	-9,258	259,619	122,772
114,962	-9,467	259,588	122,562
115,976	-9,404	259,319	122,479
116,991	-9,507	259,151	122,298
118,006	-9,544	259,019	122,193
119,020	-9,451	258,906	122,210
120,035	-9,410	258,774	122,173
121,049	-9,353	258,556	122,109
122,064	-9,402	258,380	121,972
123,079	-9,408	257,994	121,774
124,093	-9,324	257,741	121,716
125,108	-9,593	257,797	121,497
126,122	-9,675	257,345	121,202
127,137	-10,031	257,142	120,786
128,151	-9,864	257,018	120,862
129,166	-9,552	256,868	121,052
130,181	-9,736	256,577	120,744
131,195	-9,823	256,515	120,629
132,210	-9,613	256,284	120,692
133,224	-9,444	256,171	120,774
134,239	-9,328	256,072	120,818
135,254	-9,438	255,824	120,594
136,268	-9,687	255,677	120,298
137,283	-9,763	255,217	120,006
138,297	-9,996	254,948	119,668
139,312	-9,840	254,837	119,739
140,327	-9,606	254,840	119,932
141,341	-9,400	254,767	120,064
142,356	-9,362	254,543	119,981
143,370	-9,425	254,392	119,845
144,385	-9,093	254,199	120,029
145,400	-9,219	253,990	119,811
146,414	-9,515	253,905	119,506
147,429	-9,299	253,557	119,517
148,443	-9,292	253,506	119,488
149,458	-9,130	253,416	119,574
150,473	-9,333	253,088	119,234
151,487	-9,324	252,789	119,091
152,502	-9,142	252,615	119,153
153,516	-9,372	252,561	118,921
154,531	-9,387	252,335	118,792
155,546	-9,207	252,148	118,846
156,560	-9,196	252,031	118,790
157,575	-9,245	251,685	118,574
158,589	-9,275	251,565	118,482
159,604	-9,144	251,438	118,522
160,619	-9,277	251,245	118,308
161,633	-9,428	251,119	118,111
162,648	-9,199	250,972	118,225
163,662	-9,324	250,826	118,040
164,677	-9,278	250,603	117,963
165,692	-9,168	250,407	117,953
166,706	-9,196	250,341	117,888
167,721	-9,249	250,037	117,690
168,735	-9,272	249,953	117,621
169,750	-9,150	249,829	117,654
170,764	-9,013	249,584	117,644
171,779	-9,092	249,658	117,601
172,794	-9,084	249,299	117,428
173,808	-9,068	249,052	117,315
174,823	-9,498	248,727	116,791
175,837	-9,757	248,690	116,546
176,852	-9,501	248,697	116,753
177,867	-9,177	248,478	116,912
178,881	-9,025	248,264	116,928
179,896	-9,145	248,109	116,744
180,910	-9,065	247,859	116,682
181,925	-9,044	247,644	116,589
182,940	-9,070	247,602	116,537
183,954	-9,232	247,482	116,335
184,969	-9,338	247,429	116,211
185,983	-9,154	247,166	116,231
186,998	-9,153	247,041	116,163
188,013	-9,074	246,841	116,124
189,027	-9,033	246,518	115,996
190,042	-9,085	246,327	115,852
191,056	-9,147	246,231	115,745
192,071	-9,016	246,148	115,804
193,086	-9,177	246,017	115,599
194,100	-8,696	245,701	115,838
195,115	-8,987	245,646	115,561
196,129	-8,890	245,326	115,480
197,144	-9,069	245,127	115,228
198,159	-9,237	244,959	115,001
199,173	-9,160	244,825	114,991
200,188	-8,993	244,639	115,032
201,202	-9,172	244,456	114,788
202,217	-9,726	244,042	114,128
203,232	-9,763	243,921	114,031
204,246	-9,134	244,022	114,584
205,261	-8,558	243,960	115,017
206,275	-9,305	243,505	114,181
207,290	-6,058	244,911	117,502
208,304	0,624	247,077	124,063
209,319	3,700	247,811	126,966
210,334	4,083	247,782	127,257
211,348	4,307	247,582	127,328
212,363	4,539	247,513	127,473
213,377	4,672	247,326	127,475
214,392	4,479	247,303	127,293
215,407	4,286	247,133	127,035
216,421	4,361	246,980	127,007
217,436	4,562	246,688	127,010
218,450	4,730	246,688	127,136
219,465	4,585	246,443	126,880
220,480	4,272	246,183	126,478
221,494	4,136	246,155	126,340
222,509	4,166	245,837	126,191
223,523	4,044	245,737	126,029
224,538	3,932	245,278	125,690
225,553	3,943	245,316	125,707
226,567	3,950	245,251	125,669
227,582	4,165	245,109	125,760
228,596	4,046	244,985	125,588
229,611	4,002	244,702	125,396
230,626	3,777	244,494	125,095
231,640	3,879	244,310	125,073
232,655	3,965	244,302	125,128
233,669	3,822	243,896	124,792
234,684	3,653	243,892	124,642
235,699	4,271	243,735	125,052
236,713	4,231	243,716	124,999
237,728	3,957	243,482	124,645
238,742	3,714	243,122	124,254
239,757	3,749	242,993	124,205
240,772	3,794	242,837	124,150
241,786	3,892	242,828	124,214
242,801	3,684	242,567	123,902
243,815	3,916	242,314	123,949
244,830	3,951	242,414	124,016
245,844	3,992	242,140	123,898
246,859	3,839	241,989	123,687
247,874	4,002	241,815	123,718
248,888	3,851	241,706	123,530
249,903	3,841	241,541	123,427
250,917	4,150	241,301	123,541
251,932	4,282	241,344	123,657
252,947	4,464	240,951	123,591
253,961	3,913	240,718	123,020
254,976	3,949	240,819	123,089
255,990	4,045	240,626	123,056
257,005	4,022	240,352	122,887
258,020	3,718	240,191	122,551
259,034	3,814	239,972	122,505
260,049	3,935	239,993	122,601
261,063	3,969	239,626	122,430
262,078	3,978	239,621	122,423
263,093	4,044	239,520	122,413
264,107	3,903	239,409	122,233
265,122	3,939	239,188	122,138
266,136	3,942	239,104	122,087
267,151	4,146	238,994	122,182
268,166	3,965	238,645	121,849
269,180	3,858	238,511	121,685
270,195	4,081	238,655	121,924
271,209	4,643	238,451	122,254
272,224	4,012	238,173	121,602
273,239	3,837	237,820	121,273
274,253	3,699	237,828	121,157
275,268	3,866	237,737	121,231
276,282	3,959	237,541	121,194
277,297	3,734	237,247	120,856
278,312	3,716	237,162	120,788
279,326	3,966	237,093	120,938
280,341	4,036	236,936	120,903
281,355	3,907	236,705	120,672
282,370	3,962	236,763	120,735
283,384	3,835	236,484	120,482
284,399	3,775	236,263	120,312
285,414	3,609	236,097	120,087
286,428	3,886	235,892	120,188
287,443	4,055	235,760	120,242
288,457	4,047	235,687	120,188
289,472	4,213	235,588	120,256
290,487	4,057	235,304	119,979
291,501	4,017	235,138	119,853
292,516	3,644	234,922	119,442
293,530	3,663	234,764	119,365
294,545	3,977	234,794	119,614
295,560	3,932	234,634	119,487
296,574	3,772	234,435	119,251
297,589	3,801	234,377	119,233
298,603	4,169	234,280	119,459
299,618	4,150	234,082	119,332
300,633	4,147	233,978	119,267
301,647	4,000	233,929	119,117
302,662	4,455	233,788	119,387
303,676	4,288	233,715	119,209
304,691	4,257	233,405	119,017
305,706	4,432	233,312	119,094
306,720	4,327	233,159	118,924
307,735	4,157	232,870	118,635
308,749	4,177	232,711	118,559
309,764	4,008	232,412	118,266
310,779	3,898	232,286	118,107
311,793	3,859	232,077	117,960
312,808	3,846	231,884	117,842
313,822	3,593	231,797	117,594
314,837	3,812	231,656	117,678
315,852	3,601	231,631	117,494
316,866	4,029	231,402	117,695
317,881	4,023	231,496	117,727
318,895	3,980	231,268	117,568
319,910	4,150	231,135	117,620
320,925	3,955	230,976	117,379
321,939	4,046	230,794	117,346
322,954	4,174	230,652	117,361
323,968	3,946	230,499	117,099
324,983	3,788	230,385	116,911
325,997	3,736	230,014	116,672
327,012	4,025	230,091	116,921
328,027	4,297	229,888	117,013
329,041	4,424	229,839	117,074
330,056	4,827	229,908	117,405
331,070	4,701	229,881	117,285
332,085	4,196	229,455	116,675
333,100	4,051	229,199	116,424
334,114	4,202	229,127	116,492
335,129	4,586	228,995	116,705
336,143	4,599	228,874	116,642
337,158	4,482	228,670	116,439
338,173	4,237	228,568	116,192
339,187	4,331	228,266	116,099
340,202	4,146	228,372	116,004
341,216	4,246	228,112	115,936
342,231	4,053	227,885	115,666
343,246	3,971	227,739	115,520
344,260	4,214	227,756	115,700
345,275	4,456	227,609	115,797
346,289	4,587	227,429	115,793
347,304	4,364	227,303	115,552
348,319	4,428	227,231	115,553
349,333	4,315	227,006	115,344
350,348	4,132	226,804	115,094
351,362	4,185	226,743	115,092
352,377	4,081	226,465	114,864
353,392	3,884	226,295	114,620
354,406	4,024	226,174	114,653
355,421	195,770	1319,047	1396,364
356,435	156,954	1452,188	1396,364
