DTS Sentinel unit serial number:	SN410029Multiplexer serial number:	ORYXHardware model number:	OX2-SRSoftware version number:	ORYX F/W v4,00 Oryx Data Collector v3.7.2.0data status	okinstallation	B5 Nyhavnadifferential loss correction	single-endedforward channel	channel 2reverse channel	N/Adate	2023/12/11time	21:32:13forward acquisition time	300,00reverse acquisition time	0,00gamma	499,1914k internal	0,3157k external	0,3157temperature offset calibration	1,0000default loss term (dB/km)	0,3820temperature slope calibration	1,0000multiplexer offset coefficient	1,0000multiplexer slope coefficient	1,0000fibre end	0,00T internal ref (°C)	16,25T ext. ref 1 (°C)	0,17T ext. ref 2 (°C)	-0,06length (m)	temperature (°C)	Stokes	anti-Stokes-744,400	-200,000	-0,010	0,091
-743,385	-116,413	-0,203	-0,027
-742,371	366,797	-0,010	0,015
-741,356	-108,193	-0,247	-0,039
-740,342	-200,000	0,013	0,196
-739,327	-165,387	-0,379	0,012
-738,312	52,470	0,107	0,075
-737,298	-104,793	-0,225	0,038
-736,283	-58,940	0,143	0,045
-735,269	-149,080	-0,207	-0,012
-734,254	800,000	0,017	-0,046
-733,239	-8,839	-0,424	-0,209
-732,225	-23,285	0,223	-0,098
-731,210	11,259	-0,110	-0,062
-730,196	6,109	0,030	-0,017
-729,181	231,762	-0,046	-0,056
-728,167	170,162	-0,042	0,044
-727,152	223,416	0,051	0,060
-726,137	-132,286	-0,184	-0,017
-725,123	-2,758	-0,076	0,039
-724,108	-200,000	0,008	-0,142
-723,094	-200,000	0,006	-0,086
-722,079	74,215	0,014	0,011
-721,064	-200,000	-0,002	0,042
-720,050	283,964	0,016	0,021
-719,035	18,406	-0,092	0,054
-718,021	312,749	-0,043	-0,060
-717,006	95,236	-0,103	0,086
-715,991	282,738	-0,034	-0,045
-714,977	123,990	-0,106	-0,098
-713,962	800,000	-0,040	0,120
-712,948	200,786	-0,030	0,034
-711,933	61,443	0,059	-0,043
-710,918	448,646	-0,037	-0,060
-709,904	158,696	-0,121	-0,124
-708,889	222,827	-0,048	-0,058
-707,875	-151,368	-0,105	0,006
-706,860	15,006	0,055	-0,031
-705,845	800,000	-0,018	0,052
-704,831	301,729	0,063	0,086
-703,816	-117,502	0,137	0,018
-702,802	-57,778	-0,098	-0,031
-701,787	800,000	0,015	0,044
-700,772	-15,337	-0,036	0,017
-699,758	-38,105	-0,059	0,023
-698,743	-93,173	-0,062	0,013
-697,729	-200,000	0,003	0,134
-696,714	800,000	-0,054	0,127
-695,699	26,952	0,065	-0,040
-694,685	-200,000	0,007	-0,078
-693,670	514,238	-0,030	0,052
-692,656	-50,347	-0,087	0,030
-691,641	43,724	-0,057	0,038
-690,627	-134,873	0,081	0,007
-689,612	-200,000	0,005	0,154
-688,597	2,410	0,064	0,034
-687,583	60,709	0,045	0,033
-686,568	-37,649	-0,128	-0,050
-685,554	-200,000	-0,005	0,020
-684,539	-10,390	-0,139	0,068
-683,524	61,714	0,045	-0,033
-682,510	-200,000	-0,001	-0,064
-681,495	-151,642	0,003	0,000
-680,481	272,795	-0,074	-0,096
-679,466	35,660	-0,122	-0,079
-678,451	-9,216	0,114	-0,056
-677,437	478,686	0,052	0,087
-676,422	-86,618	-0,118	0,026
-675,408	644,651	0,014	-0,027
-674,393	-200,000	0,006	-0,029
-673,378	-19,983	0,013	-0,006
-672,364	-200,000	-0,001	-0,071
-671,349	143,553	-0,068	-0,066
-670,335	-58,302	-0,091	0,029
-669,320	-200,000	-0,010	0,133
-668,305	271,018	-0,074	0,096
-667,291	-70,490	-0,059	0,016
-666,276	-200,000	0,002	0,091
-665,262	-66,658	-0,092	0,027
-664,247	55,430	-0,121	0,086
-663,232	-200,000	0,014	-0,049
-662,218	800,000	-0,008	0,017
-661,203	800,000	0,051	0,117
-660,189	-200,000	-0,017	-0,104
-659,174	26,783	-0,065	-0,040
-658,159	-200,000	-0,005	-0,088
-657,145	-195,219	0,069	0,000
-656,130	-200,000	-0,021	-0,081
-655,116	231,261	-0,004	-0,005
-654,101	53,804	-0,080	-0,056
-653,086	103,664	-0,043	-0,037
-652,072	-18,791	-0,032	0,014
-651,057	-200,000	-0,001	0,055
-650,043	-200,000	0,007	-0,091
-649,028	-200,000	-0,011	0,053
-648,014	-7,632	0,119	-0,059
-646,999	800,000	0,046	-0,099
-645,984	-76,553	-0,082	0,021
-644,970	-151,789	-0,125	0,007
-643,955	-200,000	-0,016	-0,135
-642,941	176,680	0,031	-0,033
-641,926	-200,000	0,016	0,094
-640,911	252,273	0,101	-0,126
-639,897	157,857	0,055	0,056
-638,882	-200,000	0,012	-0,080
-637,868	68,193	-0,079	0,059
-636,853	800,000	0,042	-0,105
-635,838	126,042	-0,097	-0,090
-634,824	188,585	-0,074	0,081
-633,809	-200,000	0,019	0,085
-632,795	83,853	-0,083	-0,066
-631,780	-200,000	0,016	0,057
-630,765	-37,417	-0,144	-0,056
-629,751	564,107	-0,015	-0,026
-628,736	-44,996	-0,061	0,022
-627,722	-101,210	0,020	-0,004
-626,707	-200,000	-0,023	0,147
-625,692	765,581	-0,030	-0,060
-624,678	-200,000	-0,002	-0,068
-623,663	-200,000	0,002	0,099
-622,649	-200,000	0,014	-0,108
-621,634	31,467	-0,074	-0,046
-620,619	-200,000	-0,002	0,104
-619,605	800,000	-0,046	0,113
-618,590	701,132	-0,040	-0,077
-617,576	300,704	0,041	0,056
-616,561	800,000	0,015	0,032
-615,546	-27,189	-0,065	-0,028
-614,532	394,049	0,088	-0,136
-613,517	-200,000	0,003	-0,091
-612,503	-200,000	0,013	-0,125
-611,488	800,000	0,019	0,055
-610,474	-200,000	-0,011	0,056
-609,459	800,000	-0,012	0,037
-608,444	-65,735	0,045	-0,013
-607,430	-200,000	-0,008	0,137
-606,415	21,753	0,052	0,031
-605,401	-200,000	-0,002	0,038
-604,386	-130,608	0,092	0,009
-603,371	-134,073	-0,081	-0,007
-602,357	185,999	0,062	0,067
-601,342	-121,979	0,090	-0,011
-600,328	583,473	-0,072	-0,131
-599,313	88,373	0,079	-0,065
-598,298	581,239	0,007	-0,012
-597,284	90,996	0,098	0,081
-596,269	98,939	-0,087	0,074
-595,255	800,000	0,061	0,152
-594,240	-90,830	-0,064	0,013
-593,225	322,226	-0,096	0,135
-592,211	-110,626	-0,176	0,026
-591,196	171,297	-0,069	0,073
-590,182	307,568	-0,050	0,068
-589,167	-71,746	-0,085	0,023
-588,152	-200,000	-0,014	0,087
-587,138	-63,211	0,068	-0,020
-586,123	800,000	0,024	-0,069
-585,109	-200,000	0,021	-0,092
-584,094	-200,000	0,081	0,000
-583,079	14,526	0,163	-0,093
-582,065	800,000	-0,018	0,050
-581,050	171,772	-0,018	0,019
-580,036	-121,210	0,053	-0,006
-579,021	-200,000	-0,006	-0,086
-578,006	363,641	0,009	0,014
-576,992	800,000	-0,056	-0,135
-575,977	-200,000	-0,023	-0,188
-574,963	-33,951	0,093	-0,037
-573,948	135,671	-0,105	-0,100
-572,934	30,976	0,078	-0,049
-571,919	-85,791	0,064	-0,014
-570,904	800,000	0,045	-0,132
-569,890	800,000	0,046	0,124
-568,875	-166,758	0,076	-0,002
-567,861	-200,000	0,001	0,070
-566,846	-158,802	0,068	-0,003
-565,831	-200,000	-0,003	-0,052
-564,817	800,000	0,056	0,119
-563,802	572,216	-0,012	0,021
-562,788	433,529	-0,090	-0,144
-561,773	4,338	0,108	-0,058
-560,758	369,567	-0,056	0,084
-559,744	-128,454	0,051	0,005
-558,729	-2,559	-0,158	0,081
-557,715	239,928	-0,068	-0,084
-556,700	-83,732	-0,068	-0,016
-555,685	800,000	0,025	-0,060
-554,671	-41,230	0,071	0,027
-553,656	-43,579	-0,103	0,038
-552,642	-41,560	-0,037	0,014
-551,627	-100,958	0,057	0,010
-550,612	800,000	-0,011	0,026
-549,598	-200,000	-0,025	-0,140
-548,583	800,000	-0,076	-0,174
-547,569	622,877	-0,016	0,029
-546,554	-200,000	0,016	0,068
-545,539	-200,000	-0,037	0,141
-544,525	800,000	-0,023	-0,066
-543,510	7,630	-0,168	-0,092
-542,496	607,972	0,036	0,066
-541,481	410,763	0,074	0,115
-540,466	24,594	0,063	-0,038
-539,452	-200,000	-0,021	-0,084
-538,437	111,669	-0,114	0,101
-537,423	-200,000	0,000	0,170
-536,408	44,096	0,038	-0,025
-535,393	-200,000	-0,005	-0,020
-534,379	678,635	0,064	-0,123
-533,364	-200,000	-0,042	-0,161
-532,350	-200,000	-0,013	-0,043
-531,335	-200,000	-0,016	-0,060
-530,321	140,658	-0,072	-0,070
-529,306	722,269	0,005	-0,011
-528,291	-35,406	0,054	-0,021
-527,277	-200,000	-0,022	-0,072
-526,262	167,163	0,042	-0,043
-525,248	-138,518	0,074	-0,006
-524,233	-200,000	0,038	-0,124
-523,218	125,261	0,041	0,038
-522,204	65,032	-0,182	-0,134
-521,189	-200,000	0,017	0,056
-520,175	-200,000	-0,025	-0,136
-519,160	-75,512	0,006	0,002
-518,145	-118,735	0,041	-0,005
-517,131	180,628	0,033	-0,035
-516,116	-75,738	0,104	-0,027
-515,102	-200,000	-0,037	0,133
-514,087	59,139	-0,113	-0,081
-513,072	-94,569	-0,151	0,030
-512,058	-200,000	-0,001	-0,033
-511,043	-156,253	0,102	0,005
-510,029	-200,000	-0,001	0,151
-509,014	-200,000	-0,001	-0,029
-507,999	247,363	-0,065	-0,080
-506,985	800,000	0,021	0,047
-505,970	-200,000	0,007	0,067
-504,956	673,454	0,044	0,084
-503,941	1,130	-0,053	-0,028
-502,926	282,419	0,042	-0,055
-501,912	-200,000	0,021	0,078
-500,897	171,370	-0,073	-0,077
-499,883	69,719	0,079	-0,060
-498,868	-200,000	0,007	-0,109
-497,853	142,899	-0,123	-0,120
-496,839	432,378	0,046	-0,073
-495,824	71,057	0,083	-0,063
-494,810	-73,992	-0,025	-0,007
-493,795	-56,932	0,020	-0,006
-492,781	677,677	0,048	-0,092
-491,766	800,000	-0,027	0,065
-490,751	800,000	0,020	-0,051
-489,737	-200,000	-0,001	-0,116
-488,722	572,432	0,029	-0,053
-487,708	155,360	-0,036	0,036
-486,693	-91,220	-0,023	-0,005
-485,678	-200,000	-0,026	0,150
-484,664	-200,000	0,023	-0,110
-483,649	199,254	-0,104	-0,116
-482,635	233,436	0,018	0,022
-481,620	493,474	0,041	0,069
-480,605	-200,000	0,002	-0,012
-479,591	-83,030	-0,134	-0,031
-478,576	139,004	0,101	-0,096
-477,562	318,667	-0,082	-0,114
-476,547	504,472	-0,050	0,085
-475,532	36,266	-0,069	-0,044
-474,518	-179,911	0,109	0,002
-473,503	288,471	-0,057	-0,076
-472,489	-200,000	0,031	0,215
-471,474	0,234	0,088	-0,046
-470,459	74,467	-0,091	-0,070
-469,445	800,000	-0,017	0,052
-468,430	121,825	-0,086	-0,078
-467,416	-36,972	0,097	0,038
-466,401	300,506	-0,023	-0,031
-465,386	40,644	0,069	0,045
-464,372	100,228	0,030	-0,025
-463,357	90,782	0,040	0,033
-462,343	800,000	-0,016	-0,038
-461,328	-200,000	0,004	-0,110
-460,313	-14,696	-0,062	-0,029
-459,299	-200,000	0,002	0,085
-458,284	674,373	0,018	-0,034
-457,270	-28,740	0,111	-0,046
-456,255	4,972	-0,155	0,083
-455,241	100,879	-0,094	-0,080
-454,226	285,055	-0,096	-0,126
-453,211	800,000	0,031	0,079
-452,197	204,362	-0,075	-0,085
-451,182	-59,665	-0,104	0,032
-450,168	86,338	-0,070	-0,056
-449,153	-24,371	0,022	0,010
-448,138	-11,827	-0,087	-0,042
-447,124	400,459	0,090	-0,137
-446,109	133,768	-0,086	0,081
-445,095	16,880	0,121	-0,069
-444,080	126,156	-0,172	0,159
-443,065	202,320	0,051	0,057
-442,051	8,682	0,023	-0,013
-441,036	120,691	0,067	0,061
-440,022	-32,575	0,070	-0,028
-439,007	172,047	0,112	-0,117
-437,992	800,000	-0,060	0,173
-436,978	582,134	-0,006	-0,011
-435,963	-200,000	0,005	0,111
-434,949	-200,000	0,008	-0,097
-433,934	-200,000	0,004	0,090
-432,919	-200,000	-0,002	-0,057
-431,905	-200,000	-0,015	-0,126
-430,890	338,805	0,029	0,042
-429,876	128,259	-0,093	0,087
-428,861	-38,715	-0,108	-0,041
-427,846	16,138	-0,125	-0,072
-426,832	163,653	0,064	-0,065
-425,817	521,590	0,069	-0,118
-424,803	147,416	-0,059	0,058
-423,788	-134,441	0,163	-0,014
-422,773	800,000	0,012	-0,037
-421,759	8,550	0,128	-0,070
-420,744	304,924	-0,061	0,083
-419,730	129,874	0,042	0,039
-418,715	10,440	-0,156	0,086
-417,701	-200,000	-0,013	-0,053
-416,686	85,332	0,028	-0,023
-415,671	-79,295	-0,103	-0,025
-414,657	230,774	-0,048	0,058
-413,642	-200,000	-0,016	0,064
-412,628	-200,000	-0,018	-0,063
-411,613	-147,444	0,092	-0,006
-410,598	440,220	-0,050	-0,080
-409,584	298,890	-0,042	-0,057
-408,569	-102,653	0,028	-0,005
-407,555	-84,687	0,059	-0,013
-406,540	-200,000	0,012	0,129
-405,525	174,325	-0,042	-0,044
-404,511	168,253	-0,031	-0,032
-403,496	-107,493	-0,123	0,019
-402,482	-133,820	0,139	-0,012
-401,467	-200,000	0,004	0,061
-400,452	-200,000	0,005	0,095
-399,438	800,000	-0,027	0,083
-398,423	728,205	-0,019	-0,038
-397,409	-148,964	0,064	0,004
-396,394	369,670	-0,040	0,059
-395,379	-122,832	-0,117	0,014
-394,365	-111,530	0,103	0,015
-393,350	800,000	0,024	0,056
-392,336	-200,000	0,002	0,079
-391,321	-200,000	0,021	0,122
-390,306	177,333	0,018	-0,019
-389,292	-122,898	-0,094	0,011
-388,277	328,090	0,045	0,063
-387,263	-200,000	0,004	-0,071
-386,248	800,000	0,049	-0,125
-385,233	-33,352	0,047	-0,019
-384,219	-59,594	0,075	0,023
-383,204	-200,000	0,001	0,085
-382,190	-200,000	0,035	-0,183
-381,175	-75,532	0,103	0,027
-380,160	800,000	0,057	0,162
-379,146	-15,305	0,067	0,031
-378,131	800,000	-0,042	0,088
-377,117	101,220	-0,064	-0,054
-376,102	552,924	-0,091	0,159
-375,088	-73,321	-0,141	-0,037
-374,073	48,387	-0,053	0,036
-373,058	95,976	0,110	0,091
-372,044	-78,729	-0,064	-0,016
-371,029	-200,000	0,003	-0,027
-370,015	232,855	0,113	-0,135
-369,000	61,006	0,114	-0,082
-367,985	-200,000	-0,001	0,021
-366,971	32,435	0,074	-0,047
-365,956	390,538	0,014	0,021
-364,942	104,708	0,083	0,071
-363,927	800,000	-0,014	0,033
-362,912	-200,000	-0,005	-0,018
-361,898	-183,436	-0,080	0,001
-360,883	452,977	0,017	-0,028
-359,869	-31,649	-0,095	0,038
-358,854	-200,000	0,033	0,204
-357,839	800,000	0,042	-0,113
-356,825	-200,000	-0,022	-0,117
-355,810	800,000	0,031	-0,094
-354,796	-91,018	-0,146	-0,030
-353,781	-20,488	-0,063	0,028
-352,766	76,346	0,091	0,070
-351,752	800,000	-0,035	-0,096
-350,737	800,000	-0,035	0,083
-349,723	-92,963	0,063	-0,013
-348,708	49,411	0,078	0,053
-347,693	-74,178	-0,043	0,011
-346,679	348,388	-0,076	-0,109
-345,664	-200,000	0,017	-0,057
-344,650	800,000	0,055	0,110
-343,635	-200,000	0,006	0,108
-342,620	-91,345	-0,059	-0,012
-341,606	-200,000	-0,003	-0,033
-340,591	-200,000	-0,003	0,035
-339,577	-200,000	0,016	-0,056
-338,562	-200,000	-0,014	-0,188
-337,548	611,336	-0,104	0,189
-336,533	-200,000	0,008	-0,040
-335,518	-72,571	0,072	-0,019
-334,504	-200,000	-0,025	0,082
-333,489	-6,524	0,018	0,009
-332,475	-26,391	0,083	-0,035
-331,460	284,284	-0,029	0,037
-330,445	-200,000	0,016	0,107
-329,431	476,005	-0,029	-0,047
-328,416	-200,000	-0,019	0,129
-327,402	-2,869	-0,102	0,052
-326,387	-185,899	0,118	0,001
-325,372	-94,362	-0,127	0,025
-324,358	800,000	-0,050	-0,121
-323,343	278,010	0,061	-0,079
-322,329	234,635	0,009	-0,011
-321,314	230,597	0,081	0,097
-320,299	462,675	0,116	0,189
-319,285	9,901	-0,039	0,021
-318,270	252,285	-0,086	0,107
-317,256	-200,000	-0,003	0,075
-316,241	-32,954	0,095	0,038
-315,226	-125,593	0,066	0,007
-314,212	470,000	-0,042	0,069
-313,197	246,124	0,087	0,107
-312,183	800,000	-0,025	0,068
-311,168	-97,311	-0,065	0,012
-310,153	-1,240	-0,087	-0,044
-309,139	236,335	0,024	-0,028
-308,124	-200,000	-0,022	-0,127
-307,110	-52,973	-0,059	-0,020
-306,095	-200,000	-0,029	0,097
-305,080	-19,938	-0,132	-0,059
-304,066	-6,468	0,057	0,028
-303,051	800,000	-0,102	-0,297
-302,037	-64,990	0,069	0,020
-301,022	-1,103	0,119	-0,061
-300,008	243,756	-0,031	-0,038
-298,993	-200,000	0,011	0,114
-297,978	76,824	0,070	0,054
-296,964	105,127	-0,035	0,030
-295,949	800,000	-0,036	-0,078
-294,935	-200,000	-0,017	-0,067
-293,920	61,164	0,074	0,053
-292,905	-72,264	0,044	0,012
-291,891	-200,000	-0,028	0,149
-290,876	-200,000	0,007	0,067
-289,862	-151,230	0,062	0,003
-288,847	-52,718	-0,095	-0,031
-287,832	800,000	-0,031	0,071
-286,818	343,421	-0,087	0,124
-285,803	-155,148	-0,006	-0,000
-284,789	-13,621	0,145	-0,068
-283,774	-14,391	0,017	0,008
-282,759	-5,003	0,092	-0,046
-281,745	-84,115	0,056	-0,013
-280,730	89,642	-0,033	-0,027
-279,716	-29,514	0,076	0,031
-278,701	800,000	0,035	0,106
-277,686	800,000	0,007	-0,021
-276,672	-200,000	-0,000	0,114
-275,657	23,237	0,054	0,032
-274,643	-124,672	-0,118	0,013
-273,628	-200,000	-0,014	-0,047
-272,613	-200,000	0,014	-0,091
-271,599	-123,889	0,109	-0,012
-270,584	-200,000	-0,033	0,169
-269,570	-200,000	0,032	0,129
-268,555	800,000	0,034	-0,090
-267,540	-200,000	0,018	0,177
-266,526	594,725	-0,044	0,079
-265,511	88,519	0,097	-0,078
-264,497	118,421	-0,144	0,128
-263,482	166,614	0,071	-0,072
-262,467	231,592	-0,068	0,081
-261,453	-45,576	-0,035	-0,013
-260,438	571,623	0,013	-0,023
-259,424	-45,494	0,024	-0,009
-258,409	-185,788	-0,091	-0,001
-257,395	23,446	-0,078	0,046
-256,380	74,035	0,105	0,080
-255,365	-132,679	0,081	-0,007
-254,351	203,711	-0,020	0,023
-253,336	-200,000	-0,012	0,103
-252,322	-65,192	0,069	0,020
-251,307	75,489	-0,130	0,099
-250,292	-137,670	0,056	-0,005
-249,278	-164,084	0,068	-0,002
-248,263	-200,000	0,034	0,117
-247,249	-109,385	0,023	-0,004
-246,234	800,000	0,019	-0,060
-245,219	-200,000	-0,020	-0,115
-244,205	176,750	-0,032	0,034
-243,190	800,000	0,015	-0,036
-242,176	-200,000	0,004	0,021
-241,161	-200,000	-0,016	0,063
-240,146	-200,000	0,013	0,117
-239,132	-117,883	-0,120	0,015
-238,117	175,392	0,018	-0,019
-237,103	-200,000	0,003	0,057
-236,088	-27,087	0,062	0,026
-235,073	-0,109	0,058	0,030
-234,059	54,113	0,070	0,049
-233,044	-94,055	0,093	0,018
-232,030	394,805	-0,030	0,045
-231,015	-200,000	0,000	-0,109
-230,000	-200,000	-0,011	0,101
-228,986	241,304	0,021	-0,026
-227,971	132,919	0,058	-0,054
-226,957	78,112	-0,070	-0,054
-225,942	-108,988	-0,017	-0,003
-224,927	800,000	-0,064	0,132
-223,913	396,975	0,073	0,111
-222,898	800,000	0,030	-0,062
-221,884	-93,877	0,109	0,021
-220,869	-80,996	-0,117	0,028
-219,855	489,343	-0,072	0,119
-218,840	-56,115	0,034	0,011
-217,825	800,000	-0,054	0,143
-216,811	162,228	-0,012	-0,012
-215,796	-98,258	-0,063	0,012
-214,782	-95,562	0,111	0,021
-213,767	-37,067	0,128	-0,049
-212,752	-200,000	0,011	-0,072
-211,738	39,834	0,122	0,079
-210,723	486,876	-0,019	-0,031
-209,709	-200,000	-0,049	-0,214
-208,694	171,884	-0,158	-0,164
-207,679	-7,809	-0,033	-0,016
-206,665	57,153	0,044	0,031
-205,650	-189,108	0,028	0,000
-204,636	103,687	0,181	0,154
-203,621	262,957	0,032	-0,041
-202,606	-200,000	-0,001	-0,087
-201,592	-200,000	-0,026	-0,110
-200,577	-29,612	-0,136	0,056
-199,563	-99,155	0,123	-0,022
-198,548	113,755	0,043	-0,037
-197,533	-73,595	-0,106	-0,028
-196,519	-59,369	0,103	-0,032
-195,504	-56,533	0,102	0,033
-194,490	81,792	0,068	-0,053
-193,475	93,220	-0,092	-0,075
-192,460	-65,843	0,074	0,021
-191,446	-72,399	0,200	0,053
-190,431	800,000	-0,017	-0,041
-189,417	-14,175	-0,049	0,023
-188,402	228,314	-0,101	0,119
-187,387	-200,000	0,007	-0,096
-186,373	-50,633	0,021	-0,007
-185,358	-4,510	-0,085	0,042
-184,344	-200,000	0,004	0,035
-183,329	-104,256	0,181	0,030
-182,315	-200,000	-0,014	-0,133
-181,300	13,098	0,052	0,029
-180,285	58,184	-0,018	-0,013
-179,271	219,854	0,026	0,031
-178,256	-200,000	0,020	-0,069
-177,242	30,743	0,107	-0,066
-176,227	-134,485	0,086	0,007
-175,212	141,208	-0,115	-0,110
-174,198	89,652	-0,155	0,125
-173,183	4,060	-0,048	0,025
-172,169	-200,000	-0,009	-0,035
-171,154	109,078	-0,066	0,057
-170,139	-40,853	0,099	0,037
-169,125	350,152	-0,100	0,143
-168,110	-200,000	-0,006	0,026
-167,096	-200,000	0,034	-0,128
-166,081	297,897	0,014	-0,018
-165,066	-45,567	-0,078	0,028
-164,052	-200,000	-0,028	-0,102
-163,037	-100,126	-0,019	0,003
-162,023	-200,000	0,009	0,164
-161,008	124,774	0,109	-0,099
-159,993	-119,147	-0,040	-0,005
-158,979	-127,198	-0,066	-0,007
-157,964	-200,000	0,006	-0,093
-156,950	221,133	0,050	-0,058
-155,935	-9,086	0,039	0,019
-154,920	634,187	0,033	-0,061
-153,906	279,305	0,022	0,029
-152,891	122,356	-0,052	0,047
-151,877	-200,000	0,014	-0,088
-150,862	-200,000	-0,011	-0,044
-149,847	-28,416	-0,093	-0,039
-148,833	73,631	0,062	0,047
-147,818	210,552	-0,065	0,074
-146,804	-91,334	-0,074	0,015
-145,789	-51,729	0,144	-0,048
-144,775	-8,917	0,077	0,037
-143,760	71,464	-0,039	-0,029
-142,745	-200,000	-0,008	0,153
-141,731	130,714	-0,036	-0,034
-140,716	483,893	0,038	-0,062
-139,702	19,897	0,119	-0,069
-138,687	-200,000	0,007	0,066
-137,672	7,248	-0,033	-0,018
-136,658	197,804	-0,131	-0,144
-135,643	-53,707	0,065	0,021
-134,629	-200,000	0,010	0,112
-133,614	516,932	0,093	0,156
-132,599	800,000	-0,021	-0,067
-131,585	-112,272	-0,045	-0,006
-130,570	49,409	-0,170	-0,115
-129,556	-200,000	-0,026	-0,142
-128,541	-27,622	-0,124	0,052
-127,526	785,576	-0,031	-0,061
-126,512	197,490	-0,029	0,032
-125,497	800,000	0,048	0,112
-124,483	22,908	0,058	0,034
-123,468	283,798	0,026	-0,033
-122,453	800,000	0,041	0,086
-121,439	-122,711	0,063	0,007
-120,424	-134,955	-0,168	-0,014
-119,410	-97,865	-0,119	-0,022
-118,395	800,000	0,020	0,044
-117,380	-37,430	0,061	-0,023
-116,366	-151,270	-0,156	0,008
-115,351	-200,000	-0,009	-0,111
-114,337	30,329	-0,057	-0,035
-113,322	692,687	-0,029	0,056
-112,307	-125,685	0,110	-0,012
-111,293	-200,000	0,014	0,101
-110,278	-159,277	0,139	0,006
-109,264	99,141	0,109	0,091
-108,249	3,584	0,074	0,039
-107,234	-185,484	-0,136	0,001
-106,220	800,000	-0,038	0,113
-105,205	249,420	0,091	-0,112
-104,191	-78,750	0,090	-0,022
-103,176	554,138	0,014	0,024
-102,162	800,000	0,032	0,081
-101,147	800,000	-0,005	-0,010
-100,132	6,781	-0,039	-0,021
-99,118	-10,821	-0,056	0,026
-98,103	-200,000	0,018	0,071
-97,089	221,651	0,132	0,153
-96,074	5,560	-0,079	0,042
-95,059	152,107	0,050	0,049
-94,045	74,240	-0,078	0,059
-93,030	-16,050	-0,080	0,037
-92,016	-200,000	-0,011	0,116
-91,001	800,000	0,013	0,028
-89,986	-62,398	0,047	0,014
-88,972	-113,118	0,100	0,014
-87,957	-4,624	-0,016	-0,008
-86,943	-200,000	0,021	0,067
-85,928	-79,811	-0,092	-0,022
-84,913	-200,000	-0,025	0,111
-83,899	39,228	0,039	-0,025
-82,884	-139,814	0,089	-0,007
-81,870	-200,000	0,026	0,110
-80,855	800,000	0,051	0,155
-79,840	-200,000	0,013	0,072
-78,826	800,000	-0,031	-0,088
-77,811	20,257	0,024	0,014
-76,797	-200,000	0,004	-0,045
-75,782	-93,678	-0,094	-0,018
-74,767	-104,103	-0,123	-0,020
-73,753	-200,000	-0,044	0,146
-72,738	217,278	0,063	-0,072
-71,724	-5,261	-0,202	-0,099
-70,709	146,120	0,055	-0,054
-69,694	-200,000	-0,012	-0,045
-68,680	-200,000	0,081	-0,000
-67,665	211,362	0,051	0,058
-66,651	238,601	0,139	0,166
-65,636	189,974	0,067	0,073
-64,622	5,680	-0,092	-0,049
-63,607	779,939	-0,065	-0,128
-62,592	-200,000	0,003	-0,027
-61,578	-197,071	0,076	0,000
-60,563	-200,000	0,023	0,110
-59,549	35,854	0,108	0,068
-58,534	-9,852	-1,959	-0,932
-57,519	-200,000	-0,306	-1,021
-56,505	-200,000	-1,242	-4,800
-55,490	10,216	0,788	0,429
-54,476	800,000	5,292	12,105
-53,461	-200,000	17,129	280,223
-52,446	800,000	720,252	2221,998
-51,432	545,098	1635,502	2816,199
-50,417	113,079	1630,347	1418,771
-49,403	76,582	1287,732	979,183
-48,388	33,405	1030,622	640,929
-47,373	20,361	992,289	573,989
-46,359	19,010	980,437	562,667
-45,344	16,544	976,681	552,396
-44,330	16,641	975,343	551,937
-43,315	16,379	973,099	549,787
-42,300	16,257	972,346	548,940
-41,286	16,264	971,316	548,361
-40,271	16,255	970,370	547,776
-39,257	16,269	969,410	547,257
-38,242	16,292	968,395	546,737
-37,227	16,322	967,693	546,416
-36,213	16,316	966,789	545,865
-35,198	16,284	966,026	545,309
-34,184	16,343	965,103	544,958
-33,169	16,241	964,202	544,098
-32,154	16,328	963,105	543,738
-31,140	16,257	962,354	543,062
-30,125	16,264	961,671	542,677
-29,111	16,277	960,826	542,221
-28,096	16,263	960,309	541,862
-27,082	16,323	959,364	541,502
-26,067	16,295	958,722	541,029
-25,052	16,282	957,937	540,522
-24,038	16,224	957,320	539,965
-23,023	16,259	956,619	539,660
-22,009	16,311	955,958	539,434
-20,994	16,261	955,489	538,987
-19,979	16,300	954,723	538,658
-18,965	16,267	954,147	538,207
-17,950	16,308	953,395	537,891
-16,936	16,293	952,846	537,514
-15,921	16,248	952,048	536,897
-14,906	16,137	951,471	536,197
-13,892	16,167	950,794	535,890
-12,877	16,121	950,234	535,404
-11,863	16,136	949,643	535,098
-10,848	16,162	948,998	534,796
-9,833	16,289	948,363	534,821
-8,819	16,248	947,711	534,302
-7,804	16,155	947,101	533,643
-6,790	16,143	946,495	533,242
-5,775	16,168	945,934	532,985
-4,760	16,169	945,502	532,723
-3,746	16,172	944,674	532,245
-2,731	16,089	943,959	531,558
-1,717	16,013	943,462	531,014
-0,702	16,024	942,699	530,600
0,313	15,841	942,260	530,573
1,327	19,155	940,137	539,800
2,342	28,308	797,766	482,388
3,356	25,359	460,966	274,187
4,371	-2,696	314,968	157,495
5,386	-6,551	296,425	144,307
6,400	-8,364	290,250	139,488
7,415	-8,964	287,800	137,708
8,429	-9,048	286,279	136,885
9,444	-9,093	285,204	136,315
10,459	-9,177	284,732	135,996
11,473	-8,914	284,071	135,924
12,488	-8,837	283,489	135,707
13,502	-9,112	283,174	135,279
14,517	-9,182	282,800	135,020
15,531	-8,968	282,056	134,859
16,546	-9,113	281,755	134,564
17,561	-9,181	281,507	134,367
18,575	-9,080	281,181	134,297
19,590	-9,030	280,818	134,160
20,604	-9,096	280,428	133,899
21,619	-9,247	280,305	133,683
22,634	-9,138	279,805	133,537
23,648	-9,072	279,384	133,387
24,663	-9,037	279,097	133,271
25,677	-9,204	279,008	133,058
26,692	-9,156	278,679	132,935
27,707	-8,989	278,432	132,964
28,721	-9,195	278,085	132,590
29,736	-9,114	277,875	132,556
30,750	-9,244	277,552	132,267
31,765	-9,107	277,329	132,278
32,780	-9,089	277,079	132,165
33,794	-9,175	277,004	132,035
34,809	-9,144	276,617	131,868
35,823	-9,114	276,239	131,704
36,838	-9,181	275,963	131,498
37,853	-9,226	275,711	131,324
38,867	-9,266	275,565	131,205
39,882	-9,105	275,438	131,285
40,896	-9,235	275,244	131,058
41,911	-9,266	274,791	130,801
42,926	-9,230	274,659	130,761
43,940	-9,222	274,429	130,647
44,955	-9,256	274,127	130,460
45,969	-9,290	273,791	130,257
46,984	-9,324	273,660	130,150
47,999	-9,478	273,336	129,842
49,013	-9,676	273,121	129,543
50,028	-9,746	272,952	129,387
51,042	-10,066	272,698	128,957
52,057	-9,896	272,318	128,924
53,071	-10,011	272,244	128,770
54,086	-9,853	272,203	128,886
55,101	-9,653	271,848	128,892
56,115	-9,519	271,657	128,914
57,130	-9,152	271,577	129,204
58,144	-8,925	271,235	129,240
59,159	-8,922	271,091	129,162
60,174	-8,881	270,902	129,099
61,188	-9,051	270,705	128,836
62,203	-9,134	270,548	128,674
63,217	-9,019	270,267	128,635
64,232	-8,838	270,039	128,681
65,247	-8,993	269,936	128,478
66,261	-8,714	269,577	128,552
67,276	-9,235	269,324	127,942
68,290	-9,200	269,035	127,826
69,305	-9,309	268,603	127,509
70,320	-9,236	268,510	127,521
71,334	-9,301	268,466	127,428
72,349	-9,117	268,325	127,519
73,363	-8,983	268,054	127,500
74,378	-9,160	267,900	127,254
75,393	-8,978	267,514	127,225
76,407	-9,160	267,570	127,075
77,422	-8,984	267,230	127,062
78,436	-9,141	266,959	126,780
79,451	-8,908	266,666	126,841
80,466	-9,141	266,526	126,551
81,480	-9,286	266,196	126,252
82,495	-9,195	265,957	126,210
83,509	-9,176	265,912	126,194
84,524	-9,277	265,677	125,980
85,539	-9,236	265,465	125,906
86,553	-9,509	265,382	125,609
87,568	-9,105	265,014	125,787
88,582	-9,140	264,663	125,578
89,597	-9,246	264,651	125,466
90,611	-9,146	264,436	125,443
91,626	-9,134	264,314	125,384
92,641	-9,080	264,232	125,383
93,655	-9,261	263,929	125,066
94,670	-9,168	263,611	124,986
95,684	-9,147	263,464	124,925
96,699	-9,082	263,251	124,870
97,714	-9,333	263,223	124,622
98,728	-9,153	262,809	124,576
99,743	-9,221	262,664	124,435
100,757	-9,323	262,405	124,210
101,772	-9,188	262,253	124,248
102,787	-9,315	262,029	124,017
103,801	-9,250	261,839	123,974
104,816	-8,974	261,622	124,105
105,830	-9,028	261,592	124,032
106,845	-9,111	261,399	123,856
107,860	-9,049	261,113	123,764
108,874	-9,248	261,074	123,559
109,889	-9,144	260,661	123,444
110,903	-9,265	260,470	123,235
111,918	-9,066	260,206	123,276
112,933	-9,015	259,983	123,203
113,947	-9,067	259,955	123,134
114,962	-9,055	259,687	123,006
115,976	-9,015	259,611	122,995
116,991	-9,053	259,365	122,834
118,006	-9,103	259,211	122,706
119,020	-9,095	259,043	122,622
120,035	-9,072	258,858	122,544
121,049	-9,005	258,702	122,518
122,064	-8,966	258,527	122,458
123,079	-8,984	258,370	122,357
124,093	-9,181	258,090	122,041
125,108	-9,250	257,826	121,845
126,122	-9,279	257,607	121,706
127,137	-9,365	257,331	121,489
128,151	-9,362	257,292	121,463
129,166	-9,223	257,031	121,450
130,181	-9,377	256,956	121,270
131,195	-9,422	256,571	121,038
132,210	-9,085	256,444	121,259
133,224	-8,932	256,230	121,281
134,239	-9,119	256,233	121,108
135,254	-8,995	255,971	121,081
136,268	-9,127	255,747	120,851
137,283	-9,418	255,482	120,463
138,297	-9,476	255,195	120,267
139,312	-9,366	255,048	120,282
140,327	-9,181	254,920	120,371
141,341	-8,606	254,661	120,732
142,356	-8,787	254,700	120,585
143,370	-8,729	254,452	120,506
144,385	-8,993	254,369	120,229
145,400	-8,819	254,074	120,228
146,414	-8,917	253,905	120,053
147,429	-8,901	253,875	120,042
148,443	-8,938	253,619	119,879
149,458	-8,899	253,529	119,859
150,473	-8,954	253,260	119,674
151,487	-9,053	252,992	119,452
152,502	-8,888	252,796	119,490
153,516	-8,756	252,630	119,513
154,531	-8,906	252,417	119,275
155,546	-8,954	252,482	119,253
156,560	-8,919	252,112	119,098
157,575	-8,933	251,872	118,962
158,589	-8,943	251,765	118,892
159,604	-8,741	251,523	118,939
160,619	-8,775	251,335	118,810
161,633	-8,757	251,149	118,727
162,648	-8,841	251,094	118,619
163,662	-8,815	250,973	118,573
164,677	-8,841	250,733	118,428
165,692	-9,064	250,638	118,183
166,706	-8,842	250,364	118,232
167,721	-8,914	250,316	118,137
168,735	-8,981	250,210	118,020
169,750	-8,794	249,919	118,031
170,764	-8,701	249,796	118,040
171,779	-8,855	249,709	117,859
172,794	-8,749	249,454	117,817
173,808	-8,844	249,362	117,683
174,823	-9,265	249,047	117,171
175,837	-9,489	248,776	116,845
176,852	-8,964	248,747	117,261
177,867	-8,843	248,752	117,354
178,881	-8,777	248,433	117,249
179,896	-8,827	248,238	117,104
180,910	-8,958	248,138	116,937
181,925	-8,789	247,839	116,927
182,940	-8,736	247,726	116,908
183,954	-8,719	247,608	116,855
184,969	-8,852	247,549	116,706
185,983	-8,790	247,321	116,640
186,998	-8,839	247,178	116,521
188,013	-8,755	247,037	116,514
189,027	-8,875	246,889	116,334
190,042	-8,682	246,541	116,320
191,056	-8,835	246,381	116,107
192,071	-8,615	246,287	116,235
193,086	-8,791	245,967	115,928
194,100	-8,601	245,875	116,031
195,115	-8,667	245,840	115,950
196,129	-8,672	245,465	115,759
197,144	-8,862	245,356	115,540
198,159	-8,765	245,134	115,505
199,173	-8,976	245,001	115,258
200,188	-8,758	244,797	115,332
201,202	-8,973	244,505	115,007
202,217	-9,399	244,312	114,556
203,232	-9,450	243,840	114,283
204,246	-9,102	243,964	114,616
205,261	-8,413	243,963	115,170
206,275	-9,390	243,645	114,210
207,290	-6,318	244,928	117,330
208,304	-0,593	246,522	122,815
209,319	1,589	247,013	124,852
210,334	2,051	247,006	125,219
211,348	2,282	247,047	125,419
212,363	2,818	246,954	125,802
213,377	2,842	246,787	125,726
214,392	2,872	246,790	125,741
215,407	2,845	246,402	125,510
216,421	2,810	246,205	125,370
217,436	2,816	246,239	125,381
218,450	3,071	245,973	125,443
219,465	2,747	245,826	125,091
220,480	2,827	245,589	125,025
221,494	2,825	245,438	124,935
222,509	2,790	245,481	124,918
223,523	2,782	245,272	124,793
224,538	2,432	244,916	124,316
225,553	2,358	244,797	124,184
226,567	2,707	244,586	124,350
227,582	2,721	244,515	124,314
228,596	2,479	244,402	124,048
229,611	2,410	244,184	123,871
230,626	2,259	243,995	123,641
231,640	2,434	243,941	123,745
232,655	2,705	243,657	123,810
233,669	2,509	243,379	123,499
234,684	2,552	243,320	123,493
235,699	2,669	243,341	123,587
236,713	2,824	243,172	123,616
237,728	2,674	242,982	123,387
238,742	2,553	242,735	123,152
239,757	2,498	242,545	123,001
240,772	2,544	242,403	122,955
241,786	2,584	242,220	122,884
242,801	2,361	242,082	122,623
243,815	2,360	241,918	122,528
244,830	2,576	241,842	122,652
245,844	2,819	241,636	122,732
246,859	2,565	241,504	122,450
247,874	2,581	241,277	122,336
248,888	2,520	241,146	122,211
249,903	2,708	240,996	122,274
250,917	2,816	240,944	122,324
251,932	3,063	240,736	122,405
252,947	2,846	240,623	122,163
253,961	2,384	240,411	121,675
254,976	2,582	240,298	121,766
255,990	2,860	240,234	121,944
257,005	2,524	239,962	121,527
258,020	2,278	239,766	121,221
259,034	2,491	239,640	121,316
260,049	2,547	239,555	121,307
261,063	2,568	239,163	121,114
262,078	2,392	239,074	120,918
263,093	2,611	239,068	121,078
264,107	2,671	238,920	121,041
265,122	2,590	238,697	120,853
266,136	2,524	238,658	120,770
267,151	2,775	238,482	120,869
268,166	2,442	238,195	120,449
269,180	2,246	237,978	120,174
270,195	3,021	237,971	120,772
271,209	3,149	237,919	120,836
272,224	2,636	237,536	120,226
273,239	2,498	237,367	120,021
274,253	2,288	237,268	119,794
275,268	2,639	237,058	119,954
276,282	2,583	236,969	119,854
277,297	2,489	236,744	119,656
278,312	2,622	236,657	119,706
279,326	2,474	236,631	119,566
280,341	2,587	236,395	119,524
281,355	2,536	236,263	119,407
282,370	2,617	236,295	119,476
283,384	2,725	236,093	119,449
284,399	2,540	235,731	119,109
285,414	2,291	235,634	118,855
286,428	2,322	235,629	118,867
287,443	2,426	235,396	118,819
288,457	2,997	235,331	119,222
289,472	2,917	234,998	118,980
290,487	2,521	234,909	118,616
291,501	2,349	234,682	118,357
292,516	2,182	234,546	118,147
293,530	2,217	234,315	118,048
294,545	2,569	234,251	118,278
295,560	2,499	234,262	118,219
296,574	2,373	233,856	117,906
297,589	2,417	233,663	117,833
298,603	2,899	233,804	118,267
299,618	2,820	233,564	118,073
300,633	2,861	233,476	118,050
301,647	2,851	233,293	117,939
302,662	3,282	233,319	118,275
303,676	3,119	233,186	118,071
304,691	3,056	232,929	117,882
305,706	3,011	232,821	117,782
306,720	2,866	232,704	117,601
307,735	2,743	232,443	117,364
308,749	2,828	232,366	117,379
309,764	2,586	231,963	116,979
310,779	2,480	231,809	116,811
311,793	2,400	231,695	116,681
312,808	2,430	231,555	116,624
313,822	2,211	231,516	116,425
314,837	2,331	231,214	116,355
315,852	2,465	231,093	116,386
316,866	2,789	231,048	116,600
317,881	2,693	231,060	116,523
318,895	3,092	230,798	116,685
319,910	3,300	230,705	116,786
320,925	2,815	230,570	116,338
321,939	2,736	230,238	116,100
322,954	3,060	230,213	116,323
323,968	2,600	230,031	115,871
324,983	2,678	229,751	115,779
325,997	2,842	229,762	115,899
327,012	2,695	229,511	115,651
328,027	2,254	229,318	115,208
329,041	2,796	229,449	115,675
330,056	3,490	229,484	116,209
331,070	3,624	229,295	116,204
332,085	2,889	229,020	115,498
333,100	2,927	228,705	115,358
334,114	2,713	228,622	115,144
335,129	2,979	228,403	115,224
336,143	3,143	228,336	115,304
337,158	3,158	228,216	115,244
338,173	3,074	228,058	115,091
339,187	2,975	227,964	114,959
340,202	3,041	227,826	114,928
341,216	3,208	227,621	114,940
342,231	2,892	227,430	114,597
343,246	2,734	227,362	114,433
344,260	2,848	227,103	114,378
345,275	3,069	227,186	114,576
346,289	3,010	226,933	114,393
347,304	3,166	226,844	114,455
348,319	3,227	226,658	114,397
349,333	3,000	226,452	114,113
350,348	2,862	226,216	113,881
351,362	3,042	226,119	113,956
352,377	2,820	226,080	113,761
353,392	2,670	225,822	113,509
354,406	2,660	225,796	113,478
355,421	197,061	1320,090	1401,958
356,435	158,027	1453,410	1401,978
