DTS Sentinel unit serial number:	SN410029Multiplexer serial number:	ORYXHardware model number:	OX2-SRSoftware version number:	ORYX F/W v4,00 Oryx Data Collector v3.7.2.0data status	okinstallation	B5 Nyhavnadifferential loss correction	single-endedforward channel	channel 2reverse channel	N/Adate	2023/12/12time	17:37:13forward acquisition time	300,00reverse acquisition time	0,00gamma	499,1914k internal	0,3156k external	0,3156temperature offset calibration	1,0000default loss term (dB/km)	0,3820temperature slope calibration	1,0000multiplexer offset coefficient	1,0000multiplexer slope coefficient	1,0000fibre end	0,00T internal ref (°C)	15,69T ext. ref 1 (°C)	-0,82T ext. ref 2 (°C)	-1,14length (m)	temperature (°C)	Stokes	anti-Stokes-744,400	-116,756	0,120	-0,016
-743,385	-100,714	-0,338	-0,061
-742,371	800,000	0,058	-0,122
-741,356	-116,572	-0,202	0,027
-740,342	-147,211	0,097	0,006
-739,327	21,251	-0,248	0,148
-738,312	-57,894	0,252	-0,081
-737,298	-150,425	-0,275	-0,015
-736,283	-200,000	-0,008	-0,036
-735,269	-43,099	-0,187	-0,070
-734,254	354,227	0,087	0,128
-733,239	-62,378	-0,430	-0,131
-732,225	-109,125	0,255	0,040
-731,210	165,789	-0,053	0,055
-730,196	318,486	0,050	0,070
-729,181	122,637	-0,124	0,115
-728,167	-38,711	-0,056	0,022
-727,152	98,450	-0,083	-0,070
-726,137	-200,000	-0,004	-0,044
-725,123	29,780	-0,132	-0,082
-724,108	505,046	-0,064	-0,109
-723,094	-200,000	-0,032	0,110
-722,079	124,238	-0,144	-0,134
-721,064	40,867	0,092	-0,061
-720,050	-200,000	-0,002	0,013
-719,035	-47,614	-0,034	-0,012
-718,021	293,467	0,066	-0,089
-717,006	-9,869	-0,114	-0,056
-715,991	94,689	0,038	0,032
-714,977	-200,000	-0,030	-0,174
-713,962	111,263	-0,036	-0,032
-712,948	-200,000	-0,010	0,209
-711,933	-71,784	-0,105	0,029
-710,918	-148,338	0,100	-0,006
-709,904	-76,063	0,094	-0,024
-708,889	-160,270	0,052	0,002
-707,875	-200,000	-0,044	-0,153
-706,860	-117,674	-0,081	-0,011
-705,845	543,576	-0,036	-0,063
-704,831	-200,000	-0,016	0,146
-703,816	800,000	0,037	0,111
-702,802	229,578	0,074	-0,089
-701,787	-114,564	-0,147	-0,021
-700,772	-2,330	0,060	0,031
-699,758	302,185	-0,043	-0,059
-698,743	-200,000	0,010	-0,041
-697,729	-28,828	0,065	0,028
-696,714	394,784	-0,054	0,082
-695,699	-61,309	-0,033	-0,010
-694,685	-37,095	0,037	-0,014
-693,670	-200,000	-0,005	-0,077
-692,656	-200,000	0,011	-0,187
-691,641	800,000	0,019	-0,060
-690,627	-102,450	0,127	0,022
-689,612	-120,940	0,100	0,012
-688,597	-200,000	0,000	-0,112
-687,583	-200,000	-0,024	-0,084
-686,568	-200,000	0,015	-0,135
-685,554	-10,549	-0,174	-0,085
-684,539	28,516	-0,099	-0,061
-683,524	800,000	-0,015	-0,043
-682,510	-200,000	0,010	0,125
-681,495	-77,885	0,055	-0,014
-680,481	172,392	-0,059	0,062
-679,466	-133,698	-0,134	-0,012
-678,451	63,204	0,039	-0,029
-677,437	-19,468	0,027	-0,012
-676,422	-86,380	-0,066	0,015
-675,408	511,654	-0,074	-0,126
-674,393	81,461	0,079	-0,063
-673,378	800,000	0,029	-0,070
-672,364	119,092	-0,064	0,058
-671,349	39,080	-0,077	-0,051
-670,335	-200,000	-0,002	0,089
-669,320	800,000	-0,043	0,116
-668,305	197,993	0,103	-0,116
-667,291	-29,979	-0,061	0,025
-666,276	-200,000	-0,027	-0,104
-665,262	252,114	-0,040	0,050
-664,247	-37,269	0,148	0,058
-663,232	51,251	0,024	0,017
-662,218	-20,538	0,086	0,039
-661,203	-108,859	0,090	0,014
-660,189	81,200	0,086	0,068
-659,174	-200,000	-0,002	-0,073
-658,159	575,281	-0,014	-0,024
-657,145	800,000	-0,070	-0,189
-656,130	32,941	-0,045	-0,029
-655,116	287,245	-0,034	-0,045
-654,101	84,593	0,064	-0,052
-653,086	77,499	0,111	-0,087
-652,072	-40,632	-0,053	0,020
-651,057	-200,000	-0,012	-0,072
-650,043	375,709	-0,052	0,078
-649,028	-15,277	-0,012	0,006
-648,014	1,506	0,074	0,039
-646,999	342,326	0,042	0,061
-645,984	800,000	-0,018	-0,045
-644,970	63,500	-0,109	0,080
-643,955	198,992	-0,075	-0,085
-642,941	-200,000	-0,006	-0,081
-641,926	105,662	0,089	-0,077
-640,911	98,584	-0,098	-0,083
-639,897	180,513	-0,114	0,123
-638,882	106,256	-0,075	-0,065
-637,868	-200,000	0,014	0,117
-636,853	75,791	-0,143	-0,111
-635,838	91,408	0,038	-0,032
-634,824	-73,114	-0,064	-0,017
-633,809	297,065	0,064	-0,086
-632,795	-200,000	-0,004	0,108
-631,780	-27,553	-0,184	0,078
-630,765	800,000	0,019	0,054
-629,751	24,484	-0,077	-0,047
-628,736	5,982	-0,047	-0,025
-627,722	-28,945	0,113	-0,048
-626,707	197,134	-0,042	0,047
-625,692	-76,521	0,082	-0,021
-624,678	186,288	0,055	-0,060
-623,663	99,674	-0,078	-0,066
-622,649	272,122	-0,096	-0,125
-621,634	-184,390	-0,119	0,001
-620,619	-200,000	-0,015	-0,117
-619,605	-71,987	-0,134	-0,036
-618,590	-200,000	-0,012	-0,073
-617,576	226,228	0,102	0,121
-616,561	-36,806	0,134	-0,053
-615,546	800,000	0,033	0,108
-614,532	676,441	-0,088	-0,169
-613,517	800,000	-0,012	0,031
-612,503	651,185	-0,010	-0,018
-611,488	51,444	0,133	-0,093
-610,474	621,000	0,042	-0,078
-609,459	-200,000	0,008	-0,070
-608,444	-107,342	0,124	-0,020
-607,430	278,753	0,054	0,071
-606,415	338,127	-0,041	0,059
-605,401	-200,000	0,010	0,097
-604,386	21,073	0,056	0,033
-603,371	656,876	0,020	0,039
-602,357	188,667	-0,094	-0,103
-601,342	-200,000	-0,003	0,213
-600,328	800,000	-0,092	-0,195
-599,313	-200,000	0,011	-0,072
-598,298	793,345	0,047	0,095
-597,284	660,341	-0,014	0,026
-596,269	129,350	0,085	0,080
-595,255	-126,072	0,089	0,010
-594,240	800,000	-0,067	-0,163
-593,225	409,537	0,020	0,031
-592,211	-200,000	0,003	-0,055
-591,196	228,182	0,037	0,044
-590,182	35,450	-0,017	0,011
-589,167	375,221	0,091	0,136
-588,152	629,921	0,020	0,036
-587,138	443,730	0,094	-0,152
-586,123	800,000	0,052	-0,118
-585,109	-114,788	-0,088	-0,012
-584,094	-17,269	0,037	-0,017
-583,079	278,140	0,024	-0,031
-582,065	53,751	-0,058	-0,041
-581,050	800,000	0,053	0,126
-580,036	226,809	0,028	-0,034
-579,021	26,614	-0,125	-0,076
-578,006	-161,451	-0,059	0,002
-576,992	800,000	-0,021	0,047
-575,977	-56,548	0,051	0,017
-574,963	800,000	0,004	-0,014
-573,948	-200,000	-0,091	-0,000
-572,934	-22,392	-0,086	0,038
-571,919	-200,000	-0,017	-0,105
-570,904	800,000	0,050	-0,118
-569,890	38,254	-0,055	-0,036
-568,875	-171,482	-0,058	0,001
-567,861	-200,000	0,014	0,092
-566,846	-200,000	-0,002	0,100
-565,831	-200,000	-0,020	-0,133
-564,817	-147,581	0,041	-0,003
-563,802	-200,000	-0,021	-0,174
-562,788	217,613	0,057	-0,066
-561,773	12,633	0,086	-0,048
-560,758	800,000	0,051	-0,139
-559,744	-138,771	-0,116	0,009
-558,729	-88,149	0,033	0,007
-557,715	-176,420	-0,091	-0,002
-556,700	-200,000	-0,003	-0,111
-555,685	-51,286	-0,124	0,042
-554,671	-188,597	-0,186	-0,002
-553,656	585,090	-0,008	-0,014
-552,642	-27,193	0,054	0,023
-551,627	1,875	-0,054	-0,028
-550,612	213,002	-0,050	0,058
-549,598	-200,000	-0,025	0,111
-548,583	21,503	-0,200	-0,118
-547,569	347,877	0,072	-0,104
-546,554	-91,575	0,169	0,035
-545,539	-140,233	0,084	-0,006
-544,525	85,056	-0,097	-0,078
-543,510	28,172	0,095	0,059
-542,496	353,223	0,067	-0,097
-541,481	800,000	0,017	-0,040
-540,466	134,084	-0,072	0,069
-539,452	75,951	0,171	0,132
-538,437	800,000	0,042	0,113
-537,423	-143,943	0,082	0,006
-536,408	-200,000	0,001	-0,004
-535,393	598,893	0,035	-0,064
-534,379	168,480	-0,064	0,066
-533,364	237,565	-0,052	-0,063
-532,350	325,211	-0,034	0,048
-531,335	-200,000	0,010	0,109
-530,321	57,091	-0,065	-0,046
-529,306	777,684	-0,036	0,073
-528,291	23,855	-0,057	0,034
-527,277	-167,542	-0,126	0,004
-526,262	503,959	0,039	-0,067
-525,248	-200,000	-0,001	-0,116
-524,233	800,000	0,034	0,078
-523,218	800,000	0,014	0,036
-522,204	800,000	0,014	-0,029
-521,189	-100,749	0,060	0,011
-520,175	605,028	-0,073	-0,133
-519,160	81,693	-0,070	-0,056
-518,145	-95,714	-0,124	0,024
-517,131	395,979	0,111	0,170
-516,116	-200,000	0,019	0,064
-515,102	186,450	-0,072	0,078
-514,087	91,594	0,131	-0,107
-513,072	23,083	0,009	-0,005
-512,058	-112,748	-0,132	-0,019
-511,043	-200,000	-0,009	-0,105
-510,029	-200,000	0,050	0,190
-509,014	203,371	0,087	0,098
-507,999	-117,603	-0,163	0,021
-506,985	-32,035	-0,105	-0,043
-505,970	-86,609	-0,053	-0,012
-504,956	-4,692	0,143	0,072
-503,941	415,957	0,040	0,063
-502,926	800,000	-0,036	0,097
-501,912	168,820	-0,054	0,056
-500,897	-113,037	-0,146	0,021
-499,883	634,800	0,030	0,055
-498,868	368,457	0,030	-0,045
-497,853	14,645	-0,041	-0,023
-496,839	-200,000	0,003	0,047
-495,824	-68,672	0,124	-0,035
-494,810	47,245	0,105	0,071
-493,795	168,188	0,073	-0,076
-492,781	-32,070	-0,040	-0,016
-491,766	-26,340	-0,027	-0,012
-490,751	90,495	-0,132	-0,108
-489,737	-102,843	0,036	0,006
-488,722	-200,000	-0,020	-0,079
-487,708	91,412	-0,054	-0,044
-486,693	-200,000	0,024	-0,079
-485,678	-200,000	0,001	-0,088
-484,664	91,058	0,074	-0,061
-483,649	-200,000	-0,003	0,105
-482,635	49,303	0,110	-0,075
-481,620	-10,100	-0,013	-0,006
-480,605	-200,000	0,033	0,202
-479,591	196,901	0,031	0,034
-478,576	-200,000	-0,036	0,127
-477,562	356,909	-0,119	0,174
-476,547	30,385	-0,034	0,021
-475,532	-200,000	0,009	-0,036
-474,518	160,598	0,107	0,109
-473,503	-13,504	-0,070	-0,033
-472,489	201,016	0,025	-0,028
-471,474	-61,516	-0,103	0,031
-470,459	-78,080	0,073	-0,018
-469,445	-9,268	-0,020	-0,010
-468,430	190,580	0,096	-0,106
-467,416	-41,544	0,049	-0,018
-466,401	799,759	-0,023	-0,047
-465,386	-200,000	0,023	0,155
-464,372	800,000	-0,007	-0,022
-463,357	-100,120	-0,037	-0,007
-462,343	-42,293	-0,129	0,048
-461,328	800,000	-0,009	0,020
-460,313	-10,563	0,119	0,057
-459,299	83,603	0,111	0,088
-458,284	-200,000	-0,005	0,087
-457,270	30,943	-0,085	-0,053
-456,255	237,535	-0,032	0,039
-455,241	284,336	0,062	0,082
-454,226	101,502	-0,089	-0,076
-453,211	-58,934	0,089	0,028
-452,197	709,582	0,090	0,173
-451,182	-47,931	-0,063	-0,022
-450,168	-47,312	0,052	-0,018
-449,153	90,301	-0,139	0,114
-448,138	-200,000	-0,031	0,153
-447,124	349,409	-0,070	-0,101
-446,109	-200,000	0,010	0,078
-445,095	-42,465	0,114	-0,042
-444,080	23,649	0,024	0,015
-443,065	80,672	-0,080	-0,063
-442,051	-111,858	0,069	-0,010
-441,036	183,579	-0,005	-0,005
-440,022	-200,000	-0,025	-0,130
-439,007	28,930	-0,016	-0,010
-437,992	147,850	-0,041	0,040
-436,978	224,364	-0,039	0,046
-435,963	-200,000	0,004	-0,017
-434,949	-200,000	0,003	-0,036
-433,934	-200,000	0,005	-0,030
-432,919	-200,000	-0,007	0,022
-431,905	-1,478	0,109	0,056
-430,890	258,431	-0,062	0,078
-429,876	-200,000	0,011	0,133
-428,861	77,386	0,077	0,060
-427,846	138,237	-0,094	0,090
-426,832	20,263	-0,140	-0,082
-425,817	-200,000	-0,011	-0,052
-424,803	-60,773	0,172	0,053
-423,788	-200,000	-0,020	-0,107
-422,773	-162,074	-0,052	-0,002
-421,759	-16,407	0,122	0,056
-420,744	159,888	0,061	-0,062
-419,730	134,698	-0,050	0,048
-418,715	800,000	-0,075	-0,151
-417,701	-134,243	-0,041	-0,004
-416,686	689,813	-0,023	0,044
-415,671	68,313	-0,067	0,050
-414,657	463,736	-0,028	0,045
-413,642	-189,433	-0,047	-0,000
-412,628	-17,365	0,034	-0,015
-411,613	244,807	-0,067	-0,082
-410,598	-59,459	0,029	-0,009
-409,584	451,201	0,015	-0,024
-408,569	-200,000	-0,011	-0,085
-407,555	-32,452	-0,040	0,016
-406,540	253,491	-0,044	0,054
-405,525	800,000	-0,016	0,047
-404,511	-91,371	0,117	0,024
-403,496	80,185	0,039	-0,031
-402,482	253,673	-0,083	-0,103
-401,467	-107,011	0,154	0,025
-400,452	650,879	-0,046	-0,087
-399,438	142,492	-0,053	-0,051
-398,423	310,800	0,095	0,129
-397,409	-200,000	-0,005	0,064
-396,394	800,000	0,029	0,084
-395,379	350,286	0,074	-0,106
-394,365	427,340	0,031	-0,048
-393,350	-200,000	-0,013	-0,050
-392,336	365,705	-0,028	-0,041
-391,321	391,493	0,046	0,070
-390,306	272,580	-0,010	-0,012
-389,292	-94,818	0,076	0,015
-388,277	486,064	-0,083	0,138
-387,263	172,055	0,105	0,110
-386,248	20,199	0,037	0,021
-385,233	246,399	-0,044	-0,054
-384,219	-100,751	0,176	0,031
-383,204	800,000	-0,018	-0,046
-382,190	233,373	0,045	-0,054
-381,175	-140,161	-0,061	0,005
-380,160	800,000	0,035	0,090
-379,146	17,873	0,093	0,054
-378,131	-200,000	0,003	0,029
-377,117	-134,840	-0,101	0,009
-376,102	195,381	0,100	-0,111
-375,088	201,307	-0,002	-0,003
-374,073	-71,236	0,137	-0,037
-373,058	189,514	-0,030	0,033
-372,044	112,571	0,028	0,025
-371,029	800,000	0,023	0,069
-370,015	-200,000	0,011	0,155
-369,000	-200,000	-0,010	-0,059
-367,985	-37,730	0,051	-0,020
-366,971	-63,165	0,130	0,039
-365,956	-149,517	-0,019	-0,001
-364,942	116,496	-0,017	0,015
-363,927	800,000	0,056	0,131
-362,912	208,379	0,093	0,106
-361,898	557,127	0,044	-0,078
-360,883	800,000	-0,052	-0,116
-359,869	-200,000	0,035	-0,125
-358,854	142,313	0,143	0,138
-357,839	429,612	0,037	0,058
-356,825	800,000	0,024	0,061
-355,810	-200,000	-0,008	0,060
-354,796	349,339	-0,047	-0,067
-353,781	117,164	0,144	0,128
-352,766	82,269	-0,048	-0,038
-351,752	24,499	-0,104	-0,062
-350,737	800,000	0,050	0,120
-349,723	800,000	-0,047	0,147
-348,708	-34,727	-0,114	0,045
-347,693	53,205	0,135	0,094
-346,679	-54,900	-0,066	-0,021
-345,664	800,000	-0,057	-0,154
-344,650	75,966	0,028	0,022
-343,635	521,148	-0,037	0,064
-342,620	-53,457	0,012	0,004
-341,606	419,416	0,015	0,023
-340,591	-110,602	-0,016	0,002
-339,577	-200,000	0,005	0,017
-338,562	-200,000	-0,028	-0,141
-337,548	-113,751	0,086	0,012
-336,533	315,852	-0,030	0,041
-335,518	-200,000	0,009	0,111
-334,504	292,184	-0,063	0,084
-333,489	-50,410	-0,188	-0,064
-332,475	153,862	0,088	-0,088
-331,460	297,584	0,018	0,024
-330,445	598,065	0,065	0,118
-329,431	-33,055	-0,040	0,016
-328,416	-200,000	0,022	0,146
-327,402	481,719	0,045	0,074
-326,387	8,255	-0,087	-0,047
-325,372	-180,524	-0,124	0,002
-324,358	-200,000	-0,004	0,157
-323,343	675,575	0,046	0,086
-322,329	31,820	0,013	0,008
-321,314	-7,240	0,043	0,021
-320,299	-200,000	0,001	-0,073
-319,285	-83,244	-0,112	-0,026
-318,270	-200,000	-0,004	-0,056
-317,256	-200,000	-0,002	-0,026
-316,241	-65,517	-0,074	0,021
-315,226	8,754	0,070	0,038
-314,212	65,672	0,144	-0,106
-313,197	-127,505	-0,119	0,012
-312,183	11,724	-0,039	0,022
-311,168	800,000	0,019	-0,040
-310,153	-130,329	0,032	-0,003
-309,139	-101,780	-0,140	-0,024
-308,124	791,294	0,078	-0,156
-307,110	191,331	0,092	0,101
-306,095	-200,000	0,028	0,149
-305,080	-200,000	0,012	0,047
-304,066	-200,000	-0,013	0,155
-303,051	-112,909	-0,030	0,004
-302,037	800,000	-0,038	-0,098
-301,022	664,633	0,064	-0,119
-300,008	364,318	0,031	-0,045
-298,993	-139,404	-0,093	0,007
-297,978	282,881	-0,047	0,061
-296,964	800,000	-0,062	0,133
-295,949	75,603	-0,020	-0,015
-294,935	-108,686	0,013	0,002
-293,920	4,209	-0,037	0,020
-292,905	-200,000	0,007	-0,060
-291,891	105,169	-0,076	-0,065
-290,876	-123,149	0,161	-0,018
-289,862	-3,677	-0,120	0,060
-288,847	162,957	-0,121	-0,123
-287,832	800,000	-0,040	0,110
-286,818	-172,940	0,088	0,002
-285,803	-41,981	0,153	-0,057
-284,789	201,816	0,008	0,009
-283,774	-12,510	0,060	-0,028
-282,759	-26,221	0,098	-0,041
-281,745	-200,000	0,019	-0,102
-280,730	-200,000	0,002	0,035
-279,716	-200,000	0,029	0,098
-278,701	96,006	0,086	0,071
-277,686	800,000	0,047	0,135
-276,672	-200,000	-0,033	-0,164
-275,657	326,259	0,081	0,113
-274,643	423,936	-0,059	-0,092
-273,628	125,344	0,041	-0,037
-272,613	-61,552	-0,055	0,017
-271,599	19,237	-0,040	0,023
-270,584	-200,000	0,002	-0,047
-269,570	-173,512	-0,069	-0,001
-268,555	-85,479	0,056	0,013
-267,540	-200,000	-0,013	0,080
-266,526	-57,710	0,053	-0,017
-265,511	59,984	-0,193	0,138
-264,497	-86,487	0,036	0,008
-263,482	-9,363	-0,079	0,038
-262,467	-110,826	0,086	0,013
-261,453	800,000	0,017	0,048
-260,438	570,218	-0,087	-0,154
-259,424	37,779	0,036	0,023
-258,409	800,000	0,057	-0,129
-257,395	-200,000	0,009	0,100
-256,380	241,897	0,036	0,043
-255,365	800,000	-0,060	-0,163
-254,351	-133,535	-0,114	-0,010
-253,336	800,000	-0,088	-0,224
-252,322	288,841	-0,061	-0,080
-251,307	307,474	-0,013	0,018
-250,292	-130,598	-0,075	-0,007
-249,278	-200,000	0,021	-0,077
-248,263	-71,163	0,093	-0,025
-247,249	-200,000	0,016	0,106
-246,234	-200,000	0,008	0,094
-245,219	296,088	-0,028	-0,037
-244,205	-200,000	0,005	-0,140
-243,190	-113,293	0,209	-0,029
-242,176	-200,000	0,002	0,039
-241,161	-200,000	-0,020	0,078
-240,146	-104,981	0,080	-0,013
-239,132	-109,060	0,097	-0,015
-238,117	-200,000	-0,031	0,284
-237,103	174,661	0,014	0,015
-236,088	229,941	-0,083	-0,099
-235,073	-31,123	-0,078	-0,032
-234,059	-31,466	0,103	0,042
-233,044	-128,832	-0,134	0,013
-232,030	-36,375	-0,062	-0,024
-231,015	-200,000	-0,011	-0,133
-230,000	118,755	0,048	-0,043
-228,986	800,000	-0,020	-0,041
-227,971	-200,000	-0,038	-0,195
-226,957	585,483	0,044	-0,078
-225,942	239,696	-0,083	-0,100
-224,927	296,066	-0,089	0,118
-223,913	-200,000	0,002	-0,056
-222,898	93,642	0,005	0,004
-221,884	146,423	0,042	-0,041
-220,869	411,130	0,092	-0,142
-219,855	71,175	-0,021	0,016
-218,840	-200,000	0,003	0,072
-217,825	-200,000	0,003	0,119
-216,811	-40,733	-0,140	-0,052
-215,796	286,599	0,082	-0,107
-214,782	-29,959	0,069	0,028
-213,767	107,469	-0,034	0,029
-212,752	-200,000	0,013	-0,081
-211,738	784,054	-0,011	0,023
-210,723	800,000	0,040	-0,124
-209,709	108,455	-0,068	-0,059
-208,694	73,818	-0,021	0,016
-207,679	-29,413	0,101	-0,041
-206,665	371,421	0,065	-0,096
-205,650	4,971	0,034	-0,018
-204,636	-126,539	-0,066	-0,007
-203,621	-48,424	0,138	-0,048
-202,606	-81,779	0,125	0,029
-201,592	-200,000	0,003	-0,085
-200,577	203,232	-0,077	0,087
-199,563	-135,556	0,049	-0,004
-198,548	-200,000	0,004	-0,036
-197,533	-200,000	-0,019	-0,102
-196,519	-35,592	-0,018	0,007
-195,504	-116,163	-0,101	-0,013
-194,490	103,822	0,027	-0,023
-193,475	800,000	-0,037	0,114
-192,460	-200,000	0,011	-0,081
-191,446	-200,000	0,010	0,040
-190,431	-200,000	0,009	0,056
-189,417	313,775	0,060	-0,081
-188,402	203,379	0,045	-0,051
-187,387	-103,490	-0,083	-0,014
-186,373	800,000	-0,015	0,040
-185,358	800,000	-0,044	0,110
-184,344	-200,000	-0,036	0,137
-183,329	-90,323	0,038	0,008
-182,315	72,320	0,103	0,077
-181,300	12,620	-0,176	0,098
-180,285	-137,674	-0,024	-0,002
-179,271	-200,000	-0,048	-0,171
-178,256	160,303	-0,074	-0,075
-177,242	-200,000	-0,008	-0,146
-176,227	61,272	0,048	0,034
-175,212	-200,000	0,045	0,146
-174,198	442,891	0,078	0,124
-173,183	-45,516	-0,023	-0,008
-172,169	631,644	0,053	0,097
-171,154	46,753	-0,122	-0,082
-170,139	716,685	0,043	-0,083
-169,125	-200,000	-0,013	-0,052
-168,110	-36,990	0,078	-0,030
-167,096	15,749	0,077	-0,044
-166,081	-200,000	-0,009	-0,139
-165,066	-200,000	-0,031	-0,185
-164,052	34,649	-0,036	0,022
-163,037	6,306	0,123	0,066
-162,023	-200,000	-0,005	0,057
-161,008	-117,130	0,085	0,011
-159,993	800,000	0,007	0,021
-158,979	800,000	0,013	-0,041
-157,964	387,637	-0,095	-0,142
-156,950	5,230	-0,066	0,035
-155,935	154,479	-0,027	0,027
-154,920	-79,384	0,183	-0,044
-153,906	800,000	0,020	0,040
-152,891	800,000	-0,048	0,137
-151,877	88,328	0,075	-0,060
-150,862	-121,610	-0,090	-0,011
-149,847	-200,000	0,003	0,035
-148,833	800,000	0,022	0,050
-147,818	100,207	0,061	-0,051
-146,804	800,000	-0,023	-0,054
-145,789	486,138	-0,026	-0,044
-144,775	-200,000	-0,021	-0,126
-143,760	284,541	-0,095	-0,123
-142,745	262,968	0,053	-0,066
-141,731	157,836	0,073	0,073
-140,716	369,923	-0,023	0,034
-139,702	286,438	0,044	0,057
-138,687	-200,000	0,001	0,136
-137,672	-200,000	0,006	0,086
-136,658	800,000	-0,043	-0,126
-135,643	-57,009	-0,119	-0,038
-134,629	800,000	-0,032	0,065
-133,614	800,000	0,050	0,143
-132,599	397,822	0,084	0,127
-131,585	204,656	0,073	0,082
-130,570	43,349	-0,096	-0,063
-129,556	800,000	0,039	-0,086
-128,541	-145,500	-0,029	-0,002
-127,526	2,200	-0,093	-0,048
-126,512	-55,859	-0,039	-0,013
-125,497	75,707	0,129	-0,098
-124,483	473,660	-0,031	0,050
-123,468	-74,133	0,063	0,016
-122,453	-118,465	-0,059	-0,007
-121,439	-61,103	-0,084	-0,025
-120,424	800,000	-0,039	-0,108
-119,410	391,886	0,062	0,093
-118,395	-200,000	0,037	0,128
-117,380	102,272	-0,050	0,042
-116,366	2,471	0,081	0,042
-115,351	6,154	-0,148	-0,078
-114,337	586,121	-0,036	0,065
-113,322	-52,649	-0,095	-0,031
-112,307	258,973	0,057	-0,071
-111,293	189,508	-0,064	-0,070
-110,278	56,598	0,110	0,077
-109,264	-200,000	0,014	-0,114
-108,249	800,000	-0,033	-0,075
-107,234	15,959	-0,034	-0,019
-106,220	-23,741	-0,061	-0,026
-105,205	800,000	-0,057	0,155
-104,191	465,537	0,071	0,115
-103,176	-135,451	0,139	-0,012
-102,162	-200,000	0,018	-0,104
-101,147	-200,000	0,010	-0,038
-100,132	-181,107	-0,099	0,001
-99,118	-115,980	-0,037	-0,005
-98,103	800,000	0,016	0,036
-97,089	-90,627	0,156	0,032
-96,074	-142,258	-0,063	-0,004
-95,059	213,520	-0,036	0,041
-94,045	534,772	-0,055	-0,095
-93,030	-34,421	0,018	-0,007
-92,016	800,000	0,014	-0,042
-91,001	52,979	0,093	-0,064
-89,986	800,000	-0,023	0,059
-88,972	-67,591	0,065	0,018
-87,957	89,547	-0,114	-0,092
-86,943	-67,904	-0,122	-0,034
-85,928	800,000	0,022	0,051
-84,913	39,548	-0,088	0,056
-83,899	308,281	-0,061	0,082
-82,884	-56,197	0,041	-0,013
-81,870	757,160	0,072	0,141
-80,855	-200,000	0,019	-0,084
-79,840	15,694	0,078	-0,044
-78,826	41,210	-0,044	0,029
-77,811	-111,241	-0,090	-0,013
-76,797	-200,000	-0,004	-0,061
-75,782	800,000	-0,034	0,105
-74,767	519,304	0,037	-0,063
-73,753	410,983	-0,083	0,127
-72,738	800,000	-0,064	-0,135
-71,724	255,253	-0,003	0,004
-70,709	-87,801	-0,033	0,007
-69,694	-200,000	0,005	-0,059
-68,680	-200,000	0,000	0,023
-67,665	188,558	0,082	0,088
-66,651	-98,684	0,064	0,012
-65,636	251,910	-0,128	-0,157
-64,622	164,025	-0,050	-0,051
-63,607	179,033	-0,110	0,116
-62,592	-84,198	-0,162	0,037
-61,578	800,000	-0,039	0,103
-60,563	133,604	-0,146	0,135
-59,549	-200,000	-0,017	0,119
-58,534	-18,450	-1,926	-0,860
-57,519	800,000	-0,337	-0,893
-56,505	-200,000	-1,191	-4,875
-55,490	59,550	0,658	0,465
-54,476	800,000	5,152	11,901
-53,461	-200,000	17,487	284,300
-52,446	800,000	724,273	2224,874
-51,432	541,240	1640,194	2816,382
-50,417	111,245	1631,751	1411,391
-49,403	75,545	1286,347	974,071
-48,388	32,496	1028,192	636,387
-47,373	20,216	990,194	572,347
-46,359	18,680	978,144	560,317
-45,344	15,995	974,378	549,344
-44,330	16,257	972,616	549,187
-43,315	15,762	970,861	546,554
-42,300	15,733	969,777	545,827
-41,286	15,723	968,739	545,192
-40,271	15,685	967,685	544,450
-39,257	15,713	966,912	544,088
-38,242	15,699	966,207	543,621
-37,227	15,751	965,247	543,231
-36,213	15,728	964,411	542,662
-35,198	15,664	963,511	541,929
-34,184	15,750	962,783	541,777
-33,169	15,699	961,570	540,907
-32,154	15,712	960,987	540,600
-31,140	15,778	959,949	540,207
-30,125	15,696	959,296	539,554
-29,111	15,713	958,382	539,072
-28,096	15,743	957,838	538,843
-27,082	15,752	957,105	538,436
-26,067	15,716	956,464	537,940
-25,052	15,757	955,634	537,582
-24,038	15,704	954,945	537,003
-23,023	15,733	954,207	536,661
-22,009	15,739	953,638	536,339
-20,994	15,724	953,114	535,975
-19,979	15,778	952,325	535,682
-18,965	15,704	951,725	535,087
-17,950	15,775	951,174	534,983
-16,936	15,681	950,533	534,300
-15,921	15,692	949,692	533,842
-14,906	15,599	949,126	533,206
-13,892	15,573	948,517	532,758
-12,877	15,616	947,919	532,539
-11,863	15,591	947,229	532,052
-10,848	15,560	946,839	531,711
-9,833	15,670	946,173	531,667
-8,819	15,629	945,545	531,161
-7,804	15,632	944,839	530,753
-6,790	15,619	944,359	530,421
-5,775	15,627	943,812	530,119
-4,760	15,643	943,039	529,716
-3,746	15,576	942,543	529,204
-2,731	15,483	941,895	528,525
-1,717	15,415	941,137	527,862
-0,702	15,457	940,628	527,689
0,313	15,262	939,902	527,460
1,327	18,455	937,707	536,249
2,342	27,429	794,841	478,342
3,356	24,169	459,169	271,320
4,371	-2,982	313,978	156,708
5,386	-7,080	295,672	143,419
6,400	-9,286	289,705	138,324
7,415	-9,468	287,078	136,879
8,429	-9,790	285,839	135,961
9,444	-9,817	284,743	135,402
10,459	-9,786	284,231	135,176
11,473	-9,903	283,568	134,735
12,488	-9,814	283,186	134,628
13,502	-9,749	282,473	134,340
14,517	-9,813	282,199	134,135
15,531	-9,695	281,640	133,972
16,546	-9,685	281,234	133,776
17,561	-9,710	280,971	133,615
18,575	-9,859	280,720	133,341
19,590	-9,814	280,348	133,195
20,604	-9,741	279,962	133,070
21,619	-9,754	279,597	132,872
22,634	-9,929	279,327	132,565
23,648	-9,864	278,990	132,456
24,663	-9,881	278,762	132,319
25,677	-9,861	278,424	132,166
26,692	-9,738	278,142	132,137
27,707	-9,726	277,921	132,032
28,721	-9,741	277,549	131,829
29,736	-9,924	277,337	131,543
30,750	-9,926	277,125	131,429
31,765	-9,704	276,872	131,507
32,780	-9,895	276,605	131,188
33,794	-9,883	276,385	131,083
34,809	-9,789	276,274	131,108
35,823	-9,796	275,824	130,876
36,838	-9,909	275,532	130,620
37,853	-9,888	275,385	130,558
38,867	-9,810	275,157	130,512
39,882	-9,804	274,941	130,403
40,896	-9,869	274,630	130,183
41,911	-9,792	274,457	130,162
42,926	-9,902	274,130	129,891
43,940	-9,807	273,904	129,862
44,955	-9,619	273,630	129,896
45,969	-9,930	273,440	129,504
46,984	-10,040	273,238	129,294
47,999	-10,090	272,882	129,068
49,013	-10,352	272,813	128,780
50,028	-10,376	272,302	128,505
51,042	-10,514	272,111	128,276
52,057	-10,632	271,945	128,076
53,071	-10,518	271,757	128,082
54,086	-10,399	271,443	128,032
55,101	-10,122	271,395	128,255
56,115	-10,121	271,122	128,115
57,130	-9,757	271,088	128,424
58,144	-9,741	270,917	128,346
59,159	-9,542	270,437	128,292
60,174	-9,703	270,409	128,118
61,188	-9,819	270,260	127,929
62,203	-9,679	269,982	127,915
63,217	-9,624	269,842	127,888
64,232	-9,696	269,547	127,670
65,247	-9,678	269,353	127,583
66,261	-9,766	269,028	127,337
67,276	-9,835	268,641	127,080
68,290	-10,053	268,494	126,800
69,305	-10,124	268,352	126,657
70,320	-10,060	268,181	126,623
71,334	-9,798	268,052	126,790
72,349	-9,594	267,584	126,744
73,363	-9,726	267,583	126,611
74,378	-9,817	267,514	126,484
75,393	-9,833	267,193	126,306
76,407	-9,655	267,064	126,396
77,422	-9,808	266,726	126,086
78,436	-9,566	266,386	126,134
79,451	-9,680	266,154	125,909
80,466	-9,751	265,882	125,705
81,480	-9,822	265,776	125,579
82,495	-9,800	265,508	125,462
83,509	-9,936	265,421	125,287
84,524	-9,838	265,076	125,201
85,539	-10,001	264,827	124,926
86,553	-9,952	264,674	124,886
87,568	-9,738	264,486	124,978
88,582	-9,995	264,322	124,659
89,597	-9,915	264,106	124,618
90,611	-9,855	263,999	124,610
91,626	-9,719	263,969	124,707
92,641	-9,802	263,622	124,457
93,655	-9,794	263,492	124,392
94,670	-9,975	263,169	124,067
95,684	-9,668	262,973	124,238
96,699	-9,884	262,809	123,956
97,714	-9,924	262,634	123,827
98,728	-9,820	262,337	123,768
99,743	-10,044	262,191	123,489
100,757	-10,058	261,823	123,292
101,772	-9,900	261,788	123,405
102,787	-9,789	261,492	123,353
103,801	-9,989	261,425	123,133
104,816	-9,750	261,225	123,240
105,830	-9,696	261,160	123,246
106,845	-9,822	260,922	123,011
107,860	-9,715	260,639	122,961
108,874	-9,760	260,352	122,776
109,889	-9,754	260,084	122,643
110,903	-9,887	259,951	122,452
111,918	-9,776	259,849	122,492
112,933	-9,793	259,688	122,389
113,947	-9,724	259,511	122,356
114,962	-9,767	259,262	122,190
115,976	-9,636	259,002	122,172
116,991	-9,605	258,950	122,163
118,006	-9,824	258,749	121,865
119,020	-9,827	258,594	121,779
120,035	-9,587	258,434	121,903
121,049	-9,613	258,115	121,719
122,064	-9,819	257,942	121,447
123,079	-9,771	257,909	121,462
124,093	-9,785	257,624	121,305
125,108	-9,904	257,451	121,108
126,122	-10,325	257,130	120,580
127,137	-10,210	257,035	120,625
128,151	-10,143	256,746	120,537
129,166	-9,867	256,583	120,689
130,181	-9,915	256,287	120,498
131,195	-10,066	256,136	120,285
132,210	-9,803	255,956	120,417
133,224	-9,719	255,828	120,420
134,239	-9,725	255,759	120,371
135,254	-9,628	255,385	120,268
136,268	-10,102	255,369	119,840
137,283	-10,006	254,916	119,700
138,297	-10,075	254,759	119,556
139,312	-10,203	254,529	119,327
140,327	-10,033	254,556	119,475
141,341	-9,762	254,515	119,679
142,356	-9,786	254,369	119,580
143,370	-9,510	253,918	119,594
144,385	-9,535	253,835	119,522
145,400	-9,429	253,707	119,542
146,414	-9,710	253,638	119,258
147,429	-9,685	253,375	119,145
148,443	-9,753	253,188	118,988
149,458	-9,478	252,829	119,044
150,473	-9,659	252,894	118,909
151,487	-9,610	252,537	118,772
152,502	-9,548	252,310	118,708
153,516	-9,662	252,192	118,545
154,531	-9,655	252,026	118,462
155,546	-9,285	251,765	118,644
156,560	-9,550	251,826	118,437
157,575	-9,542	251,434	118,248
158,589	-9,820	251,459	118,013
159,604	-9,671	251,216	118,016
160,619	-9,702	250,924	117,841
161,633	-9,456	250,752	117,958
162,648	-9,488	250,510	117,807
163,662	-9,346	250,327	117,830
164,677	-9,617	250,296	117,576
165,692	-9,605	250,154	117,509
166,706	-9,460	249,954	117,527
167,721	-9,687	249,837	117,270
168,735	-9,564	249,727	117,312
169,750	-9,400	249,423	117,297
170,764	-9,344	249,270	117,261
171,779	-9,469	249,239	117,131
172,794	-9,516	249,070	117,002
173,808	-9,573	248,859	116,844
174,823	-10,059	248,565	116,288
175,837	-10,104	248,342	116,136
176,852	-9,671	248,281	116,460
177,867	-9,526	248,067	116,470
178,881	-9,533	248,014	116,430
179,896	-9,413	247,771	116,405
180,910	-9,564	247,702	116,236
181,925	-9,583	247,391	116,063
182,940	-9,293	247,243	116,226
183,954	-9,466	247,137	116,021
184,969	-9,424	246,990	115,977
185,983	-9,487	246,949	115,895
186,998	-9,364	246,618	115,832
188,013	-9,472	246,530	115,691
189,027	-9,524	246,207	115,485
190,042	-9,359	246,045	115,536
191,056	-9,655	246,002	115,260
192,071	-9,566	245,717	115,189
193,086	-9,539	245,450	115,077
194,100	-9,549	245,399	115,034
195,115	-9,586	245,283	114,939
196,129	-9,463	245,069	114,930
197,144	-9,442	244,765	114,794
198,159	-9,338	244,516	114,753
199,173	-9,572	244,545	114,564
200,188	-9,571	244,405	114,489
201,202	-9,754	243,934	114,107
202,217	-9,943	243,724	113,844
203,232	-10,113	243,670	113,669
204,246	-9,699	243,649	113,988
205,261	-9,216	243,508	114,308
206,275	-10,188	243,196	113,357
207,290	-7,029	244,349	116,479
208,304	-0,034	246,755	123,404
209,319	3,880	247,713	127,113
210,334	4,410	247,566	127,464
211,348	4,481	247,562	127,509
212,363	4,525	247,478	127,491
213,377	4,818	247,316	127,637
214,392	4,568	247,217	127,369
215,407	4,509	246,906	127,149
216,421	4,304	246,960	126,996
217,436	4,740	246,763	127,243
218,450	4,864	246,494	127,195
219,465	4,386	246,395	126,739
220,480	4,499	246,046	126,641
221,494	4,309	245,947	126,423
222,509	4,228	245,781	126,260
223,523	4,126	245,627	126,087
224,538	3,752	245,303	125,603
225,553	4,051	245,213	125,790
226,567	4,008	245,108	125,690
227,582	4,157	244,924	125,706
228,596	4,312	244,739	125,726
229,611	3,900	244,588	125,302
230,626	3,838	244,393	125,140
231,640	3,997	244,188	125,153
232,655	4,174	244,063	125,222
233,669	4,145	243,732	125,017
234,684	3,782	243,661	124,675
235,699	4,108	243,619	124,907
236,713	4,424	243,483	125,082
237,728	4,109	243,165	124,653
238,742	3,902	242,915	124,346
239,757	3,717	242,844	124,149
240,772	3,945	242,829	124,315
241,786	4,129	242,504	124,286
242,801	3,884	242,392	124,020
243,815	3,800	242,303	123,895
244,830	4,296	242,108	124,185
245,844	4,022	242,059	123,927
246,859	3,952	241,750	123,702
247,874	3,965	241,591	123,620
248,888	4,057	241,448	123,610
249,903	3,997	241,598	123,627
250,917	4,202	241,231	123,593
251,932	4,253	241,146	123,579
252,947	4,324	240,956	123,527
253,961	3,987	240,745	123,139
254,976	4,198	240,527	123,185
255,990	4,189	240,501	123,153
257,005	3,977	240,311	122,876
258,020	3,762	240,117	122,594
259,034	3,953	240,007	122,679
260,049	4,066	239,922	122,715
261,063	3,699	239,600	122,247
262,078	3,864	239,488	122,311
263,093	4,383	239,339	122,636
264,107	4,287	239,380	122,570
265,122	4,031	239,007	122,164
266,136	4,111	239,008	122,218
267,151	4,415	238,716	122,299
268,166	3,978	238,537	121,850
269,180	3,901	238,315	121,665
270,195	4,598	238,301	122,198
271,209	4,835	238,387	122,419
272,224	4,034	238,043	121,598
273,239	3,755	237,654	121,169
274,253	3,764	237,583	121,129
275,268	4,154	237,453	121,359
276,282	4,082	237,301	121,214
277,297	3,819	237,218	120,954
278,312	3,936	237,008	120,928
279,326	4,010	237,066	121,004
280,341	4,101	236,864	120,962
281,355	3,939	236,703	120,743
282,370	3,916	236,518	120,619
283,384	3,965	236,406	120,590
284,399	3,807	236,010	120,253
285,414	3,679	235,994	120,134
286,428	3,879	235,789	120,175
287,443	3,611	235,775	119,948
288,457	3,966	235,723	120,188
289,472	4,129	235,504	120,193
290,487	4,109	235,260	120,042
291,501	3,802	235,121	119,721
292,516	3,603	234,821	119,403
293,530	3,745	234,682	119,432
294,545	3,904	234,714	119,561
295,560	4,042	234,514	119,556
296,574	3,795	234,363	119,277
297,589	3,799	234,297	119,235
298,603	4,419	234,124	119,618
299,618	4,126	233,933	119,282
300,633	4,195	233,813	119,264
301,647	4,097	233,829	119,186
302,662	4,494	233,681	119,407
303,676	4,318	233,678	119,258
304,691	4,220	233,374	119,017
305,706	4,414	233,250	119,093
306,720	4,607	232,983	119,094
307,735	4,169	232,907	118,708
308,749	4,013	232,690	118,466
309,764	3,907	232,444	118,249
310,779	3,931	232,242	118,154
311,793	3,523	232,125	117,771
312,808	3,730	231,811	117,759
313,822	3,581	231,716	117,586
314,837	3,947	231,565	117,780
315,852	3,720	231,550	117,588
316,866	3,913	231,394	117,646
317,881	3,950	231,244	117,588
318,895	4,038	231,140	117,592
319,910	4,490	231,104	117,907
320,925	4,342	230,939	117,700
321,939	3,835	230,750	117,207
322,954	3,968	230,713	117,279
323,968	3,678	230,395	116,886
324,983	3,860	230,249	116,940
325,997	4,071	230,120	117,024
327,012	4,437	229,994	117,228
328,027	4,486	229,669	117,089
329,041	4,360	229,760	117,030
330,056	4,675	229,818	117,288
331,070	4,928	229,549	117,332
332,085	4,222	229,386	116,703
333,100	4,249	229,071	116,553
334,114	4,031	228,877	116,279
335,129	4,481	228,877	116,608
336,143	4,864	228,734	116,814
337,158	4,521	228,599	116,477
338,173	4,167	228,512	116,155
339,187	4,032	228,265	115,917
340,202	4,106	228,101	115,879
341,216	4,134	227,933	115,805
342,231	4,190	228,034	115,887
343,246	4,251	227,740	115,774
344,260	4,388	227,505	115,747
345,275	4,545	227,468	115,835
346,289	4,766	227,224	115,866
347,304	4,456	227,212	115,618
348,319	4,528	227,008	115,558
349,333	4,358	226,889	115,360
350,348	4,189	226,653	115,103
351,362	4,025	226,664	114,976
352,377	3,947	226,335	114,740
353,392	3,830	226,187	114,568
354,406	3,979	226,002	114,575
355,421	196,165	1322,625	1401,933
356,435	157,261	1456,233	1401,938
