DTS Sentinel unit serial number:	SN410029Multiplexer serial number:	ORYXHardware model number:	OX2-SRSoftware version number:	ORYX F/W v4,00 Oryx Data Collector v3.7.2.0data status	okinstallation	B5 Nyhavnadifferential loss correction	single-endedforward channel	channel 2reverse channel	N/Adate	2023/12/13time	22:57:13forward acquisition time	300,00reverse acquisition time	0,00gamma	499,1914k internal	0,3154k external	0,3154temperature offset calibration	1,0000default loss term (dB/km)	0,3820temperature slope calibration	1,0000multiplexer offset coefficient	1,0000multiplexer slope coefficient	1,0000fibre end	0,00T internal ref (°C)	9,12T ext. ref 1 (°C)	-7,51T ext. ref 2 (°C)	-7,53length (m)	temperature (°C)	Stokes	anti-Stokes-744,400	-126,944	0,217	-0,023
-743,385	-79,242	-0,398	-0,099
-742,371	367,162	0,126	0,189
-741,356	-124,037	-0,517	-0,059
-740,342	-104,986	0,203	0,034
-739,327	-62,352	-0,339	-0,104
-738,312	16,714	0,161	0,094
-737,298	-85,769	-0,352	-0,080
-736,283	2,616	0,066	-0,035
-735,269	29,132	-0,282	-0,176
-734,254	-118,693	0,118	0,015
-733,239	64,726	-0,498	-0,371
-732,225	-120,010	0,234	0,029
-731,210	-25,754	0,126	0,055
-730,196	99,226	0,072	0,061
-729,181	-200,000	-0,040	-0,183
-728,167	612,097	0,059	0,110
-727,152	-143,716	0,079	0,005
-726,137	-15,463	-0,072	-0,034
-725,123	-200,000	-0,015	0,067
-724,108	36,280	-0,122	-0,079
-723,094	523,092	-0,145	-0,253
-722,079	-200,000	-0,007	-0,228
-721,064	-200,000	-0,012	-0,124
-720,050	-62,857	0,007	-0,002
-719,035	54,762	-0,072	-0,051
-718,021	356,980	-0,072	0,106
-717,006	87,106	-0,047	0,038
-715,991	-200,000	-0,005	0,000
-714,977	-179,741	-0,167	0,003
-713,962	800,000	-0,040	-0,119
-712,948	-200,000	-0,001	0,160
-711,933	800,000	0,036	0,110
-710,918	449,643	-0,059	0,097
-709,904	800,000	0,033	-0,106
-708,889	-29,676	-0,084	-0,035
-707,875	36,600	0,018	-0,012
-706,860	323,341	-0,033	0,047
-705,845	242,763	0,035	0,044
-704,831	246,990	0,060	-0,075
-703,816	254,832	-0,074	-0,093
-702,802	-118,742	0,142	-0,018
-701,787	-40,425	-0,203	0,077
-700,772	421,283	-0,011	0,018
-699,758	149,138	-0,122	0,121
-698,743	-45,939	0,087	0,032
-697,729	-65,870	0,107	-0,031
-696,714	142,261	0,128	0,125
-695,699	-86,398	-0,070	-0,016
-694,685	75,516	-0,073	-0,057
-693,670	800,000	-0,050	-0,120
-692,656	272,003	0,034	0,044
-691,641	-87,377	0,116	0,026
-690,627	-200,000	0,008	0,053
-689,612	-173,574	0,115	-0,002
-688,597	-200,000	-0,035	-0,136
-687,583	-200,000	0,007	0,077
-686,568	96,103	-0,092	-0,077
-685,554	663,592	-0,058	-0,111
-684,539	-200,000	-0,030	0,153
-683,524	-200,000	-0,015	0,103
-682,510	25,570	-0,090	0,055
-681,495	130,471	-0,024	-0,023
-680,481	57,787	-0,040	-0,029
-679,466	200,501	-0,089	-0,101
-678,451	-200,000	-0,003	-0,055
-677,437	371,073	-0,026	0,039
-676,422	261,797	0,118	0,151
-675,408	800,000	0,053	0,123
-674,393	-200,000	-0,002	0,144
-673,378	-62,428	-0,070	0,021
-672,364	-111,309	-0,086	0,013
-671,349	-45,984	-0,015	0,005
-670,335	-119,156	0,032	0,004
-669,320	149,074	-0,106	0,106
-668,305	-200,000	0,024	0,087
-667,291	313,694	0,031	0,043
-666,276	-140,181	-0,065	0,005
-665,262	-200,000	-0,006	0,138
-664,247	-200,000	0,021	0,088
-663,232	-66,314	0,089	0,026
-662,218	46,134	0,125	0,085
-661,203	-200,000	-0,016	0,080
-660,189	30,049	-0,133	0,083
-659,174	-24,774	0,014	0,006
-658,159	124,273	0,118	-0,109
-657,145	-28,597	-0,066	-0,028
-656,130	-59,462	0,072	0,023
-655,116	70,770	0,172	0,131
-654,101	-145,618	-0,088	-0,006
-653,086	-174,139	-0,031	-0,001
-652,072	-200,000	-0,039	-0,144
-651,057	-200,000	-0,020	-0,074
-650,043	26,703	-0,024	-0,015
-649,028	-184,339	-0,018	0,000
-648,014	47,397	0,101	-0,069
-646,999	574,640	-0,056	-0,102
-645,984	605,935	-0,043	-0,080
-644,970	-102,283	-0,096	-0,017
-643,955	-200,000	-0,028	-0,148
-642,941	800,000	-0,067	0,145
-641,926	110,563	0,063	-0,056
-640,911	620,920	-0,048	-0,089
-639,897	91,310	0,035	0,029
-638,882	75,682	-0,038	0,030
-637,868	-149,608	-0,094	-0,005
-636,853	800,000	-0,040	-0,113
-635,838	104,330	0,013	-0,011
-634,824	9,127	-0,064	-0,035
-633,809	120,873	0,114	0,104
-632,795	-113,839	-0,027	-0,004
-631,780	119,021	0,068	0,062
-630,765	17,023	0,039	-0,023
-629,751	-141,187	-0,187	0,014
-628,736	-200,000	-0,004	-0,084
-627,722	123,376	-0,090	0,083
-626,707	88,382	-0,030	-0,024
-625,692	68,831	-0,086	-0,065
-624,678	238,317	0,045	0,056
-623,663	-84,815	0,060	0,014
-622,649	-73,791	-0,061	-0,016
-621,634	210,369	0,044	-0,051
-620,619	800,000	0,041	-0,087
-619,605	-143,188	0,113	0,008
-618,590	-200,000	-0,000	0,042
-617,576	55,015	-0,157	0,111
-616,561	225,434	-0,046	0,055
-615,546	-200,000	0,021	0,136
-614,532	253,403	0,044	-0,055
-613,517	-200,000	-0,022	-0,092
-612,503	800,000	-0,054	-0,127
-611,488	-7,314	0,061	0,030
-610,474	-200,000	-0,012	-0,056
-609,459	429,799	0,024	0,039
-608,444	416,679	0,049	0,076
-607,430	365,319	-0,078	-0,116
-606,415	-200,000	-0,030	-0,170
-605,401	197,581	0,063	-0,070
-604,386	-168,942	-0,128	-0,003
-603,371	43,256	0,050	0,033
-602,357	-43,642	-0,061	-0,023
-601,342	-200,000	-0,000	0,118
-600,328	31,452	-0,131	0,082
-599,313	267,429	-0,018	0,023
-598,298	120,170	-0,098	0,089
-597,284	20,624	-0,010	0,006
-596,269	259,551	-0,037	-0,047
-595,255	800,000	-0,067	-0,143
-594,240	-125,004	-0,116	-0,013
-593,225	-200,000	0,012	-0,107
-592,211	528,252	-0,092	0,161
-591,196	31,303	0,067	0,042
-590,182	93,581	0,042	0,035
-589,167	-37,926	-0,028	-0,011
-588,152	-122,440	0,105	0,012
-587,138	424,587	0,004	-0,007
-586,123	-200,000	0,017	-0,060
-585,109	219,002	-0,052	-0,062
-584,094	-200,000	0,010	-0,092
-583,079	-200,000	-0,013	0,087
-582,065	-4,015	-0,050	0,025
-581,050	-200,000	-0,040	-0,132
-580,036	-200,000	-0,005	0,025
-579,021	-200,000	-0,016	0,134
-578,006	-154,321	-0,056	-0,003
-576,992	-143,773	0,019	-0,001
-575,977	493,983	-0,019	0,031
-574,963	159,529	0,102	0,104
-573,948	659,910	-0,041	-0,078
-572,934	227,228	-0,068	-0,082
-571,919	373,466	-0,040	0,060
-570,904	323,914	-0,090	0,126
-569,890	333,051	-0,052	-0,075
-568,875	248,163	-0,059	-0,073
-567,861	-121,183	0,164	-0,020
-566,846	-25,091	0,163	0,071
-565,831	72,187	-0,118	-0,090
-564,817	-18,018	-0,064	-0,029
-563,802	800,000	0,072	-0,159
-562,788	-28,821	-0,188	-0,079
-561,773	-106,462	0,089	0,014
-560,758	89,298	-0,034	-0,027
-559,744	800,000	0,058	0,162
-558,729	-126,633	-0,056	0,006
-557,715	-26,160	-0,086	0,037
-556,700	-63,675	0,051	-0,015
-555,685	-180,862	-0,067	-0,001
-554,671	390,064	-0,036	0,055
-553,656	-67,097	0,020	-0,006
-552,642	-56,516	0,060	-0,019
-551,627	626,810	-0,041	0,077
-550,612	102,038	-0,075	0,064
-549,598	800,000	0,044	-0,126
-548,583	-200,000	0,003	-0,015
-547,569	305,241	-0,048	0,065
-546,554	800,000	-0,007	0,017
-545,539	800,000	-0,010	0,028
-544,525	-76,007	-0,009	0,002
-543,510	-101,786	-0,140	-0,025
-542,496	-66,456	0,095	0,028
-541,481	-200,000	0,011	-0,117
-540,466	-72,521	0,049	0,013
-539,452	36,012	0,059	0,038
-538,437	-124,318	0,175	0,020
-537,423	-200,000	-0,016	0,163
-536,408	48,205	-0,059	0,041
-535,393	456,045	-0,037	-0,060
-534,379	-83,949	-0,107	-0,025
-533,364	164,336	-0,080	0,083
-532,350	115,720	-0,096	-0,086
-531,335	274,253	0,044	0,057
-530,321	-148,874	0,073	0,004
-529,306	-200,000	-0,008	0,036
-528,291	97,915	0,145	-0,122
-527,277	22,672	-0,107	-0,064
-526,262	2,250	0,125	-0,066
-525,248	-161,234	0,093	-0,003
-524,233	116,419	-0,077	-0,069
-523,218	-200,000	0,009	0,060
-522,204	-200,000	0,014	-0,092
-521,189	-4,889	0,078	0,039
-520,175	247,241	0,065	-0,081
-519,160	245,228	-0,041	-0,050
-518,145	751,681	0,043	-0,085
-517,131	82,949	0,103	0,082
-516,116	52,904	-0,046	-0,032
-515,102	100,019	-0,012	0,010
-514,087	-173,467	-0,069	-0,001
-513,072	756,797	-0,034	-0,067
-512,058	800,000	0,067	0,142
-511,043	-200,000	0,013	-0,116
-510,029	54,240	0,008	-0,005
-509,014	-200,000	0,013	-0,091
-507,999	-49,088	0,035	0,012
-506,985	-70,669	0,043	-0,012
-505,970	115,001	-0,080	0,071
-504,956	294,479	-0,029	-0,038
-503,941	800,000	-0,021	-0,047
-502,926	602,253	0,064	0,117
-501,912	177,049	0,110	0,117
-500,897	-200,000	0,023	-0,126
-499,883	-164,376	-0,132	0,004
-498,868	-200,000	0,012	-0,093
-497,853	-200,000	-0,013	-0,110
-496,839	185,752	0,019	-0,021
-495,824	-126,447	0,130	0,014
-494,810	-60,287	-0,088	0,027
-493,795	-200,000	0,006	0,100
-492,781	800,000	-0,034	-0,087
-491,766	-175,206	-0,131	-0,003
-490,751	-200,000	0,005	0,031
-489,737	-200,000	-0,023	0,076
-488,722	452,728	0,046	-0,075
-487,708	7,589	-0,059	0,032
-486,693	-156,429	0,121	-0,005
-485,678	-69,127	-0,046	0,013
-484,664	-72,205	-0,088	0,024
-483,649	31,859	0,024	0,015
-482,635	188,799	0,034	-0,037
-481,620	307,351	-0,062	-0,084
-480,605	-200,000	0,003	-0,033
-479,591	-200,000	-0,015	-0,057
-478,576	493,428	-0,020	-0,034
-477,562	-200,000	0,039	-0,233
-476,547	32,012	-0,032	-0,020
-475,532	-72,410	0,126	0,034
-474,518	-200,000	-0,014	-0,110
-473,503	371,902	0,028	0,042
-472,489	-200,000	-0,006	0,029
-471,474	-12,774	0,017	-0,008
-470,459	46,021	0,121	-0,082
-469,445	120,929	-0,083	-0,075
-468,430	426,436	-0,028	-0,044
-467,416	-15,679	0,064	0,030
-466,401	118,055	0,109	0,098
-465,386	-200,000	0,004	0,046
-464,372	-69,496	0,064	-0,018
-463,357	56,037	0,068	-0,048
-462,343	800,000	-0,005	-0,014
-461,328	-101,895	0,022	0,004
-460,313	800,000	0,028	0,076
-459,299	800,000	-0,022	0,063
-458,284	179,333	0,062	0,066
-457,270	800,000	-0,108	0,236
-456,255	-200,000	0,005	-0,051
-455,241	-200,000	-0,006	-0,073
-454,226	-200,000	0,012	-0,078
-453,211	309,696	0,072	-0,098
-452,197	-117,325	0,061	0,008
-451,182	-171,818	0,069	-0,002
-450,168	800,000	-0,072	0,166
-449,153	-93,481	0,053	-0,011
-448,138	162,693	-0,080	-0,082
-447,124	84,186	-0,059	-0,047
-446,109	-111,716	0,090	-0,013
-445,095	-200,000	0,008	0,138
-444,080	460,211	0,041	-0,066
-443,065	165,075	-0,080	-0,082
-442,051	-156,499	-0,177	-0,008
-441,036	-182,002	-0,159	-0,002
-440,022	212,439	0,011	-0,013
-439,007	743,015	0,018	0,035
-437,992	-42,605	0,075	-0,028
-436,978	-200,000	-0,014	0,131
-435,963	-21,301	-0,099	-0,044
-434,949	91,021	0,031	-0,026
-433,934	568,220	0,020	0,036
-432,919	673,228	-0,062	-0,117
-431,905	482,896	-0,016	-0,027
-430,890	-200,000	0,008	-0,131
-429,876	546,027	-0,026	-0,045
-428,861	132,342	0,027	-0,025
-427,846	7,593	-0,111	-0,060
-426,832	-114,198	-0,108	0,015
-425,817	53,267	-0,038	0,027
-424,803	-151,262	0,097	0,005
-423,788	-54,061	0,053	0,017
-422,773	-1,079	0,085	-0,044
-421,759	-40,225	0,066	0,025
-420,744	-200,000	-0,005	-0,068
-419,730	800,000	-0,077	-0,171
-418,715	317,581	0,006	-0,009
-417,701	132,817	0,072	-0,067
-416,686	800,000	0,022	-0,056
-415,671	-200,000	-0,001	-0,215
-414,657	72,511	-0,070	-0,053
-413,642	-200,000	-0,028	-0,113
-412,628	800,000	0,026	-0,069
-411,613	64,645	-0,070	-0,052
-410,598	99,416	-0,031	0,026
-409,584	-177,388	0,166	0,003
-408,569	113,488	-0,017	-0,015
-407,555	332,122	0,102	0,144
-406,540	454,952	-0,042	0,068
-405,525	-200,000	0,007	0,102
-404,511	-13,422	-0,050	-0,024
-403,496	-200,000	0,015	0,049
-402,482	199,051	-0,048	0,054
-401,467	-200,000	0,041	0,186
-400,452	-200,000	-0,027	0,106
-399,438	101,782	0,231	0,196
-398,423	-160,205	-0,086	-0,003
-397,409	-200,000	-0,023	0,088
-396,394	-61,321	-0,058	-0,018
-395,379	-200,000	0,024	-0,130
-394,365	800,000	0,018	0,055
-393,350	77,117	0,076	0,059
-392,336	318,149	0,075	-0,104
-391,321	378,604	-0,097	0,145
-390,306	-147,512	-0,077	0,005
-389,292	358,078	-0,020	-0,030
-388,277	-70,822	-0,067	0,018
-387,263	108,245	-0,100	0,087
-386,248	325,007	-0,042	0,058
-385,233	-200,000	-0,006	0,023
-384,219	410,829	0,030	-0,046
-383,204	-191,703	-0,154	-0,001
-382,190	800,000	0,016	0,038
-381,175	-83,078	-0,013	0,003
-380,160	255,584	0,083	-0,104
-379,146	12,093	-0,113	-0,063
-378,131	-163,965	0,130	-0,004
-377,117	133,734	-0,070	0,066
-376,102	-162,352	0,213	-0,008
-375,088	429,887	0,027	0,042
-374,073	65,040	0,091	-0,067
-373,058	115,637	-0,123	-0,109
-372,044	800,000	0,079	0,168
-371,029	181,167	0,038	0,040
-370,015	-200,000	-0,014	0,082
-369,000	-200,000	-0,000	0,008
-367,985	270,203	-0,089	0,114
-366,971	57,516	-0,098	0,070
-365,956	-200,000	0,007	0,024
-364,942	-172,015	0,108	0,002
-363,927	-200,000	-0,000	0,160
-362,912	800,000	0,045	0,095
-361,898	800,000	-0,056	0,135
-360,883	-105,599	-0,061	0,010
-359,869	-200,000	0,020	-0,138
-358,854	800,000	-0,019	-0,055
-357,839	352,056	-0,033	0,048
-356,825	-200,000	-0,003	0,101
-355,810	10,162	0,092	0,051
-354,796	55,771	-0,057	-0,040
-353,781	266,675	0,091	-0,116
-352,766	-200,000	-0,006	0,047
-351,752	-200,000	0,002	0,078
-350,737	-200,000	-0,012	0,159
-349,723	-200,000	0,028	-0,094
-348,708	-58,440	-0,116	0,036
-347,693	752,788	-0,020	-0,040
-346,679	800,000	0,011	0,031
-345,664	-85,992	-0,079	0,018
-344,650	91,059	0,061	0,050
-343,635	-200,000	-0,136	0,000
-342,620	133,659	-0,067	0,063
-341,606	-187,550	0,036	0,000
-340,591	112,044	0,118	0,103
-339,577	800,000	-0,010	0,023
-338,562	-87,341	-0,056	0,012
-337,548	-200,000	0,001	-0,143
-336,533	133,798	-0,016	0,015
-335,518	-25,115	0,198	0,085
-334,504	800,000	0,015	-0,036
-333,489	26,871	0,144	-0,087
-332,475	-88,001	-0,103	0,022
-331,460	85,623	-0,023	0,019
-330,445	82,351	-0,074	-0,058
-329,431	-200,000	-0,038	0,126
-328,416	195,867	0,074	-0,082
-327,402	-144,084	0,145	-0,010
-326,387	-5,106	-0,045	0,023
-325,372	208,434	-0,044	0,050
-324,358	42,090	-0,048	0,031
-323,343	31,842	0,097	0,061
-322,329	317,394	0,012	0,017
-321,314	-128,550	-0,104	-0,011
-320,299	800,000	0,033	0,104
-319,285	-33,595	0,050	-0,020
-318,270	-83,940	0,074	-0,017
-317,256	249,137	0,005	0,006
-316,241	91,801	0,076	-0,062
-315,226	-100,708	-0,057	-0,010
-314,212	-53,780	-0,051	0,017
-313,197	-200,000	-0,026	0,140
-312,183	-200,000	-0,011	-0,050
-311,168	-102,582	-0,085	0,015
-310,153	230,068	0,055	0,065
-309,139	102,343	-0,131	0,111
-308,124	15,669	-0,035	-0,020
-307,110	-151,124	0,113	-0,006
-306,095	-200,000	0,002	0,055
-305,080	-70,005	-0,142	-0,039
-304,066	-200,000	-0,008	0,055
-303,051	-31,088	0,122	0,050
-302,037	191,449	0,074	0,081
-301,022	-200,000	0,010	-0,067
-300,008	-200,000	-0,022	-0,180
-298,993	-17,521	-0,095	-0,043
-297,978	-200,000	0,002	0,090
-296,964	238,990	-0,035	0,042
-295,949	29,107	-0,103	-0,063
-294,935	-19,440	0,127	-0,057
-293,920	-26,910	-0,027	0,012
-292,905	800,000	-0,028	0,063
-291,891	-63,198	0,097	-0,029
-290,876	87,534	0,064	0,051
-289,862	800,000	0,049	0,129
-288,847	359,280	-0,013	-0,019
-287,832	-127,452	-0,080	0,008
-286,818	325,474	0,048	-0,067
-285,803	-86,142	0,075	-0,017
-284,789	254,002	0,102	0,127
-283,774	207,126	0,167	0,189
-282,759	-200,000	-0,023	0,132
-281,745	549,308	-0,028	-0,048
-280,730	-88,002	0,141	0,030
-279,716	22,310	-0,106	0,063
-278,701	4,664	-0,070	-0,037
-277,686	37,906	0,126	0,081
-276,672	260,393	0,057	0,072
-275,657	-200,000	-0,019	0,076
-274,643	-51,986	0,150	0,050
-273,628	-200,000	0,013	-0,123
-272,613	-103,930	0,053	-0,009
-271,599	800,000	0,021	0,049
-270,584	-4,600	-0,031	0,016
-269,570	120,598	0,038	-0,034
-268,555	800,000	-0,012	-0,032
-267,540	78,147	0,148	-0,114
-266,526	82,215	-0,069	0,054
-265,511	155,219	0,136	-0,135
-264,497	722,799	0,064	0,123
-263,482	58,053	0,082	0,058
-262,467	-200,000	0,012	0,054
-261,453	-130,569	0,130	0,013
-260,438	800,000	0,015	0,043
-259,424	800,000	0,017	0,046
-258,409	396,527	-0,049	-0,074
-257,395	-62,330	-0,070	-0,021
-256,380	11,538	0,077	0,042
-255,365	90,399	0,067	0,054
-254,351	102,937	-0,138	0,117
-253,336	-200,000	-0,017	-0,103
-252,322	15,994	0,056	-0,032
-251,307	616,193	-0,016	0,029
-250,292	-50,294	-0,048	0,016
-249,278	-98,036	-0,058	0,011
-248,263	-119,609	0,190	0,024
-247,249	419,873	-0,041	0,064
-246,234	-29,152	-0,086	-0,036
-245,219	-200,000	-0,028	-0,098
-244,205	800,000	0,046	-0,117
-243,190	25,658	0,073	-0,044
-242,176	-200,000	-0,019	0,123
-241,161	48,067	0,067	-0,045
-240,146	312,431	-0,018	0,024
-239,132	68,571	0,092	0,068
-238,117	-37,492	-0,184	0,071
-237,103	800,000	0,031	-0,094
-236,088	-200,000	-0,022	0,128
-235,073	-118,604	0,035	0,004
-234,059	-200,000	-0,003	0,064
-233,044	-200,000	0,002	0,120
-232,030	148,667	-0,030	-0,030
-231,015	661,824	0,040	-0,076
-230,000	52,232	0,076	0,052
-228,986	-127,053	-0,203	-0,021
-227,971	-200,000	-0,002	0,031
-226,957	800,000	0,026	-0,055
-225,942	7,331	0,171	-0,092
-224,927	-113,915	0,083	-0,012
-223,913	-175,079	-0,120	-0,002
-222,898	-200,000	0,005	0,022
-221,884	-96,143	0,150	-0,029
-220,869	-64,094	0,120	-0,035
-219,855	-200,000	-0,000	0,051
-218,840	794,568	0,098	0,195
-217,825	-13,524	-0,092	0,043
-216,811	766,213	0,071	-0,141
-215,796	138,963	-0,068	-0,065
-214,782	-200,000	-0,003	-0,084
-213,767	800,000	0,062	-0,159
-212,752	684,647	0,052	0,099
-211,738	-200,000	-0,016	0,094
-210,723	-200,000	-0,010	0,098
-209,709	-101,623	-0,122	0,021
-208,694	-17,944	0,048	0,022
-207,679	375,083	-0,049	-0,072
-206,665	615,601	0,036	-0,066
-205,650	800,000	0,090	-0,187
-204,636	441,355	-0,056	-0,089
-203,621	-200,000	-0,007	-0,047
-202,606	-8,064	-0,010	-0,005
-201,592	545,423	-0,056	-0,098
-200,577	33,006	-0,083	-0,052
-199,563	-74,473	-0,143	-0,037
-198,548	800,000	-0,038	0,081
-197,533	-200,000	-0,030	0,107
-196,519	433,263	0,034	-0,053
-195,504	-2,946	-0,071	-0,036
-194,490	-200,000	-0,022	-0,073
-193,475	715,752	-0,017	0,033
-192,460	-21,042	0,106	0,047
-191,446	37,778	0,085	-0,055
-190,431	-200,000	-0,013	-0,100
-189,417	-200,000	-0,004	-0,068
-188,402	-200,000	0,014	0,053
-187,387	-15,500	-0,119	0,055
-186,373	-200,000	-0,045	-0,165
-185,358	4,094	-0,109	0,058
-184,344	154,820	-0,074	0,074
-183,329	-13,903	0,085	-0,039
-182,315	-5,736	0,064	0,032
-181,300	539,573	0,095	-0,164
-180,285	-200,000	0,001	-0,029
-179,271	-200,000	0,012	-0,106
-178,256	800,000	-0,048	-0,106
-177,242	30,949	0,070	-0,043
-176,227	800,000	0,015	0,040
-175,212	-15,604	0,029	0,013
-174,198	-200,000	0,023	0,076
-173,183	332,541	-0,068	-0,095
-172,169	800,000	-0,009	-0,018
-171,154	-200,000	0,025	0,088
-170,139	-200,000	-0,006	-0,048
-169,125	-200,000	0,004	0,063
-168,110	-113,612	0,087	-0,012
-167,096	800,000	0,029	-0,065
-166,081	177,901	-0,047	0,050
-165,066	-98,102	-0,046	0,009
-164,052	-200,000	0,001	0,104
-163,037	-23,194	0,050	-0,021
-162,023	36,757	0,154	0,098
-161,008	22,880	-0,068	0,040
-159,993	-176,439	-0,112	0,002
-158,979	678,702	-0,086	-0,162
-157,964	-149,756	-0,019	-0,001
-156,950	11,351	0,033	0,018
-155,935	-200,000	0,004	0,057
-154,920	-49,506	-0,161	-0,055
-153,906	257,325	0,062	0,077
-152,891	-168,375	0,063	-0,002
-151,877	-200,000	-0,002	0,070
-150,862	38,702	-0,069	-0,044
-149,847	133,595	-0,097	-0,090
-148,833	-95,627	-0,051	0,010
-147,818	224,478	-0,043	-0,051
-146,804	-49,036	-0,037	0,013
-145,789	-200,000	0,029	-0,114
-144,775	-200,000	-0,061	-0,213
-143,760	-23,369	-0,086	-0,037
-142,745	-200,000	0,022	0,114
-141,731	-23,651	-0,097	0,042
-140,716	-146,007	0,057	-0,004
-139,702	-14,034	0,054	-0,025
-138,687	-200,000	-0,000	0,241
-137,672	800,000	-0,012	0,025
-136,658	86,984	0,124	-0,099
-135,643	-56,125	0,074	0,024
-134,629	-200,000	0,040	-0,156
-133,614	791,325	0,019	-0,038
-132,599	192,692	0,060	0,066
-131,585	-6,458	0,058	0,029
-130,570	-40,173	-0,049	-0,018
-129,556	136,128	-0,017	0,016
-128,541	-200,000	-0,001	-0,041
-127,526	84,171	0,071	0,056
-126,512	-116,571	0,146	-0,019
-125,497	-200,000	-0,005	-0,022
-124,483	-200,000	0,019	-0,080
-123,468	83,259	0,058	0,046
-122,453	-200,000	-0,009	0,054
-121,439	238,834	-0,082	0,098
-120,424	-200,000	0,022	0,095
-119,410	452,416	0,047	0,075
-118,395	369,807	-0,090	0,132
-117,380	-200,000	0,009	-0,040
-116,366	800,000	-0,010	-0,025
-115,351	80,807	-0,050	0,038
-114,337	800,000	-0,011	0,030
-113,322	131,951	-0,087	-0,081
-112,307	83,188	-0,051	0,040
-111,293	164,738	0,114	0,115
-110,278	180,187	0,059	0,062
-109,264	800,000	-0,044	-0,129
-108,249	-200,000	0,012	-0,096
-107,234	504,703	0,057	0,095
-106,220	144,309	-0,131	0,126
-105,205	-102,290	0,103	-0,018
-104,191	-200,000	0,043	-0,180
-103,176	-200,000	0,016	0,071
-102,162	-2,150	-0,046	0,023
-101,147	-149,032	0,144	0,008
-100,132	-123,161	0,055	-0,006
-99,118	800,000	-0,038	0,111
-98,103	-200,000	-0,013	0,073
-97,089	301,490	0,029	0,038
-96,074	-200,000	0,026	0,119
-95,059	-14,388	0,093	-0,043
-94,045	-200,000	0,001	0,036
-93,030	-46,668	0,097	0,034
-92,016	192,170	0,014	-0,015
-91,001	357,907	0,098	-0,140
-89,986	179,772	-0,037	0,039
-88,972	347,310	0,070	0,100
-87,957	-127,653	0,112	-0,012
-86,943	800,000	0,023	0,061
-85,928	534,752	-0,064	0,110
-84,913	-30,998	-0,121	0,049
-83,899	75,270	0,087	-0,066
-82,884	-73,975	-0,177	0,046
-81,870	391,748	-0,093	0,139
-80,855	-200,000	-0,013	0,087
-79,840	134,560	0,026	0,024
-78,826	19,633	-0,017	-0,010
-77,811	-200,000	0,004	-0,038
-76,797	-79,312	0,070	0,017
-75,782	495,074	0,057	-0,095
-74,767	70,489	-0,033	-0,025
-73,753	800,000	-0,026	-0,080
-72,738	-46,086	-0,082	0,029
-71,724	800,000	-0,015	-0,036
-70,709	224,187	0,024	0,027
-69,694	-200,000	-0,003	-0,074
-68,680	-103,966	-0,101	-0,017
-67,665	4,699	0,029	0,015
-66,651	451,228	-0,040	0,064
-65,636	800,000	-0,035	0,088
-64,622	-15,172	-0,139	-0,064
-63,607	-148,947	0,074	0,004
-62,592	-105,173	-0,046	-0,007
-61,578	-200,000	0,004	0,026
-60,563	132,180	0,046	0,042
-59,549	-31,417	-0,058	-0,023
-58,534	85,297	-2,631	-2,074
-57,519	285,749	0,332	-0,431
-56,505	-200,000	-1,541	-5,357
-55,490	371,540	1,057	1,546
-54,476	800,000	5,378	11,691
-53,461	-200,000	21,583	337,780
-52,446	800,000	760,188	2298,224
-51,432	515,455	1655,247	2787,851
-50,417	105,246	1621,846	1375,233
-49,403	75,374	1276,637	966,740
-48,388	26,237	1023,761	612,819
-47,373	19,290	989,456	569,260
-46,359	13,820	976,848	543,993
-45,344	9,832	973,536	528,998
-44,330	10,370	971,524	529,654
-43,315	9,183	969,645	524,709
-42,300	9,134	968,493	523,904
-41,286	9,112	967,537	523,293
-40,271	9,173	966,564	522,945
-39,257	9,130	965,755	522,348
-38,242	9,139	964,795	521,837
-37,227	9,128	964,019	521,360
-36,213	9,094	963,321	520,851
-35,198	9,150	962,349	520,488
-34,184	9,116	961,815	520,069
-33,169	9,107	960,647	519,386
-32,154	9,220	959,581	519,158
-31,140	9,221	958,934	518,790
-30,125	9,177	958,193	518,225
-29,111	9,177	957,193	517,663
-28,096	9,224	956,629	517,489
-27,082	9,172	955,968	516,944
-26,067	9,202	955,094	516,549
-25,052	9,125	954,447	515,929
-24,038	9,137	953,671	515,526
-23,023	9,135	953,099	515,190
-22,009	9,172	952,501	514,966
-20,994	9,128	951,955	514,510
-19,979	9,187	951,305	514,328
-18,965	9,124	950,601	513,724
-17,950	9,099	950,138	513,373
-16,936	9,106	949,363	512,954
-15,921	9,115	948,705	512,610
-14,906	9,029	947,945	511,901
-13,892	9,039	947,247	511,537
-12,877	9,098	946,462	511,280
-11,863	8,978	946,232	510,752
-10,848	9,035	945,588	510,567
-9,833	9,147	945,073	510,629
-8,819	9,095	944,308	510,029
-7,804	9,053	943,556	509,467
-6,790	9,051	942,976	509,127
-5,775	9,080	942,439	508,910
-4,760	9,076	941,898	508,584
-3,746	9,010	941,287	508,025
-2,731	9,005	940,561	507,597
-1,717	8,952	939,958	507,082
-0,702	8,890	939,306	506,514
0,313	8,728	938,598	506,381
1,327	12,345	936,405	516,616
2,342	21,208	785,508	456,751
3,356	16,262	451,821	255,194
4,371	-10,586	314,017	148,669
5,386	-14,616	296,504	136,266
6,400	-16,492	290,173	131,476
7,415	-16,666	287,762	130,200
8,429	-17,144	285,900	128,877
9,444	-17,194	284,964	128,395
10,459	-17,211	284,619	128,212
11,473	-17,186	283,889	127,896
12,488	-17,056	283,357	127,771
13,502	-17,141	282,850	127,448
14,517	-17,020	282,492	127,392
15,531	-16,687	281,825	127,403
16,546	-16,911	281,555	127,053
17,561	-16,867	281,329	126,982
18,575	-16,865	281,032	126,838
19,590	-16,716	280,522	126,740
20,604	-16,635	280,207	126,664
21,619	-16,684	280,081	126,550
22,634	-16,705	279,597	126,299
23,648	-16,692	279,341	126,185
24,663	-16,599	279,008	126,112
25,677	-16,803	278,809	125,816
26,692	-16,795	278,468	125,659
27,707	-16,665	278,182	125,642
28,721	-16,700	277,993	125,512
29,736	-16,824	277,712	125,256
30,750	-16,684	277,427	125,249
31,765	-16,642	277,198	125,175
32,780	-16,595	276,972	125,106
33,794	-16,741	276,555	124,768
34,809	-16,682	276,350	124,720
35,823	-16,822	276,222	124,519
36,838	-16,759	275,855	124,402
37,853	-16,860	275,613	124,187
38,867	-16,688	275,418	124,250
39,882	-16,691	275,086	124,086
40,896	-16,575	274,955	124,125
41,911	-16,769	274,684	123,809
42,926	-16,650	274,335	123,754
43,940	-16,584	273,983	123,645
44,955	-16,696	273,896	123,490
45,969	-16,628	273,814	123,506
46,984	-16,718	273,700	123,359
47,999	-16,713	273,431	123,231
49,013	-16,583	273,174	123,226
50,028	-16,601	272,991	123,116
51,042	-16,586	272,727	122,999
52,057	-16,418	272,402	122,998
53,071	-16,534	272,277	122,823
54,086	-16,311	271,998	122,894
55,101	-16,557	272,025	122,666
56,115	-16,642	271,539	122,357
57,130	-16,660	271,251	122,200
58,144	-16,691	271,059	122,074
59,159	-16,883	270,782	121,761
60,174	-16,720	270,498	121,772
61,188	-16,756	270,347	121,660
62,203	-16,677	270,076	121,601
63,217	-16,605	269,983	121,614
64,232	-16,778	269,739	121,334
65,247	-16,796	269,444	121,173
66,261	-16,767	269,096	121,033
67,276	-16,711	269,044	121,051
68,290	-16,648	268,773	120,975
69,305	-16,692	268,483	120,794
70,320	-16,646	268,292	120,739
71,334	-16,633	268,043	120,629
72,349	-16,826	267,828	120,345
73,363	-16,772	267,563	120,264
74,378	-16,777	267,333	120,145
75,393	-16,824	267,036	119,959
76,407	-16,540	266,779	120,091
77,422	-16,664	266,675	119,921
78,436	-16,658	266,429	119,804
79,451	-16,794	266,295	119,611
80,466	-16,818	265,901	119,401
81,480	-16,614	265,560	119,422
82,495	-16,673	265,531	119,344
83,509	-16,645	265,325	119,267
84,524	-16,642	265,170	119,190
85,539	-16,684	265,106	119,111
86,553	-16,593	264,857	119,072
87,568	-16,609	264,517	118,894
88,582	-16,808	264,289	118,601
89,597	-16,613	264,140	118,700
90,611	-16,634	263,911	118,567
91,626	-16,634	263,727	118,474
92,641	-16,742	263,465	118,248
93,655	-16,550	263,135	118,262
94,670	-16,864	263,111	117,959
95,684	-16,665	262,871	118,019
96,699	-16,648	262,656	117,927
97,714	-16,661	262,441	117,809
98,728	-16,585	262,216	117,765
99,743	-16,491	262,134	117,802
100,757	-16,493	261,806	117,642
101,772	-16,644	261,645	117,424
102,787	-16,727	261,404	117,233
103,801	-16,639	261,035	117,134
104,816	-16,718	261,074	117,071
105,830	-16,798	260,961	116,939
106,845	-16,715	260,699	116,885
107,860	-16,599	260,338	116,816
108,874	-16,693	260,184	116,652
109,889	-16,735	259,782	116,424
110,903	-16,661	259,835	116,504
111,918	-16,513	259,567	116,503
112,933	-16,787	259,333	116,147
113,947	-16,702	259,260	116,179
114,962	-16,724	259,006	116,035
115,976	-16,753	258,883	115,944
116,991	-16,689	258,515	115,825
118,006	-16,890	258,472	115,619
119,020	-16,839	258,300	115,576
120,035	-16,372	257,945	115,817
121,049	-16,581	257,786	115,552
122,064	-16,726	257,590	115,327
123,079	-16,703	257,466	115,281
124,093	-16,809	257,377	115,138
125,108	-16,684	257,178	115,148
126,122	-16,594	256,930	115,106
127,137	-16,419	256,856	115,215
128,151	-16,507	256,583	115,005
129,166	-16,514	256,334	114,877
130,181	-16,502	256,181	114,809
131,195	-16,535	255,876	114,633
132,210	-16,631	255,779	114,497
133,224	-16,766	255,353	114,179
134,239	-16,763	255,270	114,133
135,254	-16,769	254,936	113,969
136,268	-16,608	254,888	114,077
137,283	-16,633	254,594	113,913
138,297	-16,545	254,416	113,900
139,312	-16,617	254,242	113,749
140,327	-16,424	253,967	113,782
141,341	-16,760	253,778	113,398
142,356	-16,784	253,739	113,350
143,370	-16,571	253,405	113,374
144,385	-16,527	253,254	113,334
145,400	-16,432	253,062	113,320
146,414	-16,696	252,743	112,940
147,429	-16,667	252,789	112,975
148,443	-16,704	252,642	112,869
149,458	-16,622	252,292	112,772
150,473	-16,546	252,119	112,750
151,487	-16,623	251,952	112,599
152,502	-16,495	251,770	112,617
153,516	-16,713	251,666	112,374
154,531	-16,573	251,444	112,385
155,546	-16,401	251,121	112,376
156,560	-16,625	251,016	112,129
157,575	-16,512	250,821	112,128
158,589	-16,659	250,718	111,946
159,604	-16,505	250,382	111,917
160,619	-16,684	250,321	111,728
161,633	-16,442	250,047	111,801
162,648	-16,717	249,981	111,529
163,662	-16,480	249,661	111,576
164,677	-16,711	249,590	111,340
165,692	-16,473	249,392	111,442
166,706	-16,443	249,235	111,387
167,721	-16,567	249,033	111,183
168,735	-16,428	248,980	111,267
169,750	-16,562	248,692	111,015
170,764	-16,515	248,478	110,950
171,779	-16,641	248,398	110,798
172,794	-16,701	248,283	110,686
173,808	-16,626	247,997	110,611
174,823	-16,620	248,029	110,621
175,837	-16,654	247,658	110,417
176,852	-16,509	247,531	110,472
177,867	-16,524	247,345	110,367
178,881	-16,538	247,136	110,252
179,896	-16,664	246,973	110,064
180,910	-16,532	246,817	110,095
181,925	-16,635	246,711	109,951
182,940	-16,557	246,408	109,872
183,954	-16,596	246,239	109,754
184,969	-16,438	246,254	109,883
185,983	-16,639	245,969	109,579
186,998	-16,487	245,778	109,610
188,013	-16,570	245,567	109,437
189,027	-16,678	245,385	109,257
190,042	-16,695	245,137	109,123
191,056	-16,777	245,066	109,014
192,071	-16,866	244,981	108,892
193,086	-16,801	244,706	108,814
194,100	-16,721	244,370	108,721
195,115	-16,616	244,234	108,738
196,129	-16,652	244,201	108,683
197,144	-16,705	243,860	108,479
198,159	-16,828	243,768	108,326
199,173	-16,618	243,472	108,358
200,188	-16,707	243,380	108,234
201,202	-16,806	243,349	108,129
202,217	-16,492	243,112	108,272
203,232	-16,436	242,844	108,189
204,246	-16,760	242,577	107,795
205,261	-17,038	242,295	107,433
206,275	-15,835	242,737	108,604
207,290	-10,621	244,535	113,697
208,304	-4,484	246,606	119,738
209,319	-1,473	247,358	122,591
210,334	-0,444	247,518	123,514
211,348	0,593	247,620	124,413
212,363	1,171	247,818	124,981
213,377	1,551	247,911	125,331
214,392	1,846	247,809	125,513
215,407	1,912	247,748	125,526
216,421	2,108	247,507	125,555
217,436	2,268	247,266	125,553
218,450	2,193	247,047	125,369
219,465	2,224	246,909	125,314
220,480	2,139	246,639	125,095
221,494	1,787	246,674	124,811
222,509	1,309	246,388	124,262
223,523	1,345	245,993	124,082
224,538	1,343	245,877	124,010
225,553	1,188	245,585	123,725
226,567	1,030	245,478	123,531
227,582	1,155	245,324	123,544
228,596	1,104	245,224	123,441
229,611	0,971	245,177	123,298
230,626	0,997	244,835	123,136
231,640	1,300	244,639	123,274
232,655	1,160	244,450	123,054
233,669	1,086	244,274	122,893
234,684	0,929	244,254	122,744
235,699	1,039	244,003	122,697
236,713	1,012	243,913	122,619
237,728	1,257	243,604	122,652
238,742	1,288	243,453	122,590
239,757	1,062	243,466	122,402
240,772	1,244	243,106	122,358
241,786	1,197	242,974	122,243
242,801	1,086	242,842	122,075
243,815	1,119	242,715	122,027
244,830	1,043	242,497	121,845
245,844	1,210	242,248	121,844
246,859	0,913	242,334	121,636
247,874	1,152	242,120	121,711
248,888	1,013	242,050	121,553
249,903	1,264	241,662	121,549
250,917	1,254	241,650	121,524
251,932	1,375	241,472	121,522
252,947	1,219	241,443	121,370
253,961	1,061	241,239	121,130
254,976	1,078	241,040	121,033
255,990	0,868	240,955	120,811
257,005	1,123	240,704	120,878
258,020	1,250	240,581	120,908
259,034	1,077	240,510	120,723
260,049	1,140	240,145	120,580
261,063	1,107	240,004	120,471
262,078	1,283	239,860	120,529
263,093	1,224	239,797	120,440
264,107	1,162	239,536	120,248
265,122	1,094	239,582	120,206
266,136	1,198	239,493	120,234
267,151	1,117	239,118	119,970
268,166	1,088	238,919	119,837
269,180	0,912	238,710	119,582
270,195	1,044	238,632	119,636
271,209	1,088	238,486	119,588
272,224	1,135	238,462	119,603
273,239	1,276	237,977	119,459
274,253	1,187	238,029	119,405
275,268	1,251	237,838	119,349
276,282	1,257	237,662	119,255
277,297	1,161	237,597	119,136
278,312	0,964	237,529	118,936
279,326	1,220	237,342	119,033
280,341	1,149	237,223	118,907
281,355	1,212	237,073	118,871
282,370	1,049	236,913	118,652
283,384	1,156	236,646	118,591
284,399	1,065	236,475	118,423
285,414	0,954	236,471	118,324
286,428	1,305	236,297	118,502
287,443	1,139	235,974	118,200
288,457	1,267	235,853	118,228
289,472	1,120	235,780	118,066
290,487	1,185	235,686	118,059
291,501	0,958	235,579	117,818
292,516	1,020	235,451	117,792
293,530	1,248	235,071	117,769
294,545	1,165	235,030	117,673
295,560	1,070	234,837	117,492
296,574	1,202	234,747	117,539
297,589	0,901	234,697	117,269
298,603	1,440	234,419	117,540
299,618	1,491	234,231	117,474
300,633	1,217	234,169	117,220
301,647	1,254	234,053	117,180
302,662	1,314	234,002	117,191
303,676	1,431	233,700	117,120
304,691	1,264	233,768	117,014
305,706	1,368	233,529	116,964
306,720	1,434	233,361	116,921
307,735	1,271	233,229	116,718
308,749	1,259	233,017	116,592
309,764	1,415	232,762	116,575
310,779	1,402	232,656	116,501
311,793	1,207	232,578	116,302
312,808	1,119	232,452	116,160
313,822	1,306	232,169	116,153
314,837	1,199	232,046	115,998
315,852	1,296	231,967	116,022
316,866	1,559	231,811	116,136
317,881	1,490	231,470	115,902
318,895	1,305	231,548	115,789
319,910	1,398	231,403	115,778
320,925	1,292	231,107	115,538
321,939	1,443	231,082	115,631
322,954	1,463	230,984	115,587
323,968	1,221	230,862	115,330
324,983	1,589	230,550	115,445
325,997	1,369	230,525	115,255
327,012	1,282	230,306	115,068
328,027	1,140	230,238	114,916
329,041	1,169	230,117	114,867
330,056	1,374	229,903	114,906
331,070	1,407	229,828	114,884
332,085	1,400	229,570	114,739
333,100	1,344	229,424	114,614
334,114	1,321	229,182	114,464
335,129	1,210	229,118	114,339
336,143	1,329	229,039	114,379
337,158	1,585	228,743	114,414
338,173	1,346	228,696	114,200
339,187	1,434	228,572	114,195
340,202	1,524	228,493	114,213
341,216	1,528	228,313	114,116
342,231	1,212	228,178	113,800
343,246	1,202	228,131	113,758
344,260	1,196	227,970	113,663
345,275	1,505	227,860	113,831
346,289	1,492	227,522	113,643
347,304	1,582	227,469	113,674
348,319	1,527	227,111	113,443
349,333	1,714	226,956	113,496
350,348	1,630	226,899	113,394
351,362	1,688	226,740	113,349
352,377	1,284	226,728	113,030
353,392	1,416	226,484	112,996
354,406	1,479	226,344	112,964
355,421	192,813	1314,504	1383,704
356,435	154,486	1446,960	1383,567
