DTS Sentinel unit serial number:	SN410029Multiplexer serial number:	ORYXHardware model number:	OX2-SRSoftware version number:	ORYX F/W v4,00 Oryx Data Collector v3.7.2.0data status	okinstallation	B5 Nyhavnadifferential loss correction	single-endedforward channel	channel 2reverse channel	N/Adate	2023/12/13time	23:32:13forward acquisition time	300,00reverse acquisition time	0,00gamma	499,1914k internal	0,3154k external	0,3154temperature offset calibration	1,0000default loss term (dB/km)	0,3820temperature slope calibration	1,0000multiplexer offset coefficient	1,0000multiplexer slope coefficient	1,0000fibre end	0,00T internal ref (°C)	8,87T ext. ref 1 (°C)	-7,51T ext. ref 2 (°C)	-7,53length (m)	temperature (°C)	Stokes	anti-Stokes-744,400	-141,529	-0,098	0,007
-743,385	1,913	-0,345	-0,183
-742,371	5,435	0,257	0,140
-741,356	-137,039	-0,347	-0,029
-740,342	33,148	0,150	0,096
-739,327	-113,123	-0,415	-0,060
-738,312	-15,945	0,090	0,042
-737,298	-11,627	-0,402	-0,194
-736,283	74,891	0,101	0,078
-735,269	-4,185	-0,273	-0,139
-734,254	-200,000	0,028	0,091
-733,239	-49,744	-0,561	-0,196
-732,225	20,193	0,241	-0,143
-731,210	34,535	-0,126	0,081
-730,196	-200,000	-0,018	-0,072
-729,181	-39,623	-0,053	-0,020
-728,167	-200,000	0,018	-0,127
-727,152	4,536	-0,043	-0,023
-726,137	-28,791	0,145	-0,061
-725,123	-16,161	-0,033	0,016
-724,108	189,599	0,086	-0,095
-723,094	-200,000	-0,014	-0,199
-722,079	451,725	-0,060	0,098
-721,064	-119,259	-0,088	0,011
-720,050	450,648	-0,042	-0,068
-719,035	268,848	0,046	-0,059
-718,021	-200,000	0,012	-0,173
-717,006	-200,000	-0,027	0,151
-715,991	-16,252	-0,148	-0,069
-714,977	-34,564	-0,011	0,005
-713,962	-200,000	0,019	-0,106
-712,948	13,859	-0,024	0,014
-711,933	-90,914	-0,121	0,025
-710,918	-200,000	-0,027	-0,119
-709,904	465,402	-0,033	-0,055
-708,889	23,934	-0,082	-0,050
-707,875	800,000	-0,047	-0,102
-706,860	353,436	-0,053	0,078
-705,845	-200,000	0,034	0,122
-704,831	57,863	0,093	-0,067
-703,816	-200,000	-0,012	-0,187
-702,802	43,145	0,067	-0,045
-701,787	91,114	-0,101	-0,084
-700,772	113,360	0,046	0,041
-699,758	34,981	-0,062	0,040
-698,743	-128,677	0,233	0,024
-697,729	114,309	-0,098	-0,088
-696,714	-200,000	0,001	0,015
-695,699	-200,000	0,019	0,082
-694,685	108,457	0,095	-0,084
-693,670	-200,000	0,007	-0,123
-692,656	195,949	-0,064	0,072
-691,641	-41,659	0,149	-0,056
-690,627	775,482	0,084	0,171
-689,612	10,028	-0,040	-0,022
-688,597	39,809	-0,059	-0,039
-687,583	800,000	0,028	-0,090
-686,568	517,522	-0,033	-0,057
-685,554	-200,000	0,000	-0,142
-684,539	-46,609	0,068	0,024
-683,524	-19,226	-0,077	0,035
-682,510	-141,529	0,055	-0,004
-681,495	-31,821	-0,102	-0,042
-680,481	-200,000	-0,007	-0,295
-679,466	53,670	-0,079	-0,056
-678,451	-69,221	-0,085	0,024
-677,437	308,998	0,060	-0,082
-676,422	-77,976	-0,086	-0,022
-675,408	122,556	0,019	-0,017
-674,393	-134,071	-0,106	0,009
-673,378	-129,761	-0,123	0,012
-672,364	136,666	-0,158	-0,152
-671,349	-200,000	0,020	-0,101
-670,335	-200,000	0,016	0,052
-669,320	153,178	0,073	-0,073
-668,305	67,587	0,112	0,084
-667,291	-86,287	-0,028	0,006
-666,276	-27,597	-0,057	-0,024
-665,262	-200,000	-0,003	-0,058
-664,247	800,000	0,028	0,057
-663,232	-128,768	-0,040	0,004
-662,218	8,140	0,154	0,085
-661,203	259,387	-0,038	0,049
-660,189	266,698	-0,013	0,017
-659,174	-200,000	-0,025	0,097
-658,159	800,000	0,013	-0,034
-657,145	800,000	-0,034	0,087
-656,130	-200,000	0,003	0,012
-655,116	190,295	0,094	-0,104
-654,101	121,169	0,028	-0,026
-653,086	-182,105	0,072	-0,001
-652,072	-200,000	0,005	-0,019
-651,057	363,912	-0,061	-0,091
-650,043	125,913	0,070	-0,065
-649,028	446,736	-0,070	0,114
-648,014	185,451	0,082	0,090
-646,999	3,622	0,084	-0,045
-645,984	80,752	-0,053	0,042
-644,970	204,070	0,106	0,121
-643,955	124,345	-0,136	-0,126
-642,941	746,235	0,078	-0,155
-641,926	-200,000	-0,020	0,113
-640,911	154,271	0,035	0,035
-639,897	-40,460	-0,058	-0,022
-638,882	239,082	-0,020	0,024
-637,868	-200,000	0,021	-0,087
-636,853	-200,000	-0,017	0,069
-635,838	-200,000	-0,003	0,052
-634,824	112,422	0,034	0,030
-633,809	800,000	-0,032	0,101
-632,795	493,702	0,013	-0,022
-631,780	111,761	-0,101	0,089
-630,765	195,954	-0,108	0,120
-629,751	295,906	0,053	-0,072
-628,736	-200,000	0,004	0,103
-627,722	-200,000	0,032	-0,150
-626,707	-48,605	0,071	-0,025
-625,692	0,127	0,033	0,017
-624,678	-58,662	-0,162	-0,051
-623,663	103,493	0,078	0,067
-622,649	-200,000	-0,041	-0,141
-621,634	244,519	0,028	-0,035
-620,619	148,272	0,026	-0,026
-619,605	800,000	-0,010	-0,025
-618,590	-80,886	-0,118	-0,028
-617,576	25,635	0,056	0,034
-616,561	800,000	-0,061	-0,129
-615,546	165,235	-0,036	0,037
-614,532	-125,970	0,041	-0,004
-613,517	-53,921	0,115	-0,038
-612,503	-200,000	0,007	-0,078
-611,488	22,746	-0,077	0,046
-610,474	128,493	-0,094	-0,088
-609,459	380,496	0,055	0,083
-608,444	-71,719	0,156	-0,043
-607,430	-4,353	0,058	-0,029
-606,415	-200,000	-0,004	0,016
-605,401	-74,195	0,163	0,043
-604,386	118,589	-0,065	-0,059
-603,371	449,165	-0,022	0,035
-602,357	-106,326	-0,035	-0,006
-601,342	-83,024	-0,091	0,021
-600,328	-200,000	-0,023	-0,119
-599,313	22,840	0,067	0,040
-598,298	515,618	-0,070	-0,120
-597,284	-80,731	-0,061	0,015
-596,269	-200,000	0,010	0,130
-595,255	-75,033	-0,135	-0,035
-594,240	346,696	0,069	-0,100
-593,225	266,160	-0,062	0,080
-592,211	-5,264	0,085	0,043
-591,196	-200,000	0,002	-0,026
-590,182	-200,000	0,003	0,020
-589,167	318,425	0,052	0,073
-588,152	-132,639	-0,161	0,015
-587,138	-62,689	0,045	-0,014
-586,123	-123,549	-0,179	-0,021
-585,109	-200,000	-0,002	0,012
-584,094	-200,000	-0,008	0,107
-583,079	494,461	0,062	0,105
-582,065	800,000	-0,033	0,091
-581,050	-26,409	0,060	0,026
-580,036	36,902	-0,109	-0,071
-579,021	-145,122	-0,049	0,003
-578,006	-200,000	-0,033	-0,165
-576,992	275,343	0,108	-0,141
-575,977	-106,948	0,104	-0,017
-574,963	-158,757	0,116	-0,005
-573,948	-19,049	0,028	0,013
-572,934	-200,000	-0,025	0,185
-571,919	-200,000	-0,021	-0,193
-570,904	800,000	0,041	-0,107
-569,890	-107,494	-0,080	0,013
-568,875	-7,431	0,035	-0,017
-567,861	62,246	0,071	-0,052
-566,846	-96,073	-0,028	0,005
-565,831	182,212	0,075	0,081
-564,817	-200,000	-0,141	0,000
-563,802	-200,000	-0,007	-0,062
-562,788	-200,000	0,015	-0,147
-561,773	-142,520	-0,137	0,010
-560,758	193,292	0,098	0,109
-559,744	-89,114	-0,051	-0,011
-558,729	-85,317	-0,099	0,022
-557,715	-200,000	-0,028	-0,241
-556,700	-70,547	-0,146	-0,040
-555,685	-95,017	0,086	0,017
-554,671	555,538	-0,048	-0,086
-553,656	-132,463	-0,099	0,009
-552,642	391,972	0,059	0,090
-551,627	113,991	0,011	-0,010
-550,612	647,162	0,015	0,027
-549,598	39,471	0,059	0,038
-548,583	13,209	-0,097	0,055
-547,569	-138,758	0,167	0,013
-546,554	-69,270	-0,095	0,027
-545,539	51,018	-0,044	0,031
-544,525	-31,458	-0,022	-0,009
-543,510	159,585	0,016	0,017
-542,496	11,229	0,045	0,025
-541,481	231,784	-0,070	-0,084
-540,466	-30,332	0,075	-0,031
-539,452	-153,005	-0,017	-0,001
-538,437	144,750	0,140	0,137
-537,423	-148,684	0,083	0,005
-536,408	64,236	-0,197	-0,145
-535,393	123,986	-0,026	-0,024
-534,379	138,670	-0,040	0,039
-533,364	46,367	-0,065	0,044
-532,350	-200,000	0,006	0,030
-531,335	-65,233	0,123	-0,036
-530,321	-81,759	0,045	-0,011
-529,306	-200,000	0,006	-0,067
-528,291	-50,394	-0,013	-0,004
-527,277	674,949	0,041	-0,079
-526,262	-97,437	-0,045	-0,009
-525,248	800,000	0,015	-0,032
-524,233	-200,000	0,008	0,051
-523,218	357,065	-0,022	0,033
-522,204	29,266	0,074	-0,046
-521,189	-200,000	0,001	-0,025
-520,175	-200,000	-0,038	-0,182
-519,160	800,000	-0,056	-0,173
-518,145	-86,842	0,154	-0,034
-517,131	640,842	-0,044	0,083
-516,116	552,985	-0,032	0,057
-515,102	97,917	-0,099	0,084
-514,087	23,901	-0,161	-0,097
-513,072	-200,000	-0,003	-0,129
-512,058	11,543	-0,091	-0,051
-511,043	416,877	0,043	-0,068
-510,029	290,108	0,009	0,012
-509,014	58,537	0,037	0,027
-507,999	800,000	0,034	0,098
-506,985	-60,862	0,104	0,032
-505,970	136,115	-0,055	-0,053
-504,956	418,702	0,021	0,033
-503,941	-200,000	0,002	-0,055
-502,926	669,500	0,049	0,093
-501,912	800,000	0,044	0,090
-500,897	102,773	-0,040	-0,035
-499,883	447,321	-0,029	-0,046
-498,868	-153,794	-0,105	0,005
-497,853	-200,000	-0,004	-0,051
-496,839	-129,441	0,154	0,015
-495,824	800,000	-0,043	0,102
-494,810	800,000	0,078	0,171
-493,795	92,698	-0,059	-0,049
-492,781	31,708	0,081	0,051
-491,766	141,704	0,068	-0,066
-490,751	-25,513	0,103	-0,044
-489,737	-76,084	0,061	0,016
-488,722	-200,000	-0,020	0,188
-487,708	60,777	0,043	0,031
-486,693	6,876	-0,047	0,025
-485,678	800,000	0,040	0,096
-484,664	-200,000	-0,024	-0,144
-483,649	-200,000	0,006	-0,058
-482,635	-107,833	-0,067	-0,010
-481,620	-200,000	-0,005	0,126
-480,605	43,985	0,047	0,031
-479,591	82,417	0,038	-0,030
-478,576	119,973	-0,041	-0,037
-477,562	-72,236	-0,049	0,013
-476,547	-200,000	0,013	-0,111
-475,532	523,245	-0,045	-0,078
-474,518	-74,298	0,151	0,040
-473,503	-19,646	-0,137	-0,062
-472,489	-18,531	0,139	0,063
-471,474	-200,000	-0,005	-0,057
-470,459	-87,237	0,157	0,035
-469,445	395,025	-0,031	0,047
-468,430	248,887	-0,030	-0,037
-467,416	-80,214	0,114	0,028
-466,401	240,330	-0,050	0,061
-465,386	683,759	0,031	0,060
-464,372	181,073	-0,035	0,037
-463,357	800,000	-0,054	-0,156
-462,343	-200,000	-0,002	0,061
-461,328	-65,311	-0,094	0,028
-460,313	-200,000	0,007	0,027
-459,299	-41,060	-0,140	-0,053
-458,284	18,276	0,077	0,044
-457,270	-200,000	-0,010	0,118
-456,255	-114,289	-0,108	-0,015
-455,241	242,085	0,025	0,030
-454,226	-200,000	0,032	-0,159
-453,211	184,088	-0,013	0,014
-452,197	41,911	-0,073	-0,048
-451,182	-200,000	0,011	0,048
-450,168	-66,311	0,019	-0,006
-449,153	501,868	0,072	-0,121
-448,138	-13,442	-0,049	0,023
-447,124	800,000	0,047	-0,140
-446,109	253,889	-0,050	0,062
-445,095	111,573	0,083	0,073
-444,080	176,551	-0,039	0,041
-443,065	701,507	0,029	0,057
-442,051	-55,659	-0,073	0,024
-441,036	16,290	-0,051	-0,030
-440,022	-126,919	-0,070	-0,007
-439,007	-200,000	-0,009	0,098
-437,992	-34,626	0,081	-0,032
-436,978	21,775	-0,105	-0,062
-435,963	238,167	0,027	0,033
-434,949	-200,000	-0,023	0,075
-433,934	21,643	0,070	-0,041
-432,919	-200,000	-0,017	0,086
-431,905	67,401	-0,057	0,043
-430,890	-200,000	0,030	0,105
-429,876	-200,000	0,001	0,096
-428,861	-37,987	-0,057	-0,022
-427,846	-35,608	-0,151	-0,060
-426,832	-161,546	-0,158	0,006
-425,817	-60,913	-0,139	-0,042
-424,803	387,790	0,056	0,084
-423,788	-49,877	0,094	0,032
-422,773	385,363	-0,058	0,088
-421,759	601,533	-0,051	-0,092
-420,744	-19,707	0,057	-0,025
-419,730	-68,741	-0,090	0,025
-418,715	-200,000	0,008	-0,025
-417,701	-200,000	0,020	-0,218
-416,686	-48,575	0,101	0,035
-415,671	52,899	-0,022	-0,015
-414,657	-200,000	0,019	0,232
-413,642	525,469	-0,033	0,057
-412,628	-200,000	-0,032	0,131
-411,613	800,000	-0,049	-0,143
-410,598	597,606	-0,048	-0,087
-409,584	173,217	0,070	0,073
-408,569	-12,490	-0,034	-0,016
-407,555	-29,327	0,052	0,021
-406,540	170,267	-0,032	0,033
-405,525	48,466	-0,072	0,049
-404,511	215,706	0,025	-0,029
-403,496	105,534	-0,081	-0,069
-402,482	125,116	0,030	-0,028
-401,467	-15,732	0,016	-0,007
-400,452	800,000	0,025	-0,056
-399,438	351,829	-0,059	0,085
-398,423	125,114	-0,008	0,008
-397,409	-112,602	-0,026	-0,004
-396,394	800,000	-0,008	0,021
-395,379	160,230	0,048	0,048
-394,365	113,385	0,072	0,063
-393,350	-14,107	0,104	0,049
-392,336	-41,274	-0,039	0,015
-391,321	-105,967	0,041	0,007
-390,306	527,165	0,018	0,032
-389,292	800,000	0,088	-0,242
-388,277	388,626	0,120	-0,181
-387,263	151,738	-0,117	0,116
-386,248	-13,246	0,088	-0,041
-385,233	355,881	0,062	0,090
-384,219	190,309	-0,052	-0,057
-383,204	42,916	0,040	0,026
-382,190	46,408	-0,090	-0,061
-381,175	47,097	-0,112	-0,076
-380,160	164,029	0,071	0,073
-379,146	527,114	0,025	-0,043
-378,131	313,156	0,031	-0,043
-377,117	-62,313	-0,116	0,035
-376,102	-117,192	0,072	0,009
-375,088	-154,717	-0,196	0,009
-374,073	-11,152	-0,060	-0,029
-373,058	-77,754	0,187	-0,047
-372,044	-200,000	-0,002	0,034
-371,029	4,319	-0,079	0,042
-370,015	-33,280	0,032	-0,013
-369,000	-200,000	0,021	-0,082
-367,985	7,826	-0,134	-0,073
-366,971	-104,303	-0,059	-0,010
-365,956	126,806	0,127	0,117
-364,942	43,555	0,139	0,093
-363,927	-200,000	-0,003	0,071
-362,912	82,569	-0,131	0,103
-361,898	57,240	-0,058	-0,041
-360,883	-200,000	-0,006	-0,069
-359,869	-200,000	0,001	-0,084
-358,854	-200,000	0,012	0,116
-357,839	-61,056	-0,041	-0,013
-356,825	-200,000	0,031	0,143
-355,810	33,950	-0,044	-0,028
-354,796	800,000	-0,059	0,124
-353,781	-200,000	0,027	-0,148
-352,766	-73,607	-0,069	-0,018
-351,752	465,699	0,045	0,074
-350,737	63,570	-0,102	0,074
-349,723	-200,000	0,004	0,079
-348,708	45,916	-0,031	-0,021
-347,693	173,494	0,050	0,052
-346,679	-28,538	0,108	-0,045
-345,664	800,000	0,013	-0,037
-344,650	161,251	0,078	0,079
-343,635	800,000	0,024	-0,073
-342,620	800,000	-0,051	0,112
-341,606	-0,101	0,061	-0,031
-340,591	200,589	0,091	-0,102
-339,577	-200,000	-0,006	0,029
-338,562	-130,803	0,080	0,008
-337,548	183,061	-0,070	0,075
-336,533	265,405	0,037	-0,047
-335,518	-118,648	0,114	-0,014
-334,504	-117,114	0,106	0,014
-333,489	729,932	0,064	-0,124
-332,475	-200,000	-0,001	-0,085
-331,460	-23,334	0,064	0,028
-330,445	-83,049	0,048	-0,011
-329,431	204,105	-0,057	-0,065
-328,416	-181,777	0,223	-0,003
-327,402	21,992	0,054	0,032
-326,387	470,903	-0,080	0,131
-325,372	-200,000	-0,000	-0,125
-324,358	-200,000	0,003	-0,060
-323,343	711,286	0,034	-0,065
-322,329	-200,000	0,034	0,134
-321,314	117,470	-0,058	0,052
-320,299	-128,035	-0,054	0,006
-319,285	19,350	0,045	0,026
-318,270	-200,000	-0,005	-0,058
-317,256	-145,013	-0,136	-0,009
-316,241	-200,000	0,005	0,023
-315,226	201,720	-0,005	0,006
-314,212	-39,422	0,056	0,021
-313,197	-44,206	0,071	0,026
-312,183	311,709	-0,120	0,164
-311,168	-113,021	0,159	-0,023
-310,153	652,673	-0,040	0,075
-309,139	-200,000	-0,039	-0,138
-308,124	154,561	-0,041	0,041
-307,110	-127,674	0,153	-0,016
-306,095	800,000	-0,038	-0,095
-305,080	-109,037	-0,102	0,016
-304,066	319,975	0,043	0,059
-303,051	-39,240	-0,092	-0,035
-302,037	-70,249	0,181	-0,050
-301,022	175,624	0,037	-0,039
-300,008	-200,000	-0,022	0,096
-298,993	-200,000	0,015	-0,103
-297,978	288,652	0,059	-0,077
-296,964	326,317	0,060	-0,084
-295,949	120,880	-0,055	-0,050
-294,935	587,147	-0,023	-0,041
-293,920	-200,000	0,039	-0,129
-292,905	28,599	-0,047	0,029
-291,891	-200,000	0,046	0,179
-290,876	-64,889	0,073	-0,021
-289,862	-106,738	-0,067	-0,011
-288,847	-200,000	-0,020	-0,098
-287,832	-106,798	-0,068	-0,011
-286,818	800,000	-0,032	-0,100
-285,803	-13,821	0,108	0,050
-284,789	-46,440	0,121	-0,043
-283,774	175,538	0,033	-0,035
-282,759	760,692	0,029	-0,057
-281,745	192,979	-0,059	0,065
-280,730	279,944	0,017	-0,023
-279,716	-200,000	-0,018	-0,151
-278,701	-64,778	0,231	0,067
-277,686	345,907	-0,098	-0,140
-276,672	-200,000	-0,004	0,074
-275,657	-200,000	0,024	0,117
-274,643	192,680	-0,050	-0,055
-273,628	5,373	0,040	-0,021
-272,613	-147,090	-0,061	-0,004
-271,599	89,690	0,114	0,092
-270,584	483,285	0,078	0,129
-269,570	330,873	0,044	-0,061
-268,555	800,000	0,040	0,096
-267,540	-68,561	0,136	0,038
-266,526	797,236	0,031	0,063
-265,511	-166,872	-0,074	-0,002
-264,497	26,220	0,097	0,058
-263,482	112,974	0,026	0,022
-262,467	153,081	0,022	-0,022
-261,453	-5,998	0,158	-0,078
-260,438	57,585	0,032	-0,023
-259,424	594,270	-0,050	0,090
-258,409	113,118	-0,077	-0,068
-257,395	-135,126	0,118	0,010
-256,380	159,287	0,058	-0,058
-255,365	219,697	-0,066	0,077
-254,351	-200,000	0,003	0,053
-253,336	-89,318	-0,028	-0,006
-252,322	-1,043	0,069	-0,035
-251,307	73,117	-0,039	0,029
-250,292	800,000	-0,045	0,101
-249,278	-133,857	0,028	0,002
-248,263	-200,000	0,018	0,141
-247,249	-157,719	0,054	0,002
-246,234	-111,656	-0,074	-0,011
-245,219	-200,000	0,039	-0,131
-244,205	-200,000	-0,042	-0,134
-243,190	-200,000	0,017	0,072
-242,176	-150,732	0,064	-0,003
-241,161	78,459	0,088	-0,068
-240,146	-41,026	0,066	0,024
-239,132	-109,109	-0,047	0,007
-238,117	128,616	-0,060	0,055
-237,103	-144,942	0,182	0,012
-236,088	131,005	-0,074	-0,069
-235,073	-200,000	-0,001	-0,012
-234,059	-57,588	-0,192	0,061
-233,044	38,772	-0,007	-0,004
-232,030	-52,965	0,039	0,013
-231,015	-40,318	-0,139	0,052
-230,000	-90,210	-0,078	-0,016
-228,986	303,514	-0,088	0,118
-227,971	296,346	0,151	-0,201
-226,957	52,075	-0,060	-0,041
-225,942	800,000	-0,084	-0,212
-224,927	25,361	-0,112	0,067
-223,913	-37,561	-0,089	0,034
-222,898	178,505	0,049	0,052
-221,884	-11,525	-0,104	0,049
-220,869	-91,134	-0,061	-0,013
-219,855	-200,000	0,014	0,061
-218,840	116,703	-0,091	0,081
-217,825	800,000	0,037	-0,076
-216,811	-60,806	-0,140	-0,042
-215,796	-20,607	-0,102	-0,045
-214,782	-50,590	-0,026	-0,009
-213,767	-55,144	0,067	0,022
-212,752	286,849	0,095	0,125
-211,738	160,660	-0,129	0,130
-210,723	-29,200	0,065	0,027
-209,709	597,128	-0,014	-0,025
-208,694	190,841	0,065	-0,071
-207,679	800,000	-0,053	-0,122
-206,665	355,341	-0,019	-0,027
-205,650	81,051	0,069	-0,054
-204,636	148,663	-0,123	0,120
-203,621	73,077	-0,005	-0,004
-202,606	49,547	0,058	0,039
-201,592	-94,878	-0,046	-0,009
-200,577	98,490	-0,092	0,076
-199,563	-200,000	-0,013	0,055
-198,548	-84,647	-0,141	0,032
-197,533	800,000	-0,029	-0,090
-196,519	18,359	-0,036	0,021
-195,504	-138,937	0,056	-0,004
-194,490	398,859	0,016	-0,025
-193,475	-34,520	-0,021	0,008
-192,460	800,000	-0,031	-0,078
-191,446	119,027	0,091	-0,081
-190,431	-200,000	0,008	0,174
-189,417	-64,379	0,021	0,006
-188,402	800,000	0,037	-0,108
-187,387	-81,351	-0,172	0,041
-186,373	-106,236	0,111	-0,018
-185,358	196,339	0,012	0,013
-184,344	-200,000	0,004	-0,051
-183,329	35,269	0,103	-0,065
-182,315	-200,000	0,019	-0,072
-181,300	80,172	-0,064	-0,050
-180,285	-200,000	-0,001	-0,013
-179,271	202,783	-0,047	0,052
-178,256	-110,556	0,137	-0,020
-177,242	-200,000	-0,026	0,167
-176,227	-138,168	0,051	-0,004
-175,212	129,483	0,085	0,079
-174,198	185,964	-0,109	0,117
-173,183	-169,966	-0,125	-0,003
-172,169	-42,872	-0,086	-0,031
-171,154	-58,303	-0,071	0,022
-170,139	-158,172	-0,034	0,001
-169,125	80,055	-0,040	0,031
-168,110	70,641	-0,014	-0,010
-167,096	-42,242	0,084	-0,031
-166,081	-200,000	0,020	-0,085
-165,066	-142,055	-0,107	-0,008
-164,052	274,464	0,094	-0,120
-163,037	-200,000	-0,005	0,073
-162,023	-148,272	-0,054	-0,003
-161,008	-141,733	0,108	-0,008
-159,993	800,000	-0,022	-0,051
-158,979	800,000	-0,063	0,167
-157,964	-20,001	0,071	0,032
-156,950	10,685	0,121	0,066
-155,935	-200,000	0,003	-0,018
-154,920	-200,000	-0,040	-0,158
-153,906	-59,378	0,116	-0,036
-152,891	275,363	0,054	0,069
-151,877	-200,000	0,030	-0,111
-150,862	-200,000	0,012	-0,127
-149,847	-200,000	-0,002	0,020
-148,833	188,522	-0,086	0,093
-147,818	2,709	0,104	0,054
-146,804	176,880	0,153	0,161
-145,789	164,612	0,092	0,093
-144,775	800,000	-0,023	-0,053
-143,760	28,589	-0,114	0,070
-142,745	-100,744	0,091	0,016
-141,731	-200,000	-0,019	0,102
-140,716	-14,466	-0,062	0,029
-139,702	55,080	0,063	-0,044
-138,687	-114,099	0,118	-0,016
-137,672	30,217	0,055	0,033
-136,658	-33,719	0,118	0,047
-135,643	-200,000	-0,009	0,065
-134,629	655,648	-0,019	0,035
-133,614	163,588	-0,066	0,067
-132,599	-200,000	0,036	0,176
-131,585	-21,927	0,027	-0,012
-130,570	487,376	0,018	-0,030
-129,556	691,833	-0,022	-0,042
-128,541	-34,406	-0,085	0,033
-127,526	-200,000	-0,008	-0,135
-126,512	-11,174	0,249	-0,118
-125,497	9,761	0,055	0,030
-124,483	9,673	0,063	0,034
-123,468	16,012	-0,102	-0,057
-122,453	-200,000	0,005	0,084
-121,439	-19,803	0,148	-0,065
-120,424	-200,000	-0,007	0,095
-119,410	-200,000	-0,001	0,028
-118,395	62,580	-0,145	0,104
-117,380	30,641	0,055	0,034
-116,366	700,991	-0,032	-0,060
-115,351	94,636	-0,052	-0,042
-114,337	-200,000	-0,020	-0,089
-113,322	800,000	0,020	0,043
-112,307	800,000	0,045	0,125
-111,293	20,824	0,017	0,010
-110,278	800,000	0,041	-0,114
-109,264	104,442	0,108	0,091
-108,249	-200,000	-0,006	0,126
-107,234	134,155	-0,074	-0,069
-106,220	-78,713	-0,132	0,032
-105,205	13,079	0,113	-0,063
-104,191	515,230	0,057	0,096
-103,176	-200,000	-0,003	0,048
-102,162	15,350	-0,059	0,033
-101,147	122,070	0,103	-0,093
-100,132	88,358	0,032	-0,025
-99,118	-200,000	-0,021	0,072
-98,103	-126,539	0,112	-0,012
-97,089	-200,000	0,013	0,120
-96,074	-200,000	-0,002	0,164
-95,059	800,000	0,016	0,033
-94,045	-200,000	0,011	-0,115
-93,030	-200,000	0,006	-0,110
-92,016	-8,785	-0,131	-0,063
-91,001	-200,000	-0,003	-0,044
-89,986	176,581	0,176	-0,184
-88,972	-34,915	0,075	0,029
-87,957	-58,632	-0,036	-0,011
-86,943	-200,000	0,007	0,049
-85,928	-200,000	-0,060	-0,192
-84,913	-200,000	-0,010	-0,132
-83,899	-200,000	0,003	0,076
-82,884	800,000	-0,048	-0,098
-81,870	-200,000	-0,003	-0,021
-80,855	-200,000	-0,036	0,155
-79,840	692,992	-0,063	0,120
-78,826	7,903	-0,092	0,049
-77,811	-200,000	0,026	-0,130
-76,797	49,978	-0,030	0,020
-75,782	243,966	-0,040	-0,049
-74,767	-200,000	0,012	0,054
-73,753	-85,171	0,089	-0,020
-72,738	-200,000	-0,026	0,122
-71,724	253,723	0,046	0,056
-70,709	-200,000	-0,007	-0,023
-69,694	428,033	0,008	-0,012
-68,680	-3,801	-0,167	0,083
-67,665	800,000	0,056	0,130
-66,651	372,910	0,045	0,066
-65,636	241,615	0,074	-0,089
-64,622	-194,543	0,078	-0,000
-63,607	-101,092	0,032	0,006
-62,592	800,000	-0,019	0,044
-61,578	101,596	0,070	0,059
-60,563	-93,749	0,100	0,020
-59,549	723,697	-0,040	0,076
-58,534	75,198	-2,508	-1,898
-57,519	737,943	0,206	-0,399
-56,505	-200,000	-1,641	-5,386
-55,490	372,710	1,132	1,658
-54,476	800,000	5,296	11,616
-53,461	-200,000	21,894	343,778
-52,446	800,000	761,279	2309,224
-51,432	517,336	1654,450	2790,452
-50,417	104,398	1619,940	1369,423
-49,403	74,247	1274,979	960,920
-48,388	25,656	1023,260	610,478
-47,373	19,359	989,344	569,371
-46,359	13,630	976,674	543,220
-45,344	9,550	973,132	527,801
-44,330	10,083	971,171	528,468
-43,315	8,945	969,492	523,794
-42,300	8,936	968,060	522,973
-41,286	8,930	967,074	522,398
-40,271	8,839	966,259	521,639
-39,257	8,875	965,446	521,298
-38,242	8,949	964,219	520,855
-37,227	8,893	963,702	520,375
-36,213	8,862	962,806	519,769
-35,198	8,879	962,102	519,422
-34,184	8,959	961,291	519,225
-33,169	8,813	960,316	518,204
-32,154	8,912	959,544	518,087
-31,140	8,962	958,433	517,631
-30,125	9,010	957,482	517,251
-29,111	8,905	956,843	516,544
-28,096	8,960	956,196	516,352
-27,082	8,947	955,679	516,013
-26,067	8,905	954,934	515,454
-25,052	8,876	953,949	514,806
-24,038	8,872	953,270	514,406
-23,023	8,879	952,733	514,120
-22,009	8,902	952,223	513,900
-20,994	8,966	951,559	513,725
-19,979	8,958	951,082	513,422
-18,965	8,863	950,456	512,757
-17,950	8,950	949,675	512,595
-16,936	8,813	949,183	511,869
-15,921	8,890	948,267	511,605
-14,906	8,840	947,596	511,062
-13,892	8,827	946,790	510,563
-12,877	8,762	946,462	510,157
-11,863	8,741	945,877	509,756
-10,848	8,812	945,194	509,595
-9,833	8,855	944,849	509,526
-8,819	8,789	944,101	508,889
-7,804	8,806	943,286	508,485
-6,790	8,736	942,857	508,013
-5,775	8,829	942,258	507,966
-4,760	8,829	941,420	507,494
-3,746	8,835	940,832	507,175
-2,731	8,662	940,138	506,230
-1,717	8,629	939,597	505,813
-0,702	8,646	938,839	505,440
0,313	8,501	938,362	505,485
1,327	11,900	936,032	514,955
2,342	20,421	784,529	454,070
3,356	15,325	451,318	253,463
4,371	-10,977	314,069	148,259
5,386	-14,687	296,401	136,135
6,400	-16,664	290,271	131,337
7,415	-16,845	287,903	130,075
8,429	-17,430	286,066	128,659
9,444	-17,406	284,959	128,173
10,459	-17,467	284,355	127,831
11,473	-17,485	283,915	127,603
12,488	-17,441	283,436	127,421
13,502	-17,375	282,974	127,265
14,517	-17,225	282,446	127,162
15,531	-17,110	282,001	127,061
16,546	-17,079	281,727	126,956
17,561	-17,209	281,168	126,568
18,575	-17,003	280,932	126,648
19,590	-17,171	280,690	126,367
20,604	-17,033	280,219	126,276
21,619	-17,182	279,953	126,002
22,634	-17,144	279,767	125,943
23,648	-17,120	279,234	125,715
24,663	-17,102	279,051	125,639
25,677	-16,930	278,738	125,651
26,692	-17,080	278,450	125,367
27,707	-17,124	278,404	125,293
28,721	-17,032	277,877	125,132
29,736	-17,088	277,660	124,970
30,750	-17,154	277,478	124,815
31,765	-17,025	277,201	124,801
32,780	-16,795	276,802	124,829
33,794	-17,312	276,841	124,344
34,809	-16,843	276,266	124,519
35,823	-17,029	276,082	124,249
36,838	-17,134	276,003	124,103
37,853	-17,115	275,734	123,990
38,867	-16,986	275,474	123,983
39,882	-16,938	275,057	123,829
40,896	-17,091	274,843	123,578
41,911	-17,126	274,705	123,472
42,926	-17,000	274,405	123,445
43,940	-16,936	273,990	123,307
44,955	-16,896	273,853	123,271
45,969	-17,034	273,737	123,080
46,984	-16,900	273,635	123,148
47,999	-16,983	273,255	122,888
49,013	-16,945	273,129	122,857
50,028	-17,029	273,016	122,715
51,042	-16,861	272,745	122,740
52,057	-16,998	272,435	122,462
53,071	-16,824	272,267	122,538
54,086	-16,935	272,079	122,339
55,101	-16,931	271,775	122,194
56,115	-17,043	271,632	122,016
57,130	-16,851	271,203	121,990
58,144	-17,106	270,904	121,608
59,159	-17,084	270,854	121,596
60,174	-17,022	270,461	121,465
61,188	-17,102	270,326	121,320
62,203	-16,994	270,130	121,321
63,217	-17,038	269,948	121,188
64,232	-17,145	269,661	120,950
65,247	-17,014	269,455	120,967
66,261	-17,060	269,131	120,769
67,276	-16,950	269,023	120,810
68,290	-16,887	268,670	120,699
69,305	-17,004	268,390	120,455
70,320	-16,972	268,308	120,437
71,334	-16,944	267,922	120,278
72,349	-16,936	267,775	120,210
73,363	-17,144	267,679	119,965
74,378	-17,160	267,324	119,781
75,393	-16,998	267,163	119,845
76,407	-17,023	266,815	119,656
77,422	-16,979	266,592	119,586
78,436	-16,911	266,479	119,586
79,451	-17,104	266,225	119,286
80,466	-17,062	265,986	119,206
81,480	-16,887	265,674	119,215
82,495	-16,988	265,624	119,090
83,509	-16,976	265,424	119,000
84,524	-16,901	265,194	118,954
85,539	-16,928	264,834	118,758
86,553	-16,699	264,637	118,866
87,568	-16,862	264,433	118,617
88,582	-16,961	264,216	118,420
89,597	-17,091	264,076	118,229
90,611	-17,006	263,897	118,215
91,626	-16,879	263,739	118,248
92,641	-16,906	263,482	118,098
93,655	-17,050	263,246	117,852
94,670	-17,103	262,987	117,678
95,684	-16,980	262,783	117,687
96,699	-17,089	262,675	117,531
97,714	-16,892	262,448	117,594
98,728	-16,900	262,206	117,469
99,743	-16,949	261,954	117,301
100,757	-16,784	261,780	117,360
101,772	-17,008	261,581	117,061
102,787	-17,175	261,461	116,848
103,801	-16,961	261,120	116,876
104,816	-17,109	261,041	116,698
105,830	-16,882	260,841	116,800
106,845	-16,764	260,487	116,736
107,860	-16,993	260,448	116,505
108,874	-16,887	260,043	116,407
109,889	-16,897	259,867	116,309
110,903	-17,045	259,599	116,048
111,918	-16,890	259,617	116,183
112,933	-16,913	259,349	116,032
113,947	-16,913	259,164	115,939
114,962	-16,910	258,864	115,797
115,976	-16,812	258,683	115,791
116,991	-17,004	258,621	115,585
118,006	-17,017	258,418	115,472
119,020	-16,734	258,235	115,629
120,035	-16,884	258,083	115,419
121,049	-16,945	257,849	115,251
122,064	-16,891	257,675	115,210
123,079	-16,996	257,519	115,038
124,093	-16,862	257,298	115,046
125,108	-16,789	256,953	114,945
126,122	-16,718	256,800	114,928
127,137	-16,939	256,729	114,694
128,151	-16,827	256,598	114,722
129,166	-16,807	256,219	114,560
130,181	-16,691	256,070	114,584
131,195	-16,816	255,768	114,330
132,210	-17,085	255,692	114,053
133,224	-16,932	255,298	113,999
134,239	-16,920	255,161	113,939
135,254	-16,978	255,052	113,829
136,268	-16,867	254,879	113,837
137,283	-16,810	254,604	113,754
138,297	-16,833	254,550	113,700
139,312	-16,829	254,223	113,547
140,327	-16,873	254,001	113,400
141,341	-16,808	253,698	113,311
142,356	-16,887	253,650	113,211
143,370	-16,830	253,339	113,111
144,385	-16,800	253,334	113,124
145,400	-17,068	253,017	112,743
146,414	-16,930	252,841	112,773
147,429	-16,903	252,672	112,710
148,443	-16,992	252,477	112,538
149,458	-16,829	252,240	112,562
150,473	-16,713	252,092	112,585
151,487	-16,817	252,013	112,450
152,502	-16,852	251,828	112,328
153,516	-16,933	251,621	112,156
154,531	-16,865	251,324	112,072
155,546	-16,993	251,289	111,937
156,560	-16,662	251,036	112,096
157,575	-16,792	250,791	111,866
158,589	-16,851	250,525	111,687
159,604	-16,921	250,412	111,568
160,619	-16,960	250,249	111,452
161,633	-16,774	250,115	111,540
162,648	-16,972	249,932	111,281
163,662	-16,853	249,750	111,291
164,677	-17,078	249,760	111,095
165,692	-16,999	249,361	110,974
166,706	-16,751	249,199	111,101
167,721	-16,984	248,993	110,803
168,735	-16,839	248,949	110,896
169,750	-16,958	248,828	110,732
170,764	-16,728	248,486	110,763
171,779	-16,981	248,431	110,516
172,794	-16,575	248,160	110,726
173,808	-16,997	248,237	110,397
174,823	-16,825	248,002	110,427
175,837	-16,684	247,694	110,398
176,852	-16,873	247,563	110,172
177,867	-16,801	247,225	110,071
178,881	-16,925	247,206	109,949
179,896	-16,896	246,988	109,867
180,910	-16,796	246,824	109,868
181,925	-16,915	246,713	109,710
182,940	-17,054	246,523	109,499
183,954	-16,708	246,330	109,691
184,969	-16,830	246,311	109,572
185,983	-17,031	246,138	109,318
186,998	-17,090	245,774	109,097
188,013	-16,825	245,687	109,269
189,027	-17,025	245,378	108,957
190,042	-16,995	245,187	108,887
191,056	-16,938	245,009	108,845
192,071	-17,095	244,865	108,641
193,086	-17,028	244,690	108,609
194,100	-16,873	244,584	108,681
195,115	-16,911	244,453	108,581
196,129	-16,860	244,045	108,433
197,144	-17,040	243,956	108,235
198,159	-16,749	243,851	108,418
199,173	-16,964	243,597	108,119
200,188	-16,962	243,356	108,004
201,202	-16,922	243,310	108,007
202,217	-16,776	243,110	108,028
203,232	-16,820	242,943	107,908
204,246	-17,017	242,598	107,584
205,261	-17,074	242,336	107,412
206,275	-15,722	242,782	108,707
207,290	-10,716	244,688	113,678
208,304	-4,366	246,605	119,825
209,319	-1,701	247,274	122,350
210,334	-0,736	247,641	123,321
211,348	0,506	247,757	124,398
212,363	1,012	247,857	124,857
213,377	1,380	247,752	125,098
214,392	1,701	247,628	125,290
215,407	1,963	247,658	125,511
216,421	2,100	247,495	125,530
217,436	2,187	247,377	125,531
218,450	1,966	247,177	125,236
219,465	1,818	247,086	125,057
220,480	2,137	246,740	125,133
221,494	1,591	246,664	124,633
222,509	1,299	246,303	124,200
223,523	1,229	246,053	124,005
224,538	1,029	245,968	123,787
225,553	0,952	245,683	123,569
226,567	0,947	245,396	123,410
227,582	0,783	245,500	123,317
228,596	0,739	245,257	123,148
229,611	0,840	245,181	123,181
230,626	0,860	244,980	123,085
231,640	0,863	244,727	122,950
232,655	0,859	244,534	122,839
233,669	0,782	244,337	122,665
234,684	0,943	244,233	122,734
235,699	1,104	243,986	122,730
236,713	0,791	244,053	122,498
237,728	1,145	243,807	122,652
238,742	0,975	243,667	122,432
239,757	0,896	243,587	122,317
240,772	0,728	243,348	122,049
241,786	0,958	243,263	122,182
242,801	0,792	242,876	121,843
243,815	0,836	242,776	121,817
244,830	0,806	242,685	121,736
245,844	0,864	242,500	121,680
246,859	0,983	242,225	121,626
247,874	0,910	242,323	121,606
248,888	0,986	242,062	121,526
249,903	1,047	241,897	121,481
250,917	0,901	241,767	121,288
251,932	1,137	241,506	121,336
252,947	1,034	241,393	121,185
253,961	0,905	241,203	120,976
254,976	0,784	241,156	120,843
255,990	1,066	240,967	120,965
257,005	0,973	240,845	120,818
258,020	1,120	240,745	120,876
259,034	0,755	240,569	120,483
260,049	1,062	240,159	120,513
261,063	0,774	240,180	120,282
262,078	0,845	240,007	120,241
263,093	0,829	239,811	120,120
264,107	0,918	239,669	120,109
265,122	0,848	239,577	119,996
266,136	1,091	239,260	120,020
267,151	1,015	239,291	119,965
268,166	0,819	239,271	119,788
269,180	0,767	238,978	119,589
270,195	1,015	238,708	119,640
271,209	1,076	238,511	119,580
272,224	0,955	238,382	119,408
273,239	0,780	238,317	119,226
274,253	1,063	238,051	119,307
275,268	1,044	237,960	119,236
276,282	0,912	237,805	119,043
277,297	0,824	237,606	118,863
278,312	0,759	237,527	118,761
279,326	0,957	237,390	118,839
280,341	1,012	237,252	118,803
281,355	0,809	237,153	118,582
282,370	0,976	236,891	118,572
283,384	1,053	236,761	118,557
284,399	0,863	236,562	118,297
285,414	0,816	236,478	118,207
286,428	0,976	236,443	118,306
287,443	0,885	236,099	118,051
288,457	1,108	236,088	118,211
289,472	1,160	235,670	118,031
290,487	0,985	235,827	117,963
291,501	1,025	235,674	117,906
292,516	0,985	235,383	117,719
293,530	0,930	235,290	117,619
294,545	0,880	235,153	117,501
295,560	1,005	234,928	117,476
296,574	1,177	234,763	117,517
297,589	0,886	234,619	117,207
298,603	1,031	234,596	117,298
299,618	1,043	234,428	117,213
300,633	0,957	234,323	117,083
301,647	1,087	234,197	117,111
302,662	1,355	234,037	117,229
303,676	0,982	233,864	116,843
304,691	1,182	233,597	116,854
305,706	1,206	233,473	116,800
306,720	1,123	233,285	116,631
307,735	1,259	233,218	116,692
308,749	1,030	233,035	116,414
309,764	0,867	232,984	116,252
310,779	1,068	232,618	116,214
311,793	0,979	232,551	116,101
312,808	1,267	232,420	116,247
313,822	1,243	232,255	116,136
314,837	1,304	232,157	116,123
315,852	1,116	232,039	115,910
316,866	1,212	231,896	115,902
317,881	1,387	231,774	115,965
318,895	1,223	231,589	115,736
319,910	1,196	231,461	115,641
320,925	1,164	231,311	115,531
321,939	0,992	231,129	115,298
322,954	1,269	230,897	115,384
323,968	1,156	230,953	115,315
324,983	1,286	230,762	115,310
325,997	1,031	230,506	114,976
327,012	1,231	230,372	115,052
328,027	1,279	230,106	114,945
329,041	1,253	229,998	114,861
330,056	1,041	230,125	114,753
331,070	1,167	229,908	114,730
332,085	1,369	229,586	114,713
333,100	1,138	229,430	114,449
334,114	1,180	229,216	114,364
335,129	1,349	229,132	114,440
336,143	1,156	228,980	114,208
337,158	1,242	228,929	114,237
338,173	1,222	228,754	114,125
339,187	0,896	228,728	113,855
340,202	1,294	228,385	113,975
341,216	1,477	228,285	114,053
342,231	1,087	228,249	113,730
343,246	1,356	228,002	113,800
344,260	1,425	227,821	113,751
345,275	1,344	227,868	113,704
346,289	1,515	227,534	113,655
347,304	1,302	227,467	113,452
348,319	1,488	227,235	113,465
349,333	1,275	227,157	113,257
350,348	1,176	227,056	113,121
351,362	1,221	226,848	113,042
352,377	1,083	226,797	112,904
353,392	1,355	226,457	112,927
354,406	1,423	226,361	112,920
355,421	192,252	1313,527	1380,765
356,435	154,023	1445,849	1380,629
