DTS Sentinel unit serial number:	SN410029Multiplexer serial number:	ORYXHardware model number:	OX2-SRSoftware version number:	ORYX F/W v4,00 Oryx Data Collector v3.7.2.0data status	okinstallation	B5 Nyhavnadifferential loss correction	single-endedforward channel	channel 2reverse channel	N/Adate	2023/12/12time	06:02:13forward acquisition time	300,00reverse acquisition time	0,00gamma	499,1914k internal	0,3157k external	0,3157temperature offset calibration	1,0000default loss term (dB/km)	0,3820temperature slope calibration	1,0000multiplexer offset coefficient	1,0000multiplexer slope coefficient	1,0000fibre end	0,00T internal ref (°C)	15,29T ext. ref 1 (°C)	-1,09T ext. ref 2 (°C)	-1,39length (m)	temperature (°C)	Stokes	anti-Stokes-744,400	15,308	0,087	0,050
-743,385	-91,777	-0,230	-0,048
-742,371	585,122	0,041	0,075
-741,356	-113,743	-0,237	0,034
-740,342	-161,207	0,170	0,006
-739,327	-106,145	-0,182	-0,030
-738,312	686,932	-0,026	-0,050
-737,298	-97,844	-0,215	0,041
-736,283	-36,745	0,106	-0,042
-735,269	-105,168	-0,297	-0,050
-734,254	-12,326	0,069	-0,033
-733,239	-79,911	-0,413	-0,101
-732,225	-33,581	0,107	0,043
-731,210	-121,082	0,091	0,011
-730,196	-125,619	0,108	0,012
-729,181	25,285	-0,164	-0,100
-728,167	-55,639	-0,086	0,028
-727,152	442,354	0,019	-0,030
-726,137	-200,000	-0,032	-0,113
-725,123	-17,054	-0,189	-0,088
-724,108	800,000	-0,038	-0,115
-723,094	25,584	-0,215	-0,132
-722,079	338,843	0,032	-0,047
-721,064	800,000	0,027	-0,067
-720,050	800,000	-0,014	0,042
-719,035	-200,000	-0,014	-0,122
-718,021	515,315	-0,008	-0,014
-717,006	-200,000	-0,020	-0,168
-715,991	-159,519	-0,125	-0,005
-714,977	0,736	-0,150	-0,079
-713,962	-200,000	-0,012	-0,103
-712,948	-200,000	-0,015	0,108
-711,933	-200,000	-0,011	-0,041
-710,918	152,281	0,048	0,048
-709,904	340,756	-0,053	-0,077
-708,889	-118,286	-0,093	0,012
-707,875	-112,065	-0,059	-0,009
-706,860	98,650	-0,065	0,055
-705,845	-200,000	-0,001	-0,035
-704,831	87,496	-0,036	-0,030
-703,816	-143,447	-0,093	0,006
-702,802	-104,691	-0,035	0,006
-701,787	-200,000	0,011	-0,065
-700,772	30,248	0,068	-0,043
-699,758	115,145	-0,037	-0,033
-698,743	216,125	0,064	0,075
-697,729	-16,799	-0,041	-0,019
-696,714	-176,742	-0,099	-0,002
-695,699	698,310	0,036	-0,070
-694,685	-33,701	-0,121	0,049
-693,670	39,670	-0,020	-0,013
-692,656	191,916	-0,086	-0,096
-691,641	97,992	0,070	0,060
-690,627	-200,000	0,014	0,070
-689,612	-67,702	0,024	-0,007
-688,597	-36,656	-0,027	0,011
-687,583	27,341	-0,076	0,047
-686,568	-200,000	0,022	0,093
-685,554	57,678	-0,028	-0,020
-684,539	-200,000	-0,000	0,145
-683,524	-10,141	-0,088	-0,043
-682,510	164,719	-0,062	-0,065
-681,495	-70,985	-0,074	0,020
-680,481	29,021	0,071	-0,044
-679,466	-200,000	0,010	-0,050
-678,451	9,972	-0,051	0,028
-677,437	-71,446	-0,089	0,024
-676,422	-162,126	0,080	-0,003
-675,408	800,000	-0,057	0,138
-674,393	234,744	-0,084	-0,103
-673,378	-200,000	-0,018	-0,058
-672,364	-34,886	-0,202	0,081
-671,349	-74,865	-0,129	-0,034
-670,335	137,458	0,099	0,096
-669,320	111,447	0,025	-0,022
-668,305	-200,000	-0,010	-0,118
-667,291	800,000	0,026	-0,080
-666,276	-178,050	-0,242	0,004
-665,262	81,562	-0,133	-0,106
-664,247	-200,000	-0,109	0,000
-663,232	-200,000	0,022	-0,077
-662,218	800,000	-0,026	0,081
-661,203	492,808	-0,041	0,069
-660,189	67,477	0,078	-0,058
-659,174	-60,840	0,045	0,014
-658,159	-200,000	0,018	-0,086
-657,145	93,278	-0,075	-0,062
-656,130	-200,000	0,004	-0,146
-655,116	-200,000	0,013	0,121
-654,101	51,555	-0,007	-0,005
-653,086	9,588	-0,088	-0,049
-652,072	623,463	0,064	0,120
-651,057	35,270	-0,110	0,071
-650,043	116,805	0,077	0,070
-649,028	-200,000	0,015	0,158
-648,014	800,000	-0,062	0,140
-646,999	176,221	0,085	0,091
-645,984	407,377	-0,111	0,174
-644,970	13,479	0,064	-0,036
-643,955	-63,505	-0,054	-0,016
-642,941	-102,627	-0,034	0,006
-641,926	154,532	0,030	0,030
-640,911	-200,000	-0,010	-0,091
-639,897	-200,000	-0,004	-0,027
-638,882	-200,000	0,024	0,177
-637,868	-200,000	0,006	-0,026
-636,853	800,000	-0,017	-0,053
-635,838	-91,296	-0,148	-0,031
-634,824	529,379	-0,017	-0,029
-633,809	443,382	-0,035	-0,056
-632,795	800,000	-0,010	-0,030
-631,780	800,000	-0,056	0,116
-630,765	88,231	0,011	-0,009
-629,751	-200,000	-0,022	-0,199
-628,736	800,000	0,029	-0,072
-627,722	-132,768	0,042	0,004
-626,707	800,000	0,017	-0,041
-625,692	140,966	0,103	-0,100
-624,678	526,125	0,024	-0,042
-623,663	345,837	-0,054	0,078
-622,649	-200,000	-0,007	-0,080
-621,634	374,143	-0,102	-0,153
-620,619	800,000	-0,035	-0,108
-619,605	-78,788	0,101	0,025
-618,590	-200,000	0,004	-0,062
-617,576	357,025	0,063	-0,092
-616,561	800,000	0,039	-0,091
-615,546	800,000	-0,014	-0,033
-614,532	-153,460	-0,075	-0,004
-613,517	29,442	0,045	-0,028
-612,503	-200,000	0,011	-0,054
-611,488	-200,000	0,012	-0,071
-610,474	-181,374	-0,057	0,001
-609,459	84,475	-0,063	0,050
-608,444	745,198	-0,042	-0,084
-607,430	279,094	-0,035	-0,046
-606,415	-200,000	-0,041	0,145
-605,401	-99,486	-0,047	0,009
-604,386	144,179	-0,067	-0,065
-603,371	-119,716	0,135	-0,017
-602,357	-96,080	-0,081	-0,016
-601,342	-125,978	-0,010	-0,001
-600,328	-122,188	-0,165	-0,020
-599,313	-70,047	0,037	-0,010
-598,298	48,008	0,044	-0,030
-597,284	-200,000	0,004	0,030
-596,269	-200,000	0,015	0,099
-595,255	-200,000	0,001	-0,062
-594,240	59,666	0,057	-0,041
-593,225	800,000	-0,033	-0,104
-592,211	-27,417	0,140	-0,059
-591,196	-100,309	0,047	-0,009
-590,182	114,668	0,017	0,015
-589,167	-133,288	0,096	-0,009
-588,152	-31,769	-0,066	-0,027
-587,138	109,234	-0,032	0,028
-586,123	155,745	0,072	-0,072
-585,109	40,638	-0,104	-0,069
-584,094	-107,375	-0,111	0,018
-583,079	255,278	0,029	-0,036
-582,065	169,736	0,038	0,040
-581,050	-41,033	0,042	-0,016
-580,036	-181,578	-0,042	0,001
-579,021	218,651	-0,050	-0,059
-578,006	21,334	-0,094	-0,056
-576,992	-200,000	0,028	-0,111
-575,977	800,000	0,047	0,105
-574,963	-54,932	0,080	0,026
-573,948	-200,000	0,001	-0,044
-572,934	-65,689	0,099	-0,029
-571,919	-16,526	-0,107	0,049
-570,904	503,091	0,006	0,010
-569,890	-200,000	-0,011	0,068
-568,875	21,491	0,083	-0,049
-567,861	565,683	-0,041	0,073
-566,846	-200,000	0,006	0,047
-565,831	-200,000	-0,003	0,130
-564,817	134,937	0,114	0,109
-563,802	800,000	-0,052	0,143
-562,788	800,000	0,031	0,078
-561,773	-81,487	-0,063	0,015
-560,758	-200,000	-0,002	0,053
-559,744	26,250	0,078	0,047
-558,729	-200,000	0,016	-0,111
-557,715	465,206	0,029	-0,048
-556,700	15,200	-0,054	0,031
-555,685	71,246	0,016	0,012
-554,671	18,141	0,045	-0,026
-553,656	-41,827	0,118	-0,044
-552,642	15,550	-0,055	0,032
-551,627	800,000	-0,045	-0,121
-550,612	-32,131	0,074	-0,030
-549,598	-200,000	0,014	-0,162
-548,583	214,073	-0,077	0,090
-547,569	-125,887	-0,212	0,023
-546,554	762,322	-0,039	0,077
-545,539	58,345	-0,026	0,019
-544,525	-200,000	-0,004	0,127
-543,510	-98,823	-0,066	-0,012
-542,496	114,310	-0,038	0,034
-541,481	760,996	-0,038	-0,077
-540,466	-120,342	0,135	0,017
-539,452	417,081	0,033	0,052
-538,437	249,419	0,019	0,024
-537,423	-169,765	-0,094	0,002
-536,408	-55,188	-0,079	0,026
-535,393	-84,960	-0,042	-0,010
-534,379	-200,000	0,033	-0,165
-533,364	-49,972	-0,147	-0,051
-532,350	-41,699	0,034	0,013
-531,335	-30,372	0,008	0,004
-530,321	-172,691	-0,212	0,005
-529,306	-200,000	-0,005	0,036
-528,291	-90,110	-0,156	-0,033
-527,277	-35,456	0,030	-0,012
-526,262	-16,869	0,058	0,026
-525,248	-200,000	-0,017	-0,102
-524,233	97,999	0,043	-0,036
-523,218	19,360	-0,048	-0,028
-522,204	56,322	0,082	0,058
-521,189	109,808	0,053	-0,047
-520,175	-86,763	0,085	0,019
-519,160	247,868	0,045	-0,056
-518,145	-200,000	-0,015	-0,049
-517,131	228,619	0,017	0,020
-516,116	800,000	0,055	0,127
-515,102	250,222	0,035	-0,044
-514,087	81,462	-0,124	-0,098
-513,072	-73,261	0,041	-0,011
-512,058	800,000	0,050	0,102
-511,043	-137,417	0,122	0,010
-510,029	-48,915	0,120	0,042
-509,014	173,842	0,112	0,118
-507,999	-17,320	-0,244	-0,112
-506,985	-43,088	-0,102	0,037
-505,970	515,673	-0,049	-0,084
-504,956	638,680	-0,025	-0,047
-503,941	154,879	-0,104	0,104
-502,926	128,418	-0,036	-0,033
-501,912	800,000	-0,051	0,141
-500,897	243,215	-0,102	0,125
-499,883	-64,027	0,069	0,021
-498,868	-132,761	-0,045	-0,004
-497,853	800,000	-0,029	-0,062
-496,839	800,000	0,021	0,044
-495,824	219,580	-0,087	-0,102
-494,810	800,000	0,012	-0,030
-493,795	-200,000	-0,010	0,052
-492,781	800,000	0,039	-0,106
-491,766	3,615	-0,042	-0,022
-490,751	-55,955	0,150	-0,049
-489,737	-91,979	-0,057	0,012
-488,722	40,408	0,023	0,015
-487,708	-200,000	-0,026	0,104
-486,693	97,670	0,047	-0,039
-485,678	142,348	-0,047	0,046
-484,664	-200,000	-0,015	-0,108
-483,649	327,749	0,046	-0,065
-482,635	60,801	0,066	-0,048
-481,620	306,662	0,109	-0,149
-480,605	800,000	0,025	0,076
-479,591	50,378	-0,076	-0,052
-478,576	-193,903	-0,083	-0,000
-477,562	209,921	0,044	-0,051
-476,547	211,357	-0,031	-0,036
-475,532	-200,000	-0,034	0,151
-474,518	369,673	-0,031	0,046
-473,503	-107,782	0,159	0,025
-472,489	-90,698	-0,093	-0,019
-471,474	-200,000	0,014	-0,067
-470,459	-76,814	-0,022	-0,005
-469,445	495,391	-0,097	-0,163
-468,430	-73,057	-0,096	0,026
-467,416	729,405	0,041	0,080
-466,401	-104,674	0,055	0,009
-465,386	624,998	-0,020	0,038
-464,372	-200,000	0,008	-0,064
-463,357	541,513	-0,046	0,081
-462,343	-200,000	-0,031	0,103
-461,328	50,787	0,091	0,063
-460,313	1,780	0,098	0,051
-459,299	259,564	-0,113	0,143
-458,284	-93,034	0,031	-0,006
-457,270	-200,000	-0,035	0,116
-456,255	74,647	-0,072	0,055
-455,241	-200,000	0,032	0,107
-454,226	-21,874	0,031	-0,014
-453,211	18,986	0,115	-0,067
-452,197	197,494	0,042	-0,047
-451,182	-31,962	0,091	0,037
-450,168	-200,000	-0,011	0,077
-449,153	-10,691	-0,114	0,055
-448,138	-200,000	-0,017	-0,155
-447,124	-10,852	-0,066	-0,032
-446,109	-200,000	0,017	-0,112
-445,095	67,626	-0,056	-0,042
-444,080	800,000	0,034	-0,107
-443,065	25,317	0,023	-0,014
-442,051	220,467	0,077	-0,090
-441,036	-88,929	-0,023	-0,005
-440,022	-103,154	0,081	0,014
-439,007	-200,000	-0,019	-0,134
-437,992	305,235	0,044	-0,060
-436,978	-70,552	0,157	-0,043
-435,963	288,412	-0,014	0,019
-434,949	-66,535	-0,106	0,030
-433,934	43,015	-0,088	-0,059
-432,919	15,398	-0,103	-0,059
-431,905	-35,209	-0,055	0,022
-430,890	147,599	0,010	-0,010
-429,876	-36,664	0,070	0,027
-428,861	800,000	0,060	0,139
-427,846	800,000	0,052	0,139
-426,832	-29,212	-0,081	0,033
-425,817	800,000	-0,042	-0,110
-424,803	800,000	-0,021	0,067
-423,788	-200,000	0,034	0,217
-422,773	-106,562	0,118	0,019
-421,759	-85,793	-0,066	0,015
-420,744	21,946	-0,122	0,072
-419,730	-200,000	-0,038	0,148
-418,715	-200,000	0,000	0,028
-417,701	59,757	-0,030	-0,022
-416,686	-20,090	0,203	-0,091
-415,671	11,851	0,066	-0,037
-414,657	439,451	0,029	-0,046
-413,642	-78,954	0,077	0,019
-412,628	50,999	-0,028	0,019
-411,613	-35,675	0,014	0,006
-410,598	326,557	-0,098	-0,137
-409,584	570,265	-0,077	0,136
-408,569	12,869	-0,050	0,028
-407,555	-59,121	0,088	0,027
-406,540	-103,593	0,124	0,021
-405,525	800,000	-0,020	0,064
-404,511	-200,000	0,002	0,036
-403,496	-200,000	0,008	-0,098
-402,482	105,499	0,126	0,108
-401,467	-107,000	-0,120	0,019
-400,452	66,324	0,062	0,046
-399,438	737,712	0,029	0,057
-398,423	-38,624	-0,062	0,024
-397,409	-30,824	-0,159	0,065
-396,394	274,554	-0,034	-0,044
-395,379	629,199	0,106	-0,197
-394,365	-23,803	0,033	-0,014
-393,350	15,847	0,031	0,018
-392,336	103,126	-0,115	-0,098
-391,321	681,453	-0,069	0,131
-390,306	800,000	-0,015	-0,040
-389,292	520,650	-0,022	0,037
-388,277	640,265	-0,034	0,062
-387,263	800,000	-0,009	0,028
-386,248	40,704	-0,083	-0,055
-385,233	41,868	-0,061	-0,040
-384,219	-36,799	-0,128	-0,050
-383,204	-200,000	0,000	0,068
-382,190	43,126	-0,119	-0,079
-381,175	-50,935	0,091	0,031
-380,160	800,000	-0,006	0,014
-379,146	-200,000	-0,001	-0,096
-378,131	800,000	0,034	0,099
-377,117	-143,503	0,069	0,005
-376,102	800,000	0,017	-0,043
-375,088	-200,000	0,012	-0,077
-374,073	-48,765	-0,088	-0,030
-373,058	410,905	0,063	-0,097
-372,044	800,000	-0,006	-0,016
-371,029	800,000	0,042	-0,107
-370,015	-200,000	0,021	-0,105
-369,000	-200,000	0,004	-0,079
-367,985	-143,383	-0,104	-0,007
-366,971	104,498	0,030	0,026
-365,956	-38,419	-0,157	0,060
-364,942	417,560	0,035	0,055
-363,927	42,615	-0,008	0,005
-362,912	52,545	0,035	0,024
-361,898	-100,826	0,020	0,003
-360,883	-54,365	-0,019	0,006
-359,869	37,644	0,041	-0,027
-358,854	-165,350	-0,185	-0,006
-357,839	26,338	0,054	0,032
-356,825	-33,726	0,122	-0,049
-355,810	-200,000	0,013	-0,067
-354,796	-62,616	-0,073	0,022
-353,781	800,000	0,078	-0,182
-352,766	10,257	0,080	-0,044
-351,752	615,515	0,047	-0,087
-350,737	-200,000	-0,007	0,039
-349,723	-200,000	-0,009	0,078
-348,708	-50,291	-0,103	0,035
-347,693	110,553	0,032	-0,028
-346,679	-200,000	0,006	-0,048
-345,664	800,000	-0,027	-0,077
-344,650	14,275	-0,020	-0,011
-343,635	-138,412	-0,126	0,010
-342,620	800,000	-0,044	0,113
-341,606	-200,000	0,001	0,017
-340,591	442,623	-0,054	-0,086
-339,577	8,570	-0,086	-0,047
-338,562	650,920	0,052	0,097
-337,548	800,000	0,059	0,176
-336,533	-200,000	-0,016	0,084
-335,518	522,304	0,088	0,150
-334,504	-30,124	0,033	-0,014
-333,489	9,042	-0,066	0,036
-332,475	96,557	0,115	-0,096
-331,460	183,899	-0,021	0,023
-330,445	178,207	0,018	0,019
-329,431	-158,154	-0,002	0,000
-328,416	22,634	0,062	0,036
-327,402	17,204	-0,078	0,045
-326,387	-196,648	0,081	-0,000
-325,372	-27,624	0,078	-0,033
-324,358	-70,494	0,054	-0,015
-323,343	-38,585	0,131	-0,050
-322,329	800,000	-0,030	0,081
-321,314	63,900	0,029	-0,021
-320,299	30,248	0,113	0,070
-319,285	-200,000	0,008	0,082
-318,270	792,709	-0,014	0,028
-317,256	-77,463	-0,109	0,027
-316,241	-32,142	-0,121	-0,049
-315,226	-97,675	0,017	0,003
-314,212	-29,708	0,064	0,026
-313,197	13,653	0,098	-0,055
-312,183	157,682	0,065	-0,065
-311,168	-151,271	-0,073	0,004
-310,153	-7,035	-0,026	0,013
-309,139	132,182	0,061	0,057
-308,124	800,000	-0,016	0,037
-307,110	21,638	0,097	0,057
-306,095	-34,436	0,172	-0,068
-305,080	18,946	0,155	-0,090
-304,066	-120,871	-0,114	0,014
-303,051	103,956	0,095	-0,081
-302,037	-200,000	-0,001	0,093
-301,022	800,000	0,036	-0,082
-300,008	-49,049	-0,003	0,001
-298,993	800,000	-0,048	0,109
-297,978	206,187	-0,089	0,101
-296,964	800,000	0,059	0,130
-295,949	-137,129	-0,213	-0,017
-294,935	-87,882	-0,042	-0,009
-293,920	-200,000	-0,003	0,137
-292,905	38,307	0,074	0,048
-291,891	-175,456	-0,014	0,000
-290,876	-200,000	-0,001	0,112
-289,862	-74,074	-0,016	0,004
-288,847	86,345	-0,173	-0,138
-287,832	-91,135	-0,162	0,033
-286,818	-200,000	-0,024	0,099
-285,803	605,171	0,010	0,017
-284,789	722,910	-0,036	-0,070
-283,774	7,160	0,133	-0,072
-282,759	800,000	-0,008	-0,019
-281,745	49,032	0,117	-0,080
-280,730	800,000	0,037	-0,104
-279,716	800,000	0,016	-0,031
-278,701	271,974	0,048	0,062
-277,686	800,000	0,050	-0,105
-276,672	150,244	0,050	-0,049
-275,657	-164,486	0,222	0,007
-274,643	-14,705	0,088	-0,041
-273,628	-44,396	-0,005	0,002
-272,613	-33,015	0,105	-0,042
-271,599	-200,000	0,013	0,102
-270,584	-147,173	0,078	-0,005
-269,570	473,698	-0,051	-0,084
-268,555	800,000	-0,022	0,054
-267,540	312,529	0,043	-0,059
-266,526	-92,048	-0,161	0,033
-265,511	-200,000	0,019	0,112
-264,497	-200,000	-0,019	-0,189
-263,482	-114,018	-0,032	-0,004
-262,467	-200,000	-0,003	0,064
-261,453	-90,041	0,123	-0,026
-260,438	-136,812	-0,038	-0,003
-259,424	389,043	-0,093	-0,139
-258,409	23,289	0,034	0,020
-257,395	119,016	-0,078	0,070
-256,380	800,000	0,019	0,045
-255,365	-200,000	0,005	-0,068
-254,351	451,743	0,066	0,106
-253,336	-117,722	-0,040	-0,005
-252,322	128,786	-0,076	0,070
-251,307	302,820	-0,054	0,072
-250,292	100,501	0,072	0,060
-249,278	-173,798	0,090	0,002
-248,263	800,000	-0,044	0,126
-247,249	546,241	0,010	-0,017
-246,234	-174,621	-0,101	-0,002
-245,219	21,099	0,059	-0,035
-244,205	114,404	0,100	-0,088
-243,190	20,579	0,129	0,076
-242,176	-200,000	-0,007	-0,091
-241,161	800,000	-0,020	0,047
-240,146	-93,312	0,153	0,030
-239,132	103,847	-0,011	-0,010
-238,117	79,660	-0,094	-0,073
-237,103	724,635	0,028	-0,054
-236,088	192,250	0,041	-0,045
-235,073	800,000	0,044	-0,103
-234,059	-200,000	0,010	0,053
-233,044	-111,914	0,116	-0,017
-232,030	624,834	-0,068	-0,125
-231,015	-11,392	-0,069	-0,033
-230,000	-85,117	-0,119	0,027
-228,986	279,399	-0,069	0,089
-227,971	372,238	0,075	0,110
-226,957	546,414	-0,046	0,080
-225,942	301,292	-0,028	0,037
-224,927	800,000	-0,051	0,113
-223,913	596,953	0,079	-0,141
-222,898	-200,000	-0,028	-0,121
-221,884	-200,000	0,002	-0,087
-220,869	257,359	0,048	0,060
-219,855	724,931	0,068	0,131
-218,840	-200,000	0,002	0,046
-217,825	-54,155	0,136	-0,044
-216,811	-60,867	-0,033	0,010
-215,796	-200,000	-0,004	-0,075
-214,782	800,000	-0,017	0,034
-213,767	-49,928	0,179	-0,061
-212,752	-200,000	-0,015	-0,098
-211,738	644,019	0,056	0,103
-210,723	295,682	0,019	0,025
-209,709	-36,000	-0,078	0,030
-208,694	800,000	-0,035	-0,083
-207,679	-200,000	-0,002	-0,026
-206,665	800,000	0,012	-0,035
-205,650	162,633	0,135	0,137
-204,636	158,759	0,086	0,086
-203,621	-53,566	-0,070	-0,023
-202,606	800,000	0,032	-0,071
-201,592	345,208	0,041	-0,058
-200,577	800,000	-0,053	-0,114
-199,563	-200,000	-0,004	0,022
-198,548	800,000	-0,074	0,203
-197,533	-200,000	-0,016	0,096
-196,519	394,551	0,026	-0,039
-195,504	-42,564	-0,063	-0,023
-194,490	153,435	-0,048	0,048
-193,475	107,510	0,028	0,024
-192,460	-200,000	0,011	-0,048
-191,446	71,907	0,024	0,018
-190,431	89,685	0,031	0,025
-189,417	700,041	-0,075	-0,143
-188,402	166,987	-0,031	-0,032
-187,387	800,000	-0,047	-0,147
-186,373	-115,524	-0,074	-0,010
-185,358	-200,000	0,044	0,143
-184,344	-200,000	-0,011	0,096
-183,329	-34,261	-0,039	-0,015
-182,315	-200,000	0,012	-0,053
-181,300	-20,983	0,060	-0,026
-180,285	-200,000	0,004	-0,060
-179,271	448,735	-0,052	0,082
-178,256	-100,431	-0,024	-0,004
-177,242	800,000	0,120	0,275
-176,227	83,449	0,091	-0,072
-175,212	41,468	-0,098	-0,064
-174,198	-200,000	0,008	0,061
-173,183	17,284	-0,103	0,059
-172,169	-200,000	0,012	-0,041
-171,154	-200,000	-0,004	0,027
-170,139	-200,000	0,028	0,095
-169,125	-200,000	0,014	-0,094
-168,110	103,699	0,093	0,079
-167,096	210,964	-0,047	-0,054
-166,081	800,000	0,027	0,057
-165,066	-200,000	0,012	-0,080
-164,052	-94,387	-0,014	0,003
-163,037	228,240	0,071	-0,084
-162,023	-14,943	-0,073	-0,034
-161,008	119,849	0,038	0,034
-159,993	-200,000	0,005	-0,047
-158,979	800,000	0,022	0,061
-157,964	-33,388	-0,110	0,044
-156,950	114,903	-0,065	-0,057
-155,935	631,313	0,063	0,115
-154,920	233,235	0,038	0,046
-153,906	771,154	0,042	0,083
-152,891	800,000	-0,053	-0,111
-151,877	4,073	0,179	-0,094
-150,862	800,000	-0,042	-0,096
-149,847	-61,108	-0,113	-0,034
-148,833	370,363	-0,072	-0,106
-147,818	107,704	0,039	-0,033
-146,804	20,490	0,116	0,068
-145,789	-50,082	0,072	-0,024
-144,775	313,144	0,077	-0,104
-143,760	800,000	-0,041	-0,107
-142,745	68,528	-0,071	0,052
-141,731	800,000	0,046	0,138
-140,716	350,410	-0,051	-0,073
-139,702	-82,629	0,132	0,031
-138,687	800,000	-0,107	0,239
-137,672	-82,515	-0,077	0,018
-136,658	14,055	-0,045	-0,025
-135,643	-137,789	-0,033	0,003
-134,629	-70,719	-0,100	0,027
-133,614	-14,018	0,071	0,033
-132,599	23,831	0,083	0,049
-131,585	-200,000	0,008	0,036
-130,570	-88,003	-0,122	-0,026
-129,556	-195,683	-0,033	-0,000
-128,541	-143,585	-0,127	0,009
-127,526	63,075	-0,081	-0,058
-126,512	587,994	-0,106	-0,189
-125,497	-200,000	-0,007	-0,061
-124,483	287,478	0,091	-0,119
-123,468	-80,871	-0,075	-0,018
-122,453	55,775	0,017	-0,012
-121,439	56,986	-0,074	0,052
-120,424	800,000	-0,017	-0,048
-119,410	-200,000	-0,009	-0,085
-118,395	800,000	0,044	-0,110
-117,380	-93,968	0,095	-0,019
-116,366	-200,000	0,021	-0,082
-115,351	-37,787	0,169	-0,064
-114,337	-29,316	-0,090	0,037
-113,322	17,497	-0,130	-0,074
-112,307	-200,000	0,043	-0,152
-111,293	-4,012	0,104	0,052
-110,278	-200,000	-0,004	0,051
-109,264	107,449	-0,069	-0,059
-108,249	-51,964	-0,036	-0,012
-107,234	-200,000	0,011	-0,105
-106,220	482,199	0,021	0,034
-105,205	-159,114	0,036	0,001
-104,191	-115,270	0,139	0,019
-103,176	800,000	0,062	0,152
-102,162	359,285	0,091	0,131
-101,147	-192,021	-0,039	0,000
-100,132	-112,022	-0,121	-0,017
-99,118	69,118	0,071	-0,053
-98,103	-200,000	-0,002	0,016
-97,089	-200,000	0,005	-0,040
-96,074	800,000	0,029	0,064
-95,059	-140,389	0,112	0,008
-94,045	-164,438	-0,077	-0,002
-93,030	-92,678	-0,051	-0,010
-92,016	-200,000	-0,024	-0,112
-91,001	385,949	0,040	-0,059
-89,986	800,000	-0,070	-0,214
-88,972	-66,910	0,065	-0,018
-87,957	-200,000	0,016	0,066
-86,943	800,000	0,023	0,064
-85,928	-200,000	0,143	-0,000
-84,913	-120,669	-0,158	0,019
-83,899	48,632	0,045	-0,031
-82,884	-60,199	-0,142	0,043
-81,870	113,514	0,084	0,073
-80,855	800,000	-0,030	0,086
-79,840	-7,878	0,036	0,018
-78,826	-97,155	-0,232	0,043
-77,811	416,777	0,043	-0,067
-76,797	-150,566	0,081	0,004
-75,782	-99,222	0,047	0,008
-74,767	789,228	-0,059	0,116
-73,753	473,199	-0,081	0,131
-72,738	-3,483	-0,188	0,094
-71,724	31,085	-0,095	0,058
-70,709	184,287	-0,040	-0,043
-69,694	-157,438	-0,124	-0,005
-68,680	3,225	0,060	0,031
-67,665	386,223	-0,017	0,026
-66,651	-68,954	-0,086	-0,024
-65,636	-11,592	0,085	-0,040
-64,622	-200,000	0,014	-0,113
-63,607	-200,000	-0,022	-0,095
-62,592	-19,028	-0,029	0,013
-61,578	-122,888	-0,051	0,006
-60,563	32,815	-0,010	0,006
-59,549	19,635	0,073	-0,042
-58,534	0,659	-1,925	-0,986
-57,519	800,000	-0,259	-0,810
-56,505	-200,000	-1,212	-4,889
-55,490	11,423	0,750	0,412
-54,476	800,000	5,359	12,126
-53,461	-200,000	17,531	284,134
-52,446	800,000	727,720	2216,204
-51,432	535,406	1643,788	2809,573
-50,417	110,089	1634,441	1407,925
-49,403	75,856	1286,637	975,354
-48,388	32,066	1027,419	634,329
-47,373	20,138	989,249	571,435
-46,359	18,511	977,273	559,162
-45,344	15,555	973,392	547,244
-44,330	15,856	971,795	547,308
-43,315	15,319	970,000	544,522
-42,300	15,322	968,824	543,851
-41,286	15,263	967,950	543,146
-40,271	15,310	966,857	542,662
-39,257	15,313	965,938	542,138
-38,242	15,345	965,048	541,719
-37,227	15,305	964,161	541,070
-36,213	15,321	963,388	540,666
-35,198	15,262	962,599	540,011
-34,184	15,348	961,795	539,816
-33,169	15,279	960,710	538,963
-32,154	15,380	959,881	538,805
-31,140	15,289	959,066	538,032
-30,125	15,303	958,383	537,672
-29,111	15,305	957,382	537,097
-28,096	15,294	956,923	536,781
-27,082	15,333	956,200	536,480
-26,067	15,327	955,362	535,970
-25,052	15,308	954,487	535,395
-24,038	15,335	953,865	535,111
-23,023	15,340	953,255	534,766
-22,009	15,341	952,579	534,368
-20,994	15,334	952,006	534,004
-19,979	15,317	951,551	533,670
-18,965	15,346	950,802	533,322
-17,950	15,393	950,077	533,046
-16,936	15,274	949,715	532,442
-15,921	15,219	948,830	531,748
-14,906	15,211	948,203	531,349
-13,892	15,242	947,399	530,977
-12,877	15,217	946,811	530,547
-11,863	15,146	946,263	529,994
-10,848	15,210	945,633	529,822
-9,833	15,312	945,082	529,817
-8,819	15,271	944,493	529,336
-7,804	15,248	943,907	528,914
-6,790	15,211	943,425	528,505
-5,775	15,245	942,890	528,292
-4,760	15,260	941,970	527,802
-3,746	15,241	941,508	527,463
-2,731	15,110	940,843	526,656
-1,717	15,131	940,139	526,308
-0,702	15,056	939,452	525,662
0,313	14,848	938,914	525,499
1,327	18,103	936,643	534,436
2,342	27,066	794,169	476,890
3,356	23,772	459,405	270,801
4,371	-3,376	314,770	156,651
5,386	-7,485	296,786	143,521
6,400	-9,504	290,571	138,496
7,415	-9,982	288,205	136,884
8,429	-10,020	286,677	136,109
9,444	-10,049	285,724	135,616
10,459	-9,946	285,229	135,469
11,473	-10,062	284,535	135,015
12,488	-9,989	283,951	134,796
13,502	-10,061	283,502	134,502
14,517	-9,956	283,097	134,400
15,531	-10,150	282,520	133,925
16,546	-9,899	282,242	134,024
17,561	-9,916	281,831	133,801
18,575	-9,870	281,556	133,702
19,590	-9,997	281,101	133,352
20,604	-9,889	280,791	133,297
21,619	-10,143	280,461	132,885
22,634	-9,908	280,055	132,906
23,648	-10,095	279,864	132,625
24,663	-10,192	279,607	132,399
25,677	-10,060	279,221	132,330
26,692	-10,099	279,172	132,257
27,707	-9,986	278,827	132,190
28,721	-9,953	278,365	131,991
29,736	-9,948	278,164	131,888
30,750	-10,083	277,908	131,627
31,765	-10,110	277,679	131,481
32,780	-9,984	277,417	131,465
33,794	-10,055	277,224	131,294
34,809	-9,951	276,980	131,265
35,823	-9,986	276,720	131,097
36,838	-9,994	276,446	130,948
37,853	-10,137	276,141	130,658
38,867	-10,170	276,009	130,552
39,882	-9,891	275,735	130,674
40,896	-10,069	275,527	130,396
41,911	-10,113	275,150	130,164
42,926	-9,944	274,748	130,121
43,940	-10,048	274,690	129,984
44,955	-9,986	274,376	129,882
45,969	-10,084	274,281	129,735
46,984	-10,144	274,078	129,571
47,999	-10,373	273,684	129,159
49,013	-10,610	273,461	128,822
50,028	-10,485	273,004	128,710
51,042	-10,753	272,862	128,383
52,057	-10,821	272,707	128,235
53,071	-10,585	272,429	128,313
54,086	-10,523	272,336	128,315
55,101	-10,434	272,134	128,291
56,115	-10,324	272,020	128,328
57,130	-9,907	271,692	128,548
58,144	-10,085	271,631	128,342
59,159	-9,827	271,223	128,377
60,174	-9,844	271,079	128,282
61,188	-9,882	270,967	128,182
62,203	-9,764	270,568	128,090
63,217	-9,794	270,438	127,990
64,232	-10,022	270,252	127,681
65,247	-9,745	269,732	127,678
66,261	-9,826	269,747	127,599
67,276	-10,032	269,527	127,295
68,290	-10,266	269,212	126,920
69,305	-10,272	268,864	126,739
70,320	-10,311	268,850	126,685
71,334	-10,122	268,637	126,746
72,349	-9,829	268,441	126,911
73,363	-9,921	268,328	126,762
74,378	-10,079	268,147	126,521
75,393	-9,952	267,905	126,511
76,407	-9,844	267,673	126,489
77,422	-9,801	267,353	126,366
78,436	-10,067	267,265	126,070
79,451	-10,077	267,032	125,941
80,466	-9,858	266,735	125,988
81,480	-10,064	266,552	125,703
82,495	-10,140	266,205	125,460
83,509	-10,107	266,172	125,463
84,524	-10,006	265,858	125,395
85,539	-10,199	265,662	125,117
86,553	-10,330	265,495	124,909
87,568	-10,290	265,387	124,883
88,582	-10,172	264,870	124,735
89,597	-10,207	264,763	124,642
90,611	-10,128	264,716	124,680
91,626	-9,895	264,587	124,817
92,641	-10,035	264,427	124,605
93,655	-9,977	264,242	124,559
94,670	-9,969	263,830	124,361
95,684	-9,898	263,802	124,399
96,699	-10,023	263,365	124,071
97,714	-10,048	263,310	124,012
98,728	-10,046	262,960	123,837
99,743	-10,264	262,858	123,584
100,757	-10,300	262,676	123,455
101,772	-10,290	262,525	123,382
102,787	-10,139	262,309	123,404
103,801	-10,101	262,104	123,330
104,816	-10,008	261,904	123,308
105,830	-9,928	261,752	123,296
106,845	-9,795	261,646	123,354
107,860	-10,019	261,434	123,044
108,874	-10,029	261,033	122,836
109,889	-9,930	260,888	122,844
110,903	-9,903	260,750	122,792
111,918	-9,969	260,482	122,596
112,933	-9,866	260,344	122,612
113,947	-9,929	260,240	122,496
114,962	-9,683	260,009	122,593
115,976	-10,050	259,625	122,078
116,991	-9,961	259,655	122,160
118,006	-9,881	259,296	122,050
119,020	-9,773	259,215	122,096
120,035	-9,978	259,190	121,893
121,049	-9,958	258,948	121,786
122,064	-9,883	258,672	121,711
123,079	-9,968	258,448	121,521
124,093	-9,981	258,075	121,323
125,108	-10,129	257,923	121,111
126,122	-10,318	257,817	120,885
127,137	-10,443	257,597	120,662
128,151	-10,147	257,309	120,775
129,166	-10,191	257,319	120,730
130,181	-10,255	257,000	120,515
131,195	-10,157	256,947	120,564
132,210	-10,099	256,755	120,514
133,224	-10,016	256,545	120,477
134,239	-9,804	256,292	120,531
135,254	-9,722	256,009	120,458
136,268	-10,155	255,861	120,003
137,283	-10,174	255,650	119,877
138,297	-10,274	255,565	119,740
139,312	-10,449	255,301	119,454
140,327	-10,206	255,208	119,609
141,341	-9,883	255,098	119,826
142,356	-9,895	254,992	119,756
143,370	-9,681	254,603	119,746
144,385	-9,629	254,479	119,722
145,400	-9,814	254,473	119,549
146,414	-9,796	254,262	119,455
147,429	-9,662	253,933	119,405
148,443	-9,641	253,746	119,324
149,458	-9,809	253,588	119,095
150,473	-9,880	253,523	118,993
151,487	-9,777	253,111	118,878
152,502	-9,774	253,115	118,871
153,516	-9,795	252,951	118,766
154,531	-9,695	252,694	118,720
155,546	-9,926	252,578	118,458
156,560	-9,974	252,458	118,349
157,575	-9,919	252,155	118,244
158,589	-9,987	251,966	118,087
159,604	-10,044	251,799	117,950
160,619	-9,712	251,552	118,106
161,633	-9,657	251,351	118,047
162,648	-9,656	251,461	118,089
163,662	-9,507	250,973	117,976
164,677	-9,850	251,039	117,706
165,692	-9,883	250,861	117,584
166,706	-9,882	250,703	117,501
167,721	-9,718	250,526	117,546
168,735	-9,862	250,212	117,266
169,750	-9,816	250,156	117,269
170,764	-9,565	249,880	117,340
171,779	-9,771	249,958	117,192
172,794	-9,794	249,842	117,109
173,808	-9,761	249,493	116,962
174,823	-10,143	249,234	116,509
175,837	-10,309	248,997	116,248
176,852	-9,953	248,800	116,445
177,867	-9,614	248,665	116,655
178,881	-9,707	248,750	116,607
179,896	-9,681	248,491	116,497
180,910	-9,603	248,089	116,363
181,925	-9,831	248,096	116,165
182,940	-9,798	247,926	116,103
183,954	-9,654	247,794	116,151
184,969	-9,571	247,505	116,075
185,983	-9,614	247,474	116,014
186,998	-9,840	247,364	115,763
188,013	-9,809	247,055	115,634
189,027	-9,502	246,869	115,793
190,042	-9,827	246,689	115,428
191,056	-9,683	246,499	115,448
192,071	-9,577	246,278	115,422
193,086	-9,702	246,227	115,284
194,100	-9,707	246,017	115,171
195,115	-9,644	245,816	115,120
196,129	-9,763	245,720	114,966
197,144	-9,598	245,371	114,928
198,159	-9,685	245,218	114,774
199,173	-9,792	245,102	114,622
200,188	-9,859	244,926	114,474
201,202	-10,059	244,748	114,216
202,217	-10,335	244,393	113,813
203,232	-10,164	244,242	113,873
204,246	-9,919	244,120	114,008
205,261	-9,299	243,889	114,398
206,275	-10,266	243,607	113,463
207,290	-7,274	244,828	116,485
208,304	-0,449	247,093	123,207
209,319	3,312	248,181	126,859
210,334	3,681	248,176	127,150
211,348	3,901	248,078	127,271
212,363	4,073	247,937	127,330
213,377	4,154	247,796	127,313
214,392	3,950	247,638	127,052
215,407	4,025	247,409	126,985
216,421	3,913	247,242	126,796
217,436	4,242	247,128	126,997
218,450	4,297	247,028	126,979
219,465	3,938	246,820	126,566
220,480	3,904	246,513	126,370
221,494	3,709	246,475	126,178
222,509	3,769	246,199	126,075
223,523	3,901	246,064	126,102
224,538	3,508	245,700	125,583
225,553	3,659	245,597	125,643
226,567	3,598	245,522	125,544
227,582	3,800	245,433	125,651
228,596	3,838	245,291	125,599
229,611	3,468	245,089	125,182
230,626	3,447	244,870	125,042
231,640	3,563	244,747	125,062
232,655	3,757	244,432	125,049
233,669	3,623	244,327	124,875
234,684	3,301	244,192	124,532
235,699	4,044	244,250	125,155
236,713	3,909	244,008	124,911
237,728	3,696	243,680	124,559
238,742	3,286	243,587	124,167
239,757	3,296	243,382	124,060
240,772	3,469	243,267	124,130
241,786	3,706	243,111	124,231
242,801	3,391	243,004	123,911
243,815	3,469	242,786	123,852
244,830	3,490	242,784	123,857
245,844	3,719	242,517	123,894
246,859	3,408	242,234	123,488
247,874	3,313	242,184	123,374
248,888	3,766	242,031	123,651
249,903	3,523	241,856	123,355
250,917	3,775	241,709	123,472
251,932	3,812	241,603	123,436
252,947	3,747	241,401	123,270
253,961	3,465	241,125	122,892
254,976	3,720	241,090	123,067
255,990	3,764	240,944	123,017
257,005	3,474	240,770	122,685
258,020	3,249	240,510	122,361
259,034	3,401	240,467	122,450
260,049	3,574	240,251	122,467
261,063	3,474	240,060	122,280
262,078	3,435	240,031	122,223
263,093	3,636	239,981	122,347
264,107	3,573	239,851	122,219
265,122	3,549	239,665	122,094
266,136	3,461	239,500	121,930
267,151	3,949	239,270	122,189
268,166	3,691	238,948	121,809
269,180	3,353	238,873	121,492
270,195	3,785	238,902	121,839
271,209	4,108	238,753	122,008
272,224	3,758	238,603	121,643
273,239	3,239	238,219	121,026
274,253	3,369	238,118	121,067
275,268	3,686	237,994	121,243
276,282	3,773	237,810	121,207
277,297	3,649	237,634	121,009
278,312	3,439	237,484	120,756
279,326	3,548	237,572	120,877
280,341	3,391	237,501	120,705
281,355	3,663	237,086	120,698
282,370	3,857	236,999	120,795
283,384	3,783	236,729	120,588
284,399	3,583	236,525	120,317
285,414	3,160	236,407	119,915
286,428	3,348	236,346	120,021
287,443	3,544	236,170	120,074
288,457	3,479	236,202	120,029
289,472	3,960	235,910	120,246
290,487	3,726	235,778	119,985
291,501	3,684	235,633	119,868
292,516	3,397	235,403	119,516
293,530	3,161	235,283	119,261
294,545	3,546	235,266	119,542
295,560	3,588	234,883	119,369
296,574	3,372	234,830	119,163
297,589	3,395	234,657	119,083
298,603	3,799	234,577	119,345
299,618	3,608	234,500	119,147
300,633	3,778	234,221	119,127
301,647	3,745	234,172	119,065
302,662	3,953	234,223	119,242
303,676	4,020	233,927	119,133
304,691	3,887	233,717	118,912
305,706	4,274	233,504	119,092
306,720	3,998	233,408	118,820
307,735	3,901	233,320	118,689
308,749	3,706	233,151	118,442
309,764	3,626	232,858	118,222
310,779	3,485	232,645	117,994
311,793	3,246	232,577	117,765
312,808	3,330	232,210	117,633
313,822	3,340	232,190	117,620
314,837	3,392	232,095	117,601
315,852	3,540	231,877	117,594
316,866	3,650	231,892	117,675
317,881	3,811	231,845	117,765
318,895	4,036	231,641	117,823
319,910	4,075	231,435	117,738
320,925	3,655	231,240	117,307
321,939	3,384	230,989	116,962
322,954	3,801	230,999	117,275
323,968	3,309	230,734	116,755
324,983	3,426	230,498	116,714
325,997	3,836	230,636	117,086
327,012	3,857	230,531	117,039
328,027	3,644	230,249	116,723
329,041	3,962	230,194	116,926
330,056	4,234	230,203	117,126
331,070	4,031	230,195	116,959
332,085	4,032	229,836	116,766
333,100	4,217	229,510	116,730
334,114	4,042	229,464	116,564
335,129	4,217	229,172	116,537
336,143	4,253	229,081	116,508
337,158	3,951	228,999	116,228
338,173	4,171	228,923	116,345
339,187	3,845	228,767	116,009
340,202	4,013	228,696	116,090
341,216	3,863	228,460	115,846
342,231	3,790	228,327	115,714
343,246	3,778	228,179	115,619
344,260	3,664	228,198	115,533
345,275	3,906	227,911	115,559
346,289	3,919	227,682	115,442
347,304	4,015	227,733	115,530
348,319	4,370	227,443	115,639
349,333	3,915	227,302	115,216
350,348	3,669	227,184	114,962
351,362	3,899	227,073	115,067
352,377	3,742	226,733	114,768
353,392	3,546	226,604	114,546
354,406	3,587	226,420	114,473
355,421	194,582	1321,773	1395,735
356,435	155,945	1455,216	1395,723
