DTS Sentinel unit serial number:	SN410029Multiplexer serial number:	ORYXHardware model number:	OX2-SRSoftware version number:	ORYX F/W v4,00 Oryx Data Collector v3.7.2.0data status	okinstallation	B5 Nyhavnadifferential loss correction	single-endedforward channel	channel 2reverse channel	N/Adate	2023/12/12time	15:27:13forward acquisition time	300,00reverse acquisition time	0,00gamma	499,1914k internal	0,3156k external	0,3156temperature offset calibration	1,0000default loss term (dB/km)	0,3820temperature slope calibration	1,0000multiplexer offset coefficient	1,0000multiplexer slope coefficient	1,0000fibre end	0,00T internal ref (°C)	15,93T ext. ref 1 (°C)	-0,45T ext. ref 2 (°C)	-0,70length (m)	temperature (°C)	Stokes	anti-Stokes-744,400	18,040	0,035	0,020
-743,385	-123,609	-0,288	0,033
-742,371	46,530	0,074	-0,050
-741,356	55,779	-0,144	0,103
-740,342	-3,012	0,192	0,098
-739,327	-155,186	-0,249	0,012
-738,312	-69,634	0,044	-0,012
-737,298	-115,418	-0,375	0,052
-736,283	40,117	0,043	0,029
-735,269	-90,679	-0,288	0,061
-734,254	81,679	0,041	0,033
-733,239	-112,528	-0,476	-0,069
-732,225	267,403	0,082	0,106
-731,210	587,325	0,050	0,090
-730,196	-106,891	-0,098	-0,016
-729,181	-77,612	-0,073	0,018
-728,167	-81,356	-0,035	-0,008
-727,152	-153,478	-0,064	0,003
-726,137	-143,348	-0,081	0,006
-725,123	-122,138	0,052	0,006
-724,108	-167,702	-0,094	-0,003
-723,094	568,965	-0,072	-0,129
-722,079	800,000	-0,043	0,094
-721,064	277,274	0,076	0,100
-720,050	-59,940	-0,139	0,044
-719,035	177,320	-0,059	-0,063
-718,021	-200,000	-0,024	-0,140
-717,006	326,332	-0,081	-0,115
-715,991	256,346	-0,103	-0,130
-714,977	-200,000	-0,004	-0,044
-713,962	-148,146	-0,126	-0,008
-712,948	-200,000	0,024	0,096
-711,933	1,394	-0,115	-0,061
-710,918	167,903	-0,083	0,087
-709,904	800,000	-0,029	-0,080
-708,889	-200,000	0,017	0,122
-707,875	277,016	-0,133	-0,174
-706,860	123,506	0,112	0,104
-705,845	299,391	-0,052	0,070
-704,831	-200,000	0,013	0,069
-703,816	-29,567	0,064	-0,027
-702,802	800,000	-0,054	0,133
-701,787	46,609	-0,130	-0,089
-700,772	25,728	0,102	-0,063
-699,758	11,954	-0,077	-0,043
-698,743	-115,482	-0,117	0,016
-697,729	-200,000	-0,024	0,114
-696,714	800,000	0,042	-0,130
-695,699	800,000	-0,010	0,023
-694,685	-113,279	-0,123	-0,018
-693,670	-200,000	-0,031	-0,158
-692,656	-146,524	-0,164	-0,010
-691,641	-15,612	0,107	0,050
-690,627	493,280	0,044	-0,074
-689,612	-97,114	-0,119	0,023
-688,597	422,406	0,038	0,060
-687,583	16,136	-0,069	-0,040
-686,568	-50,284	-0,052	-0,018
-685,554	79,449	0,065	-0,051
-684,539	-80,014	0,068	0,017
-683,524	678,740	-0,056	0,108
-682,510	800,000	-0,024	0,060
-681,495	472,741	-0,029	0,048
-680,481	-6,935	-0,018	-0,009
-679,466	-200,000	0,043	-0,144
-678,451	274,296	-0,049	-0,064
-677,437	-200,000	-0,011	-0,135
-676,422	118,600	0,090	0,082
-675,408	537,754	-0,015	-0,026
-674,393	209,623	-0,050	-0,057
-673,378	169,059	-0,100	0,105
-672,364	158,987	-0,067	-0,069
-671,349	800,000	-0,036	-0,082
-670,335	158,858	0,046	0,047
-669,320	439,674	-0,033	0,052
-668,305	-26,480	0,051	0,022
-667,291	18,600	0,072	-0,042
-666,276	-84,105	0,039	0,009
-665,262	-17,461	-0,107	0,049
-664,247	800,000	0,054	-0,128
-663,232	-126,102	-0,053	0,006
-662,218	88,541	0,097	0,079
-661,203	-200,000	0,020	0,076
-660,189	34,630	0,024	0,015
-659,174	305,746	-0,050	-0,068
-658,159	800,000	0,060	-0,145
-657,145	21,531	-0,046	0,028
-656,130	-200,000	0,006	0,106
-655,116	268,659	-0,028	-0,037
-654,101	43,458	-0,131	0,088
-653,086	800,000	0,033	-0,071
-652,072	-200,000	0,003	-0,020
-651,057	-99,374	0,024	-0,004
-650,043	-72,816	-0,126	-0,034
-649,028	374,967	0,121	0,182
-648,014	-200,000	-0,004	-0,129
-646,999	-200,000	-0,019	-0,076
-645,984	647,553	0,043	-0,082
-644,970	563,402	-0,035	-0,062
-643,955	-200,000	-0,027	-0,242
-642,941	-26,716	-0,141	-0,060
-641,926	-200,000	-0,053	-0,229
-640,911	-200,000	-0,042	-0,154
-639,897	-120,663	0,134	0,016
-638,882	197,840	-0,083	0,094
-637,868	-50,782	-0,051	-0,017
-636,853	157,939	-0,049	-0,050
-635,838	800,000	-0,054	-0,110
-634,824	133,588	0,060	-0,057
-633,809	-70,221	0,092	0,026
-632,795	629,926	-0,018	0,033
-631,780	71,780	0,102	0,078
-630,765	161,670	-0,070	-0,072
-629,751	-200,000	0,002	-0,292
-628,736	35,304	0,068	0,043
-627,722	221,463	0,033	-0,038
-626,707	-56,185	-0,032	0,010
-625,692	-200,000	0,003	0,051
-624,678	-105,909	-0,036	0,006
-623,663	134,038	-0,030	0,029
-622,649	-24,865	-0,077	0,034
-621,634	800,000	-0,045	-0,125
-620,619	800,000	-0,103	-0,234
-619,605	93,820	-0,023	-0,019
-618,590	-200,000	0,006	0,039
-617,576	-200,000	0,001	0,018
-616,561	-200,000	0,008	0,036
-615,546	356,846	-0,051	0,075
-614,532	164,759	0,052	0,054
-613,517	-93,303	0,052	0,010
-612,503	-200,000	0,031	-0,101
-611,488	773,737	0,042	0,085
-610,474	342,493	0,056	0,081
-609,459	186,901	-0,094	-0,103
-608,444	256,669	-0,052	0,066
-607,430	71,770	-0,061	0,046
-606,415	-15,091	-0,070	-0,033
-605,401	-18,598	-0,177	-0,080
-604,386	800,000	-0,012	-0,039
-603,371	147,740	0,094	0,093
-602,357	-200,000	-0,005	-0,017
-601,342	53,863	-0,113	0,080
-600,328	-75,446	-0,025	-0,006
-599,313	800,000	0,006	-0,020
-598,298	354,226	-0,062	-0,090
-597,284	-152,328	0,008	0,000
-596,269	36,283	-0,080	0,052
-595,255	31,432	0,022	0,014
-594,240	-159,258	-0,029	-0,001
-593,225	429,469	-0,056	-0,089
-592,211	-35,231	-0,121	-0,048
-591,196	104,840	-0,093	0,080
-590,182	-200,000	0,038	0,147
-589,167	160,394	-0,116	0,119
-588,152	-86,931	-0,057	0,013
-587,138	-121,279	-0,073	0,009
-586,123	52,275	-0,035	-0,024
-585,109	-36,954	0,093	0,036
-584,094	124,864	0,030	-0,028
-583,079	201,437	0,021	-0,024
-582,065	-200,000	0,038	-0,152
-581,050	374,099	0,043	-0,064
-580,036	23,434	-0,100	0,060
-579,021	-200,000	0,001	-0,114
-578,006	289,558	-0,084	-0,112
-576,992	-157,349	0,055	-0,002
-575,977	55,995	-0,066	0,047
-574,963	-200,000	0,014	0,082
-573,948	95,928	-0,048	0,040
-572,934	24,132	-0,128	-0,077
-571,919	-200,000	-0,015	-0,078
-570,904	20,459	-0,063	-0,037
-569,890	-58,021	0,047	-0,015
-568,875	-200,000	0,022	-0,081
-567,861	415,392	0,067	-0,105
-566,846	-16,985	-0,119	0,055
-565,831	-3,722	-0,072	0,037
-564,817	45,469	-0,089	0,060
-563,802	184,331	0,078	0,085
-562,788	800,000	-0,025	0,068
-561,773	344,326	-0,026	-0,037
-560,758	-200,000	0,013	-0,100
-559,744	-109,157	0,112	0,017
-558,729	-166,955	-0,099	0,003
-557,715	-200,000	0,026	-0,118
-556,700	-200,000	-0,027	0,182
-555,685	371,184	0,061	0,091
-554,671	-6,463	-0,073	-0,036
-553,656	800,000	-0,025	0,059
-552,642	213,179	-0,034	0,039
-551,627	276,898	0,053	0,070
-550,612	603,759	0,042	0,076
-549,598	177,032	-0,095	-0,102
-548,583	-130,379	-0,089	0,009
-547,569	254,629	-0,008	0,010
-546,554	-27,075	0,113	0,048
-545,539	-200,000	0,014	0,066
-544,525	-38,363	0,094	-0,036
-543,510	37,958	-0,050	0,033
-542,496	178,806	-0,113	0,121
-541,481	-58,153	-0,082	-0,026
-540,466	-96,833	0,059	-0,011
-539,452	13,522	0,004	0,002
-538,437	-51,862	-0,058	-0,020
-537,423	-53,410	0,101	-0,034
-536,408	288,427	-0,026	0,035
-535,393	800,000	-0,019	0,056
-534,379	-85,960	-0,122	0,027
-533,364	800,000	-0,035	-0,091
-532,350	345,194	0,052	0,075
-531,335	-50,248	0,066	0,023
-530,321	580,122	-0,027	-0,049
-529,306	-200,000	-0,000	0,027
-528,291	-13,093	0,060	0,029
-527,277	800,000	-0,022	0,050
-526,262	-200,000	0,016	0,106
-525,248	124,636	-0,075	0,069
-524,233	130,260	0,156	0,146
-523,218	-6,376	0,046	0,023
-522,204	-157,224	0,035	-0,002
-521,189	-200,000	-0,019	0,096
-520,175	800,000	0,003	-0,007
-519,160	-200,000	0,012	-0,106
-518,145	800,000	0,006	-0,018
-517,131	97,400	0,075	0,063
-516,116	64,103	0,095	0,070
-515,102	-200,000	0,012	0,177
-514,087	26,374	-0,134	0,082
-513,072	52,003	0,059	-0,041
-512,058	129,492	0,141	-0,132
-511,043	-69,569	0,031	-0,009
-510,029	-10,522	0,090	0,043
-509,014	800,000	0,023	0,068
-507,999	-200,000	-0,003	-0,093
-506,985	-64,201	-0,080	-0,024
-505,970	36,463	-0,069	-0,044
-504,956	389,253	0,013	-0,020
-503,941	-200,000	-0,001	-0,039
-502,926	345,813	-0,009	0,014
-501,912	98,829	0,034	0,029
-500,897	-200,000	-0,018	-0,069
-499,883	-117,232	-0,105	-0,014
-498,868	-12,494	-0,158	-0,075
-497,853	-48,717	0,090	-0,031
-496,839	-200,000	-0,019	-0,205
-495,824	224,904	-0,048	0,057
-494,810	-94,118	0,061	-0,012
-493,795	-200,000	0,026	0,222
-492,781	-200,000	0,004	-0,097
-491,766	-168,047	0,019	-0,001
-490,751	174,129	0,055	-0,058
-489,737	-200,000	0,007	-0,065
-488,722	-43,134	0,205	-0,075
-487,708	42,802	0,038	0,025
-486,693	-66,919	0,153	-0,044
-485,678	207,988	0,065	-0,074
-484,664	-200,000	-0,057	-0,222
-483,649	763,853	0,089	-0,177
-482,635	800,000	-0,003	0,008
-481,620	-200,000	-0,017	0,060
-480,605	240,741	-0,073	0,089
-479,591	647,770	0,043	0,080
-478,576	422,824	-0,054	-0,084
-477,562	-97,316	-0,119	-0,022
-476,547	-200,000	-0,005	-0,086
-475,532	-200,000	-0,041	-0,170
-474,518	54,659	-0,030	-0,021
-473,503	672,865	0,008	0,016
-472,489	-49,960	-0,055	0,019
-471,474	800,000	0,026	0,063
-470,459	-114,604	0,049	0,007
-469,445	-200,000	0,022	0,078
-468,430	-200,000	0,002	0,009
-467,416	18,359	0,060	-0,035
-466,401	800,000	0,003	0,009
-465,386	-200,000	0,014	0,101
-464,372	800,000	0,005	-0,015
-463,357	-172,630	-0,092	-0,002
-462,343	800,000	0,063	-0,165
-461,328	-71,974	0,057	-0,015
-460,313	800,000	-0,065	-0,151
-459,299	73,227	0,125	-0,095
-458,284	165,256	0,108	0,112
-457,270	-27,786	0,060	0,025
-456,255	800,000	0,027	-0,079
-455,241	-27,837	-0,082	0,035
-454,226	62,872	0,083	0,060
-453,211	-68,032	-0,181	0,051
-452,197	800,000	0,060	-0,164
-451,182	4,091	-0,065	-0,035
-450,168	-26,992	0,071	-0,030
-449,153	-200,000	-0,015	0,125
-448,138	21,878	-0,034	-0,020
-447,124	234,445	-0,036	0,044
-446,109	-105,653	0,048	0,008
-445,095	-161,765	-0,051	-0,002
-444,080	-200,000	-0,009	0,039
-443,065	-25,464	0,103	-0,044
-442,051	-44,822	-0,080	0,029
-441,036	41,678	-0,012	0,008
-440,022	23,500	-0,142	-0,085
-439,007	-200,000	-0,006	-0,021
-437,992	-32,025	0,058	-0,024
-436,978	-200,000	-0,008	-0,081
-435,963	224,541	-0,031	0,037
-434,949	-200,000	-0,021	-0,115
-433,934	-64,881	0,083	-0,024
-432,919	-184,204	-0,046	0,001
-431,905	318,365	-0,080	-0,110
-430,890	-117,999	0,045	-0,006
-429,876	362,567	0,120	0,176
-428,861	-130,494	-0,128	0,012
-427,846	-30,169	0,060	-0,025
-426,832	-200,000	0,005	-0,158
-425,817	-112,648	-0,099	-0,014
-424,803	-17,425	-0,018	-0,008
-423,788	-50,937	0,108	-0,037
-422,773	64,591	0,044	0,033
-421,759	800,000	-0,073	0,153
-420,744	259,236	0,091	-0,114
-419,730	50,433	-0,017	-0,012
-418,715	18,246	0,085	-0,049
-417,701	119,696	-0,073	-0,066
-416,686	800,000	-0,016	0,049
-415,671	-15,901	-0,044	-0,021
-414,657	72,548	0,028	0,021
-413,642	-200,000	-0,003	0,011
-412,628	656,527	-0,046	-0,086
-411,613	-75,260	-0,093	-0,024
-410,598	110,551	0,089	-0,078
-409,584	-200,000	-0,002	0,021
-408,569	800,000	0,062	-0,178
-407,555	147,592	-0,037	0,037
-406,540	800,000	-0,018	0,053
-405,525	-200,000	0,015	0,061
-404,511	141,399	0,022	0,021
-403,496	533,222	0,058	-0,101
-402,482	546,405	0,022	-0,039
-401,467	458,937	0,063	-0,103
-400,452	213,478	-0,012	0,014
-399,438	418,643	-0,047	0,073
-398,423	238,427	-0,038	-0,045
-397,409	800,000	-0,029	0,069
-396,394	158,665	0,084	0,085
-395,379	800,000	0,029	0,080
-394,365	22,678	0,086	-0,051
-393,350	152,458	-0,027	0,027
-392,336	-80,421	0,105	-0,025
-391,321	244,645	-0,072	-0,089
-390,306	800,000	-0,011	-0,024
-389,292	800,000	-0,035	-0,097
-388,277	58,797	-0,064	0,045
-387,263	-200,000	-0,001	0,047
-386,248	-55,726	-0,125	0,040
-385,233	172,979	0,078	0,082
-384,219	-117,701	-0,127	-0,016
-383,204	-200,000	-0,013	-0,094
-382,190	800,000	-0,023	0,054
-381,175	-200,000	-0,017	-0,096
-380,160	800,000	0,044	-0,120
-379,146	367,122	0,096	0,142
-378,131	-200,000	0,013	0,122
-377,117	-59,847	0,118	0,037
-376,102	106,555	-0,066	-0,056
-375,088	-24,173	0,035	0,015
-374,073	49,600	-0,029	-0,020
-373,058	-29,833	0,050	0,021
-372,044	-91,776	0,068	-0,014
-371,029	-200,000	0,002	-0,026
-370,015	-32,674	-0,097	-0,039
-369,000	-200,000	-0,015	-0,133
-367,985	-200,000	0,007	-0,098
-366,971	68,787	-0,049	0,036
-365,956	-76,450	0,043	-0,011
-364,942	-75,292	0,162	0,042
-363,927	-200,000	0,016	0,184
-362,912	90,674	-0,046	0,037
-361,898	771,220	0,027	0,053
-360,883	238,573	-0,026	-0,031
-359,869	7,808	0,057	-0,031
-358,854	191,100	-0,057	0,062
-357,839	-157,536	0,177	0,008
-356,825	-200,000	0,039	0,170
-355,810	253,815	-0,038	0,047
-354,796	270,298	0,051	-0,065
-353,781	-149,732	-0,075	0,004
-352,766	227,217	-0,048	-0,057
-351,752	490,449	-0,012	0,020
-350,737	-200,000	-0,006	0,048
-349,723	-144,059	-0,098	-0,007
-348,708	171,544	0,068	-0,071
-347,693	-200,000	-0,003	0,074
-346,679	-123,549	-0,065	-0,007
-345,664	237,305	0,034	-0,042
-344,650	800,000	0,028	0,060
-343,635	18,913	0,095	0,055
-342,620	800,000	-0,028	-0,083
-341,606	800,000	0,024	0,073
-340,591	-200,000	0,014	0,091
-339,577	251,532	0,079	-0,098
-338,562	-46,452	-0,107	-0,038
-337,548	125,306	0,107	-0,098
-336,533	-200,000	0,002	-0,008
-335,518	-200,000	-0,002	0,082
-334,504	-12,703	0,039	-0,018
-333,489	75,833	0,119	0,091
-332,475	42,386	-0,104	0,069
-331,460	-162,893	0,066	-0,002
-330,445	-72,973	-0,098	0,026
-329,431	-24,664	0,049	0,021
-328,416	800,000	0,032	0,097
-327,402	-48,510	0,017	0,006
-326,387	-72,180	0,051	-0,014
-325,372	-200,000	0,016	-0,129
-324,358	-200,000	-0,004	-0,020
-323,343	800,000	-0,023	-0,057
-322,329	37,288	0,072	0,046
-321,314	800,000	0,063	0,191
-320,299	27,335	-0,116	0,071
-319,285	-63,573	0,119	-0,035
-318,270	800,000	-0,029	0,060
-317,256	243,935	0,029	-0,035
-316,241	800,000	-0,039	-0,103
-315,226	17,564	0,059	-0,034
-314,212	-200,000	-0,006	0,099
-313,197	-109,210	0,042	-0,006
-312,183	-200,000	0,019	-0,108
-311,168	800,000	-0,017	0,044
-310,153	37,911	0,017	0,011
-309,139	-79,150	0,111	0,027
-308,124	-14,982	-0,107	-0,050
-307,110	-0,357	0,126	-0,065
-306,095	178,194	0,035	0,038
-305,080	61,753	-0,060	0,043
-304,066	-108,282	0,114	0,018
-303,051	-200,000	-0,009	-0,064
-302,037	27,949	0,056	-0,034
-301,022	22,777	-0,155	0,092
-300,008	227,830	0,084	-0,099
-298,993	800,000	0,034	0,072
-297,978	20,131	0,057	-0,033
-296,964	101,268	-0,076	-0,064
-295,949	-144,383	0,104	-0,007
-294,935	144,468	-0,087	-0,085
-293,920	-89,968	0,065	0,014
-292,905	-148,264	0,206	-0,012
-291,891	-200,000	0,000	0,044
-290,876	-49,053	-0,098	-0,034
-289,862	253,880	-0,036	-0,045
-288,847	-104,048	-0,087	0,014
-287,832	40,185	-0,072	-0,047
-286,818	-120,171	-0,115	0,014
-285,803	800,000	-0,031	0,077
-284,789	-22,435	0,117	-0,051
-283,774	-174,338	0,095	-0,002
-282,759	-78,462	0,140	0,034
-281,745	800,000	0,024	-0,054
-280,730	-200,000	-0,019	0,110
-279,716	-21,832	-0,095	-0,042
-278,701	36,790	0,062	0,039
-277,686	-200,000	-0,018	0,140
-276,672	-184,182	-0,064	0,001
-275,657	800,000	-0,018	0,038
-274,643	800,000	-0,048	-0,125
-273,628	-4,196	-0,079	-0,039
-272,613	-169,573	0,058	0,002
-271,599	-97,210	0,061	0,011
-270,584	-200,000	-0,021	0,213
-269,570	117,271	0,119	0,106
-268,555	42,631	-0,042	-0,028
-267,540	378,510	-0,028	-0,042
-266,526	-200,000	-0,026	-0,120
-265,511	774,300	-0,077	0,152
-264,497	687,175	-0,046	-0,087
-263,482	143,852	0,073	0,071
-262,467	-105,270	0,094	-0,015
-261,453	800,000	-0,030	-0,073
-260,438	121,076	0,090	-0,081
-259,424	-123,114	-0,012	-0,001
-258,409	-42,206	0,092	0,034
-257,395	-200,000	0,002	0,027
-256,380	584,033	0,062	0,111
-255,365	-47,587	-0,115	0,040
-254,351	229,606	-0,067	0,079
-253,336	20,913	-0,031	-0,018
-252,322	340,034	0,086	-0,122
-251,307	-200,000	0,004	-0,039
-250,292	55,485	0,091	0,063
-249,278	-154,467	-0,059	-0,003
-248,263	464,087	0,080	-0,130
-247,249	674,393	0,078	0,147
-246,234	-200,000	0,020	-0,122
-245,219	-128,194	-0,068	-0,007
-244,205	108,731	0,097	0,084
-243,190	-200,000	-0,008	0,030
-242,176	524,946	-0,073	0,124
-241,161	716,090	-0,033	0,063
-240,146	800,000	-0,067	0,179
-239,132	118,087	0,043	-0,039
-238,117	-27,868	-0,092	0,039
-237,103	-154,101	0,063	0,003
-236,088	800,000	-0,044	0,139
-235,073	655,950	-0,068	0,127
-234,059	800,000	0,051	0,129
-233,044	-46,301	0,085	0,030
-232,030	125,160	-0,050	-0,045
-231,015	-109,352	0,198	0,030
-230,000	178,370	0,084	-0,088
-228,986	-200,000	0,022	-0,089
-227,971	42,188	0,177	-0,116
-226,957	-116,911	0,142	0,019
-225,942	139,582	-0,065	-0,062
-224,927	-95,101	-0,040	-0,008
-223,913	800,000	-0,037	0,079
-222,898	24,349	0,088	0,052
-221,884	423,448	-0,021	0,033
-220,869	714,995	-0,053	0,103
-219,855	-200,000	0,005	-0,120
-218,840	800,000	0,021	0,052
-217,825	-200,000	-0,018	-0,076
-216,811	-200,000	-0,026	-0,228
-215,796	-114,964	-0,114	-0,016
-214,782	-34,724	0,094	0,037
-213,767	-161,128	0,052	0,002
-212,752	800,000	-0,019	0,039
-211,738	-65,215	-0,033	0,010
-210,723	113,705	-0,087	-0,076
-209,709	81,685	0,015	-0,012
-208,694	-52,681	-0,082	-0,027
-207,679	-62,183	-0,149	0,044
-206,665	-200,000	-0,004	-0,080
-205,650	-23,563	-0,030	0,013
-204,636	102,008	0,073	-0,062
-203,621	47,398	0,038	-0,026
-202,606	-108,567	0,087	-0,013
-201,592	-200,000	-0,012	0,048
-200,577	237,767	-0,065	-0,078
-199,563	-200,000	0,035	0,145
-198,548	800,000	0,062	0,153
-197,533	152,198	-0,074	-0,072
-196,519	36,837	0,055	0,035
-195,504	304,562	-0,062	-0,084
-194,490	87,067	-0,117	0,093
-193,475	-200,000	-0,003	-0,048
-192,460	800,000	0,039	0,078
-191,446	193,514	0,023	0,025
-190,431	649,984	0,064	0,120
-189,417	430,918	-0,039	0,061
-188,402	-200,000	-0,001	0,064
-187,387	-143,999	0,071	-0,005
-186,373	-38,418	0,065	-0,025
-185,358	-200,000	-0,036	0,137
-184,344	54,676	0,046	-0,032
-183,329	-200,000	-0,006	0,065
-182,315	-200,000	0,002	0,009
-181,300	-200,000	0,022	0,158
-180,285	173,973	0,074	-0,077
-179,271	-149,971	-0,123	-0,007
-178,256	-100,656	-0,077	0,014
-177,242	-200,000	0,030	0,118
-176,227	-200,000	0,045	0,279
-175,212	-144,465	-0,079	-0,005
-174,198	-76,934	-0,081	0,020
-173,183	800,000	0,067	-0,142
-172,169	484,841	-0,030	-0,050
-171,154	385,369	-0,029	0,043
-170,139	447,077	0,045	-0,071
-169,125	764,584	0,060	0,118
-168,110	198,011	-0,078	0,086
-167,096	-16,174	0,031	-0,014
-166,081	-200,000	-0,001	0,089
-165,066	-89,581	-0,086	-0,018
-164,052	-140,199	-0,004	-0,000
-163,037	-81,777	-0,129	-0,030
-162,023	296,255	0,072	0,095
-161,008	800,000	-0,015	-0,037
-159,993	68,502	-0,024	-0,018
-158,979	-74,075	-0,192	0,050
-157,964	50,565	-0,015	-0,010
-156,950	463,643	-0,057	0,092
-155,935	-200,000	-0,017	-0,061
-154,920	100,776	0,068	-0,057
-153,906	-200,000	0,008	0,057
-152,891	-10,460	-0,075	0,036
-151,877	-200,000	0,015	0,090
-150,862	291,458	-0,083	0,109
-149,847	201,048	-0,103	0,115
-148,833	34,623	-0,086	-0,054
-147,818	-43,012	0,059	0,021
-146,804	-53,302	0,070	0,023
-145,789	93,679	-0,051	-0,041
-144,775	-200,000	-0,023	-0,086
-143,760	90,114	-0,071	-0,057
-142,745	-128,286	-0,031	0,003
-141,731	113,542	-0,128	-0,112
-140,716	800,000	0,021	-0,054
-139,702	226,270	-0,085	0,100
-138,687	23,300	-0,071	0,042
-137,672	800,000	0,058	0,125
-136,658	-200,000	-0,007	-0,052
-135,643	-180,893	0,107	-0,002
-134,629	3,034	-0,038	0,020
-133,614	-81,615	0,079	0,018
-132,599	14,412	-0,037	-0,021
-131,585	-133,382	0,050	0,004
-130,570	11,306	-0,080	-0,044
-129,556	47,481	-0,031	0,021
-128,541	171,736	-0,029	-0,030
-127,526	-103,585	-0,109	0,018
-126,512	-118,369	0,084	0,011
-125,497	202,103	-0,048	-0,053
-124,483	-69,408	0,120	0,033
-123,468	-200,000	0,027	0,095
-122,453	-200,000	-0,030	-0,178
-121,439	341,236	-0,081	-0,114
-120,424	542,475	0,010	0,018
-119,410	667,605	0,058	0,108
-118,395	285,156	0,103	0,134
-117,380	-117,653	0,049	-0,006
-116,366	-200,000	-0,002	-0,006
-115,351	68,547	-0,041	0,030
-114,337	-200,000	0,018	-0,060
-113,322	-183,421	0,036	-0,000
-112,307	800,000	-0,024	0,067
-111,293	-200,000	-0,008	0,027
-110,278	473,877	0,026	0,042
-109,264	-200,000	-0,011	-0,069
-108,249	800,000	-0,041	-0,084
-107,234	-29,111	-0,095	-0,039
-106,220	800,000	0,013	-0,032
-105,205	-25,087	-0,076	0,032
-104,191	16,470	-0,031	-0,018
-103,176	484,942	0,019	0,030
-102,162	-168,303	-0,123	0,003
-101,147	274,926	-0,015	0,020
-100,132	800,000	-0,057	-0,143
-99,118	-200,000	0,026	-0,166
-98,103	-17,395	-0,035	0,016
-97,089	154,730	-0,034	0,033
-96,074	72,348	-0,044	0,033
-95,059	-200,000	-0,019	0,163
-94,045	-200,000	-0,010	0,051
-93,030	-200,000	-0,027	-0,115
-92,016	-83,946	-0,016	0,004
-91,001	288,218	0,035	0,046
-89,986	120,887	0,045	0,040
-88,972	-200,000	0,009	0,099
-87,957	346,842	0,025	-0,036
-86,943	-200,000	-0,005	0,152
-85,928	-200,000	-0,016	0,172
-84,913	298,254	-0,046	0,061
-83,899	33,006	0,068	0,042
-82,884	-46,468	0,087	0,031
-81,870	800,000	-0,032	0,091
-80,855	-154,449	0,103	0,005
-79,840	11,993	-0,145	0,080
-78,826	480,263	-0,069	-0,113
-77,811	179,268	0,051	-0,053
-76,797	-74,196	0,082	0,021
-75,782	-200,000	0,008	-0,048
-74,767	-200,000	0,035	0,168
-73,753	-200,000	-0,008	0,118
-72,738	-58,936	0,095	0,029
-71,724	303,208	-0,106	-0,141
-70,709	-52,077	0,159	-0,053
-69,694	-17,053	-0,150	0,068
-68,680	-54,475	-0,104	-0,034
-67,665	-197,567	-0,100	0,000
-66,651	-200,000	-0,011	0,114
-65,636	-200,000	0,002	0,018
-64,622	27,417	-0,146	-0,088
-63,607	-79,474	-0,061	-0,015
-62,592	-200,000	0,003	-0,097
-61,578	-6,044	0,087	-0,042
-60,563	-200,000	-0,006	0,053
-59,549	-200,000	-0,042	0,000
-58,534	0,609	-1,869	-0,957
-57,519	-200,000	-0,155	-0,927
-56,505	-200,000	-1,272	-4,862
-55,490	10,507	0,705	0,384
-54,476	800,000	5,335	11,967
-53,461	-200,000	17,191	285,305
-52,446	800,000	722,991	2232,051
-51,432	544,781	1638,713	2821,291
-50,417	112,258	1631,077	1415,617
-49,403	76,368	1286,381	977,379
-48,388	32,923	1029,057	638,369
-47,373	20,352	991,148	573,347
-46,359	18,849	979,009	561,366
-45,344	16,266	975,235	550,711
-44,330	16,439	973,706	550,394
-43,315	15,984	971,832	547,824
-42,300	15,989	970,640	547,145
-41,286	15,920	969,974	546,523
-40,271	15,905	968,963	545,885
-39,257	15,980	967,838	545,471
-38,242	15,959	967,007	544,914
-37,227	16,016	966,256	544,655
-36,213	15,992	965,545	544,154
-35,198	15,918	964,567	543,341
-34,184	16,004	963,715	543,120
-33,169	15,910	962,858	542,310
-32,154	15,936	961,915	541,840
-31,140	15,947	961,137	541,416
-30,125	16,009	960,191	541,062
-29,111	15,983	959,281	540,446
-28,096	16,011	958,887	540,293
-27,082	15,983	958,073	539,720
-26,067	15,938	957,428	539,191
-25,052	15,959	956,581	538,760
-24,038	15,930	955,924	538,276
-23,023	15,911	955,276	537,828
-22,009	16,011	954,498	537,691
-20,994	15,970	953,963	537,235
-19,979	15,949	953,392	536,825
-18,965	15,959	952,677	536,434
-17,950	15,938	952,164	536,057
-16,936	15,948	951,558	535,727
-15,921	15,948	950,835	535,298
-14,906	15,802	950,209	534,457
-13,892	15,828	949,410	534,070
-12,877	15,843	948,957	533,843
-11,863	15,806	948,153	533,251
-10,848	15,853	947,639	533,089
-9,833	15,967	947,259	533,219
-8,819	15,902	946,431	532,523
-7,804	15,891	945,726	532,073
-6,790	15,885	945,272	531,776
-5,775	15,819	944,807	531,282
-4,760	15,867	944,052	530,991
-3,746	15,887	943,515	530,732
-2,731	15,719	942,709	529,724
-1,717	15,718	941,990	529,297
-0,702	15,735	941,554	529,083
0,313	15,481	940,942	528,734
1,327	18,569	938,746	537,199
2,342	27,274	796,153	478,715
3,356	23,855	460,502	271,623
4,371	-2,712	314,930	157,473
5,386	-6,875	296,630	144,089
6,400	-8,869	290,614	139,173
7,415	-9,016	287,991	137,759
8,429	-9,361	286,653	136,768
9,444	-9,547	285,675	136,108
10,459	-9,568	285,100	135,800
11,473	-9,407	284,469	135,646
12,488	-9,358	283,910	135,414
13,502	-9,413	283,492	135,150
14,517	-9,347	282,986	134,961
15,531	-9,388	282,475	134,664
16,546	-9,305	282,238	134,620
17,561	-9,557	281,795	134,153
18,575	-9,509	281,629	134,109
19,590	-9,454	281,068	133,883
20,604	-9,387	280,899	133,855
21,619	-9,473	280,321	133,485
22,634	-9,364	280,097	133,470
23,648	-9,496	279,780	133,182
24,663	-9,298	279,465	133,209
25,677	-9,516	279,306	132,912
26,692	-9,526	279,038	132,764
27,707	-9,366	278,730	132,758
28,721	-9,592	278,589	132,464
29,736	-9,479	278,189	132,369
30,750	-9,427	277,768	132,207
31,765	-9,476	277,632	132,084
32,780	-9,428	277,480	132,045
33,794	-9,420	277,101	131,860
34,809	-9,482	276,958	131,722
35,823	-9,415	276,612	131,608
36,838	-9,514	276,430	131,417
37,853	-9,407	276,108	131,354
38,867	-9,553	275,940	131,124
39,882	-9,585	275,817	131,024
40,896	-9,581	275,502	130,866
41,911	-9,368	275,250	130,935
42,926	-9,531	274,907	130,608
43,940	-9,422	274,622	130,562
44,955	-9,484	274,419	130,397
45,969	-9,468	274,315	130,350
46,984	-9,777	274,085	129,940
47,999	-9,805	273,673	129,708
49,013	-9,998	273,565	129,464
50,028	-9,996	273,169	129,267
51,042	-10,220	272,778	128,862
52,057	-10,092	272,690	128,928
53,071	-10,067	272,460	128,831
54,086	-10,069	272,408	128,793
55,101	-9,843	272,112	128,851
56,115	-9,702	272,075	128,953
57,130	-9,457	271,891	129,082
58,144	-9,297	271,603	129,081
59,159	-9,308	271,393	128,959
60,174	-9,291	271,262	128,901
61,188	-9,376	271,044	128,709
62,203	-9,389	270,837	128,586
63,217	-9,456	270,574	128,388
64,232	-9,385	270,370	128,345
65,247	-9,203	270,054	128,352
66,261	-9,242	269,873	128,218
67,276	-9,641	269,670	127,745
68,290	-9,634	269,335	127,580
69,305	-9,709	269,112	127,395
70,320	-9,602	268,874	127,368
71,334	-9,356	268,673	127,487
72,349	-9,432	268,844	127,487
73,363	-9,247	268,322	127,397
74,378	-9,374	268,242	127,232
75,393	-9,441	268,041	127,064
76,407	-9,341	267,798	127,028
77,422	-9,341	267,453	126,854
78,436	-9,456	267,357	126,692
79,451	-9,226	267,023	126,731
80,466	-9,513	266,829	126,367
81,480	-9,474	266,566	126,268
82,495	-9,528	266,409	126,133
83,509	-9,664	266,359	125,974
84,524	-9,541	265,899	125,858
85,539	-9,710	265,765	125,630
86,553	-9,707	265,560	125,525
87,568	-9,579	265,292	125,502
88,582	-9,580	265,211	125,451
89,597	-9,593	264,852	125,259
90,611	-9,604	264,909	125,265
91,626	-9,410	264,751	125,353
92,641	-9,373	264,479	125,247
93,655	-9,355	264,096	125,070
94,670	-9,435	263,912	124,900
95,684	-9,680	263,847	124,639
96,699	-9,495	263,629	124,690
97,714	-9,337	263,361	124,693
98,728	-9,673	263,258	124,333
99,743	-9,704	262,890	124,121
100,757	-9,651	262,720	124,077
101,772	-9,677	262,552	123,963
102,787	-9,577	262,347	123,944
103,801	-9,305	262,119	124,068
104,816	-9,414	262,088	123,945
105,830	-9,485	261,877	123,771
106,845	-9,220	261,481	123,808
107,860	-9,524	261,488	123,531
108,874	-9,337	261,194	123,547
109,889	-9,446	260,926	123,312
110,903	-9,523	260,751	123,150
111,918	-9,434	260,534	123,115
112,933	-9,797	260,551	122,792
113,947	-9,328	260,200	123,029
114,962	-9,388	260,029	122,884
115,976	-9,340	259,698	122,760
116,991	-9,299	259,626	122,750
118,006	-9,293	259,497	122,683
119,020	-9,355	259,346	122,547
120,035	-9,298	259,183	122,509
121,049	-9,626	259,308	122,269
122,064	-9,433	258,904	122,237
123,079	-9,480	258,598	122,040
124,093	-9,511	258,422	121,920
125,108	-9,538	258,164	121,763
126,122	-9,797	257,850	121,378
127,137	-10,025	257,654	121,076
128,151	-9,733	257,651	121,318
129,166	-9,476	257,422	121,424
130,181	-9,596	257,100	121,157
131,195	-9,522	256,904	121,118
132,210	-9,557	256,958	121,102
133,224	-9,457	256,644	121,030
134,239	-9,258	256,346	121,052
135,254	-9,164	256,081	120,997
136,268	-9,477	255,979	120,667
137,283	-9,654	255,742	120,391
138,297	-9,756	255,535	120,195
139,312	-9,900	255,312	119,955
140,327	-9,685	255,447	120,193
141,341	-9,050	255,070	120,553
142,356	-9,355	254,959	120,227
143,370	-9,243	254,854	120,263
144,385	-9,112	254,517	120,206
145,400	-9,168	254,289	120,040
146,414	-9,222	254,308	119,991
147,429	-9,183	254,074	119,904
148,443	-9,330	254,036	119,749
149,458	-9,179	253,755	119,735
150,473	-9,190	253,541	119,614
151,487	-9,337	253,402	119,412
152,502	-9,265	253,192	119,365
153,516	-9,289	252,983	119,234
154,531	-9,020	252,759	119,348
155,546	-9,260	252,623	119,069
156,560	-9,321	252,432	118,915
157,575	-9,160	252,234	118,949
158,589	-9,349	252,044	118,688
159,604	-9,069	251,892	118,844
160,619	-9,220	251,641	118,586
161,633	-9,317	251,598	118,473
162,648	-9,206	251,522	118,521
163,662	-9,191	251,223	118,382
164,677	-9,061	251,164	118,454
165,692	-9,207	250,956	118,222
166,706	-9,075	250,749	118,226
167,721	-9,161	250,481	118,016
168,735	-9,152	250,360	117,956
169,750	-9,246	250,357	117,864
170,764	-9,159	250,097	117,806
171,779	-9,045	249,932	117,813
172,794	-9,271	249,852	117,575
173,808	-9,233	249,633	117,494
174,823	-9,422	249,315	117,174
175,837	-9,723	249,120	116,819
176,852	-9,396	249,024	117,038
177,867	-9,252	248,875	117,078
178,881	-9,084	248,812	117,180
179,896	-9,031	248,516	117,074
180,910	-9,123	248,447	116,954
181,925	-8,981	248,197	116,945
182,940	-9,182	248,003	116,674
183,954	-9,206	247,868	116,581
184,969	-9,284	247,775	116,461
185,983	-9,149	247,592	116,477
186,998	-9,309	247,400	116,244
188,013	-9,112	247,264	116,333
189,027	-9,086	247,031	116,235
190,042	-9,050	246,825	116,158
191,056	-8,844	246,600	116,212
192,071	-9,051	246,453	115,961
193,086	-9,122	246,433	115,883
194,100	-9,080	246,157	115,777
195,115	-8,855	245,938	115,850
196,129	-9,084	245,831	115,600
197,144	-9,211	245,544	115,350
198,159	-9,039	245,329	115,380
199,173	-9,297	245,309	115,148
200,188	-9,312	245,151	115,051
201,202	-9,331	244,890	114,903
202,217	-9,556	244,515	114,531
203,232	-9,642	244,229	114,316
204,246	-9,331	244,390	114,637
205,261	-8,863	244,249	114,945
206,275	-9,782	243,916	114,024
207,290	-6,532	245,271	117,328
208,304	0,395	247,483	124,122
209,319	3,765	248,120	127,225
210,334	4,128	248,228	127,570
211,348	4,427	248,091	127,735
212,363	4,598	247,820	127,726
213,377	4,678	247,857	127,800
214,392	4,380	247,804	127,515
215,407	4,109	247,750	127,252
216,421	4,403	247,439	127,323
217,436	4,489	247,398	127,362
218,450	4,768	247,188	127,472
219,465	4,411	247,003	127,071
220,480	4,207	246,858	126,817
221,494	4,303	246,525	126,714
222,509	4,240	246,447	126,611
223,523	4,091	246,140	126,320
224,538	3,999	245,806	126,062
225,553	3,885	245,819	125,964
226,567	3,943	245,611	125,893
227,582	4,289	245,381	126,048
228,596	4,107	245,461	125,929
229,611	3,805	245,234	125,554
230,626	3,763	244,853	125,314
231,640	3,893	244,818	125,390
232,655	3,993	244,669	125,384
233,669	3,815	244,371	125,076
234,684	3,681	244,291	124,915
235,699	4,009	244,188	125,117
236,713	4,350	244,060	125,318
237,728	3,963	243,765	124,841
238,742	3,941	243,593	124,724
239,757	3,827	243,460	124,552
240,772	3,845	243,296	124,472
241,786	3,921	243,123	124,434
242,801	3,906	243,004	124,350
243,815	3,859	242,808	124,200
244,830	3,882	242,829	124,219
245,844	4,123	242,558	124,263
246,859	3,909	242,421	124,009
247,874	3,786	242,266	123,820
248,888	4,001	242,062	123,878
249,903	4,223	242,036	124,032
250,917	4,193	241,860	123,907
251,932	4,257	241,903	123,970
252,947	4,286	241,508	123,779
253,961	3,820	241,299	123,288
254,976	3,943	241,285	123,368
255,990	4,152	241,097	123,428
257,005	4,008	240,790	123,145
258,020	3,694	240,628	122,799
259,034	3,996	240,523	122,976
260,049	4,067	240,549	123,035
261,063	3,875	240,162	122,673
262,078	3,806	240,034	122,542
263,093	4,277	239,836	122,805
264,107	4,125	239,794	122,652
265,122	3,932	239,598	122,387
266,136	4,000	239,455	122,357
267,151	4,317	239,459	122,600
268,166	3,986	239,107	122,146
269,180	3,710	238,885	121,803
270,195	4,230	239,106	122,317
271,209	4,603	238,767	122,429
272,224	4,133	238,509	121,914
273,239	3,706	238,194	121,404
274,253	3,738	238,206	121,425
275,268	4,006	238,179	121,612
276,282	4,019	237,911	121,474
277,297	3,862	237,840	121,304
278,312	3,877	237,589	121,177
279,326	4,058	237,387	121,205
280,341	3,894	237,390	121,067
281,355	3,968	237,226	121,031
282,370	4,148	237,086	121,090
283,384	4,009	236,966	120,909
284,399	4,076	236,611	120,770
285,414	3,831	236,593	120,557
286,428	3,842	236,453	120,483
287,443	3,799	236,308	120,366
288,457	4,069	236,205	120,514
289,472	4,099	236,097	120,471
290,487	3,828	235,872	120,133
291,501	3,815	235,715	120,033
292,516	3,600	235,467	119,728
293,530	3,880	235,244	119,822
294,545	4,022	235,302	119,952
295,560	3,878	235,051	119,701
296,574	3,608	234,888	119,398
297,589	3,916	234,715	119,538
298,603	4,124	234,791	119,728
299,618	3,936	234,675	119,512
300,633	4,215	234,434	119,596
301,647	4,111	234,327	119,449
302,662	4,634	234,169	119,764
303,676	4,467	234,074	119,575
304,691	4,057	233,850	119,132
305,706	4,108	233,848	119,160
306,720	4,332	233,613	119,203
307,735	4,109	233,351	118,887
308,749	4,261	233,110	118,871
309,764	4,126	232,906	118,652
310,779	3,585	232,752	118,146
311,793	3,677	232,671	118,166
312,808	3,749	232,431	118,089
313,822	3,516	232,403	117,884
314,837	3,663	232,147	117,857
315,852	3,472	232,007	117,629
316,866	3,804	231,943	117,841
317,881	4,011	231,824	117,928
318,895	3,887	231,519	117,668
319,910	4,024	231,521	117,763
320,925	4,386	231,454	117,995
321,939	4,025	231,228	117,593
322,954	4,018	231,109	117,518
323,968	3,859	231,036	117,349
324,983	3,730	230,710	117,074
325,997	3,780	230,758	117,126
327,012	4,354	230,457	117,399
328,027	4,170	230,405	117,223
329,041	4,332	230,353	117,309
330,056	4,897	230,367	117,735
331,070	4,594	230,303	117,461
332,085	4,308	229,931	117,045
333,100	3,994	229,708	116,683
334,114	4,215	229,501	116,735
335,129	4,256	229,558	116,784
336,143	4,776	229,367	117,070
337,158	4,424	229,237	116,727
338,173	4,194	228,970	116,407
339,187	4,261	228,735	116,328
340,202	4,389	228,549	116,319
341,216	4,111	228,531	116,090
342,231	4,118	228,460	116,049
343,246	4,135	228,162	115,900
344,260	4,313	228,064	115,974
345,275	4,244	228,174	115,967
346,289	4,299	227,978	115,899
347,304	4,525	227,740	115,937
348,319	4,517	227,463	115,780
349,333	4,261	227,406	115,549
350,348	4,246	227,169	115,407
351,362	4,228	227,059	115,327
352,377	3,986	226,996	115,104
353,392	3,833	226,753	114,856
354,406	4,029	226,498	114,863
355,421	195,027	1322,419	1398,083
356,435	156,322	1455,952	1398,106
