DTS Sentinel unit serial number:	SN410029Multiplexer serial number:	ORYXHardware model number:	OX2-SRSoftware version number:	ORYX F/W v4,00 Oryx Data Collector v3.7.2.0data status	okinstallation	B5 Nyhavnadifferential loss correction	single-endedforward channel	channel 2reverse channel	N/Adate	2023/12/12time	04:22:13forward acquisition time	300,00reverse acquisition time	0,00gamma	499,1914k internal	0,3156k external	0,3156temperature offset calibration	1,0000default loss term (dB/km)	0,3820temperature slope calibration	1,0000multiplexer offset coefficient	1,0000multiplexer slope coefficient	1,0000fibre end	0,00T internal ref (°C)	15,51T ext. ref 1 (°C)	-0,88T ext. ref 2 (°C)	-1,17length (m)	temperature (°C)	Stokes	anti-Stokes-744,400	800,000	0,010	-0,031
-743,385	-101,505	-0,297	0,053
-742,371	44,076	0,180	0,122
-741,356	-63,613	-0,339	0,102
-740,342	-18,449	0,133	-0,061
-739,327	-154,387	-0,261	-0,013
-738,312	-21,170	0,083	0,037
-737,298	-108,668	-0,227	0,036
-736,283	221,446	0,092	0,109
-735,269	-49,842	-0,263	-0,092
-734,254	-200,000	0,029	-0,147
-733,239	9,578	-0,397	-0,221
-732,225	94,358	0,176	0,147
-731,210	-91,932	-0,079	-0,016
-730,196	-30,232	-0,032	-0,013
-729,181	-7,552	-0,036	0,018
-728,167	-200,000	-0,013	-0,090
-727,152	-86,457	-0,158	-0,035
-726,137	-8,477	-0,086	0,042
-725,123	-79,422	-0,039	-0,010
-724,108	-200,000	0,015	-0,070
-723,094	103,793	-0,129	-0,112
-722,079	216,041	0,047	-0,055
-721,064	6,798	-0,039	-0,021
-720,050	800,000	0,060	-0,123
-719,035	683,159	0,008	0,016
-718,021	-147,181	-0,154	0,010
-717,006	-41,464	0,056	0,021
-715,991	39,517	-0,127	-0,084
-714,977	251,899	-0,124	-0,156
-713,962	-123,320	-0,132	0,015
-712,948	-53,392	0,062	-0,021
-711,933	434,893	-0,124	0,199
-710,918	69,389	0,076	-0,058
-709,904	578,362	-0,008	0,015
-708,889	-78,771	-0,077	-0,019
-707,875	10,778	-0,097	-0,054
-706,860	-60,946	0,057	-0,018
-705,845	119,893	-0,060	0,055
-704,831	800,000	0,051	-0,132
-703,816	-78,581	-0,236	0,059
-702,802	91,968	0,062	-0,051
-701,787	800,000	0,054	-0,141
-700,772	-43,681	0,050	-0,018
-699,758	-200,000	0,003	-0,128
-698,743	-200,000	0,014	0,143
-697,729	800,000	0,052	0,143
-696,714	-84,222	0,080	0,019
-695,699	-41,577	-0,056	0,021
-694,685	-200,000	0,019	-0,169
-693,670	-46,252	-0,130	-0,047
-692,656	-179,214	0,174	-0,003
-691,641	673,589	-0,050	-0,097
-690,627	66,942	0,071	0,053
-689,612	-113,084	-0,197	0,028
-688,597	-11,856	-0,040	-0,019
-687,583	378,632	-0,088	-0,133
-686,568	693,335	0,055	-0,106
-685,554	245,352	0,043	-0,054
-684,539	41,878	0,045	-0,030
-683,524	435,047	0,133	0,213
-682,510	-200,000	-0,006	0,054
-681,495	-200,000	0,006	-0,078
-680,481	33,255	-0,006	-0,004
-679,466	-200,000	0,018	-0,115
-678,451	622,249	-0,056	-0,104
-677,437	-200,000	-0,005	0,057
-676,422	69,557	-0,095	0,072
-675,408	-200,000	0,006	0,120
-674,393	-200,000	-0,007	0,149
-673,378	-67,208	-0,173	0,050
-672,364	-96,309	-0,106	-0,020
-671,349	-200,000	-0,021	-0,085
-670,335	-200,000	0,012	-0,143
-669,320	800,000	-0,082	0,187
-668,305	-200,000	0,024	0,092
-667,291	-200,000	0,000	0,012
-666,276	102,139	0,030	-0,025
-665,262	-130,295	0,029	-0,003
-664,247	800,000	0,037	-0,115
-663,232	84,642	0,063	-0,050
-662,218	-46,033	-0,060	-0,022
-661,203	286,173	-0,038	-0,050
-660,189	-119,187	0,102	0,013
-659,174	-200,000	-0,025	-0,084
-658,159	-200,000	-0,003	-0,075
-657,145	-200,000	-0,003	0,038
-656,130	741,505	0,045	0,088
-655,116	205,299	0,073	0,083
-654,101	-72,288	-0,135	0,036
-653,086	800,000	-0,022	-0,059
-652,072	201,590	-0,142	-0,161
-651,057	-200,000	-0,009	-0,046
-650,043	-200,000	0,043	-0,162
-649,028	-200,000	-0,001	-0,125
-648,014	-95,715	-0,106	-0,021
-646,999	32,440	-0,034	0,022
-645,984	-200,000	0,050	0,282
-644,970	-200,000	0,005	-0,053
-643,955	47,539	-0,116	-0,079
-642,941	800,000	-0,024	-0,058
-641,926	-200,000	-0,007	0,027
-640,911	111,076	-0,051	0,045
-639,897	-55,596	0,154	-0,050
-638,882	72,147	0,116	-0,088
-637,868	65,990	-0,089	-0,067
-636,853	131,732	-0,070	0,066
-635,838	-200,000	-0,011	-0,107
-634,824	428,651	0,010	-0,016
-633,809	187,455	0,092	0,101
-632,795	-200,000	0,001	0,008
-631,780	800,000	0,023	-0,059
-630,765	257,601	0,019	0,024
-629,751	800,000	0,045	-0,140
-628,736	55,398	-0,113	-0,081
-627,722	-89,964	-0,128	0,027
-626,707	-170,867	0,037	0,001
-625,692	727,711	0,046	0,091
-624,678	140,611	0,128	-0,124
-623,663	-178,812	-0,216	-0,004
-622,649	-21,761	0,140	0,062
-621,634	-105,910	-0,139	0,023
-620,619	82,672	-0,094	-0,075
-619,605	192,726	-0,062	-0,069
-618,590	7,291	0,033	0,018
-617,576	800,000	-0,066	0,152
-616,561	235,150	-0,058	-0,070
-615,546	324,797	0,028	-0,039
-614,532	2,318	-0,080	-0,043
-613,517	244,765	-0,033	-0,041
-612,503	-200,000	-0,010	-0,218
-611,488	-157,028	-0,106	0,005
-610,474	800,000	0,023	0,055
-609,459	800,000	-0,015	0,036
-608,444	47,386	-0,073	0,050
-607,430	-77,531	-0,079	-0,020
-606,415	-93,660	-0,058	0,012
-605,401	20,464	-0,058	-0,034
-604,386	-200,000	-0,004	-0,038
-603,371	-200,000	0,002	-0,011
-602,357	-91,697	-0,130	0,027
-601,342	800,000	-0,027	-0,073
-600,328	-200,000	-0,010	-0,058
-599,313	346,162	-0,055	0,079
-598,298	-122,666	0,037	-0,004
-597,284	-10,958	0,061	-0,030
-596,269	751,567	0,048	0,096
-595,255	-200,000	0,023	0,119
-594,240	-91,209	-0,042	-0,009
-593,225	84,849	-0,113	0,091
-592,211	-200,000	0,013	-0,088
-591,196	-200,000	0,053	-0,244
-590,182	-54,256	0,078	-0,026
-589,167	-200,000	-0,011	0,064
-588,152	-91,713	-0,049	-0,010
-587,138	137,876	-0,056	0,054
-586,123	-103,026	-0,073	-0,012
-585,109	71,381	-0,057	0,044
-584,094	-29,827	-0,054	0,023
-583,079	112,629	-0,012	-0,011
-582,065	56,283	0,091	0,065
-581,050	-200,000	0,032	-0,233
-580,036	800,000	0,030	0,062
-579,021	-26,019	-0,114	-0,049
-578,006	75,419	-0,056	-0,043
-576,992	146,880	0,066	-0,065
-575,977	125,185	0,025	0,023
-574,963	800,000	-0,024	-0,059
-573,948	9,998	-0,022	0,012
-572,934	-200,000	-0,040	-0,150
-571,919	-72,892	0,055	-0,015
-570,904	800,000	-0,027	0,055
-569,890	-21,215	0,063	0,028
-568,875	-14,201	0,111	0,052
-567,861	197,001	0,025	0,028
-566,846	302,315	0,097	0,131
-565,831	-158,749	-0,111	0,005
-564,817	-9,368	-0,159	-0,078
-563,802	-200,000	-0,001	0,069
-562,788	-143,516	-0,033	0,002
-561,773	-18,898	-0,105	0,047
-560,758	529,488	-0,051	0,088
-559,744	14,941	0,093	0,053
-558,729	-86,155	-0,183	-0,041
-557,715	19,787	0,053	-0,031
-556,700	-6,695	-0,079	0,039
-555,685	42,668	-0,051	0,034
-554,671	-28,288	0,054	0,023
-553,656	111,487	-0,068	0,060
-552,642	3,796	0,048	-0,025
-551,627	-38,313	0,096	0,037
-550,612	134,917	-0,097	-0,092
-549,598	800,000	0,069	-0,157
-548,583	800,000	-0,031	-0,074
-547,569	-127,903	0,118	-0,012
-546,554	72,270	0,076	0,058
-545,539	311,809	-0,044	0,060
-544,525	-200,000	0,004	0,042
-543,510	458,436	-0,010	0,017
-542,496	-117,422	-0,081	-0,011
-541,481	-200,000	-0,010	-0,034
-540,466	130,209	0,053	-0,049
-539,452	64,351	-0,053	-0,039
-538,437	800,000	0,019	-0,053
-537,423	800,000	0,082	0,174
-536,408	-17,296	-0,024	0,011
-535,393	-114,009	-0,109	0,015
-534,379	-21,132	-0,120	-0,054
-533,364	-159,143	-0,066	-0,003
-532,350	315,768	0,065	0,090
-531,335	125,089	0,092	-0,085
-530,321	238,899	-0,077	0,094
-529,306	-22,566	-0,077	0,034
-528,291	343,354	-0,042	-0,060
-527,277	-58,586	-0,050	-0,016
-526,262	800,000	0,014	0,043
-525,248	-120,122	0,074	0,009
-524,233	-98,021	0,104	0,019
-523,218	336,436	0,053	0,076
-522,204	-15,752	-0,115	-0,053
-521,189	-33,347	0,095	0,038
-520,175	4,874	0,087	-0,047
-519,160	539,608	-0,088	-0,154
-518,145	-149,979	-0,036	-0,002
-517,131	800,000	0,035	-0,098
-516,116	-200,000	0,003	0,034
-515,102	-85,940	-0,072	0,016
-514,087	800,000	0,029	-0,075
-513,072	800,000	-0,055	-0,153
-512,058	-200,000	-0,020	0,101
-511,043	800,000	-0,024	0,068
-510,029	-1,062	0,079	0,041
-509,014	-129,641	0,034	0,003
-507,999	96,797	0,101	0,085
-506,985	95,384	-0,105	-0,088
-505,970	-124,883	-0,059	0,007
-504,956	157,880	0,142	-0,144
-503,941	77,314	0,080	0,062
-502,926	-10,074	0,137	0,066
-501,912	800,000	-0,043	-0,096
-500,897	514,278	0,060	-0,103
-499,883	-104,482	-0,119	-0,020
-498,868	124,225	0,034	-0,031
-497,853	-200,000	-0,010	-0,062
-496,839	-94,817	0,133	-0,026
-495,824	76,522	0,053	-0,041
-494,810	-200,000	0,020	0,075
-493,795	-200,000	0,030	-0,118
-492,781	460,373	-0,060	-0,099
-491,766	179,597	-0,054	-0,057
-490,751	295,830	0,069	0,092
-489,737	-200,000	0,007	-0,063
-488,722	629,803	-0,016	0,030
-487,708	-137,883	0,135	-0,011
-486,693	-200,000	0,010	-0,100
-485,678	-200,000	0,028	-0,135
-484,664	-200,000	-0,013	-0,057
-483,649	-46,228	0,014	0,005
-482,635	-59,620	-0,081	0,025
-481,620	25,944	0,173	-0,105
-480,605	229,601	0,054	-0,064
-479,591	-200,000	0,019	0,061
-478,576	27,512	-0,037	-0,022
-477,562	-23,989	-0,094	0,041
-476,547	158,507	-0,068	-0,069
-475,532	-131,203	-0,074	-0,007
-474,518	-200,000	0,052	0,191
-473,503	-200,000	0,015	0,177
-472,489	-141,845	0,025	-0,002
-471,474	-57,274	-0,029	-0,009
-470,459	79,414	-0,093	0,073
-469,445	193,198	-0,044	-0,049
-468,430	200,155	-0,034	0,038
-467,416	-86,066	0,053	-0,012
-466,401	209,545	0,081	0,093
-465,386	-162,464	-0,051	-0,002
-464,372	-47,145	0,198	-0,070
-463,357	-200,000	-0,026	0,114
-462,343	535,099	0,049	-0,086
-461,328	-1,786	0,170	-0,087
-460,313	-76,728	-0,086	0,022
-459,299	-98,982	0,213	0,039
-458,284	-21,999	0,106	0,047
-457,270	399,772	-0,062	0,095
-456,255	-81,279	0,025	0,006
-455,241	230,811	0,035	-0,042
-454,226	800,000	0,015	-0,042
-453,211	13,675	0,039	-0,022
-452,197	-143,652	0,069	0,005
-451,182	-66,030	0,073	-0,021
-450,168	800,000	-0,010	-0,022
-449,153	362,993	-0,009	-0,014
-448,138	-54,539	0,064	-0,021
-447,124	136,133	0,065	-0,062
-446,109	-41,888	0,155	-0,058
-445,095	-84,831	0,067	0,015
-444,080	-200,000	-0,009	0,031
-443,065	20,439	-0,119	-0,070
-442,051	-167,265	-0,111	-0,003
-441,036	-76,951	-0,055	0,014
-440,022	-125,909	-0,100	-0,011
-439,007	-200,000	0,000	0,073
-437,992	-148,648	0,034	-0,002
-436,978	575,128	0,073	0,130
-435,963	-200,000	0,000	0,073
-434,949	-50,090	-0,209	-0,072
-433,934	-67,854	0,116	-0,033
-432,919	80,350	-0,096	0,075
-431,905	-83,990	0,157	-0,036
-430,890	800,000	0,029	-0,073
-429,876	287,551	-0,055	0,073
-428,861	800,000	0,053	-0,157
-427,846	-190,399	-0,075	0,001
-426,832	175,975	-0,060	0,064
-425,817	-200,000	-0,048	-0,168
-424,803	-96,399	-0,081	0,015
-423,788	687,114	0,030	-0,058
-422,773	58,598	-0,021	0,015
-421,759	-119,773	0,078	0,010
-420,744	-200,000	-0,022	-0,078
-419,730	42,402	-0,036	0,024
-418,715	800,000	-0,020	0,043
-417,701	369,102	0,063	0,093
-416,686	28,387	0,174	-0,107
-415,671	234,907	-0,022	-0,027
-414,657	192,769	0,034	0,038
-413,642	-200,000	0,037	0,162
-412,628	-200,000	-0,000	-0,029
-411,613	-182,021	-0,043	0,001
-410,598	800,000	-0,010	0,025
-409,584	731,176	-0,071	0,139
-408,569	-89,331	0,048	-0,010
-407,555	-200,000	-0,013	0,079
-406,540	-200,000	0,017	-0,069
-405,525	-183,129	-0,072	0,001
-404,511	-200,000	0,010	-0,049
-403,496	7,423	-0,085	-0,046
-402,482	-41,884	0,096	-0,036
-401,467	732,941	0,037	0,072
-400,452	-91,711	-0,041	0,008
-399,438	800,000	-0,024	-0,061
-398,423	756,151	0,042	0,083
-397,409	548,563	-0,076	-0,132
-396,394	-200,000	-0,151	0,000
-395,379	-120,248	0,066	0,008
-394,365	179,658	0,050	0,053
-393,350	-76,128	0,084	0,021
-392,336	52,113	-0,083	-0,057
-391,321	-177,856	-0,072	0,001
-390,306	800,000	-0,054	0,120
-389,292	184,576	-0,029	0,032
-388,277	-200,000	-0,009	-0,097
-387,263	-52,939	0,086	-0,029
-386,248	40,330	0,137	0,090
-385,233	-200,000	0,011	-0,037
-384,219	-42,118	-0,094	-0,035
-383,204	-5,009	-0,036	-0,018
-382,190	800,000	-0,046	-0,138
-381,175	328,594	-0,083	0,116
-380,160	-200,000	-0,023	-0,113
-379,146	618,992	0,036	-0,067
-378,131	-176,165	-0,013	0,000
-377,117	280,299	-0,106	0,138
-376,102	-125,345	-0,088	-0,010
-375,088	110,609	-0,131	0,114
-374,073	561,233	0,029	0,051
-373,058	264,494	-0,044	0,056
-372,044	132,145	0,102	0,096
-371,029	66,650	0,159	0,117
-370,015	-80,853	-0,128	0,031
-369,000	91,636	-0,043	-0,035
-367,985	-200,000	-0,008	0,037
-366,971	207,882	0,100	-0,114
-365,956	106,602	0,067	0,058
-364,942	122,455	-0,052	-0,047
-363,927	43,331	-0,028	-0,019
-362,912	-80,772	-0,029	0,007
-361,898	-154,181	0,088	0,004
-360,883	-200,000	0,026	-0,126
-359,869	-84,833	-0,097	0,022
-358,854	-95,211	0,021	-0,004
-357,839	78,854	0,138	0,107
-356,825	477,739	0,070	-0,116
-355,810	402,838	-0,070	-0,108
-354,796	-66,433	-0,168	-0,048
-353,781	117,230	-0,050	0,044
-352,766	-52,666	-0,041	-0,014
-351,752	800,000	0,072	-0,151
-350,737	12,393	-0,058	-0,032
-349,723	202,219	-0,047	0,053
-348,708	-200,000	0,063	0,253
-347,693	-200,000	-0,012	0,050
-346,679	-123,323	-0,203	0,023
-345,664	92,202	0,101	-0,083
-344,650	762,102	-0,034	0,068
-343,635	-6,392	0,107	-0,053
-342,620	198,508	0,024	-0,026
-341,606	-6,222	-0,037	0,018
-340,591	-132,187	-0,030	-0,003
-339,577	800,000	0,004	-0,009
-338,562	-200,000	0,006	0,044
-337,548	146,374	0,112	-0,109
-336,533	-84,849	0,025	0,006
-335,518	269,312	0,069	0,089
-334,504	-200,000	-0,006	0,054
-333,489	147,370	-0,094	0,092
-332,475	21,759	-0,079	-0,047
-331,460	35,250	-0,041	-0,026
-330,445	252,253	-0,017	-0,022
-329,431	-200,000	0,002	-0,123
-328,416	-84,412	0,106	0,024
-327,402	800,000	0,063	0,183
-326,387	-13,310	-0,121	0,057
-325,372	-5,685	-0,049	0,024
-324,358	291,547	0,067	0,088
-323,343	214,492	-0,063	-0,073
-322,329	24,909	-0,020	0,012
-321,314	-85,962	-0,117	-0,026
-320,299	-53,504	0,078	-0,026
-319,285	-9,649	0,198	-0,095
-318,270	177,541	-0,105	-0,112
-317,256	800,000	0,036	0,085
-316,241	61,843	0,038	0,027
-315,226	800,000	-0,052	0,128
-314,212	800,000	-0,012	0,028
-313,197	-200,000	0,002	0,120
-312,183	28,705	-0,114	0,070
-311,168	-200,000	0,066	0,231
-310,153	-200,000	0,009	-0,039
-309,139	-2,581	-0,034	-0,017
-308,124	-67,252	-0,055	0,016
-307,110	-37,628	0,035	-0,013
-306,095	294,320	0,068	-0,090
-305,080	800,000	0,012	-0,035
-304,066	-200,000	-0,071	-0,240
-303,051	800,000	-0,068	0,172
-302,037	-200,000	-0,018	0,099
-301,022	-112,640	0,049	0,007
-300,008	388,824	-0,048	0,072
-298,993	-132,323	-0,021	-0,002
-297,978	-200,000	-0,005	-0,024
-296,964	-91,121	0,138	-0,028
-295,949	-51,161	-0,098	-0,033
-294,935	191,140	0,016	0,018
-293,920	308,868	0,023	-0,032
-292,905	800,000	0,019	-0,052
-291,891	-116,914	0,129	-0,017
-290,876	-200,000	0,014	0,066
-289,862	-200,000	0,005	-0,021
-288,847	800,000	-0,021	-0,047
-287,832	147,691	-0,034	-0,033
-286,818	-98,524	0,055	-0,010
-285,803	33,618	-0,056	0,035
-284,789	236,912	-0,017	0,021
-283,774	25,204	0,154	0,092
-282,759	41,370	0,019	-0,012
-281,745	8,399	-0,176	-0,095
-280,730	800,000	-0,107	-0,237
-279,716	0,402	-0,037	0,019
-278,701	-200,000	-0,023	0,097
-277,686	320,559	-0,086	0,118
-276,672	-106,164	0,131	-0,021
-275,657	-200,000	0,001	0,035
-274,643	-76,934	0,106	-0,027
-273,628	-131,321	-0,081	0,008
-272,613	352,729	0,080	0,115
-271,599	328,241	-0,034	0,048
-270,584	800,000	-0,050	0,117
-269,570	-52,804	0,160	0,053
-268,555	-200,000	-0,012	0,084
-267,540	-153,369	-0,104	-0,005
-266,526	67,540	-0,027	0,020
-265,511	800,000	0,033	0,067
-264,497	-78,787	0,041	-0,010
-263,482	219,425	0,050	0,058
-262,467	-54,318	0,107	-0,035
-261,453	-79,184	0,015	-0,004
-260,438	214,736	-0,048	0,055
-259,424	-200,000	-0,002	0,070
-258,409	-200,000	-0,048	-0,166
-257,395	-65,418	0,092	0,026
-256,380	68,022	0,089	0,066
-255,365	-200,000	0,002	0,006
-254,351	-18,746	-0,094	0,042
-253,336	-200,000	-0,016	-0,054
-252,322	-65,737	0,074	0,021
-251,307	-25,702	-0,135	0,057
-250,292	304,242	0,054	0,073
-249,278	133,029	0,059	0,055
-248,263	273,848	0,015	0,020
-247,249	11,940	0,020	-0,011
-246,234	-200,000	-0,025	0,206
-245,219	354,143	0,067	0,097
-244,205	-85,502	0,085	0,019
-243,190	-200,000	0,037	-0,163
-242,176	191,724	0,089	-0,097
-241,161	135,312	0,030	0,029
-240,146	-200,000	0,007	-0,109
-239,132	-200,000	0,014	-0,075
-238,117	139,879	0,028	0,027
-237,103	377,868	-0,092	0,137
-236,088	198,749	0,096	0,107
-235,073	194,251	-0,052	0,057
-234,059	343,036	-0,049	0,069
-233,044	39,962	0,103	0,067
-232,030	-200,000	0,013	0,088
-231,015	800,000	0,027	0,080
-230,000	-8,610	0,023	-0,011
-228,986	-81,636	0,087	0,020
-227,971	56,135	0,042	0,030
-226,957	725,310	0,117	-0,226
-225,942	765,265	0,037	-0,072
-224,927	-200,000	0,022	-0,208
-223,913	-200,000	-0,034	-0,179
-222,898	2,259	0,091	-0,047
-221,884	126,576	-0,015	-0,014
-220,869	-200,000	-0,008	0,143
-219,855	-78,104	0,072	-0,018
-218,840	72,269	0,084	0,063
-217,825	800,000	0,011	0,023
-216,811	352,979	0,050	-0,072
-215,796	-200,000	-0,011	0,036
-214,782	-200,000	0,019	-0,145
-213,767	-200,000	0,031	0,116
-212,752	-34,038	-0,046	-0,018
-211,738	-200,000	0,019	-0,134
-210,723	800,000	-0,019	0,044
-209,709	800,000	-0,045	-0,094
-208,694	-200,000	0,004	-0,121
-207,679	-48,285	-0,035	-0,012
-206,665	-200,000	-0,001	0,044
-205,650	-41,418	0,080	-0,030
-204,636	800,000	-0,027	0,063
-203,621	218,420	-0,003	0,003
-202,606	-42,101	-0,138	0,051
-201,592	117,534	0,045	-0,040
-200,577	-200,000	0,006	-0,113
-199,563	161,939	-0,125	-0,127
-198,548	-200,000	0,016	0,114
-197,533	800,000	0,023	0,049
-196,519	-124,965	0,096	0,011
-195,504	352,348	0,022	-0,032
-194,490	97,664	-0,080	0,066
-193,475	-154,300	-0,168	0,008
-192,460	-200,000	-0,013	-0,060
-191,446	-47,751	0,053	0,018
-190,431	232,322	0,101	0,120
-189,417	-27,304	-0,132	-0,055
-188,402	-81,168	0,023	0,006
-187,387	800,000	-0,033	0,094
-186,373	316,983	0,052	-0,071
-185,358	-200,000	-0,008	-0,028
-184,344	-156,399	0,072	0,003
-183,329	-164,288	0,129	-0,004
-182,315	-200,000	0,002	-0,046
-181,300	-26,900	0,017	0,007
-180,285	-143,269	-0,077	0,005
-179,271	-200,000	-0,015	0,129
-178,256	-15,907	0,022	0,010
-177,242	662,484	0,036	0,068
-176,227	-200,000	-0,016	0,136
-175,212	47,487	0,110	-0,074
-174,198	-196,492	-0,151	-0,001
-173,183	241,998	-0,063	0,076
-172,169	-6,222	-0,054	0,026
-171,154	507,280	0,034	-0,057
-170,139	56,590	0,061	0,043
-169,125	-11,961	0,035	0,016
-168,110	374,352	0,053	0,078
-167,096	114,312	-0,076	-0,067
-166,081	706,738	-0,035	-0,067
-165,066	800,000	-0,028	0,087
-164,052	454,550	-0,090	0,145
-163,037	193,146	0,103	0,112
-162,023	-96,070	-0,023	-0,004
-161,008	-200,000	-0,004	0,087
-159,993	72,044	0,108	-0,081
-158,979	345,684	0,121	-0,172
-157,964	129,879	-0,055	-0,050
-156,950	56,753	-0,104	0,073
-155,935	28,553	0,048	-0,029
-154,920	68,712	0,091	-0,067
-153,906	-200,000	-0,011	-0,086
-152,891	23,031	-0,092	-0,055
-151,877	549,325	-0,074	-0,128
-150,862	29,695	0,097	0,059
-149,847	800,000	-0,077	-0,170
-148,833	16,268	0,065	-0,037
-147,818	166,919	-0,123	0,126
-146,804	-44,231	0,059	0,021
-145,789	-200,000	0,000	-0,035
-144,775	-200,000	-0,007	-0,069
-143,760	381,770	-0,059	0,087
-142,745	-200,000	-0,020	-0,133
-141,731	-175,552	0,098	0,002
-140,716	-142,616	0,052	-0,004
-139,702	-37,862	0,054	0,021
-138,687	245,156	-0,018	-0,022
-137,672	-200,000	0,054	0,186
-136,658	169,522	0,103	-0,106
-135,643	-92,821	-0,118	0,023
-134,629	800,000	0,040	0,113
-133,614	800,000	0,042	0,110
-132,599	-48,132	0,088	-0,031
-131,585	-151,684	0,065	-0,003
-130,570	49,736	0,083	0,057
-129,556	800,000	-0,080	-0,220
-128,541	91,384	0,036	-0,029
-127,526	-84,879	0,096	-0,022
-126,512	-140,088	-0,025	0,002
-125,497	8,163	0,092	0,050
-124,483	-134,383	0,034	0,003
-123,468	-33,598	0,132	-0,052
-122,453	-200,000	-0,009	-0,044
-121,439	748,740	0,012	-0,023
-120,424	212,499	-0,058	-0,066
-119,410	223,473	-0,028	-0,033
-118,395	-200,000	-0,002	0,015
-117,380	-78,002	0,137	-0,034
-116,366	275,348	-0,043	-0,055
-115,351	-200,000	-0,008	-0,031
-114,337	-0,652	0,136	-0,069
-113,322	-200,000	-0,050	-0,211
-112,307	800,000	-0,018	-0,056
-111,293	-200,000	-0,001	-0,021
-110,278	-96,389	0,045	-0,008
-109,264	215,029	-0,054	-0,061
-108,249	-13,589	-0,082	-0,038
-107,234	-146,641	-0,168	0,010
-106,220	146,086	-0,058	0,056
-105,205	70,904	0,105	-0,078
-104,191	-200,000	0,014	-0,070
-103,176	-108,007	-0,039	-0,006
-102,162	800,000	0,024	-0,075
-101,147	60,473	0,107	-0,076
-100,132	-200,000	-0,012	-0,072
-99,118	-14,940	0,050	0,023
-98,103	133,005	0,110	0,102
-97,089	-113,365	-0,040	0,006
-96,074	800,000	0,036	0,086
-95,059	117,103	-0,033	-0,029
-94,045	-39,831	0,166	0,062
-93,030	257,922	-0,058	-0,072
-92,016	-200,000	-0,016	-0,130
-91,001	57,086	0,049	-0,034
-89,986	41,982	-0,085	0,055
-88,972	98,980	0,103	0,085
-87,957	67,846	-0,076	-0,055
-86,943	544,302	-0,045	-0,077
-85,928	253,023	0,085	-0,105
-84,913	21,601	-0,105	0,061
-83,899	-12,766	-0,007	0,003
-82,884	340,112	0,004	0,006
-81,870	141,804	-0,060	0,058
-80,855	800,000	-0,048	-0,102
-79,840	-141,523	-0,118	0,008
-78,826	-200,000	-0,016	-0,087
-77,811	118,445	0,026	-0,023
-76,797	-200,000	-0,037	-0,140
-75,782	-53,235	-0,146	-0,048
-74,767	72,422	-0,050	0,037
-73,753	-42,180	0,038	0,014
-72,738	800,000	0,027	0,083
-71,724	23,955	0,123	0,073
-70,709	-200,000	-0,013	-0,175
-69,694	466,057	0,019	0,030
-68,680	-27,637	0,031	0,013
-67,665	78,052	0,076	-0,058
-66,651	135,272	-0,096	0,090
-65,636	-0,133	-0,101	-0,051
-64,622	-87,947	0,136	0,029
-63,607	-90,471	-0,151	-0,031
-62,592	-13,166	0,139	0,065
-61,578	89,549	0,068	-0,055
-60,563	765,430	0,035	0,069
-59,549	-189,612	0,023	-0,000
-58,534	6,076	-1,999	-1,061
-57,519	800,000	-0,300	-0,881
-56,505	-200,000	-1,189	-5,022
-55,490	5,948	0,748	0,397
-54,476	800,000	5,443	12,227
-53,461	-200,000	17,509	283,024
-52,446	800,000	726,392	2214,566
-51,432	535,466	1642,430	2807,907
-50,417	110,189	1632,958	1407,389
-49,403	75,199	1286,054	972,467
-48,388	32,141	1027,717	634,887
-47,373	20,167	989,769	571,938
-46,359	18,546	977,602	559,567
-45,344	15,856	973,669	548,489
-44,330	16,058	972,137	548,265
-43,315	15,580	970,375	545,689
-42,300	15,571	969,359	545,065
-41,286	15,519	968,258	544,256
-40,271	15,497	967,100	543,511
-39,257	15,532	966,369	543,192
-38,242	15,553	965,492	542,747
-37,227	15,553	964,648	542,252
-36,213	15,510	963,896	541,667
-35,198	15,528	962,926	541,159
-34,184	15,574	962,281	540,922
-33,169	15,506	961,283	540,120
-32,154	15,528	960,301	539,617
-31,140	15,585	959,320	539,229
-30,125	15,613	958,741	538,975
-29,111	15,561	958,020	538,380
-28,096	15,549	957,306	537,917
-27,082	15,551	956,594	537,502
-26,067	15,520	955,750	536,908
-25,052	15,569	954,978	536,608
-24,038	15,523	954,343	536,084
-23,023	15,485	953,862	535,671
-22,009	15,593	952,947	535,481
-20,994	15,594	952,516	535,223
-19,979	15,622	951,740	534,854
-18,965	15,563	951,182	534,330
-17,950	15,529	950,668	533,912
-16,936	15,521	949,931	533,450
-15,921	15,497	949,276	532,986
-14,906	15,399	948,548	532,243
-13,892	15,411	947,954	531,928
-12,877	15,446	947,304	531,653
-11,863	15,337	946,765	530,981
-10,848	15,451	946,140	530,973
-9,833	15,533	945,535	530,874
-8,819	15,430	945,230	530,352
-7,804	15,386	944,604	529,842
-6,790	15,470	943,779	529,626
-5,775	15,453	943,302	529,282
-4,760	15,422	942,559	528,745
-3,746	15,464	941,860	528,465
-2,731	15,317	941,373	527,705
-1,717	15,313	940,781	527,341
-0,702	15,344	939,868	526,904
0,313	15,078	939,281	526,531
1,327	18,287	936,854	535,233
2,342	27,229	794,318	477,498
3,356	24,007	458,881	270,903
4,371	-3,280	314,223	156,511
5,386	-7,410	295,901	143,195
6,400	-9,271	289,888	138,427
7,415	-9,695	287,415	136,817
8,429	-9,984	285,965	135,831
9,444	-9,837	285,061	135,534
10,459	-9,808	284,490	135,278
11,473	-9,848	283,765	134,882
12,488	-9,942	283,417	134,614
13,502	-9,920	282,842	134,350
14,517	-9,899	282,634	134,259
15,531	-9,822	281,914	133,979
16,546	-9,749	281,591	133,885
17,561	-9,832	281,321	133,665
18,575	-9,604	280,883	133,663
19,590	-9,904	280,518	133,190
20,604	-9,767	280,142	133,131
21,619	-9,714	279,911	133,060
22,634	-9,684	279,406	132,837
23,648	-9,945	279,194	132,475
24,663	-9,692	278,903	132,566
25,677	-9,610	278,680	132,527
26,692	-9,741	278,421	132,267
27,707	-9,732	278,114	132,118
28,721	-9,774	277,868	131,950
29,736	-9,777	277,599	131,807
30,750	-9,828	277,350	131,629
31,765	-9,755	277,134	131,584
32,780	-9,798	276,790	131,368
33,794	-9,666	276,649	131,414
34,809	-9,695	276,229	131,176
35,823	-9,844	276,139	130,980
36,838	-9,748	275,835	130,915
37,853	-9,800	275,660	130,771
38,867	-9,890	275,487	130,592
39,882	-9,752	275,054	130,506
40,896	-9,824	274,877	130,342
41,911	-9,862	274,672	130,198
42,926	-9,903	274,410	130,023
43,940	-9,788	274,012	129,931
44,955	-9,990	274,011	129,730
45,969	-9,739	273,491	129,707
46,984	-9,995	273,401	129,413
47,999	-10,042	272,983	129,161
49,013	-10,276	273,018	128,948
50,028	-10,324	272,700	128,742
51,042	-10,476	272,427	128,460
52,057	-10,490	272,098	128,280
53,071	-10,407	271,934	128,268
54,086	-10,315	271,849	128,302
55,101	-10,201	271,576	128,267
56,115	-10,134	271,565	128,313
57,130	-9,663	271,310	128,616
58,144	-9,679	271,040	128,462
59,159	-9,739	270,863	128,311
60,174	-9,739	270,648	128,198
61,188	-9,786	270,468	128,059
62,203	-9,737	270,292	128,008
63,217	-9,687	269,939	127,876
64,232	-9,613	269,871	127,900
65,247	-9,673	269,660	127,734
66,261	-9,768	269,214	127,424
67,276	-9,831	268,892	127,202
68,290	-10,045	268,720	126,914
69,305	-10,134	268,447	126,693
70,320	-9,877	268,351	126,870
71,334	-9,733	268,120	126,881
72,349	-9,805	267,981	126,739
73,363	-9,697	267,766	126,724
74,378	-9,542	267,408	126,684
75,393	-9,619	267,231	126,519
76,407	-9,838	267,166	126,278
77,422	-9,738	266,882	126,223
78,436	-9,521	266,560	126,257
79,451	-9,701	266,406	126,009
80,466	-9,792	266,194	125,816
81,480	-9,913	265,990	125,598
82,495	-9,928	265,951	125,555
83,509	-9,897	265,518	125,367
84,524	-9,987	265,474	125,255
85,539	-9,940	265,098	125,108
86,553	-10,045	264,923	124,921
87,568	-9,952	264,783	124,926
88,582	-9,913	264,492	124,813
89,597	-9,921	264,271	124,690
90,611	-9,696	264,207	124,852
91,626	-9,589	263,865	124,775
92,641	-9,725	263,848	124,633
93,655	-9,566	263,396	124,551
94,670	-9,832	263,432	124,319
95,684	-9,957	263,045	124,014
96,699	-9,757	262,924	124,124
97,714	-9,918	262,602	123,817
98,728	-9,845	262,431	123,791
99,743	-10,186	262,284	123,407
100,757	-10,135	262,242	123,422
101,772	-10,144	262,072	123,322
102,787	-9,882	261,599	123,321
103,801	-9,876	261,647	123,339
104,816	-9,654	261,367	123,392
105,830	-9,600	261,260	123,378
106,845	-9,656	261,060	123,224
107,860	-9,620	260,805	123,124
108,874	-9,679	260,551	122,941
109,889	-9,898	260,454	122,691
110,903	-9,850	260,243	122,623
111,918	-9,764	259,906	122,529
112,933	-9,943	259,806	122,313
113,947	-9,667	259,532	122,416
114,962	-9,734	259,378	122,273
115,976	-9,701	259,225	122,220
116,991	-9,686	258,969	122,101
118,006	-9,809	258,941	121,969
119,020	-9,943	258,799	121,774
120,035	-9,760	258,642	121,849
121,049	-9,767	258,368	121,703
122,064	-9,726	258,276	121,685
123,079	-9,664	257,912	121,557
124,093	-9,877	257,720	121,270
125,108	-9,838	257,414	121,149
126,122	-10,074	257,347	120,901
127,137	-10,145	257,028	120,678
128,151	-10,087	256,835	120,628
129,166	-9,817	256,655	120,766
130,181	-10,122	256,508	120,421
131,195	-10,071	256,366	120,389
132,210	-9,762	256,224	120,579
133,224	-9,698	255,944	120,492
134,239	-9,633	255,868	120,502
135,254	-9,685	255,594	120,317
136,268	-9,597	255,306	120,247
137,283	-10,078	255,103	119,725
138,297	-10,089	254,987	119,650
139,312	-10,199	254,741	119,430
140,327	-9,900	254,650	119,635
141,341	-9,656	254,643	119,831
142,356	-9,667	254,350	119,673
143,370	-9,605	254,311	119,697
144,385	-9,562	254,036	119,593
145,400	-9,601	253,923	119,496
146,414	-9,468	253,457	119,381
147,429	-9,535	253,559	119,360
148,443	-9,626	253,241	119,122
149,458	-9,587	253,167	119,110
150,473	-9,705	253,037	118,937
151,487	-9,718	252,736	118,774
152,502	-9,700	252,577	118,704
153,516	-9,510	252,444	118,793
154,531	-9,422	252,217	118,751
155,546	-9,516	251,818	118,473
156,560	-9,638	251,863	118,379
157,575	-9,801	251,535	118,076
158,589	-9,620	251,454	118,181
159,604	-9,636	251,252	118,062
160,619	-9,636	251,114	117,986
161,633	-9,513	250,834	117,948
162,648	-9,575	250,782	117,861
163,662	-9,783	250,679	117,626
164,677	-9,504	250,402	117,722
165,692	-9,613	250,213	117,530
166,706	-9,649	250,178	117,473
167,721	-9,533	249,876	117,419
168,735	-9,454	249,738	117,410
169,750	-9,474	249,643	117,337
170,764	-9,592	249,425	117,125
171,779	-9,569	249,375	117,111
172,794	-9,287	249,011	117,167
173,808	-9,564	248,818	116,833
174,823	-9,761	248,671	116,588
175,837	-9,870	248,242	116,285
176,852	-9,695	248,127	116,367
177,867	-9,771	248,341	116,394
178,881	-9,552	248,042	116,426
179,896	-9,395	247,975	116,515
180,910	-9,499	247,775	116,325
181,925	-9,620	247,626	116,143
182,940	-9,477	247,428	116,160
183,954	-9,382	247,360	116,196
184,969	-9,455	247,049	115,979
185,983	-9,599	247,024	115,837
186,998	-9,590	246,763	115,712
188,013	-9,404	246,402	115,686
189,027	-9,456	246,258	115,566
190,042	-9,512	246,281	115,520
191,056	-9,639	246,046	115,294
192,071	-9,339	245,865	115,447
193,086	-9,632	245,751	115,141
194,100	-9,521	245,500	115,104
195,115	-9,446	245,352	115,086
196,129	-9,445	245,211	115,011
197,144	-9,528	244,844	114,760
198,159	-9,534	244,699	114,677
199,173	-9,500	244,437	114,573
200,188	-9,474	244,218	114,481
201,202	-9,886	244,021	114,040
202,217	-10,125	243,925	113,789
203,232	-9,943	243,571	113,763
204,246	-9,655	243,642	114,022
205,261	-9,200	243,547	114,340
206,275	-9,984	243,292	113,568
207,290	-6,852	244,199	116,553
208,304	-0,383	246,514	122,996
209,319	3,334	247,388	126,495
210,334	3,819	247,370	126,875
211,348	3,852	247,399	126,906
212,363	4,192	247,336	127,143
213,377	4,100	247,320	127,048
214,392	3,918	247,066	126,755
215,407	3,793	246,749	126,479
216,421	4,082	246,573	126,615
217,436	4,201	246,535	126,682
218,450	4,380	246,281	126,687
219,465	3,778	246,118	126,098
220,480	3,717	246,064	126,009
221,494	3,802	245,684	125,873
222,509	3,776	245,575	125,784
223,523	3,906	245,361	125,770
224,538	3,406	245,045	125,189
225,553	3,475	244,934	125,177
226,567	3,613	244,887	125,254
227,582	3,804	244,692	125,299
228,596	3,839	244,657	125,298
229,611	3,454	244,288	124,785
230,626	3,292	244,103	124,547
231,640	3,430	244,013	124,603
232,655	3,437	243,901	124,540
233,669	3,411	243,668	124,389
234,684	3,223	243,413	124,095
235,699	3,730	243,582	124,582
236,713	3,854	243,375	124,565
237,728	3,488	243,124	124,129
238,742	3,359	242,933	123,916
239,757	3,278	242,714	123,728
240,772	3,284	242,768	123,749
241,786	3,497	242,578	123,814
242,801	3,379	242,160	123,494
243,815	3,399	242,126	123,482
244,830	3,591	241,998	123,560
245,844	3,617	242,014	123,578
246,859	3,423	241,756	123,280
247,874	3,341	241,603	123,125
248,888	3,479	241,496	123,170
249,903	3,556	241,246	123,093
250,917	3,661	240,994	123,038
251,932	3,956	240,939	123,235
252,947	3,639	240,837	122,918
253,961	3,450	240,611	122,641
254,976	3,355	240,588	122,542
255,990	3,697	240,362	122,689
257,005	3,640	240,055	122,476
258,020	3,317	239,908	122,133
259,034	3,291	239,736	122,014
260,049	3,643	239,482	122,154
261,063	3,406	239,464	121,944
262,078	3,453	239,251	121,863
263,093	3,628	239,274	122,003
264,107	3,708	239,046	121,939
265,122	3,453	238,894	121,648
266,136	3,648	238,705	121,695
267,151	3,596	238,690	121,636
268,166	3,545	238,280	121,376
269,180	3,330	238,242	121,176
270,195	3,838	238,296	121,595
271,209	3,932	238,170	121,593
272,224	3,363	237,839	120,964
273,239	3,247	237,591	120,736
274,253	3,568	237,366	120,864
275,268	3,756	237,216	120,925
276,282	3,547	237,266	120,775
277,297	3,377	237,007	120,499
278,312	3,576	236,996	120,639
279,326	3,505	236,938	120,543
280,341	3,401	236,723	120,340
281,355	3,583	236,525	120,372
282,370	3,856	236,295	120,458
283,384	3,542	236,107	120,106
284,399	3,493	235,901	119,952
285,414	3,288	235,734	119,696
286,428	3,329	235,767	119,734
287,443	3,517	235,551	119,761
288,457	3,501	235,450	119,686
289,472	3,506	235,382	119,645
290,487	3,441	235,117	119,449
291,501	3,392	234,917	119,298
292,516	3,206	234,772	119,069
293,530	3,327	234,561	119,046
294,545	3,530	234,536	119,180
295,560	3,741	234,347	119,237
296,574	3,068	234,159	118,609
297,589	3,212	234,060	118,660
298,603	3,600	234,016	118,928
299,618	3,941	233,812	119,078
300,633	3,747	233,692	118,856
301,647	3,725	233,603	118,783
302,662	4,195	233,465	119,065
303,676	4,125	233,366	118,951
304,691	3,818	233,097	118,565
305,706	3,908	232,954	118,552
306,720	3,931	232,795	118,478
307,735	3,740	232,733	118,289
308,749	3,675	232,510	118,115
309,764	3,682	232,174	117,939
310,779	3,536	232,020	117,738
311,793	3,340	231,914	117,523
312,808	3,245	231,792	117,378
313,822	3,241	231,588	117,261
314,837	3,236	231,452	117,179
315,852	3,321	231,302	117,157
316,866	3,537	231,364	117,343
317,881	3,650	231,201	117,336
318,895	3,730	230,983	117,276
319,910	4,009	230,881	117,427
320,925	3,475	230,683	116,909
321,939	3,503	230,486	116,820
322,954	3,631	230,469	116,899
323,968	3,496	230,313	116,706
324,983	3,180	229,922	116,257
325,997	3,451	229,898	116,441
327,012	3,551	229,908	116,511
328,027	3,581	229,738	116,438
329,041	3,924	229,573	116,604
330,056	4,295	229,551	116,864
331,070	4,041	229,247	116,506
332,085	3,817	229,204	116,304
333,100	3,963	229,101	116,352
334,114	3,894	228,778	116,126
335,129	3,976	228,736	116,155
336,143	3,794	228,624	115,951
337,158	3,921	228,372	115,909
338,173	3,931	228,341	115,890
339,187	3,927	228,099	115,754
340,202	4,154	227,844	115,785
341,216	3,879	227,884	115,588
342,231	3,705	227,704	115,356
343,246	3,525	227,521	115,118
344,260	3,980	227,466	115,421
345,275	4,194	227,288	115,480
346,289	4,133	227,216	115,388
347,304	3,756	227,099	115,036
348,319	4,055	226,827	115,112
349,333	3,853	226,697	114,884
350,348	3,785	226,455	114,701
351,362	3,610	226,379	114,521
352,377	3,580	226,202	114,399
353,392	3,624	225,958	114,299
354,406	3,493	225,997	114,210
355,421	195,891	1320,140	1398,431
356,435	157,043	1453,446	1398,434
