DTS Sentinel unit serial number:	SN410029Multiplexer serial number:	ORYXHardware model number:	OX2-SRSoftware version number:	ORYX F/W v4,00 Oryx Data Collector v3.7.2.0data status	okinstallation	B5 Nyhavnadifferential loss correction	single-endedforward channel	channel 2reverse channel	N/Adate	2023/12/12time	12:52:13forward acquisition time	300,00reverse acquisition time	0,00gamma	499,1914k internal	0,3158k external	0,3158temperature offset calibration	1,0000default loss term (dB/km)	0,3820temperature slope calibration	1,0000multiplexer offset coefficient	1,0000multiplexer slope coefficient	1,0000fibre end	0,00T internal ref (°C)	15,43T ext. ref 1 (°C)	-0,48T ext. ref 2 (°C)	-0,70length (m)	temperature (°C)	Stokes	anti-Stokes-744,400	253,605	0,095	0,120
-743,385	-80,353	-0,346	0,085
-742,371	-31,606	0,147	0,061
-741,356	-79,149	-0,178	-0,044
-740,342	426,602	0,030	-0,047
-739,327	-77,357	-0,249	0,063
-738,312	-154,145	-0,040	-0,002
-737,298	-91,252	-0,375	-0,078
-736,283	-75,539	0,101	0,026
-735,269	-51,102	-0,372	-0,128
-734,254	17,849	0,153	-0,090
-733,239	-71,301	-0,516	-0,142
-732,225	-129,729	0,225	-0,022
-731,210	-9,190	0,102	0,050
-730,196	-37,558	-0,141	-0,055
-729,181	-200,000	0,026	-0,160
-728,167	-200,000	0,041	-0,170
-727,152	472,554	-0,066	-0,110
-726,137	103,195	-0,099	-0,085
-725,123	800,000	-0,020	0,060
-724,108	-200,000	-0,030	-0,110
-723,094	8,645	-0,176	-0,097
-722,079	351,492	0,011	0,016
-721,064	800,000	0,026	-0,084
-720,050	540,832	-0,042	-0,074
-719,035	-170,657	-0,022	0,001
-718,021	-145,814	-0,140	0,009
-717,006	596,102	0,009	0,016
-715,991	-200,000	0,012	-0,147
-714,977	800,000	-0,058	-0,154
-713,962	436,902	-0,015	-0,023
-712,948	-200,000	0,011	-0,086
-711,933	-116,746	-0,149	-0,020
-710,918	452,697	0,044	0,072
-709,904	188,281	0,065	-0,072
-708,889	193,141	-0,094	-0,105
-707,875	69,649	-0,147	-0,111
-706,860	800,000	0,042	-0,109
-705,845	761,876	0,051	-0,103
-704,831	254,541	-0,033	0,042
-703,816	22,243	-0,123	-0,073
-702,802	-200,000	-0,038	0,129
-701,787	33,642	-0,130	-0,083
-700,772	-142,664	0,076	0,005
-699,758	588,292	0,020	-0,037
-698,743	-5,602	-0,143	0,072
-697,729	-120,888	0,096	0,012
-696,714	119,648	0,088	0,081
-695,699	-124,967	-0,107	0,012
-694,685	53,953	-0,103	0,073
-693,670	-200,000	-0,017	-0,103
-692,656	-96,450	0,135	0,026
-691,641	800,000	-0,039	0,091
-690,627	116,834	0,069	-0,062
-689,612	-200,000	0,012	-0,088
-688,597	-134,324	0,109	-0,010
-687,583	8,595	-0,036	-0,020
-686,568	79,984	-0,088	0,070
-685,554	-39,663	0,039	0,015
-684,539	14,123	0,091	-0,052
-683,524	208,374	-0,026	0,030
-682,510	-46,363	-0,135	-0,049
-681,495	800,000	0,037	-0,090
-680,481	487,704	-0,081	-0,137
-679,466	800,000	-0,008	-0,021
-678,451	297,678	-0,067	-0,090
-677,437	116,298	0,045	0,040
-676,422	-33,676	0,101	-0,041
-675,408	-52,199	-0,189	0,064
-674,393	18,416	0,026	-0,015
-673,378	-200,000	-0,003	-0,102
-672,364	443,690	-0,032	0,052
-671,349	-200,000	0,036	-0,144
-670,335	-102,583	-0,027	-0,005
-669,320	800,000	-0,019	0,053
-668,305	-7,713	0,071	-0,035
-667,291	-112,572	-0,051	-0,007
-666,276	-106,172	-0,131	0,021
-665,262	127,552	0,065	0,061
-664,247	-200,000	0,009	-0,029
-663,232	-200,000	-0,008	0,164
-662,218	131,818	0,103	-0,097
-661,203	-38,460	-0,044	-0,017
-660,189	769,543	-0,032	0,065
-659,174	-200,000	0,004	-0,042
-658,159	-123,275	-0,084	-0,010
-657,145	27,943	-0,079	0,049
-656,130	333,446	0,024	-0,034
-655,116	67,230	0,076	-0,057
-654,101	142,554	-0,053	-0,052
-653,086	-119,183	0,122	0,016
-652,072	800,000	-0,010	-0,023
-651,057	-200,000	-0,022	-0,095
-650,043	249,188	-0,059	0,073
-649,028	40,941	0,090	-0,060
-648,014	163,084	-0,091	0,094
-646,999	-43,974	0,058	-0,021
-645,984	175,779	-0,050	0,053
-644,970	800,000	-0,018	0,049
-643,955	185,364	-0,028	0,030
-642,941	-98,239	0,026	-0,005
-641,926	687,320	0,081	0,155
-640,911	216,928	0,043	-0,051
-639,897	-12,474	-0,025	0,012
-638,882	-79,384	-0,021	0,005
-637,868	240,358	-0,087	-0,106
-636,853	89,109	-0,246	-0,201
-635,838	800,000	-0,019	0,050
-634,824	134,991	-0,091	0,087
-633,809	134,030	-0,131	0,125
-632,795	800,000	0,009	0,020
-631,780	-116,007	-0,019	-0,003
-630,765	96,432	-0,093	-0,078
-629,751	247,475	-0,025	0,031
-628,736	-200,000	0,033	-0,143
-627,722	102,422	0,089	0,076
-626,707	-49,461	-0,083	-0,029
-625,692	373,100	0,017	0,025
-624,678	16,821	-0,189	0,110
-623,663	800,000	0,033	-0,092
-622,649	-99,792	-0,060	-0,011
-621,634	115,252	-0,106	-0,095
-620,619	578,226	-0,058	-0,105
-619,605	13,641	0,037	-0,021
-618,590	128,813	-0,102	0,095
-617,576	-200,000	0,007	0,097
-616,561	-176,740	0,043	-0,001
-615,546	-200,000	-0,002	-0,051
-614,532	90,630	-0,181	-0,149
-613,517	-39,954	-0,115	-0,044
-612,503	-200,000	0,002	-0,083
-611,488	37,479	0,110	-0,071
-610,474	108,566	0,045	0,039
-609,459	-27,201	-0,038	0,016
-608,444	-89,728	-0,108	0,023
-607,430	800,000	-0,017	-0,048
-606,415	98,170	-0,146	-0,123
-605,401	-200,000	0,012	-0,074
-604,386	-59,949	-0,073	-0,023
-603,371	304,264	-0,037	0,050
-602,357	398,089	-0,066	-0,102
-601,342	-19,528	0,166	-0,075
-600,328	138,741	0,054	-0,052
-599,313	-161,654	-0,097	0,004
-598,298	-200,000	-0,013	-0,109
-597,284	-99,173	0,112	-0,021
-596,269	-200,000	-0,029	0,104
-595,255	-200,000	0,007	0,043
-594,240	-200,000	0,003	0,067
-593,225	-200,000	-0,022	0,077
-592,211	800,000	-0,024	0,051
-591,196	-200,000	-0,020	-0,115
-590,182	363,236	0,010	-0,014
-589,167	-86,433	0,137	-0,031
-588,152	487,877	-0,050	0,084
-587,138	-200,000	0,037	-0,183
-586,123	588,402	-0,011	-0,019
-585,109	-200,000	0,019	-0,073
-584,094	-12,414	0,070	-0,033
-583,079	-200,000	-0,001	0,060
-582,065	-200,000	0,003	0,115
-581,050	161,571	-0,118	-0,121
-580,036	637,874	-0,066	-0,123
-579,021	-200,000	0,007	0,062
-578,006	800,000	-0,044	-0,095
-576,992	-41,035	0,136	0,051
-575,977	800,000	-0,007	-0,019
-574,963	390,057	-0,043	0,066
-573,948	-8,006	-0,027	0,013
-572,934	-142,837	0,034	0,002
-571,919	-200,000	0,006	-0,105
-570,904	794,224	0,030	-0,060
-569,890	-165,698	-0,256	0,008
-568,875	-100,578	0,114	0,020
-567,861	-200,000	0,007	0,082
-566,846	51,556	-0,124	0,086
-565,831	-148,202	-0,136	0,008
-564,817	-200,000	0,008	0,108
-563,802	-25,180	0,041	-0,018
-562,788	-108,935	0,069	-0,011
-561,773	-123,480	-0,033	0,004
-560,758	-91,019	0,073	-0,015
-559,744	-72,463	0,097	-0,026
-558,729	-70,268	-0,174	-0,048
-557,715	800,000	0,024	-0,060
-556,700	77,165	0,044	-0,034
-555,685	800,000	0,044	0,130
-554,671	37,037	0,057	-0,037
-553,656	-200,000	-0,010	0,060
-552,642	800,000	-0,067	0,150
-551,627	577,900	-0,064	-0,115
-550,612	-159,527	0,035	-0,001
-549,598	45,777	0,066	0,045
-548,583	-74,984	-0,074	0,019
-547,569	-177,126	0,065	0,001
-546,554	-3,828	0,114	0,057
-545,539	68,834	0,038	-0,029
-544,525	24,910	0,119	-0,072
-543,510	800,000	-0,056	-0,136
-542,496	-200,000	0,027	0,095
-541,481	119,804	-0,056	0,051
-540,466	219,907	0,103	0,120
-539,452	800,000	0,007	0,018
-538,437	-148,123	0,158	0,009
-537,423	800,000	-0,129	0,269
-536,408	-76,632	-0,188	0,048
-535,393	45,196	0,016	-0,011
-534,379	-200,000	-0,028	-0,128
-533,364	-200,000	-0,010	0,054
-532,350	-200,000	0,023	0,125
-531,335	800,000	-0,004	0,008
-530,321	109,755	-0,038	0,033
-529,306	-139,166	-0,093	0,007
-528,291	62,482	0,078	0,057
-527,277	575,512	0,073	-0,130
-526,262	162,452	-0,084	-0,086
-525,248	0,082	0,081	-0,042
-524,233	690,079	-0,032	0,061
-523,218	-200,000	0,009	0,093
-522,204	-36,662	-0,148	0,058
-521,189	-102,824	0,123	0,021
-520,175	-200,000	-0,047	-0,162
-519,160	129,077	-0,094	0,088
-518,145	-120,609	0,058	0,007
-517,131	145,538	0,073	0,071
-516,116	-42,713	-0,050	0,019
-515,102	445,656	0,033	0,053
-514,087	-200,000	0,013	-0,127
-513,072	82,304	-0,102	-0,081
-512,058	-54,458	0,015	-0,005
-511,043	222,644	0,007	-0,008
-510,029	-200,000	-0,026	0,167
-509,014	391,985	-0,038	0,059
-507,999	-200,000	0,019	-0,200
-506,985	-127,051	0,038	-0,004
-505,970	770,040	-0,085	-0,170
-504,956	365,874	-0,027	-0,039
-503,941	-116,095	0,104	0,014
-502,926	-31,170	-0,033	-0,013
-501,912	-70,207	0,071	-0,020
-500,897	-200,000	-0,008	-0,079
-499,883	336,511	0,032	-0,046
-498,868	-200,000	0,002	-0,065
-497,853	-200,000	-0,010	0,088
-496,839	-200,000	-0,037	-0,126
-495,824	-200,000	0,029	-0,131
-494,810	193,476	-0,087	0,096
-493,795	800,000	0,027	0,071
-492,781	-120,829	-0,064	0,008
-491,766	-37,990	-0,112	0,043
-490,751	312,393	0,087	-0,120
-489,737	-200,000	-0,025	-0,096
-488,722	800,000	0,073	-0,165
-487,708	-70,898	0,114	0,031
-486,693	-120,898	0,068	-0,008
-485,678	800,000	0,024	-0,057
-484,664	764,036	0,023	-0,047
-483,649	-63,877	-0,090	0,027
-482,635	-200,000	-0,005	-0,065
-481,620	-31,524	0,034	0,014
-480,605	-143,359	0,116	0,008
-479,591	-121,338	-0,098	-0,012
-478,576	800,000	-0,028	0,077
-477,562	258,623	-0,040	0,051
-476,547	-151,062	-0,065	0,004
-475,532	800,000	-0,033	-0,106
-474,518	-39,851	0,082	-0,031
-473,503	800,000	-0,016	0,034
-472,489	540,992	-0,063	0,110
-471,474	-156,530	-0,075	0,003
-470,459	420,918	-0,018	-0,028
-469,445	712,173	0,076	-0,147
-468,430	-200,000	0,003	-0,072
-467,416	-119,535	0,061	-0,008
-466,401	124,762	-0,091	0,083
-465,386	0,140	-0,035	0,018
-464,372	44,596	0,041	0,028
-463,357	263,967	0,034	0,043
-462,343	-94,352	0,034	0,007
-461,328	59,804	0,040	0,029
-460,313	48,135	0,022	-0,015
-459,299	31,518	0,066	0,041
-458,284	384,150	0,075	0,113
-457,270	-31,172	-0,016	0,006
-456,255	215,349	0,072	0,084
-455,241	800,000	-0,012	-0,039
-454,226	-175,017	-0,096	0,002
-453,211	88,031	0,090	0,072
-452,197	485,035	-0,092	0,154
-451,182	318,660	-0,078	0,108
-450,168	-200,000	-0,011	-0,038
-449,153	-46,788	0,034	-0,012
-448,138	-200,000	0,005	-0,171
-447,124	-42,290	0,046	0,017
-446,109	47,540	-0,065	-0,044
-445,095	48,984	-0,038	-0,026
-444,080	-200,000	0,000	-0,052
-443,065	800,000	0,044	-0,112
-442,051	34,018	0,048	-0,030
-441,036	54,197	0,042	0,029
-440,022	-200,000	-0,020	-0,119
-439,007	-200,000	0,037	-0,120
-437,992	-200,000	0,029	0,173
-436,978	5,195	0,093	0,050
-435,963	-200,000	-0,010	-0,083
-434,949	447,762	-0,091	0,146
-433,934	430,591	0,038	0,060
-432,919	198,133	-0,032	-0,036
-431,905	73,006	-0,081	0,061
-430,890	-200,000	0,008	0,029
-429,876	627,224	0,015	0,028
-428,861	276,533	0,044	-0,057
-427,846	800,000	-0,028	-0,079
-426,832	30,145	-0,042	0,026
-425,817	146,932	-0,133	-0,130
-424,803	-42,402	0,067	-0,025
-423,788	800,000	0,047	0,102
-422,773	117,141	-0,075	0,067
-421,759	60,378	0,109	-0,078
-420,744	83,273	0,053	0,042
-419,730	-65,163	0,088	-0,026
-418,715	192,501	-0,048	-0,053
-417,701	-12,741	0,033	-0,016
-416,686	59,729	0,064	0,046
-415,671	131,707	0,092	0,086
-414,657	-32,396	-0,061	0,025
-413,642	88,114	0,065	0,053
-412,628	-113,906	-0,068	-0,009
-411,613	51,187	0,044	-0,030
-410,598	-200,000	0,018	-0,107
-409,584	275,612	-0,051	0,066
-408,569	800,000	-0,055	-0,113
-407,555	-200,000	0,039	0,205
-406,540	54,602	-0,062	0,044
-405,525	187,609	-0,024	0,026
-404,511	31,410	-0,170	-0,106
-403,496	186,544	0,100	-0,108
-402,482	-26,591	-0,147	0,063
-401,467	-109,663	0,114	-0,017
-400,452	120,979	-0,087	0,079
-399,438	-29,809	-0,094	0,039
-398,423	-200,000	0,017	0,079
-397,409	24,873	-0,079	-0,048
-396,394	190,447	-0,038	-0,042
-395,379	-200,000	-0,018	0,074
-394,365	-73,558	0,055	0,014
-393,350	-61,505	0,112	0,034
-392,336	-64,319	-0,070	0,021
-391,321	-80,453	-0,089	0,021
-390,306	257,319	-0,037	0,046
-389,292	-148,246	0,036	0,002
-388,277	-105,115	0,087	-0,014
-387,263	-17,334	0,087	-0,040
-386,248	-200,000	0,006	0,150
-385,233	82,270	-0,092	0,072
-384,219	-200,000	-0,014	-0,051
-383,204	800,000	-0,031	-0,096
-382,190	800,000	-0,031	-0,097
-381,175	-200,000	0,006	-0,201
-380,160	-76,439	0,052	0,013
-379,146	-200,000	0,013	0,065
-378,131	800,000	-0,025	0,071
-377,117	131,763	-0,055	-0,052
-376,102	-200,000	0,005	-0,043
-375,088	-200,000	0,021	-0,080
-374,073	-43,953	0,055	0,020
-373,058	-1,596	0,077	0,039
-372,044	136,796	-0,097	-0,092
-371,029	-166,959	0,103	0,003
-370,015	-96,637	-0,054	0,010
-369,000	-91,680	-0,075	0,015
-367,985	390,329	-0,047	-0,072
-366,971	-101,920	0,044	-0,008
-365,956	-200,000	-0,003	0,161
-364,942	50,284	0,046	0,032
-363,927	800,000	-0,022	0,044
-362,912	-69,031	-0,061	-0,017
-361,898	193,494	0,096	-0,106
-360,883	-200,000	0,019	-0,107
-359,869	13,272	-0,109	-0,061
-358,854	800,000	0,026	-0,055
-357,839	-113,629	0,140	0,020
-356,825	-200,000	0,022	-0,079
-355,810	-158,849	-0,043	0,002
-354,796	-200,000	0,001	-0,074
-353,781	800,000	0,052	-0,128
-352,766	27,267	-0,027	-0,016
-351,752	800,000	0,035	0,107
-350,737	-200,000	0,026	-0,089
-349,723	485,127	0,068	0,114
-348,708	622,609	0,040	0,074
-347,693	-26,238	-0,039	-0,017
-346,679	91,447	-0,103	-0,084
-345,664	800,000	0,048	0,133
-344,650	-200,000	0,007	0,049
-343,635	281,304	0,061	0,079
-342,620	800,000	0,105	0,239
-341,606	102,086	0,074	0,062
-340,591	45,217	-0,033	-0,022
-339,577	672,590	0,007	0,013
-338,562	62,928	0,076	0,055
-337,548	-65,441	0,133	0,038
-336,533	255,306	-0,045	0,055
-335,518	540,908	0,041	0,071
-334,504	496,310	-0,047	-0,079
-333,489	99,271	0,039	-0,033
-332,475	-80,561	-0,097	0,023
-331,460	410,198	0,032	-0,050
-330,445	5,402	-0,068	-0,036
-329,431	-146,567	0,084	0,005
-328,416	800,000	0,015	-0,038
-327,402	132,464	0,031	0,029
-326,387	200,749	0,039	-0,044
-325,372	-200,000	-0,034	-0,115
-324,358	-200,000	0,038	-0,125
-323,343	3,696	0,071	-0,037
-322,329	-200,000	0,008	0,068
-321,314	-145,126	0,173	0,011
-320,299	-200,000	-0,019	0,091
-319,285	22,789	0,172	-0,102
-318,270	-60,591	0,083	-0,025
-317,256	24,667	-0,045	-0,027
-316,241	258,208	-0,019	0,024
-315,226	800,000	-0,012	-0,028
-314,212	-80,034	0,046	0,011
-313,197	187,055	-0,045	-0,049
-312,183	372,387	0,107	0,158
-311,168	800,000	0,014	0,042
-310,153	-200,000	-0,043	0,148
-309,139	800,000	0,032	0,086
-308,124	287,343	0,090	0,119
-307,110	6,045	0,153	-0,082
-306,095	582,477	-0,006	0,011
-305,080	-88,755	0,050	-0,011
-304,066	-200,000	-0,039	-0,132
-303,051	249,614	-0,059	-0,073
-302,037	-98,216	-0,144	0,027
-301,022	371,609	0,023	-0,034
-300,008	800,000	0,053	0,150
-298,993	-200,000	0,028	0,105
-297,978	124,729	0,045	0,041
-296,964	-90,205	-0,058	-0,012
-295,949	131,178	0,029	0,027
-294,935	120,657	-0,055	-0,049
-293,920	439,468	0,030	-0,047
-292,905	-200,000	0,002	-0,020
-291,891	-200,000	0,014	-0,082
-290,876	-200,000	0,003	-0,028
-289,862	221,226	0,044	0,051
-288,847	89,627	-0,145	-0,117
-287,832	197,007	0,093	0,103
-286,818	-83,418	-0,141	-0,032
-285,803	4,482	0,104	-0,055
-284,789	-200,000	0,004	-0,076
-283,774	800,000	0,023	-0,066
-282,759	-85,124	-0,174	-0,039
-281,745	183,548	-0,068	0,073
-280,730	-89,037	-0,119	0,025
-279,716	-200,000	0,019	-0,072
-278,701	13,257	0,037	-0,021
-277,686	40,500	0,109	-0,071
-276,672	-152,229	0,134	-0,007
-275,657	-31,128	-0,130	-0,053
-274,643	-200,000	-0,015	-0,083
-273,628	-200,000	0,027	0,088
-272,613	-200,000	-0,008	-0,165
-271,599	-200,000	0,016	-0,140
-270,584	-200,000	0,007	0,093
-269,570	800,000	-0,050	0,152
-268,555	237,205	-0,083	0,100
-267,540	134,648	-0,138	0,130
-266,526	-135,215	-0,050	-0,004
-265,511	419,894	-0,019	-0,030
-264,497	800,000	0,053	0,155
-263,482	-134,769	0,118	-0,010
-262,467	-81,536	0,091	0,021
-261,453	76,363	0,117	0,089
-260,438	800,000	0,031	-0,064
-259,424	800,000	0,045	0,091
-258,409	20,399	-0,060	0,035
-257,395	69,754	0,099	0,074
-256,380	74,038	0,105	-0,079
-255,365	-155,125	-0,060	0,003
-254,351	-82,277	0,077	-0,018
-253,336	135,518	0,041	-0,039
-252,322	-139,704	-0,087	0,007
-251,307	77,042	-0,122	-0,093
-250,292	-12,768	-0,039	0,018
-249,278	-114,235	0,015	0,002
-248,263	800,000	0,036	0,073
-247,249	800,000	-0,031	0,087
-246,234	468,707	-0,078	-0,127
-245,219	-108,025	0,155	-0,024
-244,205	483,039	-0,057	-0,094
-243,190	-183,109	0,084	0,001
-242,176	-26,426	0,135	0,057
-241,161	459,167	0,028	0,045
-240,146	-200,000	0,002	-0,008
-239,132	-11,452	0,040	0,019
-238,117	65,385	-0,032	-0,023
-237,103	-200,000	-0,012	0,000
-236,088	85,395	0,029	-0,023
-235,073	-200,000	0,014	0,160
-234,059	124,852	0,016	0,015
-233,044	118,618	0,033	0,029
-232,030	-200,000	-0,010	0,165
-231,015	-116,915	-0,010	0,001
-230,000	-200,000	-0,000	0,017
-228,986	800,000	0,111	-0,232
-227,971	-200,000	-0,041	0,161
-226,957	190,077	0,092	0,100
-225,942	800,000	-0,020	-0,047
-224,927	-169,846	-0,084	0,002
-223,913	800,000	-0,053	0,151
-222,898	96,880	-0,075	-0,062
-221,884	-200,000	-0,029	-0,187
-220,869	-200,000	-0,012	-0,070
-219,855	-109,300	0,113	-0,017
-218,840	673,150	0,093	0,174
-217,825	-200,000	0,003	0,021
-216,811	800,000	-0,075	-0,200
-215,796	-200,000	-0,021	-0,197
-214,782	-83,158	-0,046	-0,011
-213,767	-47,498	-0,023	-0,008
-212,752	776,096	0,032	0,063
-211,738	90,050	0,165	-0,133
-210,723	73,522	-0,094	0,071
-209,709	151,425	0,075	0,074
-208,694	-200,000	0,032	0,185
-207,679	48,441	-0,032	-0,022
-206,665	-10,123	0,065	-0,031
-205,650	205,797	0,039	0,044
-204,636	213,181	-0,112	0,128
-203,621	-17,408	-0,046	0,021
-202,606	273,402	0,032	-0,042
-201,592	-96,213	-0,096	0,018
-200,577	102,747	0,095	-0,080
-199,563	-74,913	0,122	0,031
-198,548	-200,000	-0,016	0,150
-197,533	-108,957	-0,048	0,007
-196,519	-71,133	0,196	-0,053
-195,504	-113,449	-0,167	-0,023
-194,490	-200,000	-0,000	0,030
-193,475	-6,257	-0,016	-0,008
-192,460	-14,806	0,020	-0,009
-191,446	17,845	0,090	0,052
-190,431	480,114	0,042	0,069
-189,417	338,539	0,032	0,046
-188,402	-200,000	-0,041	0,133
-187,387	-27,085	-0,128	-0,053
-186,373	110,833	-0,033	-0,028
-185,358	-26,529	-0,086	0,036
-184,344	800,000	0,019	-0,048
-183,329	-169,836	0,060	0,002
-182,315	69,656	0,028	0,021
-181,300	-73,661	-0,050	-0,013
-180,285	473,396	-0,091	-0,148
-179,271	-200,000	-0,003	-0,026
-178,256	-159,935	0,026	-0,001
-177,242	800,000	0,038	0,082
-176,227	-171,905	-0,125	0,003
-175,212	46,440	-0,095	-0,063
-174,198	-152,035	0,139	-0,007
-173,183	16,529	-0,016	0,009
-172,169	538,987	0,039	-0,067
-171,154	173,978	-0,035	0,036
-170,139	-200,000	-0,003	-0,028
-169,125	290,025	0,069	0,090
-168,110	800,000	0,051	-0,107
-167,096	-27,657	0,109	0,046
-166,081	-131,560	-0,175	0,016
-165,066	-121,489	-0,142	0,017
-164,052	-76,442	-0,069	-0,017
-163,037	798,570	-0,045	-0,091
-162,023	-200,000	0,019	0,065
-161,008	800,000	0,026	0,077
-159,993	73,995	0,058	-0,044
-158,979	280,398	-0,025	0,033
-157,964	-113,690	0,091	0,013
-156,950	-91,864	-0,173	0,035
-155,935	-18,233	0,084	0,038
-154,920	-65,922	0,066	-0,019
-153,906	489,771	0,043	0,071
-152,891	-84,737	0,050	-0,011
-151,877	184,078	0,115	-0,123
-150,862	-200,000	-0,020	-0,078
-149,847	343,915	-0,034	-0,049
-148,833	-103,803	-0,024	0,004
-147,818	-73,078	0,143	0,037
-146,804	-40,240	-0,036	-0,014
-145,789	-142,576	-0,044	-0,003
-144,775	528,734	-0,020	-0,034
-143,760	-200,000	0,012	-0,129
-142,745	193,832	-0,102	0,111
-141,731	800,000	0,034	0,077
-140,716	-6,985	0,120	0,058
-139,702	-200,000	-0,060	-0,000
-138,687	800,000	0,024	0,068
-137,672	272,880	-0,036	0,045
-136,658	-146,016	0,067	0,004
-135,643	-110,107	-0,096	-0,014
-134,629	-155,988	-0,080	0,004
-133,614	800,000	0,058	0,161
-132,599	479,843	-0,054	-0,088
-131,585	-177,713	-0,061	0,001
-130,570	-200,000	-0,012	-0,044
-129,556	-16,395	0,027	0,012
-128,541	-38,636	0,149	0,056
-127,526	-200,000	0,004	-0,014
-126,512	684,029	-0,023	0,043
-125,497	-83,663	0,123	0,028
-124,483	164,461	0,054	0,055
-123,468	655,555	0,054	0,100
-122,453	-9,035	-0,149	0,071
-121,439	-191,120	0,070	0,001
-120,424	-200,000	-0,008	-0,063
-119,410	-25,529	0,073	0,031
-118,395	-200,000	0,007	0,115
-117,380	-200,000	-0,010	0,199
-116,366	289,509	-0,072	-0,094
-115,351	-200,000	0,002	0,011
-114,337	344,447	0,080	0,114
-113,322	-200,000	0,023	-0,146
-112,307	-89,934	0,092	0,019
-111,293	162,457	0,080	0,081
-110,278	511,122	0,064	0,108
-109,264	133,729	-0,050	0,046
-108,249	179,218	-0,058	-0,061
-107,234	-200,000	0,018	0,058
-106,220	-131,927	-0,197	0,018
-105,205	592,676	0,025	-0,044
-104,191	630,207	0,029	-0,054
-103,176	26,113	-0,095	-0,057
-102,162	126,996	0,120	0,110
-101,147	-200,000	0,026	0,128
-100,132	-49,817	-0,082	-0,028
-99,118	19,350	-0,045	0,026
-98,103	-200,000	0,004	0,047
-97,089	656,887	0,056	0,105
-96,074	239,885	0,110	0,132
-95,059	800,000	0,010	-0,024
-94,045	-3,990	-0,085	0,042
-93,030	-11,518	0,015	-0,007
-92,016	-200,000	-0,027	-0,091
-91,001	-129,565	0,094	0,009
-89,986	165,341	-0,110	0,112
-88,972	800,000	0,049	0,117
-87,957	-3,686	-0,207	0,103
-86,943	-91,628	-0,133	-0,027
-85,928	264,135	-0,056	-0,070
-84,913	247,394	-0,115	0,140
-83,899	192,393	0,027	0,030
-82,884	-200,000	0,036	-0,121
-81,870	-88,685	0,004	-0,001
-80,855	800,000	-0,046	0,130
-79,840	69,693	0,092	-0,068
-78,826	110,218	-0,065	0,056
-77,811	-162,027	-0,037	0,001
-76,797	66,848	0,130	0,095
-75,782	-128,628	-0,115	0,012
-74,767	-39,617	0,109	-0,041
-73,753	-200,000	-0,003	0,080
-72,738	5,692	0,072	0,038
-71,724	92,816	0,076	-0,061
-70,709	-48,382	-0,211	0,073
-69,694	135,570	-0,049	0,045
-68,680	800,000	0,040	0,083
-67,665	92,202	0,068	0,055
-66,651	48,552	0,049	-0,033
-65,636	-33,915	-0,032	-0,013
-64,622	-200,000	-0,004	-0,050
-63,607	676,329	-0,012	0,022
-62,592	-200,000	-0,018	0,062
-61,578	261,937	-0,036	-0,045
-60,563	-200,000	0,000	-0,087
-59,549	-110,193	-0,057	0,008
-58,534	-5,447	-2,070	-1,016
-57,519	-200,000	-0,157	-0,906
-56,505	-200,000	-1,316	-4,842
-55,490	47,039	0,720	0,480
-54,476	800,000	5,258	12,111
-53,461	-200,000	17,477	283,119
-52,446	800,000	725,982	2214,886
-51,432	536,216	1642,124	2807,554
-50,417	110,127	1633,077	1406,480
-49,403	74,897	1286,332	970,974
-48,388	32,002	1027,586	634,010
-47,373	20,178	989,527	571,544
-46,359	18,593	977,506	559,381
-45,344	15,808	973,550	547,985
-44,330	15,972	972,053	547,655
-43,315	15,511	970,158	545,062
-42,300	15,437	969,135	544,223
-41,286	15,434	968,216	543,676
-40,271	15,414	967,119	542,974
-39,257	15,396	966,347	542,461
-38,242	15,458	965,283	542,043
-37,227	15,452	964,449	541,533
-36,213	15,415	963,603	540,918
-35,198	15,430	962,913	540,557
-34,184	15,491	962,151	540,305
-33,169	15,431	961,070	539,483
-32,154	15,505	960,076	539,141
-31,140	15,500	959,263	538,649
-30,125	15,499	958,638	538,274
-29,111	15,451	957,748	537,598
-28,096	15,447	957,205	537,259
-27,082	15,424	956,505	536,770
-26,067	15,551	955,392	536,531
-25,052	15,504	954,692	535,967
-24,038	15,420	954,184	535,389
-23,023	15,484	953,504	535,194
-22,009	15,509	952,771	534,839
-20,994	15,519	952,298	534,587
-19,979	15,492	951,723	534,157
-18,965	15,451	950,988	533,590
-17,950	15,451	950,243	533,151
-16,936	15,453	949,752	532,859
-15,921	15,384	949,108	532,257
-14,906	15,348	948,336	531,689
-13,892	15,336	947,657	531,249
-12,877	15,365	946,956	530,928
-11,863	15,310	946,705	530,591
-10,848	15,326	946,005	530,229
-9,833	15,451	945,482	530,310
-8,819	15,436	944,711	529,809
-7,804	15,365	944,094	529,219
-6,790	15,397	943,649	529,049
-5,775	15,464	942,906	528,823
-4,760	15,410	942,376	528,335
-3,746	15,383	941,770	527,887
-2,731	15,259	941,103	527,100
-1,717	15,157	940,521	526,432
-0,702	15,214	939,872	526,228
0,313	15,041	939,087	526,038
1,327	18,257	936,901	534,892
2,342	27,291	794,346	477,436
3,356	24,159	459,609	271,427
4,371	-2,749	315,118	157,447
5,386	-6,555	296,770	144,410
6,400	-8,571	290,936	139,553
7,415	-9,315	288,592	137,682
8,429	-9,291	286,720	136,800
9,444	-9,448	286,000	136,291
10,459	-9,576	285,400	135,867
11,473	-9,549	284,845	135,618
12,488	-9,295	284,196	135,544
13,502	-9,658	283,772	134,977
14,517	-9,496	283,313	134,904
15,531	-9,496	282,785	134,640
16,546	-9,622	282,444	134,345
17,561	-9,761	282,003	133,988
18,575	-9,567	281,653	133,998
19,590	-9,811	281,276	133,572
20,604	-9,534	281,006	133,697
21,619	-9,524	280,485	133,447
22,634	-9,722	280,349	133,181
23,648	-9,778	279,945	132,923
24,663	-9,497	279,677	133,053
25,677	-9,719	279,457	132,724
26,692	-9,758	279,227	132,566
27,707	-9,760	278,992	132,441
28,721	-9,740	278,619	132,271
29,736	-9,591	278,358	132,276
30,750	-9,637	278,097	132,097
31,765	-9,586	277,693	131,942
32,780	-9,683	277,747	131,864
33,794	-9,818	277,387	131,553
34,809	-9,735	277,109	131,488
35,823	-9,690	276,779	131,363
36,838	-9,641	276,470	131,251
37,853	-9,820	276,387	131,030
38,867	-9,778	276,109	130,927
39,882	-9,871	275,911	130,734
40,896	-9,769	275,599	130,670
41,911	-9,763	275,385	130,563
42,926	-9,805	275,189	130,419
43,940	-9,796	274,907	130,282
44,955	-9,967	274,724	130,023
45,969	-9,802	274,399	130,012
46,984	-10,064	274,240	129,680
47,999	-10,145	273,987	129,473
49,013	-10,161	273,551	129,241
50,028	-10,473	273,375	128,855
51,042	-10,321	272,964	128,792
52,057	-10,505	272,798	128,530
53,071	-10,531	272,725	128,460
54,086	-10,219	272,333	128,554
55,101	-10,354	272,421	128,459
56,115	-10,147	272,297	128,581
57,130	-9,763	272,075	128,820
58,144	-9,511	271,865	128,942
59,159	-9,392	271,551	128,892
60,174	-9,411	271,325	128,756
61,188	-9,342	271,110	128,706
62,203	-9,411	271,028	128,593
63,217	-9,565	270,714	128,290
64,232	-9,607	270,619	128,195
65,247	-9,415	270,296	128,207
66,261	-9,573	270,032	127,925
67,276	-9,726	269,732	127,632
68,290	-9,881	269,383	127,312
69,305	-9,914	269,449	127,302
70,320	-9,781	269,054	127,226
71,334	-9,931	268,934	127,021
72,349	-9,796	268,823	127,080
73,363	-9,642	268,541	127,076
74,378	-9,500	268,363	127,110
75,393	-9,484	268,227	127,049
76,407	-9,525	267,915	126,853
77,422	-9,611	267,710	126,667
78,436	-9,704	267,586	126,512
79,451	-9,643	267,391	126,463
80,466	-9,582	267,035	126,339
81,480	-9,747	266,758	126,047
82,495	-9,926	266,680	125,837
83,509	-9,894	266,482	125,761
84,524	-9,809	266,142	125,667
85,539	-9,918	265,776	125,384
86,553	-10,104	265,708	125,173
87,568	-9,903	265,488	125,239
88,582	-9,782	265,321	125,259
89,597	-9,786	265,123	125,150
90,611	-9,719	264,933	125,109
91,626	-9,426	264,956	125,373
92,641	-9,529	264,659	125,129
93,655	-9,747	264,337	124,770
94,670	-9,729	264,052	124,641
95,684	-9,640	263,891	124,633
96,699	-9,723	263,824	124,516
97,714	-9,593	263,506	124,471
98,728	-9,898	263,451	124,161
99,743	-9,891	263,173	124,025
100,757	-9,965	262,840	123,791
101,772	-9,824	262,697	123,838
102,787	-9,708	262,500	123,837
103,801	-9,585	262,203	123,796
104,816	-9,586	262,071	123,722
105,830	-9,496	262,027	123,770
106,845	-9,654	262,004	123,608
107,860	-9,538	261,719	123,565
108,874	-9,552	261,318	123,353
109,889	-9,591	261,157	123,231
110,903	-9,658	261,086	123,127
111,918	-9,623	260,679	122,955
112,933	-9,860	260,636	122,715
113,947	-9,663	260,544	122,834
114,962	-9,724	260,163	122,590
115,976	-9,500	260,081	122,738
116,991	-9,755	259,955	122,443
118,006	-9,443	259,633	122,555
119,020	-9,566	259,613	122,426
120,035	-9,360	259,347	122,470
121,049	-9,621	259,267	122,193
122,064	-9,406	258,934	122,213
123,079	-9,679	258,867	121,932
124,093	-9,768	258,627	121,729
125,108	-9,852	258,307	121,495
126,122	-10,046	258,018	121,178
127,137	-10,159	257,804	120,969
128,151	-9,990	257,770	121,089
129,166	-9,801	257,561	121,145
130,181	-9,898	257,246	120,901
131,195	-9,910	257,023	120,776
132,210	-9,640	256,890	120,937
133,224	-9,520	256,906	121,038
134,239	-9,648	256,608	120,776
135,254	-9,380	256,470	120,932
136,268	-9,692	256,337	120,589
137,283	-9,817	255,916	120,272
138,297	-10,172	255,838	119,917
139,312	-10,140	255,450	119,752
140,327	-9,731	255,541	120,137
141,341	-9,535	255,503	120,278
142,356	-9,505	255,381	120,236
143,370	-9,508	255,116	120,098
144,385	-9,354	254,692	120,020
145,400	-9,340	254,586	119,972
146,414	-9,399	254,394	119,819
147,429	-9,344	254,331	119,827
148,443	-9,422	254,027	119,606
149,458	-9,328	254,037	119,680
150,473	-9,458	253,912	119,499
151,487	-9,417	253,464	119,313
152,502	-9,548	253,426	119,173
153,516	-9,323	253,162	119,230
154,531	-9,539	253,168	119,037
155,546	-9,274	252,725	119,045
156,560	-9,432	252,713	118,894
157,575	-9,420	252,372	118,733
158,589	-9,358	252,289	118,736
159,604	-9,439	252,162	118,597
160,619	-9,434	251,900	118,468
161,633	-9,289	251,630	118,452
162,648	-9,464	251,695	118,324
163,662	-9,252	251,471	118,388
164,677	-9,291	251,336	118,281
165,692	-9,446	251,237	118,093
166,706	-9,470	250,992	117,947
167,721	-9,645	250,900	117,744
168,735	-9,363	250,665	117,862
169,750	-9,172	250,313	117,848
170,764	-9,144	250,284	117,847
171,779	-9,373	250,332	117,666
172,794	-9,019	249,863	117,733
173,808	-9,355	249,758	117,390
174,823	-9,734	249,524	116,951
175,837	-9,970	249,209	116,594
176,852	-9,378	249,234	117,094
177,867	-9,163	249,117	117,209
178,881	-9,300	249,029	117,041
179,896	-9,326	248,925	116,961
180,910	-9,198	248,601	116,905
181,925	-9,303	248,490	116,754
182,940	-9,255	248,160	116,629
183,954	-9,242	248,028	116,567
184,969	-9,367	247,994	116,437
185,983	-9,131	247,870	116,565
186,998	-9,515	247,666	116,138
188,013	-9,398	247,499	116,147
189,027	-9,313	247,224	116,079
190,042	-9,280	247,230	116,099
191,056	-9,180	246,968	116,049
192,071	-8,977	246,730	116,094
193,086	-9,142	246,591	115,882
194,100	-9,274	246,354	115,651
195,115	-9,182	246,161	115,626
196,129	-9,318	246,149	115,498
197,144	-9,259	245,849	115,395
198,159	-9,192	245,547	115,299
199,173	-9,106	245,322	115,254
200,188	-9,264	245,157	115,036
201,202	-9,594	245,018	114,688
202,217	-9,770	244,828	114,444
203,232	-9,840	244,615	114,277
204,246	-9,309	244,566	114,681
205,261	-8,790	244,503	115,067
206,275	-9,448	244,300	114,421
207,290	-6,066	245,711	117,863
208,304	0,790	247,783	124,537
209,319	3,494	248,426	127,094
210,334	3,951	248,411	127,454
211,348	4,263	248,435	127,713
212,363	4,563	248,347	127,904
213,377	4,670	248,127	127,869
214,392	4,448	247,997	127,606
215,407	4,365	247,845	127,449
216,421	4,330	247,488	127,225
217,436	4,584	247,531	127,445
218,450	4,666	247,502	127,486
219,465	4,329	247,134	127,008
220,480	4,252	246,892	126,809
221,494	4,187	246,856	126,726
222,509	4,113	246,643	126,544
223,523	4,043	246,295	126,297
224,538	3,697	246,107	125,906
225,553	3,917	245,857	125,946
226,567	3,946	245,856	125,958
227,582	4,019	245,822	125,989
228,596	4,135	245,661	125,991
229,611	3,930	245,205	125,579
230,626	3,864	245,100	125,459
231,640	3,785	245,065	125,366
232,655	3,955	244,966	125,442
233,669	3,738	244,801	125,170
234,684	3,542	244,642	124,918
235,699	4,277	244,374	125,367
236,713	4,250	244,412	125,354
237,728	4,145	243,962	125,027
238,742	3,774	243,866	124,665
239,757	3,533	243,708	124,378
240,772	3,791	243,718	124,581
241,786	3,877	243,567	124,563
242,801	3,714	243,265	124,266
243,815	3,486	243,248	124,060
244,830	4,048	242,866	124,309
245,844	3,971	242,906	124,256
246,859	3,774	242,642	123,951
247,874	3,668	242,447	123,755
248,888	4,142	242,165	123,981
249,903	3,900	242,100	123,743
250,917	3,937	242,316	123,872
251,932	4,234	242,003	123,939
252,947	4,004	241,780	123,630
253,961	3,820	241,606	123,382
254,976	4,060	241,469	123,493
255,990	4,181	241,350	123,518
257,005	3,911	241,015	123,120
258,020	3,591	240,882	122,785
259,034	3,813	240,682	122,850
260,049	3,910	240,666	122,908
261,063	3,741	240,437	122,645
262,078	3,776	240,312	122,598
263,093	4,151	240,229	122,844
264,107	4,319	239,988	122,844
265,122	3,982	239,786	122,461
266,136	3,870	239,782	122,359
267,151	4,188	239,681	122,549
268,166	3,880	239,313	122,107
269,180	3,767	239,057	121,875
270,195	4,251	239,278	122,361
271,209	4,610	239,298	122,645
272,224	4,012	238,871	121,941
273,239	3,736	238,575	121,561
274,253	3,864	238,435	121,580
275,268	4,128	238,330	121,724
276,282	3,965	238,112	121,473
277,297	3,781	237,921	121,220
278,312	3,706	237,829	121,103
279,326	3,752	237,779	121,103
280,341	3,976	237,662	121,209
281,355	3,849	237,540	121,036
282,370	3,868	237,432	120,986
283,384	4,048	237,092	120,943
284,399	3,833	237,046	120,740
285,414	3,565	236,855	120,421
286,428	3,698	236,633	120,403
287,443	3,568	236,612	120,279
288,457	3,927	236,521	120,503
289,472	3,967	236,309	120,415
290,487	4,104	236,075	120,392
291,501	3,669	235,828	119,916
292,516	3,667	235,623	119,800
293,530	3,426	235,542	119,560
294,545	3,800	235,549	119,844
295,560	3,937	235,427	119,879
296,574	3,824	235,160	119,644
297,589	3,825	234,893	119,498
298,603	4,162	234,958	119,783
299,618	4,019	234,816	119,588
300,633	3,971	234,624	119,443
301,647	4,082	234,582	119,497
302,662	4,323	234,516	119,640
303,676	4,374	234,298	119,557
304,691	4,141	234,016	119,222
305,706	4,313	234,054	119,364
306,720	4,253	233,834	119,195
307,735	4,113	233,604	118,959
308,749	4,034	233,503	118,836
309,764	3,853	233,298	118,581
310,779	3,886	233,101	118,496
311,793	3,936	232,650	118,295
312,808	3,708	232,672	118,120
313,822	3,681	232,479	117,991
314,837	3,674	232,309	117,889
315,852	3,807	232,235	117,943
316,866	3,992	232,235	118,074
317,881	4,111	232,014	118,043
318,895	4,193	231,725	117,947
319,910	4,076	231,648	117,808
320,925	4,103	231,587	117,787
321,939	4,003	231,439	117,625
322,954	4,219	231,532	117,827
323,968	3,929	231,245	117,449
324,983	3,954	231,087	117,378
325,997	3,685	230,867	117,050
327,012	4,026	230,736	117,233
328,027	4,272	230,579	117,330
329,041	4,401	230,665	117,462
330,056	4,675	230,508	117,580
331,070	4,685	230,323	117,482
332,085	4,096	230,155	116,939
333,100	4,052	229,936	116,784
334,114	3,900	229,724	116,551
335,129	3,988	229,683	116,586
336,143	4,320	229,627	116,799
337,158	4,330	229,449	116,705
338,173	4,274	229,194	116,523
339,187	4,032	229,049	116,256
340,202	4,263	228,978	116,384
341,216	4,340	228,647	116,264
342,231	4,160	228,479	116,032
343,246	4,065	228,496	115,959
344,260	4,070	228,374	115,891
345,275	4,370	228,311	116,074
346,289	4,241	228,237	115,929
347,304	4,251	228,050	115,831
348,319	4,364	227,767	115,762
349,333	4,114	227,530	115,444
350,348	4,022	227,444	115,320
351,362	4,185	227,373	115,397
352,377	3,936	227,093	115,058
353,392	3,924	226,894	114,938
354,406	3,968	226,802	114,914
355,421	195,122	1320,964	1396,144
356,435	156,415	1454,270	1396,140
