DTS Sentinel unit serial number:	SN410029Multiplexer serial number:	ORYXHardware model number:	OX2-SRSoftware version number:	ORYX F/W v4,00 Oryx Data Collector v3.7.2.0data status	okinstallation	B5 Nyhavnadifferential loss correction	single-endedforward channel	channel 2reverse channel	N/Adate	2023/12/14time	11:42:13forward acquisition time	300,00reverse acquisition time	0,00gamma	499,1914k internal	0,3159k external	0,3159temperature offset calibration	1,0000default loss term (dB/km)	0,3820temperature slope calibration	1,0000multiplexer offset coefficient	1,0000multiplexer slope coefficient	1,0000fibre end	0,00T internal ref (°C)	7,50T ext. ref 1 (°C)	-7,95T ext. ref 2 (°C)	-7,97length (m)	temperature (°C)	Stokes	anti-Stokes-744,400	-67,906	0,199	-0,057
-743,385	-95,497	-0,240	-0,047
-742,371	81,000	0,176	0,140
-741,356	-94,445	-0,429	-0,085
-740,342	5,591	0,214	0,116
-739,327	-164,380	-0,339	-0,011
-738,312	3,617	0,123	0,066
-737,298	-155,592	-0,357	-0,017
-736,283	-73,954	0,111	0,030
-735,269	-125,955	-0,407	0,045
-734,254	72,778	0,128	0,098
-733,239	36,477	-0,502	-0,325
-732,225	-58,525	0,322	0,102
-731,210	-200,000	-0,002	0,129
-730,196	800,000	0,034	-0,109
-729,181	-32,901	0,105	-0,043
-728,167	133,977	-0,045	-0,043
-727,152	-128,686	-0,082	-0,008
-726,137	-64,187	-0,115	-0,034
-725,123	-200,000	-0,012	-0,106
-724,108	167,076	-0,098	-0,103
-723,094	-31,115	-0,076	0,031
-722,079	-113,582	-0,064	0,009
-721,064	-93,568	0,069	-0,014
-720,050	276,518	0,039	0,051
-719,035	-129,832	-0,221	0,022
-718,021	-46,190	-0,041	0,015
-717,006	-75,025	-0,040	0,010
-715,991	184,394	-0,073	-0,080
-714,977	-72,920	0,062	0,017
-713,962	-62,280	-0,097	-0,030
-712,948	-200,000	0,001	-0,034
-711,933	-200,000	-0,001	0,036
-710,918	800,000	0,013	0,027
-709,904	11,442	-0,078	-0,044
-708,889	51,026	0,011	0,008
-707,875	399,001	0,043	0,067
-706,860	-200,000	0,011	0,119
-705,845	800,000	0,087	0,189
-704,831	-15,437	-0,172	0,081
-703,816	131,282	-0,057	0,054
-702,802	286,889	0,051	0,068
-701,787	209,930	-0,087	-0,101
-700,772	-78,414	0,080	0,020
-699,758	-176,884	-0,109	-0,002
-698,743	800,000	0,007	0,018
-697,729	-37,150	-0,102	-0,040
-696,714	-13,998	0,101	-0,048
-695,699	-200,000	0,039	-0,141
-694,685	-27,345	-0,199	0,085
-693,670	800,000	-0,021	0,054
-692,656	-200,000	0,007	-0,152
-691,641	429,832	-0,057	0,091
-690,627	274,396	-0,002	-0,003
-689,612	-116,687	0,156	0,021
-688,597	215,594	0,108	0,126
-687,583	632,551	-0,061	-0,115
-686,568	20,427	-0,008	-0,005
-685,554	176,091	-0,051	0,054
-684,539	-127,065	-0,108	0,011
-683,524	120,903	-0,033	-0,030
-682,510	600,954	0,018	0,032
-681,495	-200,000	0,023	0,094
-680,481	127,672	-0,091	-0,085
-679,466	0,722	-0,106	0,055
-678,451	800,000	0,012	-0,032
-677,437	37,907	-0,054	0,035
-676,422	289,154	0,067	0,090
-675,408	140,405	-0,081	-0,078
-674,393	-200,000	-0,000	-0,009
-673,378	-66,807	-0,121	-0,035
-672,364	-74,638	0,086	0,023
-671,349	-83,302	-0,074	0,017
-670,335	37,164	0,111	-0,072
-669,320	35,749	-0,079	-0,051
-668,305	336,201	-0,115	0,165
-667,291	-200,000	0,028	-0,104
-666,276	-4,829	-0,071	-0,036
-665,262	612,285	-0,082	-0,151
-664,247	472,037	-0,069	-0,114
-663,232	800,000	0,006	-0,019
-662,218	88,313	0,028	0,023
-661,203	-57,687	0,135	-0,043
-660,189	-200,000	0,010	-0,046
-659,174	-183,795	-0,103	0,001
-658,159	-200,000	0,032	0,108
-657,145	-111,975	0,082	0,012
-656,130	-150,549	-0,069	0,004
-655,116	-34,274	0,131	-0,052
-654,101	-200,000	0,018	-0,065
-653,086	313,318	-0,068	0,093
-652,072	-18,759	-0,115	-0,053
-651,057	-172,262	-0,083	0,002
-650,043	-200,000	-0,007	-0,043
-649,028	-14,438	-0,107	0,051
-648,014	-200,000	0,008	0,036
-646,999	235,680	0,069	0,084
-645,984	-200,000	-0,016	0,067
-644,970	-14,458	-0,077	0,036
-643,955	-200,000	0,008	0,191
-642,941	128,179	-0,036	0,033
-641,926	70,456	0,031	0,024
-640,911	-15,917	-0,049	-0,023
-639,897	144,396	0,032	-0,032
-638,882	-90,017	-0,093	-0,020
-637,868	-200,000	-0,008	-0,206
-636,853	-200,000	0,010	-0,088
-635,838	271,101	-0,033	-0,042
-634,824	-200,000	0,027	0,109
-633,809	38,640	-0,074	-0,049
-632,795	-130,694	0,067	-0,007
-631,780	129,644	0,036	-0,034
-630,765	295,715	0,072	0,097
-629,751	167,704	-0,058	0,061
-628,736	390,904	-0,053	-0,080
-627,722	66,160	-0,047	0,035
-626,707	-9,098	0,065	-0,032
-625,692	-200,000	-0,005	0,161
-624,678	292,451	0,015	0,020
-623,663	-108,013	-0,114	-0,018
-622,649	348,485	0,073	-0,106
-621,634	158,573	-0,093	-0,095
-620,619	53,160	-0,121	-0,085
-619,605	-200,000	0,010	0,111
-618,590	746,947	-0,016	-0,031
-617,576	-9,700	0,055	0,027
-616,561	-22,853	0,104	0,046
-615,546	15,773	-0,113	-0,065
-614,532	17,700	-0,137	-0,080
-613,517	-200,000	0,017	0,088
-612,503	27,500	0,056	0,034
-611,488	-200,000	0,033	0,205
-610,474	-98,767	-0,102	0,019
-609,459	212,506	-0,065	0,076
-608,444	-128,758	-0,062	-0,006
-607,430	483,887	0,099	-0,166
-606,415	-200,000	0,034	-0,145
-605,401	800,000	-0,035	-0,106
-604,386	-101,794	-0,091	-0,016
-603,371	147,993	0,055	0,055
-602,357	192,623	0,123	0,136
-601,342	-200,000	-0,037	-0,136
-600,328	-136,107	-0,039	0,003
-599,313	-53,910	-0,048	-0,016
-598,298	-200,000	0,020	-0,077
-597,284	-200,000	0,001	0,076
-596,269	-200,000	-0,012	-0,071
-595,255	318,944	-0,034	0,047
-594,240	-105,573	-0,105	0,017
-593,225	402,760	0,041	-0,063
-592,211	308,283	-0,040	0,055
-591,196	128,933	-0,081	0,076
-590,182	145,510	0,072	0,071
-589,167	-3,984	0,087	-0,044
-588,152	542,027	-0,078	-0,137
-587,138	800,000	-0,029	-0,062
-586,123	800,000	-0,028	-0,059
-585,109	-73,026	-0,062	-0,017
-584,094	-200,000	-0,010	-0,055
-583,079	78,985	0,075	-0,059
-582,065	-200,000	0,011	0,041
-581,050	-79,804	0,090	-0,022
-580,036	41,134	-0,072	-0,048
-579,021	354,703	0,048	0,070
-578,006	125,375	-0,055	0,051
-576,992	800,000	-0,065	-0,147
-575,977	77,171	0,054	-0,042
-574,963	151,329	0,063	0,063
-573,948	46,039	0,044	0,030
-572,934	18,827	0,046	-0,027
-571,919	95,394	-0,118	-0,098
-570,904	185,399	0,042	-0,046
-569,890	-68,764	0,075	-0,021
-568,875	-117,871	-0,038	0,005
-567,861	297,666	0,069	0,092
-566,846	800,000	-0,022	-0,051
-565,831	800,000	-0,007	-0,021
-564,817	800,000	-0,014	0,043
-563,802	55,846	-0,135	0,096
-562,788	96,721	-0,061	0,052
-561,773	86,422	-0,021	0,017
-560,758	52,626	-0,007	0,005
-559,744	-128,430	-0,147	0,015
-558,729	-178,004	-0,113	-0,002
-557,715	-75,449	0,071	0,018
-556,700	-200,000	0,024	0,098
-555,685	753,302	-0,007	0,014
-554,671	251,401	0,066	-0,083
-553,656	78,145	0,178	-0,139
-552,642	-16,607	-0,062	0,029
-551,627	109,302	-0,061	0,054
-550,612	-200,000	0,014	-0,093
-549,598	-41,531	-0,139	-0,052
-548,583	85,883	0,119	-0,096
-547,569	-108,920	-0,088	0,014
-546,554	800,000	-0,035	-0,098
-545,539	-200,000	-0,016	0,061
-544,525	-57,581	0,106	0,034
-543,510	800,000	0,038	0,095
-542,496	190,987	0,111	-0,122
-541,481	321,432	0,040	-0,056
-540,466	647,787	0,074	0,139
-539,452	759,473	0,046	0,092
-538,437	-61,652	0,090	0,027
-537,423	445,945	0,030	-0,048
-536,408	349,797	-0,077	-0,111
-535,393	-60,482	-0,183	0,057
-534,379	20,044	-0,023	0,013
-533,364	122,379	0,073	-0,067
-532,350	656,543	-0,031	0,059
-531,335	96,985	0,093	0,078
-530,321	-200,000	-0,001	0,056
-529,306	65,210	-0,028	0,021
-528,291	102,339	0,062	-0,053
-527,277	561,450	-0,026	-0,047
-526,262	259,470	0,014	0,018
-525,248	-122,700	0,058	-0,007
-524,233	-34,946	-0,069	0,027
-523,218	472,814	0,021	-0,035
-522,204	-16,543	-0,139	0,064
-521,189	-200,000	-0,001	-0,027
-520,175	16,448	-0,047	0,027
-519,160	338,871	0,050	0,072
-518,145	-144,938	-0,018	0,001
-517,131	-144,376	0,083	-0,006
-516,116	134,960	-0,046	-0,043
-515,102	-17,526	0,060	-0,027
-514,087	800,000	0,057	-0,140
-513,072	-200,000	-0,016	-0,053
-512,058	16,334	0,080	0,046
-511,043	800,000	-0,045	0,139
-510,029	800,000	-0,029	-0,068
-509,014	-73,221	0,132	0,035
-507,999	-64,502	-0,100	0,029
-506,985	-26,292	0,156	0,067
-505,970	546,300	-0,032	-0,057
-504,956	419,119	-0,069	-0,109
-503,941	-200,000	-0,006	-0,024
-502,926	800,000	-0,044	0,127
-501,912	-200,000	-0,008	0,089
-500,897	260,067	-0,068	0,085
-499,883	185,287	0,055	-0,060
-498,868	420,468	-0,004	0,007
-497,853	-200,000	-0,006	0,046
-496,839	134,981	0,097	-0,092
-495,824	-200,000	-0,015	0,121
-494,810	-200,000	0,011	0,149
-493,795	95,828	0,086	0,072
-492,781	44,539	-0,021	-0,014
-491,766	184,615	-0,043	0,046
-490,751	93,127	-0,073	-0,060
-489,737	-70,267	-0,058	0,016
-488,722	-50,040	0,119	0,041
-487,708	185,795	0,052	-0,056
-486,693	72,070	-0,054	0,041
-485,678	-80,140	-0,185	0,045
-484,664	89,336	-0,064	-0,052
-483,649	237,184	-0,034	0,041
-482,635	109,507	0,067	0,058
-481,620	-53,166	0,130	-0,043
-480,605	211,453	-0,121	-0,139
-479,591	-200,000	-0,007	-0,034
-478,576	-200,000	-0,014	0,063
-477,562	82,023	-0,061	0,048
-476,547	59,261	0,111	-0,079
-475,532	800,000	0,037	-0,116
-474,518	472,281	0,041	0,068
-473,503	-200,000	-0,011	0,124
-472,489	800,000	0,031	0,083
-471,474	-143,112	-0,098	-0,007
-470,459	-37,527	-0,047	0,018
-469,445	-200,000	0,003	-0,021
-468,430	216,384	0,069	-0,081
-467,416	800,000	-0,051	-0,106
-466,401	-30,026	0,149	0,062
-465,386	77,668	-0,020	0,016
-464,372	234,177	0,035	-0,043
-463,357	-71,513	0,125	0,034
-462,343	-200,000	0,023	-0,117
-461,328	-55,201	-0,086	0,028
-460,313	-125,388	-0,087	-0,010
-459,299	-150,859	0,088	0,005
-458,284	161,420	-0,054	-0,055
-457,270	197,581	-0,037	-0,042
-456,255	5,138	0,124	-0,066
-455,241	-200,000	0,003	-0,029
-454,226	800,000	-0,060	-0,125
-453,211	-200,000	-0,010	-0,037
-452,197	528,372	-0,069	0,119
-451,182	-200,000	0,010	0,104
-450,168	238,405	0,048	0,058
-449,153	44,961	-0,068	-0,045
-448,138	417,906	-0,065	-0,102
-447,124	800,000	0,025	0,071
-446,109	-40,140	-0,032	0,012
-445,095	-200,000	0,017	0,110
-444,080	145,157	0,066	0,064
-443,065	370,468	0,041	0,061
-442,051	74,312	-0,074	0,056
-441,036	-136,653	0,164	-0,014
-440,022	800,000	0,009	0,029
-439,007	-67,793	-0,030	-0,009
-437,992	-101,418	0,016	0,003
-436,978	-200,000	0,004	0,034
-435,963	-200,000	0,002	0,226
-434,949	-150,085	0,150	0,008
-433,934	-78,003	-0,076	-0,019
-432,919	-94,422	0,048	0,010
-431,905	161,605	0,032	0,033
-430,890	37,126	0,132	0,085
-429,876	594,876	-0,044	-0,079
-428,861	800,000	-0,060	0,153
-427,846	-124,233	-0,027	0,003
-426,832	-200,000	0,021	-0,089
-425,817	157,785	0,043	-0,043
-424,803	6,930	-0,052	0,028
-423,788	-200,000	-0,021	-0,125
-422,773	-200,000	-0,001	0,037
-421,759	-87,911	0,150	0,032
-420,744	-200,000	-0,004	-0,089
-419,730	27,587	0,015	0,009
-418,715	800,000	0,060	-0,136
-417,701	-1,866	-0,087	-0,044
-416,686	800,000	0,021	0,044
-415,671	126,476	-0,052	0,048
-414,657	-200,000	-0,015	0,108
-413,642	91,950	-0,011	0,009
-412,628	409,768	0,022	-0,034
-411,613	-10,358	0,031	-0,015
-410,598	752,531	0,022	0,043
-409,584	-200,000	0,001	-0,031
-408,569	-30,726	-0,060	0,025
-407,555	800,000	0,025	-0,056
-406,540	772,519	0,017	0,033
-405,525	151,690	-0,051	-0,050
-404,511	-200,000	-0,026	0,105
-403,496	-200,000	-0,011	-0,056
-402,482	-137,544	-0,111	-0,009
-401,467	54,385	0,045	-0,031
-400,452	-200,000	0,015	0,098
-399,438	800,000	0,041	-0,093
-398,423	196,633	-0,057	-0,063
-397,409	-18,995	0,066	0,030
-396,394	-50,879	-0,035	-0,012
-395,379	-200,000	0,000	0,001
-394,365	-128,904	0,079	-0,008
-393,350	-25,562	-0,014	-0,006
-392,336	14,980	0,112	-0,063
-391,321	-90,283	0,063	-0,013
-390,306	-200,000	0,000	-0,040
-389,292	-65,281	-0,031	-0,009
-388,277	-200,000	-0,017	0,115
-387,263	-66,646	-0,081	-0,023
-386,248	-144,932	-0,104	0,007
-385,233	337,897	-0,017	0,025
-384,219	1,497	-0,028	0,014
-383,204	12,169	0,094	0,052
-382,190	-200,000	0,019	-0,177
-381,175	-63,231	0,150	0,045
-380,160	11,951	-0,184	0,102
-379,146	-86,945	0,064	0,014
-378,131	140,463	0,101	-0,097
-377,117	11,596	-0,144	-0,080
-376,102	708,908	-0,035	-0,068
-375,088	117,562	-0,135	-0,121
-374,073	-200,000	-0,023	-0,081
-373,058	-200,000	0,022	0,078
-372,044	-74,098	0,028	-0,007
-371,029	-200,000	0,005	0,156
-370,015	114,749	-0,089	0,079
-369,000	-18,843	-0,079	0,036
-367,985	-133,105	-0,075	0,007
-366,971	800,000	0,053	-0,108
-365,956	-112,333	0,065	0,009
-364,942	800,000	0,002	0,006
-363,927	85,040	-0,036	-0,028
-362,912	-78,904	-0,034	-0,008
-361,898	-128,341	0,019	0,002
-360,883	8,462	-0,065	-0,035
-359,869	-200,000	0,024	0,125
-358,854	402,673	0,083	-0,127
-357,839	201,423	0,106	-0,118
-356,825	78,118	-0,045	0,035
-355,810	538,129	-0,032	-0,056
-354,796	-35,508	0,119	-0,047
-353,781	-200,000	-0,002	0,056
-352,766	-89,669	0,170	0,036
-351,752	334,377	-0,101	-0,143
-350,737	-200,000	0,052	0,000
-349,723	800,000	-0,032	-0,072
-348,708	-200,000	0,029	0,140
-347,693	800,000	0,009	-0,019
-346,679	-143,353	-0,124	0,008
-345,664	-200,000	-0,015	0,101
-344,650	62,190	-0,137	0,099
-343,635	197,179	0,060	0,067
-342,620	648,631	0,024	0,044
-341,606	628,974	-0,047	0,086
-340,591	10,302	0,058	-0,032
-339,577	464,540	-0,086	0,139
-338,562	27,786	0,050	0,031
-337,548	-200,000	-0,004	0,057
-336,533	-200,000	0,004	0,073
-335,518	-38,338	-0,038	0,014
-334,504	-200,000	-0,022	0,186
-333,489	38,674	-0,089	0,058
-332,475	-200,000	0,017	-0,103
-331,460	13,382	-0,030	-0,017
-330,445	128,763	-0,059	-0,054
-329,431	-10,115	0,071	0,034
-328,416	-136,159	0,152	0,013
-327,402	800,000	0,034	-0,086
-326,387	58,849	0,097	0,069
-325,372	-200,000	-0,012	0,074
-324,358	-126,833	-0,104	0,011
-323,343	800,000	0,046	-0,102
-322,329	-151,742	0,032	0,002
-321,314	139,058	0,073	0,070
-320,299	236,890	0,034	-0,041
-319,285	-81,447	0,039	-0,009
-318,270	-200,000	0,005	0,023
-317,256	-147,223	0,022	0,001
-316,241	-81,377	-0,099	0,023
-315,226	-43,029	0,058	-0,021
-314,212	-200,000	0,037	0,149
-313,197	-57,178	0,107	-0,034
-312,183	-200,000	0,029	-0,097
-311,168	-200,000	-0,034	-0,168
-310,153	800,000	-0,017	-0,044
-309,139	-200,000	0,018	-0,066
-308,124	359,071	0,036	0,053
-307,110	800,000	0,034	0,106
-306,095	800,000	0,040	0,125
-305,080	800,000	0,031	-0,079
-304,066	481,393	-0,032	-0,053
-303,051	608,950	0,046	0,083
-302,037	194,919	-0,100	0,110
-301,022	417,097	-0,114	0,176
-300,008	462,919	0,085	0,137
-298,993	593,014	0,073	0,130
-297,978	16,484	-0,086	-0,049
-296,964	-177,601	-0,137	-0,002
-295,949	492,198	-0,016	0,027
-294,935	97,484	-0,062	0,051
-293,920	437,526	0,092	0,145
-292,905	87,878	0,142	-0,114
-291,891	440,957	0,052	-0,083
-290,876	145,234	-0,075	0,073
-289,862	-12,479	-0,075	-0,036
-288,847	-9,837	0,076	-0,036
-287,832	351,278	-0,018	-0,026
-286,818	-200,000	0,005	0,128
-285,803	-25,165	-0,035	0,015
-284,789	-55,394	-0,048	0,016
-283,774	-200,000	-0,002	0,091
-282,759	800,000	0,012	-0,029
-281,745	-2,875	-0,060	-0,030
-280,730	251,980	-0,037	0,046
-279,716	-130,487	0,100	0,010
-278,701	32,143	0,041	-0,025
-277,686	-133,183	-0,032	-0,003
-276,672	211,981	0,004	0,005
-275,657	-43,770	0,088	-0,032
-274,643	728,963	-0,048	-0,093
-273,628	275,546	-0,103	-0,133
-272,613	-102,548	-0,191	-0,033
-271,599	-135,941	0,047	0,004
-270,584	800,000	-0,083	-0,198
-269,570	800,000	0,082	-0,181
-268,555	800,000	-0,038	-0,082
-267,540	-200,000	0,021	-0,112
-266,526	-200,000	-0,005	-0,072
-265,511	-200,000	-0,031	-0,114
-264,497	-0,222	0,129	0,066
-263,482	117,216	0,036	0,032
-262,467	-200,000	0,003	-0,027
-261,453	-54,720	0,115	0,037
-260,438	-200,000	-0,004	0,031
-259,424	272,880	-0,055	-0,071
-258,409	591,544	0,037	-0,066
-257,395	-200,000	0,016	-0,174
-256,380	-200,000	0,016	-0,106
-255,365	-155,731	-0,042	0,002
-254,351	96,784	-0,035	0,029
-253,336	-9,441	0,066	0,032
-252,322	800,000	-0,017	-0,053
-251,307	800,000	0,047	0,099
-250,292	305,400	-0,082	-0,111
-249,278	76,675	0,149	0,114
-248,263	106,070	0,101	0,086
-247,249	800,000	-0,025	0,054
-246,234	250,919	-0,038	0,046
-245,219	-200,000	0,002	0,011
-244,205	-200,000	-0,007	-0,035
-243,190	82,859	-0,086	-0,068
-242,176	-123,267	0,198	-0,023
-241,161	-200,000	-0,024	-0,092
-240,146	88,300	-0,068	-0,054
-239,132	608,871	-0,033	0,059
-238,117	-62,347	0,030	-0,009
-237,103	-44,201	0,065	-0,024
-236,088	-200,000	0,038	0,190
-235,073	133,234	0,102	-0,095
-234,059	257,994	0,064	0,080
-233,044	-87,373	-0,093	0,020
-232,030	800,000	-0,017	-0,054
-231,015	800,000	0,040	0,100
-230,000	-83,159	-0,170	-0,039
-228,986	800,000	-0,005	-0,014
-227,971	-117,708	0,093	0,012
-226,957	557,320	0,045	0,079
-225,942	-82,071	0,064	-0,015
-224,927	800,000	0,027	-0,072
-223,913	-200,000	-0,039	0,144
-222,898	64,269	0,061	0,044
-221,884	-200,000	0,005	0,046
-220,869	-200,000	-0,021	-0,141
-219,855	-200,000	0,004	0,040
-218,840	351,205	0,053	0,075
-217,825	-200,000	-0,008	-0,066
-216,811	-52,106	-0,029	-0,010
-215,796	677,360	0,056	-0,106
-214,782	615,836	-0,071	-0,130
-213,767	637,219	-0,025	-0,046
-212,752	-200,000	0,056	0,199
-211,738	-48,657	-0,029	-0,010
-210,723	84,050	-0,114	-0,090
-209,709	140,616	0,058	-0,055
-208,694	601,023	-0,039	0,070
-207,679	800,000	0,014	-0,030
-206,665	9,307	-0,048	0,026
-205,650	788,079	-0,030	0,060
-204,636	-95,277	-0,015	-0,003
-203,621	-200,000	-0,005	0,044
-202,606	-200,000	0,014	0,069
-201,592	-200,000	-0,016	0,054
-200,577	-183,610	-0,039	-0,000
-199,563	-200,000	0,022	0,089
-198,548	750,165	-0,027	-0,053
-197,533	147,977	0,145	0,141
-196,519	-26,058	-0,165	0,070
-195,504	-69,976	0,110	-0,030
-194,490	-59,604	-0,113	-0,035
-193,475	800,000	-0,047	-0,128
-192,460	2,055	-0,058	-0,030
-191,446	-200,000	0,017	0,085
-190,431	-6,136	-0,069	-0,034
-189,417	-105,116	-0,072	0,012
-188,402	-200,000	0,014	0,120
-187,387	-200,000	0,003	-0,147
-186,373	-200,000	-0,023	-0,131
-185,358	268,874	-0,038	0,048
-184,344	-64,914	0,141	0,041
-183,329	37,383	-0,062	-0,039
-182,315	-5,048	-0,131	0,065
-181,300	-0,297	-0,051	-0,026
-180,285	-200,000	0,013	-0,053
-179,271	-200,000	0,010	-0,132
-178,256	800,000	0,033	-0,095
-177,242	19,864	-0,089	-0,051
-176,227	-72,168	0,031	0,008
-175,212	347,986	0,039	-0,055
-174,198	800,000	0,061	-0,138
-173,183	-200,000	-0,006	-0,076
-172,169	39,637	0,074	-0,048
-171,154	533,983	-0,062	-0,106
-170,139	-40,235	-0,081	0,030
-169,125	282,457	0,115	-0,149
-168,110	-200,000	-0,009	0,105
-167,096	-200,000	-0,009	0,148
-166,081	258,168	0,026	0,032
-165,066	-200,000	0,022	-0,122
-164,052	-29,025	0,047	-0,019
-163,037	-200,000	0,021	-0,068
-162,023	-3,937	0,027	-0,013
-161,008	-64,934	0,085	-0,025
-159,993	236,504	0,014	-0,016
-158,979	36,299	0,061	0,039
-157,964	-169,260	0,105	-0,003
-156,950	60,050	0,056	-0,040
-155,935	50,258	-0,106	-0,072
-154,920	-200,000	-0,026	0,184
-153,906	42,780	-0,079	0,052
-152,891	800,000	0,017	0,049
-151,877	-57,002	0,117	0,037
-150,862	-200,000	-0,020	-0,072
-149,847	-78,094	0,103	0,025
-148,833	-148,117	0,079	-0,005
-147,818	-165,688	0,020	0,001
-146,804	-91,304	-0,117	-0,024
-145,789	800,000	0,039	-0,098
-144,775	800,000	0,031	0,097
-143,760	-200,000	-0,042	-0,161
-142,745	295,868	-0,038	-0,050
-141,731	-103,954	0,153	0,025
-140,716	-79,653	-0,032	-0,008
-139,702	-200,000	-0,001	-0,004
-138,687	-47,354	0,050	-0,017
-137,672	-200,000	0,000	-0,051
-136,658	-200,000	-0,038	-0,127
-135,643	215,762	-0,079	-0,091
-134,629	-4,676	-0,012	0,006
-133,614	-200,000	0,018	0,064
-132,599	41,499	0,091	-0,059
-131,585	339,205	0,024	0,034
-130,570	-35,534	0,049	0,019
-129,556	-92,876	-0,068	-0,014
-128,541	130,404	-0,044	-0,040
-127,526	136,832	0,020	-0,019
-126,512	-12,866	0,062	0,029
-125,497	-200,000	0,021	-0,089
-124,483	66,398	0,014	0,010
-123,468	5,934	-0,088	-0,047
-122,453	153,702	0,020	0,020
-121,439	800,000	0,002	-0,005
-120,424	-200,000	-0,002	-0,032
-119,410	147,531	0,089	0,086
-118,395	-67,901	0,120	0,033
-117,380	291,080	-0,058	-0,076
-116,366	-151,528	0,169	-0,009
-115,351	98,687	-0,086	-0,071
-114,337	-200,000	-0,002	-0,011
-113,322	-6,925	-0,082	0,040
-112,307	-43,811	-0,108	-0,039
-111,293	-79,637	0,211	-0,051
-110,278	357,231	-0,067	0,096
-109,264	9,487	0,084	0,046
-108,249	-200,000	-0,005	-0,067
-107,234	22,283	0,114	-0,067
-106,220	499,435	0,064	-0,106
-105,205	-200,000	-0,016	0,160
-104,191	800,000	0,037	0,083
-103,176	26,686	-0,094	0,056
-102,162	-124,530	-0,116	0,013
-101,147	55,048	-0,035	0,025
-100,132	-174,743	0,039	0,001
-99,118	800,000	0,046	0,102
-98,103	107,321	-0,030	0,025
-97,089	-130,353	0,127	0,012
-96,074	-200,000	-0,010	0,149
-95,059	169,975	0,006	-0,006
-94,045	-10,042	-0,102	-0,048
-93,030	-200,000	-0,025	0,129
-92,016	-200,000	0,002	-0,086
-91,001	800,000	-0,044	-0,099
-89,986	37,433	-0,054	0,034
-88,972	-200,000	-0,017	-0,080
-87,957	232,198	0,061	0,072
-86,943	-2,573	0,044	-0,022
-85,928	-200,000	-0,033	-0,111
-84,913	-99,424	0,050	-0,009
-83,899	351,234	0,046	0,066
-82,884	209,231	0,067	-0,076
-81,870	-200,000	0,006	-0,102
-80,855	38,222	0,152	-0,097
-79,840	570,871	0,031	-0,055
-78,826	136,107	-0,059	0,055
-77,811	244,215	0,102	-0,124
-76,797	800,000	-0,014	-0,034
-75,782	-200,000	0,025	-0,080
-74,767	800,000	0,064	0,166
-73,753	-146,543	-0,082	-0,005
-72,738	-102,346	0,068	-0,012
-71,724	48,854	-0,077	0,052
-70,709	800,000	0,046	0,110
-69,694	-122,306	0,054	-0,006
-68,680	-200,000	0,020	0,153
-67,665	88,821	0,156	0,125
-66,651	260,923	-0,049	0,061
-65,636	645,614	0,068	0,125
-64,622	-67,854	0,056	0,016
-63,607	-105,846	0,087	-0,014
-62,592	-62,562	-0,065	0,019
-61,578	163,897	0,050	-0,051
-60,563	187,044	0,085	0,091
-59,549	-200,000	-0,006	0,071
-58,534	93,036	-2,647	-2,146
-57,519	-77,457	0,485	-0,120
-56,505	-200,000	-1,671	-5,569
-55,490	476,297	1,319	2,146
-54,476	800,000	5,021	11,180
-53,461	-200,000	22,495	348,013
-52,446	800,000	763,054	2280,235
-51,432	505,363	1645,650	2745,133
-50,417	95,102	1605,627	1311,025
-49,403	63,385	1262,655	907,298
-48,388	22,226	1014,755	592,985
-47,373	19,053	982,235	563,521
-46,359	12,431	969,324	534,495
-45,344	8,249	966,007	518,984
-44,330	8,618	963,901	519,038
-43,315	7,651	962,431	515,073
-42,300	7,575	961,203	514,147
-41,286	7,549	960,099	513,451
-40,271	7,558	959,140	512,948
-39,257	7,562	958,261	512,472
-38,242	7,551	957,346	511,924
-37,227	7,511	956,610	511,383
-36,213	7,570	955,722	511,078
-35,198	7,533	954,753	510,422
-34,184	7,568	954,145	510,188
-33,169	7,501	953,366	509,536
-32,154	7,577	952,474	509,282
-31,140	7,614	951,405	508,809
-30,125	7,635	950,636	508,445
-29,111	7,549	950,071	507,847
-28,096	7,564	949,357	507,493
-27,082	7,576	948,763	507,194
-26,067	7,547	947,910	506,627
-25,052	7,537	947,034	506,105
-24,038	7,526	946,449	505,739
-23,023	7,485	945,904	505,296
-22,009	7,545	945,134	505,054
-20,994	7,549	944,629	504,777
-19,979	7,575	943,911	504,457
-18,965	7,475	943,265	503,772
-17,950	7,498	942,860	503,612
-16,936	7,428	942,129	502,978
-15,921	7,496	941,420	502,796
-14,906	7,434	940,624	502,152
-13,892	7,423	940,184	501,863
-12,877	7,411	939,388	501,381
-11,863	7,349	938,835	500,867
-10,848	7,415	938,229	500,735
-9,833	7,488	937,941	500,791
-8,819	7,515	937,149	500,434
-7,804	7,404	936,716	499,832
-6,790	7,398	935,962	499,392
-5,775	7,444	935,625	499,338
-4,760	7,463	934,989	499,039
-3,746	7,444	934,390	498,639
-2,731	7,297	933,435	497,645
-1,717	7,256	932,876	497,195
-0,702	7,242	932,215	496,781
0,313	7,130	931,429	496,760
1,327	10,501	929,096	506,068
2,342	19,277	777,046	446,164
3,356	14,589	446,069	249,076
4,371	-11,415	311,290	146,286
5,386	-15,026	293,790	134,414
6,400	-17,027	287,761	129,670
7,415	-17,345	284,963	128,087
8,429	-18,387	283,228	126,284
9,444	-18,355	282,263	125,874
10,459	-18,417	281,670	125,538
11,473	-18,460	280,980	125,178
12,488	-18,261	280,456	125,125
13,502	-18,375	280,126	124,856
14,517	-18,250	279,458	124,668
15,531	-18,423	279,114	124,337
16,546	-18,377	278,760	124,213
17,561	-18,225	278,123	124,063
18,575	-18,360	277,986	123,862
19,590	-18,250	277,396	123,692
20,604	-18,345	277,165	123,489
21,619	-18,434	276,918	123,283
22,634	-18,510	276,635	123,074
23,648	-18,294	276,319	123,127
24,663	-18,225	275,978	123,029
25,677	-18,393	275,778	122,770
26,692	-18,402	275,508	122,630
27,707	-18,314	275,073	122,509
28,721	-18,468	274,986	122,314
29,736	-18,394	274,650	122,223
30,750	-18,494	274,370	121,994
31,765	-18,425	274,109	121,932
32,780	-18,383	273,765	121,807
33,794	-18,155	273,601	121,938
34,809	-18,500	273,414	121,520
35,823	-18,348	273,089	121,507
36,838	-18,345	272,862	121,398
37,853	-18,582	272,717	121,102
38,867	-18,564	272,288	120,917
39,882	-18,258	272,037	121,079
40,896	-18,324	271,825	120,913
41,911	-18,354	271,454	120,709
42,926	-18,354	271,382	120,666
43,940	-18,339	271,083	120,537
44,955	-18,529	270,838	120,241
45,969	-18,521	270,745	120,196
46,984	-18,239	270,422	120,303
47,999	-18,616	270,436	119,949
49,013	-18,235	270,005	120,100
50,028	-18,439	269,872	119,842
51,042	-18,317	269,605	119,825
52,057	-18,328	269,304	119,670
53,071	-18,529	269,209	119,433
54,086	-18,426	268,964	119,407
55,101	-18,238	268,648	119,430
56,115	-18,317	268,408	119,239
57,130	-18,204	268,304	119,287
58,144	-18,399	268,038	118,979
59,159	-18,422	267,677	118,787
60,174	-18,385	267,556	118,757
61,188	-18,210	267,339	118,810
62,203	-18,350	267,123	118,575
63,217	-18,354	267,003	118,508
64,232	-18,335	266,697	118,379
65,247	-18,363	266,436	118,226
66,261	-18,254	266,205	118,213
67,276	-18,468	265,954	117,896
68,290	-18,280	265,741	117,961
69,305	-18,291	265,660	117,905
70,320	-18,191	265,341	117,843
71,334	-18,109	264,966	117,740
72,349	-18,303	264,742	117,455
73,363	-18,343	264,688	117,385
74,378	-18,272	264,272	117,254
75,393	-18,134	264,022	117,257
76,407	-18,264	263,930	117,089
77,422	-18,269	263,719	116,980
78,436	-18,257	263,397	116,838
79,451	-18,244	263,182	116,743
80,466	-18,392	262,951	116,498
81,480	-18,414	262,777	116,391
82,495	-18,375	262,486	116,286
83,509	-18,360	262,418	116,260
84,524	-18,335	262,185	116,168
85,539	-18,265	262,091	116,178
86,553	-18,395	261,916	115,974
87,568	-18,370	261,524	115,813
88,582	-18,444	261,348	115,659
89,597	-18,449	261,184	115,571
90,611	-18,330	261,026	115,598
91,626	-18,424	260,818	115,412
92,641	-18,199	260,409	115,419
93,655	-18,360	260,344	115,238
94,670	-18,374	260,270	115,182
95,684	-18,092	259,690	115,165
96,699	-18,277	259,655	114,975
97,714	-18,200	259,395	114,918
98,728	-18,302	259,471	114,851
99,743	-18,441	259,202	114,600
100,757	-18,277	258,936	114,616
101,772	-18,208	258,678	114,552
102,787	-18,546	258,349	114,100
103,801	-18,149	258,385	114,454
104,816	-18,270	258,111	114,217
105,830	-18,216	257,911	114,165
106,845	-18,067	257,658	114,174
107,860	-18,189	257,414	113,948
108,874	-18,273	257,284	113,806
109,889	-18,359	257,035	113,611
110,903	-18,289	256,642	113,489
111,918	-18,426	256,809	113,433
112,933	-18,186	256,374	113,439
113,947	-18,230	256,308	113,362
114,962	-18,034	255,959	113,368
115,976	-18,280	256,028	113,175
116,991	-18,425	255,799	112,937
118,006	-18,120	255,537	113,076
119,020	-18,241	255,245	112,832
120,035	-18,294	255,186	112,750
121,049	-18,175	254,972	112,749
122,064	-18,427	254,878	112,479
123,079	-18,170	254,542	112,543
124,093	-18,245	254,255	112,341
125,108	-18,252	254,181	112,292
126,122	-18,298	253,930	112,132
127,137	-18,268	253,789	112,085
128,151	-18,166	253,637	112,096
129,166	-18,193	253,453	111,981
130,181	-18,153	253,219	111,902
131,195	-18,332	252,945	111,617
132,210	-18,170	252,803	111,684
133,224	-18,191	252,668	111,596
134,239	-18,057	252,409	111,587
135,254	-18,130	252,215	111,428
136,268	-18,044	251,902	111,354
137,283	-18,250	251,695	111,076
138,297	-18,016	251,566	111,209
139,312	-18,241	251,358	110,916
140,327	-18,294	251,190	110,787
141,341	-18,237	250,936	110,713
142,356	-18,286	250,924	110,656
143,370	-18,085	250,636	110,690
144,385	-18,215	250,485	110,504
145,400	-18,208	250,233	110,388
146,414	-17,977	250,048	110,492
147,429	-18,010	249,875	110,378
148,443	-18,128	249,616	110,154
149,458	-18,170	249,615	110,108
150,473	-17,882	249,141	110,132
151,487	-17,985	249,177	110,051
152,502	-18,195	248,909	109,746
153,516	-18,055	248,668	109,748
154,531	-18,092	248,586	109,671
155,546	-18,119	248,378	109,547
156,560	-17,893	248,129	109,617
157,575	-18,110	248,031	109,382
158,589	-18,183	247,731	109,179
159,604	-17,999	247,603	109,267
160,619	-18,203	247,453	109,020
161,633	-18,012	247,183	109,051
162,648	-18,167	247,102	108,876
163,662	-17,934	246,843	108,947
164,677	-18,162	246,826	108,739
165,692	-18,011	246,670	108,787
166,706	-17,899	246,412	108,757
167,721	-18,272	246,432	108,445
168,735	-18,020	246,209	108,546
169,750	-18,241	246,022	108,271
170,764	-18,095	245,820	108,293
171,779	-18,201	245,684	108,136
172,794	-17,969	245,375	108,183
173,808	-18,089	245,322	108,050
174,823	-18,248	245,187	107,849
175,837	-17,974	244,946	107,961
176,852	-18,110	244,794	107,771
177,867	-18,048	244,594	107,725
178,881	-18,034	244,549	107,708
179,896	-17,935	244,090	107,577
180,910	-18,166	244,013	107,343
181,925	-18,098	243,776	107,285
182,940	-18,291	243,886	107,165
183,954	-18,196	243,554	107,088
184,969	-18,109	243,536	107,142
185,983	-18,111	243,254	107,006
186,998	-18,240	243,066	106,809
188,013	-17,996	242,890	106,922
189,027	-17,900	242,682	106,899
190,042	-18,101	242,646	106,709
191,056	-18,017	242,367	106,646
192,071	-17,954	242,080	106,561
193,086	-17,960	241,898	106,467
194,100	-18,157	241,976	106,331
195,115	-17,896	241,668	106,399
196,129	-17,991	241,427	106,206
197,144	-17,972	241,242	106,131
198,159	-17,961	241,123	106,078
199,173	-18,149	240,833	105,788
200,188	-18,166	240,685	105,700
201,202	-17,930	240,435	105,772
202,217	-18,018	240,234	105,603
203,232	-17,888	240,095	105,638
204,246	-18,077	239,998	105,432
205,261	-17,628	239,981	105,779
206,275	-16,013	240,425	107,274
207,290	-10,484	242,390	112,651
208,304	-4,852	244,197	118,099
209,319	-2,799	244,504	119,920
210,334	-2,173	244,581	120,459
211,348	-1,326	244,735	121,218
212,363	-0,803	244,781	121,659
213,377	-0,407	244,737	121,950
214,392	0,232	244,849	122,518
215,407	0,621	244,872	122,836
216,421	0,773	244,642	122,835
217,436	0,921	244,534	122,890
218,450	0,818	244,499	122,778
219,465	1,017	244,086	122,721
220,480	0,832	244,105	122,569
221,494	0,833	243,902	122,457
222,509	0,311	243,756	121,948
223,523	0,368	243,547	121,879
224,538	0,249	243,298	121,647
225,553	0,316	243,185	121,634
226,567	0,195	242,910	121,387
227,582	0,227	242,915	121,405
228,596	0,200	242,699	121,264
229,611	0,406	242,428	121,285
230,626	0,254	242,363	121,119
231,640	0,276	242,154	121,022
232,655	0,268	241,957	120,905
233,669	-0,017	242,021	120,697
234,684	0,063	241,680	120,581
235,699	0,290	241,426	120,625
236,713	0,235	241,412	120,563
237,728	0,340	241,258	120,560
238,742	0,387	241,018	120,467
239,757	0,289	240,755	120,247
240,772	0,102	240,654	120,035
241,786	0,270	240,584	120,124
242,801	0,187	240,428	119,969
243,815	0,160	240,320	119,883
244,830	0,167	240,047	119,742
245,844	0,463	239,857	119,873
246,859	0,291	239,729	119,661
247,874	0,327	239,541	119,585
248,888	0,240	239,340	119,405
249,903	0,330	239,277	119,434
250,917	0,088	239,280	119,232
251,932	0,499	238,981	119,400
252,947	0,359	238,969	119,272
253,961	0,186	238,779	119,029
254,976	0,213	238,407	118,854
255,990	0,336	238,360	118,918
257,005	0,064	238,288	118,655
258,020	0,089	238,129	118,586
259,034	0,202	237,911	118,556
260,049	0,382	237,867	118,666
261,063	0,213	237,584	118,381
262,078	0,307	237,362	118,333
263,093	-0,030	237,330	118,041
264,107	0,317	237,113	118,197
265,122	0,059	237,174	118,013
266,136	0,285	236,822	118,005
267,151	0,196	236,740	117,883
268,166	0,280	236,547	117,843
269,180	0,349	236,278	117,753
270,195	0,196	236,243	117,604
271,209	0,381	235,951	117,594
272,224	0,319	235,990	117,554
273,239	0,275	235,710	117,370
274,253	0,100	235,605	117,170
275,268	0,218	235,361	117,130
276,282	0,400	235,176	117,170
277,297	0,239	235,029	116,961
278,312	0,356	235,058	117,056
279,326	0,247	234,842	116,853
280,341	0,419	234,798	116,955
281,355	0,450	234,520	116,831
282,370	0,387	234,396	116,709
283,384	0,306	234,173	116,524
284,399	0,218	234,137	116,428
285,414	0,323	233,985	116,424
286,428	0,503	233,759	116,440
287,443	0,354	233,553	116,211
288,457	0,358	233,506	116,181
289,472	0,295	233,438	116,087
290,487	0,416	233,146	116,027
291,501	0,465	233,011	115,986
292,516	0,293	232,907	115,791
293,530	0,453	232,859	115,881
294,545	0,543	232,568	115,795
295,560	0,575	232,511	115,781
296,574	0,395	232,286	115,520
297,589	0,100	232,219	115,249
298,603	0,226	232,137	115,295
299,618	0,320	231,898	115,238
300,633	0,649	231,827	115,445
301,647	0,586	231,600	115,274
302,662	0,621	231,564	115,272
303,676	0,552	231,259	115,058
304,691	0,650	231,222	115,104
305,706	0,522	231,053	114,912
306,720	0,701	230,917	114,971
307,735	0,656	230,675	114,805
308,749	0,728	230,597	114,812
309,764	0,477	230,517	114,570
310,779	0,465	230,392	114,489
311,793	0,807	230,127	114,607
312,808	0,336	230,095	114,223
313,822	0,618	229,683	114,222
314,837	0,620	229,677	114,211
315,852	0,472	229,595	114,047
316,866	0,689	229,482	114,145
317,881	0,552	229,370	113,975
318,895	0,721	229,193	114,006
319,910	0,447	228,984	113,684
320,925	0,369	228,836	113,541
321,939	0,463	228,780	113,575
322,954	0,477	228,723	113,547
323,968	0,650	228,480	113,546
324,983	0,407	228,373	113,300
325,997	0,639	227,976	113,267
327,012	0,663	227,934	113,255
328,027	0,445	227,883	113,056
329,041	0,819	227,727	113,249
330,056	0,852	227,553	113,178
331,070	0,733	227,350	112,977
332,085	0,812	227,172	112,938
333,100	0,588	227,162	112,755
334,114	0,618	227,036	112,704
335,129	0,756	226,664	112,613
336,143	0,599	226,508	112,408
337,158	0,753	226,514	112,516
338,173	0,897	226,486	112,600
339,187	0,656	226,313	112,323
340,202	0,667	226,130	112,231
341,216	1,031	225,844	112,351
342,231	0,657	225,818	112,049
343,246	0,683	225,689	111,995
344,260	0,797	225,510	111,980
345,275	0,846	225,529	112,016
346,289	0,919	225,202	111,899
347,304	1,026	225,087	111,910
348,319	0,671	225,051	111,619
349,333	0,862	224,839	111,646
350,348	0,966	224,546	111,567
351,362	0,823	224,577	111,466
352,377	1,066	224,334	111,516
353,392	0,843	224,382	111,364
354,406	0,752	224,290	111,242
355,421	190,923	1312,885	1374,031
356,435	152,839	1445,356	1373,856
