DTS Sentinel unit serial number:	SN410029Multiplexer serial number:	ORYXHardware model number:	OX2-SRSoftware version number:	ORYX F/W v4,00 Oryx Data Collector v3.7.2.0data status	okinstallation	B5 Nyhavnadifferential loss correction	single-endedforward channel	channel 2reverse channel	N/Adate	2023/12/13time	18:47:13forward acquisition time	300,00reverse acquisition time	0,00gamma	499,1914k internal	0,3160k external	0,3160temperature offset calibration	1,0000default loss term (dB/km)	0,3820temperature slope calibration	1,0000multiplexer offset coefficient	1,0000multiplexer slope coefficient	1,0000fibre end	0,00T internal ref (°C)	12,40T ext. ref 1 (°C)	-4,78T ext. ref 2 (°C)	-4,83length (m)	temperature (°C)	Stokes	anti-Stokes-744,400	-63,642	0,224	0,067
-743,385	-61,550	-0,230	-0,071
-742,371	333,850	0,117	0,168
-741,356	-128,220	-0,298	0,031
-740,342	188,839	0,066	0,073
-739,327	-111,231	-0,334	-0,050
-738,312	-159,062	0,301	0,012
-737,298	-95,627	-0,357	-0,070
-736,283	-102,581	0,223	0,039
-735,269	-130,876	-0,326	-0,032
-734,254	654,973	0,025	0,047
-733,239	-10,111	-0,471	-0,230
-732,225	-85,182	0,322	0,074
-731,210	9,550	-0,016	0,009
-730,196	-26,580	-0,086	0,037
-729,181	-200,000	0,000	-0,083
-728,167	128,584	0,020	0,019
-727,152	-200,000	0,010	0,042
-726,137	-112,680	-0,107	0,015
-725,123	-2,299	0,027	-0,014
-724,108	-200,000	-0,012	-0,053
-723,094	33,429	-0,128	-0,082
-722,079	17,192	0,088	0,051
-721,064	-200,000	0,003	0,101
-720,050	512,141	0,021	0,036
-719,035	-200,000	-0,001	-0,068
-718,021	800,000	-0,037	-0,095
-717,006	431,926	-0,035	0,055
-715,991	-71,222	-0,079	0,022
-714,977	360,400	0,023	-0,034
-713,962	800,000	0,012	-0,036
-712,948	8,116	0,084	-0,046
-711,933	-200,000	-0,022	0,144
-710,918	5,814	-0,200	-0,108
-709,904	-200,000	-0,000	-0,226
-708,889	-8,172	-0,077	-0,038
-707,875	-172,639	-0,105	0,002
-706,860	-200,000	0,015	0,094
-705,845	113,343	0,112	-0,100
-704,831	-80,119	0,060	-0,015
-703,816	-24,185	0,042	-0,018
-702,802	-102,057	0,098	0,017
-701,787	88,783	0,059	-0,048
-700,772	-0,520	-0,135	-0,070
-699,758	-200,000	-0,011	-0,141
-698,743	54,679	0,034	0,024
-697,729	-200,000	-0,040	0,158
-696,714	16,262	0,058	0,034
-695,699	-38,741	-0,054	-0,021
-694,685	141,392	-0,026	-0,025
-693,670	-171,037	-0,106	-0,003
-692,656	-200,000	0,015	0,112
-691,641	-131,089	0,073	0,007
-690,627	-35,376	-0,043	-0,017
-689,612	235,033	0,113	0,138
-688,597	-96,869	-0,030	0,006
-687,583	75,641	0,157	-0,122
-686,568	393,584	-0,077	-0,118
-685,554	-88,648	0,132	-0,029
-684,539	-146,937	-0,023	-0,001
-683,524	507,351	-0,027	-0,047
-682,510	-1,528	0,023	0,012
-681,495	-86,571	-0,057	-0,013
-680,481	-80,119	-0,096	0,024
-679,466	209,030	-0,066	-0,076
-678,451	-200,000	-0,005	0,029
-677,437	210,226	-0,068	-0,078
-676,422	187,462	-0,029	0,032
-675,408	-4,692	-0,099	0,050
-674,393	800,000	0,016	-0,034
-673,378	-200,000	0,002	0,095
-672,364	63,180	-0,071	-0,052
-671,349	23,401	0,178	-0,107
-670,335	212,249	0,052	0,060
-669,320	-200,000	0,004	0,025
-668,305	-200,000	0,017	0,091
-667,291	-200,000	0,041	-0,154
-666,276	800,000	0,015	0,039
-665,262	800,000	-0,026	-0,081
-664,247	-200,000	-0,016	0,138
-663,232	128,417	-0,074	-0,069
-662,218	800,000	0,026	-0,064
-661,203	7,610	0,112	-0,061
-660,189	-200,000	-0,013	-0,142
-659,174	-29,108	0,085	-0,036
-658,159	-46,816	-0,055	-0,020
-657,145	-200,000	0,002	-0,156
-656,130	-43,262	-0,126	0,047
-655,116	-200,000	0,020	0,099
-654,101	71,632	-0,066	-0,051
-653,086	136,788	0,063	-0,060
-652,072	-128,204	-0,058	-0,006
-651,057	-200,000	-0,040	-0,244
-650,043	-69,559	0,050	-0,014
-649,028	-94,952	-0,024	-0,005
-648,014	70,279	0,066	-0,050
-646,999	-139,337	0,094	-0,007
-645,984	185,145	0,054	0,059
-644,970	-188,210	-0,024	0,000
-643,955	-76,288	-0,089	-0,023
-642,941	-87,781	-0,180	-0,039
-641,926	-200,000	0,032	-0,124
-640,911	-200,000	-0,020	0,094
-639,897	21,513	0,036	0,022
-638,882	-20,737	0,014	0,006
-637,868	548,683	-0,039	-0,068
-636,853	-100,254	-0,121	-0,022
-635,838	800,000	0,010	0,031
-634,824	479,039	0,070	-0,117
-633,809	22,906	-0,078	-0,047
-632,795	800,000	-0,038	0,107
-631,780	-65,306	-0,076	0,022
-630,765	-23,207	-0,021	-0,009
-629,751	-83,693	-0,102	0,024
-628,736	-38,855	-0,107	0,041
-627,722	-131,551	0,057	0,005
-626,707	48,909	-0,032	-0,022
-625,692	-3,641	0,020	0,010
-624,678	-167,186	0,063	-0,002
-623,663	129,001	-0,052	0,049
-622,649	800,000	0,022	-0,054
-621,634	-26,701	-0,181	-0,077
-620,619	153,624	0,007	-0,007
-619,605	-33,604	-0,064	-0,026
-618,590	81,149	0,068	-0,053
-617,576	204,415	-0,101	-0,115
-616,561	-27,119	-0,047	-0,020
-615,546	146,097	0,068	-0,066
-614,532	186,353	-0,079	-0,087
-613,517	30,567	-0,041	-0,026
-612,503	-72,645	0,165	0,044
-611,488	800,000	-0,038	-0,098
-610,474	5,901	0,093	-0,050
-609,459	-62,361	-0,070	-0,021
-608,444	-200,000	-0,001	-0,054
-607,430	703,286	-0,029	-0,056
-606,415	69,383	-0,015	-0,011
-605,401	248,004	0,048	0,060
-604,386	-56,388	-0,016	-0,005
-603,371	384,146	0,038	-0,057
-602,357	-95,329	0,076	0,015
-601,342	495,391	0,103	-0,174
-600,328	72,483	-0,099	-0,075
-599,313	33,688	-0,025	-0,016
-598,298	167,622	-0,089	-0,092
-597,284	182,261	0,070	0,076
-596,269	-40,431	0,048	-0,018
-595,255	-105,536	-0,141	-0,023
-594,240	-200,000	-0,000	-0,058
-593,225	698,546	-0,026	0,050
-592,211	100,387	-0,149	-0,127
-591,196	-200,000	0,025	-0,190
-590,182	5,944	0,035	-0,019
-589,167	800,000	-0,043	-0,089
-588,152	462,500	0,036	0,059
-587,138	-200,000	-0,012	0,061
-586,123	26,271	-0,111	-0,068
-585,109	177,013	0,099	-0,106
-584,094	-200,000	-0,012	-0,100
-583,079	-138,233	-0,091	-0,007
-582,065	-200,000	0,023	-0,085
-581,050	36,929	0,077	0,050
-580,036	108,432	0,078	-0,068
-579,021	93,573	0,081	-0,067
-578,006	-200,000	-0,007	-0,058
-576,992	8,784	-0,115	-0,063
-575,977	-200,000	-0,045	-0,172
-574,963	47,121	0,095	0,065
-573,948	-200,000	-0,009	-0,084
-572,934	426,437	0,029	0,046
-571,919	-141,114	-0,123	0,009
-570,904	-115,092	-0,153	0,021
-569,890	190,115	-0,074	-0,082
-568,875	281,170	0,066	0,086
-567,861	-200,000	0,020	-0,068
-566,846	102,318	-0,068	-0,058
-565,831	-200,000	-0,018	0,114
-564,817	101,815	-0,068	-0,058
-563,802	-200,000	0,001	-0,173
-562,788	62,806	-0,078	0,057
-561,773	-69,923	0,181	-0,050
-560,758	800,000	0,034	0,083
-559,744	121,103	-0,039	-0,036
-558,729	800,000	0,041	-0,103
-557,715	-200,000	-0,018	-0,101
-556,700	-200,000	-0,001	0,072
-555,685	-166,672	0,066	0,002
-554,671	535,777	0,017	0,029
-553,656	-200,000	0,014	0,074
-552,642	-71,849	0,089	0,024
-551,627	-42,972	-0,085	-0,031
-550,612	169,817	-0,023	0,025
-549,598	-200,000	-0,013	-0,192
-548,583	-73,526	0,106	-0,028
-547,569	-200,000	0,006	0,061
-546,554	125,240	0,039	-0,036
-545,539	129,185	0,053	-0,049
-544,525	-100,412	0,063	0,011
-543,510	-200,000	-0,017	-0,082
-542,496	-200,000	0,017	-0,133
-541,481	-22,221	-0,078	-0,034
-540,466	-200,000	-0,048	0,189
-539,452	669,215	0,059	0,111
-538,437	800,000	-0,031	0,097
-537,423	210,357	-0,014	0,016
-536,408	211,353	0,058	0,067
-535,393	349,714	-0,046	-0,067
-534,379	-91,035	0,089	-0,019
-533,364	539,832	0,058	-0,101
-532,350	-200,000	-0,014	-0,076
-531,335	-200,000	0,021	-0,078
-530,321	800,000	-0,011	0,029
-529,306	-181,476	-0,070	-0,001
-528,291	357,319	-0,052	-0,076
-527,277	101,971	0,074	0,063
-526,262	-128,233	-0,029	-0,003
-525,248	150,707	0,010	0,010
-524,233	-200,000	0,017	-0,068
-523,218	-200,000	0,029	-0,232
-522,204	159,386	-0,139	-0,141
-521,189	194,652	-0,020	0,023
-520,175	-102,552	-0,059	0,010
-519,160	-111,300	0,030	-0,004
-518,145	-117,575	0,203	-0,026
-517,131	200,581	-0,081	0,091
-516,116	11,288	-0,018	0,010
-515,102	407,065	0,032	0,049
-514,087	65,585	0,149	0,110
-513,072	78,796	0,119	0,093
-512,058	-174,673	-0,124	-0,003
-511,043	-7,046	0,147	-0,073
-510,029	182,571	0,124	0,133
-509,014	-200,000	0,005	0,065
-507,999	352,980	0,056	0,082
-506,985	-200,000	-0,003	-0,061
-505,970	176,333	-0,033	0,035
-504,956	-200,000	-0,005	-0,152
-503,941	23,795	0,130	-0,078
-502,926	220,898	0,073	-0,085
-501,912	106,942	-0,098	-0,085
-500,897	-123,587	0,025	-0,003
-499,883	471,881	0,006	-0,009
-498,868	800,000	-0,065	-0,204
-497,853	-200,000	0,031	-0,136
-496,839	800,000	0,024	-0,073
-495,824	-200,000	-0,006	0,155
-494,810	-200,000	-0,008	0,059
-493,795	-153,341	0,023	0,001
-492,781	-200,000	0,008	0,090
-491,766	-101,562	-0,124	-0,022
-490,751	247,782	0,047	-0,058
-489,737	-148,722	-0,077	0,004
-488,722	800,000	0,050	0,106
-487,708	-138,186	-0,044	0,004
-486,693	-31,971	0,079	-0,032
-485,678	17,463	0,043	0,025
-484,664	-200,000	-0,001	-0,144
-483,649	-200,000	0,001	0,028
-482,635	-1,285	0,025	-0,013
-481,620	-200,000	0,021	0,143
-480,605	-200,000	0,004	0,114
-479,591	-84,783	0,171	0,039
-478,576	-50,892	-0,003	-0,001
-477,562	10,716	0,026	0,014
-476,547	-189,356	0,013	-0,000
-475,532	800,000	-0,027	0,059
-474,518	-93,451	-0,173	0,035
-473,503	-102,837	0,092	-0,016
-472,489	170,006	0,033	-0,035
-471,474	152,076	-0,113	-0,112
-470,459	-33,362	0,029	0,012
-469,445	-37,506	-0,020	0,008
-468,430	60,259	0,060	-0,044
-467,416	800,000	0,034	0,076
-466,401	206,801	0,085	0,097
-465,386	178,824	0,020	0,021
-464,372	-200,000	0,039	-0,174
-463,357	-31,571	0,087	-0,035
-462,343	124,118	-0,086	-0,079
-461,328	-200,000	-0,019	-0,113
-460,313	128,702	0,019	0,018
-459,299	108,951	0,123	-0,107
-458,284	-109,366	0,112	0,017
-457,270	527,439	0,016	0,027
-456,255	800,000	0,016	0,050
-455,241	722,592	0,031	0,061
-454,226	-200,000	0,004	0,182
-453,211	591,820	0,068	-0,122
-452,197	-200,000	-0,013	0,066
-451,182	86,483	0,075	0,060
-450,168	172,746	0,027	0,028
-449,153	-200,000	0,003	0,036
-448,138	211,520	-0,052	-0,059
-447,124	-21,744	0,046	-0,020
-446,109	137,786	0,023	-0,022
-445,095	266,203	0,031	-0,039
-444,080	350,327	-0,059	0,086
-443,065	-92,974	0,119	-0,024
-442,051	39,780	-0,061	0,040
-441,036	-75,042	-0,114	-0,030
-440,022	-200,000	0,023	-0,108
-439,007	800,000	-0,058	0,126
-437,992	631,729	0,065	0,120
-436,978	-200,000	0,022	0,156
-435,963	800,000	-0,109	0,272
-434,949	-200,000	-0,002	-0,073
-433,934	800,000	0,028	0,058
-432,919	208,326	0,047	0,054
-431,905	423,314	-0,059	0,093
-430,890	8,810	0,180	0,098
-429,876	404,370	0,083	0,127
-428,861	21,188	0,041	-0,024
-427,846	-200,000	-0,001	0,061
-426,832	151,826	-0,047	-0,047
-425,817	-66,454	-0,115	-0,033
-424,803	164,390	-0,056	-0,057
-423,788	-200,000	-0,031	0,128
-422,773	-104,504	0,112	-0,019
-421,759	77,063	0,050	-0,038
-420,744	-200,000	0,025	-0,112
-419,730	800,000	-0,062	-0,169
-418,715	-200,000	0,013	0,061
-417,701	-50,645	0,095	0,032
-416,686	-200,000	-0,008	0,086
-415,671	800,000	0,073	0,155
-414,657	-200,000	-0,014	-0,073
-413,642	615,735	0,022	-0,040
-412,628	800,000	0,032	0,092
-411,613	800,000	-0,020	0,044
-410,598	132,681	-0,124	0,117
-409,584	800,000	0,056	0,121
-408,569	800,000	0,050	-0,124
-407,555	35,361	0,139	0,088
-406,540	98,796	-0,035	0,030
-405,525	136,888	0,066	0,063
-404,511	-200,000	-0,018	0,062
-403,496	308,940	-0,096	-0,131
-402,482	-35,333	-0,094	-0,037
-401,467	-200,000	-0,003	0,122
-400,452	-149,856	-0,129	0,007
-399,438	52,270	0,036	0,025
-398,423	483,040	-0,049	-0,081
-397,409	-173,981	0,093	-0,002
-396,394	-200,000	0,018	0,103
-395,379	-200,000	0,002	-0,052
-394,365	800,000	0,038	-0,086
-393,350	-62,151	0,085	0,025
-392,336	138,729	-0,182	0,173
-391,321	71,102	-0,066	0,049
-390,306	800,000	-0,090	-0,182
-389,292	800,000	0,057	-0,175
-388,277	800,000	0,010	-0,029
-387,263	-200,000	0,012	0,069
-386,248	47,835	0,092	-0,063
-385,233	800,000	0,021	0,047
-384,219	800,000	-0,045	0,093
-383,204	800,000	0,023	-0,068
-382,190	800,000	0,027	-0,063
-381,175	800,000	0,042	-0,112
-380,160	-11,323	0,193	0,092
-379,146	224,809	0,063	0,074
-378,131	-82,763	0,035	-0,008
-377,117	-116,049	-0,082	-0,011
-376,102	279,706	-0,041	-0,054
-375,088	-200,000	-0,005	-0,148
-374,073	-1,313	-0,033	0,017
-373,058	-200,000	-0,044	0,246
-372,044	-97,481	0,062	0,012
-371,029	263,161	0,054	0,068
-370,015	-51,084	0,142	-0,048
-369,000	-200,000	-0,018	-0,186
-367,985	269,261	0,044	0,056
-366,971	159,507	0,032	-0,033
-365,956	166,342	0,055	-0,057
-364,942	75,722	0,138	0,105
-363,927	-200,000	0,001	-0,074
-362,912	57,199	0,066	-0,047
-361,898	800,000	-0,031	0,095
-360,883	-47,703	0,082	-0,029
-359,869	-160,923	-0,097	0,004
-358,854	80,127	-0,041	-0,032
-357,839	99,724	-0,108	-0,090
-356,825	108,683	0,047	0,040
-355,810	33,913	-0,065	0,041
-354,796	-200,000	-0,019	-0,078
-353,781	-45,531	0,053	-0,019
-352,766	800,000	-0,026	-0,067
-351,752	800,000	0,017	0,046
-350,737	-200,000	-0,025	-0,086
-349,723	150,380	-0,105	0,103
-348,708	800,000	0,087	-0,177
-347,693	219,606	-0,104	-0,121
-346,679	-200,000	0,008	-0,057
-345,664	-31,237	-0,168	-0,068
-344,650	683,066	0,031	-0,058
-343,635	-44,176	-0,115	-0,042
-342,620	-72,097	0,089	-0,024
-341,606	482,646	-0,073	0,120
-340,591	795,813	-0,019	-0,039
-339,577	41,311	-0,019	0,012
-338,562	-200,000	-0,030	-0,160
-337,548	-144,069	-0,086	-0,006
-336,533	-67,890	0,117	-0,033
-335,518	-200,000	0,002	0,090
-334,504	-68,982	-0,007	-0,002
-333,489	800,000	-0,033	-0,076
-332,475	281,888	-0,061	-0,079
-331,460	-93,627	-0,068	-0,014
-330,445	715,501	-0,011	0,020
-329,431	800,000	-0,072	0,153
-328,416	-200,000	0,033	0,188
-327,402	800,000	0,020	0,056
-326,387	23,450	-0,101	-0,060
-325,372	-8,563	-0,095	0,046
-324,358	-93,232	-0,065	0,013
-323,343	-63,662	-0,086	-0,025
-322,329	-56,580	0,081	-0,026
-321,314	266,046	0,041	0,052
-320,299	-156,726	0,037	-0,002
-319,285	-28,379	-0,089	0,037
-318,270	0,169	-0,074	-0,038
-317,256	-14,219	0,062	0,029
-316,241	-64,821	0,067	-0,020
-315,226	375,821	-0,074	-0,109
-314,212	619,028	0,064	0,117
-313,197	-85,432	-0,069	0,016
-312,183	-117,869	0,071	-0,009
-311,168	51,678	-0,069	0,048
-310,153	-104,187	-0,143	0,024
-309,139	-200,000	0,011	0,065
-308,124	-124,053	-0,055	0,006
-307,110	-103,280	0,081	-0,014
-306,095	-200,000	-0,022	-0,072
-305,080	-60,941	0,134	0,041
-304,066	161,311	-0,102	0,103
-303,051	301,824	0,099	0,132
-302,037	-200,000	0,003	0,011
-301,022	9,689	0,087	-0,048
-300,008	270,265	0,071	0,091
-298,993	-68,558	-0,115	0,032
-297,978	28,762	-0,068	0,042
-296,964	484,911	-0,063	-0,104
-295,949	-200,000	-0,085	0,000
-294,935	200,773	-0,028	0,031
-293,920	7,662	-0,094	0,051
-292,905	90,927	-0,061	0,050
-291,891	313,911	-0,012	0,016
-290,876	800,000	0,033	-0,092
-289,862	142,104	0,062	-0,059
-288,847	-200,000	-0,012	-0,061
-287,832	434,680	0,028	0,045
-286,818	800,000	0,024	0,070
-285,803	153,909	-0,034	0,034
-284,789	-89,985	-0,101	0,021
-283,774	35,594	0,048	0,030
-282,759	-35,865	0,016	0,006
-281,745	-146,764	-0,026	-0,002
-280,730	-85,032	0,023	0,005
-279,716	-43,559	-0,077	-0,028
-278,701	453,963	0,026	0,042
-277,686	-60,704	0,067	0,021
-276,672	361,009	0,008	0,012
-275,657	-200,000	0,015	0,123
-274,643	-96,685	-0,140	0,026
-273,628	-200,000	0,010	0,045
-272,613	-51,174	-0,083	0,028
-271,599	215,506	0,051	-0,058
-270,584	158,635	0,028	0,028
-269,570	-200,000	-0,014	0,084
-268,555	194,782	0,088	0,096
-267,540	-72,308	-0,074	-0,020
-266,526	150,594	0,083	-0,081
-265,511	28,647	0,061	0,037
-264,497	-169,148	-0,048	0,001
-263,482	417,571	-0,104	0,162
-262,467	-169,306	0,213	-0,006
-261,453	181,576	-0,146	0,155
-260,438	330,876	-0,038	-0,053
-259,424	800,000	-0,045	-0,117
-258,409	-153,811	0,019	-0,001
-257,395	356,412	0,081	0,117
-256,380	1,953	0,068	0,035
-255,365	-200,000	0,002	0,090
-254,351	175,697	0,017	-0,018
-253,336	31,065	-0,122	0,075
-252,322	63,318	0,065	-0,047
-251,307	-167,905	0,050	-0,001
-250,292	214,653	-0,050	-0,057
-249,278	-200,000	0,014	0,125
-248,263	-2,885	-0,167	0,084
-247,249	800,000	-0,026	0,060
-246,234	-200,000	-0,009	-0,037
-245,219	-135,815	-0,014	-0,001
-244,205	-7,627	0,060	-0,029
-243,190	683,009	0,013	0,025
-242,176	417,026	-0,022	0,034
-241,161	-200,000	0,026	0,177
-240,146	181,722	-0,035	0,038
-239,132	-18,365	-0,106	-0,048
-238,117	-200,000	0,024	-0,094
-237,103	-200,000	-0,022	-0,107
-236,088	800,000	-0,008	-0,019
-235,073	-200,000	-0,017	0,071
-234,059	800,000	-0,029	-0,071
-233,044	553,043	0,006	0,010
-232,030	71,719	-0,032	0,024
-231,015	-129,547	-0,205	-0,020
-230,000	466,667	0,061	-0,099
-228,986	-133,229	0,077	0,007
-227,971	-200,000	-0,004	-0,042
-226,957	-68,988	-0,117	0,032
-225,942	-102,553	0,105	0,018
-224,927	-58,551	-0,053	0,016
-223,913	-200,000	0,025	-0,117
-222,898	-154,662	-0,046	-0,002
-221,884	-31,672	-0,082	-0,033
-220,869	2,172	0,025	-0,013
-219,855	-151,126	0,104	-0,006
-218,840	537,020	-0,049	-0,084
-217,825	-111,940	0,052	-0,007
-216,811	216,705	-0,090	-0,103
-215,796	-15,561	0,150	0,069
-214,782	242,584	-0,100	0,122
-213,767	229,446	0,079	-0,093
-212,752	172,137	0,021	0,021
-211,738	-200,000	-0,020	0,155
-210,723	-200,000	-0,015	-0,090
-209,709	-15,039	-0,125	0,058
-208,694	-11,545	-0,048	0,023
-207,679	-200,000	0,004	-0,041
-206,665	574,960	-0,023	-0,041
-205,650	-200,000	0,038	0,173
-204,636	-167,710	0,062	0,002
-203,621	483,354	-0,120	0,198
-202,606	-58,730	0,105	0,033
-201,592	-110,954	-0,039	-0,006
-200,577	-98,230	0,043	-0,008
-199,563	139,047	0,109	-0,104
-198,548	-200,000	-0,001	0,027
-197,533	376,460	0,024	-0,035
-196,519	-98,933	-0,095	0,017
-195,504	4,886	0,138	-0,073
-194,490	800,000	-0,026	-0,053
-193,475	-40,099	-0,116	-0,043
-192,460	736,419	-0,023	-0,046
-191,446	800,000	-0,051	0,142
-190,431	106,477	0,067	0,057
-189,417	62,784	0,012	0,009
-188,402	196,664	-0,099	0,109
-187,387	-143,049	0,073	-0,005
-186,373	-3,228	-0,044	-0,022
-185,358	-50,859	-0,095	-0,032
-184,344	-47,020	0,016	0,006
-183,329	-200,000	0,020	0,068
-182,315	-143,706	-0,095	0,006
-181,300	223,043	0,038	0,045
-180,285	-59,083	0,146	0,045
-179,271	800,000	-0,019	0,045
-178,256	-33,450	0,064	-0,025
-177,242	800,000	0,028	-0,078
-176,227	-200,000	0,005	0,159
-175,212	-200,000	0,016	0,103
-174,198	77,554	-0,040	0,031
-173,183	43,959	0,027	-0,018
-172,169	800,000	0,040	0,098
-171,154	478,680	0,071	-0,117
-170,139	498,521	0,042	0,070
-169,125	-118,734	0,156	-0,020
-168,110	-48,651	0,051	0,018
-167,096	-200,000	0,014	0,108
-166,081	291,694	0,028	-0,036
-165,066	174,825	0,089	-0,093
-164,052	558,550	0,034	0,059
-163,037	800,000	0,031	0,080
-162,023	487,957	-0,043	0,071
-161,008	613,797	0,034	-0,061
-159,993	-200,000	0,008	0,094
-158,979	106,962	-0,023	0,020
-157,964	132,986	-0,064	-0,059
-156,950	-200,000	0,011	-0,064
-155,935	-3,134	0,032	-0,016
-154,920	334,823	-0,025	-0,034
-153,906	-200,000	0,020	0,170
-152,891	417,987	-0,104	0,161
-151,877	-119,139	0,077	-0,010
-150,862	480,486	0,092	0,150
-149,847	350,091	0,031	-0,044
-148,833	347,952	0,037	0,052
-147,818	81,830	-0,108	0,084
-146,804	-103,894	-0,044	-0,007
-145,789	446,892	0,097	0,154
-144,775	305,227	0,084	-0,112
-143,760	-200,000	-0,011	-0,190
-142,745	800,000	0,044	0,096
-141,731	228,814	-0,065	0,076
-140,716	123,145	0,176	0,159
-139,702	-200,000	0,021	0,115
-138,687	-113,584	0,098	0,014
-137,672	-26,719	-0,145	0,061
-136,658	-135,065	-0,068	0,006
-135,643	91,627	-0,076	-0,062
-134,629	268,293	-0,017	-0,021
-133,614	-7,818	-0,132	0,064
-132,599	-146,901	0,076	0,005
-131,585	-79,893	-0,090	-0,021
-130,570	20,240	-0,025	-0,015
-129,556	800,000	0,026	0,054
-128,541	-100,804	-0,057	-0,010
-127,526	800,000	0,029	0,077
-126,512	456,099	-0,100	0,160
-125,497	-174,212	0,180	0,004
-124,483	-200,000	-0,033	0,190
-123,468	-200,000	-0,025	0,128
-122,453	758,880	0,049	-0,096
-121,439	29,008	-0,120	-0,073
-120,424	-31,792	0,068	-0,027
-119,410	-200,000	0,001	0,091
-118,395	-97,588	0,057	0,011
-117,380	-143,797	0,103	0,007
-116,366	-200,000	0,010	0,109
-115,351	-200,000	-0,021	-0,074
-114,337	-39,648	-0,088	-0,033
-113,322	347,626	0,056	-0,080
-112,307	-200,000	-0,015	-0,132
-111,293	-85,947	0,127	0,028
-110,278	-200,000	0,004	0,101
-109,264	-72,684	-0,151	0,040
-108,249	93,875	-0,103	-0,084
-107,234	31,596	-0,045	-0,028
-106,220	800,000	0,037	-0,092
-105,205	800,000	0,025	-0,050
-104,191	104,895	0,049	0,041
-103,176	-200,000	0,001	0,169
-102,162	-90,720	0,065	0,013
-101,147	-200,000	-0,007	0,081
-100,132	-200,000	0,010	0,220
-99,118	-81,845	-0,205	0,048
-98,103	-154,893	0,076	0,004
-97,089	-200,000	-0,013	0,083
-96,074	353,526	-0,015	0,022
-95,059	202,199	-0,087	0,097
-94,045	104,151	0,034	0,029
-93,030	800,000	-0,044	-0,113
-92,016	-1,368	-0,042	-0,021
-91,001	274,204	0,079	-0,101
-89,986	364,178	0,059	-0,086
-88,972	-188,799	-0,038	-0,000
-87,957	-200,000	-0,024	0,203
-86,943	800,000	0,032	0,095
-85,928	291,848	-0,079	0,104
-84,913	-200,000	-0,000	-0,047
-83,899	-159,979	-0,058	0,002
-82,884	-34,155	-0,020	-0,008
-81,870	271,118	0,074	0,093
-80,855	63,148	0,090	0,065
-79,840	191,730	0,054	0,058
-78,826	-200,000	0,022	-0,148
-77,811	-200,000	0,040	-0,132
-76,797	391,125	0,072	-0,108
-75,782	-85,329	-0,055	0,012
-74,767	791,148	-0,010	0,020
-73,753	-187,500	0,054	0,001
-72,738	-163,738	0,173	0,006
-71,724	-18,032	-0,024	-0,011
-70,709	188,499	0,099	-0,106
-69,694	-200,000	0,017	-0,073
-68,680	-200,000	-0,011	0,048
-67,665	-119,966	-0,072	0,009
-66,651	279,902	0,024	0,031
-65,636	312,749	-0,031	-0,042
-64,622	-200,000	-0,056	-0,179
-63,607	-200,000	-0,001	-0,130
-62,592	0,697	-0,081	-0,042
-61,578	58,878	-0,061	-0,043
-60,563	800,000	-0,019	0,041
-59,549	140,340	-0,120	0,114
-58,534	44,311	-2,252	-1,480
-57,519	-200,000	0,003	-0,644
-56,505	-200,000	-1,376	-5,287
-55,490	160,507	0,897	0,899
-54,476	800,000	5,383	12,113
-53,461	-200,000	19,701	324,111
-52,446	800,000	753,027	2317,135
-51,432	536,505	1665,053	2845,523
-50,417	115,436	1641,827	1438,460
-49,403	83,243	1289,063	1005,613
-48,388	31,251	1029,029	631,929
-47,373	19,732	991,940	571,079
-46,359	16,293	979,800	552,761
-45,344	12,912	976,285	539,645
-44,330	13,277	974,468	539,816
-43,315	12,450	972,800	536,160
-42,300	12,413	971,554	535,330
-41,286	12,440	970,627	534,886
-40,271	12,448	969,670	534,363
-39,257	12,423	968,812	533,787
-38,242	12,432	967,808	533,244
-37,227	12,420	967,050	532,766
-36,213	12,405	966,138	532,193
-35,198	12,409	965,077	531,600
-34,184	12,456	964,444	531,381
-33,169	12,387	963,546	530,643
-32,154	12,483	962,563	530,392
-31,140	12,364	961,991	529,669
-30,125	12,452	961,028	529,404
-29,111	12,467	960,026	528,880
-28,096	12,467	959,612	528,631
-27,082	12,473	958,823	528,195
-26,067	12,447	958,149	527,719
-25,052	12,402	957,289	527,077
-24,038	12,437	956,637	526,810
-23,023	12,436	956,034	526,454
-22,009	12,481	955,358	526,206
-20,994	12,478	954,818	525,879
-19,979	12,478	954,262	525,551
-18,965	12,456	953,455	525,016
-17,950	12,407	952,988	524,578
-16,936	12,399	952,361	524,188
-15,921	12,384	951,694	523,752
-14,906	12,356	950,796	523,147
-13,892	12,338	950,038	522,652
-12,877	12,382	949,420	522,433
-11,863	12,271	949,020	521,835
-10,848	12,310	948,516	521,662
-9,833	12,378	947,952	521,549
-8,819	12,364	947,154	521,045
-7,804	12,318	946,460	520,495
-6,790	12,326	945,931	520,209
-5,775	12,370	945,420	520,049
-4,760	12,421	944,691	519,788
-3,746	12,402	944,131	519,398
-2,731	12,230	943,305	518,380
-1,717	12,178	942,851	517,944
-0,702	12,253	942,097	517,747
0,313	11,997	941,350	517,304
1,327	15,449	939,054	526,915
2,342	24,582	791,981	468,565
3,356	20,031	457,650	263,784
4,371	-7,690	316,762	152,823
5,386	-11,772	298,808	139,976
6,400	-13,874	292,753	135,021
7,415	-13,878	290,491	133,962
8,429	-13,990	288,708	133,017
9,444	-14,131	287,824	132,458
10,459	-14,052	287,351	132,307
11,473	-13,982	286,702	132,065
12,488	-14,022	286,150	131,760
13,502	-14,012	285,587	131,499
14,517	-13,871	285,382	131,530
15,531	-13,485	284,853	131,651
16,546	-13,344	284,498	131,612
17,561	-13,466	284,303	131,392
18,575	-13,479	283,836	131,151
19,590	-13,401	283,529	131,073
20,604	-13,319	283,140	130,962
21,619	-13,500	282,880	130,655
22,634	-13,357	282,487	130,600
23,648	-13,369	282,090	130,393
24,663	-13,426	281,852	130,217
25,677	-13,460	281,644	130,076
26,692	-13,249	281,372	130,141
27,707	-13,294	280,960	129,896
28,721	-13,249	280,706	129,810
29,736	-13,339	280,447	129,593
30,750	-13,449	280,302	129,408
31,765	-13,473	280,033	129,250
32,780	-13,406	279,655	129,128
33,794	-13,359	279,461	129,072
34,809	-13,239	279,207	129,058
35,823	-13,261	278,809	128,841
36,838	-13,474	278,595	128,528
37,853	-13,445	278,442	128,474
38,867	-13,366	278,097	128,378
39,882	-13,324	277,935	128,331
40,896	-13,427	277,663	128,097
41,911	-13,320	277,439	128,084
42,926	-13,236	277,195	128,039
43,940	-13,469	276,936	127,687
44,955	-13,409	276,757	127,651
45,969	-13,505	276,471	127,416
46,984	-13,266	276,260	127,533
47,999	-13,230	276,056	127,461
49,013	-13,499	275,824	127,090
50,028	-13,291	275,533	127,140
51,042	-13,689	275,395	126,691
52,057	-13,497	275,147	126,746
53,071	-13,317	274,980	126,826
54,086	-13,390	274,556	126,552
55,101	-13,511	274,521	126,411
56,115	-13,448	274,214	126,317
57,130	-13,545	273,998	126,115
58,144	-13,563	273,638	125,922
59,159	-13,473	273,499	125,931
60,174	-13,520	273,222	125,748
61,188	-13,437	273,088	125,752
62,203	-13,417	272,792	125,624
63,217	-13,479	272,612	125,472
64,232	-13,508	272,325	125,301
65,247	-13,337	272,075	125,334
66,261	-13,430	271,836	125,127
67,276	-13,381	271,474	124,994
68,290	-13,784	271,419	124,585
69,305	-13,575	271,231	124,681
70,320	-13,320	270,874	124,741
71,334	-13,471	270,697	124,509
72,349	-13,507	270,437	124,345
73,363	-13,448	270,237	124,296
74,378	-13,489	270,020	124,147
75,393	-13,481	269,921	124,099
76,407	-13,522	269,833	124,009
77,422	-13,530	269,459	123,819
78,436	-13,512	269,168	123,691
79,451	-13,554	268,903	123,520
80,466	-13,413	268,649	123,520
81,480	-13,390	268,467	123,447
82,495	-13,291	268,207	123,406
83,509	-13,116	267,937	123,431
84,524	-13,419	267,892	123,123
85,539	-13,296	267,703	123,137
86,553	-13,287	267,602	123,088
87,568	-13,594	267,305	122,661
88,582	-13,377	266,826	122,627
89,597	-13,393	266,703	122,545
90,611	-13,431	266,504	122,409
91,626	-13,447	266,438	122,353
92,641	-13,328	266,196	122,339
93,655	-13,441	266,015	122,143
94,670	-13,427	265,753	122,024
95,684	-13,466	265,491	121,857
96,699	-13,603	265,452	121,705
97,714	-13,412	265,190	121,746
98,728	-13,491	265,030	121,591
99,743	-13,369	264,838	121,602
100,757	-13,492	264,608	121,374
101,772	-13,395	264,395	121,353
102,787	-13,425	264,078	121,170
103,801	-13,534	263,913	120,986
104,816	-13,444	263,724	120,969
105,830	-13,622	263,709	120,792
106,845	-13,328	263,274	120,845
107,860	-13,275	263,025	120,767
108,874	-13,480	262,927	120,528
109,889	-13,460	262,675	120,419
110,903	-13,657	262,413	120,113
111,918	-13,748	262,172	119,912
112,933	-13,574	262,148	120,044
113,947	-13,501	261,995	120,029
114,962	-13,606	261,653	119,768
115,976	-13,384	261,526	119,896
116,991	-13,630	261,420	119,619
118,006	-13,537	261,140	119,563
119,020	-13,475	260,906	119,499
120,035	-13,616	260,989	119,402
121,049	-13,349	260,624	119,460
122,064	-13,432	260,409	119,277
123,079	-13,554	260,255	119,089
124,093	-13,387	259,941	119,082
125,108	-13,550	259,888	118,903
126,122	-13,381	259,699	118,955
127,137	-13,300	259,410	118,883
128,151	-13,328	259,430	118,857
129,166	-13,458	259,086	118,574
130,181	-13,237	258,801	118,628
131,195	-13,376	258,586	118,397
132,210	-13,479	258,373	118,198
133,224	-13,544	258,165	118,036
134,239	-13,614	258,107	117,937
135,254	-13,588	257,826	117,821
136,268	-13,552	257,651	117,763
137,283	-13,459	257,324	117,684
138,297	-13,386	257,197	117,679
139,312	-13,548	256,922	117,401
140,327	-13,549	256,758	117,315
141,341	-13,361	256,601	117,396
142,356	-13,539	256,369	117,125
143,370	-13,655	256,298	116,982
144,385	-13,310	256,067	117,165
145,400	-13,341	255,810	117,010
146,414	-13,283	255,844	117,065
147,429	-13,356	255,488	116,829
148,443	-13,291	255,356	116,814
149,458	-13,418	255,160	116,604
150,473	-13,372	254,947	116,536
151,487	-13,642	254,800	116,226
152,502	-13,397	254,627	116,348
153,516	-13,377	254,564	116,326
154,531	-13,354	254,155	116,149
155,546	-13,324	253,968	116,078
156,560	-13,365	253,840	115,974
157,575	-13,488	253,570	115,735
158,589	-13,555	253,395	115,588
159,604	-13,436	253,291	115,631
160,619	-13,341	253,178	115,651
161,633	-13,369	252,930	115,503
162,648	-13,457	252,879	115,395
163,662	-13,306	252,600	115,386
164,677	-13,488	252,439	115,147
165,692	-13,372	252,195	115,124
166,706	-13,365	252,080	115,067
167,721	-13,529	251,899	114,836
168,735	-13,318	251,609	114,872
169,750	-13,406	251,568	114,768
170,764	-13,310	251,363	114,746
171,779	-13,329	251,105	114,601
172,794	-13,345	251,060	114,557
173,808	-13,551	250,936	114,316
174,823	-13,366	250,719	114,364
175,837	-13,494	250,501	114,146
176,852	-13,474	250,310	114,065
177,867	-13,477	250,074	113,945
178,881	-13,366	250,060	114,023
179,896	-13,453	249,829	113,833
180,910	-13,363	249,654	113,819
181,925	-13,346	249,426	113,719
182,940	-13,371	249,374	113,665
183,954	-13,427	249,116	113,490
184,969	-13,268	248,910	113,519
185,983	-13,343	248,917	113,449
186,998	-13,106	248,452	113,426
188,013	-13,299	248,328	113,197
189,027	-13,472	248,308	113,034
190,042	-13,710	247,996	112,682
191,056	-13,500	247,739	112,731
192,071	-13,655	247,559	112,510
193,086	-13,674	247,410	112,416
194,100	-13,752	247,194	112,243
195,115	-13,490	247,118	112,417
196,129	-13,492	246,954	112,330
197,144	-13,508	246,779	112,227
198,159	-13,436	246,555	112,176
199,173	-13,574	246,382	111,972
200,188	-13,742	246,096	111,693
201,202	-13,764	246,090	111,663
202,217	-13,597	245,874	111,692
203,232	-13,546	245,627	111,613
204,246	-13,888	245,090	111,076
205,261	-15,005	244,792	110,011
206,275	-14,478	244,805	110,441
207,290	-10,634	246,319	114,299
208,304	-3,442	248,631	121,362
209,319	0,872	249,819	125,537
210,334	1,814	250,043	126,424
211,348	2,400	250,019	126,890
212,363	2,810	250,175	127,300
213,377	3,018	250,007	127,376
214,392	3,289	249,998	127,586
215,407	3,523	249,863	127,701
216,421	3,621	249,666	127,671
217,436	3,816	249,517	127,745
218,450	3,392	249,319	127,280
219,465	3,525	249,095	127,265
220,480	3,519	248,931	127,165
221,494	3,009	248,673	126,599
222,509	2,741	248,506	126,280
223,523	2,584	248,173	125,970
224,538	2,581	247,938	125,837
225,553	2,170	247,817	125,425
226,567	2,195	247,533	125,291
227,582	2,366	247,280	125,293
228,596	2,164	247,318	125,134
229,611	2,038	247,005	124,861
230,626	2,019	246,958	124,810
231,640	2,072	246,860	124,794
232,655	2,194	246,616	124,759
233,669	2,269	246,419	124,710
234,684	1,969	246,272	124,379
235,699	2,360	245,975	124,538
236,713	2,087	246,025	124,328
237,728	2,089	245,796	124,203
238,742	2,141	245,666	124,169
239,757	2,398	245,353	124,209
240,772	2,239	245,250	124,017
241,786	2,234	245,229	123,991
242,801	2,315	244,899	123,878
243,815	2,253	244,790	123,762
244,830	2,351	244,774	123,822
245,844	2,184	244,644	123,610
246,859	2,082	244,425	123,405
247,874	2,358	244,212	123,511
248,888	2,234	244,167	123,377
249,903	2,457	243,882	123,402
250,917	2,511	243,708	123,347
251,932	2,399	243,634	123,208
252,947	2,405	243,400	123,083
253,961	2,235	243,196	122,832
254,976	2,383	243,145	122,915
255,990	2,576	242,926	122,949
257,005	2,329	242,766	122,658
258,020	2,358	242,728	122,651
259,034	2,267	242,509	122,456
260,049	2,278	242,234	122,315
261,063	2,267	242,151	122,254
262,078	2,317	241,864	122,138
263,093	2,322	241,720	122,058
264,107	2,484	241,601	122,117
265,122	2,412	241,398	121,946
266,136	2,284	241,382	121,824
267,151	2,524	241,233	121,930
268,166	2,254	241,007	121,589
269,180	2,310	240,761	121,499
270,195	2,074	240,715	121,277
271,209	2,271	240,575	121,353
272,224	2,575	240,217	121,404
273,239	2,243	240,245	121,142
274,253	2,352	240,008	121,099
275,268	2,171	239,846	120,863
276,282	2,266	239,926	120,967
277,297	2,165	239,616	120,720
278,312	2,214	239,507	120,693
279,326	2,211	239,390	120,621
280,341	2,502	239,075	120,682
281,355	2,528	238,856	120,581
282,370	2,397	238,885	120,482
283,384	2,378	238,758	120,392
284,399	2,335	238,475	120,204
285,414	2,184	238,256	119,965
286,428	2,105	238,291	119,909
287,443	2,249	237,939	119,835
288,457	2,219	237,955	119,808
289,472	2,357	237,733	119,794
290,487	2,367	237,749	119,800
291,501	2,308	237,409	119,572
292,516	2,160	237,395	119,437
293,530	2,234	237,244	119,409
294,545	2,417	236,995	119,416
295,560	2,600	236,895	119,499
296,574	2,407	236,699	119,238
297,589	2,358	236,586	119,132
298,603	2,374	236,400	119,040
299,618	2,202	236,388	118,889
300,633	2,284	236,185	118,840
301,647	2,459	236,105	118,926
302,662	2,563	235,835	118,861
303,676	2,464	235,705	118,708
304,691	2,400	235,598	118,594
305,706	2,328	235,458	118,456
306,720	2,455	235,405	118,517
307,735	2,343	235,155	118,294
308,749	2,420	234,952	118,241
309,764	2,350	234,681	118,040
310,779	2,397	234,638	118,044
311,793	2,319	234,437	117,873
312,808	2,198	234,358	117,728
313,822	2,330	234,288	117,785
314,837	2,575	234,023	117,831
315,852	2,438	233,873	117,639
316,866	2,542	233,740	117,642
317,881	2,558	233,663	117,605
318,895	2,468	233,534	117,460
319,910	2,579	233,392	117,463
320,925	2,461	233,184	117,257
321,939	2,339	232,960	117,041
322,954	2,189	232,841	116,855
323,968	2,138	232,655	116,712
324,983	2,277	232,609	116,785
325,997	2,484	232,403	116,830
327,012	2,607	232,259	116,842
328,027	2,432	232,109	116,622
329,041	2,433	232,103	116,609
330,056	2,551	231,880	116,577
331,070	2,654	231,702	116,556
332,085	2,710	231,378	116,425
333,100	2,311	231,311	116,076
334,114	2,304	231,206	116,008
335,129	2,169	231,074	115,828
336,143	2,480	230,915	115,976
337,158	2,129	230,986	115,734
338,173	2,526	230,633	115,848
339,187	2,422	230,569	115,727
340,202	2,394	230,392	115,606
341,216	2,421	230,203	115,522
342,231	2,396	229,884	115,333
343,246	2,308	229,894	115,260
344,260	2,581	229,730	115,375
345,275	2,321	229,703	115,154
346,289	2,426	229,429	115,086
347,304	2,609	229,270	115,134
348,319	2,573	229,095	115,009
349,333	2,282	229,014	114,738
350,348	2,390	228,866	114,735
351,362	2,208	228,763	114,536
352,377	2,263	228,510	114,441
353,392	2,400	228,393	114,475
354,406	2,253	228,283	114,299
355,421	194,831	1315,547	1388,591
356,435	156,245	1447,945	1388,520
