DTS Sentinel unit serial number:	SN410029Multiplexer serial number:	ORYXHardware model number:	OX2-SRSoftware version number:	ORYX F/W v4,00 Oryx Data Collector v3.7.2.0data status	okinstallation	B5 Nyhavnadifferential loss correction	single-endedforward channel	channel 2reverse channel	N/Adate	2023/12/12time	22:42:13forward acquisition time	300,00reverse acquisition time	0,00gamma	499,1914k internal	0,3158k external	0,3158temperature offset calibration	1,0000default loss term (dB/km)	0,3820temperature slope calibration	1,0000multiplexer offset coefficient	1,0000multiplexer slope coefficient	1,0000fibre end	0,00T internal ref (°C)	14,61T ext. ref 1 (°C)	-1,95T ext. ref 2 (°C)	-2,27length (m)	temperature (°C)	Stokes	anti-Stokes-744,400	-135,865	0,067	0,006
-743,385	-98,209	-0,243	0,046
-742,371	294,897	0,035	0,047
-741,356	19,588	-0,166	0,098
-740,342	43,306	0,113	0,076
-739,327	-82,471	-0,281	0,067
-738,312	-125,388	0,061	0,007
-737,298	-149,315	-0,449	-0,026
-736,283	-11,811	0,196	0,094
-735,269	-81,681	-0,237	0,057
-734,254	-14,225	0,032	-0,015
-733,239	-0,876	-0,486	-0,253
-732,225	-31,853	0,095	0,039
-731,210	-80,208	0,085	-0,021
-730,196	-44,421	0,112	0,041
-729,181	-51,757	-0,120	-0,041
-728,167	-200,000	0,010	-0,076
-727,152	-200,000	-0,013	-0,141
-726,137	800,000	-0,037	0,078
-725,123	-66,439	-0,115	-0,034
-724,108	185,204	0,061	-0,066
-723,094	10,105	0,062	0,035
-722,079	331,851	-0,060	-0,086
-721,064	-200,000	0,020	-0,099
-720,050	147,590	0,058	-0,058
-719,035	800,000	-0,021	0,058
-718,021	529,096	0,019	0,033
-717,006	-30,680	0,038	-0,016
-715,991	110,975	-0,103	-0,091
-714,977	800,000	-0,071	-0,195
-713,962	413,828	0,083	-0,130
-712,948	800,000	-0,071	0,167
-711,933	-200,000	0,026	0,119
-710,918	53,844	-0,114	0,081
-709,904	-200,000	-0,028	0,138
-708,889	-200,000	-0,003	-0,077
-707,875	-22,883	-0,098	-0,043
-706,860	800,000	-0,020	0,047
-705,845	-200,000	0,023	-0,076
-704,831	319,793	0,055	0,078
-703,816	-200,000	-0,002	0,104
-702,802	531,472	-0,040	0,070
-701,787	-200,000	0,018	-0,157
-700,772	-21,009	0,014	0,006
-699,758	-200,000	0,002	-0,028
-698,743	6,523	0,091	0,050
-697,729	-102,809	-0,103	0,018
-696,714	123,784	0,059	-0,055
-695,699	800,000	-0,076	-0,190
-694,685	-57,758	-0,094	-0,030
-693,670	-200,000	0,015	-0,127
-692,656	800,000	-0,024	-0,057
-691,641	176,334	-0,115	-0,123
-690,627	109,139	0,020	0,018
-689,612	-200,000	-0,028	0,099
-688,597	220,364	0,021	-0,025
-687,583	244,984	-0,054	-0,067
-686,568	-40,182	-0,037	-0,014
-685,554	-200,000	0,010	0,087
-684,539	-126,346	0,012	-0,001
-683,524	-200,000	0,012	0,130
-682,510	800,000	0,013	0,038
-681,495	-200,000	0,011	-0,049
-680,481	31,233	-0,046	0,029
-679,466	103,899	-0,055	-0,047
-678,451	-158,384	-0,130	-0,005
-677,437	16,678	0,061	-0,035
-676,422	-61,453	0,106	0,033
-675,408	90,938	-0,026	-0,021
-674,393	-200,000	0,024	-0,092
-673,378	-200,000	0,015	-0,110
-672,364	-79,816	-0,144	-0,035
-671,349	-12,337	-0,074	0,035
-670,335	-142,668	0,126	-0,009
-669,320	800,000	-0,008	-0,016
-668,305	-5,388	0,064	-0,032
-667,291	-71,452	-0,157	0,043
-666,276	-104,146	0,075	0,013
-665,262	13,109	-0,043	-0,024
-664,247	800,000	-0,048	0,150
-663,232	-200,000	0,002	0,031
-662,218	154,411	0,048	-0,048
-661,203	141,129	-0,059	0,057
-660,189	-200,000	-0,033	0,109
-659,174	-200,000	0,008	0,077
-658,159	-72,993	-0,092	0,025
-657,145	-58,850	-0,169	0,053
-656,130	378,125	0,028	0,042
-655,116	116,205	0,037	-0,033
-654,101	-200,000	-0,006	0,095
-653,086	260,879	-0,053	-0,068
-652,072	-200,000	0,010	-0,115
-651,057	94,626	-0,023	-0,020
-650,043	-144,268	-0,103	-0,007
-649,028	-9,878	-0,033	0,016
-648,014	229,085	-0,029	-0,035
-646,999	-200,000	0,034	0,116
-645,984	94,104	-0,038	0,031
-644,970	309,053	0,063	0,087
-643,955	246,265	0,069	-0,085
-642,941	23,778	-0,098	0,059
-641,926	-22,887	-0,060	-0,026
-640,911	-39,734	0,089	-0,034
-639,897	-200,000	0,051	-0,190
-638,882	-111,655	0,074	0,011
-637,868	-200,000	0,009	-0,144
-636,853	-142,527	-0,193	-0,014
-635,838	-200,000	0,020	-0,107
-634,824	-83,857	-0,094	-0,022
-633,809	-200,000	-0,002	-0,030
-632,795	97,960	-0,024	-0,020
-631,780	466,442	-0,047	0,078
-630,765	213,075	-0,043	-0,050
-629,751	-143,499	-0,037	0,003
-628,736	800,000	-0,037	-0,085
-627,722	229,505	-0,019	-0,022
-626,707	-82,700	0,046	-0,011
-625,692	-166,752	0,154	-0,005
-624,678	176,130	-0,057	0,061
-623,663	475,515	-0,088	0,146
-622,649	-14,106	-0,052	0,024
-621,634	36,170	-0,215	-0,139
-620,619	800,000	0,045	-0,106
-619,605	147,566	-0,062	-0,061
-618,590	237,836	0,043	-0,052
-617,576	-200,000	-0,053	0,216
-616,561	423,080	-0,062	0,098
-615,546	43,691	-0,027	-0,018
-614,532	283,935	-0,077	-0,101
-613,517	-108,056	-0,156	0,025
-612,503	-135,992	0,169	0,014
-611,488	-135,138	0,030	-0,003
-610,474	25,671	0,060	0,037
-609,459	545,990	0,029	-0,052
-608,444	62,398	0,157	-0,115
-607,430	395,517	-0,008	0,012
-606,415	800,000	-0,054	0,125
-605,401	16,308	0,065	0,038
-604,386	800,000	0,011	-0,028
-603,371	684,985	0,029	-0,056
-602,357	100,960	-0,056	0,047
-601,342	800,000	0,022	0,059
-600,328	361,048	-0,044	0,065
-599,313	-193,062	-0,096	0,001
-598,298	254,416	0,071	0,089
-597,284	33,936	-0,114	-0,073
-596,269	-200,000	0,008	0,122
-595,255	-71,596	0,145	0,039
-594,240	-135,798	-0,181	-0,015
-593,225	-139,024	-0,027	0,002
-592,211	-53,477	-0,085	-0,028
-591,196	54,187	0,103	0,073
-590,182	151,401	0,058	-0,058
-589,167	43,705	-0,031	0,021
-588,152	-95,417	0,132	0,026
-587,138	-200,000	0,001	0,110
-586,123	94,129	-0,069	0,057
-585,109	-91,654	0,035	0,007
-584,094	46,051	0,138	0,094
-583,079	84,136	0,076	0,061
-582,065	133,717	0,054	-0,051
-581,050	-94,075	-0,047	-0,009
-580,036	-200,000	0,013	0,050
-579,021	-200,000	-0,003	-0,011
-578,006	-55,212	0,091	0,030
-576,992	-11,982	-0,173	-0,083
-575,977	-132,166	0,136	0,013
-574,963	212,574	0,049	0,057
-573,948	303,410	0,030	-0,040
-572,934	29,243	-0,067	-0,042
-571,919	-158,112	-0,082	0,003
-570,904	126,181	0,103	0,096
-569,890	-200,000	-0,002	-0,071
-568,875	-58,478	-0,072	0,023
-567,861	-77,992	-0,115	0,029
-566,846	243,723	0,060	-0,074
-565,831	-200,000	0,002	0,122
-564,817	-200,000	-0,005	-0,078
-563,802	-200,000	-0,030	0,108
-562,788	-20,791	0,090	-0,040
-561,773	-163,649	0,060	0,002
-560,758	-11,769	-0,082	0,039
-559,744	-200,000	-0,014	-0,156
-558,729	106,202	-0,040	0,035
-557,715	800,000	-0,077	0,191
-556,700	-200,000	-0,006	0,049
-555,685	800,000	0,053	-0,168
-554,671	243,770	0,106	-0,130
-553,656	607,149	-0,021	0,039
-552,642	-87,664	0,086	-0,019
-551,627	-200,000	-0,040	-0,147
-550,612	-118,856	0,076	0,010
-549,598	75,795	-0,150	0,116
-548,583	382,318	-0,082	-0,124
-547,569	600,749	0,053	0,097
-546,554	448,533	0,036	-0,057
-545,539	-50,750	0,060	0,020
-544,525	672,879	0,016	-0,030
-543,510	-142,527	-0,127	0,009
-542,496	800,000	0,058	-0,119
-541,481	-77,611	0,091	0,023
-540,466	-7,564	-0,099	-0,049
-539,452	-200,000	0,017	0,061
-538,437	382,832	-0,038	0,057
-537,423	-52,764	0,063	-0,021
-536,408	-33,842	-0,054	-0,022
-535,393	350,321	0,025	-0,036
-534,379	800,000	-0,053	-0,161
-533,364	106,421	0,125	-0,108
-532,350	112,396	0,084	0,074
-531,335	50,294	0,094	0,065
-530,321	24,457	0,085	-0,051
-529,306	767,859	-0,056	0,113
-528,291	-43,325	0,061	-0,022
-527,277	63,046	0,138	-0,101
-526,262	800,000	-0,005	-0,011
-525,248	-200,000	-0,005	-0,017
-524,233	125,268	-0,060	0,055
-523,218	800,000	-0,019	-0,050
-522,204	207,371	-0,054	0,062
-521,189	124,517	0,021	-0,020
-520,175	89,055	0,112	-0,091
-519,160	-58,918	-0,150	0,047
-518,145	-185,969	0,068	0,001
-517,131	179,052	0,036	0,038
-516,116	591,539	-0,043	0,079
-515,102	-71,749	0,061	0,017
-514,087	-200,000	-0,007	-0,106
-513,072	134,263	-0,082	-0,077
-512,058	800,000	-0,053	-0,146
-511,043	-200,000	-0,004	-0,193
-510,029	182,563	0,111	0,119
-509,014	276,043	0,009	-0,012
-507,999	88,231	0,083	0,068
-506,985	-45,847	-0,061	-0,022
-505,970	76,528	-0,023	-0,018
-504,956	439,179	-0,095	-0,152
-503,941	176,158	-0,182	-0,193
-502,926	41,106	0,107	0,070
-501,912	-81,351	-0,056	-0,013
-500,897	800,000	-0,041	0,111
-499,883	-8,881	-0,126	-0,061
-498,868	-200,000	-0,010	-0,125
-497,853	-107,862	-0,079	0,012
-496,839	-34,717	0,128	0,051
-495,824	-180,331	-0,068	-0,001
-494,810	9,772	0,244	0,134
-493,795	-84,601	-0,064	0,015
-492,781	249,917	0,050	-0,062
-491,766	665,088	-0,018	0,034
-490,751	147,208	-0,050	-0,049
-489,737	-200,000	0,032	0,166
-488,722	-200,000	0,002	0,055
-487,708	-195,745	0,050	-0,000
-486,693	-200,000	0,074	0,239
-485,678	-86,850	-0,138	0,031
-484,664	-53,491	-0,101	-0,033
-483,649	122,350	-0,083	-0,075
-482,635	-200,000	-0,029	-0,102
-481,620	404,465	-0,007	-0,011
-480,605	129,417	0,077	0,071
-479,591	-163,667	-0,107	-0,004
-478,576	-46,573	-0,045	0,016
-477,562	-200,000	-0,005	-0,041
-476,547	-75,924	-0,109	-0,028
-475,532	-8,224	0,038	-0,019
-474,518	-200,000	0,015	0,059
-473,503	-200,000	-0,012	0,095
-472,489	708,949	-0,024	0,047
-471,474	-139,902	-0,115	0,009
-470,459	-200,000	0,000	-0,137
-469,445	99,661	-0,139	-0,118
-468,430	-200,000	0,013	-0,072
-467,416	571,250	0,020	-0,035
-466,401	800,000	0,057	0,133
-465,386	-35,719	0,098	-0,038
-464,372	-200,000	-0,017	0,059
-463,357	-71,837	-0,030	-0,008
-462,343	800,000	-0,006	0,015
-461,328	110,356	0,026	-0,023
-460,313	-18,543	0,036	-0,016
-459,299	-42,605	0,067	-0,025
-458,284	-200,000	-0,011	-0,067
-457,270	78,185	0,072	-0,056
-456,255	32,208	0,083	-0,052
-455,241	152,851	-0,042	0,041
-454,226	-56,692	-0,062	-0,020
-453,211	800,000	-0,056	0,122
-452,197	7,667	0,038	0,021
-451,182	-119,136	-0,066	-0,008
-450,168	-38,592	0,043	0,016
-449,153	-16,000	-0,040	-0,018
-448,138	116,594	0,028	-0,025
-447,124	-38,209	0,108	0,041
-446,109	-131,413	0,035	-0,003
-445,095	-200,000	-0,003	0,137
-444,080	800,000	-0,023	0,068
-443,065	-200,000	-0,004	-0,018
-442,051	-125,555	-0,113	-0,012
-441,036	-55,559	-0,112	0,036
-440,022	539,472	0,043	-0,074
-439,007	110,742	-0,040	0,035
-437,992	25,223	-0,144	0,087
-436,978	-200,000	0,015	0,151
-435,963	-103,474	0,094	0,016
-434,949	94,026	0,016	-0,013
-433,934	-103,605	-0,087	0,015
-432,919	8,732	-0,105	0,057
-431,905	-139,320	0,038	0,003
-430,890	224,274	0,056	-0,066
-429,876	384,122	-0,075	0,113
-428,861	86,433	0,115	0,093
-427,846	-200,000	0,011	0,046
-426,832	-31,653	0,063	0,025
-425,817	659,551	-0,066	-0,124
-424,803	-40,046	0,095	-0,036
-423,788	-93,968	0,102	0,020
-422,773	163,678	-0,034	0,035
-421,759	4,569	0,068	-0,036
-420,744	800,000	0,038	-0,102
-419,730	658,167	-0,061	0,115
-418,715	800,000	0,041	-0,091
-417,701	-84,619	-0,092	-0,021
-416,686	-200,000	-0,025	0,160
-415,671	111,915	0,058	-0,051
-414,657	-200,000	-0,012	0,118
-413,642	-110,515	0,033	0,005
-412,628	45,347	0,108	0,072
-411,613	93,861	0,096	0,079
-410,598	721,399	0,033	-0,065
-409,584	161,186	0,102	0,104
-408,569	-34,288	0,059	0,024
-407,555	-166,912	-0,051	0,002
-406,540	800,000	0,008	-0,024
-405,525	655,992	-0,037	-0,069
-404,511	165,528	0,082	-0,084
-403,496	18,099	-0,107	-0,062
-402,482	800,000	-0,028	-0,057
-401,467	178,083	0,113	-0,120
-400,452	756,612	-0,014	0,028
-399,438	248,895	0,004	0,005
-398,423	29,927	-0,089	0,055
-397,409	90,014	-0,113	-0,091
-396,394	-200,000	0,034	-0,156
-395,379	589,702	-0,060	-0,108
-394,365	-97,024	-0,098	0,019
-393,350	-50,907	0,124	0,042
-392,336	-200,000	0,004	-0,027
-391,321	18,168	0,023	0,013
-390,306	-200,000	-0,019	-0,063
-389,292	5,607	-0,111	-0,060
-388,277	70,905	-0,038	-0,029
-387,263	6,746	0,109	0,059
-386,248	800,000	0,061	0,150
-385,233	-200,000	-0,011	0,105
-384,219	-15,618	0,064	0,029
-383,204	-141,211	-0,029	0,002
-382,190	-200,000	-0,022	0,127
-381,175	66,154	0,034	-0,025
-380,160	-200,000	0,009	0,040
-379,146	-200,000	0,011	0,046
-378,131	-16,579	-0,040	-0,019
-377,117	96,347	-0,017	0,014
-376,102	-178,969	0,119	0,002
-375,088	-164,367	0,155	0,005
-374,073	1,311	-0,034	-0,018
-373,058	89,120	-0,024	-0,019
-372,044	-51,078	-0,068	-0,023
-371,029	-200,000	0,004	0,076
-370,015	140,529	-0,068	-0,065
-369,000	92,252	0,007	0,005
-367,985	53,905	-0,044	0,031
-366,971	-200,000	0,003	0,040
-365,956	-95,384	-0,036	-0,007
-364,942	511,551	-0,037	-0,062
-363,927	147,709	0,092	0,090
-362,912	-200,000	-0,009	0,177
-361,898	800,000	-0,125	-0,311
-360,883	-200,000	-0,007	-0,074
-359,869	-147,618	-0,062	-0,004
-358,854	37,296	0,150	0,096
-357,839	238,141	0,079	0,096
-356,825	239,246	-0,093	-0,113
-355,810	225,570	0,112	0,132
-354,796	731,318	0,037	0,072
-353,781	-200,000	-0,012	-0,117
-352,766	-200,000	-0,010	0,048
-351,752	-200,000	-0,002	0,034
-350,737	800,000	0,033	0,103
-349,723	-113,433	-0,082	-0,011
-348,708	-53,819	-0,126	-0,041
-347,693	-200,000	-0,010	-0,049
-346,679	16,072	-0,080	0,046
-345,664	-136,699	0,092	0,008
-344,650	800,000	0,017	-0,044
-343,635	-124,473	0,170	0,019
-342,620	-49,461	-0,081	0,028
-341,606	-186,494	-0,146	0,001
-340,591	800,000	0,009	-0,029
-339,577	-186,649	-0,047	-0,000
-338,562	-200,000	-0,014	-0,209
-337,548	628,280	0,044	-0,080
-336,533	113,980	0,027	0,024
-335,518	488,653	0,012	0,021
-334,504	119,784	-0,043	0,039
-333,489	617,661	0,061	0,112
-332,475	158,178	-0,034	-0,034
-331,460	-81,967	0,065	-0,015
-330,445	-126,690	-0,099	-0,010
-329,431	-200,000	0,014	-0,096
-328,416	116,234	0,096	0,085
-327,402	676,490	0,045	0,085
-326,387	33,341	0,105	-0,066
-325,372	-63,100	0,107	0,032
-324,358	-46,700	-0,169	-0,060
-323,343	137,654	0,124	0,118
-322,329	459,831	0,067	0,108
-321,314	-200,000	-0,008	0,138
-320,299	21,049	0,043	0,025
-319,285	428,954	0,043	0,068
-318,270	280,034	-0,016	0,020
-317,256	800,000	0,035	0,095
-316,241	-200,000	-0,018	-0,080
-315,226	800,000	0,027	0,060
-314,212	162,240	0,102	0,104
-313,197	-200,000	-0,008	-0,087
-312,183	-200,000	0,022	-0,082
-311,168	155,495	0,044	0,043
-310,153	800,000	-0,033	0,073
-309,139	-200,000	0,013	0,087
-308,124	68,074	0,020	-0,015
-307,110	-200,000	0,025	-0,121
-306,095	800,000	0,022	0,052
-305,080	-200,000	0,016	0,102
-304,066	-200,000	0,012	0,102
-303,051	44,732	0,092	0,061
-302,037	-99,943	-0,104	0,019
-301,022	-200,000	0,005	-0,143
-300,008	107,243	0,124	0,106
-298,993	39,125	0,101	-0,066
-297,978	344,799	0,068	0,097
-296,964	130,095	-0,027	-0,025
-295,949	-70,978	-0,083	0,022
-294,935	-46,611	-0,086	0,030
-293,920	-113,715	-0,089	-0,012
-292,905	478,012	0,062	0,103
-291,891	-200,000	-0,022	0,080
-290,876	-33,921	-0,145	0,057
-289,862	-15,423	0,130	-0,060
-288,847	-5,465	-0,058	-0,029
-287,832	-138,327	0,108	-0,009
-286,818	800,000	-0,035	0,090
-285,803	-81,701	0,093	0,022
-284,789	-107,231	0,137	0,022
-283,774	506,683	0,041	-0,069
-282,759	-87,715	-0,080	0,017
-281,745	-200,000	-0,002	-0,083
-280,730	667,615	0,021	-0,039
-279,716	800,000	0,072	-0,144
-278,701	-200,000	0,009	-0,130
-277,686	800,000	-0,016	0,047
-276,672	158,035	0,064	0,064
-275,657	145,763	-0,077	-0,074
-274,643	12,048	0,070	-0,039
-273,628	-93,622	0,119	0,024
-272,613	-123,002	0,023	0,003
-271,599	-16,293	0,094	-0,043
-270,584	-63,413	-0,028	0,008
-269,570	515,743	0,029	-0,049
-268,555	-200,000	0,005	-0,041
-267,540	-44,720	-0,128	0,046
-266,526	109,145	0,059	-0,051
-265,511	110,955	0,005	-0,004
-264,497	434,278	0,024	0,038
-263,482	800,000	-0,006	-0,017
-262,467	-200,000	0,011	-0,092
-261,453	-200,000	-0,025	0,101
-260,438	1,972	-0,077	-0,040
-259,424	-148,954	-0,128	0,007
-258,409	-21,539	-0,120	-0,053
-257,395	-200,000	0,002	-0,027
-256,380	280,027	0,085	0,110
-255,365	113,603	-0,027	0,023
-254,351	100,150	-0,058	-0,049
-253,336	-34,549	-0,147	-0,058
-252,322	-200,000	-0,015	-0,064
-251,307	-200,000	0,017	-0,144
-250,292	-67,101	0,058	-0,016
-249,278	2,894	-0,023	0,012
-248,263	68,274	0,079	0,059
-247,249	800,000	-0,052	0,114
-246,234	-200,000	-0,024	-0,091
-245,219	430,747	-0,068	-0,107
-244,205	142,792	0,052	0,050
-243,190	64,488	0,109	-0,080
-242,176	16,602	0,043	0,025
-241,161	-200,000	0,019	-0,156
-240,146	62,481	0,076	-0,055
-239,132	201,687	0,036	0,040
-238,117	-200,000	-0,016	0,104
-237,103	-87,617	-0,107	-0,023
-236,088	323,182	0,082	0,113
-235,073	50,320	0,053	-0,036
-234,059	-76,926	0,058	0,015
-233,044	-200,000	0,014	-0,097
-232,030	-27,353	-0,040	0,017
-231,015	167,414	0,047	0,048
-230,000	-200,000	-0,044	-0,173
-228,986	62,421	-0,067	0,048
-227,971	-65,016	-0,113	-0,033
-226,957	86,014	-0,104	0,082
-225,942	221,355	0,072	0,083
-224,927	-200,000	0,118	-0,000
-223,913	468,029	-0,032	0,052
-222,898	-87,499	-0,077	-0,017
-221,884	800,000	0,026	0,076
-220,869	7,409	0,053	-0,028
-219,855	-44,928	0,077	0,028
-218,840	800,000	-0,014	-0,038
-217,825	295,524	-0,054	-0,072
-216,811	0,982	-0,206	-0,106
-215,796	603,867	0,051	0,091
-214,782	-134,922	0,078	0,007
-213,767	-101,311	-0,094	0,016
-212,752	800,000	0,015	-0,042
-211,738	-118,990	-0,035	-0,004
-210,723	800,000	0,037	0,084
-209,709	800,000	0,014	-0,031
-208,694	61,244	-0,035	0,025
-207,679	-105,650	-0,086	0,014
-206,665	23,420	-0,056	-0,033
-205,650	-200,000	-0,006	0,035
-204,636	16,886	0,059	-0,033
-203,621	-74,551	-0,127	-0,033
-202,606	662,897	-0,053	-0,099
-201,592	-116,699	0,071	0,009
-200,577	194,590	-0,087	-0,095
-199,563	142,774	-0,028	-0,027
-198,548	733,480	0,031	-0,060
-197,533	-106,547	0,111	-0,018
-196,519	-162,798	0,034	0,001
-195,504	800,000	-0,032	0,066
-194,490	-94,406	-0,144	-0,028
-193,475	800,000	-0,021	-0,061
-192,460	-70,730	-0,112	0,030
-191,446	321,891	0,015	-0,021
-190,431	-196,817	0,069	0,000
-189,417	800,000	-0,026	0,067
-188,402	677,857	0,030	0,056
-187,387	-12,366	0,059	-0,028
-186,373	-93,059	-0,061	0,012
-185,358	6,979	-0,053	0,029
-184,344	800,000	0,029	-0,090
-183,329	-200,000	0,014	0,252
-182,315	122,415	0,170	0,153
-181,300	64,801	-0,073	-0,053
-180,285	800,000	0,022	-0,048
-179,271	-111,432	0,134	-0,019
-178,256	109,547	-0,111	0,096
-177,242	693,095	-0,023	-0,043
-176,227	408,114	0,085	-0,131
-175,212	800,000	0,062	0,132
-174,198	631,865	0,039	-0,071
-173,183	-67,511	0,112	0,031
-172,169	-121,508	-0,169	-0,020
-171,154	508,202	0,005	0,008
-170,139	390,421	0,062	0,094
-169,125	-156,590	0,097	-0,004
-168,110	-119,627	-0,167	-0,021
-167,096	-200,000	0,003	-0,018
-166,081	38,011	-0,185	-0,118
-165,066	-22,173	-0,078	-0,034
-164,052	313,751	0,062	-0,084
-163,037	800,000	0,036	-0,081
-162,023	-200,000	-0,036	0,159
-161,008	284,172	0,056	0,073
-159,993	-200,000	-0,001	0,036
-158,979	-186,755	-0,139	0,001
-157,964	-200,000	0,024	-0,219
-156,950	261,389	-0,128	-0,160
-155,935	-138,937	0,041	-0,003
-154,920	255,087	0,036	-0,045
-153,906	-50,708	0,082	0,028
-152,891	-183,570	-0,102	-0,001
-151,877	689,588	0,040	-0,077
-150,862	19,175	-0,034	0,020
-149,847	-200,000	0,038	-0,137
-148,833	-200,000	-0,004	-0,102
-147,818	-200,000	0,020	-0,070
-146,804	102,962	0,055	-0,046
-145,789	-23,769	-0,104	0,045
-144,775	-200,000	0,026	0,094
-143,760	800,000	-0,016	0,044
-142,745	800,000	-0,053	-0,128
-141,731	75,733	-0,069	0,052
-140,716	254,672	0,095	-0,118
-139,702	171,204	0,016	0,016
-138,687	-61,815	-0,065	0,019
-137,672	-96,052	0,075	-0,014
-136,658	800,000	0,044	0,112
-135,643	-200,000	-0,007	0,047
-134,629	80,597	-0,078	-0,060
-133,614	-82,867	0,163	-0,038
-132,599	-20,877	0,105	0,046
-131,585	318,693	0,054	0,074
-130,570	-200,000	-0,001	0,051
-129,556	-200,000	0,008	-0,115
-128,541	-200,000	-0,001	0,014
-127,526	-40,000	-0,129	-0,048
-126,512	297,796	0,021	-0,028
-125,497	107,843	0,049	-0,042
-124,483	143,187	-0,123	0,118
-123,468	-56,351	-0,157	0,050
-122,453	-200,000	0,003	-0,089
-121,439	15,216	-0,025	0,014
-120,424	800,000	-0,044	0,107
-119,410	318,328	-0,050	0,068
-118,395	314,235	0,020	-0,027
-117,380	138,748	-0,089	0,084
-116,366	-69,673	-0,162	-0,044
-115,351	-113,692	0,085	0,012
-114,337	493,262	-0,032	-0,053
-113,322	-200,000	-0,041	-0,154
-112,307	52,513	-0,023	0,016
-111,293	26,637	0,129	0,078
-110,278	-200,000	-0,046	0,215
-109,264	-10,474	0,072	-0,034
-108,249	35,978	0,048	0,030
-107,234	800,000	0,067	-0,176
-106,220	800,000	0,075	0,164
-105,205	-29,918	0,052	0,021
-104,191	180,988	0,037	0,039
-103,176	-166,457	0,014	0,000
-102,162	63,338	-0,047	0,034
-101,147	98,500	-0,031	-0,025
-100,132	-153,635	-0,194	-0,009
-99,118	-200,000	-0,012	0,052
-98,103	-180,270	-0,019	0,000
-97,089	-122,414	0,154	-0,018
-96,074	-105,151	-0,162	0,026
-95,059	125,274	0,071	0,064
-94,045	-117,411	-0,097	-0,012
-93,030	800,000	-0,016	0,046
-92,016	-16,227	0,016	-0,007
-91,001	-200,000	0,008	0,097
-89,986	65,527	-0,044	-0,032
-88,972	800,000	0,058	0,131
-87,957	7,626	0,060	0,032
-86,943	17,140	-0,079	-0,045
-85,928	800,000	0,047	-0,105
-84,913	152,176	-0,067	-0,066
-83,899	-200,000	0,015	-0,119
-82,884	329,255	-0,068	0,095
-81,870	631,478	-0,095	-0,173
-80,855	-200,000	-0,009	-0,077
-79,840	-107,023	-0,090	-0,014
-78,826	195,186	0,028	-0,031
-77,811	-200,000	0,010	0,081
-76,797	-2,678	-0,086	-0,043
-75,782	89,214	0,087	0,070
-74,767	62,692	0,029	0,021
-73,753	-69,294	-0,022	-0,006
-72,738	465,048	0,011	0,018
-71,724	491,132	-0,015	-0,024
-70,709	-129,479	-0,070	0,007
-69,694	86,077	0,093	0,073
-68,680	-200,000	-0,036	0,166
-67,665	0,490	-0,073	0,038
-66,651	800,000	-0,043	0,123
-65,636	800,000	-0,032	-0,091
-64,622	-141,473	0,005	-0,000
-63,607	370,159	-0,037	-0,054
-62,592	264,384	0,016	-0,020
-61,578	77,026	-0,042	0,032
-60,563	-21,211	0,060	0,026
-59,549	19,778	0,067	-0,038
-58,534	8,527	-2,015	-1,085
-57,519	-200,000	-0,237	-0,851
-56,505	-200,000	-1,343	-5,039
-55,490	127,096	0,786	0,715
-54,476	800,000	5,422	12,131
-53,461	-200,000	18,069	297,296
-52,446	800,000	732,823	2259,486
-51,432	542,804	1649,194	2833,387
-50,417	109,337	1637,573	1406,394
-49,403	74,410	1288,186	970,304
-48,388	31,123	1028,191	631,318
-47,373	20,014	990,361	571,412
-46,359	18,028	977,785	557,623
-45,344	14,929	973,796	545,175
-44,330	15,223	972,342	545,305
-43,315	14,664	970,420	542,376
-42,300	14,605	969,496	541,645
-41,286	14,557	968,575	540,955
-40,271	14,618	967,328	540,434
-39,257	14,618	966,469	539,934
-38,242	14,613	965,542	539,379
-37,227	14,671	964,898	539,186
-36,213	14,631	963,961	538,510
-35,198	14,623	963,139	538,003
-34,184	14,621	962,477	537,608
-33,169	14,664	961,261	537,045
-32,154	14,694	960,354	536,615
-31,140	14,623	959,642	535,964
-30,125	14,658	958,787	535,579
-29,111	14,677	957,940	535,146
-28,096	14,600	957,285	534,511
-27,082	14,697	956,514	534,371
-26,067	14,657	955,781	533,812
-25,052	14,624	955,077	533,291
-24,038	14,646	954,544	533,045
-23,023	14,664	953,674	532,594
-22,009	14,630	953,121	532,155
-20,994	14,623	952,621	531,833
-19,979	14,668	951,867	531,534
-18,965	14,663	951,070	531,051
-17,950	14,661	950,463	530,686
-16,936	14,557	950,010	530,080
-15,921	14,604	949,352	529,842
-14,906	14,555	948,470	529,173
-13,892	14,505	948,025	528,743
-12,877	14,490	947,117	528,167
-11,863	14,482	946,834	527,964
-10,848	14,485	946,188	527,592
-9,833	14,630	945,620	527,715
-8,819	14,584	945,119	527,270
-7,804	14,601	944,415	526,910
-6,790	14,557	943,808	526,411
-5,775	14,599	943,176	526,171
-4,760	14,597	942,591	525,817
-3,746	14,537	942,194	525,385
-2,731	14,434	941,173	524,468
-1,717	14,347	940,580	523,842
-0,702	14,384	939,882	523,550
0,313	14,178	939,430	523,437
1,327	17,305	937,133	531,966
2,342	26,016	793,423	473,459
3,356	22,502	458,296	268,085
4,371	-4,145	314,816	155,778
5,386	-8,169	296,623	142,685
6,400	-10,135	290,465	137,757
7,415	-10,465	287,992	136,246
8,429	-10,504	286,575	135,526
9,444	-10,668	285,730	134,953
10,459	-10,454	285,080	134,843
11,473	-10,553	284,476	134,449
12,488	-10,606	283,904	134,116
13,502	-10,613	283,538	133,923
14,517	-10,667	283,028	133,619
15,531	-10,612	282,578	133,448
16,546	-10,540	282,201	133,327
17,561	-10,579	281,734	133,057
18,575	-10,409	281,532	133,113
19,590	-10,480	280,995	132,779
20,604	-10,513	280,725	132,608
21,619	-10,500	280,384	132,448
22,634	-10,537	280,048	132,242
23,648	-10,602	279,646	131,978
24,663	-10,595	279,516	131,912
25,677	-10,762	279,296	131,637
26,692	-10,480	279,026	131,767
27,707	-10,501	278,693	131,578
28,721	-10,721	278,451	131,242
29,736	-10,760	278,293	131,119
30,750	-10,583	277,917	131,098
31,765	-10,645	277,626	130,891
32,780	-10,624	277,454	130,818
33,794	-10,557	277,196	130,748
34,809	-10,494	277,005	130,706
35,823	-10,680	276,535	130,297
36,838	-10,585	276,397	130,310
37,853	-10,613	276,221	130,188
38,867	-10,628	275,833	129,980
39,882	-10,765	275,697	129,775
40,896	-10,540	275,499	129,883
41,911	-10,718	275,315	129,617
42,926	-10,751	274,975	129,414
43,940	-10,711	274,606	129,266
44,955	-10,889	274,581	129,076
45,969	-10,594	274,157	129,141
46,984	-10,905	273,993	128,762
47,999	-10,996	273,710	128,533
49,013	-10,952	273,482	128,456
50,028	-11,261	273,231	128,038
51,042	-11,287	272,850	127,824
52,057	-11,338	272,576	127,636
53,071	-11,229	272,502	127,692
54,086	-11,075	272,259	127,709
55,101	-10,988	272,158	127,732
56,115	-10,847	272,040	127,796
57,130	-10,567	271,856	127,957
58,144	-10,600	271,677	127,830
59,159	-10,364	271,189	127,808
60,174	-10,462	271,181	127,702
61,188	-10,498	270,899	127,525
62,203	-10,681	270,791	127,294
63,217	-10,438	270,420	127,332
64,232	-10,572	270,291	127,137
65,247	-10,357	269,972	127,172
66,261	-10,377	269,654	126,993
67,276	-10,587	269,517	126,724
68,290	-10,718	269,219	126,453
69,305	-10,733	268,930	126,292
70,320	-10,784	268,884	126,213
71,334	-10,562	268,566	126,255
72,349	-10,356	268,423	126,365
73,363	-10,582	268,119	126,004
74,378	-10,552	267,844	125,891
75,393	-10,525	267,702	125,837
76,407	-10,558	267,478	125,692
77,422	-10,441	267,205	125,658
78,436	-10,612	267,160	125,470
79,451	-10,499	266,959	125,467
80,466	-10,449	266,500	125,286
81,480	-10,692	266,412	125,013
82,495	-10,703	266,187	124,886
83,509	-10,655	265,979	124,821
84,524	-10,738	265,875	124,686
85,539	-10,654	265,544	124,595
86,553	-10,671	265,344	124,476
87,568	-10,605	265,188	124,451
88,582	-10,575	264,893	124,328
89,597	-10,710	264,816	124,160
90,611	-10,549	264,524	124,156
91,626	-10,678	264,440	123,990
92,641	-10,729	264,241	123,839
93,655	-10,547	264,009	123,883
94,670	-10,557	263,713	123,724
95,684	-10,575	263,501	123,598
96,699	-10,701	263,376	123,415
97,714	-10,656	263,304	123,411
98,728	-10,655	262,902	123,212
99,743	-10,843	262,764	122,968
100,757	-10,836	262,559	122,868
101,772	-10,788	262,278	122,768
102,787	-10,573	262,107	122,869
103,801	-10,634	261,984	122,746
104,816	-10,562	261,783	122,705
105,830	-10,438	261,728	122,778
106,845	-10,628	261,505	122,494
107,860	-10,478	261,232	122,488
108,874	-10,605	261,020	122,265
109,889	-10,576	260,857	122,204
110,903	-10,607	260,579	122,035
111,918	-10,825	260,556	121,821
112,933	-10,691	260,138	121,732
113,947	-10,444	259,927	121,840
114,962	-10,564	259,927	121,724
115,976	-10,538	259,647	121,605
116,991	-10,280	259,361	121,687
118,006	-10,612	259,254	121,335
119,020	-10,615	259,212	121,301
120,035	-10,460	259,057	121,354
121,049	-10,516	258,618	121,088
122,064	-10,518	258,593	121,064
123,079	-10,408	258,406	121,062
124,093	-10,448	258,091	120,869
125,108	-10,561	257,881	120,661
126,122	-10,797	257,563	120,296
127,137	-11,021	257,558	120,087
128,151	-10,849	257,223	120,069
129,166	-10,559	257,109	120,259
130,181	-10,564	256,892	120,142
131,195	-10,638	256,667	119,961
132,210	-10,680	256,485	119,829
133,224	-10,465	256,275	119,907
134,239	-10,478	256,170	119,836
135,254	-10,495	256,074	119,765
136,268	-10,631	255,789	119,504
137,283	-10,822	255,479	119,184
138,297	-10,846	255,299	119,068
139,312	-10,833	255,021	118,939
140,327	-10,624	254,978	119,089
141,341	-10,457	254,961	119,214
142,356	-10,542	254,739	119,027
143,370	-10,668	254,674	118,876
144,385	-10,343	254,433	119,034
145,400	-10,445	254,310	118,878
146,414	-10,372	254,067	118,817
147,429	-10,355	253,717	118,656
148,443	-10,097	253,589	118,806
149,458	-10,338	253,465	118,532
150,473	-10,304	253,345	118,494
151,487	-10,563	253,125	118,160
152,502	-10,430	252,866	118,142
153,516	-10,354	252,824	118,176
154,531	-10,408	252,523	117,979
155,546	-10,387	252,402	117,929
156,560	-10,426	252,209	117,796
157,575	-10,410	251,739	117,580
158,589	-10,379	251,646	117,552
159,604	-10,443	251,553	117,444
160,619	-10,489	251,497	117,368
161,633	-10,409	251,387	117,374
162,648	-10,156	251,203	117,493
163,662	-10,370	251,014	117,212
164,677	-10,402	250,829	117,088
165,692	-10,384	250,634	117,002
166,706	-10,357	250,350	116,882
167,721	-10,417	250,278	116,787
168,735	-10,475	250,135	116,661
169,750	-10,465	250,010	116,601
170,764	-10,202	249,815	116,721
171,779	-10,372	249,769	116,546
172,794	-10,318	249,413	116,415
173,808	-10,356	249,392	116,362
174,823	-10,675	248,975	115,889
175,837	-10,766	248,806	115,725
176,852	-10,453	248,760	115,955
177,867	-10,353	248,646	115,976
178,881	-10,470	248,562	115,828
179,896	-10,249	248,236	115,851
180,910	-10,389	248,170	115,693
181,925	-10,280	247,924	115,659
182,940	-10,387	247,945	115,569
183,954	-10,318	247,609	115,459
184,969	-10,369	247,421	115,319
185,983	-10,312	247,276	115,289
186,998	-10,257	247,148	115,264
188,013	-10,434	246,879	114,981
189,027	-10,180	246,724	115,110
190,042	-10,281	246,475	114,900
191,056	-10,339	246,397	114,805
192,071	-10,410	246,212	114,649
193,086	-10,353	246,153	114,660
194,100	-10,481	245,811	114,384
195,115	-10,302	245,738	114,487
196,129	-10,317	245,492	114,350
197,144	-10,368	245,121	114,125
198,159	-10,273	245,128	114,197
199,173	-10,309	244,930	114,065
200,188	-10,399	244,756	113,899
201,202	-10,496	244,383	113,636
202,217	-10,788	244,116	113,262
203,232	-10,909	244,116	113,152
204,246	-10,433	244,123	113,536
205,261	-10,229	243,923	113,601
206,275	-11,009	243,355	112,687
207,290	-6,555	245,341	117,269
208,304	1,230	247,804	124,898
209,319	4,177	248,466	127,665
210,334	4,588	248,536	128,030
211,348	4,779	248,264	128,037
212,363	4,870	248,263	128,100
213,377	5,106	248,100	128,200
214,392	4,875	248,055	127,974
215,407	4,851	247,809	127,816
216,421	4,830	247,580	127,669
217,436	4,867	247,662	127,731
218,450	5,131	247,365	127,784
219,465	5,033	247,026	127,517
220,480	4,694	246,873	127,148
221,494	4,548	246,915	127,038
222,509	4,763	246,580	127,030
223,523	4,664	246,354	126,821
224,538	4,342	246,097	126,414
225,553	4,157	246,191	126,300
226,567	4,484	245,856	126,384
227,582	4,548	245,847	126,420
228,596	4,483	245,616	126,237
229,611	4,356	245,367	125,994
230,626	4,344	244,975	125,772
231,640	4,188	244,987	125,639
232,655	4,429	244,802	125,730
233,669	4,295	244,666	125,540
234,684	4,286	244,408	125,389
235,699	4,665	244,436	125,700
236,713	4,852	244,372	125,809
237,728	4,359	244,106	125,260
238,742	4,086	243,801	124,871
239,757	4,002	243,777	124,779
240,772	4,244	243,543	124,844
241,786	4,566	243,334	124,987
242,801	4,357	243,288	124,783
243,815	4,091	243,128	124,474
244,830	4,399	243,064	124,680
245,844	4,538	242,815	124,653
246,859	4,188	242,672	124,286
247,874	4,170	242,466	124,155
248,888	4,337	242,358	124,223
249,903	4,220	242,285	124,080
250,917	4,235	242,123	123,998
251,932	4,717	241,992	124,307
252,947	4,524	241,807	124,046
253,961	4,366	241,688	123,848
254,976	4,498	241,436	123,814
255,990	4,775	241,289	123,949
257,005	4,295	240,976	123,393
258,020	4,135	240,883	123,206
259,034	4,308	240,685	123,232
260,049	4,336	240,692	123,248
261,063	4,126	240,521	122,981
262,078	4,289	240,288	122,981
263,093	4,543	240,145	123,099
264,107	4,459	240,217	123,058
265,122	4,234	239,995	122,754
266,136	4,769	239,718	123,027
267,151	4,663	239,749	122,948
268,166	4,408	239,364	122,537
269,180	4,378	239,123	122,379
270,195	4,818	239,318	122,817
271,209	4,841	239,180	122,753
272,224	4,291	238,803	122,114
273,239	3,886	238,614	121,686
274,253	4,109	238,352	121,717
275,268	4,253	238,334	121,811
276,282	4,502	238,136	121,895
277,297	4,162	237,923	121,508
278,312	4,320	237,778	121,547
279,326	4,478	237,883	121,715
280,341	4,410	237,634	121,522
281,355	4,519	237,409	121,482
282,370	4,494	237,224	121,357
283,384	4,260	237,168	121,134
284,399	4,245	236,944	120,997
285,414	4,072	236,685	120,718
286,428	4,168	236,535	120,706
287,443	4,504	236,434	120,908
288,457	4,451	236,400	120,837
289,472	4,525	236,189	120,776
290,487	4,331	236,093	120,565
291,501	4,195	235,910	120,355
292,516	4,093	235,733	120,174
293,530	4,120	235,448	120,039
294,545	4,330	235,540	120,239
295,560	4,427	235,262	120,162
296,574	3,944	235,205	119,746
297,589	4,241	235,034	119,880
298,603	4,480	235,050	120,063
299,618	4,705	234,707	120,052
300,633	4,456	234,696	119,842
301,647	4,601	234,565	119,877
302,662	4,804	234,427	119,953
303,676	4,744	234,242	119,801
304,691	4,579	234,097	119,589
305,706	4,943	233,884	119,750
306,720	4,804	233,958	119,670
307,735	4,693	233,663	119,423
308,749	4,361	233,512	119,079
309,764	4,196	233,279	118,822
310,779	4,166	233,110	118,702
311,793	4,028	232,793	118,425
312,808	4,032	232,588	118,313
313,822	3,607	232,388	117,874
314,837	3,824	232,377	118,024
315,852	4,324	232,371	118,395
316,866	4,637	232,238	118,557
317,881	4,734	232,150	118,575
318,895	4,546	232,023	118,356
319,910	4,554	231,869	118,272
320,925	4,345	231,525	117,927
321,939	4,022	231,538	117,676
322,954	4,611	231,331	118,011
323,968	4,492	231,181	117,832
324,983	4,500	231,045	117,759
325,997	4,799	230,913	117,909
327,012	4,483	230,863	117,632
328,027	4,456	230,587	117,460
329,041	4,754	230,473	117,619
330,056	5,079	230,580	117,909
331,070	5,061	230,464	117,826
332,085	4,764	230,185	117,448
333,100	4,584	229,843	117,126
334,114	4,437	229,680	116,921
335,129	4,834	229,635	117,188
336,143	4,882	229,580	117,186
337,158	4,684	229,367	116,918
338,173	4,384	229,302	116,648
339,187	4,450	228,903	116,484
340,202	4,465	229,054	116,561
341,216	4,446	228,703	116,358
342,231	4,426	228,472	116,215
343,246	4,464	228,426	116,210
344,260	4,439	228,390	116,163
345,275	4,640	228,368	116,292
346,289	4,698	228,243	116,261
347,304	4,790	227,980	116,186
348,319	4,723	227,701	115,984
349,333	4,614	227,567	115,823
350,348	4,223	227,259	115,364
351,362	4,399	227,151	115,431
352,377	4,142	227,134	115,219
353,392	4,049	226,797	114,968
354,406	4,080	226,876	115,022
355,421	194,813	1321,446	1395,509
356,435	156,156	1454,779	1395,486
