DTS Sentinel unit serial number:	SN410029Multiplexer serial number:	ORYXHardware model number:	OX2-SRSoftware version number:	ORYX F/W v4,00 Oryx Data Collector v3.7.2.0data status	okinstallation	B5 Nyhavnadifferential loss correction	single-endedforward channel	channel 2reverse channel	N/Adate	2023/12/12time	11:52:13forward acquisition time	300,00reverse acquisition time	0,00gamma	499,1914k internal	0,3158k external	0,3158temperature offset calibration	1,0000default loss term (dB/km)	0,3820temperature slope calibration	1,0000multiplexer offset coefficient	1,0000multiplexer slope coefficient	1,0000fibre end	0,00T internal ref (°C)	15,13T ext. ref 1 (°C)	-0,92T ext. ref 2 (°C)	-1,16length (m)	temperature (°C)	Stokes	anti-Stokes-744,400	55,088	0,178	0,127
-743,385	-53,057	-0,323	0,109
-742,371	-104,591	0,183	0,031
-741,356	-37,639	-0,280	0,109
-740,342	90,292	0,062	0,051
-739,327	-135,762	-0,364	-0,031
-738,312	-32,197	0,078	-0,032
-737,298	-116,916	-0,313	0,042
-736,283	800,000	0,054	0,167
-735,269	-120,775	-0,231	0,028
-734,254	-107,781	-0,045	0,007
-733,239	-52,554	-0,475	-0,161
-732,225	192,900	0,168	0,188
-731,210	-200,000	0,004	0,065
-730,196	800,000	0,034	-0,075
-729,181	97,573	-0,091	0,077
-728,167	800,000	0,026	-0,054
-727,152	248,984	-0,076	-0,095
-726,137	257,023	0,048	0,061
-725,123	-200,000	-0,002	-0,022
-724,108	2,752	0,092	-0,049
-723,094	-140,481	-0,122	-0,009
-722,079	198,008	-0,093	-0,104
-721,064	40,344	0,052	-0,035
-720,050	318,240	0,044	-0,062
-719,035	54,788	-0,110	-0,078
-718,021	800,000	-0,048	-0,157
-717,006	-77,401	-0,184	-0,047
-715,991	-200,000	0,005	-0,154
-714,977	-175,301	-0,025	-0,000
-713,962	-44,605	-0,067	0,025
-712,948	-200,000	0,014	0,091
-711,933	-44,280	0,100	0,037
-710,918	226,799	0,070	-0,083
-709,904	800,000	-0,044	-0,094
-708,889	67,771	-0,083	-0,062
-707,875	-57,211	0,045	-0,014
-706,860	-200,000	0,007	0,042
-705,845	63,025	-0,029	-0,021
-704,831	130,962	0,056	-0,053
-703,816	-87,903	-0,093	-0,020
-702,802	74,213	0,026	-0,020
-701,787	-152,736	-0,118	-0,006
-700,772	-142,251	0,106	-0,008
-699,758	240,449	-0,123	0,151
-698,743	-75,153	-0,076	-0,020
-697,729	137,476	0,050	-0,049
-696,714	-12,860	0,133	-0,064
-695,699	69,830	-0,129	0,098
-694,685	-200,000	0,015	-0,054
-693,670	-44,686	0,027	-0,010
-692,656	172,043	0,078	0,083
-691,641	75,939	-0,063	-0,049
-690,627	-5,188	0,092	-0,046
-689,612	-200,000	0,007	0,093
-688,597	-88,784	-0,204	-0,044
-687,583	165,957	0,056	-0,059
-686,568	133,996	0,098	-0,093
-685,554	-168,998	0,028	-0,001
-684,539	800,000	-0,023	0,068
-683,524	-41,834	-0,061	0,023
-682,510	-74,424	0,126	0,033
-681,495	63,320	-0,018	0,013
-680,481	-200,000	0,028	-0,093
-679,466	800,000	-0,053	-0,126
-678,451	398,466	-0,095	-0,146
-677,437	-44,656	-0,052	-0,019
-676,422	-52,463	-0,171	-0,058
-675,408	687,334	0,025	0,049
-674,393	-85,829	-0,096	0,022
-673,378	56,475	0,107	-0,077
-672,364	-64,987	0,094	-0,028
-671,349	800,000	-0,043	-0,120
-670,335	35,959	0,036	-0,023
-669,320	-110,153	-0,030	-0,005
-668,305	-108,470	-0,092	0,014
-667,291	-98,083	-0,021	0,004
-666,276	354,319	-0,062	-0,091
-665,262	800,000	0,016	0,036
-664,247	800,000	-0,032	-0,090
-663,232	419,170	0,034	-0,053
-662,218	255,162	-0,108	-0,136
-661,203	352,845	0,041	0,060
-660,189	4,266	-0,065	0,035
-659,174	-200,000	-0,024	-0,101
-658,159	-200,000	-0,022	-0,086
-657,145	-59,361	-0,099	-0,031
-656,130	-200,000	0,012	0,086
-655,116	-200,000	-0,023	0,084
-654,101	-200,000	-0,035	-0,145
-653,086	-200,000	-0,001	0,038
-652,072	800,000	0,015	-0,042
-651,057	-11,743	-0,063	0,030
-650,043	672,090	0,043	-0,081
-649,028	146,313	-0,031	-0,031
-648,014	322,934	0,043	0,060
-646,999	800,000	0,022	0,070
-645,984	-71,020	0,079	-0,022
-644,970	-200,000	-0,006	0,038
-643,955	740,280	-0,066	-0,130
-642,941	75,269	0,077	-0,059
-641,926	-24,511	-0,061	-0,027
-640,911	89,705	-0,066	-0,054
-639,897	-8,048	0,065	0,032
-638,882	-200,000	0,015	-0,066
-637,868	468,180	-0,089	-0,147
-636,853	-43,711	-0,092	-0,034
-635,838	-200,000	-0,042	-0,153
-634,824	-200,000	-0,005	-0,058
-633,809	483,237	0,036	-0,061
-632,795	-200,000	-0,010	0,080
-631,780	-173,143	-0,135	-0,003
-630,765	-114,431	0,015	0,002
-629,751	159,745	-0,040	-0,041
-628,736	271,344	-0,124	-0,161
-627,722	-200,000	0,006	-0,107
-626,707	-73,716	0,048	-0,013
-625,692	-200,000	0,015	0,166
-624,678	222,534	-0,120	-0,141
-623,663	-200,000	0,012	-0,124
-622,649	110,382	-0,070	-0,062
-621,634	23,761	-0,057	-0,034
-620,619	265,999	-0,072	-0,093
-619,605	-41,776	0,095	-0,036
-618,590	43,832	-0,048	-0,032
-617,576	800,000	0,034	0,094
-616,561	-35,162	0,163	-0,065
-615,546	698,713	0,053	0,103
-614,532	-200,000	-0,004	-0,088
-613,517	52,299	-0,070	-0,049
-612,503	515,034	-0,077	-0,132
-611,488	-110,434	-0,063	0,010
-610,474	-200,000	0,027	0,095
-609,459	-17,427	-0,035	-0,016
-608,444	800,000	0,045	-0,145
-607,430	-200,000	-0,029	-0,104
-606,415	-200,000	0,041	-0,147
-605,401	94,628	-0,046	0,039
-604,386	-42,265	0,095	-0,036
-603,371	92,374	-0,164	0,136
-602,357	139,070	-0,057	0,055
-601,342	-200,000	0,009	-0,034
-600,328	-81,670	-0,186	-0,044
-599,313	-81,745	0,092	0,022
-598,298	-95,366	-0,078	0,015
-597,284	102,896	0,061	0,052
-596,269	-132,830	0,074	-0,007
-595,255	-200,000	-0,003	0,067
-594,240	-200,000	-0,004	-0,065
-593,225	-30,479	-0,167	-0,069
-592,211	-32,124	-0,091	0,037
-591,196	-200,000	-0,000	0,007
-590,182	-159,352	0,070	0,003
-589,167	800,000	-0,055	0,132
-588,152	182,032	-0,099	0,107
-587,138	60,895	-0,086	-0,062
-586,123	-102,597	-0,066	-0,011
-585,109	-200,000	0,025	-0,215
-584,094	131,402	-0,083	-0,078
-583,079	94,503	0,021	0,017
-582,065	-34,510	0,069	-0,028
-581,050	290,046	-0,039	-0,052
-580,036	-200,000	-0,002	0,043
-579,021	-164,232	-0,051	-0,002
-578,006	-36,560	-0,066	0,026
-576,992	243,010	-0,060	-0,074
-575,977	380,029	-0,013	-0,019
-574,963	-122,445	0,070	-0,008
-573,948	800,000	0,044	0,094
-572,934	16,910	-0,095	0,055
-571,919	236,392	-0,014	-0,017
-570,904	-200,000	-0,018	-0,130
-569,890	800,000	0,072	-0,204
-568,875	241,820	0,029	-0,036
-567,861	-200,000	0,029	-0,114
-566,846	-142,303	-0,079	0,006
-565,831	93,197	0,061	0,050
-564,817	-200,000	0,009	-0,031
-563,802	-126,905	-0,095	0,010
-562,788	47,379	0,118	-0,080
-561,773	800,000	0,036	-0,104
-560,758	-29,052	-0,075	0,031
-559,744	-17,187	0,055	-0,025
-558,729	800,000	-0,039	0,088
-557,715	-155,379	-0,116	0,005
-556,700	648,703	-0,037	0,070
-555,685	-40,381	0,078	-0,030
-554,671	-166,605	-0,042	-0,001
-553,656	-12,224	0,160	0,076
-552,642	-200,000	0,016	-0,108
-551,627	51,134	0,094	-0,065
-550,612	-36,479	0,110	0,043
-549,598	-106,932	-0,037	0,006
-548,583	800,000	-0,029	0,077
-547,569	800,000	0,025	0,053
-546,554	379,705	-0,028	0,042
-545,539	-200,000	-0,033	-0,108
-544,525	-133,101	-0,068	0,006
-543,510	-64,225	-0,022	0,007
-542,496	60,171	-0,079	-0,057
-541,481	167,574	0,133	-0,139
-540,466	800,000	-0,004	-0,012
-539,452	794,662	0,041	0,082
-538,437	800,000	-0,015	0,048
-537,423	-200,000	0,020	-0,131
-536,408	-200,000	0,010	-0,147
-535,393	800,000	-0,023	-0,060
-534,379	528,751	-0,066	-0,114
-533,364	115,579	0,022	-0,020
-532,350	167,008	-0,086	-0,089
-531,335	-200,000	0,010	-0,130
-530,321	-200,000	-0,008	0,080
-529,306	-92,449	-0,116	-0,024
-528,291	63,920	0,135	-0,099
-527,277	800,000	-0,033	-0,073
-526,262	-62,200	0,118	-0,036
-525,248	377,997	-0,062	0,093
-524,233	-40,125	-0,054	0,020
-523,218	-56,031	0,020	0,006
-522,204	22,016	0,085	0,051
-521,189	105,895	-0,092	-0,080
-520,175	152,380	0,029	-0,029
-519,160	163,902	-0,055	0,056
-518,145	24,661	-0,089	-0,054
-517,131	36,740	0,039	0,025
-516,116	235,231	0,074	0,089
-515,102	182,547	-0,028	0,030
-514,087	-71,528	0,069	0,019
-513,072	-54,221	-0,050	-0,017
-512,058	800,000	0,042	-0,096
-511,043	-76,476	0,043	0,011
-510,029	68,725	0,019	-0,014
-509,014	800,000	0,048	0,131
-507,999	-81,911	0,041	-0,010
-506,985	131,379	-0,063	0,060
-505,970	-7,296	-0,103	-0,051
-504,956	-51,598	0,144	-0,049
-503,941	347,144	0,072	0,104
-502,926	149,354	-0,009	-0,009
-501,912	-163,817	0,037	-0,001
-500,897	438,912	-0,052	0,083
-499,883	52,551	-0,097	-0,067
-498,868	93,926	-0,091	-0,076
-497,853	-77,887	0,076	-0,019
-496,839	100,854	-0,130	-0,111
-495,824	-81,709	0,045	-0,011
-494,810	172,309	0,029	0,031
-493,795	40,338	-0,101	0,067
-492,781	141,814	-0,121	0,117
-491,766	716,243	0,011	-0,021
-490,751	-200,000	0,004	-0,110
-489,737	-168,585	0,057	0,002
-488,722	-200,000	0,013	-0,064
-487,708	-80,088	-0,110	0,027
-486,693	-90,468	-0,090	0,019
-485,678	-56,506	0,157	0,051
-484,664	9,221	-0,113	-0,062
-483,649	-4,476	-0,080	0,040
-482,635	-200,000	-0,031	0,105
-481,620	-200,000	0,039	0,199
-480,605	-133,831	0,141	-0,013
-479,591	-200,000	0,028	0,143
-478,576	84,718	-0,034	-0,027
-477,562	-200,000	0,016	-0,121
-476,547	765,181	-0,024	0,047
-475,532	260,188	0,062	0,078
-474,518	-200,000	0,000	0,024
-473,503	-85,220	0,076	0,017
-472,489	-1,824	-0,033	-0,017
-471,474	-104,734	-0,022	-0,004
-470,459	-200,000	-0,005	0,056
-469,445	53,861	0,033	0,023
-468,430	-200,000	0,009	-0,056
-467,416	95,272	-0,137	0,114
-466,401	-37,489	0,081	0,032
-465,386	-58,539	-0,143	0,045
-464,372	-184,231	-0,129	-0,002
-463,357	233,833	-0,046	-0,055
-462,343	-200,000	-0,031	0,126
-461,328	-200,000	0,008	0,090
-460,313	800,000	-0,028	0,079
-459,299	-138,156	-0,066	-0,005
-458,284	95,700	0,037	-0,030
-457,270	-200,000	0,010	-0,043
-456,255	2,407	-0,065	0,034
-455,241	800,000	-0,005	-0,010
-454,226	800,000	-0,021	0,046
-453,211	-93,384	0,066	-0,013
-452,197	800,000	0,058	0,139
-451,182	575,099	0,026	-0,046
-450,168	730,907	0,059	-0,115
-449,153	-200,000	-0,010	0,095
-448,138	5,505	-0,028	-0,015
-447,124	-200,000	0,006	-0,045
-446,109	-73,512	0,195	-0,052
-445,095	-200,000	0,005	0,045
-444,080	-200,000	-0,007	0,057
-443,065	86,798	-0,073	-0,059
-442,051	800,000	0,041	-0,086
-441,036	-127,326	-0,058	0,006
-440,022	-200,000	-0,034	0,146
-439,007	-200,000	-0,015	-0,129
-437,992	-14,658	-0,117	-0,054
-436,978	-200,000	0,031	0,154
-435,963	118,807	0,078	0,070
-434,949	67,378	-0,083	0,062
-433,934	800,000	0,055	0,112
-432,919	240,869	-0,136	0,166
-431,905	-200,000	-0,020	0,073
-430,890	-173,186	0,047	-0,001
-429,876	777,188	0,029	0,057
-428,861	-87,329	0,026	-0,006
-427,846	-69,997	-0,111	-0,030
-426,832	-200,000	0,010	-0,099
-425,817	167,608	-0,166	0,172
-424,803	79,115	-0,023	0,018
-423,788	-138,451	0,130	0,010
-422,773	-87,113	0,156	0,034
-421,759	481,820	0,051	-0,085
-420,744	800,000	0,039	-0,084
-419,730	-200,000	-0,023	-0,149
-418,715	2,617	-0,092	-0,048
-417,701	-49,088	-0,106	-0,037
-416,686	-66,819	0,065	-0,019
-415,671	581,088	-0,038	0,068
-414,657	-32,712	0,203	0,082
-413,642	199,613	0,076	0,085
-412,628	-118,880	-0,075	-0,009
-411,613	275,553	0,053	-0,068
-410,598	70,513	-0,052	-0,039
-409,584	149,496	-0,101	0,099
-408,569	64,918	0,079	0,058
-407,555	278,734	-0,052	0,067
-406,540	800,000	-0,031	-0,083
-405,525	-200,000	0,004	0,083
-404,511	-200,000	-0,011	0,114
-403,496	-200,000	-0,002	0,017
-402,482	391,370	-0,018	-0,027
-401,467	-67,625	0,096	0,027
-400,452	-200,000	0,008	0,043
-399,438	-80,188	-0,120	0,029
-398,423	152,057	-0,068	0,067
-397,409	-0,245	-0,031	0,016
-396,394	252,940	-0,031	-0,038
-395,379	156,093	0,027	-0,027
-394,365	-118,378	-0,050	-0,006
-393,350	-200,000	-0,005	0,090
-392,336	-200,000	-0,007	0,091
-391,321	126,431	-0,087	0,080
-390,306	282,483	0,060	-0,078
-389,292	-85,258	-0,081	-0,018
-388,277	590,120	-0,010	0,017
-387,263	89,953	0,047	-0,038
-386,248	800,000	0,018	0,053
-385,233	146,279	0,078	-0,076
-384,219	-200,000	0,010	-0,094
-383,204	443,682	0,037	-0,059
-382,190	-87,783	-0,053	0,011
-381,175	-106,421	0,142	-0,023
-380,160	-144,847	0,154	0,010
-379,146	-22,309	0,107	0,047
-378,131	-68,294	-0,057	0,016
-377,117	-73,228	-0,125	0,033
-376,102	614,648	0,033	-0,060
-375,088	44,579	-0,051	0,034
-374,073	446,948	-0,058	-0,093
-373,058	800,000	-0,038	0,078
-372,044	-200,000	0,005	0,075
-371,029	99,581	-0,033	0,028
-370,015	-200,000	0,034	0,180
-369,000	-123,632	-0,030	0,003
-367,985	22,976	0,077	0,046
-366,971	800,000	0,037	0,108
-365,956	800,000	0,049	0,122
-364,942	-86,087	0,062	-0,014
-363,927	-200,000	-0,010	0,124
-362,912	-200,000	0,023	0,100
-361,898	490,246	-0,030	-0,050
-360,883	-87,213	-0,039	0,009
-359,869	-152,916	-0,125	0,006
-358,854	18,300	0,043	0,025
-357,839	-167,707	0,071	-0,002
-356,825	372,302	0,064	0,095
-355,810	125,439	0,094	-0,086
-354,796	411,722	-0,028	0,043
-353,781	-109,054	-0,076	0,012
-352,766	232,335	-0,093	0,111
-351,752	518,379	0,029	0,049
-350,737	800,000	-0,013	-0,029
-349,723	124,186	0,055	-0,050
-348,708	800,000	0,009	-0,019
-347,693	17,143	-0,125	-0,072
-346,679	800,000	0,090	-0,186
-345,664	-200,000	-0,005	-0,032
-344,650	94,578	0,116	-0,095
-343,635	800,000	0,021	0,061
-342,620	-32,145	-0,023	0,009
-341,606	-51,767	0,062	-0,021
-340,591	800,000	0,050	0,132
-339,577	-50,314	0,078	-0,027
-338,562	550,215	0,017	-0,029
-337,548	-121,522	0,058	0,007
-336,533	159,278	0,020	0,020
-335,518	55,705	0,136	0,096
-334,504	-53,190	-0,114	0,038
-333,489	425,260	0,058	-0,091
-332,475	-81,571	-0,205	0,048
-331,460	-160,584	-0,112	0,004
-330,445	-79,317	0,237	0,058
-329,431	-200,000	-0,005	0,025
-328,416	800,000	0,046	-0,131
-327,402	-200,000	-0,004	0,020
-326,387	752,182	0,061	-0,121
-325,372	-200,000	0,022	0,098
-324,358	-17,237	-0,064	-0,029
-323,343	-200,000	0,040	0,148
-322,329	-200,000	0,030	-0,153
-321,314	118,770	-0,047	-0,042
-320,299	498,716	0,030	-0,051
-319,285	38,666	0,071	-0,046
-318,270	54,838	-0,071	-0,050
-317,256	800,000	0,067	-0,170
-316,241	391,060	-0,035	0,052
-315,226	64,884	0,062	0,045
-314,212	388,258	0,074	0,111
-313,197	-33,917	0,038	0,015
-312,183	-54,825	-0,013	0,004
-311,168	-200,000	-0,019	0,079
-310,153	118,462	0,009	-0,008
-309,139	-140,377	0,127	0,009
-308,124	-200,000	-0,011	0,062
-307,110	604,109	0,046	0,083
-306,095	133,174	-0,061	0,057
-305,080	-142,136	0,040	0,003
-304,066	232,466	0,046	0,055
-303,051	422,204	0,044	0,069
-302,037	39,066	0,028	0,018
-301,022	-200,000	0,010	0,115
-300,008	478,491	-0,049	0,081
-298,993	-200,000	-0,049	0,169
-297,978	-40,088	-0,074	-0,028
-296,964	48,102	0,076	0,051
-295,949	10,006	-0,070	-0,038
-294,935	-49,772	-0,065	0,022
-293,920	7,359	0,058	0,032
-292,905	-14,844	-0,076	0,035
-291,891	62,070	0,042	0,030
-290,876	-77,652	0,170	0,042
-289,862	-200,000	0,008	0,049
-288,847	271,580	0,105	-0,134
-287,832	-200,000	0,015	0,066
-286,818	-200,000	-0,031	-0,183
-285,803	382,303	0,032	-0,048
-284,789	453,018	0,062	0,099
-283,774	17,095	-0,059	0,034
-282,759	-200,000	-0,001	-0,003
-281,745	477,652	-0,028	-0,046
-280,730	-200,000	-0,002	-0,089
-279,716	330,671	0,026	0,037
-278,701	-200,000	-0,009	0,060
-277,686	-200,000	-0,005	0,034
-276,672	-96,379	0,122	0,023
-275,657	-125,719	0,028	-0,003
-274,643	17,526	-0,091	0,052
-273,628	291,594	0,037	-0,049
-272,613	-67,652	-0,100	-0,028
-271,599	-101,347	0,085	0,015
-270,584	458,361	-0,042	0,068
-269,570	-200,000	0,013	-0,045
-268,555	84,186	-0,069	-0,055
-267,540	35,763	0,052	0,033
-266,526	800,000	-0,058	-0,134
-265,511	-144,019	-0,190	0,013
-264,497	129,376	0,055	-0,051
-263,482	-200,000	-0,023	0,144
-262,467	800,000	0,029	0,084
-261,453	309,402	0,004	-0,006
-260,438	115,018	0,041	-0,036
-259,424	800,000	-0,024	0,067
-258,409	-66,486	-0,145	0,041
-257,395	-200,000	0,008	0,084
-256,380	-86,229	-0,122	0,027
-255,365	-200,000	0,021	0,086
-254,351	-2,288	0,056	0,028
-253,336	401,330	0,048	0,073
-252,322	-60,241	-0,112	-0,034
-251,307	-54,805	-0,029	0,009
-250,292	550,080	-0,010	0,017
-249,278	-97,432	0,053	0,010
-248,263	-200,000	0,014	-0,059
-247,249	-200,000	-0,006	-0,077
-246,234	-52,227	-0,148	-0,049
-245,219	539,596	0,077	0,133
-244,205	-46,342	-0,088	-0,031
-243,190	281,735	-0,097	0,126
-242,176	41,788	0,084	-0,055
-241,161	186,171	0,151	0,162
-240,146	-200,000	0,012	0,108
-239,132	800,000	0,015	0,041
-238,117	419,743	0,035	0,054
-237,103	-200,000	-0,023	-0,087
-236,088	800,000	0,023	-0,051
-235,073	68,314	-0,033	-0,024
-234,059	-66,843	0,033	-0,009
-233,044	-21,278	-0,118	0,052
-232,030	800,000	-0,020	-0,060
-231,015	-54,053	0,072	-0,024
-230,000	308,617	0,074	-0,100
-228,986	800,000	0,037	-0,095
-227,971	134,458	0,018	0,017
-226,957	-90,928	0,209	0,043
-225,942	800,000	-0,029	-0,071
-224,927	796,982	-0,045	-0,090
-223,913	800,000	-0,013	0,038
-222,898	154,369	-0,096	0,095
-221,884	233,278	0,086	-0,102
-220,869	-200,000	-0,041	0,184
-219,855	-155,723	0,144	-0,007
-218,840	-43,284	0,055	0,020
-217,825	145,606	0,035	-0,034
-216,811	295,758	0,022	0,029
-215,796	-105,850	0,049	-0,008
-214,782	-22,236	-0,149	-0,065
-213,767	31,619	0,073	-0,045
-212,752	-200,000	0,006	-0,100
-211,738	-200,000	0,008	0,092
-210,723	800,000	-0,033	-0,075
-209,709	180,168	-0,030	-0,032
-208,694	-200,000	-0,002	-0,058
-207,679	70,697	0,080	-0,060
-206,665	800,000	-0,038	-0,121
-205,650	-2,933	0,128	0,064
-204,636	-120,696	0,046	-0,006
-203,621	-142,009	0,013	-0,001
-202,606	-200,000	-0,044	-0,162
-201,592	51,960	-0,038	-0,026
-200,577	-200,000	0,008	-0,132
-199,563	800,000	0,011	0,026
-198,548	66,067	-0,020	0,015
-197,533	118,279	-0,070	0,063
-196,519	-200,000	0,012	-0,044
-195,504	45,920	-0,051	-0,034
-194,490	87,505	0,091	0,073
-193,475	-158,262	-0,122	-0,005
-192,460	-200,000	-0,010	-0,040
-191,446	18,811	0,025	0,015
-190,431	-2,727	0,053	0,027
-189,417	105,708	0,095	0,081
-188,402	-7,433	0,142	-0,069
-187,387	18,849	-0,101	-0,058
-186,373	800,000	0,068	-0,175
-185,358	-125,793	-0,042	0,004
-184,344	310,465	0,066	-0,089
-183,329	800,000	-0,017	-0,039
-182,315	-5,152	0,203	-0,100
-181,300	-200,000	0,008	0,067
-180,285	800,000	-0,015	0,043
-179,271	-200,000	-0,040	-0,218
-178,256	-200,000	0,023	-0,077
-177,242	-59,936	0,128	-0,039
-176,227	-59,228	0,062	0,019
-175,212	-16,755	0,055	0,025
-174,198	134,317	0,093	0,087
-173,183	-133,996	-0,157	0,014
-172,169	-200,000	0,002	0,058
-171,154	-133,135	-0,053	-0,005
-170,139	185,327	0,021	0,022
-169,125	-29,590	-0,057	0,023
-168,110	344,819	-0,050	0,071
-167,096	-84,758	0,080	0,018
-166,081	-81,852	-0,180	0,042
-165,066	800,000	-0,041	0,117
-164,052	-96,630	0,062	-0,012
-163,037	-131,656	-0,046	0,004
-162,023	800,000	0,063	0,149
-161,008	291,609	-0,045	0,060
-159,993	-120,932	-0,178	-0,021
-158,979	-200,000	-0,002	-0,136
-157,964	-104,457	0,143	0,024
-156,950	-200,000	0,017	-0,058
-155,935	-162,449	0,142	0,005
-154,920	112,557	-0,020	0,017
-153,906	25,428	0,050	0,030
-152,891	-195,039	0,133	-0,001
-151,877	308,692	-0,034	-0,046
-150,862	188,246	-0,066	-0,071
-149,847	-146,930	-0,092	0,006
-148,833	-200,000	0,002	0,011
-147,818	-132,110	-0,051	-0,005
-146,804	-112,086	0,094	0,013
-145,789	416,575	0,032	0,049
-144,775	-200,000	0,008	-0,092
-143,760	-200,000	0,002	-0,036
-142,745	-200,000	-0,056	0,191
-141,731	119,733	-0,091	-0,081
-140,716	752,610	0,010	-0,020
-139,702	38,869	-0,135	0,087
-138,687	-49,257	0,097	0,033
-137,672	-200,000	0,002	0,036
-136,658	324,453	-0,038	0,053
-135,643	-2,460	-0,102	-0,052
-134,629	269,400	0,040	-0,050
-133,614	-200,000	-0,010	-0,052
-132,599	10,030	0,137	-0,075
-131,585	-53,349	-0,080	0,026
-130,570	479,683	-0,053	0,086
-129,556	-200,000	0,002	0,049
-128,541	-160,868	0,010	0,000
-127,526	-116,684	0,111	0,015
-126,512	-200,000	-0,002	0,110
-125,497	-13,254	0,067	0,031
-124,483	-89,949	0,031	-0,006
-123,468	-200,000	0,008	-0,043
-122,453	82,820	-0,095	-0,074
-121,439	206,486	0,059	0,066
-120,424	68,836	-0,137	0,101
-119,410	-200,000	-0,009	0,040
-118,395	-200,000	0,017	0,160
-117,380	-91,456	0,073	-0,015
-116,366	-200,000	0,006	-0,034
-115,351	800,000	0,009	0,019
-114,337	27,239	-0,087	0,053
-113,322	563,265	-0,058	0,102
-112,307	-79,724	0,114	0,027
-111,293	-200,000	-0,013	0,114
-110,278	-144,652	0,125	-0,008
-109,264	191,522	-0,037	-0,040
-108,249	800,000	-0,026	0,052
-107,234	121,851	0,073	-0,065
-106,220	-200,000	-0,001	0,029
-105,205	11,159	0,039	0,021
-104,191	12,173	0,128	-0,071
-103,176	-131,533	-0,051	-0,005
-102,162	-200,000	0,004	-0,064
-101,147	800,000	-0,024	0,063
-100,132	-200,000	0,016	-0,126
-99,118	800,000	-0,003	0,006
-98,103	287,924	0,025	-0,032
-97,089	267,114	0,064	0,081
-96,074	562,758	0,051	0,089
-95,059	-143,028	-0,115	0,008
-94,045	50,382	0,047	0,032
-93,030	153,870	0,039	-0,038
-92,016	-200,000	-0,014	-0,059
-91,001	-8,372	-0,091	0,044
-89,986	101,685	0,130	-0,109
-88,972	45,494	-0,080	-0,053
-87,957	84,911	-0,007	-0,005
-86,943	-145,686	0,063	-0,004
-85,928	-91,360	-0,043	0,009
-84,913	777,239	0,009	-0,017
-83,899	18,585	0,092	-0,053
-82,884	-200,000	-0,012	0,085
-81,870	-83,108	0,127	0,029
-80,855	132,953	-0,090	0,083
-79,840	515,412	-0,068	-0,114
-78,826	327,013	-0,083	0,115
-77,811	158,932	0,041	-0,041
-76,797	-97,526	-0,026	0,005
-75,782	21,725	0,087	0,051
-74,767	87,505	0,252	0,200
-73,753	236,303	-0,121	0,144
-72,738	427,932	0,015	0,024
-71,724	-68,408	0,094	0,026
-70,709	369,337	-0,037	-0,053
-69,694	-200,000	-0,026	-0,209
-68,680	110,156	0,064	0,055
-67,665	800,000	0,072	-0,146
-66,651	-200,000	-0,036	0,123
-65,636	-89,410	0,091	0,019
-64,622	11,301	-0,078	-0,043
-63,607	-200,000	-0,015	0,067
-62,592	-71,017	-0,122	-0,033
-61,578	-200,000	0,022	0,081
-60,563	94,668	0,021	0,017
-59,549	-200,000	0,024	0,129
-58,534	20,331	-1,876	-1,085
-57,519	-200,000	-0,270	-0,947
-56,505	-200,000	-1,213	-4,952
-55,490	10,085	0,821	0,446
-54,476	800,000	5,339	11,986
-53,461	-200,000	17,694	285,836
-52,446	800,000	728,444	2221,300
-51,432	536,059	1644,239	2810,946
-50,417	109,858	1634,156	1406,176
-49,403	75,908	1286,198	974,949
-48,388	32,000	1027,209	633,794
-47,373	20,152	988,949	571,144
-46,359	18,379	976,709	558,246
-45,344	15,477	972,663	546,420
-44,330	15,585	971,597	546,155
-43,315	15,198	969,447	543,660
-42,300	15,131	968,512	542,898
-41,286	15,125	967,421	542,244
-40,271	15,112	966,461	541,644
-39,257	15,146	965,340	541,105
-38,242	15,166	964,560	540,710
-37,227	15,111	964,091	540,247
-36,213	15,141	962,933	539,674
-35,198	15,161	961,957	539,170
-34,184	15,200	961,142	538,820
-33,169	15,116	960,319	538,064
-32,154	15,180	959,335	537,697
-31,140	15,101	958,765	537,101
-30,125	15,209	957,694	536,830
-29,111	15,179	956,816	536,219
-28,096	15,114	956,541	535,835
-27,082	15,216	955,587	535,606
-26,067	15,186	954,845	535,074
-25,052	15,205	954,044	534,664
-24,038	15,136	953,447	534,086
-23,023	15,121	952,824	533,668
-22,009	15,155	952,341	533,485
-20,994	15,198	951,606	533,191
-19,979	15,184	950,977	532,771
-18,965	15,218	950,170	532,409
-17,950	15,200	949,664	532,044
-16,936	15,175	948,790	531,456
-15,921	15,143	948,250	531,028
-14,906	15,106	947,650	530,555
-13,892	15,085	946,824	530,005
-12,877	15,085	946,262	529,668
-11,863	15,005	945,758	529,111
-10,848	15,064	945,237	528,987
-9,833	15,131	944,828	528,949
-8,819	15,097	944,106	528,415
-7,804	15,065	943,426	527,912
-6,790	15,078	942,856	527,615
-5,775	15,051	942,312	527,202
-4,760	15,106	941,604	526,959
-3,746	14,996	941,133	526,329
-2,731	14,903	940,409	525,607
-1,717	14,931	939,584	525,214
-0,702	14,982	938,897	524,970
0,313	14,731	938,300	524,637
1,327	18,094	936,308	534,062
2,342	27,392	793,070	476,954
3,356	24,104	458,282	270,569
4,371	-3,187	314,096	156,473
5,386	-7,163	296,052	143,451
6,400	-9,156	289,983	138,521
7,415	-9,623	287,578	136,901
8,429	-9,871	285,863	135,830
9,444	-9,862	285,027	135,429
10,459	-9,938	284,349	135,021
11,473	-9,684	283,750	134,971
12,488	-9,707	283,337	134,741
13,502	-9,957	282,778	134,221
14,517	-9,844	282,480	134,176
15,531	-9,834	281,805	133,853
16,546	-9,969	281,482	133,558
17,561	-10,272	281,180	133,111
18,575	-9,793	280,791	133,375
19,590	-10,111	280,569	132,954
20,604	-10,067	280,156	132,787
21,619	-10,176	279,634	132,424
22,634	-10,050	279,537	132,487
23,648	-10,104	279,109	132,221
24,663	-9,917	278,743	132,214
25,677	-9,996	278,624	132,070
26,692	-10,069	278,300	131,835
27,707	-10,015	278,029	131,746
28,721	-10,071	277,911	131,626
29,736	-10,019	277,411	131,426
30,750	-10,160	277,221	131,191
31,765	-10,169	276,959	131,047
32,780	-10,050	276,719	131,034
33,794	-10,013	276,448	130,929
34,809	-10,051	276,167	130,748
35,823	-10,174	276,037	130,560
36,838	-10,130	275,680	130,420
37,853	-10,097	275,583	130,394
38,867	-10,023	275,235	130,287
39,882	-10,084	275,121	130,164
40,896	-9,989	274,684	130,035
41,911	-10,210	274,489	129,724
42,926	-9,940	274,175	129,817
43,940	-10,197	274,078	129,519
44,955	-10,050	273,734	129,482
45,969	-10,139	273,561	129,306
46,984	-10,307	273,187	128,961
47,999	-10,600	272,988	128,582
49,013	-10,630	272,667	128,392
50,028	-10,627	272,518	128,313
51,042	-10,723	272,183	128,055
52,057	-10,794	271,816	127,805
53,071	-10,651	271,786	127,912
54,086	-10,718	271,700	127,798
55,101	-10,490	271,302	127,811
56,115	-10,319	271,310	127,961
57,130	-9,901	271,107	128,240
58,144	-9,795	271,017	128,283
59,159	-9,905	270,768	128,053
60,174	-10,004	270,520	127,833
61,188	-9,787	270,353	127,942
62,203	-9,881	270,086	127,719
63,217	-9,892	269,715	127,522
64,232	-9,915	269,709	127,486
65,247	-9,927	269,404	127,319
66,261	-9,965	269,137	127,147
67,276	-10,081	268,857	126,897
68,290	-10,233	268,744	126,693
69,305	-10,197	268,174	126,446
70,320	-10,172	268,175	126,458
71,334	-9,911	268,029	126,617
72,349	-9,880	267,843	126,545
73,363	-9,878	267,659	126,449
74,378	-10,023	267,404	126,186
75,393	-9,818	267,152	126,242
76,407	-9,995	267,085	126,038
77,422	-9,991	266,778	125,885
78,436	-9,843	266,614	125,931
79,451	-9,817	266,267	125,780
80,466	-9,876	265,984	125,581
81,480	-10,265	265,947	125,200
82,495	-10,156	265,488	125,071
83,509	-10,009	265,434	125,167
84,524	-10,080	265,105	124,938
85,539	-10,180	265,017	124,795
86,553	-10,068	264,584	124,681
87,568	-10,208	264,551	124,528
88,582	-10,097	264,352	124,523
89,597	-10,173	264,223	124,383
90,611	-10,077	264,108	124,404
91,626	-9,857	263,747	124,419
92,641	-10,038	263,595	124,175
93,655	-9,913	263,380	124,174
94,670	-10,169	263,260	123,878
95,684	-9,996	262,979	123,889
96,699	-10,110	262,846	123,713
97,714	-10,121	262,653	123,602
98,728	-10,062	262,347	123,500
99,743	-10,087	262,105	123,352
100,757	-10,336	261,934	123,039
101,772	-10,226	261,796	123,061
102,787	-9,999	261,545	123,134
103,801	-9,870	261,453	123,194
104,816	-10,050	261,191	122,900
105,830	-9,968	261,098	122,918
106,845	-9,782	260,880	122,969
107,860	-9,918	260,697	122,751
108,874	-9,938	260,364	122,566
109,889	-9,973	260,332	122,509
110,903	-9,867	259,882	122,380
111,918	-9,971	259,796	122,237
112,933	-10,052	259,768	122,142
113,947	-9,793	259,499	122,232
114,962	-9,941	259,296	121,995
115,976	-9,947	259,016	121,847
116,991	-9,968	258,957	121,791
118,006	-10,096	258,676	121,535
119,020	-10,041	258,645	121,558
120,035	-9,846	258,473	121,637
121,049	-9,894	258,350	121,527
122,064	-9,957	258,070	121,329
123,079	-9,866	257,833	121,286
124,093	-10,116	257,643	120,968
125,108	-10,024	257,397	120,922
126,122	-10,178	257,150	120,660
127,137	-10,309	256,875	120,407
128,151	-10,413	256,777	120,260
129,166	-9,980	256,496	120,493
130,181	-10,273	256,342	120,156
131,195	-10,195	256,177	120,135
132,210	-10,038	255,985	120,171
133,224	-9,928	255,884	120,207
134,239	-9,846	255,629	120,148
135,254	-9,901	255,547	120,051
136,268	-9,800	255,225	119,977
137,283	-10,281	254,964	119,428
138,297	-10,308	254,755	119,297
139,312	-10,371	254,671	119,193
140,327	-10,183	254,516	119,271
141,341	-9,594	254,284	119,659
142,356	-9,649	254,070	119,500
143,370	-10,038	254,187	119,209
144,385	-9,708	254,074	119,430
145,400	-9,700	253,777	119,286
146,414	-9,813	253,495	119,046
147,429	-9,675	253,322	119,073
148,443	-9,909	253,117	118,766
149,458	-9,736	253,025	118,860
150,473	-9,667	252,768	118,787
151,487	-9,837	252,567	118,537
152,502	-9,714	252,480	118,591
153,516	-9,817	252,161	118,342
154,531	-9,803	252,172	118,349
155,546	-10,004	252,069	118,119
156,560	-9,942	251,710	117,993
157,575	-9,770	251,554	118,055
158,589	-9,827	251,329	117,891
159,604	-9,501	251,072	118,036
160,619	-9,635	250,968	117,863
161,633	-9,658	250,815	117,761
162,648	-9,766	250,597	117,557
163,662	-9,800	250,533	117,488
164,677	-9,540	250,383	117,627
165,692	-9,585	250,178	117,482
166,706	-9,777	249,980	117,216
167,721	-9,882	249,846	117,054
168,735	-9,775	249,767	117,097
169,750	-9,648	249,509	117,072
170,764	-9,553	249,350	117,068
171,779	-9,415	249,210	117,108
172,794	-9,729	248,976	116,723
173,808	-9,737	248,959	116,699
174,823	-9,942	248,527	116,314
175,837	-10,158	248,279	116,007
176,852	-10,040	248,367	116,137
177,867	-9,622	248,176	116,386
178,881	-9,567	248,005	116,341
179,896	-9,610	247,778	116,189
180,910	-9,807	247,735	115,994
181,925	-9,764	247,491	115,905
182,940	-9,489	247,344	116,055
183,954	-9,634	247,079	115,799
184,969	-9,709	247,025	115,701
185,983	-9,763	246,909	115,592
186,998	-9,614	246,569	115,546
188,013	-9,767	246,566	115,408
189,027	-9,710	246,369	115,352
190,042	-9,511	246,108	115,385
191,056	-9,501	246,066	115,363
192,071	-9,575	245,833	115,183
193,086	-9,684	245,511	114,931
194,100	-9,597	245,553	115,012
195,115	-9,716	245,417	114,840
196,129	-9,525	245,079	114,829
197,144	-9,509	244,871	114,735
198,159	-9,594	244,619	114,537
199,173	-9,683	244,567	114,429
200,188	-9,485	244,338	114,474
201,202	-9,735	244,182	114,185
202,217	-10,182	243,730	113,598
203,232	-10,156	243,578	113,538
204,246	-9,709	243,745	113,972
205,261	-9,116	243,577	114,369
206,275	-9,483	243,418	113,984
207,290	-5,638	244,827	117,795
208,304	0,910	246,796	124,146
209,319	3,383	247,418	126,491
210,334	3,888	247,477	126,927
211,348	4,286	247,394	127,202
212,363	4,411	247,396	127,294
213,377	4,291	247,480	127,227
214,392	4,351	247,181	127,111
215,407	4,268	246,877	126,876
216,421	4,325	246,744	126,843
217,436	4,382	246,727	126,869
218,450	4,519	246,572	126,891
219,465	4,207	246,168	126,416
220,480	4,324	246,082	126,457
221,494	4,020	245,879	126,092
222,509	4,048	245,682	126,002
223,523	3,834	245,494	125,719
224,538	3,763	245,174	125,487
225,553	3,689	245,202	125,430
226,567	3,950	244,952	125,503
227,582	4,060	244,948	125,580
228,596	4,007	244,749	125,423
229,611	3,737	244,438	125,033
230,626	3,429	244,425	124,765
231,640	3,690	244,123	124,811
232,655	3,897	244,034	124,923
233,669	3,724	243,761	124,632
234,684	3,513	243,755	124,447
235,699	3,996	243,678	124,788
236,713	4,138	243,560	124,831
237,728	3,890	243,281	124,476
238,742	3,706	243,017	124,181
239,757	3,685	242,794	124,040
240,772	3,821	242,713	124,096
241,786	3,882	242,515	124,034
242,801	3,903	242,355	123,958
243,815	3,664	242,280	123,716
244,830	3,975	242,056	123,840
245,844	3,958	241,967	123,770
246,859	3,705	241,903	123,523
247,874	3,637	241,580	123,293
248,888	3,912	241,466	123,444
249,903	3,836	241,491	123,385
250,917	4,184	241,169	123,489
251,932	3,985	241,179	123,323
252,947	4,073	240,940	123,261
253,961	3,754	240,802	122,923
254,976	3,921	240,589	122,937
255,990	4,004	240,516	122,955
257,005	3,664	240,247	122,536
258,020	3,531	240,114	122,351
259,034	3,782	239,873	122,417
260,049	4,009	239,822	122,561
261,063	3,608	239,760	122,199
262,078	3,686	239,430	122,082
263,093	3,930	239,480	122,290
264,107	3,880	239,293	122,144
265,122	3,699	238,991	121,836
266,136	3,881	239,006	121,977
267,151	4,103	238,864	122,069
268,166	3,850	238,489	121,667
269,180	3,616	238,300	121,374
270,195	4,297	238,408	121,957
271,209	4,453	238,183	121,954
272,224	3,899	237,902	121,363
273,239	3,644	237,707	121,051
274,253	3,606	237,512	120,911
275,268	3,955	237,342	121,089
276,282	4,025	237,323	121,123
277,297	3,709	237,167	120,784
278,312	3,682	237,061	120,698
279,326	3,938	236,892	120,802
280,341	3,947	236,716	120,709
281,355	3,989	236,618	120,681
282,370	3,844	236,432	120,461
283,384	4,083	236,259	120,550
284,399	3,889	236,037	120,274
285,414	3,651	235,826	119,970
286,428	3,678	235,768	119,951
287,443	3,717	235,721	119,947
288,457	3,818	235,604	119,955
289,472	3,891	235,370	119,883
290,487	4,039	235,078	119,838
291,501	3,788	234,927	119,556
292,516	3,505	234,841	119,281
293,530	3,543	234,717	119,237
294,545	4,015	234,564	119,515
295,560	3,845	234,525	119,353
296,574	3,466	234,312	118,940
297,589	3,505	234,134	118,869
298,603	4,140	234,077	119,321
299,618	4,012	234,041	119,193
300,633	3,903	233,846	118,998
301,647	4,029	233,695	119,009
302,662	4,444	233,634	119,288
303,676	4,219	233,413	118,991
304,691	4,178	233,215	118,847
305,706	4,358	233,175	118,955
306,720	4,179	232,939	118,686
307,735	4,224	232,729	118,604
308,749	3,677	232,583	118,098
309,764	3,822	232,414	118,113
310,779	3,609	232,176	117,817
311,793	3,547	232,043	117,693
312,808	3,573	231,806	117,581
313,822	3,520	231,806	117,530
314,837	3,578	231,500	117,409
315,852	3,626	231,436	117,403
316,866	3,885	231,383	117,564
317,881	3,962	231,194	117,515
318,895	3,837	231,100	117,362
319,910	3,916	231,005	117,364
320,925	3,748	230,715	117,078
321,939	3,816	230,690	117,106
322,954	4,141	230,696	117,347
323,968	4,037	230,454	117,134
324,983	3,760	230,246	116,807
325,997	3,861	229,953	116,725
327,012	3,932	229,888	116,735
328,027	3,881	229,803	116,643
329,041	4,385	229,735	116,980
330,056	4,737	229,855	117,298
331,070	4,573	229,528	116,996
332,085	4,309	229,274	116,657
333,100	3,849	229,104	116,213
334,114	4,009	228,866	116,203
335,129	4,513	228,888	116,583
336,143	4,389	228,778	116,423
337,158	4,148	228,556	116,118
338,173	4,214	228,314	116,035
339,187	3,994	228,186	115,794
340,202	3,956	228,156	115,740
341,216	3,971	227,900	115,611
342,231	3,779	227,773	115,392
343,246	3,691	227,671	115,263
344,260	4,304	227,476	115,615
345,275	4,305	227,415	115,574
346,289	4,222	227,293	115,439
347,304	4,363	227,045	115,409
348,319	4,153	226,985	115,211
349,333	4,119	226,671	115,016
350,348	3,823	226,603	114,750
351,362	4,047	226,510	114,860
352,377	3,776	226,227	114,504
353,392	3,891	226,016	114,473
354,406	3,720	225,901	114,277
355,421	196,601	1323,028	1403,083
356,435	157,622	1456,691	1403,081
