DTS Sentinel unit serial number:	SN410029Multiplexer serial number:	ORYXHardware model number:	OX2-SRSoftware version number:	ORYX F/W v4,00 Oryx Data Collector v3.7.2.0data status	okinstallation	B5 Nyhavnadifferential loss correction	single-endedforward channel	channel 2reverse channel	N/Adate	2023/12/13time	02:52:13forward acquisition time	300,00reverse acquisition time	0,00gamma	499,1914k internal	0,3160k external	0,3160temperature offset calibration	1,0000default loss term (dB/km)	0,3820temperature slope calibration	1,0000multiplexer offset coefficient	1,0000multiplexer slope coefficient	1,0000fibre end	0,00T internal ref (°C)	14,00T ext. ref 1 (°C)	-2,46T ext. ref 2 (°C)	-2,76length (m)	temperature (°C)	Stokes	anti-Stokes-744,400	-110,885	0,157	-0,023
-743,385	-178,965	-0,298	0,005
-742,371	-29,720	0,196	0,082
-741,356	-89,234	-0,296	0,064
-740,342	166,883	0,134	0,140
-739,327	-200,000	-0,280	-0,001
-738,312	-200,000	0,007	0,040
-737,298	-63,228	-0,320	0,097
-736,283	108,771	0,104	-0,092
-735,269	293,643	-0,104	0,140
-734,254	77,650	0,137	0,107
-733,239	-81,003	-0,670	-0,162
-732,225	-111,631	0,201	0,030
-731,210	15,884	0,022	-0,013
-730,196	539,572	-0,050	0,089
-729,181	-101,322	-0,104	0,018
-728,167	800,000	-0,023	-0,061
-727,152	800,000	-0,025	-0,064
-726,137	-56,564	-0,052	0,017
-725,123	-131,608	-0,096	0,009
-724,108	394,055	-0,043	-0,066
-723,094	-160,448	-0,209	0,008
-722,079	-99,891	-0,181	0,033
-721,064	-200,000	0,008	-0,057
-720,050	-10,315	0,077	0,038
-719,035	-105,029	-0,103	0,017
-718,021	128,469	0,076	-0,071
-717,006	800,000	-0,068	-0,148
-715,991	71,699	0,075	0,057
-714,977	-148,829	-0,096	0,006
-713,962	-200,000	0,005	-0,034
-712,948	363,255	0,126	-0,187
-711,933	136,492	-0,017	-0,016
-710,918	682,455	0,035	-0,067
-709,904	-86,531	0,035	0,008
-708,889	46,589	0,026	-0,018
-707,875	-5,962	-0,122	-0,061
-706,860	231,852	-0,062	0,075
-705,845	-90,197	-0,192	-0,041
-704,831	-130,087	0,107	-0,011
-703,816	-136,348	-0,082	0,007
-702,802	164,755	-0,106	-0,110
-701,787	-73,964	0,061	-0,016
-700,772	124,180	0,041	-0,038
-699,758	-132,775	0,081	-0,008
-698,743	800,000	0,025	-0,069
-697,729	233,287	0,059	-0,071
-696,714	800,000	-0,081	0,165
-695,699	596,922	-0,069	-0,127
-694,685	571,243	-0,004	0,007
-693,670	224,530	-0,030	0,036
-692,656	28,020	0,041	0,026
-691,641	211,127	0,131	-0,152
-690,627	-101,734	0,118	-0,021
-689,612	-62,301	-0,152	-0,046
-688,597	-200,000	-0,006	0,185
-687,583	132,904	-0,060	0,057
-686,568	-200,000	0,006	0,050
-685,554	-3,356	0,173	-0,088
-684,539	-68,735	0,035	-0,010
-683,524	-117,157	-0,233	0,031
-682,510	-200,000	0,029	0,114
-681,495	76,106	-0,067	-0,052
-680,481	-90,165	-0,183	0,039
-679,466	-91,162	0,020	0,004
-678,451	-86,073	-0,092	-0,021
-677,437	-38,329	-0,131	-0,051
-676,422	629,680	0,051	0,096
-675,408	-200,000	-0,044	-0,231
-674,393	-57,082	-0,078	-0,025
-673,378	-32,070	0,102	0,042
-672,364	-200,000	0,012	-0,068
-671,349	-14,448	0,103	-0,049
-670,335	446,560	-0,029	0,048
-669,320	189,978	0,050	0,055
-668,305	800,000	0,024	-0,051
-667,291	-200,000	-0,002	-0,072
-666,276	479,889	0,065	-0,108
-665,262	-200,000	0,007	-0,062
-664,247	271,915	0,081	-0,105
-663,232	-200,000	-0,023	-0,195
-662,218	37,387	0,132	-0,086
-661,203	-200,000	-0,003	-0,042
-660,189	-9,099	0,049	-0,024
-659,174	114,622	-0,104	-0,093
-658,159	26,087	-0,148	-0,090
-657,145	-3,936	-0,095	-0,048
-656,130	424,074	-0,033	-0,052
-655,116	-125,537	0,035	0,004
-654,101	-75,774	-0,020	-0,005
-653,086	375,446	-0,049	-0,073
-652,072	-200,000	0,024	-0,082
-651,057	-200,000	-0,015	-0,090
-650,043	45,146	0,143	-0,097
-649,028	-155,269	0,109	-0,005
-648,014	800,000	-0,048	-0,129
-646,999	-200,000	-0,015	0,144
-645,984	-200,000	-0,001	0,024
-644,970	-98,878	0,075	-0,014
-643,955	45,293	-0,068	0,046
-642,941	194,063	-0,045	-0,050
-641,926	132,901	-0,048	0,046
-640,911	-87,855	-0,171	0,038
-639,897	800,000	0,029	0,063
-638,882	219,246	-0,059	-0,069
-637,868	106,905	-0,063	-0,055
-636,853	-79,139	-0,035	-0,009
-635,838	800,000	0,014	0,038
-634,824	-31,208	0,063	-0,026
-633,809	52,170	-0,111	-0,077
-632,795	-19,066	0,029	0,013
-631,780	311,876	-0,111	-0,153
-630,765	-78,436	-0,070	0,018
-629,751	-115,086	-0,042	-0,006
-628,736	-200,000	0,008	0,039
-627,722	-200,000	-0,025	-0,094
-626,707	55,653	0,105	-0,074
-625,692	96,027	-0,075	-0,063
-624,678	187,714	0,065	-0,072
-623,663	800,000	0,044	-0,143
-622,649	76,322	0,022	0,017
-621,634	-200,000	-0,017	-0,131
-620,619	159,017	-0,038	-0,038
-619,605	420,626	0,032	0,051
-618,590	-200,000	-0,004	0,152
-617,576	712,544	-0,093	0,182
-616,561	800,000	-0,037	0,079
-615,546	-55,423	0,075	-0,024
-614,532	213,921	-0,072	-0,084
-613,517	-200,000	0,032	-0,123
-612,503	37,447	0,079	0,051
-611,488	-82,691	0,080	-0,019
-610,474	36,165	0,083	-0,053
-609,459	117,587	-0,017	0,015
-608,444	-51,339	-0,147	-0,050
-607,430	-0,939	-0,067	-0,034
-606,415	-200,000	0,021	-0,088
-605,401	-200,000	0,006	-0,027
-604,386	-200,000	-0,006	0,022
-603,371	-114,451	-0,129	0,018
-602,357	-200,000	-0,015	-0,072
-601,342	-200,000	0,003	-0,011
-600,328	10,276	-0,067	-0,037
-599,313	92,400	-0,060	0,049
-598,298	33,741	-0,077	-0,049
-597,284	135,334	0,064	0,061
-596,269	-125,381	0,146	0,016
-595,255	-200,000	-0,002	0,041
-594,240	63,972	0,008	-0,006
-593,225	-104,666	-0,064	-0,011
-592,211	-200,000	-0,000	-0,199
-591,196	-200,000	-0,035	-0,115
-590,182	-200,000	-0,021	-0,136
-589,167	-51,088	0,219	-0,075
-588,152	800,000	0,034	-0,110
-587,138	-200,000	-0,008	-0,076
-586,123	-104,571	-0,124	0,021
-585,109	0,908	-0,056	-0,029
-584,094	513,797	-0,087	0,149
-583,079	-51,917	0,059	-0,020
-582,065	-6,564	-0,046	-0,023
-581,050	-188,937	-0,114	-0,001
-580,036	-37,252	-0,100	-0,039
-579,021	-200,000	-0,003	-0,129
-578,006	800,000	-0,048	-0,144
-576,992	-17,539	-0,106	-0,049
-575,977	85,161	-0,028	-0,022
-574,963	-110,035	-0,059	-0,009
-573,948	-74,009	0,015	0,004
-572,934	-200,000	-0,014	0,076
-571,919	-96,428	-0,097	-0,019
-570,904	77,099	0,049	0,038
-569,890	-20,775	-0,030	0,013
-568,875	120,967	-0,110	-0,100
-567,861	800,000	-0,058	0,166
-566,846	-117,653	-0,065	0,009
-565,831	43,485	-0,123	0,082
-564,817	86,517	0,081	-0,065
-563,802	513,009	-0,064	0,109
-562,788	495,180	0,077	0,129
-561,773	-34,306	0,091	0,036
-560,758	-200,000	-0,104	0,000
-559,744	-65,014	0,049	0,015
-558,729	143,374	0,138	0,134
-557,715	137,936	-0,084	-0,081
-556,700	545,747	-0,107	-0,188
-555,685	106,041	0,143	-0,124
-554,671	754,222	0,019	-0,039
-553,656	-25,623	0,219	0,094
-552,642	629,877	0,029	0,053
-551,627	-200,000	-0,026	0,113
-550,612	-9,572	-0,036	0,017
-549,598	15,636	0,063	0,036
-548,583	-152,555	-0,107	0,005
-547,569	-200,000	-0,003	-0,039
-546,554	-200,000	0,006	-0,037
-545,539	50,343	-0,012	0,008
-544,525	-27,364	0,104	0,044
-543,510	70,008	-0,039	-0,030
-542,496	31,333	-0,097	-0,061
-541,481	379,659	0,066	-0,099
-540,466	-90,107	-0,048	-0,010
-539,452	788,991	0,017	-0,034
-538,437	131,027	-0,044	0,042
-537,423	-200,000	0,038	0,136
-536,408	-200,000	-0,005	-0,033
-535,393	128,255	-0,084	-0,078
-534,379	50,376	-0,063	0,044
-533,364	213,357	0,015	0,018
-532,350	271,237	0,084	0,109
-531,335	-182,139	0,068	-0,001
-530,321	274,938	0,060	-0,078
-529,306	-200,000	0,000	0,045
-528,291	-200,000	-0,011	0,132
-527,277	292,782	-0,063	-0,084
-526,262	-200,000	0,018	0,083
-525,248	208,281	0,078	0,090
-524,233	38,876	0,084	0,055
-523,218	457,868	-0,044	0,072
-522,204	34,894	0,014	0,009
-521,189	-129,369	-0,013	-0,001
-520,175	-200,000	0,003	-0,083
-519,160	-200,000	0,016	-0,056
-518,145	-50,101	0,044	0,015
-517,131	-18,672	-0,079	0,036
-516,116	-143,631	0,093	0,006
-515,102	-200,000	0,005	-0,117
-514,087	8,438	-0,074	-0,040
-513,072	-200,000	0,028	-0,140
-512,058	147,437	0,104	-0,102
-511,043	24,928	-0,053	-0,032
-510,029	-200,000	0,005	0,034
-509,014	-75,217	-0,044	0,012
-507,999	-9,859	0,046	-0,022
-506,985	-6,481	-0,186	-0,092
-505,970	240,342	0,011	0,013
-504,956	26,343	-0,062	-0,038
-503,941	-200,000	-0,029	-0,135
-502,926	800,000	0,014	-0,037
-501,912	109,431	0,046	0,040
-500,897	4,930	-0,108	0,058
-499,883	-111,647	-0,055	0,008
-498,868	-200,000	0,007	-0,189
-497,853	-200,000	-0,000	-0,078
-496,839	30,505	0,085	0,053
-495,824	138,883	0,063	0,061
-494,810	321,328	0,052	0,072
-493,795	800,000	0,029	0,064
-492,781	700,718	-0,106	0,205
-491,766	152,039	0,017	-0,017
-490,751	145,532	0,082	-0,080
-489,737	220,584	-0,059	0,069
-488,722	203,700	-0,067	-0,076
-487,708	-200,000	-0,007	-0,022
-486,693	147,367	-0,050	-0,049
-485,678	-112,812	-0,036	-0,005
-484,664	59,237	0,030	0,021
-483,649	11,468	0,086	0,048
-482,635	-12,198	0,014	0,007
-481,620	-39,842	-0,039	-0,015
-480,605	800,000	0,029	0,067
-479,591	50,192	0,054	0,037
-478,576	-134,954	-0,090	0,008
-477,562	800,000	0,036	-0,083
-476,547	-200,000	0,025	-0,224
-475,532	81,537	0,031	-0,025
-474,518	287,524	0,067	-0,088
-473,503	-69,665	-0,130	-0,036
-472,489	222,590	-0,015	-0,018
-471,474	-72,323	0,112	-0,030
-470,459	412,536	-0,042	0,066
-469,445	800,000	-0,055	-0,153
-468,430	-17,925	-0,150	-0,068
-467,416	800,000	0,096	-0,195
-466,401	-57,935	0,121	-0,038
-465,386	-200,000	-0,001	0,140
-464,372	-200,000	-0,015	0,066
-463,357	-38,990	-0,052	-0,020
-462,343	-24,351	-0,163	0,071
-461,328	756,846	-0,054	-0,107
-460,313	-200,000	0,002	-0,023
-459,299	511,822	0,028	0,048
-458,284	-105,186	-0,114	0,019
-457,270	300,468	0,055	0,075
-456,255	119,408	0,042	-0,038
-455,241	-200,000	0,020	-0,077
-454,226	539,074	-0,031	0,054
-453,211	800,000	-0,011	0,026
-452,197	-200,000	0,005	-0,049
-451,182	-66,279	0,176	0,051
-450,168	800,000	-0,043	-0,138
-449,153	-169,789	-0,163	0,004
-448,138	-99,895	0,080	-0,014
-447,124	-35,319	-0,152	0,060
-446,109	-140,074	-0,088	0,007
-445,095	-41,665	-0,017	-0,006
-444,080	535,265	0,075	0,130
-443,065	800,000	0,066	-0,141
-442,051	134,745	-0,121	0,114
-441,036	-143,562	-0,120	-0,008
-440,022	-129,510	-0,050	0,005
-439,007	83,783	-0,026	0,021
-437,992	436,001	0,062	-0,098
-436,978	69,843	0,183	-0,137
-435,963	-3,471	-0,106	0,054
-434,949	-200,000	-0,038	0,129
-433,934	800,000	0,014	-0,039
-432,919	117,118	0,042	-0,037
-431,905	-116,978	0,146	0,019
-430,890	-200,000	-0,010	-0,063
-429,876	-200,000	0,034	0,114
-428,861	67,412	-0,100	0,074
-427,846	800,000	0,007	0,017
-426,832	608,907	0,067	0,122
-425,817	41,014	-0,032	-0,021
-424,803	-200,000	-0,008	-0,129
-423,788	-54,486	-0,127	-0,042
-422,773	-200,000	0,003	0,036
-421,759	-61,142	0,072	0,022
-420,744	-200,000	-0,001	-0,163
-419,730	-200,000	0,040	-0,192
-418,715	496,264	-0,100	-0,167
-417,701	-200,000	-0,001	-0,077
-416,686	-200,000	0,036	0,128
-415,671	271,373	-0,041	0,052
-414,657	800,000	-0,036	0,086
-413,642	-200,000	0,008	0,041
-412,628	152,068	-0,060	-0,060
-411,613	127,502	-0,123	0,114
-410,598	329,975	0,044	0,062
-409,584	-125,381	-0,029	0,003
-408,569	593,167	0,056	0,100
-407,555	800,000	0,034	0,082
-406,540	332,323	0,093	0,131
-405,525	-127,061	-0,170	0,018
-404,511	-41,613	0,140	0,052
-403,496	-53,022	-0,118	-0,039
-402,482	-39,876	0,044	0,017
-401,467	168,861	-0,060	-0,062
-400,452	-53,332	0,042	-0,014
-399,438	-17,451	0,049	-0,022
-398,423	-134,116	-0,049	-0,004
-397,409	6,642	0,085	0,046
-396,394	-49,434	-0,056	0,019
-395,379	111,272	-0,088	0,077
-394,365	482,910	-0,085	0,141
-393,350	119,573	-0,069	-0,062
-392,336	-56,617	0,121	0,039
-391,321	-155,886	-0,049	0,002
-390,306	-27,914	-0,071	-0,030
-389,292	-200,000	-0,041	-0,162
-388,277	-76,303	-0,082	0,021
-387,263	-31,364	0,153	-0,062
-386,248	-52,357	0,127	0,042
-385,233	-138,879	0,057	-0,004
-384,219	338,787	-0,031	-0,045
-383,204	-129,379	-0,168	0,017
-382,190	800,000	0,015	-0,043
-381,175	287,351	-0,104	0,138
-380,160	-138,431	0,097	0,008
-379,146	800,000	-0,046	0,104
-378,131	-99,462	0,096	-0,017
-377,117	151,360	0,100	0,099
-376,102	53,859	-0,060	-0,042
-375,088	-180,816	-0,116	-0,002
-374,073	800,000	-0,038	-0,105
-373,058	-168,141	0,025	-0,001
-372,044	780,183	-0,040	0,080
-371,029	200,371	-0,074	0,082
-370,015	166,106	0,090	0,093
-369,000	-200,000	-0,030	0,123
-367,985	169,736	-0,039	-0,041
-366,971	110,705	-0,086	0,075
-365,956	257,223	0,028	0,035
-364,942	-200,000	0,040	0,131
-363,927	577,464	0,025	0,045
-362,912	-61,214	-0,068	-0,021
-361,898	532,148	0,082	0,142
-360,883	265,419	-0,080	-0,101
-359,869	800,000	0,018	-0,037
-358,854	800,000	-0,031	0,089
-357,839	-200,000	-0,016	0,215
-356,825	-138,862	-0,046	0,004
-355,810	-200,000	0,036	-0,154
-354,796	-134,114	-0,095	-0,008
-353,781	195,107	-0,032	0,035
-352,766	47,275	0,098	-0,066
-351,752	42,892	0,071	0,047
-350,737	145,715	0,067	0,065
-349,723	199,581	-0,011	0,012
-348,708	-40,732	0,125	0,047
-347,693	-42,140	-0,058	0,021
-346,679	800,000	-0,036	0,104
-345,664	108,398	-0,049	0,043
-344,650	-52,835	0,094	0,031
-343,635	800,000	0,055	-0,121
-342,620	408,070	0,029	0,044
-341,606	-41,672	-0,130	-0,048
-340,591	-200,000	0,008	-0,034
-339,577	-106,660	0,084	0,013
-338,562	729,286	-0,093	-0,181
-337,548	3,451	0,047	-0,025
-336,533	-200,000	-0,009	0,111
-335,518	800,000	-0,033	0,078
-334,504	649,752	0,035	0,065
-333,489	29,073	-0,213	-0,131
-332,475	533,030	-0,019	-0,033
-331,460	87,820	-0,056	0,045
-330,445	-200,000	-0,021	-0,068
-329,431	48,644	0,049	0,033
-328,416	-8,742	0,147	0,071
-327,402	-32,856	0,026	-0,010
-326,387	-118,939	0,073	0,009
-325,372	8,350	-0,116	-0,063
-324,358	-84,592	-0,052	-0,012
-323,343	140,467	0,080	0,077
-322,329	109,061	0,039	0,034
-321,314	368,439	-0,044	0,065
-320,299	15,176	0,189	0,107
-319,285	-63,302	-0,150	-0,044
-318,270	-75,524	-0,043	-0,011
-317,256	-200,000	0,024	0,123
-316,241	214,674	-0,035	-0,041
-315,226	42,412	0,016	0,010
-314,212	-100,703	0,092	0,016
-313,197	99,383	0,078	0,066
-312,183	-138,472	0,111	-0,009
-311,168	194,838	0,023	-0,025
-310,153	54,350	-0,058	0,041
-309,139	424,207	0,011	-0,017
-308,124	800,000	-0,037	-0,108
-307,110	-25,656	0,126	0,054
-306,095	-75,982	0,118	0,030
-305,080	-148,070	-0,114	-0,007
-304,066	800,000	0,047	0,125
-303,051	-98,633	-0,051	0,009
-302,037	35,702	-0,067	-0,042
-301,022	-52,244	0,083	0,028
-300,008	-200,000	0,017	-0,162
-298,993	79,706	-0,129	0,100
-297,978	-200,000	0,018	-0,077
-296,964	63,179	-0,062	0,045
-295,949	116,800	0,025	0,022
-294,935	-17,296	-0,012	0,006
-293,920	800,000	-0,024	0,069
-292,905	-33,260	0,139	-0,055
-291,891	-200,000	-0,015	0,064
-290,876	-13,086	0,095	0,045
-289,862	159,941	-0,070	0,070
-288,847	278,046	-0,038	0,050
-287,832	570,675	-0,025	-0,043
-286,818	107,848	0,014	0,012
-285,803	-77,875	0,148	-0,037
-284,789	-45,945	0,025	0,009
-283,774	-136,464	0,041	0,003
-282,759	-165,165	-0,114	-0,004
-281,745	-165,311	-0,050	0,002
-280,730	119,873	-0,043	0,039
-279,716	321,252	0,114	-0,157
-278,701	66,291	0,023	-0,017
-277,686	-200,000	0,010	0,043
-276,672	323,076	0,055	0,076
-275,657	225,859	0,037	-0,043
-274,643	-48,536	-0,052	-0,018
-273,628	53,367	0,015	0,010
-272,613	-200,000	-0,011	0,043
-271,599	800,000	-0,027	0,061
-270,584	-153,380	0,101	-0,005
-269,570	800,000	0,040	-0,103
-268,555	-43,541	-0,160	0,058
-267,540	58,082	-0,122	-0,086
-266,526	128,696	-0,073	-0,068
-265,511	7,632	-0,036	0,019
-264,497	31,479	-0,014	0,009
-263,482	291,353	0,065	0,086
-262,467	800,000	0,036	0,112
-261,453	204,759	-0,008	0,009
-260,438	22,957	0,076	0,045
-259,424	800,000	-0,079	-0,168
-258,409	800,000	-0,027	0,081
-257,395	-103,862	0,106	-0,018
-256,380	550,747	-0,086	0,149
-255,365	15,156	0,127	-0,072
-254,351	217,164	-0,022	-0,025
-253,336	-79,389	-0,131	0,032
-252,322	-45,642	0,085	0,030
-251,307	-124,159	-0,063	0,007
-250,292	50,257	-0,017	0,012
-249,278	65,531	-0,037	0,027
-248,263	-154,270	0,093	-0,004
-247,249	84,221	0,112	0,088
-246,234	-91,196	0,184	-0,038
-245,219	-86,854	0,171	-0,037
-244,205	186,280	0,124	-0,133
-243,190	267,095	-0,067	0,085
-242,176	-200,000	-0,002	0,012
-241,161	-135,005	0,129	0,011
-240,146	-65,893	0,047	0,014
-239,132	-126,530	0,061	-0,006
-238,117	800,000	-0,023	-0,065
-237,103	-200,000	-0,026	-0,151
-236,088	224,471	-0,060	-0,071
-235,073	800,000	0,061	0,149
-234,059	-149,437	0,151	0,009
-233,044	379,865	0,036	0,053
-232,030	-182,119	0,058	-0,001
-231,015	800,000	-0,055	-0,146
-230,000	531,669	0,015	-0,025
-228,986	-200,000	0,026	0,172
-227,971	48,822	0,060	0,040
-226,957	438,643	0,057	-0,089
-225,942	-7,266	0,029	-0,014
-224,927	-200,000	0,006	-0,102
-223,913	17,948	-0,136	-0,078
-222,898	-80,981	0,152	-0,036
-221,884	-160,762	0,101	-0,004
-220,869	-31,120	-0,069	0,028
-219,855	1,037	0,131	0,068
-218,840	-99,269	0,092	0,017
-217,825	63,102	-0,019	-0,014
-216,811	415,792	0,012	-0,018
-215,796	-56,020	0,083	0,026
-214,782	36,702	-0,054	-0,034
-213,767	800,000	-0,015	0,033
-212,752	20,012	-0,123	0,071
-211,738	232,056	0,066	0,078
-210,723	238,050	0,014	-0,016
-209,709	721,206	0,055	0,107
-208,694	99,966	-0,094	0,079
-207,679	800,000	0,032	-0,093
-206,665	800,000	-0,019	0,039
-205,650	-200,000	0,016	0,078
-204,636	424,633	0,056	0,088
-203,621	-160,245	-0,076	0,003
-202,606	-200,000	0,005	0,068
-201,592	-200,000	-0,005	-0,094
-200,577	-200,000	-0,029	-0,122
-199,563	-74,187	0,056	0,014
-198,548	-200,000	0,027	-0,133
-197,533	-200,000	-0,020	-0,084
-196,519	508,508	-0,024	0,040
-195,504	62,059	-0,031	-0,023
-194,490	-200,000	-0,006	-0,097
-193,475	-20,801	-0,155	-0,068
-192,460	800,000	-0,012	-0,028
-191,446	556,524	0,046	0,081
-190,431	3,726	0,109	-0,057
-189,417	-95,336	-0,030	0,006
-188,402	11,063	-0,065	0,036
-187,387	800,000	0,055	-0,138
-186,373	-200,000	-0,005	-0,054
-185,358	-8,828	-0,036	0,017
-184,344	800,000	0,065	0,152
-183,329	171,338	-0,030	-0,032
-182,315	-200,000	0,003	0,138
-181,300	-151,336	-0,084	-0,004
-180,285	800,000	0,023	-0,071
-179,271	211,027	0,066	-0,075
-178,256	-200,000	0,188	-0,001
-177,242	-14,252	-0,031	0,014
-176,227	-4,496	0,120	-0,060
-175,212	-5,235	0,056	-0,027
-174,198	356,321	0,064	-0,093
-173,183	800,000	0,035	0,095
-172,169	-180,284	0,092	0,001
-171,154	-95,262	0,059	0,011
-170,139	-140,030	0,142	-0,011
-169,125	-182,452	-0,166	0,002
-168,110	371,498	0,048	0,071
-167,096	-44,873	0,080	0,029
-166,081	166,025	0,016	-0,016
-165,066	-59,881	-0,155	-0,047
-164,052	-106,506	-0,116	0,019
-163,037	-28,223	0,091	0,038
-162,023	-77,766	0,076	0,019
-161,008	-200,000	0,009	0,120
-159,993	99,435	0,136	0,113
-158,979	-21,305	-0,033	0,015
-157,964	111,572	0,043	0,038
-156,950	217,146	-0,029	0,033
-155,935	-200,000	0,011	0,049
-154,920	-53,001	-0,139	-0,046
-153,906	-200,000	0,048	0,196
-152,891	289,842	0,082	-0,107
-151,877	-161,834	-0,131	0,005
-150,862	68,638	0,068	0,050
-149,847	491,274	0,082	-0,136
-148,833	108,176	-0,026	0,022
-147,818	-200,000	0,027	0,113
-146,804	181,501	-0,115	0,122
-145,789	10,386	0,173	0,095
-144,775	800,000	0,029	0,085
-143,760	-200,000	0,005	0,057
-142,745	286,356	-0,077	-0,101
-141,731	-200,000	0,019	-0,138
-140,716	747,001	-0,060	-0,118
-139,702	121,939	0,127	0,114
-138,687	800,000	0,021	0,065
-137,672	1,314	0,041	0,021
-136,658	-200,000	-0,042	0,193
-135,643	800,000	-0,021	0,060
-134,629	-200,000	0,014	0,055
-133,614	284,460	-0,025	-0,032
-132,599	-53,650	0,024	-0,008
-131,585	9,461	0,139	0,076
-130,570	25,003	0,017	-0,010
-129,556	800,000	0,028	-0,082
-128,541	-200,000	-0,004	-0,098
-127,526	68,972	0,023	0,017
-126,512	57,665	0,121	0,085
-125,497	-170,367	0,230	0,006
-124,483	65,325	-0,089	0,064
-123,468	-100,146	-0,074	0,013
-122,453	409,899	-0,071	-0,108
-121,439	83,871	0,147	-0,115
-120,424	308,905	0,023	0,031
-119,410	-200,000	0,002	-0,015
-118,395	249,835	0,061	-0,075
-117,380	195,178	-0,077	-0,085
-116,366	-200,000	-0,001	-0,061
-115,351	94,133	-0,140	-0,114
-114,337	800,000	-0,005	-0,013
-113,322	760,402	0,034	-0,067
-112,307	-34,297	0,124	-0,049
-111,293	-200,000	-0,007	0,048
-110,278	584,131	0,015	-0,027
-109,264	231,424	-0,059	0,069
-108,249	12,453	0,092	-0,051
-107,234	112,113	-0,117	-0,102
-106,220	-200,000	0,020	-0,110
-105,205	-64,249	-0,046	-0,013
-104,191	249,819	0,083	0,102
-103,176	184,124	0,085	0,091
-102,162	-200,000	-0,014	0,065
-101,147	-110,165	-0,110	-0,016
-100,132	-36,926	-0,043	0,016
-99,118	7,024	-0,174	-0,093
-98,103	280,847	0,051	0,065
-97,089	194,107	0,066	0,072
-96,074	-43,067	0,053	0,019
-95,059	105,424	0,088	0,074
-94,045	-159,115	-0,171	-0,007
-93,030	1,896	0,064	-0,033
-92,016	800,000	-0,053	0,128
-91,001	800,000	-0,025	0,065
-89,986	210,413	0,099	-0,112
-88,972	227,487	-0,092	-0,107
-87,957	-92,068	0,091	0,018
-86,943	800,000	-0,031	0,074
-85,928	62,690	-0,073	0,052
-84,913	-200,000	-0,007	0,108
-83,899	-96,919	-0,115	-0,022
-82,884	-127,520	0,040	0,004
-81,870	35,620	0,040	0,025
-80,855	72,346	-0,047	0,035
-79,840	14,850	-0,121	-0,067
-78,826	81,036	-0,106	0,082
-77,811	293,541	-0,091	-0,119
-76,797	-88,044	0,156	-0,033
-75,782	757,968	0,102	0,200
-74,767	-200,000	-0,002	0,017
-73,753	-200,000	0,010	-0,105
-72,738	37,156	-0,019	0,012
-71,724	800,000	-0,020	-0,042
-70,709	122,411	0,023	0,021
-69,694	130,156	0,072	0,066
-68,680	800,000	-0,050	0,112
-67,665	800,000	0,068	0,168
-66,651	-96,852	-0,057	-0,011
-65,636	-200,000	0,010	-0,048
-64,622	-53,484	0,046	0,015
-63,607	40,196	0,026	-0,017
-62,592	800,000	0,040	-0,111
-61,578	-200,000	0,017	-0,077
-60,563	-200,000	0,005	0,144
-59,549	-200,000	-0,001	0,007
-58,534	12,015	-2,078	-1,143
-57,519	-200,000	-0,059	-0,747
-56,505	-200,000	-1,306	-5,001
-55,490	109,139	0,848	0,728
-54,476	800,000	5,237	12,057
-53,461	-200,000	18,702	311,872
-52,446	800,000	739,875	2319,097
-51,432	556,988	1656,230	2873,865
-50,417	110,865	1640,477	1415,482
-49,403	75,039	1290,453	974,026
-48,388	30,606	1030,917	630,895
-47,373	20,129	993,502	573,308
-46,359	17,732	981,095	558,242
-45,344	14,317	977,436	544,913
-44,330	14,696	975,774	545,210
-43,315	14,050	973,977	542,067
-42,300	13,982	972,762	541,146
-41,286	13,985	971,816	540,606
-40,271	14,067	970,692	540,229
-39,257	14,048	970,230	539,890
-38,242	14,051	969,131	539,264
-37,227	14,050	968,234	538,741
-36,213	14,046	967,425	538,255
-35,198	13,930	966,768	537,492
-34,184	14,025	965,629	537,148
-33,169	13,951	964,817	536,434
-32,154	14,055	963,698	536,126
-31,140	14,023	962,868	535,541
-30,125	14,051	962,294	535,291
-29,111	14,103	961,443	534,963
-28,096	14,059	960,761	534,421
-27,082	14,067	960,082	534,049
-26,067	14,043	959,333	533,534
-25,052	14,059	958,559	533,132
-24,038	13,998	957,940	532,571
-23,023	13,984	957,447	532,230
-22,009	14,044	956,610	531,937
-20,994	14,084	956,009	531,711
-19,979	14,069	955,392	531,298
-18,965	14,038	954,693	530,789
-17,950	13,995	954,210	530,360
-16,936	13,996	953,344	529,860
-15,921	14,007	952,866	529,611
-14,906	13,943	951,908	528,852
-13,892	13,975	951,370	528,634
-12,877	13,851	950,940	527,978
-11,863	13,832	950,186	527,478
-10,848	13,957	949,625	527,545
-9,833	13,966	949,097	527,259
-8,819	13,975	948,407	526,882
-7,804	13,969	947,710	526,455
-6,790	13,932	947,296	526,088
-5,775	13,983	946,654	525,872
-4,760	13,914	946,070	525,308
-3,746	13,942	945,526	525,072
-2,731	13,783	944,838	524,165
-1,717	13,778	944,183	523,767
-0,702	13,748	943,588	523,320
0,313	13,554	942,762	523,036
1,327	16,922	940,534	532,407
2,342	25,840	795,707	474,109
3,356	22,258	460,288	268,734
4,371	-4,632	317,365	156,430
5,386	-8,755	299,319	143,307
6,400	-10,588	293,082	138,471
7,415	-10,727	290,574	137,135
8,429	-11,332	289,040	135,801
9,444	-11,133	288,091	135,539
10,459	-11,067	287,506	135,316
11,473	-11,160	286,869	134,913
12,488	-11,137	286,315	134,664
13,502	-11,170	285,822	134,387
14,517	-11,157	285,392	134,186
15,531	-11,205	284,879	133,886
16,546	-11,181	284,664	133,796
17,561	-10,919	284,067	133,758
18,575	-11,046	283,902	133,545
19,590	-11,214	283,493	133,178
20,604	-11,116	283,179	133,114
21,619	-11,187	282,848	132,878
22,634	-11,196	282,496	132,692
23,648	-11,301	282,250	132,464
24,663	-11,324	282,006	132,315
25,677	-11,146	281,516	132,244
26,692	-11,098	281,342	132,197
27,707	-11,083	280,919	132,001
28,721	-11,111	280,738	131,878
29,736	-11,283	280,580	131,627
30,750	-11,037	280,334	131,734
31,765	-11,193	279,912	131,376
32,780	-11,097	279,551	131,286
33,794	-11,094	279,505	131,256
34,809	-11,324	279,269	130,913
35,823	-11,233	278,985	130,855
36,838	-11,225	278,600	130,670
37,853	-11,208	278,371	130,568
38,867	-11,214	278,186	130,464
39,882	-11,246	277,832	130,257
40,896	-11,020	277,684	130,389
41,911	-11,308	277,565	130,048
42,926	-11,122	277,179	130,032
43,940	-11,159	276,917	129,863
44,955	-11,156	276,756	129,779
45,969	-11,143	276,413	129,619
46,984	-11,415	276,291	129,293
47,999	-11,652	275,951	128,900
49,013	-11,630	275,594	128,742
50,028	-11,952	275,473	128,371
51,042	-11,857	275,244	128,343
52,057	-12,029	274,927	128,023
53,071	-11,707	274,703	128,208
54,086	-11,746	274,508	128,069
55,101	-11,544	274,367	128,181
56,115	-11,331	274,177	128,279
57,130	-11,253	274,015	128,265
58,144	-11,158	273,880	128,279
59,159	-11,134	273,525	128,124
60,174	-11,175	273,359	127,996
61,188	-11,289	273,145	127,779
62,203	-11,149	272,791	127,732
63,217	-11,212	272,703	127,621
64,232	-11,068	272,490	127,643
65,247	-10,976	272,282	127,620
66,261	-11,030	272,109	127,477
67,276	-11,213	271,733	127,121
68,290	-11,485	271,446	126,724
69,305	-11,355	271,048	126,646
70,320	-11,345	271,028	126,635
71,334	-11,226	270,905	126,675
72,349	-11,046	270,745	126,756
73,363	-11,056	270,408	126,578
74,378	-11,155	270,239	126,396
75,393	-11,120	270,073	126,339
76,407	-10,923	269,796	126,379
77,422	-11,158	269,611	126,066
78,436	-11,063	269,261	125,977
79,451	-11,009	269,194	125,985
80,466	-11,386	268,874	125,479
81,480	-11,301	268,594	125,415
82,495	-11,255	268,438	125,373
83,509	-11,208	268,384	125,380
84,524	-11,275	267,940	125,100
85,539	-11,343	267,740	124,933
86,553	-11,441	267,467	124,706
87,568	-11,301	267,442	124,810
88,582	-11,203	267,160	124,756
89,597	-11,302	266,927	124,546
90,611	-11,223	266,799	124,548
91,626	-11,038	266,691	124,653
92,641	-11,102	266,505	124,498
93,655	-10,995	266,042	124,367
94,670	-11,117	265,772	124,120
95,684	-11,108	265,778	124,119
96,699	-11,006	265,534	124,086
97,714	-11,215	265,212	123,736
98,728	-11,476	265,121	123,448
99,743	-11,477	264,921	123,343
100,757	-11,315	264,665	123,358
101,772	-11,351	264,655	123,311
102,787	-11,308	264,362	123,202
103,801	-11,287	264,215	123,141
104,816	-11,099	263,957	123,178
105,830	-10,902	263,928	123,329
106,845	-10,927	263,699	123,189
107,860	-11,037	263,310	122,898
108,874	-11,165	263,313	122,774
109,889	-11,164	262,937	122,589
110,903	-11,278	262,593	122,316
111,918	-11,230	262,463	122,288
112,933	-10,917	262,295	122,477
113,947	-11,063	262,115	122,252
114,962	-10,917	261,904	122,272
115,976	-11,188	261,702	121,927
116,991	-11,003	261,621	122,041
118,006	-11,114	261,585	121,916
119,020	-11,000	261,271	121,859
120,035	-11,273	261,172	121,561
121,049	-10,913	260,969	121,774
122,064	-11,042	260,588	121,471
123,079	-11,012	260,356	121,379
124,093	-11,120	260,435	121,310
125,108	-11,021	259,858	121,117
126,122	-11,571	259,773	120,583
127,137	-11,550	259,679	120,547
128,151	-11,305	259,417	120,631
129,166	-11,453	259,310	120,440
130,181	-11,465	259,159	120,348
131,195	-11,334	258,690	120,234
132,210	-11,215	258,706	120,336
133,224	-11,030	258,606	120,440
134,239	-11,110	258,386	120,257
135,254	-10,945	258,148	120,280
136,268	-11,167	257,921	119,969
137,283	-11,251	257,553	119,714
138,297	-11,398	257,534	119,567
139,312	-11,550	257,198	119,267
140,327	-11,358	257,113	119,385
141,341	-11,152	257,090	119,542
142,356	-10,855	256,828	119,667
143,370	-11,019	256,693	119,452
144,385	-10,831	256,501	119,515
145,400	-10,951	256,263	119,289
146,414	-10,796	256,106	119,340
147,429	-10,846	255,863	119,173
148,443	-10,863	255,706	119,074
149,458	-10,990	255,583	118,897
150,473	-10,708	255,346	119,019
151,487	-11,018	255,118	118,635
152,502	-10,953	254,943	118,599
153,516	-11,030	254,848	118,478
154,531	-10,896	254,685	118,507
155,546	-10,842	254,393	118,407
156,560	-10,941	254,241	118,240
157,575	-11,046	253,981	118,019
158,589	-11,041	253,915	117,982
159,604	-10,908	253,675	117,974
160,619	-10,945	253,562	117,879
161,633	-10,808	253,365	117,895
162,648	-10,767	253,123	117,806
163,662	-10,836	252,923	117,643
164,677	-10,827	252,783	117,576
165,692	-11,039	252,717	117,354
166,706	-10,815	252,582	117,472
167,721	-10,949	252,278	117,206
168,735	-10,862	252,270	117,266
169,750	-10,829	252,116	117,211
170,764	-10,843	251,927	117,102
171,779	-10,998	251,808	116,904
172,794	-10,949	251,699	116,884
173,808	-10,840	251,344	116,801
174,823	-11,193	250,991	116,328
175,837	-11,451	250,886	116,051
176,852	-11,058	250,770	116,320
177,867	-11,002	250,609	116,282
178,881	-10,903	250,601	116,351
179,896	-10,816	250,373	116,309
180,910	-10,714	250,236	116,321
181,925	-10,983	250,035	115,990
182,940	-10,719	249,883	116,132
183,954	-10,741	249,454	115,903
184,969	-10,919	249,497	115,764
185,983	-10,595	249,158	115,867
186,998	-10,981	249,187	115,547
188,013	-10,848	248,890	115,510
189,027	-10,835	248,750	115,445
190,042	-10,895	248,513	115,275
191,056	-10,647	248,328	115,386
192,071	-10,948	248,344	115,132
193,086	-10,810	248,084	115,117
194,100	-10,766	247,930	115,072
195,115	-10,623	247,687	115,068
196,129	-10,756	247,358	114,794
197,144	-10,753	247,339	114,778
198,159	-10,837	247,062	114,569
199,173	-10,817	246,983	114,538
200,188	-10,958	246,749	114,303
201,202	-11,062	246,522	114,101
202,217	-11,287	246,156	113,735
203,232	-11,569	246,149	113,488
204,246	-11,077	246,102	113,863
205,261	-10,589	245,919	114,172
206,275	-11,592	245,481	113,131
207,290	-7,378	247,218	117,422
208,304	0,622	249,722	125,292
209,319	4,279	250,597	128,778
210,334	4,435	250,866	129,034
211,348	4,724	250,724	129,192
212,363	4,948	250,509	129,257
213,377	5,116	250,504	129,383
214,392	4,989	250,384	129,203
215,407	4,873	250,080	128,938
216,421	4,980	249,782	128,862
217,436	5,138	249,750	128,965
218,450	5,269	249,505	128,936
219,465	4,799	249,373	128,466
220,480	4,845	248,992	128,296
221,494	4,598	248,934	128,051
222,509	4,733	248,854	128,110
223,523	4,673	248,706	127,972
224,538	4,412	248,311	127,542
225,553	4,460	248,231	127,529
226,567	4,606	248,041	127,541
227,582	4,476	247,907	127,353
228,596	4,453	247,920	127,330
229,611	4,333	247,517	127,013
230,626	4,298	247,311	126,867
231,640	4,150	247,323	126,739
232,655	4,511	247,048	126,884
233,669	4,156	246,971	126,542
234,684	4,198	246,533	126,340
235,699	4,593	246,583	126,678
236,713	4,626	246,521	126,663
237,728	4,355	246,276	126,304
238,742	4,217	246,099	126,088
239,757	4,261	245,827	125,974
240,772	4,212	245,810	125,914
241,786	4,406	245,668	125,988
242,801	4,110	245,492	125,646
243,815	4,296	245,266	125,670
244,830	4,371	245,288	125,732
245,844	4,552	245,049	125,745
246,859	4,679	244,708	125,662
247,874	4,401	244,718	125,430
248,888	4,329	244,420	125,208
249,903	4,354	244,573	125,295
250,917	4,594	244,232	125,304
251,932	4,559	244,257	125,277
252,947	4,464	244,008	125,062
253,961	4,399	243,656	124,818
254,976	4,416	243,701	124,843
255,990	4,571	243,403	124,805
257,005	4,387	243,206	124,544
258,020	4,221	242,937	124,261
259,034	4,318	242,872	124,295
260,049	4,189	242,906	124,197
261,063	4,196	242,622	124,047
262,078	4,065	242,469	123,851
263,093	4,515	242,333	124,133
264,107	4,498	242,215	124,048
265,122	4,325	241,995	123,785
266,136	4,472	241,907	123,847
267,151	4,748	241,692	123,947
268,166	4,272	241,507	123,461
269,180	4,206	241,369	123,326
270,195	4,713	241,404	123,738
271,209	5,091	241,307	123,980
272,224	4,464	240,863	123,240
273,239	4,229	240,360	122,784
274,253	3,845	240,661	122,621
275,268	4,412	240,340	122,899
276,282	4,298	240,432	122,843
277,297	4,197	240,180	122,623
278,312	4,244	240,020	122,569
279,326	4,319	239,890	122,551
280,341	4,439	239,693	122,534
281,355	4,495	239,476	122,457
282,370	4,574	239,401	122,470
283,384	4,500	239,202	122,299
284,399	4,371	238,892	122,027
285,414	4,117	238,778	121,758
286,428	4,200	238,674	121,759
287,443	4,136	238,520	121,619
288,457	4,603	238,377	121,903
289,472	4,745	238,301	121,966
290,487	4,385	238,224	121,632
291,501	4,247	237,926	121,360
292,516	4,031	237,733	121,081
293,530	4,080	237,510	120,995
294,545	4,554	237,499	121,351
295,560	4,427	237,304	121,142
296,574	4,142	237,055	120,780
297,589	4,481	236,890	120,951
298,603	4,632	236,997	121,113
299,618	4,732	236,918	121,140
300,633	4,448	236,697	120,794
301,647	4,547	236,699	120,862
302,662	5,155	236,465	121,206
303,676	4,862	236,288	120,877
304,691	4,677	236,273	120,713
305,706	4,922	236,003	120,755
306,720	4,797	235,905	120,598
307,735	4,617	235,822	120,404
308,749	4,394	235,515	120,063
309,764	4,362	235,284	119,910
310,779	4,043	235,148	119,582
311,793	4,002	234,847	119,386
312,808	4,123	234,855	119,473
313,822	4,110	234,523	119,284
314,837	4,100	234,371	119,188
315,852	4,165	234,177	119,129
316,866	4,267	234,154	119,186
317,881	4,482	233,984	119,255
318,895	4,177	233,840	118,936
319,910	4,453	233,820	119,127
320,925	4,581	233,700	119,154
321,939	4,056	233,631	118,704
322,954	4,535	233,482	118,987
323,968	4,304	233,381	118,747
324,983	4,422	233,133	118,701
325,997	4,729	233,059	118,888
327,012	4,802	232,748	118,775
328,027	4,421	232,709	118,452
329,041	4,633	232,562	118,529
330,056	5,118	232,624	118,923
331,070	5,364	232,447	119,010
332,085	4,841	232,127	118,435
333,100	4,551	231,951	118,113
334,114	4,517	231,792	117,996
335,129	4,764	231,750	118,152
336,143	4,814	231,513	118,059
337,158	4,758	231,345	117,920
338,173	4,508	231,234	117,663
339,187	4,269	231,068	117,385
340,202	4,431	230,811	117,367
341,216	4,542	230,741	117,406
342,231	4,368	230,576	117,180
343,246	4,207	230,573	117,046
344,260	4,624	230,217	117,170
345,275	4,664	230,309	117,237
346,289	4,936	230,125	117,339
347,304	4,639	230,028	117,054
348,319	4,816	229,856	117,090
349,333	4,649	229,646	116,847
350,348	4,514	229,455	116,637
351,362	4,345	229,302	116,422
352,377	4,272	229,113	116,260
353,392	3,925	228,929	115,894
354,406	4,195	228,864	116,055
355,421	196,027	1317,630	1394,591
356,435	157,263	1450,239	1394,565
