DTS Sentinel unit serial number:	SN410029Multiplexer serial number:	ORYXHardware model number:	OX2-SRSoftware version number:	ORYX F/W v4,00 Oryx Data Collector v3.7.2.0data status	okinstallation	B5 Nyhavnadifferential loss correction	single-endedforward channel	channel 2reverse channel	N/Adate	2023/12/13time	07:22:13forward acquisition time	300,00reverse acquisition time	0,00gamma	499,1914k internal	0,3160k external	0,3160temperature offset calibration	1,0000default loss term (dB/km)	0,3820temperature slope calibration	1,0000multiplexer offset coefficient	1,0000multiplexer slope coefficient	1,0000fibre end	0,00T internal ref (°C)	13,69T ext. ref 1 (°C)	-2,74T ext. ref 2 (°C)	-3,04length (m)	temperature (°C)	Stokes	anti-Stokes-744,400	237,416	0,090	-0,110
-743,385	58,088	-0,170	0,123
-742,371	600,343	0,089	0,164
-741,356	-59,974	-0,387	0,121
-740,342	553,798	0,040	0,070
-739,327	-22,394	-0,347	0,154
-738,312	-89,741	0,053	0,011
-737,298	-24,373	-0,298	-0,130
-736,283	-200,000	0,019	-0,096
-735,269	-88,603	-0,177	-0,039
-734,254	-70,804	0,233	0,064
-733,239	-53,980	-0,607	-0,202
-732,225	-55,115	0,187	0,062
-731,210	800,000	0,050	-0,127
-730,196	-200,000	-0,005	-0,227
-729,181	198,025	-0,093	0,105
-728,167	-5,829	-0,066	-0,033
-727,152	-91,725	-0,097	0,020
-726,137	208,542	-0,045	-0,052
-725,123	-200,000	-0,026	-0,089
-724,108	-142,011	-0,047	-0,003
-723,094	-200,000	0,003	-0,083
-722,079	307,372	-0,116	-0,159
-721,064	167,506	0,091	-0,095
-720,050	-200,000	-0,014	-0,069
-719,035	800,000	-0,039	0,079
-718,021	-200,000	0,036	0,163
-717,006	-23,444	-0,135	0,059
-715,991	800,000	0,008	0,021
-714,977	94,813	0,004	-0,004
-713,962	-200,000	-0,035	0,121
-712,948	-162,869	0,084	0,003
-711,933	174,242	-0,089	0,095
-710,918	403,022	-0,047	-0,074
-709,904	-30,001	0,083	0,034
-708,889	800,000	0,046	-0,105
-707,875	199,030	-0,163	-0,184
-706,860	607,384	0,024	-0,045
-705,845	-200,000	0,022	0,136
-704,831	-200,000	0,003	-0,057
-703,816	503,446	-0,049	0,084
-702,802	-64,848	-0,081	0,024
-701,787	-200,000	-0,056	-0,188
-700,772	-43,157	0,122	0,045
-699,758	769,022	0,041	-0,082
-698,743	398,561	0,093	-0,143
-697,729	-200,000	0,038	0,147
-696,714	85,273	0,038	0,031
-695,699	351,499	0,035	0,051
-694,685	-106,399	-0,094	0,015
-693,670	-17,768	-0,059	0,027
-692,656	-120,648	0,132	-0,016
-691,641	484,916	0,054	-0,090
-690,627	800,000	-0,052	-0,118
-689,612	230,067	-0,059	0,071
-688,597	-200,000	0,024	-0,103
-687,583	800,000	-0,060	-0,134
-686,568	470,475	-0,018	0,029
-685,554	371,843	0,014	-0,021
-684,539	99,845	0,075	0,064
-683,524	-200,000	-0,004	-0,041
-682,510	-33,816	0,078	-0,031
-681,495	800,000	-0,023	-0,049
-680,481	-12,520	-0,112	-0,054
-679,466	-68,008	-0,052	-0,015
-678,451	295,483	0,093	0,126
-677,437	74,703	0,030	-0,023
-676,422	-108,959	0,035	-0,005
-675,408	106,971	0,045	-0,039
-674,393	-136,346	0,135	0,011
-673,378	252,030	-0,150	-0,187
-672,364	-182,578	-0,145	-0,002
-671,349	63,394	-0,104	-0,076
-670,335	-169,718	0,080	0,002
-669,320	53,632	0,084	-0,059
-668,305	259,576	0,025	-0,032
-667,291	215,759	-0,103	0,120
-666,276	82,578	-0,168	0,134
-665,262	-200,000	-0,021	-0,136
-664,247	800,000	-0,037	0,119
-663,232	-81,730	0,021	0,005
-662,218	465,839	0,099	0,163
-661,203	88,617	-0,101	0,083
-660,189	300,025	-0,036	0,049
-659,174	220,883	-0,077	0,091
-658,159	1,058	0,094	0,049
-657,145	107,441	-0,107	-0,093
-656,130	-75,640	0,080	0,021
-655,116	-147,972	0,024	-0,001
-654,101	-113,182	-0,033	0,005
-653,086	800,000	-0,035	-0,099
-652,072	278,275	-0,035	-0,046
-651,057	-104,529	-0,028	-0,005
-650,043	269,809	-0,033	0,043
-649,028	35,960	-0,083	0,054
-648,014	25,576	-0,045	0,028
-646,999	-7,644	0,087	0,043
-645,984	-68,102	0,033	0,009
-644,970	258,001	-0,131	-0,166
-643,955	52,564	0,042	-0,030
-642,941	54,751	-0,059	-0,042
-641,926	38,400	-0,085	-0,055
-640,911	-200,000	0,008	-0,092
-639,897	-52,301	0,140	0,047
-638,882	37,355	0,011	-0,007
-637,868	385,371	0,135	-0,206
-636,853	55,669	0,165	-0,117
-635,838	-79,082	-0,178	-0,044
-634,824	16,348	0,121	-0,070
-633,809	-64,467	0,163	0,048
-632,795	202,945	0,119	0,135
-631,780	800,000	0,041	0,127
-630,765	800,000	-0,048	-0,143
-629,751	-165,707	0,044	-0,001
-628,736	-200,000	0,012	-0,063
-627,722	-54,296	-0,165	-0,054
-626,707	-87,236	0,042	-0,009
-625,692	-200,000	-0,004	-0,044
-624,678	44,795	-0,068	0,046
-623,663	-200,000	0,008	-0,033
-622,649	673,159	-0,042	-0,080
-621,634	108,508	-0,051	-0,045
-620,619	111,668	-0,042	-0,037
-619,605	86,394	-0,039	0,032
-618,590	-186,891	-0,052	0,001
-617,576	181,268	-0,033	0,036
-616,561	800,000	0,058	0,121
-615,546	88,264	-0,137	0,112
-614,532	-117,843	-0,193	-0,025
-613,517	-57,202	0,129	-0,041
-612,503	-200,000	0,005	-0,089
-611,488	-34,764	-0,150	0,060
-610,474	-3,292	0,097	-0,049
-609,459	-52,045	-0,098	-0,033
-608,444	-200,000	0,008	0,088
-607,430	-79,187	-0,080	0,020
-606,415	-57,872	-0,102	0,032
-605,401	122,018	-0,022	0,020
-604,386	41,285	0,086	0,057
-603,371	262,872	0,039	0,050
-602,357	321,293	-0,069	-0,097
-601,342	-88,850	-0,115	0,025
-600,328	800,000	0,038	0,084
-599,313	570,377	-0,040	-0,071
-598,298	102,563	-0,019	-0,016
-597,284	-200,000	-0,017	0,071
-596,269	-200,000	-0,009	0,139
-595,255	342,351	-0,102	0,146
-594,240	267,193	-0,015	0,020
-593,225	800,000	0,038	-0,095
-592,211	-99,885	-0,078	0,014
-591,196	800,000	0,029	0,087
-590,182	131,541	0,120	0,113
-589,167	-152,835	-0,037	-0,002
-588,152	-200,000	0,037	-0,141
-587,138	-87,236	0,052	-0,011
-586,123	596,334	-0,060	-0,110
-585,109	-35,580	-0,060	-0,024
-584,094	-1,383	0,097	0,050
-583,079	181,750	0,067	0,073
-582,065	729,649	-0,029	0,057
-581,050	-200,000	0,016	-0,056
-580,036	43,981	0,110	0,074
-579,021	-200,000	0,024	-0,083
-578,006	-69,180	0,136	0,038
-576,992	2,243	-0,083	-0,044
-575,977	69,591	-0,020	0,015
-574,963	-22,637	-0,074	0,033
-573,948	-200,000	0,019	-0,086
-572,934	800,000	-0,061	-0,139
-571,919	114,376	-0,060	0,054
-570,904	457,234	-0,020	-0,033
-569,890	800,000	-0,017	0,048
-568,875	-200,000	0,018	0,070
-567,861	318,025	0,012	0,017
-566,846	-104,763	-0,072	-0,012
-565,831	800,000	-0,024	0,053
-564,817	-74,444	0,078	0,020
-563,802	-188,552	-0,095	0,001
-562,788	-79,561	-0,046	-0,011
-561,773	167,007	0,118	-0,123
-560,758	360,533	-0,082	-0,120
-559,744	-200,000	-0,019	0,128
-558,729	-200,000	0,003	0,026
-557,715	-48,724	-0,042	0,015
-556,700	-52,715	-0,153	-0,051
-555,685	-200,000	-0,004	-0,098
-554,671	-45,420	0,138	-0,050
-553,656	154,923	0,014	-0,014
-552,642	800,000	-0,011	0,035
-551,627	-30,312	0,081	0,033
-550,612	-161,314	-0,010	0,000
-549,598	22,465	-0,049	0,029
-548,583	-200,000	0,005	-0,065
-547,569	31,111	-0,088	-0,055
-546,554	-200,000	0,021	0,085
-545,539	211,342	0,029	-0,033
-544,525	777,175	0,037	0,073
-543,510	-129,021	-0,108	-0,011
-542,496	-200,000	-0,049	-0,173
-541,481	800,000	-0,027	-0,077
-540,466	-200,000	0,025	-0,130
-539,452	43,066	-0,082	-0,055
-538,437	56,907	-0,066	0,047
-537,423	-100,281	0,120	-0,022
-536,408	-200,000	0,045	0,176
-535,393	-130,701	0,087	0,008
-534,379	103,421	-0,100	-0,086
-533,364	-34,177	-0,126	-0,050
-532,350	-200,000	-0,001	0,050
-531,335	19,522	0,119	0,070
-530,321	800,000	0,044	-0,116
-529,306	-200,000	0,012	-0,040
-528,291	14,597	-0,063	-0,036
-527,277	265,556	-0,047	0,060
-526,262	203,431	0,053	-0,060
-525,248	-145,211	0,039	0,003
-524,233	800,000	0,036	0,078
-523,218	20,430	0,059	-0,035
-522,204	-200,000	0,007	0,124
-521,189	55,334	0,067	0,047
-520,175	-27,452	0,033	-0,014
-519,160	-117,457	-0,114	0,015
-518,145	267,361	0,055	0,071
-517,131	-2,307	0,072	0,037
-516,116	134,685	0,135	0,128
-515,102	72,003	-0,066	0,050
-514,087	-102,242	0,084	0,015
-513,072	175,091	-0,046	-0,048
-512,058	-200,000	0,007	-0,114
-511,043	-155,634	-0,101	-0,005
-510,029	14,066	-0,076	-0,043
-509,014	-53,016	0,064	0,021
-507,999	-200,000	-0,002	0,015
-506,985	-110,838	-0,071	-0,011
-505,970	-17,678	-0,137	-0,062
-504,956	-139,000	-0,177	0,014
-503,941	800,000	-0,045	-0,120
-502,926	800,000	0,025	-0,058
-501,912	286,271	0,066	-0,088
-500,897	274,622	-0,055	-0,072
-499,883	437,925	-0,083	0,133
-498,868	-76,150	-0,122	0,031
-497,853	-54,609	-0,112	-0,037
-496,839	670,653	-0,035	0,067
-495,824	-111,844	0,124	-0,018
-494,810	203,939	-0,087	0,099
-493,795	265,974	0,066	0,084
-492,781	269,992	0,093	0,120
-491,766	-95,157	-0,092	0,018
-490,751	96,876	-0,093	0,077
-489,737	315,263	0,028	-0,038
-488,722	310,843	0,098	0,134
-487,708	-120,179	0,070	0,009
-486,693	-60,010	-0,136	-0,042
-485,678	178,829	-0,080	-0,085
-484,664	425,390	-0,057	-0,089
-483,649	37,282	-0,086	0,055
-482,635	-84,784	0,105	0,024
-481,620	-87,196	-0,043	0,010
-480,605	800,000	-0,020	0,047
-479,591	226,744	-0,044	-0,053
-478,576	29,216	-0,031	-0,019
-477,562	-200,000	0,019	0,095
-476,547	-200,000	-0,021	-0,100
-475,532	133,284	0,083	-0,079
-474,518	-133,145	-0,013	-0,001
-473,503	493,210	-0,067	0,112
-472,489	-200,000	0,026	0,091
-471,474	-200,000	-0,023	-0,142
-470,459	-200,000	-0,009	-0,101
-469,445	800,000	-0,053	-0,165
-468,430	-200,000	0,032	-0,103
-467,416	98,528	0,061	-0,051
-466,401	-200,000	0,023	0,092
-465,386	-200,000	0,008	0,059
-464,372	-186,060	-0,034	-0,000
-463,357	575,568	0,009	0,016
-462,343	134,638	-0,087	-0,082
-461,328	236,503	0,069	-0,084
-460,313	800,000	0,063	-0,181
-459,299	800,000	0,020	-0,057
-458,284	162,496	-0,088	-0,090
-457,270	-67,441	0,124	0,035
-456,255	214,702	-0,078	-0,090
-455,241	35,221	0,082	-0,052
-454,226	-28,448	-0,110	-0,046
-453,211	-200,000	-0,019	0,105
-452,197	-200,000	0,007	-0,074
-451,182	800,000	-0,043	-0,126
-450,168	-200,000	0,001	-0,125
-449,153	188,348	0,031	-0,033
-448,138	79,797	-0,047	-0,037
-447,124	-78,244	0,132	-0,033
-446,109	-143,015	-0,049	0,003
-445,095	115,936	0,068	-0,061
-444,080	800,000	0,051	0,131
-443,065	-200,000	-0,026	0,086
-442,051	-200,000	-0,011	-0,039
-441,036	-200,000	-0,030	-0,121
-440,022	123,396	0,033	0,030
-439,007	508,152	-0,007	-0,012
-437,992	-200,000	0,011	-0,052
-436,978	-200,000	0,002	0,116
-435,963	-102,816	-0,122	-0,021
-434,949	-200,000	0,002	0,059
-433,934	-200,000	-0,003	0,080
-432,919	-146,738	-0,080	-0,005
-431,905	63,441	0,096	0,070
-430,890	-118,076	-0,032	-0,004
-429,876	-200,000	0,014	0,048
-428,861	800,000	0,058	0,125
-427,846	602,068	-0,059	-0,108
-426,832	8,977	-0,133	-0,073
-425,817	-200,000	-0,028	-0,091
-424,803	109,190	-0,031	0,027
-423,788	-200,000	0,018	0,084
-422,773	-134,583	0,125	-0,011
-421,759	105,929	-0,037	0,032
-420,744	800,000	0,039	-0,118
-419,730	-200,000	-0,034	-0,131
-418,715	800,000	-0,045	-0,106
-417,701	-63,555	-0,050	0,015
-416,686	69,486	0,066	-0,050
-415,671	82,503	0,089	0,071
-414,657	42,510	-0,053	-0,035
-413,642	137,934	-0,066	-0,063
-412,628	101,934	-0,106	-0,090
-411,613	117,794	0,045	0,040
-410,598	-200,000	0,004	0,080
-409,584	-130,501	0,058	0,006
-408,569	-24,528	0,087	0,037
-407,555	-5,068	0,128	0,064
-406,540	92,176	-0,062	-0,050
-405,525	287,334	0,109	-0,144
-404,511	-200,000	-0,019	-0,132
-403,496	257,165	-0,038	-0,047
-402,482	-200,000	0,030	-0,110
-401,467	89,756	-0,100	0,081
-400,452	-200,000	-0,001	0,002
-399,438	800,000	-0,035	0,089
-398,423	100,214	-0,077	-0,065
-397,409	251,524	-0,058	-0,072
-396,394	348,862	0,058	-0,083
-395,379	-200,000	0,001	-0,031
-394,365	800,000	-0,052	-0,130
-393,350	-146,440	0,134	0,008
-392,336	-200,000	0,007	0,075
-391,321	-120,149	0,109	-0,013
-390,306	-200,000	-0,006	-0,073
-389,292	-200,000	-0,001	-0,091
-388,277	-62,440	-0,037	-0,011
-387,263	-84,656	0,056	-0,013
-386,248	-99,186	0,112	0,020
-385,233	-148,999	-0,063	0,004
-384,219	95,537	0,014	0,012
-383,204	71,041	0,021	0,016
-382,190	-46,588	0,110	-0,039
-381,175	-112,907	-0,078	-0,011
-380,160	-104,948	-0,052	-0,008
-379,146	632,754	0,110	0,203
-378,131	-200,000	0,006	-0,024
-377,117	-200,000	0,045	-0,151
-376,102	-79,225	-0,133	0,033
-375,088	800,000	-0,016	0,034
-374,073	16,357	0,141	-0,081
-373,058	-200,000	-0,012	0,085
-372,044	140,731	0,041	-0,040
-371,029	89,561	-0,031	0,025
-370,015	-81,781	-0,048	0,011
-369,000	287,706	0,045	-0,059
-367,985	662,138	-0,056	0,106
-366,971	800,000	-0,065	-0,146
-365,956	337,124	0,075	0,106
-364,942	-200,000	-0,004	0,086
-363,927	-62,884	0,071	0,021
-362,912	-200,000	-0,034	-0,110
-361,898	495,166	-0,047	-0,079
-360,883	-87,645	-0,038	0,008
-359,869	-200,000	0,015	-0,049
-358,854	-31,296	0,052	-0,021
-357,839	521,418	0,091	0,156
-356,825	-200,000	-0,015	-0,050
-355,810	-200,000	-0,005	-0,017
-354,796	800,000	0,013	0,038
-353,781	183,622	-0,039	-0,042
-352,766	-41,288	-0,035	-0,013
-351,752	324,505	-0,031	0,044
-350,737	-200,000	-0,010	0,130
-349,723	-43,185	0,142	0,052
-348,708	800,000	-0,010	0,028
-347,693	-37,964	-0,062	-0,024
-346,679	800,000	-0,034	0,093
-345,664	44,568	0,032	0,021
-344,650	405,321	0,069	-0,106
-343,635	-200,000	-0,030	-0,128
-342,620	12,916	0,092	0,051
-341,606	-200,000	-0,010	0,043
-340,591	-200,000	-0,023	-0,095
-339,577	226,631	-0,012	0,014
-338,562	39,903	-0,039	0,025
-337,548	-200,000	-0,003	-0,066
-336,533	-7,766	0,108	0,053
-335,518	-60,688	-0,043	0,013
-334,504	-63,222	-0,070	0,021
-333,489	557,510	-0,049	0,086
-332,475	278,003	-0,072	0,094
-331,460	521,258	0,075	-0,129
-330,445	-200,000	0,003	0,062
-329,431	38,630	0,092	0,059
-328,416	-88,460	-0,031	-0,007
-327,402	16,657	-0,040	-0,023
-326,387	-32,284	0,208	-0,084
-325,372	182,581	-0,087	-0,093
-324,358	251,843	0,012	0,015
-323,343	291,587	0,026	-0,034
-322,329	-105,379	0,063	0,010
-321,314	-38,818	0,048	-0,018
-320,299	-7,600	-0,143	0,070
-319,285	166,040	-0,102	0,105
-318,270	-200,000	-0,025	-0,113
-317,256	800,000	0,010	-0,025
-316,241	800,000	0,065	0,200
-315,226	518,812	0,011	-0,018
-314,212	472,808	0,071	0,116
-313,197	280,038	0,074	0,096
-312,183	303,667	0,074	0,100
-311,168	-199,380	-0,107	-0,000
-310,153	255,134	0,013	-0,016
-309,139	800,000	0,003	-0,008
-308,124	800,000	-0,025	0,056
-307,110	-200,000	-0,003	0,069
-306,095	-58,283	0,016	0,005
-305,080	800,000	-0,034	-0,076
-304,066	800,000	0,026	0,064
-303,051	316,209	0,049	0,067
-302,037	-23,675	0,039	-0,017
-301,022	-42,894	0,003	0,001
-300,008	795,723	-0,016	0,033
-298,993	-200,000	0,001	0,060
-297,978	-101,075	0,056	0,010
-296,964	139,963	0,202	-0,193
-295,949	-200,000	-0,031	-0,111
-294,935	-102,933	0,026	0,004
-293,920	64,397	0,092	0,067
-292,905	-118,979	0,130	-0,016
-291,891	-200,000	-0,015	-0,127
-290,876	425,215	0,037	-0,059
-289,862	-24,209	-0,144	0,062
-288,847	-48,710	-0,047	0,016
-287,832	-200,000	-0,035	0,110
-286,818	19,207	0,088	-0,051
-285,803	-107,510	-0,046	-0,007
-284,789	31,224	0,046	-0,029
-283,774	780,565	-0,035	0,069
-282,759	-74,184	0,055	0,014
-281,745	-4,198	-0,083	-0,041
-280,730	-200,000	-0,025	0,124
-279,716	-200,000	-0,003	0,058
-278,701	76,004	0,030	-0,023
-277,686	249,369	0,051	0,063
-276,672	-69,232	0,158	0,044
-275,657	19,475	0,094	0,054
-274,643	-53,767	-0,063	-0,021
-273,628	-200,000	-0,017	-0,117
-272,613	800,000	-0,038	0,084
-271,599	11,720	0,129	0,071
-270,584	31,427	-0,149	0,092
-269,570	275,758	0,030	-0,038
-268,555	12,401	0,103	0,057
-267,540	102,335	-0,051	0,043
-266,526	-85,177	-0,109	-0,024
-265,511	33,328	-0,064	-0,040
-264,497	477,012	-0,035	0,058
-263,482	465,682	0,042	0,068
-262,467	-125,089	0,112	0,012
-261,453	508,515	0,007	-0,011
-260,438	-5,387	-0,076	0,037
-259,424	-200,000	-0,022	-0,087
-258,409	101,532	-0,039	0,033
-257,395	-95,520	-0,088	-0,017
-256,380	-200,000	0,021	-0,119
-255,365	82,356	0,041	-0,032
-254,351	-74,217	0,078	0,020
-253,336	-39,695	-0,065	0,024
-252,322	6,272	0,115	0,061
-251,307	410,289	-0,038	-0,058
-250,292	-159,883	0,134	0,005
-249,278	344,286	0,080	0,113
-248,263	-200,000	0,026	0,088
-247,249	800,000	-0,022	-0,062
-246,234	90,903	-0,095	0,077
-245,219	-40,150	-0,158	-0,059
-244,205	67,362	-0,071	0,052
-243,190	800,000	0,066	0,179
-242,176	-200,000	-0,024	0,239
-241,161	-152,981	-0,099	0,005
-240,146	-44,053	0,048	0,017
-239,132	-200,000	0,004	0,150
-238,117	660,835	-0,092	-0,171
-237,103	213,398	-0,065	-0,074
-236,088	-45,894	-0,090	0,032
-235,073	234,230	-0,057	0,068
-234,059	104,893	0,124	0,106
-233,044	51,187	0,035	-0,024
-232,030	228,560	0,061	-0,072
-231,015	-85,564	0,073	-0,016
-230,000	449,056	-0,092	-0,147
-228,986	217,801	-0,071	-0,082
-227,971	-200,000	0,001	0,005
-226,957	-146,499	0,130	0,008
-225,942	800,000	-0,032	0,085
-224,927	-99,247	0,119	-0,021
-223,913	-200,000	-0,014	-0,057
-222,898	-200,000	0,004	-0,105
-221,884	-200,000	0,001	-0,125
-220,869	37,606	-0,101	0,065
-219,855	-200,000	0,025	0,112
-218,840	-154,954	0,152	0,007
-217,825	-200,000	-0,002	0,037
-216,811	71,952	-0,069	-0,052
-215,796	-105,405	0,066	-0,011
-214,782	663,396	-0,089	-0,166
-213,767	-54,876	0,104	0,034
-212,752	-62,142	-0,051	-0,015
-211,738	-58,983	0,067	0,021
-210,723	-24,244	0,067	0,029
-209,709	800,000	-0,085	0,205
-208,694	355,816	0,053	-0,077
-207,679	606,111	-0,061	0,111
-206,665	424,894	0,064	0,100
-205,650	569,579	-0,029	0,052
-204,636	40,211	-0,050	-0,032
-203,621	97,422	-0,117	-0,097
-202,606	-200,000	-0,026	-0,158
-201,592	-33,295	-0,043	0,017
-200,577	-52,433	0,085	-0,028
-199,563	-200,000	-0,006	0,049
-198,548	228,379	0,044	-0,052
-197,533	-100,325	0,153	0,027
-196,519	361,159	-0,044	0,064
-195,504	-200,000	0,039	-0,147
-194,490	-130,264	-0,104	0,010
-193,475	800,000	-0,012	0,037
-192,460	174,988	0,064	-0,067
-191,446	22,763	-0,085	0,050
-190,431	493,975	0,048	0,079
-189,417	276,928	0,062	-0,080
-188,402	-200,000	0,003	-0,076
-187,387	-97,790	-0,067	0,012
-186,373	145,861	0,138	-0,134
-185,358	60,691	-0,108	-0,077
-184,344	390,015	0,060	0,091
-183,329	-200,000	0,010	0,120
-182,315	-200,000	-0,025	-0,100
-181,300	-200,000	-0,018	-0,067
-180,285	-200,000	-0,033	0,130
-179,271	800,000	-0,043	0,094
-178,256	734,073	-0,020	0,039
-177,242	3,774	0,151	0,079
-176,227	-141,863	0,148	-0,011
-175,212	-200,000	-0,028	-0,097
-174,198	-200,000	0,002	-0,132
-173,183	-143,325	-0,107	0,007
-172,169	114,503	0,035	0,031
-171,154	-84,528	0,117	0,026
-170,139	-25,696	0,124	0,053
-169,125	176,240	-0,051	0,053
-168,110	-200,000	0,002	0,113
-167,096	283,028	0,028	-0,037
-166,081	-77,521	-0,072	-0,018
-165,066	218,487	0,119	0,137
-164,052	101,992	-0,090	-0,075
-163,037	50,619	0,133	0,090
-162,023	-38,187	0,043	-0,016
-161,008	-200,000	0,033	0,120
-159,993	192,022	-0,023	0,024
-158,979	574,681	-0,115	0,204
-157,964	-200,000	0,012	0,077
-156,950	439,037	-0,086	0,135
-155,935	640,240	0,079	0,145
-154,920	800,000	0,028	-0,073
-153,906	755,254	0,080	0,156
-152,891	605,398	-0,035	-0,063
-151,877	-200,000	-0,001	0,032
-150,862	800,000	0,034	0,082
-149,847	800,000	-0,028	0,062
-148,833	-1,271	0,098	-0,050
-147,818	-149,029	-0,030	0,002
-146,804	800,000	0,059	0,132
-145,789	-200,000	-0,010	0,168
-144,775	239,060	-0,064	-0,077
-143,760	403,609	0,042	0,063
-142,745	-41,198	-0,079	0,029
-141,731	-200,000	0,036	-0,123
-140,716	-71,686	0,144	-0,038
-139,702	-114,162	0,076	0,010
-138,687	-200,000	-0,009	-0,105
-137,672	-70,659	0,117	-0,032
-136,658	195,700	-0,079	0,086
-135,643	38,625	0,050	-0,032
-134,629	-87,355	0,149	-0,032
-133,614	14,399	0,039	0,022
-132,599	89,884	-0,127	0,102
-131,585	-200,000	-0,003	-0,036
-130,570	800,000	0,026	0,073
-129,556	-195,478	-0,058	0,000
-128,541	-200,000	0,020	0,069
-127,526	-200,000	0,007	-0,083
-126,512	-58,109	0,106	-0,033
-125,497	402,648	0,010	0,015
-124,483	225,307	0,076	-0,088
-123,468	-151,986	-0,104	0,005
-122,453	37,101	-0,154	0,098
-121,439	348,701	-0,066	0,093
-120,424	-200,000	0,002	0,043
-119,410	-200,000	-0,021	-0,103
-118,395	433,638	0,037	0,058
-117,380	110,763	0,056	-0,049
-116,366	-200,000	-0,039	0,148
-115,351	300,795	-0,084	-0,111
-114,337	-106,358	0,093	0,015
-113,322	800,000	-0,036	-0,090
-112,307	-37,199	0,122	0,047
-111,293	-200,000	0,001	-0,056
-110,278	-185,115	-0,105	-0,001
-109,264	46,020	-0,034	-0,022
-108,249	-200,000	0,002	0,078
-107,234	-56,372	-0,023	0,007
-106,220	181,564	0,143	0,151
-105,205	-54,627	0,154	-0,050
-104,191	-21,293	0,090	0,040
-103,176	411,933	0,039	0,059
-102,162	-170,340	0,010	0,000
-101,147	-200,000	-0,014	-0,089
-100,132	-122,890	-0,026	0,003
-99,118	320,768	0,081	-0,111
-98,103	257,935	0,024	0,030
-97,089	-200,000	0,004	-0,020
-96,074	51,301	-0,099	0,067
-95,059	-200,000	-0,009	0,033
-94,045	-200,000	0,006	0,038
-93,030	774,636	0,050	0,098
-92,016	66,074	-0,059	-0,043
-91,001	119,215	0,025	0,022
-89,986	50,205	0,071	-0,048
-88,972	103,988	-0,062	0,052
-87,957	297,187	0,052	-0,068
-86,943	-21,462	-0,049	0,021
-85,928	-39,999	0,027	-0,010
-84,913	-51,862	-0,121	-0,040
-83,899	139,445	0,038	-0,036
-82,884	800,000	0,028	0,078
-81,870	170,248	0,097	0,099
-80,855	-200,000	-0,009	-0,075
-79,840	333,537	0,097	0,135
-78,826	-183,083	0,085	0,001
-77,811	-18,754	-0,121	-0,054
-76,797	-200,000	-0,003	-0,076
-75,782	-200,000	0,007	-0,142
-74,767	800,000	-0,016	0,036
-73,753	800,000	0,038	-0,082
-72,738	-200,000	-0,011	-0,039
-71,724	770,360	0,058	-0,114
-70,709	-200,000	-0,010	0,045
-69,694	225,747	0,041	0,048
-68,680	340,871	0,052	0,074
-67,665	34,335	-0,046	-0,029
-66,651	800,000	-0,016	0,037
-65,636	76,722	-0,165	0,125
-64,622	47,052	-0,095	0,063
-63,607	92,663	-0,019	-0,016
-62,592	-56,679	-0,116	-0,037
-61,578	-200,000	0,007	-0,061
-60,563	-200,000	-0,024	0,139
-59,549	-200,000	-0,012	0,077
-58,534	4,092	-2,145	-1,122
-57,519	-200,000	-0,037	-0,835
-56,505	-200,000	-1,277	-5,135
-55,490	115,075	0,771	0,675
-54,476	800,000	5,360	11,920
-53,461	-200,000	18,657	317,163
-52,446	800,000	741,634	2334,186
-51,432	558,134	1657,497	2878,635
-50,417	111,051	1641,268	1417,147
-49,403	75,484	1290,978	976,270
-48,388	30,323	1031,552	630,358
-47,373	19,853	994,373	572,928
-46,359	17,439	981,705	557,658
-45,344	14,030	978,166	544,410
-44,330	14,413	976,497	544,718
-43,315	13,793	974,498	541,548
-42,300	13,714	973,439	540,678
-41,286	13,712	972,520	540,139
-40,271	13,737	971,543	539,659
-39,257	13,756	970,711	539,236
-38,242	13,685	969,953	538,563
-37,227	13,680	969,020	538,006
-36,213	13,704	968,143	537,576
-35,198	13,654	967,321	536,937
-34,184	13,780	966,548	536,894
-33,169	13,704	965,448	536,015
-32,154	13,714	964,563	535,537
-31,140	13,722	963,666	535,042
-30,125	13,741	963,001	534,713
-29,111	13,752	961,986	534,164
-28,096	13,746	961,528	533,870
-27,082	13,724	960,734	533,336
-26,067	13,786	959,948	533,079
-25,052	13,783	959,168	532,614
-24,038	13,756	958,447	532,106
-23,023	13,705	957,908	531,623
-22,009	13,686	957,351	531,230
-20,994	13,716	956,712	530,952
-19,979	13,769	956,005	530,708
-18,965	13,771	955,467	530,396
-17,950	13,738	954,587	529,779
-16,936	13,648	954,318	529,321
-15,921	13,722	953,435	529,046
-14,906	13,674	952,568	528,391
-13,892	13,601	952,321	527,999
-12,877	13,544	951,428	527,299
-11,863	13,590	950,848	527,104
-10,848	13,592	950,207	526,733
-9,833	13,695	949,866	526,853
-8,819	13,660	949,066	526,276
-7,804	13,566	948,593	525,694
-6,790	13,626	947,975	525,521
-5,775	13,634	947,435	525,226
-4,760	13,668	946,891	525,013
-3,746	13,588	946,100	524,299
-2,731	13,507	945,534	523,707
-1,717	13,429	944,863	523,068
-0,702	13,470	944,014	522,707
0,313	13,308	943,459	522,673
1,327	16,640	940,902	531,760
2,342	25,667	795,681	473,666
3,356	22,003	460,586	268,534
4,371	-5,010	317,938	156,312
5,386	-9,012	299,873	143,317
6,400	-10,901	293,737	138,475
7,415	-11,220	291,212	136,954
8,429	-11,478	289,632	135,943
9,444	-11,387	288,566	135,521
10,459	-11,425	288,168	135,284
11,473	-11,488	287,432	134,865
12,488	-11,360	286,826	134,694
13,502	-11,405	286,395	134,436
14,517	-11,379	285,944	134,237
15,531	-11,404	285,554	134,018
16,546	-11,423	285,174	133,809
17,561	-11,457	284,787	133,582
18,575	-11,313	284,344	133,503
19,590	-11,451	283,997	133,194
20,604	-11,265	283,563	133,159
21,619	-11,639	283,482	132,746
22,634	-11,441	283,086	132,741
23,648	-11,516	282,847	132,544
24,663	-11,423	282,401	132,414
25,677	-11,531	282,356	132,276
26,692	-11,469	282,082	132,196
27,707	-11,501	281,546	131,901
28,721	-11,637	281,532	131,752
29,736	-11,424	280,978	131,686
30,750	-11,447	280,744	131,543
31,765	-11,528	280,665	131,417
32,780	-11,494	280,396	131,311
33,794	-11,391	279,963	131,195
34,809	-11,538	279,834	130,982
35,823	-11,416	279,583	130,970
36,838	-11,361	279,304	130,880
37,853	-11,421	278,977	130,658
38,867	-11,542	278,814	130,455
39,882	-11,524	278,622	130,370
40,896	-11,480	278,354	130,275
41,911	-11,657	278,137	129,994
42,926	-11,438	277,772	130,020
43,940	-11,533	277,596	129,835
44,955	-11,539	277,398	129,725
45,969	-11,566	277,124	129,560
46,984	-11,705	276,682	129,211
47,999	-11,886	276,530	128,958
49,013	-12,141	276,364	128,628
50,028	-12,045	276,032	128,552
51,042	-12,025	275,601	128,359
52,057	-12,276	275,450	128,043
53,071	-12,128	275,269	128,085
54,086	-12,068	275,184	128,090
55,101	-11,881	275,098	128,214
56,115	-11,625	274,774	128,292
57,130	-11,528	274,869	128,416
58,144	-11,315	274,414	128,391
59,159	-11,444	274,230	128,173
60,174	-11,255	274,006	128,233
61,188	-11,237	273,778	128,132
62,203	-11,330	273,554	127,929
63,217	-11,243	273,304	127,881
64,232	-11,194	272,978	127,762
65,247	-11,400	272,749	127,453
66,261	-11,477	272,516	127,261
67,276	-11,367	272,295	127,249
68,290	-11,548	272,003	126,934
69,305	-11,747	271,646	126,571
70,320	-11,817	271,691	126,517
71,334	-11,486	271,546	126,743
72,349	-11,594	271,340	126,537
73,363	-11,363	271,040	126,599
74,378	-11,408	270,736	126,403
75,393	-11,273	270,608	126,457
76,407	-11,303	270,404	126,322
77,422	-11,403	270,242	126,144
78,436	-11,499	269,981	125,922
79,451	-11,343	269,670	125,910
80,466	-11,464	269,458	125,688
81,480	-11,548	269,282	125,518
82,495	-11,593	268,940	125,307
83,509	-11,617	268,789	125,203
84,524	-11,515	268,575	125,185
85,539	-11,638	268,254	124,912
86,553	-11,603	268,010	124,819
87,568	-11,450	267,880	124,887
88,582	-11,530	267,815	124,773
89,597	-11,671	267,583	124,526
90,611	-11,515	267,411	124,575
91,626	-11,333	267,245	124,652
92,641	-11,335	267,003	124,526
93,655	-11,494	266,829	124,291
94,670	-11,590	266,685	124,126
95,684	-11,497	266,238	123,991
96,699	-11,441	266,153	123,990
97,714	-11,680	266,008	123,696
98,728	-11,735	265,627	123,458
99,743	-11,694	265,472	123,412
100,757	-11,613	265,106	123,304
101,772	-11,548	264,979	123,292
102,787	-11,487	264,830	123,267
103,801	-11,519	264,706	123,169
104,816	-11,333	264,488	123,223
105,830	-11,247	264,404	123,251
106,845	-11,428	264,236	122,999
107,860	-11,478	263,947	122,809
108,874	-11,472	263,759	122,716
109,889	-11,510	263,662	122,625
110,903	-11,426	263,321	122,532
111,918	-11,497	263,080	122,344
112,933	-11,410	262,938	122,345
113,947	-11,208	262,845	122,471
114,962	-11,690	262,654	121,942
115,976	-11,251	262,379	122,194
116,991	-11,267	262,223	122,096
118,006	-11,452	261,917	121,778
119,020	-11,516	261,940	121,722
120,035	-11,297	261,703	121,795
121,049	-11,362	261,511	121,637
122,064	-11,446	261,299	121,453
123,079	-11,447	261,070	121,335
124,093	-11,310	260,859	121,347
125,108	-11,609	260,382	120,851
126,122	-11,749	260,319	120,687
127,137	-11,735	260,102	120,589
128,151	-11,644	259,885	120,557
129,166	-11,645	259,744	120,480
130,181	-11,594	259,626	120,460
131,195	-11,703	259,342	120,221
132,210	-11,590	259,294	120,288
133,224	-11,336	259,129	120,423
134,239	-11,322	258,851	120,296
135,254	-11,468	258,683	120,079
136,268	-11,463	258,402	119,942
137,283	-11,643	258,109	119,638
138,297	-11,792	258,010	119,451
139,312	-11,845	257,822	119,307
140,327	-11,509	257,664	119,516
141,341	-11,404	257,644	119,588
142,356	-11,338	257,417	119,529
143,370	-11,455	257,260	119,344
144,385	-11,240	257,082	119,438
145,400	-11,265	256,826	119,287
146,414	-11,204	256,654	119,249
147,429	-11,405	256,625	119,050
148,443	-11,227	256,330	119,058
149,458	-11,042	256,082	119,092
150,473	-11,338	256,022	118,797
151,487	-11,411	255,748	118,596
152,502	-11,377	255,614	118,553
153,516	-11,349	255,437	118,485
154,531	-11,045	255,025	118,545
155,546	-11,191	255,031	118,411
156,560	-11,218	254,822	118,280
157,575	-11,392	254,613	118,023
158,589	-11,255	254,203	117,940
159,604	-11,131	254,170	118,021
160,619	-11,035	254,036	118,030
161,633	-11,191	253,770	117,762
162,648	-11,183	253,729	117,740
163,662	-11,229	253,434	117,553
164,677	-11,238	253,374	117,507
165,692	-11,292	253,162	117,352
166,706	-11,050	252,880	117,417
167,721	-11,222	252,830	117,236
168,735	-11,103	252,594	117,218
169,750	-11,058	252,541	117,222
170,764	-11,141	252,479	117,112
171,779	-11,136	252,227	116,989
172,794	-10,992	252,011	117,000
173,808	-11,263	251,922	116,719
174,823	-11,445	251,499	116,357
175,837	-11,565	251,398	116,199
176,852	-11,439	251,369	116,282
177,867	-11,149	251,197	116,438
178,881	-11,130	251,012	116,358
179,896	-11,078	250,794	116,290
180,910	-11,190	250,796	116,186
181,925	-11,120	250,435	116,068
182,940	-11,087	250,334	116,038
183,954	-11,260	250,222	115,830
184,969	-11,021	249,917	115,880
185,983	-11,195	249,941	115,734
186,998	-11,169	249,628	115,601
188,013	-11,237	249,474	115,461
189,027	-11,210	249,306	115,397
190,042	-11,249	249,048	115,234
191,056	-11,041	248,924	115,341
192,071	-11,005	248,790	115,298
193,086	-11,260	248,601	114,987
194,100	-11,216	248,498	114,966
195,115	-11,063	248,097	114,898
196,129	-11,105	247,855	114,741
197,144	-11,027	247,617	114,686
198,159	-11,110	247,604	114,600
199,173	-11,174	247,400	114,442
200,188	-11,207	247,271	114,345
201,202	-11,476	247,010	113,990
202,217	-11,728	246,736	113,645
203,232	-11,741	246,520	113,524
204,246	-11,532	246,508	113,681
205,261	-10,958	246,261	114,033
206,275	-11,871	246,047	113,168
207,290	-8,002	247,500	117,045
208,304	-0,162	250,257	124,912
209,319	4,153	251,410	129,099
210,334	4,729	251,469	129,599
211,348	5,011	251,332	129,753
212,363	5,003	251,179	129,656
213,377	5,387	250,981	129,864
214,392	5,094	250,791	129,509
215,407	5,030	250,665	129,379
216,421	4,784	250,582	129,120
217,436	5,115	250,410	129,295
218,450	5,289	250,134	129,286
219,465	4,933	249,985	128,902
220,480	4,850	249,849	128,751
221,494	4,674	249,574	128,451
222,509	4,922	249,446	128,580
223,523	4,779	249,242	128,345
224,538	4,232	249,028	127,770
225,553	4,616	248,717	127,916
226,567	4,583	248,778	127,909
227,582	4,562	248,608	127,793
228,596	4,621	248,479	127,764
229,611	4,471	248,162	127,466
230,626	4,118	247,936	127,048
231,640	4,346	247,842	127,175
232,655	4,478	247,792	127,248
233,669	4,443	247,499	127,056
234,684	4,202	247,355	126,773
235,699	4,567	247,400	127,085
236,713	4,740	247,085	127,055
237,728	4,314	246,986	126,642
238,742	4,269	246,616	126,404
239,757	4,144	246,490	126,226
240,772	4,334	246,315	126,281
241,786	4,509	246,209	126,358
242,801	4,304	245,990	126,067
243,815	4,403	245,913	126,098
244,830	4,594	245,872	126,221
245,844	4,509	245,660	126,031
246,859	4,347	245,520	125,817
247,874	4,394	245,305	125,734
248,888	4,344	245,235	125,645
249,903	4,535	244,879	125,608
250,917	4,484	244,846	125,538
251,932	4,964	244,774	125,880
252,947	4,646	244,607	125,525
253,961	4,291	244,508	125,174
254,976	4,546	244,154	125,188
255,990	4,658	244,057	125,218
257,005	4,275	243,897	124,815
258,020	4,301	243,656	124,702
259,034	4,345	243,625	124,710
260,049	4,604	243,314	124,749
261,063	4,351	243,313	124,533
262,078	4,339	243,044	124,374
263,093	4,516	243,057	124,513
264,107	4,896	242,762	124,657
265,122	4,542	242,583	124,269
266,136	4,597	242,527	124,273
267,151	4,911	242,256	124,376
268,166	4,438	242,118	123,914
269,180	4,220	241,997	123,666
270,195	5,033	241,868	124,241
271,209	5,038	242,004	124,303
272,224	4,570	241,520	123,669
273,239	4,017	241,255	123,080
274,253	4,173	241,166	123,149
275,268	4,412	241,108	123,299
276,282	4,552	240,845	123,265
277,297	4,183	240,622	122,846
278,312	4,196	240,706	122,889
279,326	4,550	240,434	123,021
280,341	4,427	240,320	122,853
281,355	4,369	240,147	122,708
282,370	4,688	240,020	122,886
283,384	4,599	239,762	122,672
284,399	4,334	239,522	122,328
285,414	4,328	239,529	122,315
286,428	4,337	239,233	122,161
287,443	4,163	239,342	122,068
288,457	4,624	239,108	122,303
289,472	4,613	238,987	122,220
290,487	4,440	238,753	121,954
291,501	4,349	238,496	121,739
292,516	4,051	238,376	121,432
293,530	3,982	238,407	121,383
294,545	4,607	238,198	121,759
295,560	4,234	238,063	121,384
296,574	4,069	237,893	121,158
297,589	4,234	237,845	121,252
298,603	4,439	237,676	121,316
299,618	4,654	237,539	121,404
300,633	4,660	237,229	121,239
301,647	4,681	237,352	121,308
302,662	5,114	237,137	121,527
303,676	4,766	237,038	121,192
304,691	4,687	236,690	120,942
305,706	5,066	236,664	121,214
306,720	4,931	236,537	121,033
307,735	4,915	236,286	120,881
308,749	4,449	236,027	120,375
309,764	4,397	235,815	120,215
310,779	4,287	235,691	120,056
311,793	4,148	235,562	119,871
312,808	4,392	235,306	119,920
313,822	4,128	235,145	119,622
314,837	4,365	234,963	119,703
315,852	4,305	234,977	119,653
316,866	4,310	234,772	119,541
317,881	4,385	234,730	119,567
318,895	4,808	234,623	119,830
319,910	4,888	234,561	119,849
320,925	4,426	234,370	119,384
321,939	4,135	234,133	119,027
322,954	4,410	233,982	119,153
323,968	4,451	233,855	119,109
324,983	4,520	233,783	119,115
325,997	4,998	233,631	119,395
327,012	4,639	233,546	119,065
328,027	4,455	233,367	118,822
329,041	4,970	233,128	119,084
330,056	5,275	233,171	119,330
331,070	5,198	233,069	119,209
332,085	4,800	232,745	118,727
333,100	4,654	232,627	118,544
334,114	4,665	232,328	118,390
335,129	4,691	232,397	118,434
336,143	4,923	232,228	118,515
337,158	4,840	232,168	118,410
338,173	4,668	231,961	118,163
339,187	4,429	231,664	117,819
340,202	4,712	231,590	117,986
341,216	4,497	231,326	117,678
342,231	4,461	231,276	117,614
343,246	4,501	231,112	117,550
344,260	4,761	230,946	117,654
345,275	4,801	230,954	117,678
346,289	4,830	230,782	117,601
347,304	4,789	230,678	117,507
348,319	4,970	230,356	117,469
349,333	4,554	230,207	117,068
350,348	4,478	230,121	116,956
351,362	4,452	229,991	116,860
352,377	4,290	229,700	116,579
353,392	4,121	229,555	116,367
354,406	4,243	229,508	116,426
355,421	195,552	1317,252	1392,781
356,435	156,883	1449,743	1392,750
