DTS Sentinel unit serial number:	SN410029Multiplexer serial number:	ORYXHardware model number:	OX2-SRSoftware version number:	ORYX F/W v4,00 Oryx Data Collector v3.7.2.0data status	okinstallation	B5 Nyhavnadifferential loss correction	single-endedforward channel	channel 2reverse channel	N/Adate	2023/12/13time	21:37:13forward acquisition time	300,00reverse acquisition time	0,00gamma	499,1914k internal	0,3156k external	0,3156temperature offset calibration	1,0000default loss term (dB/km)	0,3820temperature slope calibration	1,0000multiplexer offset coefficient	1,0000multiplexer slope coefficient	1,0000fibre end	0,00T internal ref (°C)	9,89T ext. ref 1 (°C)	-6,95T ext. ref 2 (°C)	-6,99length (m)	temperature (°C)	Stokes	anti-Stokes-744,400	496,940	0,109	0,185
-743,385	-63,726	-0,348	-0,104
-742,371	102,951	0,194	0,168
-741,356	-149,372	-0,267	0,015
-740,342	745,958	0,146	0,291
-739,327	13,221	-0,346	-0,197
-738,312	-148,561	-0,045	-0,003
-737,298	-19,628	-0,200	-0,091
-736,283	800,000	0,054	0,144
-735,269	94,901	-0,238	-0,200
-734,254	-11,397	0,157	0,076
-733,239	20,860	-0,458	-0,273
-732,225	98,134	0,118	0,100
-731,210	531,685	0,101	-0,176
-730,196	621,902	-0,033	0,062
-729,181	800,000	-0,034	0,078
-728,167	-108,178	-0,154	-0,024
-727,152	12,873	-0,043	0,024
-726,137	-95,949	-0,022	-0,004
-725,123	-97,018	-0,173	0,033
-724,108	-200,000	-0,072	0,000
-723,094	-71,563	-0,018	0,005
-722,079	-65,815	-0,168	-0,049
-721,064	136,131	0,027	-0,026
-720,050	-58,449	0,027	-0,009
-719,035	34,628	-0,151	0,097
-718,021	-200,000	-0,006	-0,111
-717,006	74,165	-0,087	-0,067
-715,991	118,385	-0,050	0,045
-714,977	11,585	-0,158	-0,089
-713,962	-125,718	0,012	0,001
-712,948	105,804	-0,041	-0,036
-711,933	800,000	0,034	0,095
-710,918	-1,310	-0,060	0,031
-709,904	800,000	0,055	-0,170
-708,889	800,000	-0,072	-0,211
-707,875	-154,843	0,034	0,002
-706,860	-138,153	-0,064	0,005
-705,845	800,000	-0,026	0,071
-704,831	3,700	0,083	0,044
-703,816	337,528	-0,106	-0,153
-702,802	284,658	0,027	0,036
-701,787	69,183	0,096	0,072
-700,772	118,707	-0,090	-0,082
-699,758	-200,000	0,002	-0,022
-698,743	800,000	0,058	-0,150
-697,729	-147,512	0,035	-0,002
-696,714	245,038	0,058	-0,072
-695,699	-39,616	-0,102	-0,039
-694,685	-200,000	0,009	-0,082
-693,670	519,699	0,028	-0,049
-692,656	-154,081	-0,146	-0,007
-691,641	-136,046	0,251	-0,021
-690,627	-54,404	0,034	0,011
-689,612	-200,000	-0,015	-0,077
-688,597	800,000	-0,073	0,163
-687,583	-200,000	-0,017	-0,113
-686,568	-64,766	0,104	-0,031
-685,554	89,149	-0,075	-0,062
-684,539	-200,000	-0,011	0,121
-683,524	-200,000	0,017	-0,091
-682,510	-200,000	-0,014	0,079
-681,495	800,000	-0,041	0,091
-680,481	-8,477	-0,116	0,057
-679,466	637,333	-0,027	-0,051
-678,451	-200,000	0,023	-0,170
-677,437	-55,525	-0,101	0,033
-676,422	-200,000	-0,022	0,093
-675,408	-18,583	0,072	0,033
-674,393	800,000	-0,041	-0,084
-673,378	-200,000	0,018	-0,062
-672,364	240,332	-0,025	-0,031
-671,349	-200,000	-0,008	-0,063
-670,335	155,455	0,035	0,035
-669,320	800,000	-0,057	-0,157
-668,305	800,000	-0,025	0,056
-667,291	-200,000	0,008	-0,089
-666,276	271,869	-0,049	-0,063
-665,262	-29,196	-0,067	-0,028
-664,247	800,000	-0,040	-0,086
-663,232	-200,000	-0,029	-0,129
-662,218	-93,480	0,033	-0,007
-661,203	487,064	0,045	-0,076
-660,189	800,000	-0,020	0,052
-659,174	666,296	0,066	-0,126
-658,159	-106,635	0,126	-0,020
-657,145	-80,195	-0,166	-0,041
-656,130	197,066	-0,039	-0,044
-655,116	-200,000	0,029	-0,130
-654,101	168,781	-0,053	0,055
-653,086	800,000	0,048	0,136
-652,072	278,625	0,087	-0,114
-651,057	23,443	-0,169	-0,102
-650,043	-200,000	-0,008	0,059
-649,028	130,176	-0,090	-0,085
-648,014	261,869	0,100	-0,128
-646,999	-200,000	-0,020	0,066
-645,984	-102,701	-0,066	0,011
-644,970	-200,000	-0,006	-0,146
-643,955	-200,000	0,002	-0,102
-642,941	-200,000	-0,017	-0,079
-641,926	178,581	0,061	-0,066
-640,911	244,784	-0,003	0,003
-639,897	-75,145	-0,110	-0,029
-638,882	-55,068	-0,010	-0,003
-637,868	-105,499	0,115	0,019
-636,853	800,000	0,043	0,131
-635,838	-200,000	0,014	-0,084
-634,824	-200,000	-0,004	-0,030
-633,809	-17,160	0,041	-0,019
-632,795	89,729	0,078	-0,064
-631,780	241,857	-0,104	-0,128
-630,765	-200,000	-0,000	0,042
-629,751	-102,356	0,102	-0,018
-628,736	198,324	-0,037	-0,042
-627,722	93,538	0,065	-0,054
-626,707	226,332	0,029	-0,035
-625,692	469,235	-0,043	0,071
-624,678	-200,000	0,011	0,089
-623,663	81,117	-0,053	-0,042
-622,649	370,911	-0,075	-0,112
-621,634	-200,000	-0,003	0,029
-620,619	800,000	-0,042	-0,133
-619,605	-200,000	0,012	-0,104
-618,590	139,835	-0,073	0,071
-617,576	622,442	0,043	0,079
-616,561	-200,000	-0,022	-0,124
-615,546	373,152	-0,080	-0,120
-614,532	53,697	-0,136	-0,096
-613,517	744,075	-0,026	0,051
-612,503	-103,600	0,102	-0,017
-611,488	-73,178	-0,052	0,014
-610,474	64,361	0,113	0,083
-609,459	-174,320	-0,092	0,002
-608,444	47,341	-0,029	-0,020
-607,430	38,526	0,067	-0,044
-606,415	800,000	0,003	0,007
-605,401	-72,231	0,095	-0,026
-604,386	-200,000	-0,002	0,010
-603,371	-200,000	0,021	0,085
-602,357	800,000	-0,039	0,106
-601,342	319,292	-0,115	0,161
-600,328	-51,700	-0,074	-0,025
-599,313	185,062	-0,044	0,048
-598,298	118,141	0,028	-0,026
-597,284	-70,207	-0,056	-0,016
-596,269	258,819	-0,026	0,033
-595,255	74,439	-0,033	-0,025
-594,240	49,344	-0,024	0,016
-593,225	51,987	0,064	-0,045
-592,211	-78,762	-0,119	-0,030
-591,196	-200,000	0,000	0,010
-590,182	800,000	0,025	-0,078
-589,167	85,553	0,199	0,160
-588,152	10,972	0,045	0,025
-587,138	800,000	-0,051	0,139
-586,123	-192,026	0,049	0,000
-585,109	-77,737	-0,129	0,032
-584,094	800,000	-0,007	0,019
-583,079	800,000	0,041	0,118
-582,065	-147,648	0,123	0,007
-581,050	800,000	-0,023	0,073
-580,036	-127,174	-0,074	0,008
-579,021	126,679	-0,032	0,030
-578,006	-95,322	0,008	-0,001
-576,992	-200,000	0,006	0,079
-575,977	-106,930	-0,016	0,002
-574,963	62,081	0,027	0,020
-573,948	239,714	-0,104	0,128
-572,934	-74,992	-0,020	0,005
-571,919	68,939	-0,078	-0,059
-570,904	-83,162	-0,065	0,015
-569,890	-200,000	-0,003	0,062
-568,875	-148,975	0,161	0,009
-567,861	-200,000	-0,004	-0,035
-566,846	30,220	0,047	-0,029
-565,831	-27,089	-0,207	0,088
-564,817	-200,000	0,002	0,116
-563,802	-200,000	-0,004	-0,014
-562,788	12,010	0,076	0,043
-561,773	-28,866	-0,063	-0,026
-560,758	-141,170	0,130	0,010
-559,744	-86,995	0,128	0,028
-558,729	-99,620	-0,039	0,007
-557,715	48,325	-0,095	-0,065
-556,700	-154,396	0,077	0,004
-555,685	-52,401	-0,086	-0,029
-554,671	800,000	-0,020	0,057
-553,656	-137,035	-0,040	-0,003
-552,642	4,331	-0,054	-0,029
-551,627	800,000	0,041	-0,104
-550,612	374,264	0,035	-0,052
-549,598	484,847	-0,032	-0,054
-548,583	113,863	0,072	-0,064
-547,569	-92,671	-0,055	0,011
-546,554	-15,446	0,122	0,057
-545,539	-104,620	-0,050	-0,008
-544,525	157,991	0,036	-0,036
-543,510	-56,664	0,044	0,014
-542,496	-79,725	-0,077	-0,019
-541,481	800,000	-0,082	-0,207
-540,466	16,916	0,084	0,048
-539,452	800,000	-0,009	-0,028
-538,437	388,302	0,079	-0,119
-537,423	-200,000	0,027	-0,114
-536,408	-169,671	-0,110	-0,003
-535,393	-64,626	0,123	-0,036
-534,379	-134,183	-0,022	-0,002
-533,364	-200,000	-0,003	0,021
-532,350	66,393	0,108	0,080
-531,335	284,065	0,059	0,078
-530,321	-63,195	-0,073	-0,022
-529,306	428,442	-0,029	-0,046
-528,291	-153,212	-0,037	-0,002
-527,277	25,278	0,049	-0,029
-526,262	-200,000	0,011	-0,122
-525,248	367,799	0,048	0,071
-524,233	-200,000	-0,016	0,073
-523,218	649,055	0,038	-0,071
-522,204	-200,000	0,020	0,099
-521,189	40,745	0,113	-0,075
-520,175	64,477	0,042	0,031
-519,160	115,632	-0,053	-0,047
-518,145	800,000	-0,026	0,062
-517,131	546,636	-0,030	0,053
-516,116	-13,323	-0,030	-0,014
-515,102	-200,000	-0,177	0,001
-514,087	800,000	0,054	-0,154
-513,072	-80,327	-0,087	-0,021
-512,058	305,001	-0,037	0,051
-511,043	-2,240	-0,071	-0,036
-510,029	-0,113	0,081	0,042
-509,014	296,385	0,104	0,140
-507,999	29,087	0,119	0,073
-506,985	800,000	0,018	-0,040
-505,970	-200,000	0,020	-0,115
-504,956	800,000	-0,048	-0,103
-503,941	-200,000	0,007	0,086
-502,926	288,391	-0,034	0,045
-501,912	32,762	-0,043	0,027
-500,897	516,047	0,047	0,081
-499,883	800,000	0,032	-0,073
-498,868	4,606	-0,086	0,046
-497,853	170,482	0,065	0,068
-496,839	-200,000	0,005	-0,055
-495,824	22,888	0,025	-0,015
-494,810	-200,000	0,011	0,121
-493,795	-43,287	-0,034	0,012
-492,781	233,676	-0,069	-0,083
-491,766	66,679	-0,165	0,123
-490,751	-3,673	0,098	-0,050
-489,737	-27,303	-0,108	-0,046
-488,722	-87,408	0,053	-0,012
-487,708	157,589	0,082	-0,083
-486,693	-141,137	0,055	0,004
-485,678	-200,000	0,003	0,027
-484,664	-200,000	-0,047	-0,180
-483,649	800,000	-0,025	-0,070
-482,635	-41,106	0,131	0,049
-481,620	-63,717	0,032	-0,010
-480,605	-75,011	0,109	0,028
-479,591	184,223	-0,046	0,050
-478,576	-95,075	-0,073	-0,014
-477,562	-139,312	-0,065	-0,005
-476,547	-30,200	-0,063	0,026
-475,532	800,000	-0,014	-0,035
-474,518	-200,000	0,022	0,143
-473,503	-200,000	-0,011	0,158
-472,489	-200,000	0,003	-0,068
-471,474	516,554	-0,019	-0,033
-470,459	800,000	-0,052	0,139
-469,445	583,197	0,034	-0,061
-468,430	86,591	-0,046	-0,037
-467,416	-200,000	-0,019	-0,088
-466,401	418,779	0,074	0,117
-465,386	443,417	0,023	0,037
-464,372	207,073	0,016	0,018
-463,357	-200,000	-0,003	-0,094
-462,343	381,867	-0,076	-0,114
-461,328	-75,904	-0,067	-0,017
-460,313	-200,000	0,003	-0,082
-459,299	776,963	-0,041	-0,083
-458,284	-200,000	-0,004	0,035
-457,270	146,542	-0,072	0,071
-456,255	125,216	-0,061	-0,056
-455,241	-138,300	-0,030	-0,002
-454,226	6,043	0,128	-0,069
-453,211	101,474	-0,073	-0,062
-452,197	-129,199	0,129	0,013
-451,182	-22,429	0,048	0,021
-450,168	800,000	-0,035	0,090
-449,153	66,611	-0,028	-0,021
-448,138	19,679	-0,081	-0,047
-447,124	800,000	-0,021	0,044
-446,109	201,559	-0,060	-0,067
-445,095	-119,290	0,048	-0,006
-444,080	361,540	0,055	-0,080
-443,065	-200,000	0,012	-0,045
-442,051	305,691	0,038	0,052
-441,036	132,235	-0,035	-0,032
-440,022	323,914	-0,080	-0,111
-439,007	-200,000	0,039	-0,128
-437,992	800,000	-0,055	0,111
-436,978	-31,817	0,082	0,033
-435,963	332,434	-0,043	-0,061
-434,949	130,243	-0,098	0,091
-433,934	-200,000	-0,005	-0,045
-432,919	-200,000	-0,020	-0,150
-431,905	-200,000	0,008	-0,100
-430,890	-91,629	0,109	-0,022
-429,876	-47,809	-0,120	0,042
-428,861	-16,170	-0,075	-0,035
-427,846	543,359	-0,045	-0,079
-426,832	800,000	-0,020	-0,049
-425,817	800,000	-0,023	-0,050
-424,803	-200,000	0,026	-0,086
-423,788	-200,000	-0,002	0,109
-422,773	345,732	0,035	0,050
-421,759	-93,491	-0,048	0,010
-420,744	771,486	-0,040	-0,080
-419,730	800,000	0,030	-0,062
-418,715	-36,607	-0,109	-0,042
-417,701	-24,977	0,064	-0,027
-416,686	144,560	-0,074	-0,072
-415,671	-52,983	0,065	-0,022
-414,657	-103,526	0,070	-0,012
-413,642	-139,328	0,138	-0,011
-412,628	-186,971	-0,070	-0,001
-411,613	271,143	-0,060	0,077
-410,598	793,519	0,047	-0,094
-409,584	-37,178	-0,062	-0,024
-408,569	425,192	0,093	0,146
-407,555	-76,507	0,079	0,020
-406,540	800,000	0,080	0,189
-405,525	-18,423	0,078	0,035
-404,511	-89,933	0,100	-0,021
-403,496	-200,000	0,009	-0,047
-402,482	114,971	0,044	0,039
-401,467	-65,468	0,074	-0,022
-400,452	-89,254	0,122	-0,026
-399,438	800,000	-0,026	0,060
-398,423	365,670	-0,065	0,096
-397,409	398,379	-0,063	-0,097
-396,394	452,536	-0,032	-0,051
-395,379	-200,000	0,015	-0,050
-394,365	-180,299	0,075	-0,001
-393,350	-200,000	0,021	0,101
-392,336	22,763	0,100	0,059
-391,321	800,000	0,015	-0,047
-390,306	-73,056	-0,186	-0,049
-389,292	22,200	0,031	0,018
-388,277	16,774	-0,148	0,085
-387,263	613,939	0,060	0,110
-386,248	800,000	-0,029	0,089
-385,233	-54,263	-0,060	-0,020
-384,219	-140,620	-0,037	0,003
-383,204	261,595	-0,055	-0,069
-382,190	-139,275	-0,051	-0,004
-381,175	-200,000	0,021	0,072
-380,160	-129,044	0,099	0,010
-379,146	-41,074	0,094	0,035
-378,131	288,252	0,063	-0,083
-377,117	-200,000	-0,013	0,073
-376,102	692,424	-0,052	-0,099
-375,088	115,888	0,117	-0,104
-374,073	800,000	0,093	-0,194
-373,058	-200,000	0,012	-0,075
-372,044	-65,937	0,052	0,015
-371,029	106,645	0,040	0,034
-370,015	243,070	-0,072	0,088
-369,000	-15,410	-0,170	-0,079
-367,985	-200,000	0,011	-0,242
-366,971	-200,000	-0,012	-0,055
-365,956	691,837	-0,031	-0,060
-364,942	74,864	-0,053	-0,040
-363,927	573,214	-0,023	0,042
-362,912	-42,701	-0,201	0,074
-361,898	459,048	-0,020	-0,033
-360,883	-200,000	0,027	-0,102
-359,869	623,290	-0,029	-0,053
-358,854	-80,164	-0,081	-0,020
-357,839	-200,000	-0,016	-0,068
-356,825	-200,000	-0,029	-0,100
-355,810	66,637	-0,029	-0,021
-354,796	126,216	-0,072	-0,066
-353,781	303,568	-0,113	0,152
-352,766	800,000	-0,047	0,131
-351,752	800,000	0,027	0,060
-350,737	-200,000	0,021	0,169
-349,723	124,257	0,017	-0,016
-348,708	117,208	0,085	0,075
-347,693	-50,376	-0,088	0,030
-346,679	-200,000	0,027	-0,180
-345,664	350,015	-0,028	0,041
-344,650	-200,000	0,011	0,146
-343,635	-200,000	0,000	0,062
-342,620	-117,326	0,059	0,008
-341,606	218,459	0,026	0,030
-340,591	146,394	0,079	0,077
-339,577	-179,267	0,169	0,003
-338,562	-5,782	-0,137	-0,068
-337,548	525,564	-0,059	0,102
-336,533	-61,131	-0,196	0,060
-335,518	503,293	0,070	0,118
-334,504	-200,000	-0,012	0,075
-333,489	800,000	-0,043	0,119
-332,475	250,357	-0,088	-0,109
-331,460	-200,000	-0,009	-0,038
-330,445	-114,999	0,062	-0,009
-329,431	-16,665	0,051	0,023
-328,416	800,000	0,050	0,133
-327,402	-200,000	0,024	0,145
-326,387	427,635	0,094	0,148
-325,372	800,000	-0,016	-0,051
-324,358	160,047	-0,079	-0,080
-323,343	54,634	0,120	-0,084
-322,329	435,839	0,085	-0,135
-321,314	495,092	-0,042	0,069
-320,299	-30,643	0,030	0,012
-319,285	-200,000	-0,047	0,161
-318,270	-82,786	0,110	0,026
-317,256	-200,000	-0,004	-0,070
-316,241	525,386	0,076	0,131
-315,226	113,147	0,074	-0,065
-314,212	413,326	-0,052	0,081
-313,197	-145,173	-0,056	0,004
-312,183	283,977	0,005	0,007
-311,168	-33,588	0,023	0,009
-310,153	-44,206	-0,075	0,027
-309,139	-148,593	-0,035	0,002
-308,124	-92,974	0,014	-0,003
-307,110	-103,633	-0,146	-0,025
-306,095	-22,046	0,135	0,059
-305,080	800,000	-0,037	0,080
-304,066	9,138	-0,099	-0,054
-303,051	240,567	-0,059	-0,072
-302,037	206,073	0,031	-0,035
-301,022	-25,634	0,013	-0,005
-300,008	15,109	0,063	-0,036
-298,993	-94,945	0,106	-0,021
-297,978	800,000	0,044	0,090
-296,964	-105,591	-0,129	-0,021
-295,949	800,000	0,030	-0,090
-294,935	-200,000	-0,006	-0,032
-293,920	-200,000	0,004	-0,083
-292,905	4,220	0,021	-0,011
-291,891	675,081	0,050	-0,095
-290,876	154,498	-0,029	0,029
-289,862	-83,562	-0,024	0,005
-288,847	299,867	-0,027	-0,037
-287,832	-200,000	-0,033	-0,112
-286,818	-116,009	-0,020	-0,003
-285,803	-162,987	-0,037	-0,001
-284,789	261,489	0,121	-0,152
-283,774	-200,000	0,006	0,057
-282,759	96,066	0,111	-0,092
-281,745	27,909	0,100	-0,061
-280,730	44,425	-0,152	-0,101
-279,716	117,346	0,036	0,032
-278,701	-200,000	0,033	-0,137
-277,686	-43,498	0,053	0,019
-276,672	-200,000	0,012	0,049
-275,657	11,303	-0,075	0,041
-274,643	-94,125	0,042	-0,008
-273,628	-97,561	0,089	-0,017
-272,613	-200,000	-0,011	0,079
-271,599	-35,051	0,239	0,094
-270,584	800,000	-0,059	0,120
-269,570	134,437	0,112	0,105
-268,555	-120,786	0,051	-0,006
-267,540	-7,216	-0,076	-0,037
-266,526	-88,574	-0,109	-0,023
-265,511	-200,000	0,003	-0,019
-264,497	-200,000	0,024	0,110
-263,482	63,390	-0,149	0,108
-262,467	475,948	-0,006	-0,010
-261,453	800,000	-0,065	0,150
-260,438	10,894	-0,091	-0,050
-259,424	237,377	-0,056	-0,067
-258,409	-200,000	0,005	-0,041
-257,395	-200,000	-0,001	0,103
-256,380	800,000	-0,010	-0,026
-255,365	334,244	-0,053	0,075
-254,351	114,979	-0,072	0,064
-253,336	363,503	0,080	0,116
-252,322	283,283	0,032	0,042
-251,307	252,805	0,069	-0,085
-250,292	800,000	0,018	-0,042
-249,278	-95,863	0,076	-0,014
-248,263	800,000	-0,059	-0,153
-247,249	-200,000	-0,009	0,096
-246,234	61,221	-0,100	-0,072
-245,219	89,430	0,099	0,079
-244,205	160,784	0,070	-0,070
-243,190	-200,000	-0,027	0,140
-242,176	90,820	0,114	0,093
-241,161	-142,453	0,156	0,011
-240,146	497,184	0,022	0,037
-239,132	-200,000	-0,015	-0,097
-238,117	136,420	0,100	-0,094
-237,103	-200,000	-0,032	-0,142
-236,088	84,807	-0,052	-0,041
-235,073	-47,891	0,117	0,041
-234,059	-200,000	0,002	-0,030
-233,044	-98,851	-0,045	0,008
-232,030	-200,000	-0,004	0,105
-231,015	-200,000	0,000	-0,127
-230,000	-5,018	0,118	-0,059
-228,986	-58,011	0,034	0,011
-227,971	-200,000	-0,003	-0,064
-226,957	418,942	0,043	0,067
-225,942	-178,746	-0,031	0,000
-224,927	-200,000	-0,018	0,061
-223,913	-200,000	0,002	0,103
-222,898	52,102	-0,103	0,071
-221,884	-11,697	0,053	-0,025
-220,869	70,486	-0,098	-0,073
-219,855	-200,000	0,019	0,147
-218,840	91,593	0,076	0,062
-217,825	-23,505	0,042	0,018
-216,811	-110,624	-0,050	-0,007
-215,796	364,068	0,078	-0,114
-214,782	-47,637	-0,127	0,044
-213,767	-126,736	-0,030	0,003
-212,752	32,079	0,106	-0,066
-211,738	800,000	0,014	-0,030
-210,723	131,447	-0,054	0,051
-209,709	-200,000	0,003	0,085
-208,694	800,000	-0,062	-0,194
-207,679	167,810	0,081	-0,083
-206,665	-200,000	-0,024	-0,076
-205,650	-57,732	-0,078	-0,025
-204,636	-99,358	-0,029	-0,005
-203,621	92,900	0,091	0,074
-202,606	48,732	0,036	-0,024
-201,592	-200,000	0,002	-0,085
-200,577	-200,000	0,117	-0,000
-199,563	150,680	-0,056	-0,055
-198,548	800,000	0,036	-0,088
-197,533	288,006	0,035	-0,046
-196,519	-83,259	-0,076	-0,018
-195,504	800,000	-0,009	-0,027
-194,490	12,770	-0,054	-0,030
-193,475	-200,000	0,020	-0,093
-192,460	-200,000	0,008	-0,030
-191,446	-93,587	-0,102	0,020
-190,431	35,274	0,062	0,039
-189,417	-88,302	-0,026	-0,006
-188,402	800,000	-0,006	0,019
-187,387	-154,367	-0,106	0,005
-186,373	174,616	-0,029	0,030
-185,358	-124,284	-0,064	0,007
-184,344	-33,942	0,195	0,077
-183,329	-9,163	-0,044	0,021
-182,315	163,266	0,049	-0,049
-181,300	131,475	-0,147	0,136
-180,285	-94,655	-0,137	-0,027
-179,271	-100,664	0,061	-0,011
-178,256	800,000	0,038	0,120
-177,242	-119,735	0,195	-0,024
-176,227	277,772	0,070	0,090
-175,212	100,327	0,140	0,117
-174,198	-8,663	0,129	0,062
-173,183	448,666	0,014	0,023
-172,169	-200,000	-0,003	0,029
-171,154	-80,381	-0,106	-0,025
-170,139	800,000	0,028	0,082
-169,125	407,358	0,117	0,178
-168,110	228,937	-0,023	0,027
-167,096	-112,055	0,107	-0,015
-166,081	-151,512	-0,156	0,008
-165,066	-12,635	-0,157	0,074
-164,052	398,198	0,082	0,125
-163,037	-153,227	-0,169	0,008
-162,023	-200,000	-0,003	0,037
-161,008	-147,483	0,062	0,004
-159,993	305,424	-0,046	-0,061
-158,979	91,552	-0,052	0,042
-157,964	69,091	0,142	0,105
-156,950	-200,000	0,024	0,090
-155,935	-200,000	0,020	0,076
-154,920	125,548	-0,073	0,067
-153,906	-200,000	0,003	0,069
-152,891	-200,000	-0,014	-0,063
-151,877	30,508	0,055	0,034
-150,862	213,324	0,078	-0,089
-149,847	-21,552	0,111	-0,049
-148,833	34,878	0,075	0,047
-147,818	489,566	0,102	-0,169
-146,804	385,653	0,017	0,025
-145,789	-101,176	-0,017	-0,003
-144,775	-15,856	0,026	-0,012
-143,760	34,389	-0,098	-0,062
-142,745	800,000	0,039	-0,083
-141,731	128,056	0,092	-0,085
-140,716	241,043	0,049	0,059
-139,702	-139,897	0,043	0,003
-138,687	-56,369	0,052	-0,017
-137,672	-118,861	-0,091	0,011
-136,658	-128,739	-0,116	-0,012
-135,643	22,848	0,142	-0,084
-134,629	800,000	0,027	-0,077
-133,614	-59,795	0,118	-0,036
-132,599	800,000	0,035	0,084
-131,585	10,344	0,089	0,049
-130,570	-98,897	-0,100	0,018
-129,556	124,618	-0,042	-0,038
-128,541	189,024	0,148	-0,160
-127,526	-77,790	0,076	-0,019
-126,512	-111,322	-0,057	0,008
-125,497	38,916	0,149	0,096
-124,483	-16,565	0,091	0,041
-123,468	-200,000	0,010	0,068
-122,453	50,360	-0,063	0,043
-121,439	-200,000	-0,018	0,076
-120,424	162,781	-0,008	0,008
-119,410	188,448	0,110	0,118
-118,395	418,189	0,010	-0,015
-117,380	-200,000	0,005	0,067
-116,366	-6,347	0,018	-0,009
-115,351	429,189	0,082	-0,127
-114,337	311,887	-0,139	-0,188
-113,322	-118,658	0,094	0,012
-112,307	-115,850	-0,012	-0,002
-111,293	-96,765	0,120	-0,023
-110,278	317,404	-0,054	0,074
-109,264	-27,016	-0,213	0,089
-108,249	106,662	-0,057	0,049
-107,234	151,773	-0,080	0,079
-106,220	402,799	-0,009	0,014
-105,205	122,793	-0,102	-0,092
-104,191	-21,823	0,056	0,024
-103,176	303,736	0,069	0,092
-102,162	48,801	-0,097	0,065
-101,147	-26,263	0,024	0,010
-100,132	-200,000	-0,002	0,016
-99,118	-200,000	0,000	-0,045
-98,103	-200,000	0,016	-0,134
-97,089	240,585	0,072	0,087
-96,074	-200,000	0,014	0,063
-95,059	-200,000	-0,009	0,084
-94,045	800,000	0,021	0,060
-93,030	47,893	0,038	0,026
-92,016	-200,000	0,012	-0,131
-91,001	-33,665	0,078	0,031
-89,986	0,487	-0,071	-0,036
-88,972	-200,000	0,038	0,155
-87,957	159,945	0,096	0,096
-86,943	-200,000	0,000	0,103
-85,928	800,000	0,030	-0,062
-84,913	195,717	-0,065	0,071
-83,899	113,512	0,115	0,101
-82,884	-88,231	0,067	0,014
-81,870	93,870	0,038	-0,031
-80,855	-200,000	0,026	0,099
-79,840	-200,000	0,001	0,019
-78,826	-200,000	0,008	0,031
-77,811	32,507	-0,043	0,027
-76,797	43,099	0,139	-0,091
-75,782	-89,440	0,096	0,020
-74,767	32,542	0,051	0,031
-73,753	-200,000	-0,026	0,118
-72,738	-200,000	-0,002	0,010
-71,724	-10,926	0,032	0,015
-70,709	106,027	-0,092	0,079
-69,694	-122,618	0,099	0,011
-68,680	-200,000	0,007	0,041
-67,665	-200,000	-0,005	-0,024
-66,651	-86,553	-0,029	0,006
-65,636	152,163	-0,091	0,089
-64,622	800,000	0,024	-0,068
-63,607	-80,201	-0,169	0,040
-62,592	407,318	0,076	0,115
-61,578	57,121	0,132	-0,092
-60,563	306,298	-0,014	0,018
-59,549	-126,585	-0,090	0,009
-58,534	84,565	-2,460	-1,933
-57,519	-200,000	0,061	-0,355
-56,505	-200,000	-1,556	-5,247
-55,490	227,598	1,055	1,235
-54,476	800,000	5,434	11,917
-53,461	-200,000	20,963	338,531
-52,446	800,000	763,867	2337,806
-51,432	526,648	1666,498	2830,279
-50,417	108,593	1632,571	1399,691
-49,403	77,647	1283,514	980,494
-48,388	27,312	1027,519	618,421
-47,373	19,192	991,895	570,034
-46,359	14,352	979,478	546,927
-45,344	10,516	976,127	532,385
-44,330	10,895	974,140	532,530
-43,315	10,005	972,176	528,508
-42,300	9,923	971,166	527,667
-41,286	9,973	969,879	527,112
-40,271	9,947	969,104	526,584
-39,257	9,951	968,171	526,070
-38,242	9,927	967,418	525,559
-37,227	9,844	966,549	524,795
-36,213	9,867	965,717	524,399
-35,198	9,883	965,029	524,056
-34,184	9,977	963,924	523,743
-33,169	9,872	963,125	522,944
-32,154	9,942	962,328	522,719
-31,140	9,915	961,336	522,072
-30,125	9,929	960,410	521,593
-29,111	9,893	959,780	521,113
-28,096	9,944	959,062	520,868
-27,082	9,991	958,381	520,632
-26,067	9,911	957,656	519,958
-25,052	9,948	956,807	519,596
-24,038	9,856	956,298	519,000
-23,023	9,849	955,790	518,683
-22,009	9,958	954,940	518,551
-20,994	9,928	954,485	518,186
-19,979	9,934	953,875	517,855
-18,965	9,930	953,133	517,417
-17,950	9,902	952,688	517,066
-16,936	9,884	951,969	516,598
-15,921	9,913	951,283	516,299
-14,906	9,799	950,427	515,447
-13,892	9,842	949,875	515,267
-12,877	9,852	949,085	514,850
-11,863	9,761	948,463	514,198
-10,848	9,774	947,935	513,933
-9,833	9,922	947,378	514,085
-8,819	9,873	946,876	513,635
-7,804	9,886	945,933	513,144
-6,790	9,775	945,455	512,511
-5,775	9,896	944,941	512,599
-4,760	9,841	944,373	512,094
-3,746	9,839	943,686	511,696
-2,731	9,640	943,099	510,721
-1,717	9,644	942,275	510,268
-0,702	9,698	941,453	509,976
0,313	9,514	940,878	509,848
1,327	12,993	938,753	519,690
2,342	21,799	787,914	459,467
3,356	16,899	454,006	257,265
4,371	-10,032	315,521	149,901
5,386	-14,030	297,689	137,338
6,400	-16,172	291,713	132,424
7,415	-16,093	289,131	131,319
8,429	-16,559	287,479	130,098
9,444	-16,550	286,370	129,592
10,459	-16,544	285,874	129,363
11,473	-16,658	285,337	128,996
12,488	-16,426	284,915	129,021
13,502	-16,581	284,283	128,572
14,517	-16,267	283,912	128,699
15,531	-16,419	283,488	128,348
16,546	-16,105	283,185	128,503
17,561	-16,030	282,489	128,249
18,575	-16,205	282,647	128,139
19,590	-16,197	282,139	127,905
20,604	-15,983	281,827	127,959
21,619	-16,150	281,412	127,599
22,634	-16,213	281,123	127,395
23,648	-16,079	280,691	127,317
24,663	-15,952	280,465	127,326
25,677	-16,016	280,198	127,131
26,692	-15,979	279,788	126,970
27,707	-15,886	279,715	127,015
28,721	-15,979	279,386	126,765
29,736	-15,921	279,001	126,634
30,750	-16,073	278,954	126,456
31,765	-16,045	278,660	126,338
32,780	-15,953	278,371	126,284
33,794	-16,116	278,231	126,054
34,809	-15,984	277,865	126,002
35,823	-15,915	277,579	125,927
36,838	-15,882	277,263	125,804
37,853	-15,875	277,100	125,725
38,867	-15,951	276,872	125,538
39,882	-15,849	276,574	125,488
40,896	-15,867	276,407	125,384
41,911	-15,904	276,128	125,211
42,926	-15,954	275,968	125,080
43,940	-15,937	275,742	124,984
44,955	-15,993	275,332	124,734
45,969	-16,086	275,220	124,584
46,984	-16,020	275,070	124,567
47,999	-15,904	274,857	124,569
49,013	-15,954	274,583	124,386
50,028	-16,038	274,428	124,226
51,042	-15,826	274,224	124,322
52,057	-15,887	273,865	124,091
53,071	-15,918	273,678	123,966
54,086	-15,982	273,484	123,808
55,101	-15,865	273,219	123,785
56,115	-15,918	273,052	123,649
57,130	-16,124	272,660	123,269
58,144	-15,978	272,298	123,230
59,159	-16,170	272,331	123,055
60,174	-16,253	271,964	122,801
61,188	-16,093	271,731	122,834
62,203	-16,113	271,538	122,717
63,217	-16,225	271,499	122,584
64,232	-16,024	270,994	122,532
65,247	-16,026	270,713	122,392
66,261	-16,135	270,572	122,216
67,276	-15,856	270,286	122,333
68,290	-15,929	270,022	122,136
69,305	-15,961	269,989	122,080
70,320	-15,867	269,646	122,001
71,334	-15,934	269,503	121,864
72,349	-16,225	269,289	121,489
73,363	-16,304	268,950	121,253
74,378	-16,063	268,684	121,343
75,393	-16,345	268,668	121,067
76,407	-16,138	268,493	121,167
77,422	-15,894	268,150	121,225
78,436	-16,076	267,932	120,949
79,451	-15,954	267,636	120,916
80,466	-15,869	267,284	120,823
81,480	-15,924	267,293	120,767
82,495	-15,882	267,066	120,691
83,509	-15,922	266,868	120,555
84,524	-16,070	266,612	120,294
85,539	-15,848	266,513	120,440
86,553	-15,784	266,034	120,270
87,568	-15,813	266,038	120,235
88,582	-15,901	265,623	119,958
89,597	-16,066	265,658	119,813
90,611	-16,031	265,256	119,653
91,626	-15,940	265,187	119,694
92,641	-16,066	264,995	119,482
93,655	-15,809	264,763	119,599
94,670	-16,047	264,538	119,272
95,684	-15,933	264,347	119,278
96,699	-16,097	264,086	119,002
97,714	-15,814	263,898	119,161
98,728	-15,648	263,819	119,264
99,743	-15,835	263,496	118,939
100,757	-15,830	263,373	118,878
101,772	-15,881	263,063	118,682
102,787	-16,129	263,086	118,459
103,801	-15,982	262,681	118,398
104,816	-16,060	262,398	118,190
105,830	-16,055	262,162	118,078
106,845	-16,143	262,013	117,921
107,860	-15,856	261,854	118,095
108,874	-16,127	261,567	117,714
109,889	-16,106	261,464	117,676
110,903	-16,000	261,164	117,624
111,918	-16,100	261,049	117,473
112,933	-16,134	260,929	117,379
113,947	-16,125	260,738	117,291
114,962	-16,012	260,479	117,263
115,976	-16,016	260,138	117,097
116,991	-16,126	260,007	116,930
118,006	-15,934	259,809	117,000
119,020	-16,014	259,682	116,862
120,035	-15,954	259,617	116,875
121,049	-16,013	259,285	116,663
122,064	-16,056	259,199	116,576
123,079	-16,225	258,916	116,289
124,093	-15,953	258,661	116,404
125,108	-16,087	258,576	116,238
126,122	-15,771	258,349	116,402
127,137	-15,885	258,188	116,219
128,151	-15,809	257,993	116,188
129,166	-15,840	257,683	116,010
130,181	-15,873	257,525	115,900
131,195	-15,953	257,229	115,687
132,210	-15,927	257,097	115,639
133,224	-15,980	256,906	115,497
134,239	-15,913	256,646	115,428
135,254	-15,961	256,302	115,222
136,268	-15,935	256,145	115,164
137,283	-15,872	255,944	115,117
138,297	-15,759	255,946	115,207
139,312	-15,677	255,612	115,117
140,327	-15,928	255,493	114,835
141,341	-15,998	255,216	114,640
142,356	-16,022	255,174	114,591
143,370	-16,198	254,917	114,312
144,385	-15,803	254,597	114,500
145,400	-15,962	254,539	114,326
146,414	-16,124	254,602	114,205
147,429	-16,143	254,070	113,940
148,443	-15,994	254,036	114,043
149,458	-15,877	253,639	113,955
150,473	-15,820	253,613	113,982
151,487	-16,090	253,492	113,685
152,502	-16,005	253,201	113,618
153,516	-15,856	252,903	113,602
154,531	-15,801	252,860	113,619
155,546	-15,836	252,560	113,444
156,560	-15,648	252,391	113,519
157,575	-16,222	252,247	112,953
158,589	-15,871	252,012	113,137
159,604	-15,970	251,901	112,993
160,619	-16,146	251,828	112,800
161,633	-15,952	251,446	112,784
162,648	-15,738	251,305	112,893
163,662	-16,007	251,258	112,633
164,677	-16,000	251,137	112,575
165,692	-15,766	250,689	112,563
166,706	-16,035	250,665	112,313
167,721	-15,905	250,423	112,305
168,735	-16,068	250,330	112,116
169,750	-16,114	250,222	112,018
170,764	-15,909	249,956	112,062
171,779	-15,989	249,844	111,935
172,794	-15,863	249,738	111,983
173,808	-15,953	249,470	111,778
174,823	-15,897	249,345	111,759
175,837	-15,799	249,122	111,731
176,852	-15,884	248,901	111,551
177,867	-16,154	248,733	111,239
178,881	-15,740	248,449	111,449
179,896	-15,778	248,374	111,374
180,910	-15,974	248,251	111,144
181,925	-15,909	248,014	111,083
182,940	-16,060	247,878	110,885
183,954	-15,911	247,754	110,944
184,969	-15,893	247,510	110,840
185,983	-15,879	247,248	110,726
186,998	-15,849	247,253	110,742
188,013	-15,929	246,985	110,546
189,027	-15,863	246,766	110,493
190,042	-16,044	246,587	110,252
191,056	-15,859	246,439	110,330
192,071	-16,078	246,196	110,030
193,086	-15,911	245,966	110,056
194,100	-16,063	245,760	109,827
195,115	-16,073	245,696	109,781
196,129	-16,016	245,455	109,710
197,144	-15,964	245,229	109,643
198,159	-16,140	245,164	109,458
199,173	-16,024	244,808	109,386
200,188	-16,095	244,730	109,282
201,202	-16,197	244,643	109,150
202,217	-15,872	244,431	109,313
203,232	-15,930	244,197	109,151
204,246	-16,282	243,904	108,721
205,261	-16,708	243,660	108,252
206,275	-15,720	243,948	109,183
207,290	-11,085	245,512	113,707
208,304	-4,378	247,786	120,336
209,319	-1,052	248,813	123,598
210,334	-0,014	248,999	124,545
211,348	0,846	249,179	125,341
212,363	1,686	248,966	125,922
213,377	2,038	248,976	126,209
214,392	2,215	249,017	126,366
215,407	2,260	248,865	126,315
216,421	2,359	248,876	126,391
217,436	2,288	248,658	126,211
218,450	2,351	248,583	126,213
219,465	2,299	248,128	125,928
220,480	2,139	248,047	125,743
221,494	2,039	247,806	125,527
222,509	1,691	247,419	125,032
223,523	1,622	247,176	124,841
224,538	1,398	247,011	124,562
225,553	1,262	246,890	124,378
226,567	1,248	246,636	124,227
227,582	1,194	246,510	124,108
228,596	1,259	246,441	124,116
229,611	1,134	246,379	123,971
230,626	1,216	246,058	123,865
231,640	0,980	246,006	123,634
232,655	1,351	245,615	123,731
233,669	1,426	245,494	123,721
234,684	1,064	245,432	123,382
235,699	1,205	245,403	123,472
236,713	1,394	245,104	123,465
237,728	1,288	245,034	123,332
238,742	1,326	244,726	123,197
239,757	1,166	244,572	122,978
240,772	1,210	244,451	122,942
241,786	1,341	244,255	122,939
242,801	1,134	244,088	122,676
243,815	1,129	244,068	122,651
244,830	1,193	243,895	122,605
245,844	1,272	243,686	122,553
246,859	1,238	243,490	122,416
247,874	1,260	243,334	122,344
248,888	1,492	243,176	122,442
249,903	1,506	242,910	122,308
250,917	1,369	242,855	122,158
251,932	1,452	242,758	122,166
252,947	1,317	242,636	121,985
253,961	1,472	242,300	121,930
254,976	1,254	242,308	121,747
255,990	1,541	241,955	121,790
257,005	1,353	241,802	121,551
258,020	1,164	241,831	121,403
259,034	1,359	241,574	121,420
260,049	1,405	241,306	121,311
261,063	1,282	241,278	121,188
262,078	1,190	241,115	121,021
263,093	1,377	240,972	121,088
264,107	1,477	240,791	121,066
265,122	1,289	240,694	120,857
266,136	1,639	240,534	121,046
267,151	1,318	240,432	120,727
268,166	1,345	240,106	120,574
269,180	1,234	239,868	120,355
270,195	1,071	239,877	120,219
271,209	1,334	239,786	120,372
272,224	1,366	239,640	120,314
273,239	1,141	239,379	119,993
274,253	1,268	239,220	120,003
275,268	1,288	239,024	119,911
276,282	1,210	239,080	119,866
277,297	1,356	238,754	119,808
278,312	1,385	238,528	119,706
279,326	1,380	238,471	119,663
280,341	1,225	238,401	119,495
281,355	1,310	238,227	119,464
282,370	1,428	238,101	119,483
283,384	1,392	237,770	119,278
284,399	1,487	237,612	119,263
285,414	1,319	237,576	119,102
286,428	1,376	237,445	119,071
287,443	1,386	237,323	119,007
288,457	1,380	237,199	118,929
289,472	1,496	236,912	118,866
290,487	1,426	236,806	118,747
291,501	1,152	236,616	118,426
292,516	1,320	236,442	118,460
293,530	1,147	236,341	118,263
294,545	1,462	236,246	118,453
295,560	1,457	236,064	118,346
296,574	1,329	235,935	118,171
297,589	1,354	235,750	118,088
298,603	1,340	235,662	118,022
299,618	1,456	235,496	118,019
300,633	1,499	235,287	117,938
301,647	1,273	235,273	117,743
302,662	1,633	235,091	117,922
303,676	1,496	234,927	117,723
304,691	1,541	234,777	117,672
305,706	1,613	234,616	117,637
306,720	1,345	234,561	117,390
307,735	1,455	234,286	117,328
308,749	1,408	234,198	117,237
309,764	1,357	234,131	117,153
310,779	1,483	233,893	117,122
311,793	1,344	233,616	116,865
312,808	1,474	233,583	116,938
313,822	1,597	233,286	116,874
314,837	1,461	233,153	116,692
315,852	1,700	233,034	116,807
316,866	1,591	233,045	116,718
317,881	1,662	232,739	116,608
318,895	1,615	232,527	116,456
319,910	1,555	232,423	116,348
320,925	1,524	232,316	116,259
321,939	1,457	232,244	116,162
322,954	1,556	231,972	116,091
323,968	1,397	231,858	115,902
324,983	1,604	231,709	115,976
325,997	1,604	231,495	115,858
327,012	1,478	231,489	115,748
328,027	1,524	231,263	115,660
329,041	1,581	231,157	115,640
330,056	1,808	230,908	115,679
331,070	1,695	230,750	115,503
332,085	1,607	230,498	115,300
333,100	1,591	230,408	115,232
334,114	1,524	230,324	115,129
335,129	1,516	230,080	114,991
336,143	1,396	230,051	114,875
337,158	1,595	229,980	114,980
338,173	1,747	229,718	114,954
339,187	1,619	229,605	114,791
340,202	1,838	229,348	114,818
341,216	1,652	229,298	114,641
342,231	1,543	229,140	114,469
343,246	1,834	229,015	114,617
344,260	1,664	228,943	114,443
345,275	1,702	228,831	114,405
346,289	1,717	228,633	114,307
347,304	1,999	228,435	114,411
348,319	1,525	228,297	113,974
349,333	1,428	228,254	113,870
350,348	1,459	228,102	113,807
351,362	1,473	228,024	113,769
352,377	1,736	227,799	113,843
353,392	1,545	227,626	113,604
354,406	1,418	227,482	113,426
355,421	194,176	1312,988	1385,703
356,435	155,680	1445,121	1385,575
