DTS Sentinel unit serial number:	SN410029Multiplexer serial number:	ORYXHardware model number:	OX2-SRSoftware version number:	ORYX F/W v4,00 Oryx Data Collector v3.7.2.0data status	okinstallation	B5 Nyhavnadifferential loss correction	single-endedforward channel	channel 2reverse channel	N/Adate	2023/12/11time	18:12:13forward acquisition time	300,00reverse acquisition time	0,00gamma	499,1914k internal	0,3162k external	0,3162temperature offset calibration	1,0000default loss term (dB/km)	0,3820temperature slope calibration	1,0000multiplexer offset coefficient	1,0000multiplexer slope coefficient	1,0000fibre end	0,00T internal ref (°C)	15,07T ext. ref 1 (°C)	-0,44T ext. ref 2 (°C)	-0,72length (m)	temperature (°C)	Stokes	anti-Stokes-744,400	-200,000	-0,007	-0,139
-743,385	-183,454	-0,253	-0,003
-742,371	-200,000	-0,004	-0,041
-741,356	-158,086	-0,277	0,012
-740,342	-11,438	0,095	0,046
-739,327	-41,850	-0,247	0,093
-738,312	-195,247	0,074	0,000
-737,298	-149,740	-0,375	0,021
-736,283	82,180	0,077	0,061
-735,269	-200,000	-0,212	0,000
-734,254	-190,455	0,074	-0,001
-733,239	-58,678	-0,460	-0,146
-732,225	-146,654	0,344	-0,022
-731,210	800,000	0,003	0,011
-730,196	417,002	-0,038	0,060
-729,181	-200,000	0,025	-0,180
-728,167	177,028	-0,059	0,064
-727,152	7,774	-0,047	-0,026
-726,137	104,828	0,094	0,081
-725,123	800,000	-0,086	-0,232
-724,108	800,000	-0,088	-0,254
-723,094	-200,000	0,016	0,085
-722,079	-33,082	-0,075	0,030
-721,064	800,000	0,037	0,091
-720,050	64,729	0,048	-0,035
-719,035	377,571	-0,032	-0,048
-718,021	373,365	-0,112	-0,169
-717,006	421,009	-0,038	0,059
-715,991	800,000	-0,025	-0,062
-714,977	-96,134	-0,132	-0,026
-713,962	52,002	0,020	-0,014
-712,948	-200,000	-0,003	-0,015
-711,933	-200,000	-0,025	0,103
-710,918	-200,000	-0,004	-0,034
-709,904	800,000	0,014	-0,040
-708,889	800,000	-0,035	-0,108
-707,875	538,864	-0,060	-0,105
-706,860	-200,000	0,027	0,096
-705,845	-17,771	-0,051	0,023
-704,831	-18,259	0,028	0,013
-703,816	-149,351	0,101	0,006
-702,802	-20,274	-0,030	0,014
-701,787	87,134	-0,012	0,010
-700,772	-80,883	0,085	-0,021
-699,758	-29,372	-0,063	-0,026
-698,743	223,504	0,068	0,081
-697,729	-66,994	0,085	-0,025
-696,714	177,334	-0,080	-0,086
-695,699	10,202	0,051	-0,028
-694,685	234,679	-0,092	-0,112
-693,670	-200,000	-0,024	-0,136
-692,656	399,922	-0,111	-0,172
-691,641	81,768	0,104	0,083
-690,627	-200,000	-0,008	0,151
-689,612	650,952	0,069	0,131
-688,597	-160,471	-0,134	0,005
-687,583	-14,437	-0,124	-0,058
-686,568	-200,000	0,006	-0,078
-685,554	194,794	0,006	0,007
-684,539	-200,000	0,007	0,042
-683,524	80,708	-0,046	-0,037
-682,510	23,454	-0,075	-0,045
-681,495	-42,434	-0,105	0,039
-680,481	235,586	-0,122	-0,148
-679,466	800,000	-0,079	-0,196
-678,451	-200,000	-0,000	0,023
-677,437	775,070	-0,019	0,038
-676,422	800,000	0,048	-0,145
-675,408	-33,205	-0,068	-0,028
-674,393	-76,581	0,072	0,018
-673,378	-200,000	-0,014	0,065
-672,364	-200,000	0,029	-0,136
-671,349	121,865	-0,095	-0,087
-670,335	-200,000	-0,007	0,023
-669,320	-13,474	0,113	-0,054
-668,305	-126,492	-0,168	-0,018
-667,291	-94,840	-0,053	0,010
-666,276	800,000	0,014	0,030
-665,262	-200,000	0,003	0,027
-664,247	-200,000	0,013	-0,117
-663,232	-200,000	-0,027	-0,096
-662,218	-23,783	-0,036	0,016
-661,203	280,613	-0,132	0,173
-660,189	177,587	0,040	-0,043
-659,174	-83,865	-0,240	-0,056
-658,159	244,781	-0,043	-0,053
-657,145	138,749	-0,054	-0,052
-656,130	-200,000	0,008	-0,097
-655,116	-200,000	0,018	-0,088
-654,101	539,127	0,028	-0,049
-653,086	-5,052	0,093	-0,047
-652,072	317,922	-0,056	-0,078
-651,057	181,215	0,020	-0,021
-650,043	435,585	-0,099	-0,159
-649,028	246,262	0,044	-0,055
-648,014	-200,000	-0,009	0,063
-646,999	-123,301	0,085	0,010
-645,984	800,000	0,091	-0,191
-644,970	753,106	-0,031	0,062
-643,955	-78,202	-0,063	-0,016
-642,941	181,879	-0,096	-0,104
-641,926	705,036	0,065	-0,126
-640,911	-200,000	-0,013	-0,105
-639,897	500,701	-0,042	-0,072
-638,882	-104,708	-0,097	0,016
-637,868	95,604	0,034	-0,029
-636,853	-64,670	-0,044	-0,013
-635,838	-58,233	-0,046	0,015
-634,824	800,000	0,029	-0,076
-633,809	800,000	0,024	-0,075
-632,795	-172,513	-0,125	-0,003
-631,780	-71,864	0,053	-0,014
-630,765	74,764	0,036	0,028
-629,751	76,578	-0,077	0,060
-628,736	800,000	-0,036	-0,080
-627,722	115,469	0,047	-0,042
-626,707	-200,000	0,022	-0,104
-625,692	20,791	0,104	0,062
-624,678	-133,773	0,141	-0,013
-623,663	-200,000	-0,028	-0,105
-622,649	800,000	0,020	-0,056
-621,634	-101,509	0,133	-0,023
-620,619	-29,823	-0,134	-0,056
-619,605	800,000	-0,043	-0,110
-618,590	-4,607	-0,021	-0,010
-617,576	155,994	0,098	0,099
-616,561	620,307	-0,047	-0,087
-615,546	-200,000	0,024	-0,124
-614,532	-200,000	0,003	0,132
-613,517	108,174	0,076	-0,066
-612,503	-33,518	-0,050	-0,020
-611,488	800,000	0,034	-0,086
-610,474	35,702	0,086	-0,055
-609,459	-200,000	0,001	-0,049
-608,444	19,242	-0,041	-0,024
-607,430	185,132	-0,137	-0,149
-606,415	-161,573	0,060	-0,002
-605,401	-141,943	0,120	0,009
-604,386	-200,000	-0,009	0,108
-603,371	75,131	0,014	0,011
-602,357	374,275	0,030	0,044
-601,342	357,092	0,075	-0,109
-600,328	21,171	-0,068	0,040
-599,313	-200,000	0,001	0,008
-598,298	-19,379	0,105	0,047
-597,284	-29,925	-0,053	-0,022
-596,269	98,255	-0,064	-0,054
-595,255	-18,408	-0,048	0,022
-594,240	155,036	-0,096	0,096
-593,225	-200,000	-0,007	0,066
-592,211	-75,890	-0,153	0,039
-591,196	59,871	-0,106	-0,077
-590,182	-28,501	0,107	0,045
-589,167	-8,160	0,168	0,082
-588,152	73,792	-0,072	-0,055
-587,138	-200,000	-0,014	0,050
-586,123	-200,000	-0,037	-0,139
-585,109	185,542	-0,056	0,061
-584,094	746,958	-0,087	0,172
-583,079	37,617	0,049	0,032
-582,065	-131,411	0,063	-0,006
-581,050	143,880	-0,055	0,054
-580,036	82,669	-0,044	-0,035
-579,021	-118,591	-0,089	0,011
-578,006	40,879	0,111	-0,073
-576,992	-200,000	-0,026	-0,181
-575,977	-200,000	0,012	0,203
-574,963	-123,956	-0,079	0,009
-573,948	173,520	-0,094	-0,100
-572,934	800,000	0,034	0,092
-571,919	-103,654	0,056	0,010
-570,904	-200,000	0,002	-0,050
-569,890	275,920	0,086	-0,112
-568,875	-155,206	0,060	-0,003
-567,861	541,769	-0,013	0,022
-566,846	-200,000	0,011	-0,059
-565,831	55,947	-0,149	-0,106
-564,817	116,379	0,065	-0,059
-563,802	800,000	-0,033	-0,080
-562,788	3,404	-0,145	-0,077
-561,773	22,970	-0,060	0,036
-560,758	-65,286	0,077	-0,022
-559,744	-200,000	0,039	0,272
-558,729	248,734	-0,114	0,141
-557,715	800,000	0,033	-0,076
-556,700	-200,000	-0,002	-0,064
-555,685	-200,000	0,024	-0,096
-554,671	104,863	0,092	-0,079
-553,656	576,898	0,095	0,170
-552,642	-200,000	0,004	0,036
-551,627	160,087	0,026	0,027
-550,612	95,930	-0,091	0,076
-549,598	-127,188	-0,088	-0,009
-548,583	715,232	-0,049	-0,096
-547,569	800,000	0,024	0,070
-546,554	96,129	0,136	0,114
-545,539	4,405	0,117	-0,062
-544,525	86,934	0,046	0,037
-543,510	210,620	-0,090	-0,103
-542,496	-200,000	-0,008	-0,153
-541,481	233,236	-0,084	-0,102
-540,466	-200,000	-0,006	0,021
-539,452	367,332	0,016	-0,023
-538,437	54,509	0,086	-0,060
-537,423	282,638	-0,085	0,112
-536,408	-133,405	0,040	-0,004
-535,393	8,785	-0,090	-0,049
-534,379	290,023	-0,076	-0,102
-533,364	-200,000	-0,025	-0,143
-532,350	-200,000	-0,017	-0,087
-531,335	-172,496	-0,037	0,001
-530,321	-200,000	-0,024	0,174
-529,306	27,374	-0,037	0,022
-528,291	-70,571	0,063	-0,017
-527,277	29,956	-0,077	-0,048
-526,262	110,631	0,028	-0,025
-525,248	-200,000	-0,001	0,173
-524,233	-200,000	-0,002	-0,020
-523,218	1,494	0,081	0,043
-522,204	-200,000	-0,012	-0,067
-521,189	80,707	0,050	0,039
-520,175	465,656	-0,050	0,082
-519,160	130,069	-0,013	-0,012
-518,145	454,771	0,017	-0,027
-517,131	6,970	-0,049	-0,027
-516,116	-10,206	-0,020	0,010
-515,102	-200,000	-0,006	0,027
-514,087	114,638	0,009	-0,008
-513,072	62,636	-0,103	-0,075
-512,058	-200,000	0,015	-0,058
-511,043	34,571	-0,040	-0,026
-510,029	-200,000	0,020	0,107
-509,014	-14,851	-0,048	0,022
-507,999	380,369	0,048	-0,073
-506,985	-130,918	-0,123	-0,012
-505,970	281,772	-0,042	-0,055
-504,956	-54,373	-0,155	0,051
-503,941	-200,000	0,018	0,133
-502,926	-28,913	-0,024	0,010
-501,912	-200,000	-0,022	-0,081
-500,897	-72,269	0,058	-0,016
-499,883	109,171	0,060	0,053
-498,868	429,924	-0,069	0,109
-497,853	-200,000	0,020	0,095
-496,839	-65,620	-0,068	0,020
-495,824	-11,502	0,033	-0,016
-494,810	-66,959	-0,065	-0,019
-493,795	800,000	-0,052	0,115
-492,781	-45,505	0,155	-0,056
-491,766	205,224	0,036	0,041
-490,751	-200,000	-0,007	-0,025
-489,737	156,302	0,080	0,080
-488,722	-200,000	-0,021	0,129
-487,708	144,913	-0,045	0,044
-486,693	800,000	0,042	0,124
-485,678	104,773	-0,147	0,126
-484,664	77,283	-0,074	-0,057
-483,649	-159,061	0,078	-0,003
-482,635	-5,485	-0,086	-0,043
-481,620	361,386	0,071	-0,103
-480,605	-200,000	-0,006	-0,046
-479,591	21,538	-0,146	0,086
-478,576	40,073	-0,062	0,040
-477,562	74,894	-0,037	-0,029
-476,547	88,752	-0,079	-0,064
-475,532	582,993	0,045	0,081
-474,518	114,460	-0,154	0,137
-473,503	209,872	0,046	0,052
-472,489	199,730	-0,019	-0,022
-471,474	-66,755	0,070	-0,020
-470,459	200,866	-0,057	-0,064
-469,445	-200,000	-0,010	0,045
-468,430	99,322	0,082	-0,069
-467,416	-200,000	0,001	0,044
-466,401	98,833	-0,074	0,062
-465,386	-52,340	-0,024	-0,008
-464,372	-200,000	0,018	0,116
-463,357	459,701	-0,044	-0,072
-462,343	800,000	-0,059	-0,163
-461,328	401,453	-0,050	-0,077
-460,313	-73,306	0,093	0,024
-459,299	-104,962	-0,029	-0,005
-458,284	-200,000	0,004	0,199
-457,270	94,702	-0,024	-0,020
-456,255	274,298	0,037	0,048
-455,241	95,694	-0,136	-0,113
-454,226	-117,659	0,023	-0,003
-453,211	-80,046	0,037	0,009
-452,197	-93,553	0,052	-0,010
-451,182	165,638	-0,052	0,054
-450,168	-128,322	-0,098	0,010
-449,153	226,977	0,093	-0,110
-448,138	-38,914	-0,064	-0,024
-447,124	-94,184	-0,126	-0,025
-446,109	-25,023	0,160	0,069
-445,095	-101,972	0,074	-0,013
-444,080	-200,000	0,009	0,082
-443,065	-200,000	-0,009	0,087
-442,051	-105,018	-0,132	0,022
-441,036	-16,895	-0,087	-0,040
-440,022	345,332	-0,047	-0,067
-439,007	-38,560	0,079	-0,030
-437,992	529,487	-0,040	-0,069
-436,978	-97,360	-0,001	-0,000
-435,963	224,080	0,096	0,112
-434,949	-200,000	0,037	0,131
-433,934	-200,000	0,014	0,066
-432,919	520,222	0,052	0,089
-431,905	227,712	-0,056	0,066
-430,890	-71,129	0,105	0,029
-429,876	258,521	0,068	-0,085
-428,861	-200,000	-0,009	0,071
-427,846	-17,025	-0,052	0,024
-426,832	-200,000	-0,008	0,065
-425,817	-128,947	-0,078	0,008
-424,803	2,079	-0,123	0,064
-423,788	-99,115	-0,013	-0,002
-422,773	-200,000	0,012	0,120
-421,759	800,000	0,042	-0,103
-420,744	-178,219	-0,038	0,001
-419,730	316,381	0,057	-0,078
-418,715	-112,361	0,043	0,006
-417,701	-87,593	0,146	0,032
-416,686	-200,000	-0,012	0,040
-415,671	7,219	0,074	0,040
-414,657	182,417	0,026	-0,027
-413,642	230,145	0,016	0,019
-412,628	-200,000	0,020	0,069
-411,613	-200,000	-0,004	-0,104
-410,598	191,627	0,018	0,020
-409,584	138,385	-0,011	-0,011
-408,569	-200,000	0,009	0,114
-407,555	58,280	0,103	0,073
-406,540	-200,000	0,008	0,147
-405,525	-42,246	-0,074	0,027
-404,511	800,000	-0,020	0,043
-403,496	38,346	-0,098	-0,063
-402,482	-112,230	0,091	0,013
-401,467	286,056	-0,115	0,152
-400,452	-40,305	0,072	0,027
-399,438	157,579	0,077	0,077
-398,423	-107,705	-0,114	-0,018
-397,409	765,810	-0,064	0,126
-396,394	-146,274	-0,069	-0,004
-395,379	-200,000	0,033	0,133
-394,365	2,182	0,108	-0,056
-393,350	650,469	0,052	-0,097
-392,336	-200,000	-0,004	0,037
-391,321	633,643	0,013	-0,023
-390,306	622,960	-0,060	-0,111
-389,292	-200,000	-0,004	0,042
-388,277	79,727	0,036	-0,028
-387,263	-18,423	0,079	0,036
-386,248	149,326	0,092	0,091
-385,233	-200,000	0,001	-0,038
-384,219	800,000	0,007	0,016
-383,204	-200,000	-0,005	-0,111
-382,190	-171,700	0,129	0,003
-381,175	182,710	-0,093	-0,100
-380,160	-147,140	-0,062	-0,004
-379,146	-200,000	0,029	0,168
-378,131	310,470	-0,042	-0,057
-377,117	-200,000	-0,002	0,114
-376,102	-198,235	0,049	0,000
-375,088	-200,000	0,038	-0,126
-374,073	128,592	0,024	-0,022
-373,058	378,320	0,015	-0,023
-372,044	-200,000	0,006	-0,026
-371,029	151,166	0,041	-0,041
-370,015	-192,887	-0,138	-0,001
-369,000	114,720	-0,042	0,037
-367,985	-200,000	0,003	0,019
-366,971	16,410	0,086	0,049
-365,956	-50,487	0,080	0,027
-364,942	-200,000	-0,006	0,157
-363,927	800,000	0,059	0,127
-362,912	-200,000	0,001	0,138
-361,898	93,119	-0,091	0,074
-360,883	-111,689	0,074	0,011
-359,869	-200,000	0,002	0,019
-358,854	362,469	-0,054	0,079
-357,839	110,691	0,076	-0,066
-356,825	-200,000	0,011	-0,071
-355,810	-100,325	-0,054	-0,010
-354,796	-3,312	0,067	0,034
-353,781	800,000	0,054	0,144
-352,766	689,304	-0,056	0,106
-351,752	-85,895	0,045	-0,010
-350,737	800,000	-0,021	0,051
-349,723	102,621	-0,020	0,017
-348,708	85,736	0,073	0,058
-347,693	-22,259	-0,100	0,044
-346,679	-200,000	-0,025	-0,165
-345,664	800,000	-0,016	-0,046
-344,650	-200,000	-0,005	-0,033
-343,635	-27,174	0,102	0,043
-342,620	800,000	-0,005	-0,014
-341,606	800,000	0,038	0,085
-340,591	64,576	0,065	-0,047
-339,577	95,817	-0,076	-0,063
-338,562	800,000	-0,064	-0,193
-337,548	800,000	0,018	-0,043
-336,533	440,951	0,070	-0,111
-335,518	495,188	0,078	0,130
-334,504	800,000	0,048	0,129
-333,489	-200,000	-0,016	0,063
-332,475	9,885	-0,094	-0,052
-331,460	296,833	-0,052	-0,069
-330,445	-153,199	0,139	-0,007
-329,431	126,704	0,108	0,099
-328,416	-200,000	-0,010	0,074
-327,402	-53,948	0,017	-0,005
-326,387	253,110	-0,038	0,047
-325,372	402,518	0,021	-0,032
-324,358	571,870	0,040	-0,071
-323,343	754,782	-0,014	-0,027
-322,329	-182,374	-0,088	0,001
-321,314	-200,000	-0,006	0,056
-320,299	-200,000	-0,015	0,131
-319,285	-110,451	-0,110	-0,016
-318,270	-41,325	0,085	0,031
-317,256	-200,000	-0,032	0,118
-316,241	63,652	0,041	0,030
-315,226	-200,000	0,008	0,129
-314,212	-198,621	0,127	0,001
-313,197	-31,544	-0,126	0,051
-312,183	-200,000	0,017	0,060
-311,168	-200,000	-0,031	0,106
-310,153	800,000	-0,060	-0,134
-309,139	-200,000	-0,010	-0,189
-308,124	-112,311	0,143	0,020
-307,110	-200,000	0,018	-0,087
-306,095	-120,702	-0,079	0,010
-305,080	762,374	-0,010	0,019
-304,066	-106,933	0,178	-0,028
-303,051	197,869	-0,035	-0,039
-302,037	-144,381	0,138	-0,009
-301,022	109,754	-0,037	0,032
-300,008	-156,110	0,133	-0,006
-298,993	-200,000	-0,011	0,058
-297,978	385,222	-0,086	0,129
-296,964	800,000	-0,033	-0,078
-295,949	337,527	-0,061	-0,086
-294,935	-200,000	-0,008	-0,116
-293,920	87,216	0,060	0,048
-292,905	-200,000	0,003	0,119
-291,891	532,947	-0,045	-0,077
-290,876	52,731	0,051	0,035
-289,862	-0,151	-0,034	0,017
-288,847	540,842	-0,079	-0,137
-287,832	560,807	-0,081	-0,142
-286,818	131,308	-0,025	0,023
-285,803	293,642	0,066	-0,087
-284,789	-200,000	0,019	-0,083
-283,774	319,322	0,030	0,041
-282,759	-83,278	-0,071	-0,016
-281,745	328,302	-0,050	-0,070
-280,730	800,000	-0,029	0,073
-279,716	-118,066	0,041	0,005
-278,701	109,448	-0,100	-0,087
-277,686	158,207	0,104	-0,104
-276,672	-200,000	0,006	0,045
-275,657	201,954	0,127	-0,141
-274,643	70,270	-0,055	0,041
-273,628	136,947	0,042	-0,040
-272,613	107,938	0,036	-0,031
-271,599	61,600	0,088	-0,064
-270,584	-139,596	0,105	0,008
-269,570	26,672	-0,056	0,034
-268,555	539,344	-0,034	-0,058
-267,540	-170,831	0,030	0,001
-266,526	-200,000	-0,001	0,029
-265,511	69,540	0,039	-0,029
-264,497	170,661	0,075	0,077
-263,482	439,347	-0,008	0,013
-262,467	-25,750	0,115	-0,049
-261,453	-123,270	-0,130	0,015
-260,438	800,000	0,041	-0,110
-259,424	354,361	-0,051	0,074
-258,409	-147,375	-0,071	0,004
-257,395	343,103	-0,085	0,120
-256,380	604,202	-0,047	-0,084
-255,365	93,443	0,078	0,064
-254,351	-200,000	-0,014	0,129
-253,336	-200,000	0,003	-0,024
-252,322	41,819	-0,080	-0,052
-251,307	-200,000	-0,005	-0,024
-250,292	-138,525	0,091	0,007
-249,278	-200,000	-0,024	-0,092
-248,263	171,883	0,043	-0,044
-247,249	-40,151	0,046	0,017
-246,234	-116,055	0,128	-0,017
-245,219	-52,081	0,043	0,014
-244,205	-25,050	0,121	-0,051
-243,190	-117,012	0,039	0,005
-242,176	-45,740	-0,046	0,016
-241,161	400,569	-0,026	-0,040
-240,146	-200,000	0,015	0,052
-239,132	572,034	0,034	0,060
-238,117	-200,000	-0,005	-0,045
-237,103	559,370	-0,033	0,058
-236,088	11,171	0,087	-0,048
-235,073	800,000	0,033	-0,090
-234,059	9,675	0,090	0,049
-233,044	800,000	0,012	-0,036
-232,030	-4,654	0,110	0,055
-231,015	-90,289	0,028	0,006
-230,000	-47,960	-0,143	-0,050
-228,986	632,164	0,050	-0,092
-227,971	16,683	-0,017	-0,010
-226,957	-41,293	-0,073	0,027
-225,942	-200,000	-0,012	0,079
-224,927	-114,180	-0,076	-0,011
-223,913	-169,001	-0,171	0,005
-222,898	-200,000	0,010	0,066
-221,884	72,306	-0,062	-0,046
-220,869	-113,187	0,111	-0,016
-219,855	145,722	0,033	0,032
-218,840	209,581	-0,146	-0,165
-217,825	70,789	-0,083	0,062
-216,811	-80,491	-0,063	0,015
-215,796	516,390	-0,010	-0,016
-214,782	-200,000	-0,022	-0,090
-213,767	-200,000	0,014	0,155
-212,752	113,822	0,049	0,043
-211,738	-102,497	-0,158	-0,027
-210,723	-200,000	-0,033	0,134
-209,709	-200,000	-0,009	-0,101
-208,694	800,000	0,020	-0,052
-207,679	433,897	0,070	-0,110
-206,665	538,068	0,014	0,023
-205,650	800,000	0,030	0,090
-204,636	-88,162	-0,058	0,012
-203,621	342,160	0,057	-0,080
-202,606	52,698	0,141	-0,097
-201,592	-97,724	-0,105	-0,019
-200,577	350,190	0,049	-0,070
-199,563	-139,456	-0,002	-0,000
-198,548	-160,952	0,039	-0,001
-197,533	800,000	0,065	-0,140
-196,519	7,308	0,048	0,026
-195,504	61,255	0,027	0,019
-194,490	116,100	0,109	-0,096
-193,475	487,477	0,038	-0,063
-192,460	177,358	-0,059	0,062
-191,446	92,973	-0,040	0,033
-190,431	-112,889	0,069	0,010
-189,417	-153,894	-0,174	-0,008
-188,402	418,055	-0,051	-0,078
-187,387	800,000	-0,020	0,049
-186,373	-75,837	0,114	-0,029
-185,358	42,141	-0,055	-0,036
-184,344	186,162	-0,003	-0,004
-183,329	543,314	-0,061	-0,105
-182,315	690,279	0,094	-0,177
-181,300	147,908	-0,081	-0,078
-180,285	-200,000	0,024	-0,133
-179,271	361,831	0,011	-0,016
-178,256	39,354	-0,036	-0,023
-177,242	-200,000	0,009	0,090
-176,227	-200,000	0,015	0,128
-175,212	352,156	0,043	0,062
-174,198	800,000	0,067	0,193
-173,183	25,471	-0,054	0,032
-172,169	-9,174	-0,121	-0,058
-171,154	-13,309	0,150	-0,070
-170,139	-200,000	0,012	0,085
-169,125	107,452	0,047	0,041
-168,110	-143,362	0,081	0,005
-167,096	-96,000	0,079	-0,015
-166,081	0,453	-0,024	-0,012
-165,066	-15,433	-0,171	0,078
-164,052	-128,805	0,101	-0,010
-163,037	800,000	-0,018	0,039
-162,023	249,872	-0,057	0,070
-161,008	-34,256	-0,069	-0,027
-159,993	-200,000	-0,010	-0,041
-158,979	204,693	0,085	-0,095
-157,964	265,926	-0,034	0,043
-156,950	-29,678	-0,117	-0,048
-155,935	-150,841	0,178	-0,010
-154,920	115,311	0,081	0,071
-153,906	420,075	-0,054	0,083
-152,891	-200,000	0,004	-0,085
-151,877	253,413	-0,063	-0,077
-150,862	-200,000	0,038	-0,134
-149,847	514,356	0,018	-0,031
-148,833	41,638	-0,180	-0,117
-147,818	-63,861	0,201	0,059
-146,804	800,000	0,023	-0,052
-145,789	-200,000	-0,025	0,103
-144,775	-200,000	0,004	0,022
-143,760	107,806	0,029	-0,025
-142,745	116,824	-0,064	-0,056
-141,731	-200,000	-0,017	-0,105
-140,716	-200,000	-0,004	0,103
-139,702	604,854	0,026	0,046
-138,687	-200,000	-0,010	-0,033
-137,672	112,981	-0,038	-0,034
-136,658	-85,704	-0,110	0,024
-135,643	57,752	-0,068	-0,048
-134,629	-200,000	-0,009	-0,030
-133,614	-78,820	0,106	-0,026
-132,599	42,521	0,121	0,079
-131,585	-84,636	0,077	0,017
-130,570	-56,953	-0,013	-0,004
-129,556	-131,876	-0,155	0,014
-128,541	551,970	0,061	0,105
-127,526	130,939	-0,036	-0,033
-126,512	-200,000	-0,008	-0,075
-125,497	204,800	-0,054	-0,060
-124,483	-200,000	0,014	0,075
-123,468	800,000	-0,032	-0,076
-122,453	230,940	-0,061	-0,072
-121,439	53,782	-0,076	0,053
-120,424	2,776	-0,088	-0,046
-119,410	349,505	-0,024	0,034
-118,395	-34,835	-0,103	0,040
-117,380	-119,748	0,028	-0,003
-116,366	-13,014	-0,101	0,047
-115,351	-28,134	-0,072	0,030
-114,337	60,457	0,017	-0,012
-113,322	47,375	-0,130	-0,087
-112,307	-29,157	0,042	0,017
-111,293	775,992	-0,013	0,026
-110,278	-130,812	0,146	0,014
-109,264	-47,595	-0,032	0,011
-108,249	519,532	-0,050	-0,085
-107,234	444,549	-0,011	0,018
-106,220	123,366	-0,076	0,069
-105,205	-200,000	-0,002	0,070
-104,191	148,784	0,102	0,099
-103,176	230,417	-0,046	0,054
-102,162	-70,364	-0,076	-0,021
-101,147	-120,686	0,089	-0,011
-100,132	800,000	-0,024	-0,050
-99,118	800,000	0,044	-0,095
-98,103	800,000	-0,048	0,141
-97,089	20,788	0,119	0,069
-96,074	181,549	-0,045	-0,048
-95,059	-163,342	-0,053	0,002
-94,045	800,000	0,056	-0,123
-93,030	-2,754	-0,113	-0,057
-92,016	-0,746	-0,080	0,041
-91,001	-49,734	-0,065	0,022
-89,986	-161,291	0,032	0,001
-88,972	800,000	-0,069	0,167
-87,957	800,000	-0,018	-0,049
-86,943	-184,494	-0,054	0,001
-85,928	265,480	-0,089	-0,111
-84,913	-200,000	-0,043	-0,145
-83,899	4,348	0,017	-0,009
-82,884	391,297	0,041	-0,061
-81,870	88,121	0,043	-0,034
-80,855	-20,034	0,055	-0,024
-79,840	-200,000	0,006	0,047
-78,826	0,568	-0,131	-0,067
-77,811	800,000	0,047	-0,101
-76,797	12,527	-0,046	-0,026
-75,782	-41,285	-0,039	0,014
-74,767	800,000	-0,036	0,081
-73,753	-109,597	0,141	0,021
-72,738	145,814	-0,016	-0,016
-71,724	-57,669	-0,095	-0,030
-70,709	-123,693	-0,052	0,006
-69,694	-183,303	0,081	-0,001
-68,680	800,000	-0,006	-0,015
-67,665	-103,395	0,059	-0,010
-66,651	129,739	-0,041	-0,038
-65,636	121,762	-0,103	0,092
-64,622	-47,095	0,092	-0,032
-63,607	442,521	0,031	0,049
-62,592	3,671	-0,088	0,046
-61,578	-190,808	-0,017	-0,000
-60,563	800,000	-0,014	0,033
-59,549	-155,077	-0,216	-0,010
-58,534	-15,500	-1,979	-0,902
-57,519	800,000	-0,280	-0,825
-56,505	-200,000	-1,327	-4,948
-55,490	52,845	0,763	0,523
-54,476	800,000	5,316	12,110
-53,461	-200,000	17,674	285,852
-52,446	800,000	727,615	2219,100
-51,432	533,937	1643,877	2802,491
-50,417	109,543	1635,298	1404,004
-49,403	74,963	1287,040	970,674
-48,388	31,769	1027,357	632,361
-47,373	20,084	989,097	570,337
-46,359	18,364	976,633	557,499
-45,344	15,392	972,735	545,546
-44,330	15,642	971,205	545,481
-43,315	15,096	969,422	542,680
-42,300	15,024	968,424	541,865
-41,286	15,095	967,264	541,426
-40,271	15,057	966,397	540,794
-39,257	15,113	965,390	540,393
-38,242	15,134	964,490	539,934
-37,227	15,053	963,891	539,317
-36,213	15,071	963,047	538,880
-35,198	15,025	961,892	538,065
-34,184	15,085	961,346	537,931
-33,169	15,070	960,307	537,281
-32,154	15,103	959,247	536,771
-31,140	15,113	958,523	536,377
-30,125	15,148	957,803	536,068
-29,111	15,073	956,943	535,323
-28,096	15,136	956,241	535,112
-27,082	15,144	955,522	534,711
-26,067	15,169	954,758	534,343
-25,052	15,024	954,326	533,616
-24,038	15,144	953,444	533,487
-23,023	15,066	952,913	532,919
-22,009	15,106	952,260	532,661
-20,994	15,121	951,494	532,258
-19,979	15,139	950,820	531,918
-18,965	15,096	950,247	531,438
-17,950	15,086	949,749	531,108
-16,936	15,057	948,931	530,537
-15,921	15,058	948,223	530,124
-14,906	15,003	947,663	529,614
-13,892	14,983	946,966	529,140
-12,877	14,958	946,379	528,712
-11,863	14,955	945,720	528,312
-10,848	14,962	945,292	528,075
-9,833	15,097	944,479	528,027
-8,819	15,079	944,057	527,712
-7,804	15,002	943,496	527,136
-6,790	15,037	942,674	526,766
-5,775	15,069	942,322	526,648
-4,760	15,064	941,674	526,251
-3,746	15,000	940,857	525,572
-2,731	14,903	940,272	524,915
-1,717	14,811	939,772	524,328
-0,702	14,808	939,010	523,870
0,313	14,675	938,403	523,904
1,327	17,930	936,305	532,922
2,342	27,133	793,101	475,733
3,356	23,891	458,036	269,783
4,371	-3,077	313,570	156,146
5,386	-7,038	295,574	143,178
6,400	-8,932	289,396	138,301
7,415	-9,448	286,981	136,629
8,429	-9,598	285,281	135,661
9,444	-9,904	284,574	135,015
10,459	-9,931	283,972	134,690
11,473	-9,974	283,229	134,285
12,488	-9,865	282,744	134,148
13,502	-9,877	282,157	133,846
14,517	-9,745	281,734	133,760
15,531	-9,938	281,315	133,364
16,546	-10,023	280,984	133,114
17,561	-10,111	280,451	132,766
18,575	-9,962	280,154	132,756
19,590	-10,016	279,696	132,475
20,604	-10,066	279,620	132,379
21,619	-10,131	279,096	132,058
22,634	-10,186	278,676	131,794
23,648	-10,206	278,474	131,669
24,663	-10,176	278,148	131,531
25,677	-10,164	277,939	131,432
26,692	-10,142	277,689	131,323
27,707	-10,053	277,316	131,219
28,721	-10,136	277,107	131,030
29,736	-9,899	276,754	131,075
30,750	-10,194	276,644	130,733
31,765	-10,189	276,223	130,527
32,780	-10,178	276,085	130,460
33,794	-10,308	275,842	130,212
34,809	-10,209	275,593	130,175
35,823	-10,394	275,290	129,847
36,838	-10,309	275,070	129,812
37,853	-10,180	274,688	129,740
38,867	-10,081	274,491	129,729
39,882	-10,273	274,285	129,440
40,896	-10,135	274,046	129,445
41,911	-10,234	273,735	129,194
42,926	-10,305	273,557	129,032
43,940	-10,156	273,222	129,001
44,955	-10,403	273,153	128,727
45,969	-10,174	272,735	128,731
46,984	-10,170	272,585	128,653
47,999	-10,424	272,310	128,277
49,013	-10,641	272,068	127,950
50,028	-10,706	271,809	127,756
51,042	-10,732	271,559	127,604
52,057	-10,905	271,280	127,301
53,071	-10,830	271,193	127,318
54,086	-10,494	270,965	127,510
55,101	-10,633	270,810	127,297
56,115	-10,424	270,594	127,377
57,130	-10,059	270,530	127,672
58,144	-9,799	270,283	127,783
59,159	-9,984	270,094	127,512
60,174	-9,994	270,044	127,468
61,188	-10,125	269,729	127,188
62,203	-10,010	269,471	127,160
63,217	-10,119	269,130	126,889
64,232	-10,042	269,035	126,902
65,247	-9,987	268,851	126,854
66,261	-9,932	268,395	126,678
67,276	-10,273	268,176	126,252
68,290	-10,456	267,980	125,982
69,305	-10,310	267,807	126,023
70,320	-10,313	267,553	125,890
71,334	-10,181	267,351	125,903
72,349	-10,209	267,172	125,782
73,363	-9,733	266,835	126,044
74,378	-10,039	266,698	125,691
75,393	-10,091	266,479	125,530
76,407	-10,090	266,350	125,458
77,422	-10,153	266,134	125,288
78,436	-9,967	265,849	125,311
79,451	-9,744	265,567	125,368
80,466	-10,118	265,324	124,905
81,480	-10,051	265,138	124,867
82,495	-10,220	264,923	124,602
83,509	-10,085	264,751	124,631
84,524	-10,145	264,578	124,485
85,539	-10,332	264,354	124,200
86,553	-10,256	264,046	124,113
87,568	-10,153	263,889	124,120
88,582	-10,125	263,633	124,014
89,597	-10,132	263,497	123,933
90,611	-10,015	263,336	123,950
91,626	-10,045	263,145	123,823
92,641	-10,039	262,944	123,723
93,655	-9,989	262,731	123,656
94,670	-10,213	262,604	123,386
95,684	-10,396	262,497	123,161
96,699	-10,209	262,164	123,161
97,714	-10,075	261,854	123,123
98,728	-10,067	261,695	123,044
99,743	-10,368	261,520	122,684
100,757	-10,484	261,369	122,500
101,772	-10,225	261,017	122,552
102,787	-10,229	261,036	122,547
103,801	-10,179	260,836	122,486
104,816	-10,014	260,549	122,487
105,830	-10,077	260,430	122,364
106,845	-10,124	260,215	122,210
107,860	-9,926	260,040	122,292
108,874	-10,121	259,980	122,081
109,889	-10,119	259,657	121,920
110,903	-9,953	259,389	121,930
111,918	-9,963	259,244	121,841
112,933	-10,063	259,213	121,728
113,947	-9,968	258,973	121,688
114,962	-10,035	258,734	121,507
115,976	-10,269	258,617	121,235
116,991	-9,931	258,323	121,383
118,006	-9,959	258,207	121,293
119,020	-9,943	257,978	121,188
120,035	-9,971	257,769	121,054
121,049	-10,031	257,623	120,923
122,064	-10,066	257,512	120,830
123,079	-9,935	257,148	120,763
124,093	-10,074	257,042	120,581
125,108	-10,175	256,786	120,362
126,122	-10,296	256,494	120,110
127,137	-10,651	256,295	119,698
128,151	-10,366	256,140	119,862
129,166	-10,293	256,147	119,918
130,181	-10,239	255,871	119,824
131,195	-10,240	255,529	119,653
132,210	-9,978	255,380	119,798
133,224	-10,018	255,181	119,660
134,239	-9,805	254,844	119,675
135,254	-9,992	254,865	119,513
136,268	-10,060	254,603	119,321
137,283	-10,269	254,457	119,062
138,297	-10,513	254,163	118,704
139,312	-10,234	253,979	118,847
140,327	-10,101	253,885	118,907
141,341	-9,935	253,934	119,062
142,356	-9,718	253,542	119,053
143,370	-9,776	253,421	118,936
144,385	-9,818	253,292	118,829
145,400	-9,637	253,023	118,847
146,414	-9,903	253,074	118,633
147,429	-9,805	252,808	118,581
148,443	-10,025	252,512	118,244
149,458	-9,886	252,359	118,280
150,473	-9,783	252,164	118,266
151,487	-9,856	251,983	118,108
152,502	-9,850	251,848	118,040
153,516	-9,847	251,728	117,975
154,531	-9,731	251,480	117,947
155,546	-9,828	251,202	117,724
156,560	-9,810	251,003	117,635
157,575	-9,940	250,838	117,438
158,589	-9,862	250,633	117,397
159,604	-9,696	250,565	117,495
160,619	-9,678	250,254	117,354
161,633	-9,921	250,282	117,151
162,648	-9,756	250,033	117,164
163,662	-9,584	249,805	117,192
164,677	-9,701	249,656	117,013
165,692	-9,906	249,786	116,890
166,706	-9,806	249,375	116,772
167,721	-9,727	249,129	116,713
168,735	-9,982	249,217	116,529
169,750	-9,700	248,926	116,619
170,764	-9,669	248,746	116,550
171,779	-9,703	248,532	116,412
172,794	-9,684	248,536	116,419
173,808	-9,688	248,112	116,206
174,823	-10,227	247,984	115,686
175,837	-10,307	247,691	115,472
176,852	-9,892	247,625	115,777
177,867	-9,812	247,545	115,796
178,881	-9,637	247,382	115,856
179,896	-9,385	247,210	115,974
180,910	-9,853	246,990	115,471
181,925	-9,674	246,851	115,545
182,940	-9,446	246,693	115,650
183,954	-9,684	246,630	115,413
184,969	-9,686	246,420	115,302
185,983	-9,576	246,259	115,308
186,998	-9,660	246,141	115,172
188,013	-9,524	245,873	115,149
189,027	-9,500	245,800	115,125
190,042	-9,512	245,498	114,963
191,056	-9,474	245,422	114,949
192,071	-9,552	245,350	114,841
193,086	-9,681	245,148	114,630
194,100	-9,374	244,929	114,770
195,115	-9,532	244,695	114,520
196,129	-9,460	244,413	114,437
197,144	-9,690	244,248	114,160
198,159	-9,567	244,142	114,201
199,173	-9,566	244,097	114,171
200,188	-9,617	243,827	113,993
201,202	-9,839	243,437	113,619
202,217	-10,093	243,185	113,283
203,232	-10,099	242,936	113,152
204,246	-9,727	243,170	113,555
205,261	-9,084	243,079	114,027
206,275	-9,659	242,804	113,420
207,290	-7,743	243,467	115,285
208,304	-2,661	245,083	120,214
209,319	0,328	245,849	123,036
210,334	0,813	245,920	123,459
211,348	0,878	245,835	123,458
212,363	1,265	245,685	123,690
213,377	1,420	245,661	123,794
214,392	1,494	245,473	123,748
215,407	1,466	245,215	123,584
216,421	1,598	245,151	123,649
217,436	1,659	244,938	123,580
218,450	1,533	244,866	123,430
219,465	1,316	244,662	123,139
220,480	1,289	244,471	123,010
221,494	1,326	244,410	122,999
222,509	1,578	244,380	123,177
223,523	1,516	244,011	122,930
224,538	1,187	243,899	122,596
225,553	1,234	243,502	122,423
226,567	1,492	243,391	122,566
227,582	1,583	243,455	122,661
228,596	1,628	243,197	122,557
229,611	1,456	242,855	122,234
230,626	1,324	242,819	122,098
231,640	1,493	242,768	122,198
232,655	1,712	242,722	122,341
233,669	1,573	242,294	122,002
234,684	1,368	242,236	121,797
235,699	1,682	242,364	122,104
236,713	1,781	241,946	121,962
237,728	1,623	241,636	121,668
238,742	1,611	241,617	121,638
239,757	1,515	241,271	121,376
240,772	1,519	241,263	121,364
241,786	1,415	241,146	121,211
242,801	1,324	240,751	120,928
243,815	1,029	240,800	120,706
244,830	1,393	240,565	120,869
245,844	1,692	240,547	121,088
246,859	1,512	240,429	120,874
247,874	1,361	240,209	120,632
248,888	1,432	239,994	120,570
249,903	1,448	239,881	120,515
250,917	1,725	239,789	120,679
251,932	1,768	239,694	120,655
252,947	1,534	239,428	120,324
253,961	1,330	239,107	119,990
254,976	1,566	239,148	120,187
255,990	1,662	238,902	120,129
257,005	1,177	238,625	119,594
258,020	1,290	238,412	119,566
259,034	1,364	238,377	119,597
260,049	1,557	238,244	119,672
261,063	1,285	238,179	119,414
262,078	1,366	237,971	119,363
263,093	1,476	237,909	119,408
264,107	1,810	237,784	119,598
265,122	1,427	237,429	119,107
266,136	1,414	237,498	119,121
267,151	1,743	237,381	119,311
268,166	1,584	236,934	118,950
269,180	1,228	236,962	118,674
270,195	1,910	236,984	119,211
271,209	1,955	236,789	119,137
272,224	1,347	236,444	118,476
273,239	1,088	236,295	118,188
274,253	1,179	236,357	118,280
275,268	1,512	236,052	118,377
276,282	1,521	235,763	118,229
277,297	1,418	235,626	118,069
278,312	1,104	235,702	117,851
279,326	1,444	235,400	117,955
280,341	1,533	235,282	117,955
281,355	1,675	235,236	118,032
282,370	1,665	235,146	117,968
283,384	1,609	234,839	117,760
284,399	1,476	234,679	117,567
285,414	1,347	234,507	117,369
286,428	1,298	234,471	117,302
287,443	1,609	234,340	117,468
288,457	1,903	234,121	117,576
289,472	1,918	234,094	117,564
290,487	1,519	233,735	117,064
291,501	1,261	233,593	116,783
292,516	1,013	233,304	116,436
293,530	1,057	233,407	116,511
294,545	1,492	233,394	116,831
295,560	1,562	233,014	116,684
296,574	1,355	232,841	116,427
297,589	1,238	232,679	116,246
298,603	1,671	232,739	116,599
299,618	1,860	232,470	116,599
300,633	1,612	232,496	116,411
301,647	1,768	232,330	116,438
302,662	1,949	232,253	116,527
303,676	2,070	232,110	116,539
304,691	1,920	231,918	116,317
305,706	2,004	231,702	116,262
306,720	1,947	231,633	116,173
307,735	1,818	231,315	115,905
308,749	1,529	231,185	115,609
309,764	1,490	230,990	115,471
310,779	1,325	230,952	115,316
311,793	1,246	230,812	115,175
312,808	1,239	230,431	114,970
313,822	1,220	230,360	114,910
314,837	1,064	230,202	114,702
315,852	1,343	229,818	114,712
316,866	1,541	230,013	114,950
317,881	1,706	229,869	114,993
318,895	1,838	229,867	115,082
319,910	2,442	229,672	115,432
320,925	1,686	229,433	114,729
321,939	1,635	229,151	114,539
322,954	1,817	229,281	114,732
323,968	1,871	229,091	114,667
324,983	1,861	228,948	114,578
325,997	1,915	228,541	114,405
327,012	1,965	228,492	114,408
328,027	1,706	228,312	114,112
329,041	1,655	228,279	114,047
330,056	2,177	228,252	114,417
331,070	2,136	228,219	114,359
332,085	2,277	228,012	114,351
333,100	2,023	227,799	114,044
334,114	1,922	227,553	113,834
335,129	2,155	227,425	113,934
336,143	1,878	227,303	113,656
337,158	1,776	227,176	113,505
338,173	2,243	226,904	113,709
339,187	1,964	226,761	113,419
340,202	1,757	226,900	113,323
341,216	2,071	226,490	113,343
342,231	2,010	226,444	113,264
343,246	1,846	226,321	113,070
344,260	1,801	226,212	112,972
345,275	2,029	226,108	113,080
346,289	2,197	225,875	113,079
347,304	1,965	225,822	112,869
348,319	2,483	225,609	113,138
349,333	1,856	225,590	112,652
350,348	1,693	225,308	112,380
351,362	1,950	225,016	112,415
352,377	1,725	224,997	112,228
353,392	1,597	224,831	112,042
354,406	1,781	224,812	112,158
355,421	196,285	1320,270	1397,523
356,435	157,337	1453,736	1397,524
