DTS Sentinel unit serial number:	SN410029Multiplexer serial number:	ORYXHardware model number:	OX2-SRSoftware version number:	ORYX F/W v4,00 Oryx Data Collector v3.7.2.0data status	okinstallation	B5 Nyhavnadifferential loss correction	single-endedforward channel	channel 2reverse channel	N/Adate	2023/12/12time	04:47:13forward acquisition time	300,00reverse acquisition time	0,00gamma	499,1914k internal	0,3157k external	0,3157temperature offset calibration	1,0000default loss term (dB/km)	0,3820temperature slope calibration	1,0000multiplexer offset coefficient	1,0000multiplexer slope coefficient	1,0000fibre end	0,00T internal ref (°C)	15,44T ext. ref 1 (°C)	-1,01T ext. ref 2 (°C)	-1,30length (m)	temperature (°C)	Stokes	anti-Stokes-744,400	-145,112	0,155	-0,010
-743,385	-90,507	-0,353	-0,075
-742,371	-16,646	0,118	0,055
-741,356	134,002	-0,151	0,144
-740,342	138,052	-0,104	0,101
-739,327	-73,008	-0,305	0,082
-738,312	161,651	-0,104	-0,107
-737,298	-132,093	-0,284	-0,027
-736,283	-64,682	0,040	0,012
-735,269	-8,292	-0,332	0,164
-734,254	-41,196	0,120	0,045
-733,239	-94,202	-0,389	-0,078
-732,225	147,322	0,186	-0,185
-731,210	-95,455	0,180	-0,035
-730,196	800,000	-0,028	0,058
-729,181	-200,000	0,001	-0,060
-728,167	-200,000	-0,004	0,020
-727,152	564,754	0,030	0,054
-726,137	-40,974	-0,239	0,090
-725,123	-79,222	-0,079	0,020
-724,108	743,990	-0,047	-0,094
-723,094	-200,000	-0,026	-0,091
-722,079	-113,018	-0,270	-0,039
-721,064	768,197	-0,039	0,078
-720,050	54,073	-0,101	-0,071
-719,035	800,000	0,024	0,068
-718,021	-3,704	-0,129	-0,066
-717,006	-66,053	0,104	0,030
-715,991	-40,377	-0,134	0,051
-714,977	-200,000	0,013	-0,112
-713,962	-49,707	0,010	-0,004
-712,948	-133,094	-0,134	-0,012
-711,933	-200,000	-0,017	0,066
-710,918	800,000	0,014	0,036
-709,904	87,644	-0,036	0,029
-708,889	-200,000	0,011	-0,035
-707,875	183,186	-0,077	-0,084
-706,860	800,000	0,030	0,069
-705,845	-111,137	-0,096	0,014
-704,831	800,000	0,007	-0,014
-703,816	-163,511	0,064	0,002
-702,802	52,952	-0,051	0,036
-701,787	195,464	-0,125	-0,140
-700,772	558,560	0,049	-0,087
-699,758	-200,000	-0,014	0,161
-698,743	66,219	-0,046	-0,035
-697,729	345,376	0,026	0,038
-696,714	-5,780	-0,032	-0,016
-695,699	21,794	-0,121	-0,072
-694,685	12,102	-0,101	-0,057
-693,670	356,014	-0,048	0,071
-692,656	800,000	-0,031	0,092
-691,641	-200,000	0,005	0,123
-690,627	553,068	-0,098	-0,173
-689,612	-200,000	0,001	-0,048
-688,597	41,525	0,030	0,020
-687,583	508,562	-0,040	0,068
-686,568	240,272	0,076	-0,093
-685,554	-87,551	-0,120	-0,026
-684,539	62,207	-0,066	-0,048
-683,524	600,312	0,022	0,041
-682,510	-200,000	0,010	-0,301
-681,495	-200,000	0,008	-0,051
-680,481	800,000	0,043	-0,108
-679,466	-200,000	-0,000	0,016
-678,451	800,000	0,036	0,078
-677,437	-34,965	-0,061	0,024
-676,422	-60,855	-0,049	-0,015
-675,408	234,455	0,059	-0,072
-674,393	-200,000	-0,001	-0,075
-673,378	-176,147	-0,090	-0,002
-672,364	396,407	-0,020	-0,031
-671,349	580,155	-0,039	-0,071
-670,335	-138,244	0,046	0,004
-669,320	62,436	0,068	0,050
-668,305	-88,037	-0,099	-0,022
-667,291	362,523	-0,063	-0,094
-666,276	395,000	-0,039	-0,060
-665,262	-200,000	0,012	-0,063
-664,247	-32,350	-0,086	-0,035
-663,232	800,000	-0,048	-0,121
-662,218	-200,000	-0,027	-0,087
-661,203	-200,000	0,003	0,100
-660,189	-200,000	-0,019	-0,072
-659,174	-92,157	-0,068	0,014
-658,159	-200,000	-0,004	-0,019
-657,145	119,586	-0,090	0,082
-656,130	217,466	-0,098	0,115
-655,116	800,000	-0,011	-0,034
-654,101	321,219	-0,039	0,055
-653,086	-16,367	0,069	-0,032
-652,072	218,535	-0,050	-0,059
-651,057	-44,563	-0,046	-0,017
-650,043	-200,000	-0,007	-0,028
-649,028	800,000	-0,021	0,060
-648,014	800,000	0,003	-0,007
-646,999	134,317	0,047	0,045
-645,984	554,894	-0,029	-0,051
-644,970	-200,000	0,013	-0,100
-643,955	69,931	-0,143	-0,108
-642,941	-200,000	-0,011	-0,109
-641,926	112,194	0,013	-0,012
-640,911	-55,095	-0,186	0,061
-639,897	-68,658	-0,092	0,026
-638,882	-134,549	-0,140	0,012
-637,868	-77,902	0,104	-0,026
-636,853	800,000	-0,046	0,117
-635,838	-126,228	0,111	-0,012
-634,824	352,560	0,067	-0,097
-633,809	36,659	-0,009	-0,006
-632,795	-200,000	0,002	-0,017
-631,780	46,655	0,056	0,038
-630,765	18,689	0,014	-0,008
-629,751	-200,000	-0,001	-0,138
-628,736	275,332	-0,075	0,098
-627,722	-40,085	-0,173	0,066
-626,707	800,000	0,038	0,103
-625,692	-90,632	0,151	-0,032
-624,678	-200,000	0,003	0,046
-623,663	-115,708	0,126	-0,017
-622,649	-48,387	-0,088	-0,031
-621,634	-200,000	-0,041	-0,156
-620,619	800,000	0,026	0,067
-619,605	-17,704	0,110	0,051
-618,590	-143,792	0,222	-0,015
-617,576	392,461	-0,028	0,043
-616,561	-70,505	0,037	-0,010
-615,546	-58,948	-0,073	0,023
-614,532	659,155	-0,031	-0,059
-613,517	255,647	0,024	-0,030
-612,503	-200,000	0,026	-0,161
-611,488	-91,753	0,090	0,019
-610,474	151,773	0,082	0,082
-609,459	16,609	0,079	0,046
-608,444	-153,779	-0,090	0,004
-607,430	-200,000	-0,002	-0,061
-606,415	800,000	-0,021	-0,043
-605,401	-10,770	-0,108	-0,052
-604,386	-35,126	0,086	0,034
-603,371	287,976	-0,035	-0,047
-602,357	157,486	0,039	-0,040
-601,342	64,578	-0,042	-0,031
-600,328	-105,375	-0,092	0,015
-599,313	-200,000	-0,024	-0,097
-598,298	-80,765	0,018	0,004
-597,284	-41,139	0,064	-0,024
-596,269	800,000	-0,049	-0,107
-595,255	-200,000	-0,005	0,080
-594,240	800,000	0,033	-0,088
-593,225	800,000	-0,048	0,100
-592,211	-51,452	-0,069	-0,024
-591,196	800,000	-0,050	-0,107
-590,182	800,000	-0,047	0,128
-589,167	-200,000	0,035	0,206
-588,152	800,000	-0,018	-0,041
-587,138	69,449	-0,101	-0,076
-586,123	-200,000	-0,013	0,048
-585,109	-200,000	-0,158	-0,000
-584,094	-200,000	-0,001	-0,109
-583,079	13,755	0,028	0,016
-582,065	-80,231	-0,111	-0,027
-581,050	-200,000	0,024	-0,112
-580,036	304,157	-0,036	-0,049
-579,021	215,708	-0,016	-0,018
-578,006	153,474	-0,123	-0,123
-576,992	800,000	-0,034	0,088
-575,977	680,143	-0,037	-0,071
-574,963	-67,379	-0,106	-0,030
-573,948	-200,000	0,020	-0,136
-572,934	280,918	0,026	-0,034
-571,919	510,430	-0,048	-0,082
-570,904	295,537	-0,033	-0,044
-569,890	30,466	0,102	-0,064
-568,875	-65,969	0,063	-0,018
-567,861	176,413	0,067	0,071
-566,846	597,402	-0,057	0,104
-565,831	337,076	0,015	0,021
-564,817	800,000	0,016	-0,034
-563,802	800,000	0,044	-0,111
-562,788	376,456	-0,069	-0,104
-561,773	-200,000	-0,017	0,067
-560,758	45,789	0,101	-0,068
-559,744	-200,000	-0,028	0,113
-558,729	-125,516	-0,099	-0,011
-557,715	498,676	0,090	-0,152
-556,700	800,000	0,009	0,025
-555,685	273,092	-0,135	-0,175
-554,671	6,243	-0,063	-0,034
-553,656	193,483	-0,071	-0,079
-552,642	-23,613	-0,179	0,078
-551,627	-200,000	-0,002	-0,135
-550,612	-200,000	-0,001	0,019
-549,598	-76,215	-0,018	0,005
-548,583	-200,000	-0,033	-0,168
-547,569	686,508	0,074	0,142
-546,554	50,653	-0,041	-0,028
-545,539	-200,000	-0,013	0,119
-544,525	-2,988	0,021	0,011
-543,510	12,943	0,086	-0,049
-542,496	-200,000	0,014	-0,084
-541,481	-134,265	-0,071	-0,006
-540,466	305,272	0,059	-0,080
-539,452	-113,299	0,043	0,006
-538,437	155,010	0,019	-0,019
-537,423	-200,000	-0,011	0,069
-536,408	-43,755	0,076	-0,028
-535,393	114,638	-0,042	-0,038
-534,379	-55,735	-0,074	-0,024
-533,364	800,000	-0,034	-0,071
-532,350	800,000	-0,021	0,061
-531,335	-200,000	-0,007	0,066
-530,321	622,510	-0,012	0,022
-529,306	800,000	0,011	-0,030
-528,291	-200,000	0,016	0,062
-527,277	800,000	0,008	0,019
-526,262	72,705	0,089	-0,068
-525,248	-158,047	0,126	0,005
-524,233	696,844	0,019	-0,036
-523,218	63,109	0,057	-0,042
-522,204	94,545	0,099	-0,082
-521,189	800,000	-0,017	-0,053
-520,175	84,957	-0,101	0,081
-519,160	-157,278	0,116	-0,005
-518,145	150,462	0,062	-0,062
-517,131	-68,911	-0,081	0,023
-516,116	-96,029	0,045	0,009
-515,102	73,718	0,039	-0,030
-514,087	-130,526	-0,064	0,006
-513,072	-101,725	-0,088	0,015
-512,058	-200,000	0,012	0,070
-511,043	30,571	0,060	0,037
-510,029	460,378	0,127	0,208
-509,014	148,379	-0,046	-0,045
-507,999	21,787	-0,119	-0,071
-506,985	360,223	0,040	-0,058
-505,970	-115,343	-0,093	-0,013
-504,956	-79,109	-0,031	-0,008
-503,941	-119,127	-0,053	-0,007
-502,926	242,802	0,047	0,058
-501,912	-28,936	0,040	-0,017
-500,897	-4,308	0,040	0,020
-499,883	26,128	-0,110	-0,067
-498,868	-200,000	0,005	0,064
-497,853	-200,000	0,019	-0,070
-496,839	372,919	-0,099	0,148
-495,824	-88,130	-0,072	-0,016
-494,810	-200,000	0,026	-0,114
-493,795	-9,012	0,035	-0,017
-492,781	63,162	-0,023	0,017
-491,766	592,723	0,032	0,057
-490,751	-200,000	0,020	-0,114
-489,737	-110,984	0,059	-0,009
-488,722	420,964	0,076	0,119
-487,708	-133,170	0,125	0,011
-486,693	322,407	0,051	-0,071
-485,678	-69,022	-0,075	-0,021
-484,664	23,778	-0,059	0,035
-483,649	-200,000	-0,017	0,065
-482,635	569,855	-0,052	-0,094
-481,620	-3,979	0,031	0,015
-480,605	255,578	0,064	0,080
-479,591	-183,884	-0,094	0,001
-478,576	312,407	0,025	-0,035
-477,562	-200,000	-0,001	0,058
-476,547	271,314	0,080	-0,103
-475,532	70,337	-0,169	0,127
-474,518	-200,000	0,032	0,159
-473,503	-200,000	0,012	0,078
-472,489	14,442	-0,168	0,095
-471,474	-109,667	-0,121	-0,018
-470,459	142,782	0,045	0,044
-469,445	800,000	0,051	-0,113
-468,430	-200,000	-0,010	-0,071
-467,416	13,749	0,088	0,050
-466,401	-9,716	0,035	0,017
-465,386	800,000	-0,072	0,146
-464,372	-200,000	-0,011	0,067
-463,357	-80,691	-0,199	-0,048
-462,343	800,000	-0,023	-0,065
-461,328	-95,791	-0,203	-0,039
-460,313	238,125	0,073	-0,089
-459,299	264,139	0,077	0,098
-458,284	-133,746	-0,108	-0,010
-457,270	587,047	-0,067	-0,121
-456,255	164,795	-0,056	-0,058
-455,241	742,292	0,025	-0,050
-454,226	551,228	-0,090	-0,157
-453,211	73,549	-0,065	0,049
-452,197	-200,000	0,019	0,079
-451,182	783,651	0,042	-0,084
-450,168	800,000	-0,009	-0,027
-449,153	-200,000	-0,011	-0,148
-448,138	800,000	-0,018	-0,046
-447,124	236,276	-0,088	-0,106
-446,109	24,829	0,071	0,043
-445,095	-98,911	0,070	-0,013
-444,080	-127,237	-0,077	0,008
-443,065	709,681	0,033	-0,063
-442,051	24,086	-0,016	-0,009
-441,036	-200,000	0,002	-0,011
-440,022	458,126	0,020	-0,032
-439,007	-21,875	-0,110	-0,049
-437,992	-137,402	0,038	0,003
-436,978	40,087	0,043	0,028
-435,963	-200,000	-0,013	0,070
-434,949	-200,000	0,010	-0,153
-433,934	429,039	-0,069	-0,110
-432,919	154,516	0,016	-0,016
-431,905	-180,299	0,046	0,001
-430,890	800,000	0,042	0,118
-429,876	52,950	0,170	0,118
-428,861	32,637	0,119	0,075
-427,846	-200,000	0,003	0,048
-426,832	-200,000	0,032	-0,180
-425,817	-75,192	0,091	-0,023
-424,803	-35,442	0,106	0,042
-423,788	-200,000	-0,033	-0,156
-422,773	800,000	-0,011	0,027
-421,759	608,394	0,084	0,153
-420,744	36,882	-0,144	0,092
-419,730	31,248	-0,056	0,035
-418,715	-200,000	0,000	-0,134
-417,701	-88,405	-0,100	-0,022
-416,686	148,411	-0,094	-0,092
-415,671	-112,156	0,066	-0,010
-414,657	106,759	-0,124	0,107
-413,642	149,993	-0,013	-0,013
-412,628	-200,000	0,014	-0,050
-411,613	83,425	-0,185	-0,147
-410,598	86,056	0,078	0,062
-409,584	-162,561	-0,081	0,003
-408,569	11,846	-0,058	0,033
-407,555	-200,000	-0,008	-0,054
-406,540	162,198	0,078	0,079
-405,525	13,591	-0,125	0,071
-404,511	308,481	0,061	-0,084
-403,496	800,000	0,020	0,044
-402,482	-200,000	-0,001	-0,133
-401,467	41,433	-0,132	0,087
-400,452	411,164	-0,044	0,068
-399,438	800,000	0,070	-0,169
-398,423	66,799	-0,047	-0,035
-397,409	30,981	-0,180	0,112
-396,394	-200,000	-0,005	-0,053
-395,379	189,354	0,048	-0,053
-394,365	236,747	-0,018	0,021
-393,350	-200,000	0,007	-0,042
-392,336	800,000	0,015	-0,040
-391,321	-60,476	-0,206	0,063
-390,306	-131,088	-0,040	-0,004
-389,292	65,890	-0,157	-0,115
-388,277	-33,081	-0,045	0,018
-387,263	313,402	0,095	-0,130
-386,248	-200,000	-0,001	0,118
-385,233	633,658	0,064	0,119
-384,219	243,706	0,068	0,083
-383,204	-91,957	-0,058	-0,012
-382,190	-95,696	-0,137	0,026
-381,175	-200,000	-0,012	0,115
-380,160	9,286	0,124	-0,068
-379,146	-59,995	0,156	-0,048
-378,131	-62,106	0,033	0,010
-377,117	-200,000	-0,014	-0,142
-376,102	-58,965	-0,112	0,035
-375,088	287,330	0,063	-0,083
-374,073	-200,000	0,007	-0,114
-373,058	800,000	-0,011	-0,028
-372,044	116,725	-0,130	0,116
-371,029	263,509	0,047	0,060
-370,015	67,954	0,169	-0,126
-369,000	340,203	-0,026	0,037
-367,985	800,000	-0,039	0,088
-366,971	-69,608	-0,102	0,028
-365,956	95,460	0,124	0,103
-364,942	604,228	0,051	0,093
-363,927	-200,000	-0,057	0,228
-362,912	-39,101	0,125	0,048
-361,898	151,072	-0,100	0,099
-360,883	800,000	0,042	0,114
-359,869	-91,538	-0,122	-0,025
-358,854	-68,401	-0,064	0,018
-357,839	480,073	0,060	0,099
-356,825	152,373	-0,068	0,068
-355,810	-132,654	0,102	0,009
-354,796	800,000	-0,016	0,044
-353,781	220,973	-0,014	-0,016
-352,766	364,450	-0,096	-0,141
-351,752	-200,000	-0,014	0,067
-350,737	-49,262	0,134	0,046
-349,723	-38,715	0,115	0,044
-348,708	64,461	-0,112	0,082
-347,693	605,475	-0,057	0,103
-346,679	543,219	0,038	0,066
-345,664	88,193	-0,094	-0,076
-344,650	-9,626	0,056	-0,027
-343,635	800,000	0,028	0,064
-342,620	462,586	0,087	0,142
-341,606	-200,000	-0,008	0,109
-340,591	-71,455	0,084	0,023
-339,577	-25,895	0,094	0,040
-338,562	-200,000	-0,028	-0,095
-337,548	-87,373	0,127	0,028
-336,533	800,000	0,039	0,090
-335,518	800,000	-0,018	0,044
-334,504	178,708	-0,033	-0,035
-333,489	26,031	-0,083	-0,050
-332,475	295,063	-0,056	0,075
-331,460	296,243	-0,053	-0,071
-330,445	-147,269	-0,015	-0,001
-329,431	32,843	-0,105	0,066
-328,416	213,092	0,095	0,109
-327,402	18,858	0,107	-0,062
-326,387	-200,000	-0,033	0,192
-325,372	800,000	-0,005	-0,014
-324,358	800,000	0,013	-0,026
-323,343	270,016	-0,038	0,048
-322,329	-200,000	-0,014	0,067
-321,314	-200,000	0,032	0,172
-320,299	800,000	0,033	0,070
-319,285	-21,672	-0,063	0,028
-318,270	568,239	-0,049	0,087
-317,256	-20,393	0,057	0,025
-316,241	259,202	0,093	0,117
-315,226	198,594	-0,023	-0,026
-314,212	-132,288	0,077	-0,007
-313,197	420,852	0,041	-0,064
-312,183	-200,000	0,008	0,034
-311,168	-55,315	-0,049	-0,016
-310,153	2,148	0,036	0,019
-309,139	-200,000	0,026	-0,090
-308,124	-103,625	0,043	-0,007
-307,110	23,149	0,084	-0,050
-306,095	672,209	-0,044	-0,083
-305,080	455,565	-0,014	-0,022
-304,066	218,068	-0,036	0,041
-303,051	-24,013	0,093	0,040
-302,037	71,007	-0,173	-0,130
-301,022	529,506	-0,037	0,064
-300,008	800,000	-0,040	0,110
-298,993	-145,160	-0,056	0,004
-297,978	-34,003	0,124	-0,049
-296,964	-63,093	-0,025	-0,007
-295,949	-2,310	-0,084	-0,043
-294,935	271,858	-0,099	-0,127
-293,920	-25,276	0,087	-0,037
-292,905	22,853	0,135	-0,080
-291,891	-142,292	0,078	-0,005
-290,876	245,015	0,073	0,089
-289,862	-179,008	-0,018	-0,000
-288,847	170,596	-0,050	-0,052
-287,832	785,572	-0,055	0,110
-286,818	-200,000	0,007	-0,050
-285,803	800,000	-0,021	-0,062
-284,789	-4,383	-0,049	0,025
-283,774	-200,000	-0,003	-0,043
-282,759	800,000	-0,044	-0,110
-281,745	169,334	-0,017	-0,018
-280,730	-99,497	0,064	-0,012
-279,716	558,296	0,059	0,103
-278,701	122,319	-0,081	0,073
-277,686	-12,486	0,195	-0,092
-276,672	-200,000	-0,042	0,142
-275,657	800,000	0,035	-0,106
-274,643	53,112	-0,084	-0,058
-273,628	177,510	-0,026	-0,028
-272,613	2,683	-0,045	-0,024
-271,599	-121,287	0,091	0,011
-270,584	-85,755	0,074	-0,017
-269,570	-33,632	0,030	0,012
-268,555	-67,104	0,051	0,015
-267,540	-62,844	-0,006	0,002
-266,526	-55,728	-0,124	-0,040
-265,511	348,479	-0,069	0,099
-264,497	-111,578	0,103	-0,015
-263,482	-70,526	0,059	0,016
-262,467	10,194	-0,004	0,002
-261,453	48,738	0,126	-0,085
-260,438	-18,028	0,085	0,038
-259,424	508,902	0,048	-0,081
-258,409	-200,000	0,035	0,187
-257,395	663,617	-0,069	0,130
-256,380	-200,000	0,026	0,107
-255,365	237,666	0,108	0,129
-254,351	65,555	0,109	-0,080
-253,336	-10,267	0,073	0,035
-252,322	800,000	0,060	-0,173
-251,307	800,000	0,062	-0,179
-250,292	508,903	0,085	-0,143
-249,278	67,091	0,081	-0,060
-248,263	800,000	-0,057	0,127
-247,249	579,996	-0,057	0,102
-246,234	333,050	0,069	-0,096
-245,219	409,501	-0,048	-0,074
-244,205	184,203	0,027	-0,029
-243,190	-140,407	0,044	0,003
-242,176	581,033	-0,023	0,041
-241,161	350,644	0,023	0,033
-240,146	446,435	0,008	0,012
-239,132	-200,000	-0,002	0,026
-238,117	-200,000	-0,008	0,029
-237,103	-56,275	-0,024	-0,008
-236,088	98,129	0,052	-0,043
-235,073	208,284	-0,068	-0,077
-234,059	131,436	-0,057	0,053
-233,044	800,000	-0,042	-0,108
-232,030	-99,652	-0,106	-0,019
-231,015	-200,000	-0,000	-0,106
-230,000	51,414	-0,101	0,069
-228,986	-59,756	-0,072	0,022
-227,971	-200,000	-0,003	0,058
-226,957	800,000	-0,014	-0,029
-225,942	26,111	0,155	0,093
-224,927	280,897	0,087	-0,113
-223,913	-107,715	0,052	0,008
-222,898	24,390	0,108	-0,065
-221,884	-40,821	0,153	0,057
-220,869	49,383	-0,032	-0,022
-219,855	800,000	0,030	0,084
-218,840	-22,010	0,065	0,028
-217,825	-32,425	0,095	0,038
-216,811	-47,959	-0,111	-0,039
-215,796	238,157	0,119	-0,143
-214,782	-12,514	-0,040	0,019
-213,767	352,701	0,026	-0,037
-212,752	-200,000	-0,023	0,179
-211,738	800,000	-0,060	0,139
-210,723	-55,939	-0,064	0,021
-209,709	20,784	0,083	-0,049
-208,694	-51,843	0,092	-0,031
-207,679	155,934	-0,062	0,062
-206,665	800,000	0,051	0,134
-205,650	151,801	0,020	-0,020
-204,636	-77,759	-0,047	0,012
-203,621	-67,729	0,166	0,047
-202,606	-200,000	0,021	0,072
-201,592	-156,316	0,198	0,009
-200,577	-131,152	0,082	0,008
-199,563	800,000	0,054	-0,112
-198,548	74,327	0,074	-0,056
-197,533	-200,000	0,011	-0,038
-196,519	-200,000	-0,013	0,187
-195,504	104,857	-0,104	-0,088
-194,490	633,064	0,031	-0,057
-193,475	51,747	-0,077	-0,053
-192,460	78,615	-0,137	-0,106
-191,446	800,000	-0,060	0,143
-190,431	47,708	0,139	0,093
-189,417	106,012	-0,095	0,081
-188,402	-104,676	-0,011	0,002
-187,387	-200,000	-0,004	0,019
-186,373	800,000	0,063	0,127
-185,358	-200,000	-0,014	0,226
-184,344	616,080	0,027	-0,049
-183,329	-200,000	0,036	-0,127
-182,315	-143,189	-0,164	-0,011
-181,300	-53,674	-0,084	0,027
-180,285	800,000	0,018	-0,036
-179,271	599,168	-0,054	-0,096
-178,256	800,000	0,067	0,139
-177,242	800,000	0,036	-0,098
-176,227	-107,354	0,056	-0,009
-175,212	80,047	-0,023	-0,018
-174,198	-200,000	-0,002	0,061
-173,183	-60,338	0,122	0,037
-172,169	-200,000	-0,015	-0,067
-171,154	-93,596	0,127	-0,025
-170,139	-8,048	-0,120	-0,058
-169,125	319,977	0,091	0,124
-168,110	-0,365	-0,033	0,017
-167,096	186,787	-0,016	0,017
-166,081	-200,000	-0,000	-0,065
-165,066	340,053	-0,009	-0,013
-164,052	-32,430	0,100	0,040
-163,037	-100,780	0,049	-0,009
-162,023	-200,000	-0,052	0,203
-161,008	383,081	0,044	0,065
-159,993	207,255	-0,075	0,084
-158,979	-172,764	-0,027	0,001
-157,964	-31,085	-0,120	-0,049
-156,950	-8,454	0,057	-0,028
-155,935	663,596	0,061	-0,114
-154,920	-108,384	0,114	0,018
-153,906	-125,848	0,032	0,003
-152,891	800,000	0,014	0,029
-151,877	-122,570	-0,133	0,015
-150,862	-33,551	0,041	0,016
-149,847	-200,000	-0,023	-0,073
-148,833	-62,282	0,111	0,033
-147,818	610,984	-0,092	0,166
-146,804	14,427	0,081	0,045
-145,789	34,610	-0,066	0,041
-144,775	232,868	0,054	0,064
-143,760	447,457	0,061	-0,097
-142,745	-199,739	0,138	-0,000
-141,731	39,550	0,105	0,068
-140,716	166,546	-0,034	0,034
-139,702	-38,109	-0,049	0,019
-138,687	-200,000	0,007	0,091
-137,672	-48,443	0,060	0,021
-136,658	-120,585	-0,188	0,023
-135,643	-66,901	0,114	0,032
-134,629	710,635	-0,078	-0,149
-133,614	374,729	0,045	0,067
-132,599	800,000	0,035	0,099
-131,585	39,139	0,133	0,085
-130,570	-200,000	-0,013	-0,108
-129,556	-78,114	0,092	-0,023
-128,541	-186,807	-0,093	0,001
-127,526	-200,000	-0,022	-0,107
-126,512	2,991	0,072	0,038
-125,497	-200,000	-0,027	0,124
-124,483	105,612	-0,099	-0,084
-123,468	-135,849	0,108	-0,009
-122,453	4,156	-0,037	-0,020
-121,439	-200,000	-0,015	-0,129
-120,424	2,245	-0,091	-0,047
-119,410	-23,615	0,052	-0,022
-118,395	59,698	0,020	0,014
-117,380	225,447	-0,041	0,048
-116,366	140,688	0,033	0,031
-115,351	550,735	0,011	0,019
-114,337	-200,000	0,018	0,111
-113,322	42,227	-0,056	-0,037
-112,307	180,855	0,097	-0,103
-111,293	-200,000	0,023	-0,121
-110,278	-200,000	0,018	-0,117
-109,264	220,233	-0,025	0,028
-108,249	-5,489	0,097	0,048
-107,234	-52,950	0,058	-0,019
-106,220	27,463	-0,119	0,072
-105,205	38,684	-0,033	-0,021
-104,191	-200,000	-0,014	-0,127
-103,176	-74,787	0,093	-0,024
-102,162	31,476	0,030	-0,019
-101,147	-200,000	0,014	-0,049
-100,132	800,000	-0,045	-0,114
-99,118	311,622	0,030	0,040
-98,103	-23,460	-0,132	0,057
-97,089	553,336	-0,050	-0,088
-96,074	243,845	-0,023	0,028
-95,059	800,000	0,030	0,089
-94,045	639,687	0,053	0,098
-93,030	-73,571	-0,112	-0,029
-92,016	-66,521	-0,034	0,010
-91,001	-200,000	0,008	-0,086
-89,986	75,184	0,085	0,064
-88,972	320,094	-0,008	-0,011
-87,957	-102,861	-0,064	0,011
-86,943	217,521	0,108	-0,124
-85,928	180,945	-0,081	-0,086
-84,913	-40,176	0,098	0,036
-83,899	-170,165	0,063	0,002
-82,884	-200,000	-0,033	0,109
-81,870	17,767	0,143	-0,082
-80,855	680,937	0,042	-0,080
-79,840	201,859	-0,041	-0,046
-78,826	800,000	-0,042	0,100
-77,811	184,952	0,079	-0,085
-76,797	136,172	-0,117	-0,110
-75,782	0,824	0,061	0,031
-74,767	-127,299	0,022	0,002
-73,753	8,653	-0,091	-0,049
-72,738	800,000	0,034	0,090
-71,724	100,818	0,030	-0,025
-70,709	166,384	-0,090	-0,092
-69,694	800,000	-0,024	-0,058
-68,680	-200,000	-0,007	-0,126
-67,665	144,929	0,115	-0,111
-66,651	-200,000	0,011	0,066
-65,636	280,608	-0,087	-0,112
-64,622	81,344	-0,171	-0,132
-63,607	-143,193	-0,124	0,008
-62,592	197,100	-0,092	-0,101
-61,578	-13,075	0,053	0,025
-60,563	-200,000	0,022	0,087
-59,549	419,732	-0,096	0,147
-58,534	-37,528	-1,920	-0,732
-57,519	-200,000	-0,191	-0,861
-56,505	-200,000	-1,325	-4,913
-55,490	29,687	0,766	0,467
-54,476	800,000	5,535	12,234
-53,461	-200,000	17,499	282,855
-52,446	800,000	727,019	2213,403
-51,432	534,580	1643,256	2807,068
-50,417	110,069	1633,541	1407,142
-49,403	75,335	1286,208	973,008
-48,388	32,118	1027,750	634,750
-47,373	20,134	989,728	571,734
-46,359	18,536	977,661	559,500
-45,344	15,843	973,403	548,226
-44,330	15,959	972,173	547,891
-43,315	15,545	970,168	545,390
-42,300	15,485	969,132	544,589
-41,286	15,461	968,305	544,024
-40,271	15,483	967,010	543,347
-39,257	15,503	966,316	543,002
-38,242	15,499	965,263	542,374
-37,227	15,487	964,600	541,942
-36,213	15,483	963,799	541,457
-35,198	15,456	962,747	540,755
-34,184	15,500	962,077	540,500
-33,169	15,436	961,186	539,773
-32,154	15,463	960,269	539,322
-31,140	15,481	959,263	538,796
-30,125	15,494	958,545	538,413
-29,111	15,451	957,869	537,874
-28,096	15,516	957,285	537,734
-27,082	15,483	956,595	537,219
-26,067	15,531	955,834	536,922
-25,052	15,457	955,061	536,228
-24,038	15,433	954,471	535,801
-23,023	15,443	953,751	535,408
-22,009	15,479	953,026	535,094
-20,994	15,473	952,309	534,652
-19,979	15,494	951,855	534,442
-18,965	15,449	951,206	533,912
-17,950	15,529	950,391	533,691
-16,936	15,388	949,889	532,936
-15,921	15,405	949,198	532,580
-14,906	15,332	948,579	531,981
-13,892	15,296	947,984	531,509
-12,877	15,334	947,247	531,198
-11,863	15,299	946,590	530,697
-10,848	15,300	946,148	530,432
-9,833	15,459	945,615	530,615
-8,819	15,384	945,110	530,074
-7,804	15,412	944,254	529,662
-6,790	15,426	943,590	529,311
-5,775	15,442	943,036	529,031
-4,760	15,420	942,604	528,697
-3,746	15,382	942,018	528,228
-2,731	15,168	941,339	527,148
-1,717	15,265	940,472	526,951
-0,702	15,201	939,904	526,409
0,313	14,937	939,471	526,125
1,327	18,280	936,855	535,146
2,342	27,298	794,080	477,479
3,356	23,951	459,080	270,900
4,371	-3,341	314,769	156,698
5,386	-7,367	296,625	143,571
6,400	-9,308	290,490	138,660
7,415	-9,664	288,068	137,141
8,429	-9,744	286,595	136,349
9,444	-9,865	285,772	135,827
10,459	-9,881	285,185	135,520
11,473	-9,966	284,489	135,095
12,488	-9,903	284,107	134,963
13,502	-10,024	283,585	134,585
14,517	-9,778	283,009	134,538
15,531	-9,937	282,510	134,135
16,546	-9,728	282,344	134,246
17,561	-9,757	281,858	133,975
18,575	-9,932	281,585	133,666
19,590	-10,125	281,244	133,306
20,604	-9,803	280,832	133,407
21,619	-9,913	280,458	133,113
22,634	-9,983	280,190	132,906
23,648	-9,778	279,761	132,888
24,663	-9,957	279,659	132,656
25,677	-9,858	279,404	132,617
26,692	-9,820	278,987	132,444
27,707	-9,791	278,900	132,419
28,721	-9,833	278,485	132,170
29,736	-10,071	278,298	131,843
30,750	-9,934	277,856	131,752
31,765	-10,021	277,864	131,662
32,780	-9,916	277,498	131,576
33,794	-9,997	277,262	131,375
34,809	-9,932	277,153	131,373
35,823	-9,939	276,717	131,149
36,838	-9,942	276,615	131,086
37,853	-9,965	276,159	130,836
38,867	-9,939	276,039	130,792
39,882	-9,955	275,872	130,687
40,896	-9,863	275,501	130,585
41,911	-9,857	275,303	130,485
42,926	-9,965	274,900	130,182
43,940	-9,953	274,896	130,179
44,955	-10,021	274,603	129,965
45,969	-10,158	274,369	129,715
46,984	-10,042	274,030	129,651
47,999	-10,315	273,903	129,324
49,013	-10,233	273,518	129,207
50,028	-10,506	273,306	128,842
51,042	-10,629	272,999	128,571
52,057	-10,695	272,869	128,436
53,071	-10,617	272,609	128,375
54,086	-10,484	272,331	128,356
55,101	-10,377	272,302	128,430
56,115	-10,125	272,096	128,556
57,130	-9,837	271,985	128,759
58,144	-9,856	271,721	128,605
59,159	-9,823	271,377	128,461
60,174	-9,741	271,245	128,463
61,188	-9,730	271,017	128,354
62,203	-9,980	270,955	128,082
63,217	-9,706	270,543	128,129
64,232	-9,881	270,498	127,935
65,247	-9,736	270,186	127,909
66,261	-9,841	269,860	127,647
67,276	-9,989	269,637	127,394
68,290	-10,056	269,296	127,160
69,305	-10,062	269,047	127,025
70,320	-10,270	269,024	126,813
71,334	-10,017	268,783	126,919
72,349	-9,945	268,639	126,906
73,363	-9,843	268,551	126,946
74,378	-9,791	268,252	126,841
75,393	-9,770	267,971	126,716
76,407	-9,706	267,773	126,670
77,422	-9,803	267,638	126,506
78,436	-9,926	267,372	126,257
79,451	-9,740	266,942	126,212
80,466	-10,098	266,942	125,875
81,480	-9,985	266,544	125,780
82,495	-10,037	266,382	125,644
83,509	-9,832	266,173	125,720
84,524	-9,984	265,947	125,465
85,539	-10,093	265,744	125,259
86,553	-10,053	265,436	125,139
87,568	-9,978	265,336	125,148
88,582	-9,859	265,048	125,109
89,597	-10,136	264,902	124,779
90,611	-9,866	264,951	125,034
91,626	-9,776	264,651	124,962
92,641	-9,751	264,402	124,856
93,655	-9,931	264,215	124,595
94,670	-9,926	264,047	124,509
95,684	-9,999	263,733	124,285
96,699	-9,770	263,590	124,411
97,714	-9,962	263,460	124,167
98,728	-10,002	263,130	123,965
99,743	-10,359	263,025	123,585
100,757	-10,276	262,647	123,471
101,772	-10,160	262,397	123,446
102,787	-10,128	262,365	123,448
103,801	-10,002	262,217	123,480
104,816	-9,763	262,064	123,609
105,830	-9,915	261,851	123,362
106,845	-9,818	261,716	123,373
107,860	-9,726	261,544	123,363
108,874	-9,876	261,230	123,071
109,889	-9,860	261,031	122,981
110,903	-10,210	260,887	122,593
111,918	-9,995	260,628	122,650
112,933	-9,846	260,382	122,655
113,947	-9,735	260,229	122,670
114,962	-10,077	260,131	122,311
115,976	-9,825	260,017	122,468
116,991	-9,726	259,728	122,409
118,006	-9,728	259,513	122,295
119,020	-9,987	259,482	122,041
120,035	-9,730	259,244	122,144
121,049	-9,735	259,000	122,014
122,064	-9,905	258,945	121,827
123,079	-9,817	258,654	121,758
124,093	-9,939	258,409	121,524
125,108	-9,980	258,164	121,363
126,122	-10,235	257,954	121,030
127,137	-10,243	257,658	120,873
128,151	-10,139	257,581	120,917
129,166	-10,182	257,473	120,819
130,181	-10,018	257,056	120,755
131,195	-9,978	256,844	120,679
132,210	-9,917	256,722	120,664
133,224	-9,827	256,604	120,676
134,239	-9,865	256,452	120,561
135,254	-9,873	256,304	120,474
136,268	-9,811	256,103	120,422
137,283	-10,243	255,865	119,925
138,297	-10,297	255,502	119,697
139,312	-10,326	255,317	119,575
140,327	-9,936	255,218	119,855
141,341	-9,579	255,147	120,119
142,356	-9,709	254,945	119,901
143,370	-9,853	254,749	119,674
144,385	-9,754	254,629	119,692
145,400	-9,569	254,414	119,740
146,414	-9,556	254,163	119,622
147,429	-9,735	254,170	119,462
148,443	-9,827	254,036	119,309
149,458	-9,775	253,872	119,266
150,473	-9,757	253,614	119,149
151,487	-9,749	253,471	119,078
152,502	-9,694	253,110	118,945
153,516	-9,734	253,151	118,919
154,531	-9,636	252,747	118,802
155,546	-9,601	252,723	118,811
156,560	-9,467	252,418	118,771
157,575	-9,575	252,144	118,540
158,589	-9,780	252,021	118,297
159,604	-9,783	251,911	118,232
160,619	-9,642	251,633	118,211
161,633	-9,851	251,640	118,025
162,648	-9,606	251,301	118,064
163,662	-9,580	251,258	118,055
164,677	-9,773	251,120	117,816
165,692	-9,641	250,782	117,759
166,706	-9,472	250,617	117,815
167,721	-9,604	250,637	117,702
168,735	-9,716	250,559	117,560
169,750	-9,709	250,294	117,430
170,764	-9,506	250,119	117,510
171,779	-9,619	249,930	117,315
172,794	-9,502	249,629	117,262
173,808	-9,557	249,640	117,210
174,823	-10,096	249,260	116,568
175,837	-10,111	249,076	116,459
176,852	-9,829	248,985	116,643
177,867	-9,550	248,851	116,803
178,881	-9,536	248,665	116,717
179,896	-9,629	248,532	116,567
180,910	-9,638	248,440	116,506
181,925	-9,516	248,198	116,484
182,940	-9,667	248,046	116,276
183,954	-9,749	248,028	116,189
184,969	-9,615	247,706	116,139
185,983	-9,757	247,677	115,997
186,998	-9,564	247,385	116,011
188,013	-9,549	247,147	115,901
189,027	-9,579	247,074	115,832
190,042	-9,784	246,947	115,591
191,056	-9,554	246,778	115,693
192,071	-9,788	246,558	115,385
193,086	-9,670	246,276	115,341
194,100	-9,706	246,189	115,260
195,115	-9,596	245,965	115,236
196,129	-9,626	245,805	115,126
197,144	-9,557	245,513	115,036
198,159	-9,718	245,414	114,846
199,173	-9,507	245,225	114,922
200,188	-9,581	244,996	114,743
201,202	-9,943	244,794	114,340
202,217	-10,229	244,537	113,975
203,232	-10,085	244,159	113,906
204,246	-9,768	244,298	114,222
205,261	-9,399	244,146	114,443
206,275	-10,246	243,926	113,635
207,290	-7,372	244,977	116,482
208,304	-0,771	247,316	123,060
209,319	3,231	248,116	126,766
210,334	3,899	248,038	127,268
211,348	4,101	248,019	127,415
212,363	4,182	248,055	127,488
213,377	3,933	247,882	127,182
214,392	3,956	247,634	127,062
215,407	3,893	247,401	126,880
216,421	3,883	247,300	126,808
217,436	4,079	247,206	126,910
218,450	4,084	247,091	126,844
219,465	3,938	246,815	126,571
220,480	3,695	246,584	126,241
221,494	3,545	246,551	126,090
222,509	3,541	246,379	125,987
223,523	3,780	246,025	125,991
224,538	3,269	245,748	125,419
225,553	3,391	245,628	125,447
226,567	3,532	245,507	125,490
227,582	3,542	245,301	125,381
228,596	3,729	245,358	125,552
229,611	3,415	245,010	125,106
230,626	3,072	244,933	124,776
231,640	3,242	244,756	124,813
232,655	3,492	244,662	124,958
233,669	3,621	244,290	124,862
234,684	3,344	244,160	124,559
235,699	3,722	244,206	124,879
236,713	4,020	243,926	124,966
237,728	3,333	243,699	124,281
238,742	3,347	243,746	124,305
239,757	3,430	243,386	124,179
240,772	3,318	243,330	124,048
241,786	3,721	243,186	124,290
242,801	3,384	243,018	123,921
243,815	3,338	242,796	123,759
244,830	3,464	242,822	123,862
245,844	3,652	242,610	123,895
246,859	3,386	242,413	123,569
247,874	3,374	242,314	123,498
248,888	3,381	242,080	123,373
249,903	3,478	241,857	123,327
250,917	3,677	241,846	123,471
251,932	3,811	241,728	123,507
252,947	3,532	241,493	123,151
253,961	3,647	241,273	123,121
254,976	3,482	241,186	122,933
255,990	3,592	241,015	122,923
257,005	3,420	240,886	122,709
258,020	3,310	240,582	122,455
259,034	3,266	240,345	122,288
260,049	3,603	240,250	122,498
261,063	3,344	240,127	122,218
262,078	3,509	239,975	122,261
263,093	3,567	239,971	122,294
264,107	3,707	239,788	122,301
265,122	3,280	239,743	121,928
266,136	3,545	239,612	122,061
267,151	3,794	239,380	122,130
268,166	3,460	239,112	121,717
269,180	3,387	238,970	121,576
270,195	3,939	238,990	122,013
271,209	4,228	238,875	122,173
272,224	3,381	238,477	121,288
273,239	3,240	238,236	121,043
274,253	3,194	238,174	120,964
275,268	3,484	238,118	121,155
276,282	3,485	237,936	121,052
277,297	3,304	237,691	120,774
278,312	3,222	237,702	120,704
279,326	3,600	237,483	120,880
280,341	3,580	237,268	120,744
281,355	3,690	237,089	120,728
282,370	3,712	237,050	120,715
283,384	3,580	236,842	120,495
284,399	3,280	236,650	120,151
285,414	3,341	236,441	120,082
286,428	3,389	236,358	120,066
287,443	3,437	236,120	119,972
288,457	3,643	236,053	120,089
289,472	3,633	235,990	120,038
290,487	3,435	235,955	119,855
291,501	3,294	235,529	119,518
292,516	3,162	235,379	119,328
293,530	3,084	235,286	119,209
294,545	3,550	235,135	119,485
295,560	3,548	235,044	119,427
296,574	3,402	234,822	119,190
297,589	3,341	234,665	119,052
298,603	3,720	234,629	119,318
299,618	3,664	234,551	119,224
300,633	3,658	234,237	119,049
301,647	3,711	234,204	119,063
302,662	4,017	234,196	119,285
303,676	3,956	233,916	119,085
304,691	3,738	233,780	118,837
305,706	3,878	233,612	118,849
306,720	3,982	233,468	118,845
307,735	3,762	233,354	118,607
308,749	3,633	233,163	118,399
309,764	3,422	232,894	118,090
310,779	3,511	232,645	118,022
311,793	3,364	232,581	117,865
312,808	2,997	232,396	117,479
313,822	3,247	232,332	117,628
314,837	3,277	232,188	117,568
315,852	3,272	232,048	117,483
316,866	3,504	231,917	117,584
317,881	3,843	231,786	117,767
318,895	3,810	231,715	117,695
319,910	3,853	231,654	117,687
320,925	3,645	231,390	117,383
321,939	3,423	231,187	117,100
322,954	3,675	231,077	117,225
323,968	3,449	230,882	116,944
324,983	3,036	230,662	116,507
325,997	3,321	230,655	116,710
327,012	3,680	230,556	116,924
328,027	3,501	230,455	116,726
329,041	3,738	230,278	116,806
330,056	4,163	230,281	117,120
331,070	3,944	230,159	116,881
332,085	3,875	229,798	116,635
333,100	4,063	229,647	116,691
334,114	3,941	229,537	116,532
335,129	3,984	229,485	116,527
336,143	3,786	229,277	116,261
337,158	3,836	229,068	116,183
338,173	3,798	229,016	116,117
339,187	4,005	228,825	116,167
340,202	3,966	228,670	116,049
341,216	3,690	228,506	115,747
342,231	3,709	228,365	115,679
343,246	3,727	228,116	115,556
344,260	3,582	228,110	115,434
345,275	3,635	228,199	115,508
346,289	4,244	227,920	115,815
347,304	3,897	227,729	115,447
348,319	4,119	227,494	115,484
349,333	3,753	227,360	115,131
350,348	3,655	227,023	114,877
351,362	3,657	227,085	114,899
352,377	3,638	226,951	114,807
353,392	3,325	226,777	114,475
354,406	3,570	226,602	114,560
355,421	195,738	1320,934	1398,609
356,435	156,925	1454,263	1398,599
