DTS Sentinel unit serial number:	SN410029Multiplexer serial number:	ORYXHardware model number:	OX2-SRSoftware version number:	ORYX F/W v4,00 Oryx Data Collector v3.7.2.0data status	okinstallation	B5 Nyhavnadifferential loss correction	single-endedforward channel	channel 2reverse channel	N/Adate	2023/12/11time	19:12:13forward acquisition time	300,00reverse acquisition time	0,00gamma	499,1914k internal	0,3160k external	0,3160temperature offset calibration	1,0000default loss term (dB/km)	0,3820temperature slope calibration	1,0000multiplexer offset coefficient	1,0000multiplexer slope coefficient	1,0000fibre end	0,00T internal ref (°C)	15,53T ext. ref 1 (°C)	-0,19T ext. ref 2 (°C)	-0,42length (m)	temperature (°C)	Stokes	anti-Stokes-744,400	46,630	0,065	0,045
-743,385	-99,383	-0,247	0,045
-742,371	190,977	0,087	0,096
-741,356	-72,452	-0,297	0,080
-740,342	-96,314	0,050	0,010
-739,327	-122,946	-0,280	-0,033
-738,312	305,761	-0,016	0,021
-737,298	-114,793	-0,285	0,040
-736,283	96,876	0,128	0,108
-735,269	-50,911	-0,190	0,065
-734,254	20,714	0,066	0,039
-733,239	-90,959	-0,436	-0,092
-732,225	60,137	0,198	0,144
-731,210	800,000	0,041	0,106
-730,196	26,652	-0,027	0,017
-729,181	37,552	-0,093	0,060
-728,167	-200,000	-0,015	0,113
-727,152	215,971	-0,040	0,047
-726,137	397,756	0,070	-0,108
-725,123	-2,841	-0,077	0,040
-724,108	800,000	0,046	-0,149
-723,094	380,910	0,015	0,022
-722,079	54,618	-0,105	-0,074
-721,064	255,259	0,067	0,085
-720,050	-110,254	0,090	-0,014
-719,035	-27,248	-0,043	0,018
-718,021	36,436	0,055	0,036
-717,006	-200,000	-0,011	-0,126
-715,991	800,000	-0,082	-0,177
-714,977	-56,436	-0,186	-0,060
-713,962	97,980	0,034	0,029
-712,948	-9,354	0,080	-0,039
-711,933	-200,000	0,021	0,079
-710,918	-133,549	-0,129	0,012
-709,904	397,477	0,046	-0,071
-708,889	555,995	-0,030	-0,054
-707,875	-53,848	-0,083	-0,028
-706,860	-101,096	-0,168	-0,030
-705,845	282,233	0,065	-0,086
-704,831	550,926	-0,036	0,063
-703,816	208,026	0,119	-0,137
-702,802	164,174	-0,073	0,075
-701,787	-14,548	0,134	0,063
-700,772	-200,000	0,025	0,132
-699,758	423,354	-0,062	-0,098
-698,743	-91,556	-0,072	0,015
-697,729	-10,668	-0,039	0,019
-696,714	644,846	0,023	0,043
-695,699	100,206	-0,121	0,103
-694,685	800,000	0,024	-0,051
-693,670	249,297	-0,063	-0,079
-692,656	-58,303	0,047	0,015
-691,641	258,170	0,115	-0,146
-690,627	212,483	-0,054	0,063
-689,612	800,000	-0,019	-0,048
-688,597	-22,365	-0,037	-0,016
-687,583	-200,000	-0,004	-0,057
-686,568	-56,918	-0,089	0,029
-685,554	234,391	0,039	0,047
-684,539	81,751	0,022	0,017
-683,524	789,459	0,006	0,013
-682,510	443,117	0,042	0,068
-681,495	-25,335	0,086	-0,037
-680,481	-200,000	-0,040	-0,163
-679,466	172,441	-0,063	-0,067
-678,451	-16,470	0,030	-0,014
-677,437	-108,737	0,203	0,032
-676,422	-36,736	0,124	-0,049
-675,408	-73,686	-0,154	0,041
-674,393	62,385	-0,117	0,086
-673,378	56,943	0,058	0,041
-672,364	279,180	-0,092	-0,120
-671,349	-142,432	-0,109	0,008
-670,335	-71,511	0,026	0,007
-669,320	-200,000	0,000	0,051
-668,305	407,554	0,059	0,092
-667,291	-200,000	-0,007	0,042
-666,276	-141,173	-0,103	0,008
-665,262	-200,000	-0,032	-0,117
-664,247	-200,000	0,009	0,032
-663,232	-200,000	0,003	0,062
-662,218	157,283	0,061	0,062
-661,203	-200,000	-0,022	0,129
-660,189	-200,000	-0,026	0,197
-659,174	-200,000	-0,005	-0,113
-658,159	514,100	0,041	0,070
-657,145	-50,596	0,142	0,049
-656,130	-200,000	-0,001	-0,093
-655,116	6,276	0,037	0,020
-654,101	-9,496	-0,035	0,017
-653,086	-46,222	-0,148	0,053
-652,072	122,473	0,090	0,083
-651,057	-200,000	-0,008	0,042
-650,043	-125,803	0,130	0,014
-649,028	-200,000	0,028	0,122
-648,014	-143,183	-0,050	0,003
-646,999	-133,468	0,089	0,008
-645,984	668,817	-0,042	0,081
-644,970	204,526	-0,153	-0,174
-643,955	800,000	-0,036	-0,102
-642,941	800,000	-0,022	-0,062
-641,926	24,418	0,034	-0,021
-640,911	-1,165	0,070	-0,036
-639,897	-52,710	-0,039	0,013
-638,882	-101,333	0,107	-0,019
-637,868	-68,330	0,104	-0,029
-636,853	-191,798	-0,125	-0,001
-635,838	85,734	-0,069	0,056
-634,824	-24,967	0,032	0,014
-633,809	283,218	0,046	0,061
-632,795	-145,600	-0,127	0,008
-631,780	-200,000	0,005	-0,045
-630,765	240,487	-0,046	-0,056
-629,751	800,000	0,010	0,022
-628,736	425,539	-0,030	-0,047
-627,722	283,328	0,103	-0,136
-626,707	96,029	0,058	-0,048
-625,692	-25,123	0,048	-0,021
-624,678	123,773	0,049	0,045
-623,663	25,361	-0,035	-0,021
-622,649	591,301	0,020	-0,037
-621,634	439,787	-0,065	-0,104
-620,619	65,044	-0,073	-0,054
-619,605	800,000	-0,055	-0,115
-618,590	-19,558	0,108	-0,049
-617,576	397,982	0,027	0,041
-616,561	800,000	-0,025	-0,063
-615,546	-200,000	-0,024	-0,085
-614,532	-200,000	-0,003	0,047
-613,517	-111,694	-0,109	-0,016
-612,503	709,110	-0,040	-0,078
-611,488	158,336	0,070	0,071
-610,474	800,000	-0,031	-0,097
-609,459	800,000	0,037	0,094
-608,444	307,103	-0,092	-0,126
-607,430	-107,678	-0,174	-0,028
-606,415	-108,471	-0,135	0,021
-605,401	180,696	0,055	0,060
-604,386	-29,050	0,082	0,034
-603,371	465,880	-0,018	0,030
-602,357	53,887	-0,040	0,028
-601,342	158,204	-0,064	0,065
-600,328	-200,000	-0,023	-0,180
-599,313	-200,000	-0,013	-0,115
-598,298	-40,852	-0,054	0,020
-597,284	-46,702	-0,171	0,061
-596,269	231,333	-0,058	0,070
-595,255	-71,846	-0,071	-0,019
-594,240	510,330	-0,026	0,044
-593,225	237,280	-0,062	-0,076
-592,211	-200,000	-0,014	-0,087
-591,196	-200,000	0,018	-0,098
-590,182	-95,606	0,132	0,026
-589,167	-10,106	0,188	-0,091
-588,152	209,612	-0,040	0,046
-587,138	739,124	0,095	0,187
-586,123	-56,795	-0,106	0,034
-585,109	-200,000	0,021	-0,105
-584,094	-76,035	0,187	0,048
-583,079	-52,185	-0,018	-0,006
-582,065	43,428	0,100	0,067
-581,050	129,403	0,120	-0,112
-580,036	800,000	0,047	-0,108
-579,021	800,000	0,015	-0,037
-578,006	-200,000	0,003	-0,053
-576,992	145,158	-0,083	-0,081
-575,977	325,776	-0,058	0,081
-574,963	567,345	-0,016	0,029
-573,948	800,000	-0,011	-0,036
-572,934	-50,875	-0,131	0,045
-571,919	-122,275	-0,148	-0,018
-570,904	-200,000	0,051	0,171
-569,890	-111,211	-0,014	-0,002
-568,875	-200,000	-0,008	-0,173
-567,861	-200,000	-0,010	-0,050
-566,846	800,000	-0,010	-0,027
-565,831	800,000	-0,017	0,039
-564,817	-116,239	-0,054	0,007
-563,802	-52,204	-0,172	0,058
-562,788	-76,341	-0,023	-0,006
-561,773	180,899	-0,057	-0,062
-560,758	-73,420	0,134	0,036
-559,744	-200,000	-0,005	0,097
-558,729	800,000	-0,034	0,076
-557,715	-200,000	-0,002	0,034
-556,700	-144,095	-0,047	0,003
-555,685	-200,000	0,027	0,128
-554,671	-200,000	-0,002	0,101
-553,656	-200,000	-0,007	0,150
-552,642	-50,925	-0,050	0,017
-551,627	-65,548	0,038	-0,011
-550,612	-200,000	0,015	-0,053
-549,598	356,723	-0,045	-0,066
-548,583	-200,000	0,068	-0,220
-547,569	3,637	-0,117	0,062
-546,554	65,220	-0,034	0,025
-545,539	-106,819	0,087	0,014
-544,525	-200,000	0,028	-0,111
-543,510	-200,000	-0,004	-0,014
-542,496	366,861	-0,061	-0,090
-541,481	230,670	-0,107	-0,128
-540,466	293,506	0,037	-0,050
-539,452	-200,000	-0,010	0,099
-538,437	-26,673	-0,100	0,043
-537,423	-200,000	0,007	0,048
-536,408	268,975	0,045	0,058
-535,393	-200,000	-0,003	-0,065
-534,379	-200,000	0,011	0,048
-533,364	711,119	-0,022	0,043
-532,350	800,000	0,019	0,059
-531,335	-200,000	-0,002	0,007
-530,321	381,538	0,012	0,018
-529,306	-166,237	0,071	0,002
-528,291	61,487	-0,013	0,009
-527,277	800,000	0,023	-0,061
-526,262	-63,719	0,067	-0,020
-525,248	-136,289	0,125	0,010
-524,233	-95,861	0,017	0,003
-523,218	-65,527	0,025	0,007
-522,204	-109,343	-0,038	0,006
-521,189	758,593	-0,050	-0,099
-520,175	29,700	-0,049	-0,030
-519,160	641,079	0,029	-0,054
-518,145	85,581	0,092	0,074
-517,131	136,796	0,062	0,059
-516,116	781,376	-0,063	0,126
-515,102	-132,776	-0,080	0,007
-514,087	-21,493	-0,064	-0,028
-513,072	-200,000	0,022	-0,137
-512,058	-152,604	0,123	0,006
-511,043	-200,000	-0,002	-0,015
-510,029	-200,000	-0,017	0,165
-509,014	-0,924	0,013	0,007
-507,999	800,000	0,040	-0,087
-506,985	-200,000	0,006	0,062
-505,970	-200,000	-0,001	-0,038
-504,956	588,787	-0,086	-0,155
-503,941	-123,581	0,104	-0,012
-502,926	-200,000	0,003	-0,027
-501,912	-200,000	0,031	0,103
-500,897	-135,273	-0,111	0,010
-499,883	249,312	0,035	-0,044
-498,868	724,487	-0,076	-0,148
-497,853	-200,000	0,023	-0,075
-496,839	40,010	-0,102	0,067
-495,824	219,755	0,041	0,048
-494,810	411,120	-0,060	0,093
-493,795	-200,000	0,013	0,165
-492,781	119,392	-0,014	-0,013
-491,766	800,000	0,029	-0,092
-490,751	491,601	-0,046	-0,077
-489,737	-200,000	0,004	0,027
-488,722	509,760	0,041	0,071
-487,708	-200,000	0,104	0,000
-486,693	81,283	0,064	-0,050
-485,678	250,287	0,032	0,040
-484,664	435,876	0,069	-0,110
-483,649	27,985	0,016	-0,010
-482,635	800,000	-0,045	-0,103
-481,620	-100,753	-0,157	0,028
-480,605	73,607	0,074	-0,056
-479,591	-200,000	0,022	0,108
-478,576	-200,000	0,077	0,273
-477,562	153,829	-0,098	0,098
-476,547	169,995	0,094	-0,098
-475,532	-72,577	-0,116	-0,031
-474,518	-52,707	-0,030	0,010
-473,503	-43,561	0,147	0,054
-472,489	-42,467	-0,186	-0,069
-471,474	48,560	0,060	-0,041
-470,459	-200,000	-0,022	0,073
-469,445	-200,000	0,007	0,031
-468,430	-114,109	0,039	-0,005
-467,416	-200,000	-0,016	0,063
-466,401	-0,809	-0,110	0,057
-465,386	-153,706	-0,106	0,005
-464,372	-24,708	-0,049	-0,021
-463,357	77,498	-0,051	0,040
-462,343	800,000	0,024	-0,052
-461,328	36,088	-0,084	-0,054
-460,313	95,853	-0,052	-0,043
-459,299	-200,000	0,011	0,113
-458,284	61,728	0,220	0,159
-457,270	48,843	0,016	0,011
-456,255	-180,314	-0,030	-0,000
-455,241	800,000	-0,040	-0,086
-454,226	45,431	-0,123	-0,083
-453,211	-200,000	-0,024	-0,093
-452,197	800,000	0,078	0,217
-451,182	6,081	0,066	0,036
-450,168	34,049	0,041	-0,026
-449,153	800,000	-0,039	0,084
-448,138	421,282	-0,066	-0,103
-447,124	-81,486	-0,060	0,014
-446,109	-200,000	0,004	0,141
-445,095	489,095	0,107	0,179
-444,080	-42,910	0,082	-0,030
-443,065	111,986	-0,114	0,100
-442,051	-97,907	-0,081	-0,015
-441,036	-76,098	-0,288	-0,074
-440,022	195,243	-0,060	-0,066
-439,007	493,338	-0,053	0,089
-437,992	-96,408	0,069	0,013
-436,978	232,033	-0,127	-0,152
-435,963	121,169	-0,054	0,049
-434,949	-200,000	0,002	0,031
-433,934	-200,000	0,028	0,111
-432,919	334,168	-0,059	0,084
-431,905	47,655	0,116	0,079
-430,890	497,623	0,037	-0,063
-429,876	800,000	-0,050	-0,102
-428,861	216,120	0,054	0,063
-427,846	-114,977	0,115	0,016
-426,832	800,000	-0,046	-0,119
-425,817	-200,000	0,019	-0,067
-424,803	-200,000	-0,029	-0,151
-423,788	425,076	-0,006	-0,010
-422,773	-200,000	-0,002	0,032
-421,759	-200,000	-0,006	0,035
-420,744	-200,000	-0,041	-0,171
-419,730	-128,793	-0,131	-0,013
-418,715	800,000	0,012	-0,030
-417,701	117,419	0,057	-0,051
-416,686	-200,000	0,000	-0,074
-415,671	-200,000	0,024	0,163
-414,657	217,779	-0,101	-0,117
-413,642	-24,845	-0,172	-0,074
-412,628	-121,723	-0,211	-0,025
-411,613	-102,039	0,027	-0,005
-410,598	-119,577	-0,050	-0,006
-409,584	494,268	0,027	-0,046
-408,569	-22,796	0,090	0,040
-407,555	-72,759	-0,063	0,017
-406,540	36,271	-0,067	0,043
-405,525	561,863	0,037	-0,065
-404,511	-200,000	-0,049	-0,172
-403,496	-7,338	-0,035	0,017
-402,482	-200,000	0,006	-0,060
-401,467	800,000	0,062	0,190
-400,452	29,460	-0,136	0,084
-399,438	495,894	-0,068	0,114
-398,423	554,347	-0,066	-0,115
-397,409	-3,228	-0,124	-0,063
-396,394	793,148	0,065	0,131
-395,379	-200,000	0,010	-0,066
-394,365	-58,940	0,100	0,031
-393,350	-93,048	0,069	-0,014
-392,336	800,000	0,027	-0,067
-391,321	-114,515	0,043	0,006
-390,306	-200,000	0,005	0,182
-389,292	-29,322	0,045	0,019
-388,277	135,024	-0,048	0,046
-387,263	-200,000	0,056	0,216
-386,248	-200,000	-0,016	0,170
-385,233	214,822	0,054	0,062
-384,219	-69,345	-0,106	-0,029
-383,204	-134,876	-0,064	-0,006
-382,190	2,167	-0,056	0,030
-381,175	516,042	-0,080	-0,137
-380,160	-200,000	0,017	0,069
-379,146	-75,076	0,063	0,016
-378,131	800,000	-0,035	0,112
-377,117	-200,000	-0,011	-0,041
-376,102	-50,631	-0,027	-0,009
-375,088	-61,437	0,049	-0,015
-374,073	-77,482	0,093	0,023
-373,058	0,226	0,141	0,073
-372,044	-200,000	0,014	0,147
-371,029	-200,000	-0,018	0,156
-370,015	-129,886	-0,141	0,014
-369,000	691,924	0,051	0,098
-367,985	664,073	0,088	-0,165
-366,971	-200,000	-0,025	-0,111
-365,956	-1,299	0,043	-0,022
-364,942	-56,643	0,073	-0,023
-363,927	163,891	0,069	0,070
-362,912	-200,000	-0,023	0,100
-361,898	-24,070	0,080	0,034
-360,883	-89,290	-0,099	-0,021
-359,869	97,435	0,050	-0,042
-358,854	398,348	-0,048	0,074
-357,839	-200,000	-0,016	0,098
-356,825	94,113	-0,055	0,046
-355,810	-109,885	0,081	-0,012
-354,796	-136,875	0,017	0,001
-353,781	683,628	0,052	-0,100
-352,766	-60,565	0,055	0,017
-351,752	800,000	0,006	-0,019
-350,737	-17,526	0,087	-0,039
-349,723	-157,038	0,162	0,007
-348,708	-200,000	-0,013	0,071
-347,693	800,000	-0,038	-0,092
-346,679	800,000	0,032	-0,082
-345,664	-6,666	0,110	-0,054
-344,650	138,215	0,014	-0,013
-343,635	430,566	0,015	0,024
-342,620	-200,000	0,020	0,082
-341,606	-200,000	-0,030	0,134
-340,591	107,505	-0,026	-0,022
-339,577	-200,000	0,003	-0,143
-338,562	584,971	-0,057	-0,102
-337,548	-200,000	-0,005	0,030
-336,533	-0,390	0,068	-0,035
-335,518	655,327	-0,036	0,067
-334,504	800,000	0,045	0,101
-333,489	-8,521	0,093	-0,045
-332,475	-78,259	0,070	0,017
-331,460	-94,907	-0,075	0,015
-330,445	38,243	-0,056	0,036
-329,431	102,113	0,080	0,068
-328,416	86,976	-0,098	0,079
-327,402	-200,000	-0,026	0,130
-326,387	341,256	0,069	-0,098
-325,372	-200,000	0,026	0,135
-324,358	163,920	-0,133	-0,136
-323,343	529,498	0,020	-0,034
-322,329	1,125	0,096	0,050
-321,314	-200,000	0,025	0,196
-320,299	800,000	0,014	0,032
-319,285	800,000	0,049	0,145
-318,270	5,918	-0,159	-0,085
-317,256	-200,000	-0,037	-0,165
-316,241	3,060	-0,035	0,018
-315,226	237,774	0,034	0,040
-314,212	-200,000	0,026	-0,091
-313,197	-200,000	-0,027	-0,168
-312,183	-20,802	0,123	-0,054
-311,168	4,775	-0,039	0,021
-310,153	-200,000	0,023	-0,141
-309,139	-2,045	-0,039	0,020
-308,124	321,357	0,043	-0,059
-307,110	800,000	-0,040	0,091
-306,095	123,403	-0,056	0,051
-305,080	-156,972	-0,120	0,005
-304,066	176,455	-0,131	0,138
-303,051	-200,000	0,029	-0,111
-302,037	163,796	-0,012	-0,012
-301,022	159,176	-0,050	-0,051
-300,008	-16,365	0,104	-0,048
-298,993	143,775	-0,062	0,060
-297,978	33,235	-0,106	0,067
-296,964	-200,000	-0,004	-0,018
-295,949	38,186	0,146	-0,094
-294,935	184,229	0,049	-0,052
-293,920	-143,955	-0,050	0,003
-292,905	133,088	-0,013	0,012
-291,891	165,414	0,098	0,101
-290,876	105,262	-0,079	-0,067
-289,862	494,071	0,038	-0,063
-288,847	-200,000	0,008	-0,102
-287,832	47,402	0,098	-0,066
-286,818	-200,000	0,004	-0,098
-285,803	-200,000	-0,012	-0,060
-284,789	10,681	0,151	-0,083
-283,774	440,675	0,066	0,104
-282,759	54,957	0,071	-0,050
-281,745	172,751	0,111	-0,115
-280,730	93,757	-0,119	0,098
-279,716	-32,581	0,128	0,051
-278,701	138,739	0,114	-0,108
-277,686	800,000	-0,019	-0,052
-276,672	152,766	-0,035	-0,034
-275,657	800,000	-0,023	0,050
-274,643	638,579	0,070	0,128
-273,628	-71,765	-0,041	0,011
-272,613	-37,067	0,081	0,031
-271,599	-200,000	0,006	-0,026
-270,584	-15,430	-0,008	0,004
-269,570	-200,000	-0,027	0,197
-268,555	-58,373	0,035	0,011
-267,540	-200,000	-0,007	-0,147
-266,526	-200,000	-0,010	0,050
-265,511	-200,000	-0,010	-0,050
-264,497	-63,947	-0,014	0,004
-263,482	-149,866	0,124	0,007
-262,467	280,826	0,023	-0,030
-261,453	-41,977	0,030	-0,011
-260,438	-200,000	-0,035	-0,155
-259,424	-40,512	-0,074	-0,028
-258,409	800,000	-0,023	-0,068
-257,395	800,000	0,020	-0,047
-256,380	-134,598	0,102	0,009
-255,365	800,000	-0,010	0,027
-254,351	714,549	-0,075	-0,143
-253,336	-159,485	-0,043	0,002
-252,322	161,511	0,081	-0,082
-251,307	107,425	-0,145	-0,125
-250,292	375,940	0,073	-0,108
-249,278	237,833	-0,007	0,008
-248,263	12,331	0,097	0,054
-247,249	-125,485	-0,111	0,012
-246,234	191,257	0,044	0,048
-245,219	22,603	-0,167	-0,099
-244,205	244,026	0,062	-0,075
-243,190	142,870	-0,032	-0,031
-242,176	127,362	0,071	0,065
-241,161	20,903	0,061	0,036
-240,146	91,005	0,064	0,052
-239,132	149,718	-0,084	0,082
-238,117	178,247	0,080	-0,084
-237,103	33,393	0,144	0,090
-236,088	-200,000	-0,014	0,044
-235,073	-86,694	0,141	0,031
-234,059	-200,000	0,026	0,095
-233,044	62,590	0,128	-0,092
-232,030	28,373	-0,104	-0,063
-231,015	-4,962	-0,071	-0,035
-230,000	-137,365	-0,094	0,008
-228,986	-63,926	-0,071	-0,021
-227,971	-104,219	-0,050	0,008
-226,957	106,075	0,115	-0,098
-225,942	-69,837	0,022	-0,006
-224,927	698,250	0,044	0,085
-223,913	-200,000	0,003	-0,079
-222,898	800,000	0,019	0,045
-221,884	-14,849	0,047	0,022
-220,869	-134,122	0,082	-0,007
-219,855	191,991	0,046	0,050
-218,840	800,000	0,047	0,126
-217,825	277,905	-0,045	0,058
-216,811	-63,791	-0,075	0,022
-215,796	-200,000	0,027	0,126
-214,782	-200,000	-0,017	0,103
-213,767	5,833	-0,122	0,065
-212,752	-160,066	-0,081	0,003
-211,738	800,000	0,013	-0,032
-210,723	800,000	0,031	-0,091
-209,709	-200,000	-0,003	-0,188
-208,694	-200,000	-0,004	-0,037
-207,679	-79,914	0,054	0,013
-206,665	-200,000	0,016	0,211
-205,650	-192,399	0,045	-0,000
-204,636	-173,451	0,055	0,001
-203,621	-128,833	0,045	-0,005
-202,606	800,000	-0,025	0,067
-201,592	273,785	-0,013	0,017
-200,577	-110,988	-0,114	-0,017
-199,563	293,154	-0,015	0,020
-198,548	92,029	0,099	0,080
-197,533	-200,000	0,001	0,092
-196,519	156,986	-0,043	0,043
-195,504	800,000	0,034	-0,084
-194,490	-200,000	0,044	-0,170
-193,475	71,739	0,050	-0,037
-192,460	261,602	0,032	0,040
-191,446	800,000	0,035	0,078
-190,431	-200,000	-0,013	0,100
-189,417	-200,000	0,025	-0,103
-188,402	-200,000	-0,001	-0,077
-187,387	-154,583	0,107	-0,005
-186,373	91,213	0,029	-0,024
-185,358	-200,000	-0,004	0,077
-184,344	-200,000	-0,006	0,070
-183,329	443,267	-0,056	0,088
-182,315	-200,000	-0,003	0,105
-181,300	-200,000	0,014	-0,100
-180,285	-200,000	0,027	0,110
-179,271	30,552	0,024	0,015
-178,256	-200,000	-0,032	0,105
-177,242	103,385	0,036	-0,031
-176,227	57,405	0,068	0,048
-175,212	-200,000	-0,049	0,173
-174,198	204,256	-0,081	-0,090
-173,183	437,415	-0,061	-0,097
-172,169	-51,052	-0,149	-0,050
-171,154	800,000	-0,029	0,063
-170,139	83,903	-0,084	-0,066
-169,125	-113,932	0,102	0,014
-168,110	-130,001	-0,047	0,005
-167,096	-200,000	0,012	-0,052
-166,081	-63,224	0,091	-0,027
-165,066	-200,000	0,021	-0,092
-164,052	800,000	0,029	-0,059
-163,037	-200,000	0,013	0,248
-162,023	48,251	0,145	0,097
-161,008	-200,000	0,003	-0,068
-159,993	-200,000	-0,014	-0,109
-158,979	-181,864	-0,066	0,001
-157,964	373,201	0,067	-0,099
-156,950	779,859	0,066	-0,130
-155,935	-58,504	0,124	0,039
-154,920	2,627	0,093	0,048
-153,906	-46,881	0,165	0,058
-152,891	-112,595	-0,056	0,008
-151,877	203,300	0,022	0,025
-150,862	-73,501	-0,052	-0,014
-149,847	800,000	0,065	-0,176
-148,833	8,578	-0,083	0,045
-147,818	-200,000	-0,020	-0,203
-146,804	12,419	0,052	0,029
-145,789	11,844	0,177	0,098
-144,775	-104,029	0,068	0,011
-143,760	-200,000	0,011	0,036
-142,745	-200,000	-0,010	0,085
-141,731	-76,630	0,127	0,032
-140,716	-79,981	-0,098	-0,023
-139,702	-200,000	0,033	0,110
-138,687	186,479	0,065	0,070
-137,672	800,000	-0,009	0,020
-136,658	62,666	-0,054	0,039
-135,643	-139,090	0,046	0,004
-134,629	800,000	0,047	0,099
-133,614	496,969	-0,056	0,093
-132,599	-200,000	-0,012	0,109
-131,585	193,900	0,065	0,071
-130,570	-200,000	-0,038	-0,131
-129,556	-21,489	-0,039	0,017
-128,541	553,023	-0,051	-0,088
-127,526	316,587	0,055	0,075
-126,512	-200,000	0,014	-0,195
-125,497	-12,740	0,048	0,022
-124,483	-200,000	0,002	-0,092
-123,468	250,698	-0,079	0,097
-122,453	238,639	-0,125	0,150
-121,439	-200,000	0,041	0,148
-120,424	-88,142	0,107	-0,023
-119,410	232,033	-0,028	0,033
-118,395	227,979	-0,038	0,045
-117,380	304,713	0,048	0,064
-116,366	188,289	-0,050	0,054
-115,351	65,257	-0,032	-0,023
-114,337	22,352	-0,122	-0,071
-113,322	534,696	-0,044	0,076
-112,307	-200,000	0,009	0,080
-111,293	-17,456	-0,017	0,008
-110,278	-51,888	0,100	-0,033
-109,264	166,035	-0,083	0,085
-108,249	90,154	-0,148	-0,119
-107,234	149,173	-0,044	0,043
-106,220	-200,000	-0,007	-0,049
-105,205	-200,000	0,023	0,209
-104,191	-76,276	0,024	0,006
-103,176	-200,000	-0,010	0,126
-102,162	83,757	0,040	0,031
-101,147	800,000	-0,044	-0,102
-100,132	126,676	0,052	0,048
-99,118	-159,534	-0,116	-0,005
-98,103	800,000	0,046	-0,094
-97,089	202,689	0,070	0,078
-96,074	-200,000	0,032	0,164
-95,059	-200,000	0,012	0,110
-94,045	800,000	-0,021	-0,053
-93,030	-77,881	0,046	-0,011
-92,016	-200,000	0,005	0,017
-91,001	20,646	-0,102	-0,059
-89,986	178,708	0,106	0,111
-88,972	800,000	0,055	0,134
-87,957	27,738	-0,052	-0,031
-86,943	-179,020	0,027	0,000
-85,928	-200,000	0,000	0,066
-84,913	105,040	-0,051	-0,043
-83,899	117,957	0,057	0,050
-82,884	-200,000	0,016	0,072
-81,870	-108,221	-0,022	-0,003
-80,855	-49,077	-0,124	-0,042
-79,840	83,201	-0,096	-0,075
-78,826	36,260	-0,119	-0,075
-77,811	24,125	0,042	0,025
-76,797	-200,000	0,017	-0,075
-75,782	-154,493	-0,110	0,005
-74,767	74,134	0,111	0,083
-73,753	-200,000	-0,006	0,101
-72,738	-200,000	-0,003	-0,091
-71,724	708,849	0,006	0,012
-70,709	800,000	0,044	-0,120
-69,694	-200,000	0,015	-0,053
-68,680	177,871	0,163	0,171
-67,665	800,000	0,037	-0,102
-66,651	757,031	-0,061	-0,120
-65,636	-66,445	-0,059	-0,017
-64,622	452,713	-0,024	-0,039
-63,607	645,612	-0,057	-0,105
-62,592	192,426	-0,046	0,050
-61,578	-167,618	-0,022	-0,001
-60,563	37,260	0,088	-0,056
-59,549	145,568	-0,050	0,048
-58,534	-16,610	-1,877	-0,849
-57,519	-200,000	-0,163	-0,852
-56,505	-200,000	-1,124	-4,954
-55,490	-8,213	0,749	0,360
-54,476	800,000	5,344	12,144
-53,461	-200,000	17,375	281,946
-52,446	800,000	725,280	2210,761
-51,432	534,044	1641,520	2800,143
-50,417	110,267	1633,041	1406,248
-49,403	74,634	1286,412	969,381
-48,388	32,122	1027,840	634,182
-47,373	20,085	989,691	570,978
-46,359	18,572	977,557	558,998
-45,344	15,918	973,421	547,932
-44,330	16,024	972,221	547,584
-43,315	15,642	970,327	545,247
-42,300	15,478	969,352	544,143
-41,286	15,561	968,230	543,761
-40,271	15,539	967,157	543,067
-39,257	15,572	966,326	542,686
-38,242	15,525	965,498	542,047
-37,227	15,523	964,882	541,672
-36,213	15,526	963,905	541,112
-35,198	15,509	962,996	540,525
-34,184	15,543	962,220	540,180
-33,169	15,555	961,259	539,659
-32,154	15,611	960,232	539,240
-31,140	15,574	959,350	538,603
-30,125	15,582	958,923	538,369
-29,111	15,589	957,800	537,738
-28,096	15,559	957,407	537,400
-27,082	15,566	956,735	537,025
-26,067	15,541	955,876	536,441
-25,052	15,647	954,922	536,226
-24,038	15,579	954,414	535,700
-23,023	15,566	953,799	535,291
-22,009	15,598	953,095	534,978
-20,994	15,495	952,623	534,361
-19,979	15,564	952,017	534,223
-18,965	15,582	951,245	533,826
-17,950	15,600	950,461	533,422
-16,936	15,575	950,013	533,070
-15,921	15,530	949,231	532,464
-14,906	15,467	948,519	531,845
-13,892	15,431	948,093	531,470
-12,877	15,430	947,222	530,956
-11,863	15,424	946,639	530,589
-10,848	15,445	946,056	530,308
-9,833	15,553	945,776	530,472
-8,819	15,513	945,105	529,949
-7,804	15,449	944,388	529,322
-6,790	15,480	943,796	529,070
-5,775	15,513	943,147	528,787
-4,760	15,525	942,700	528,556
-3,746	15,470	942,090	528,017
-2,731	15,374	941,261	527,229
-1,717	15,289	940,736	526,645
-0,702	15,306	940,009	526,270
0,313	15,098	939,441	526,089
1,327	18,331	937,123	534,923
2,342	27,322	794,465	477,296
3,356	24,161	458,927	270,860
4,371	-2,805	313,915	156,689
5,386	-6,707	295,709	143,652
6,400	-8,493	289,769	138,985
7,415	-9,126	287,374	137,202
8,429	-9,379	285,747	136,166
9,444	-9,399	284,923	135,742
10,459	-9,384	284,318	135,456
11,473	-9,246	283,648	135,259
12,488	-9,362	283,141	134,893
13,502	-9,531	282,567	134,444
14,517	-9,497	282,209	134,294
15,531	-9,534	281,629	133,971
16,546	-9,720	281,306	133,626
17,561	-9,635	280,840	133,474
18,575	-9,601	280,647	133,404
19,590	-9,586	280,249	133,217
20,604	-9,534	279,942	133,109
21,619	-9,644	279,582	132,821
22,634	-9,617	279,236	132,670
23,648	-9,616	278,910	132,504
24,663	-9,673	278,658	132,319
25,677	-9,495	278,347	132,328
26,692	-9,688	278,161	132,045
27,707	-9,492	277,733	132,016
28,721	-9,618	277,443	131,747
29,736	-9,635	277,115	131,563
30,750	-9,699	277,053	131,461
31,765	-9,646	276,750	131,356
32,780	-9,669	276,535	131,221
33,794	-9,763	276,235	130,978
34,809	-9,703	276,213	131,013
35,823	-9,628	275,744	130,849
36,838	-9,577	275,515	130,777
37,853	-9,642	275,319	130,611
38,867	-9,681	274,967	130,396
39,882	-9,729	274,943	130,328
40,896	-9,768	274,516	130,077
41,911	-9,734	274,290	129,990
42,926	-9,766	274,018	129,820
43,940	-9,750	273,694	129,670
44,955	-9,751	273,470	129,551
45,969	-9,778	273,252	129,411
46,984	-9,996	273,085	129,117
47,999	-10,167	272,823	128,823
49,013	-10,104	272,627	128,778
50,028	-10,160	272,313	128,566
51,042	-10,117	272,029	128,460
52,057	-10,300	271,791	128,167
53,071	-10,289	271,661	128,104
54,086	-10,240	271,505	128,064
55,101	-10,217	271,230	127,945
56,115	-9,983	271,186	128,128
57,130	-9,531	271,010	128,451
58,144	-9,461	270,743	128,378
59,159	-9,442	270,560	128,297
60,174	-9,596	270,288	128,015
61,188	-9,493	270,290	128,099
62,203	-9,299	269,982	128,120
63,217	-9,538	269,768	127,788
64,232	-9,527	269,473	127,647
65,247	-9,494	269,239	127,554
66,261	-9,457	268,800	127,369
67,276	-9,679	268,714	127,115
68,290	-9,932	268,424	126,735
69,305	-9,827	268,194	126,710
70,320	-9,804	267,893	126,578
71,334	-9,756	267,852	126,591
72,349	-9,413	267,693	126,817
73,363	-9,503	267,493	126,628
74,378	-9,423	267,171	126,538
75,393	-9,442	267,099	126,475
76,407	-9,602	266,770	126,163
77,422	-9,584	266,725	126,146
78,436	-9,485	266,372	126,058
79,451	-9,568	266,230	125,904
80,466	-9,539	265,869	125,748
81,480	-9,655	265,679	125,543
82,495	-9,705	265,556	125,429
83,509	-9,600	265,279	125,381
84,524	-9,730	265,134	125,185
85,539	-9,716	264,816	125,036
86,553	-9,647	264,499	124,937
87,568	-9,715	264,488	124,859
88,582	-9,874	264,272	124,604
89,597	-9,715	263,972	124,594
90,611	-9,663	263,962	124,625
91,626	-9,395	263,667	124,714
92,641	-9,550	263,698	124,578
93,655	-9,533	263,223	124,359
94,670	-9,673	263,015	124,124
95,684	-9,785	263,001	124,007
96,699	-9,526	262,679	124,075
97,714	-9,612	262,447	123,877
98,728	-9,678	262,217	123,700
99,743	-9,896	262,126	123,451
100,757	-9,896	261,961	123,363
101,772	-9,784	261,719	123,337
102,787	-9,697	261,565	123,331
103,801	-9,549	261,279	123,315
104,816	-9,497	261,266	123,345
105,830	-9,387	260,961	123,287
106,845	-9,449	260,810	123,149
107,860	-9,411	260,608	123,077
108,874	-9,496	260,296	122,844
109,889	-9,462	260,289	122,860
110,903	-9,482	259,935	122,663
111,918	-9,497	259,823	122,586
112,933	-9,596	259,629	122,398
113,947	-9,400	259,486	122,491
114,962	-9,487	259,259	122,297
115,976	-9,745	259,159	122,012
116,991	-9,372	258,767	122,144
118,006	-9,436	258,509	121,955
119,020	-9,719	258,349	121,621
120,035	-9,674	258,352	121,651
121,049	-9,471	258,186	121,739
122,064	-9,388	257,925	121,678
123,079	-9,560	257,891	121,501
124,093	-9,516	257,619	121,400
125,108	-9,720	257,327	121,074
126,122	-9,819	257,088	120,865
127,137	-9,772	256,782	120,751
128,151	-9,851	256,613	120,592
129,166	-9,537	256,504	120,803
130,181	-9,676	256,400	120,623
131,195	-9,739	256,127	120,429
132,210	-9,580	256,039	120,515
133,224	-9,341	255,740	120,570
134,239	-9,419	255,599	120,425
135,254	-9,545	255,526	120,271
136,268	-9,814	255,315	119,928
137,283	-9,758	254,966	119,802
138,297	-9,828	254,611	119,564
139,312	-10,030	254,590	119,370
140,327	-9,640	254,539	119,670
141,341	-9,378	254,295	119,771
142,356	-9,283	254,355	119,870
143,370	-9,162	254,069	119,828
144,385	-9,337	253,884	119,581
145,400	-9,277	253,605	119,490
146,414	-9,267	253,381	119,382
147,429	-9,378	253,389	119,280
148,443	-9,226	252,967	119,201
149,458	-9,312	253,004	119,134
150,473	-9,538	252,890	118,877
151,487	-9,242	252,469	118,921
152,502	-9,301	252,365	118,811
153,516	-9,320	252,184	118,699
154,531	-9,285	252,042	118,651
155,546	-9,308	251,692	118,456
156,560	-9,342	251,553	118,351
157,575	-9,483	251,464	118,179
158,589	-9,281	251,162	118,198
159,604	-9,267	251,164	118,200
160,619	-9,278	250,908	118,060
161,633	-9,216	250,679	117,994
162,648	-9,274	250,612	117,903
163,662	-9,288	250,482	117,819
164,677	-9,247	250,166	117,695
165,692	-9,351	250,158	117,593
166,706	-9,235	249,830	117,526
167,721	-9,206	249,766	117,510
168,735	-9,324	249,622	117,332
169,750	-9,281	249,470	117,287
170,764	-9,168	249,377	117,327
171,779	-9,268	249,264	117,180
172,794	-9,189	249,060	117,140
173,808	-9,078	248,797	117,098
174,823	-9,695	248,456	116,411
175,837	-9,810	248,214	116,191
176,852	-9,481	248,308	116,500
177,867	-9,236	248,158	116,624
178,881	-9,259	247,917	116,481
179,896	-9,261	247,697	116,365
180,910	-9,207	247,740	116,421
181,925	-9,082	247,438	116,372
182,940	-9,071	247,139	116,230
183,954	-9,130	247,121	116,163
184,969	-9,274	247,060	116,004
185,983	-8,991	246,828	116,120
186,998	-9,156	246,607	115,869
188,013	-9,219	246,491	115,751
189,027	-9,201	246,271	115,653
190,042	-9,067	245,918	115,587
191,056	-9,145	245,873	115,492
192,071	-9,087	245,753	115,473
193,086	-9,352	245,710	115,223
194,100	-9,111	245,435	115,283
195,115	-8,985	245,352	115,338
196,129	-9,130	244,976	115,032
197,144	-9,099	244,793	114,960
198,159	-9,206	244,616	114,779
199,173	-9,173	244,614	114,795
200,188	-9,010	244,308	114,775
201,202	-9,369	243,986	114,319
202,217	-9,676	243,730	113,938
203,232	-9,795	243,532	113,738
204,246	-9,156	243,704	114,331
205,261	-8,515	243,756	114,870
206,275	-9,139	243,296	114,133
207,290	-7,138	244,104	116,142
208,304	-1,809	245,687	121,273
209,319	1,088	246,481	124,041
210,334	1,540	246,488	124,406
211,348	1,750	246,296	124,471
212,363	1,936	246,357	124,643
213,377	2,256	246,243	124,838
214,392	2,304	246,081	124,784
215,407	2,262	245,825	124,608
216,421	2,037	245,666	124,332
217,436	2,148	245,645	124,401
218,450	2,520	245,350	124,545
219,465	2,038	245,232	124,080
220,480	2,079	245,112	124,041
221,494	2,205	244,964	124,059
222,509	2,463	244,983	124,269
223,523	2,272	244,677	123,946
224,538	1,995	244,246	123,491
225,553	1,768	244,210	123,277
226,567	1,973	244,006	123,330
227,582	1,924	244,121	123,337
228,596	2,048	243,896	123,313
229,611	1,952	243,689	123,120
230,626	1,980	243,453	123,012
231,640	1,999	243,326	122,952
232,655	2,074	243,267	122,972
233,669	1,955	242,886	122,672
234,684	1,832	242,805	122,521
235,699	2,325	242,779	122,896
236,713	2,373	242,615	122,841
237,728	1,996	242,299	122,365
238,742	2,048	242,321	122,407
239,757	1,933	242,070	122,177
240,772	1,843	241,921	122,019
241,786	1,877	241,658	121,903
242,801	1,804	241,422	121,714
243,815	1,710	241,272	121,552
244,830	1,826	241,267	121,631
245,844	2,175	240,989	121,760
246,859	1,982	240,922	121,561
247,874	2,120	240,814	121,606
248,888	1,933	240,732	121,404
249,903	2,162	240,438	121,429
250,917	2,248	240,525	121,530
251,932	2,558	240,214	121,610
252,947	2,245	240,052	121,267
253,961	1,897	239,853	120,878
254,976	2,216	239,609	120,999
255,990	2,287	239,552	121,016
257,005	2,016	239,213	120,619
258,020	1,796	239,240	120,446
259,034	2,015	239,080	120,529
260,049	1,966	238,957	120,417
261,063	1,721	238,767	120,117
262,078	1,810	238,587	120,086
263,093	2,069	238,364	120,168
264,107	2,073	238,300	120,128
265,122	2,150	238,087	120,071
266,136	2,138	237,932	119,972
267,151	2,224	237,927	120,027
268,166	2,187	237,574	119,809
269,180	1,898	237,575	119,571
270,195	2,561	237,462	120,027
271,209	2,393	237,376	119,839
272,224	1,690	237,147	119,160
273,239	1,787	236,900	119,102
274,253	1,945	236,804	119,167
275,268	2,188	236,602	119,245
276,282	1,956	236,615	119,059
277,297	1,995	236,240	118,890
278,312	1,849	236,239	118,764
279,326	2,148	236,155	118,947
280,341	2,159	235,954	118,843
281,355	2,165	235,700	118,709
282,370	2,221	235,671	118,727
283,384	2,059	235,469	118,488
284,399	2,074	235,193	118,351
285,414	1,870	235,054	118,112
286,428	2,255	234,853	118,300
287,443	2,018	234,902	118,130
288,457	2,253	234,734	118,217
289,472	2,501	234,424	118,244
290,487	2,033	234,462	117,888
291,501	1,971	234,271	117,733
292,516	1,615	233,986	117,304
293,530	1,486	233,812	117,106
294,545	1,851	233,833	117,389
295,560	1,858	233,499	117,217
296,574	1,878	233,301	117,122
297,589	1,775	233,139	116,951
298,603	2,211	233,253	117,334
299,618	2,328	233,241	117,408
300,633	2,073	233,022	117,091
301,647	2,387	232,924	117,273
302,662	2,546	232,798	117,322
303,676	2,405	232,774	117,191
304,691	2,640	232,401	117,173
305,706	2,760	232,261	117,184
306,720	2,442	232,075	116,836
307,735	2,285	232,153	116,744
308,749	2,166	231,779	116,454
309,764	2,089	231,586	116,287
310,779	1,788	231,352	115,930
311,793	1,749	231,144	115,785
312,808	1,866	231,041	115,813
313,822	1,902	230,766	115,692
314,837	1,915	230,693	115,655
315,852	1,699	230,520	115,393
316,866	2,110	230,547	115,710
317,881	2,234	230,406	115,723
318,895	2,576	230,366	115,953
319,910	2,724	230,196	115,970
320,925	2,428	229,999	115,635
321,939	2,279	229,768	115,396
322,954	2,327	229,810	115,443
323,968	2,448	229,603	115,421
324,983	2,302	229,475	115,235
325,997	2,472	229,285	115,258
327,012	2,465	229,135	115,168
328,027	1,758	228,904	114,506
329,041	2,179	228,764	114,744
330,056	2,605	228,892	115,120
331,070	2,872	228,833	115,281
332,085	2,592	228,656	114,971
333,100	2,346	228,377	114,635
334,114	2,608	228,000	114,633
335,129	2,696	227,933	114,655
336,143	2,282	227,924	114,329
337,158	2,290	227,751	114,238
338,173	2,589	227,516	114,334
339,187	2,392	227,408	114,123
340,202	2,537	227,194	114,113
341,216	2,736	227,097	114,204
342,231	2,243	227,068	113,809
343,246	2,476	226,808	113,843
344,260	2,311	226,833	113,722
345,275	2,734	226,597	113,910
346,289	2,506	226,540	113,701
347,304	2,649	226,388	113,721
348,319	2,730	226,317	113,735
349,333	2,387	226,077	113,349
350,348	2,277	225,832	113,135
351,362	2,379	225,731	113,149
352,377	2,117	225,503	112,830
353,392	2,088	225,446	112,770
354,406	2,502	225,294	112,992
355,421	195,704	1319,627	1395,718
356,435	156,870	1452,945	1395,725
