DTS Sentinel unit serial number:	SN410029Multiplexer serial number:	ORYXHardware model number:	OX2-SRSoftware version number:	ORYX F/W v4,00 Oryx Data Collector v3.7.2.0data status	okinstallation	B5 Nyhavnadifferential loss correction	single-endedforward channel	channel 2reverse channel	N/Adate	2023/12/11time	18:07:13forward acquisition time	300,00reverse acquisition time	0,00gamma	499,1914k internal	0,3162k external	0,3162temperature offset calibration	1,0000default loss term (dB/km)	0,3820temperature slope calibration	1,0000multiplexer offset coefficient	1,0000multiplexer slope coefficient	1,0000fibre end	0,00T internal ref (°C)	15,03T ext. ref 1 (°C)	-0,46T ext. ref 2 (°C)	-0,75length (m)	temperature (°C)	Stokes	anti-Stokes-744,400	148,348	0,010	-0,010
-743,385	-156,520	-0,284	-0,013
-742,371	11,703	0,115	0,065
-741,356	-27,596	-0,251	-0,107
-740,342	0,515	0,121	0,063
-739,327	-6,169	-0,269	0,135
-738,312	-132,618	-0,079	0,007
-737,298	-164,695	-0,326	-0,011
-736,283	-200,000	-0,006	0,027
-735,269	250,621	-0,056	-0,070
-734,254	81,675	0,088	0,070
-733,239	-96,308	-0,513	-0,099
-732,225	-28,030	0,188	0,080
-731,210	800,000	-0,051	0,131
-730,196	159,871	-0,090	-0,092
-729,181	-200,000	0,024	-0,127
-728,167	-115,859	-0,044	0,006
-727,152	-122,504	-0,138	0,016
-726,137	-57,051	0,091	-0,029
-725,123	-18,791	-0,116	-0,053
-724,108	-200,000	0,013	-0,129
-723,094	131,432	-0,097	-0,092
-722,079	336,064	0,066	-0,095
-721,064	193,825	-0,101	-0,112
-720,050	31,626	0,033	0,021
-719,035	-146,112	-0,098	0,006
-718,021	-155,303	0,105	-0,005
-717,006	343,441	0,063	-0,091
-715,991	-200,000	0,029	-0,199
-714,977	-200,000	-0,023	-0,085
-713,962	705,334	-0,012	-0,023
-712,948	-91,504	0,037	-0,008
-711,933	212,718	-0,032	0,038
-710,918	261,942	0,008	0,010
-709,904	800,000	0,009	-0,024
-708,889	100,930	-0,039	-0,034
-707,875	215,738	0,020	-0,023
-706,860	31,005	-0,033	0,021
-705,845	-200,000	0,000	-0,044
-704,831	349,483	0,084	0,123
-703,816	798,910	-0,045	-0,091
-702,802	-121,024	-0,038	-0,005
-701,787	-31,543	-0,133	-0,055
-700,772	-200,000	-0,013	-0,086
-699,758	800,000	0,026	-0,079
-698,743	72,071	0,064	-0,049
-697,729	-128,687	-0,010	-0,001
-696,714	800,000	-0,063	0,141
-695,699	109,262	-0,080	-0,071
-694,685	-183,227	-0,063	-0,001
-693,670	800,000	0,040	-0,107
-692,656	65,918	-0,056	-0,042
-691,641	539,403	0,046	0,080
-690,627	-37,343	0,174	0,068
-689,612	186,860	-0,010	-0,011
-688,597	800,000	0,051	0,105
-687,583	800,000	-0,014	0,039
-686,568	-25,979	0,089	0,038
-685,554	-200,000	0,010	-0,129
-684,539	800,000	0,035	0,108
-683,524	229,012	0,048	-0,057
-682,510	-200,000	-0,001	-0,184
-681,495	600,115	0,034	0,063
-680,481	17,371	-0,047	-0,027
-679,466	-42,824	-0,109	0,040
-678,451	-23,637	0,029	-0,013
-677,437	800,000	0,017	-0,049
-676,422	4,266	0,079	0,043
-675,408	-200,000	-0,010	-0,143
-674,393	14,938	-0,079	-0,045
-673,378	83,026	-0,082	0,065
-672,364	800,000	-0,045	-0,103
-671,349	-200,000	-0,006	-0,089
-670,335	173,741	-0,039	0,041
-669,320	-200,000	0,010	-0,038
-668,305	154,438	0,041	-0,042
-667,291	107,717	-0,128	-0,112
-666,276	536,970	-0,033	-0,057
-665,262	-181,290	-0,141	0,002
-664,247	262,427	0,053	-0,068
-663,232	-91,683	-0,106	0,022
-662,218	140,850	0,162	0,157
-661,203	-200,000	0,006	0,111
-660,189	-14,139	-0,025	-0,012
-659,174	342,951	0,041	-0,059
-658,159	-200,000	-0,012	-0,106
-657,145	407,477	-0,097	-0,152
-656,130	75,860	0,011	-0,008
-655,116	800,000	-0,029	0,083
-654,101	149,070	0,059	-0,058
-653,086	36,239	0,065	0,042
-652,072	306,652	-0,055	-0,075
-651,057	199,615	-0,039	-0,044
-650,043	123,608	-0,018	0,017
-649,028	23,495	0,094	-0,056
-648,014	248,242	0,082	0,102
-646,999	301,255	-0,046	0,062
-645,984	-200,000	-0,006	0,120
-644,970	800,000	-0,023	0,061
-643,955	800,000	-0,054	-0,144
-642,941	99,591	-0,105	0,089
-641,926	99,322	-0,056	0,047
-640,911	310,051	0,048	0,066
-639,897	-76,855	-0,025	-0,006
-638,882	89,037	0,118	0,096
-637,868	331,890	0,036	-0,051
-636,853	-106,839	-0,112	-0,018
-635,838	800,000	-0,049	-0,147
-634,824	-49,199	-0,101	0,035
-633,809	-200,000	0,009	-0,103
-632,795	268,596	0,085	0,109
-631,780	199,897	-0,037	0,042
-630,765	33,047	-0,093	0,059
-629,751	66,074	-0,080	-0,060
-628,736	-200,000	0,023	-0,146
-627,722	-200,000	-0,017	0,077
-626,707	-110,707	0,060	-0,009
-625,692	12,521	0,006	0,004
-624,678	-200,000	-0,040	0,147
-623,663	-112,710	-0,085	0,012
-622,649	-200,000	0,003	-0,087
-621,634	499,049	0,027	0,045
-620,619	172,111	-0,088	0,093
-619,605	-87,993	0,106	0,023
-618,590	-200,000	-0,001	-0,062
-617,576	-35,784	0,152	-0,060
-616,561	-200,000	0,030	-0,167
-615,546	327,813	-0,028	-0,040
-614,532	252,969	-0,046	-0,058
-613,517	-169,166	0,131	-0,003
-612,503	-200,000	0,000	-0,109
-611,488	-68,707	-0,010	-0,003
-610,474	-86,770	0,133	-0,029
-609,459	800,000	0,016	0,037
-608,444	-200,000	-0,016	-0,053
-607,430	206,693	-0,051	-0,058
-606,415	385,142	0,040	-0,061
-605,401	265,782	-0,029	-0,038
-604,386	-15,204	-0,047	0,022
-603,371	-134,701	0,198	-0,017
-602,357	8,468	0,020	-0,011
-601,342	-8,092	-0,093	-0,046
-600,328	-9,155	-0,188	0,092
-599,313	238,799	-0,014	0,017
-598,298	56,789	-0,028	-0,020
-597,284	36,226	-0,167	-0,108
-596,269	672,577	-0,050	0,096
-595,255	11,896	-0,099	0,055
-594,240	-200,000	0,014	0,131
-593,225	-102,209	0,089	-0,016
-592,211	22,333	0,074	-0,044
-591,196	193,414	0,054	-0,060
-590,182	-200,000	-0,149	0,000
-589,167	-200,000	-0,049	0,170
-588,152	-200,000	-0,019	-0,080
-587,138	263,462	0,042	0,053
-586,123	503,934	0,057	-0,097
-585,109	481,109	-0,039	0,064
-584,094	-99,861	-0,029	0,005
-583,079	-200,000	-0,014	-0,068
-582,065	-200,000	0,004	0,034
-581,050	-5,973	-0,064	0,032
-580,036	408,443	-0,042	-0,065
-579,021	122,863	-0,110	-0,101
-578,006	748,890	-0,074	-0,147
-576,992	-71,857	0,076	0,021
-575,977	-75,069	-0,080	-0,021
-574,963	-200,000	-0,003	0,090
-573,948	-200,000	-0,005	0,052
-572,934	-200,000	-0,022	0,093
-571,919	2,231	0,070	-0,037
-570,904	800,000	0,013	0,037
-569,890	-5,484	-0,023	-0,012
-568,875	67,367	0,153	0,114
-567,861	564,962	-0,018	-0,033
-566,846	-39,177	0,101	0,039
-565,831	-83,244	0,073	-0,017
-564,817	-67,599	-0,070	-0,020
-563,802	-128,268	0,149	0,015
-562,788	-52,712	-0,147	0,049
-561,773	-145,967	0,052	-0,003
-560,758	28,052	-0,057	-0,035
-559,744	-57,735	-0,010	-0,003
-558,729	-200,000	-0,029	-0,129
-557,715	209,625	-0,061	-0,070
-556,700	-58,465	-0,146	-0,046
-555,685	-200,000	0,009	0,049
-554,671	131,425	0,037	-0,035
-553,656	-200,000	-0,011	0,054
-552,642	-93,043	-0,075	-0,015
-551,627	67,332	0,130	0,097
-550,612	800,000	-0,028	-0,068
-549,598	238,784	-0,029	-0,035
-548,583	-74,684	-0,113	-0,029
-547,569	800,000	-0,033	0,070
-546,554	388,007	0,051	0,078
-545,539	800,000	0,018	-0,049
-544,525	41,670	-0,079	-0,052
-543,510	800,000	-0,033	-0,093
-542,496	-22,161	-0,060	-0,027
-541,481	-200,000	-0,008	-0,073
-540,466	-39,975	-0,009	0,003
-539,452	779,740	0,021	0,042
-538,437	-200,000	-0,001	0,146
-537,423	-133,864	0,056	0,005
-536,408	237,628	-0,038	-0,046
-535,393	800,000	0,045	-0,106
-534,379	800,000	-0,003	-0,008
-533,364	800,000	-0,029	0,072
-532,350	75,431	0,062	-0,048
-531,335	76,665	0,122	0,094
-530,321	800,000	0,053	0,117
-529,306	39,124	0,093	-0,061
-528,291	141,859	-0,093	0,090
-527,277	800,000	0,022	-0,046
-526,262	-200,000	0,011	-0,139
-525,248	-9,146	-0,044	0,022
-524,233	-37,849	0,097	-0,038
-523,218	-200,000	0,038	0,194
-522,204	-74,500	0,019	0,005
-521,189	123,249	-0,068	0,062
-520,175	326,920	-0,079	-0,111
-519,160	-142,079	0,097	0,007
-518,145	800,000	-0,055	0,137
-517,131	-88,356	-0,037	-0,008
-516,116	159,204	0,026	0,026
-515,102	-27,439	0,083	0,035
-514,087	800,000	0,037	-0,093
-513,072	260,795	0,098	-0,123
-512,058	800,000	-0,017	-0,038
-511,043	348,063	-0,023	-0,034
-510,029	-200,000	-0,013	0,099
-509,014	-135,564	0,115	0,010
-507,999	591,644	-0,057	-0,104
-506,985	-68,157	-0,035	-0,010
-505,970	-200,000	0,028	0,135
-504,956	-167,445	0,024	0,001
-503,941	-19,597	-0,086	-0,039
-502,926	-46,272	-0,182	0,065
-501,912	112,829	-0,070	-0,062
-500,897	31,831	-0,112	0,070
-499,883	96,023	-0,057	-0,047
-498,868	-56,679	0,117	-0,038
-497,853	388,914	-0,060	-0,091
-496,839	-94,971	0,084	0,016
-495,824	119,296	-0,056	0,050
-494,810	370,737	-0,028	0,042
-493,795	-200,000	-0,007	-0,027
-492,781	-200,000	-0,202	-0,000
-491,766	-45,928	0,097	-0,035
-490,751	-25,004	-0,149	0,064
-489,737	420,964	-0,046	0,071
-488,722	-9,913	0,058	0,028
-487,708	168,660	0,052	-0,054
-486,693	63,897	-0,121	0,088
-485,678	-200,000	0,007	0,036
-484,664	345,982	-0,093	0,133
-483,649	624,419	0,033	-0,060
-482,635	78,180	-0,080	-0,062
-481,620	34,115	0,040	0,026
-480,605	800,000	-0,020	-0,048
-479,591	526,955	0,033	0,056
-478,576	-200,000	-0,008	-0,050
-477,562	119,448	-0,080	-0,072
-476,547	-68,186	-0,113	0,032
-475,532	-200,000	0,006	0,193
-474,518	-53,990	0,004	-0,001
-473,503	730,832	0,066	-0,130
-472,489	800,000	0,040	0,120
-471,474	800,000	0,064	0,144
-470,459	-37,332	-0,099	-0,038
-469,445	-20,389	-0,054	0,024
-468,430	-200,000	-0,005	-0,122
-467,416	-200,000	0,029	-0,116
-466,401	-89,984	0,178	0,038
-465,386	800,000	-0,052	0,145
-464,372	-136,921	0,079	0,007
-463,357	44,130	-0,072	0,048
-462,343	-34,185	-0,087	0,035
-461,328	800,000	0,016	0,037
-460,313	76,567	-0,015	-0,012
-459,299	-68,926	0,076	0,021
-458,284	-200,000	0,010	-0,106
-457,270	325,652	0,056	0,078
-456,255	71,955	0,056	0,042
-455,241	440,922	-0,004	0,006
-454,226	564,017	-0,077	-0,137
-453,211	-200,000	-0,016	-0,073
-452,197	633,863	0,071	0,132
-451,182	-200,000	-0,025	0,149
-450,168	7,529	-0,056	-0,030
-449,153	-72,407	0,039	0,010
-448,138	-64,385	-0,073	-0,021
-447,124	18,881	-0,038	0,022
-446,109	-57,702	-0,066	0,021
-445,095	-28,128	0,058	-0,024
-444,080	800,000	0,021	0,047
-443,065	-21,842	-0,106	-0,047
-442,051	-98,671	0,078	-0,014
-441,036	-200,000	0,007	-0,150
-440,022	113,639	0,056	0,050
-439,007	589,419	-0,036	-0,065
-437,992	-200,000	0,003	-0,164
-436,978	274,217	0,049	0,063
-435,963	-107,748	-0,238	-0,037
-434,949	203,639	0,104	-0,117
-433,934	-182,180	0,053	-0,001
-432,919	-159,272	0,068	-0,003
-431,905	-94,013	0,087	-0,017
-430,890	800,000	-0,017	-0,044
-429,876	-200,000	0,024	0,077
-428,861	221,727	-0,028	-0,033
-427,846	800,000	-0,019	0,058
-426,832	-142,029	-0,080	0,006
-425,817	73,820	-0,046	0,035
-424,803	-150,274	0,128	-0,007
-423,788	-200,000	-0,053	0,194
-422,773	269,824	0,062	0,080
-421,759	8,736	0,158	0,087
-420,744	48,592	0,058	-0,039
-419,730	184,404	0,096	-0,104
-418,715	800,000	-0,040	-0,086
-417,701	306,310	0,049	0,067
-416,686	30,251	0,053	0,033
-415,671	-185,220	0,084	-0,001
-414,657	7,066	0,129	-0,070
-413,642	-200,000	-0,007	-0,064
-412,628	179,452	-0,038	0,040
-411,613	-63,075	-0,038	-0,011
-410,598	-74,837	-0,104	-0,027
-409,584	388,555	0,017	0,026
-408,569	800,000	-0,022	0,069
-407,555	800,000	0,057	-0,145
-406,540	-94,271	0,109	0,021
-405,525	243,148	0,073	-0,089
-404,511	337,362	-0,053	0,074
-403,496	89,607	0,132	-0,107
-402,482	-66,428	-0,075	0,021
-401,467	460,483	0,053	0,087
-400,452	-139,615	-0,030	-0,002
-399,438	43,367	0,049	0,033
-398,423	800,000	-0,020	-0,052
-397,409	50,776	-0,104	0,072
-396,394	136,185	0,047	-0,044
-395,379	-200,000	-0,018	-0,074
-394,365	-200,000	-0,001	-0,015
-393,350	800,000	0,058	-0,122
-392,336	-200,000	0,054	0,183
-391,321	-200,000	0,005	-0,058
-390,306	800,000	-0,011	0,027
-389,292	194,248	-0,069	-0,077
-388,277	-63,015	0,138	0,041
-387,263	45,764	-0,098	0,066
-386,248	306,959	-0,061	0,083
-385,233	-91,633	-0,056	-0,011
-384,219	-200,000	-0,021	0,088
-383,204	-200,000	-0,015	0,068
-382,190	-104,104	0,097	0,016
-381,175	193,914	-0,021	-0,023
-380,160	-105,133	0,076	-0,013
-379,146	423,410	-0,089	0,139
-378,131	-200,000	-0,010	0,062
-377,117	-200,000	-0,010	0,093
-376,102	-83,393	-0,194	0,045
-375,088	-200,000	0,000	-0,004
-374,073	230,480	0,039	0,047
-373,058	51,782	0,059	-0,041
-372,044	-52,945	0,087	-0,029
-371,029	129,714	-0,032	-0,030
-370,015	-200,000	-0,007	0,042
-369,000	-200,000	0,007	-0,071
-367,985	-117,277	0,097	0,013
-366,971	278,928	-0,048	-0,062
-365,956	-109,854	0,073	-0,011
-364,942	-182,120	0,174	0,002
-363,927	-200,000	0,021	0,102
-362,912	239,462	0,083	-0,100
-361,898	-3,818	-0,104	-0,052
-360,883	800,000	-0,037	-0,119
-359,869	-200,000	0,001	-0,084
-358,854	110,776	0,171	-0,149
-357,839	241,067	0,037	0,045
-356,825	88,683	0,057	-0,046
-355,810	-137,744	0,062	-0,005
-354,796	-58,170	-0,051	-0,016
-353,781	79,280	-0,017	0,013
-352,766	517,518	0,066	0,112
-351,752	-41,421	-0,117	-0,044
-350,737	800,000	0,039	-0,084
-349,723	121,658	0,090	-0,081
-348,708	127,970	-0,076	-0,070
-347,693	258,491	-0,083	-0,104
-346,679	87,953	-0,022	0,018
-345,664	-125,464	-0,082	0,009
-344,650	800,000	-0,002	0,005
-343,635	432,303	-0,011	0,017
-342,620	-200,000	-0,003	-0,069
-341,606	-200,000	-0,006	0,085
-340,591	-200,000	0,004	0,017
-339,577	-37,703	-0,124	0,047
-338,562	-98,295	0,016	-0,003
-337,548	-11,451	0,101	0,048
-336,533	-105,863	0,093	-0,015
-335,518	48,564	0,141	0,095
-334,504	519,438	-0,029	-0,050
-333,489	184,641	-0,071	-0,076
-332,475	-149,227	-0,058	0,003
-331,460	-55,785	-0,013	-0,004
-330,445	-200,000	0,020	-0,103
-329,431	3,558	-0,052	-0,027
-328,416	-200,000	-0,006	0,141
-327,402	114,390	0,031	0,028
-326,387	-12,967	-0,073	-0,034
-325,372	-200,000	-0,027	-0,173
-324,358	477,679	0,022	-0,037
-323,343	-200,000	0,006	-0,162
-322,329	-200,000	0,013	0,044
-321,314	285,830	-0,019	0,025
-320,299	800,000	-0,034	-0,083
-319,285	222,298	0,028	0,032
-318,270	-82,158	-0,060	0,014
-317,256	82,944	0,085	0,067
-316,241	288,395	-0,069	0,091
-315,226	56,201	0,039	0,027
-314,212	-55,116	0,159	0,051
-313,197	-117,423	0,051	-0,007
-312,183	800,000	0,037	0,095
-311,168	-200,000	-0,039	-0,251
-310,153	-200,000	0,015	-0,164
-309,139	8,821	0,106	0,057
-308,124	-5,397	0,047	0,023
-307,110	364,676	0,009	-0,013
-306,095	-47,136	-0,117	-0,041
-305,080	284,847	-0,088	-0,115
-304,066	38,624	0,046	0,030
-303,051	-200,000	-0,016	0,061
-302,037	-156,371	-0,077	-0,003
-301,022	203,186	0,039	0,044
-300,008	-112,216	0,063	0,009
-298,993	-126,837	0,123	0,013
-297,978	90,423	-0,089	-0,072
-296,964	130,995	-0,006	-0,005
-295,949	-200,000	-0,047	-0,189
-294,935	-108,606	-0,072	0,011
-293,920	66,326	0,075	0,055
-292,905	191,861	0,130	0,142
-291,891	-200,000	-0,022	-0,073
-290,876	224,444	-0,105	0,122
-289,862	-200,000	-0,030	0,127
-288,847	-200,000	-0,006	-0,112
-287,832	-142,540	-0,072	0,005
-286,818	118,502	-0,023	0,021
-285,803	220,971	0,070	0,081
-284,789	5,820	-0,046	0,024
-283,774	482,621	0,052	0,085
-282,759	-200,000	0,023	-0,088
-281,745	-117,800	-0,098	0,013
-280,730	800,000	0,032	0,074
-279,716	344,235	-0,054	-0,077
-278,701	-200,000	-0,004	0,057
-277,686	800,000	-0,020	0,054
-276,672	18,747	0,146	-0,084
-275,657	-200,000	0,006	0,072
-274,643	498,488	0,053	0,089
-273,628	-142,906	0,074	0,005
-272,613	-200,000	-0,008	0,030
-271,599	45,683	0,111	-0,074
-270,584	33,757	-0,112	-0,070
-269,570	-93,363	-0,090	0,018
-268,555	800,000	-0,012	0,025
-267,540	-122,118	0,101	0,012
-266,526	318,335	-0,076	-0,104
-265,511	-200,000	0,041	0,256
-264,497	-151,389	0,075	0,004
-263,482	800,000	0,045	0,093
-262,467	512,992	-0,018	0,031
-261,453	142,043	0,046	-0,044
-260,438	2,922	-0,147	-0,077
-259,424	800,000	-0,027	0,082
-258,409	-16,461	-0,066	-0,030
-257,395	-200,000	0,002	0,043
-256,380	-200,000	0,046	0,158
-255,365	475,917	0,031	0,051
-254,351	-200,000	-0,018	0,069
-253,336	45,695	-0,075	0,050
-252,322	179,849	-0,052	0,055
-251,307	44,544	0,083	-0,055
-250,292	-108,598	0,129	-0,020
-249,278	800,000	0,040	-0,107
-248,263	31,626	0,080	-0,050
-247,249	312,601	0,048	0,065
-246,234	-200,000	-0,010	0,106
-245,219	34,693	-0,044	-0,028
-244,205	800,000	0,033	-0,081
-243,190	-11,343	0,107	0,050
-242,176	216,168	-0,022	-0,025
-241,161	164,526	0,088	0,090
-240,146	261,069	-0,067	-0,084
-239,132	800,000	0,021	-0,042
-238,117	-38,466	-0,115	0,044
-237,103	-130,567	0,090	0,009
-236,088	-54,940	-0,077	-0,025
-235,073	-200,000	0,014	-0,053
-234,059	-200,000	0,018	-0,104
-233,044	661,030	-0,022	0,040
-232,030	45,919	-0,040	-0,027
-231,015	800,000	-0,012	-0,026
-230,000	394,991	-0,044	-0,066
-228,986	800,000	0,041	-0,129
-227,971	-200,000	0,013	0,052
-226,957	-32,837	0,058	-0,023
-225,942	-123,527	0,091	-0,010
-224,927	32,817	-0,126	-0,079
-223,913	15,740	0,070	0,040
-222,898	800,000	-0,033	-0,106
-221,884	-68,487	-0,132	-0,037
-220,869	800,000	-0,056	-0,124
-219,855	59,651	0,116	-0,082
-218,840	-200,000	0,011	-0,087
-217,825	-188,565	-0,053	-0,000
-216,811	-6,360	0,033	-0,016
-215,796	336,788	-0,089	-0,125
-214,782	344,075	-0,062	-0,088
-213,767	202,022	0,072	-0,081
-212,752	77,039	0,129	0,099
-211,738	800,000	-0,029	0,080
-210,723	-200,000	-0,007	-0,036
-209,709	557,615	0,052	0,091
-208,694	183,763	-0,081	0,086
-207,679	70,211	-0,054	0,040
-206,665	800,000	-0,092	0,204
-205,650	86,209	0,066	-0,052
-204,636	108,727	-0,065	0,056
-203,621	83,454	0,048	0,038
-202,606	330,570	-0,116	0,161
-201,592	301,903	0,052	-0,070
-200,577	-200,000	-0,022	0,147
-199,563	81,521	-0,056	0,043
-198,548	-200,000	0,027	0,164
-197,533	86,672	0,060	-0,048
-196,519	263,996	0,094	-0,118
-195,504	-131,465	-0,064	-0,006
-194,490	123,932	-0,134	-0,121
-193,475	-124,128	0,036	-0,004
-192,460	-24,946	-0,070	0,030
-191,446	84,719	0,116	0,092
-190,431	-12,697	0,037	-0,017
-189,417	364,739	0,041	-0,060
-188,402	-170,093	0,235	0,006
-187,387	266,309	-0,074	0,093
-186,373	800,000	0,024	-0,051
-185,358	800,000	-0,018	0,046
-184,344	-91,728	-0,048	-0,010
-183,329	321,791	-0,051	-0,070
-182,315	3,586	0,046	-0,024
-181,300	-28,969	-0,141	-0,058
-180,285	800,000	-0,025	-0,069
-179,271	800,000	-0,030	-0,078
-178,256	793,583	-0,069	-0,137
-177,242	-121,568	0,088	0,010
-176,227	-157,593	-0,103	0,004
-175,212	100,023	-0,062	-0,052
-174,198	392,695	0,022	0,032
-173,183	-105,557	-0,166	0,027
-172,169	-123,796	0,068	0,008
-171,154	57,564	0,077	0,054
-170,139	730,637	-0,038	0,073
-169,125	-55,909	0,051	0,016
-168,110	800,000	-0,054	0,118
-167,096	297,646	0,010	-0,013
-166,081	-38,789	-0,044	0,017
-165,066	-144,953	0,131	0,008
-164,052	800,000	-0,040	-0,102
-163,037	-56,143	0,051	-0,016
-162,023	-200,000	-0,012	0,052
-161,008	20,850	0,126	0,073
-159,993	-20,079	-0,112	0,049
-158,979	-200,000	0,020	-0,079
-157,964	21,481	-0,113	-0,066
-156,950	44,474	-0,058	0,038
-155,935	-112,240	0,174	0,025
-154,920	-200,000	-0,005	-0,077
-153,906	172,527	0,025	0,026
-152,891	6,497	0,161	0,086
-151,877	62,492	0,066	0,047
-150,862	23,958	0,100	-0,059
-149,847	29,975	-0,048	0,029
-148,833	18,494	0,066	0,038
-147,818	800,000	0,063	-0,131
-146,804	48,722	0,064	0,043
-145,789	-200,000	0,147	0,000
-144,775	-200,000	-0,049	-0,166
-143,760	-200,000	-0,004	0,045
-142,745	-82,831	-0,087	0,020
-141,731	72,628	0,057	-0,043
-140,716	323,145	0,098	0,135
-139,702	-109,905	-0,055	-0,008
-138,687	800,000	0,007	0,023
-137,672	274,487	-0,083	0,106
-136,658	800,000	0,030	-0,062
-135,643	-200,000	-0,006	-0,061
-134,629	272,121	-0,056	0,071
-133,614	136,054	-0,033	-0,031
-132,599	-22,260	-0,113	-0,049
-131,585	-139,891	0,054	0,004
-130,570	714,553	0,022	0,042
-129,556	-30,685	-0,093	0,038
-128,541	800,000	0,059	-0,168
-127,526	-33,047	-0,071	-0,028
-126,512	-200,000	-0,000	-0,031
-125,497	-200,000	0,010	0,070
-124,483	-28,441	-0,074	-0,031
-123,468	125,739	-0,131	0,119
-122,453	145,286	-0,039	-0,038
-121,439	79,615	-0,154	-0,119
-120,424	-200,000	0,013	-0,054
-119,410	-95,894	0,095	0,018
-118,395	63,427	0,074	-0,053
-117,380	434,330	-0,035	-0,055
-116,366	-200,000	-0,019	-0,121
-115,351	8,190	0,033	0,018
-114,337	-200,000	-0,028	0,110
-113,322	800,000	-0,035	-0,074
-112,307	241,346	0,059	0,070
-111,293	-200,000	-0,001	-0,062
-110,278	675,923	0,014	-0,027
-109,264	-97,707	0,218	0,040
-108,249	-200,000	0,036	0,143
-107,234	67,464	-0,021	-0,015
-106,220	-200,000	-0,011	-0,053
-105,205	-171,117	0,147	0,004
-104,191	-78,518	0,079	-0,019
-103,176	0,201	0,133	0,068
-102,162	-34,727	0,059	0,023
-101,147	-113,387	0,175	0,024
-100,132	435,532	-0,056	-0,088
-99,118	-6,774	0,093	-0,045
-98,103	285,957	-0,026	0,034
-97,089	-200,000	0,005	0,091
-96,074	-94,690	0,121	0,023
-95,059	69,694	0,123	0,091
-94,045	62,743	-0,113	-0,081
-93,030	536,111	0,033	-0,056
-92,016	-200,000	-0,018	0,076
-91,001	-62,395	-0,125	-0,037
-89,986	-2,964	0,061	0,031
-88,972	800,000	-0,020	0,060
-87,957	800,000	0,046	0,141
-86,943	-200,000	0,084	0,000
-85,928	-55,437	-0,089	-0,028
-84,913	36,780	-0,023	-0,014
-83,899	622,032	-0,038	-0,069
-82,884	315,348	-0,076	0,103
-81,870	303,716	0,076	0,102
-80,855	156,596	-0,057	0,057
-79,840	300,900	0,007	-0,010
-78,826	-43,782	0,067	-0,024
-77,811	-200,000	-0,008	-0,037
-76,797	275,875	0,081	0,104
-75,782	609,250	-0,077	-0,139
-74,767	800,000	-0,039	-0,082
-73,753	-117,528	-0,086	0,011
-72,738	123,463	-0,107	0,096
-71,724	-200,000	0,028	0,119
-70,709	320,155	0,102	-0,140
-69,694	800,000	0,034	-0,073
-68,680	436,770	0,067	0,105
-67,665	-200,000	-0,006	-0,092
-66,651	353,042	-0,104	0,149
-65,636	192,880	0,009	-0,010
-64,622	113,116	0,057	-0,050
-63,607	136,443	-0,058	-0,055
-62,592	-13,633	-0,012	0,005
-61,578	116,157	-0,068	0,060
-60,563	-31,302	-0,041	0,017
-59,549	59,184	-0,028	0,019
-58,534	20,764	-1,836	-1,063
-57,519	-200,000	-0,209	-1,022
-56,505	-200,000	-1,348	-5,093
-55,490	14,757	0,851	0,476
-54,476	800,000	5,476	12,232
-53,461	-200,000	17,719	286,439
-52,446	800,000	727,786	2220,963
-51,432	534,199	1644,052	2803,084
-50,417	109,431	1635,184	1403,238
-49,403	74,742	1286,952	969,632
-48,388	31,677	1027,215	631,899
-47,373	20,077	988,665	570,010
-46,359	18,264	976,596	557,100
-45,344	15,383	972,611	545,394
-44,330	15,603	970,989	545,183
-43,315	15,086	969,357	542,559
-42,300	15,083	968,082	541,814
-41,286	15,052	967,219	541,208
-40,271	14,986	966,234	540,420
-39,257	15,096	965,218	540,190
-38,242	15,037	964,462	539,552
-37,227	15,069	963,522	539,108
-36,213	15,048	962,799	538,616
-35,198	14,989	961,765	537,825
-34,184	15,070	960,970	537,620
-33,169	15,023	960,075	536,947
-32,154	15,094	959,226	536,679
-31,140	15,056	958,238	535,984
-30,125	15,063	957,549	535,598
-29,111	15,035	956,697	535,010
-28,096	15,085	956,231	534,889
-27,082	15,086	955,431	534,423
-26,067	15,046	954,554	533,785
-25,052	15,040	953,887	533,371
-24,038	15,051	953,299	533,058
-23,023	14,995	952,553	532,437
-22,009	15,087	952,006	532,407
-20,994	15,093	951,253	531,984
-19,979	15,020	950,997	531,587
-18,965	15,114	949,857	531,228
-17,950	15,113	949,346	530,917
-16,936	15,038	948,732	530,315
-15,921	14,962	948,179	529,740
-14,906	14,986	947,294	529,303
-13,892	15,052	946,484	529,038
-12,877	14,950	946,136	528,500
-11,863	14,932	945,490	528,061
-10,848	14,924	944,897	527,683
-9,833	15,049	944,438	527,801
-8,819	14,982	944,033	527,341
-7,804	14,979	943,246	526,872
-6,790	14,967	942,551	526,426
-5,775	14,978	942,209	526,249
-4,760	14,984	941,448	525,820
-3,746	14,973	940,678	525,334
-2,731	14,805	940,236	524,536
-1,717	14,770	939,543	524,020
-0,702	14,767	938,910	523,634
0,313	14,600	938,149	523,476
1,327	17,864	936,075	532,532
2,342	26,917	792,678	474,864
3,356	23,618	457,349	268,937
4,371	-3,303	313,118	155,665
5,386	-7,264	294,868	142,595
6,400	-9,078	289,030	137,968
7,415	-9,740	286,535	136,117
8,429	-9,973	284,960	135,129
9,444	-10,100	284,050	134,563
10,459	-9,767	283,260	134,499
11,473	-9,974	282,765	134,052
12,488	-9,908	282,260	133,864
13,502	-9,933	281,660	133,543
14,517	-9,942	281,186	133,299
15,531	-10,251	280,973	132,889
16,546	-10,050	280,278	132,741
17,561	-10,133	280,063	132,549
18,575	-10,082	279,689	132,408
19,590	-10,070	279,167	132,160
20,604	-10,067	278,887	132,019
21,619	-10,267	278,615	131,688
22,634	-10,216	278,073	131,469
23,648	-10,202	277,911	131,393
24,663	-10,155	277,633	131,295
25,677	-10,232	277,479	131,137
26,692	-10,182	277,153	131,019
27,707	-10,142	276,790	130,873
28,721	-10,143	276,577	130,760
29,736	-10,354	276,325	130,430
30,750	-10,287	276,016	130,337
31,765	-10,241	275,647	130,193
32,780	-10,164	275,471	130,171
33,794	-10,236	275,243	129,985
34,809	-10,390	275,061	129,742
35,823	-10,309	274,640	129,608
36,838	-10,209	274,536	129,641
37,853	-10,358	274,198	129,330
38,867	-10,236	274,112	129,392
39,882	-10,316	273,671	129,098
40,896	-10,389	273,612	128,990
41,911	-10,289	273,345	128,946
42,926	-10,322	272,983	128,733
43,940	-10,369	272,839	128,611
44,955	-10,387	272,501	128,423
45,969	-10,438	272,347	128,292
46,984	-10,474	272,113	128,137
47,999	-10,703	271,877	127,802
49,013	-10,518	271,537	127,802
50,028	-10,611	271,397	127,638
51,042	-10,819	271,074	127,283
52,057	-10,759	270,807	127,202
53,071	-10,712	270,612	127,142
54,086	-10,750	270,582	127,081
55,101	-10,489	270,357	127,205
56,115	-10,548	270,333	127,128
57,130	-10,201	270,061	127,307
58,144	-10,224	269,778	127,142
59,159	-9,998	269,519	127,216
60,174	-10,071	269,463	127,110
61,188	-10,016	269,076	126,968
62,203	-10,062	268,875	126,819
63,217	-10,060	268,504	126,634
64,232	-10,134	268,418	126,516
65,247	-9,933	268,303	126,633
66,261	-10,058	268,053	126,390
67,276	-10,360	267,842	126,004
68,290	-10,425	267,437	125,743
69,305	-10,386	267,148	125,632
70,320	-10,548	267,121	125,460
71,334	-10,212	266,764	125,587
72,349	-9,922	266,601	125,762
73,363	-10,078	266,539	125,580
74,378	-10,060	266,126	125,390
75,393	-10,090	266,062	125,321
76,407	-10,233	265,743	125,031
77,422	-10,208	265,638	124,993
78,436	-9,999	265,423	125,069
79,451	-10,072	265,211	124,892
80,466	-9,903	264,740	124,811
81,480	-10,265	264,777	124,492
82,495	-10,296	264,379	124,266
83,509	-10,148	264,211	124,309
84,524	-10,446	264,205	124,027
85,539	-10,322	263,763	123,920
86,553	-10,372	263,581	123,778
87,568	-10,387	263,417	123,677
88,582	-10,366	263,131	123,551
89,597	-10,290	262,925	123,511
90,611	-10,237	262,977	123,571
91,626	-10,117	262,691	123,533
92,641	-10,122	262,558	123,455
93,655	-10,277	262,354	123,210
94,670	-10,250	262,228	123,164
95,684	-10,225	261,979	123,059
96,699	-10,108	261,661	123,002
97,714	-10,247	261,527	122,805
98,728	-10,203	261,280	122,717
99,743	-10,417	261,043	122,405
100,757	-10,337	260,682	122,295
101,772	-10,316	260,617	122,273
102,787	-10,197	260,431	122,280
103,801	-10,251	260,223	122,123
104,816	-10,232	260,199	122,118
105,830	-10,062	260,027	122,176
106,845	-10,092	259,741	122,004
107,860	-10,110	259,512	121,870
108,874	-9,888	259,289	121,949
109,889	-10,202	259,112	121,580
110,903	-10,038	259,010	121,665
111,918	-10,085	258,737	121,485
112,933	-10,174	258,599	121,331
113,947	-9,907	258,286	121,407
114,962	-10,024	258,195	121,252
115,976	-10,084	257,997	121,095
116,991	-10,020	257,770	121,034
118,006	-10,141	257,529	120,804
119,020	-10,144	257,476	120,766
120,035	-9,970	257,228	120,790
121,049	-10,127	257,171	120,616
122,064	-10,066	257,120	120,635
123,079	-9,961	256,633	120,487
124,093	-10,233	256,639	120,242
125,108	-10,342	256,254	119,957
126,122	-10,530	256,046	119,686
127,137	-10,533	255,874	119,592
128,151	-10,451	255,620	119,534
129,166	-10,311	255,614	119,641
130,181	-10,244	255,395	119,585
131,195	-10,187	255,060	119,467
132,210	-10,158	255,021	119,464
133,224	-9,973	254,832	119,524
134,239	-10,040	254,697	119,392
135,254	-9,895	254,427	119,379
136,268	-10,135	254,131	119,024
137,283	-10,451	253,960	118,662
138,297	-10,444	253,746	118,557
139,312	-10,355	253,486	118,501
140,327	-10,244	253,372	118,532
141,341	-9,833	253,247	118,816
142,356	-9,841	253,267	118,807
143,370	-9,950	253,048	118,601
144,385	-9,930	252,866	118,521
145,400	-9,941	252,487	118,325
146,414	-9,975	252,414	118,250
147,429	-10,058	252,171	118,056
148,443	-10,074	252,058	117,978
149,458	-9,987	251,990	118,010
150,473	-9,874	251,703	117,961
151,487	-9,925	251,595	117,857
152,502	-9,985	251,351	117,681
153,516	-9,741	251,205	117,809
154,531	-9,835	251,012	117,629
155,546	-9,917	250,717	117,410
156,560	-10,046	250,754	117,308
157,575	-10,019	250,392	117,151
158,589	-9,909	250,303	117,192
159,604	-9,953	250,113	117,055
160,619	-9,989	249,938	116,932
161,633	-9,951	249,732	116,858
162,648	-9,863	249,553	116,837
163,662	-9,995	249,590	116,733
164,677	-9,798	249,224	116,718
165,692	-9,970	249,121	116,515
166,706	-9,904	248,994	116,500
167,721	-9,923	248,814	116,389
168,735	-9,895	248,722	116,360
169,750	-9,771	248,516	116,357
170,764	-9,798	248,303	116,224
171,779	-9,868	248,130	116,074
172,794	-9,936	248,163	116,022
173,808	-9,814	247,789	115,939
174,823	-10,072	247,516	115,586
175,837	-10,256	247,205	115,277
176,852	-9,795	247,262	115,677
177,867	-9,863	247,095	115,532
178,881	-9,684	247,010	115,631
179,896	-9,762	246,675	115,399
180,910	-9,729	246,686	115,421
181,925	-9,844	246,383	115,174
182,940	-9,726	246,269	115,208
183,954	-9,725	246,080	115,110
184,969	-9,802	245,918	114,960
185,983	-9,682	245,682	114,939
186,998	-9,668	245,602	114,903
188,013	-9,565	245,302	114,837
189,027	-9,548	245,236	114,810
190,042	-9,723	245,277	114,675
191,056	-9,544	244,888	114,630
192,071	-9,706	244,778	114,435
193,086	-9,678	244,733	114,427
194,100	-9,665	244,463	114,301
195,115	-9,531	244,279	114,315
196,129	-9,489	244,058	114,236
197,144	-9,702	243,879	113,968
198,159	-9,777	243,751	113,836
199,173	-9,533	243,315	113,822
200,188	-9,818	243,356	113,598
201,202	-9,808	243,053	113,454
202,217	-10,385	242,891	112,898
203,232	-10,324	242,568	112,787
204,246	-9,906	242,759	113,207
205,261	-8,966	242,672	113,922
206,275	-9,781	242,268	113,059
207,290	-8,035	242,998	114,814
208,304	-2,909	244,656	119,790
209,319	0,172	245,393	122,668
210,334	0,646	245,276	122,987
211,348	0,906	245,278	123,190
212,363	1,020	245,230	123,248
213,377	1,411	245,212	123,548
214,392	1,472	245,195	123,578
215,407	1,419	244,815	123,333
216,421	1,462	244,534	123,215
217,436	1,561	244,582	123,309
218,450	1,573	244,279	123,155
219,465	1,458	244,118	122,969
220,480	1,208	244,030	122,711
221,494	1,417	243,920	122,814
222,509	1,421	243,749	122,720
223,523	1,411	243,510	122,581
224,538	1,113	243,445	122,296
225,553	1,094	243,217	122,155
226,567	1,311	242,985	122,203
227,582	1,389	242,991	122,258
228,596	1,439	243,021	122,303
229,611	1,251	242,595	121,926
230,626	1,241	242,414	121,815
231,640	1,324	242,404	121,867
232,655	1,590	242,120	121,928
233,669	1,374	241,945	121,655
234,684	1,207	241,887	121,480
235,699	1,822	241,661	121,851
236,713	1,613	241,481	121,581
237,728	1,584	241,415	121,514
238,742	1,539	241,134	121,325
239,757	1,420	240,954	121,128
240,772	1,472	240,822	121,093
241,786	1,478	240,590	120,970
242,801	0,925	240,593	120,518
243,815	0,942	240,291	120,369
244,830	1,378	240,155	120,639
245,844	1,586	240,057	120,745
246,859	1,417	239,768	120,454
247,874	1,247	239,618	120,233
248,888	1,360	239,580	120,294
249,903	1,398	239,581	120,313
250,917	1,714	239,378	120,452
251,932	1,806	239,328	120,490
252,947	1,497	238,936	120,036
253,961	1,023	238,677	119,519
254,976	1,296	238,705	119,739
255,990	1,469	238,557	119,791
257,005	1,131	238,254	119,361
258,020	0,969	238,292	119,241
259,034	1,262	238,034	119,332
260,049	1,403	237,971	119,402
261,063	1,401	237,587	119,197
262,078	1,108	237,625	118,975
263,093	1,492	237,437	119,172
264,107	1,339	237,367	119,006
265,122	1,269	237,133	118,823
266,136	1,437	237,065	118,911
267,151	1,762	236,851	119,048
268,166	1,294	236,584	118,536
269,180	1,085	236,616	118,377
270,195	1,871	236,522	118,937
271,209	1,921	236,340	118,874
272,224	1,202	236,018	118,138
273,239	1,203	235,822	118,030
274,253	1,439	235,660	118,123
275,268	1,416	235,668	118,098
276,282	1,253	235,437	117,845
277,297	1,196	235,343	117,743
278,312	1,460	235,038	117,785
279,326	1,483	235,015	117,782
280,341	1,611	234,805	117,766
281,355	1,398	234,817	117,595
282,370	1,634	234,563	117,641
283,384	1,556	234,445	117,510
284,399	1,309	234,198	117,184
285,414	1,265	234,040	117,061
286,428	1,310	233,917	117,024
287,443	1,457	233,884	117,111
288,457	1,562	233,825	117,152
289,472	1,572	233,693	117,083
290,487	1,421	233,386	116,802
291,501	1,192	233,015	116,429
292,516	0,813	232,906	116,072
293,530	1,013	232,925	116,226
294,545	1,587	232,814	116,603
295,560	1,621	232,639	116,531
296,574	1,315	232,386	116,158
297,589	1,178	232,113	115,906
298,603	1,656	232,172	116,293
299,618	1,508	232,029	116,097
300,633	1,801	231,883	116,238
301,647	1,638	231,926	116,124
302,662	1,952	231,819	116,301
303,676	2,031	231,686	116,285
304,691	1,746	231,605	116,015
305,706	1,820	231,186	115,852
306,720	1,995	231,118	115,941
307,735	1,771	230,889	115,644
308,749	1,581	230,667	115,379
309,764	1,293	230,453	115,041
310,779	1,204	230,271	114,873
311,793	1,086	230,216	114,745
312,808	1,317	230,008	114,807
313,822	1,275	229,763	114,643
314,837	1,123	229,756	114,513
315,852	1,087	229,528	114,363
316,866	1,272	229,555	114,506
317,881	1,520	229,351	114,582
318,895	1,824	229,437	114,845
319,910	2,056	229,339	114,962
320,925	1,853	228,835	114,545
321,939	1,313	228,743	114,081
322,954	1,600	228,761	114,297
323,968	1,581	228,641	114,212
324,983	1,710	228,462	114,210
325,997	1,718	228,380	114,165
327,012	1,712	228,127	114,024
328,027	1,478	227,888	113,718
329,041	1,802	227,805	113,910
330,056	2,116	227,812	114,139
331,070	2,331	227,639	114,204
332,085	2,039	227,523	113,917
333,100	2,018	227,331	113,794
334,114	1,900	227,311	113,685
335,129	2,163	227,037	113,736
336,143	1,892	226,823	113,415
337,158	1,912	226,713	113,365
338,173	1,826	226,581	113,225
339,187	2,039	226,387	113,277
340,202	1,889	226,185	113,053
341,216	1,773	226,260	112,994
342,231	1,782	226,047	112,885
343,246	1,691	225,823	112,696
344,260	2,047	225,641	112,859
345,275	2,123	225,694	112,932
346,289	1,894	225,512	112,661
347,304	2,097	225,365	112,728
348,319	1,932	225,310	112,568
349,333	1,947	224,928	112,379
350,348	1,767	224,786	112,164
351,362	1,744	224,817	112,152
352,377	1,385	224,695	111,815
353,392	1,649	224,362	111,835
354,406	1,827	224,363	111,957
355,421	196,704	1319,578	1397,980
356,435	157,678	1453,008	1397,972
