DTS Sentinel unit serial number:	SN410029Multiplexer serial number:	ORYXHardware model number:	OX2-SRSoftware version number:	ORYX F/W v4,00 Oryx Data Collector v3.7.2.0data status	okinstallation	B5 Nyhavnadifferential loss correction	single-endedforward channel	channel 2reverse channel	N/Adate	2023/12/11time	21:22:13forward acquisition time	300,00reverse acquisition time	0,00gamma	499,1914k internal	0,3157k external	0,3157temperature offset calibration	1,0000default loss term (dB/km)	0,3820temperature slope calibration	1,0000multiplexer offset coefficient	1,0000multiplexer slope coefficient	1,0000fibre end	0,00T internal ref (°C)	16,20T ext. ref 1 (°C)	0,24T ext. ref 2 (°C)	-0,00length (m)	temperature (°C)	Stokes	anti-Stokes-744,400	134,386	-0,066	-0,063
-743,385	-59,496	-0,183	0,058
-742,371	2,649	0,119	-0,063
-741,356	-31,969	-0,287	0,118
-740,342	-55,752	0,121	-0,040
-739,327	-106,052	-0,164	0,027
-738,312	19,571	0,086	0,051
-737,298	-84,510	-0,447	0,103
-736,283	-200,000	-0,013	-0,077
-735,269	-138,067	-0,337	0,027
-734,254	-82,008	0,117	0,028
-733,239	41,253	-0,401	-0,267
-732,225	-181,458	0,187	0,003
-731,210	-22,651	0,158	0,070
-730,196	-94,436	-0,042	0,008
-729,181	114,230	-0,063	-0,057
-728,167	246,207	0,022	-0,028
-727,152	-7,817	0,028	0,014
-726,137	1,066	-0,143	0,075
-725,123	-200,000	-0,025	-0,104
-724,108	-200,000	0,002	-0,151
-723,094	499,066	-0,076	-0,129
-722,079	-47,371	-0,132	0,047
-721,064	800,000	0,011	-0,034
-720,050	-65,925	0,048	0,014
-719,035	-104,620	0,068	-0,011
-718,021	-200,000	-0,023	-0,120
-717,006	-50,144	-0,103	-0,036
-715,991	800,000	-0,059	-0,160
-714,977	-63,189	-0,111	-0,034
-713,962	200,748	-0,063	0,071
-712,948	443,626	0,032	0,051
-711,933	34,097	0,040	-0,026
-710,918	-200,000	-0,026	0,088
-709,904	118,882	-0,177	-0,161
-708,889	-15,748	-0,100	-0,047
-707,875	106,631	-0,067	-0,058
-706,860	80,122	0,119	-0,094
-705,845	-200,000	0,003	-0,052
-704,831	29,514	0,170	0,106
-703,816	-200,000	-0,047	0,162
-702,802	203,171	0,061	-0,070
-701,787	89,808	-0,108	-0,089
-700,772	800,000	0,042	-0,121
-699,758	87,553	0,046	-0,038
-698,743	51,116	0,071	0,049
-697,729	20,311	-0,100	-0,059
-696,714	-84,159	-0,028	-0,006
-695,699	-19,127	-0,068	0,031
-694,685	-200,000	0,013	-0,049
-693,670	-200,000	-0,014	0,140
-692,656	-200,000	-0,045	0,161
-691,641	22,035	-0,094	-0,056
-690,627	-200,000	-0,003	0,010
-689,612	-200,000	0,008	0,113
-688,597	-76,168	-0,154	-0,040
-687,583	-200,000	-0,007	-0,045
-686,568	-123,571	-0,159	-0,018
-685,554	-71,277	-0,161	-0,044
-684,539	-3,549	0,080	-0,041
-683,524	800,000	-0,020	0,061
-682,510	800,000	0,027	0,065
-681,495	603,946	-0,099	-0,182
-680,481	-129,306	0,030	-0,003
-679,466	800,000	-0,055	-0,138
-678,451	-84,161	0,143	0,033
-677,437	116,195	0,147	-0,132
-676,422	-8,198	0,035	0,017
-675,408	-200,000	-0,048	0,202
-674,393	-200,000	-0,017	-0,106
-673,378	-186,672	-0,146	-0,001
-672,364	33,886	-0,070	0,045
-671,349	9,541	-0,045	-0,025
-670,335	266,772	0,092	0,118
-669,320	264,207	0,029	0,037
-668,305	-200,000	0,034	0,136
-667,291	-93,860	-0,058	-0,012
-666,276	-70,256	0,065	-0,018
-665,262	-200,000	-0,032	-0,108
-664,247	-118,174	-0,092	-0,012
-663,232	312,393	0,048	-0,067
-662,218	277,517	-0,089	-0,117
-661,203	42,328	-0,116	-0,077
-660,189	-200,000	-0,001	-0,042
-659,174	-200,000	0,008	-0,030
-658,159	0,160	-0,166	-0,087
-657,145	-200,000	-0,008	-0,065
-656,130	800,000	0,032	0,074
-655,116	-17,196	-0,109	-0,050
-654,101	-200,000	0,001	0,220
-653,086	1,102	-0,064	-0,034
-652,072	-106,434	-0,120	0,019
-651,057	114,788	-0,102	0,092
-650,043	426,261	-0,121	-0,193
-649,028	5,985	-0,099	-0,054
-648,014	81,987	-0,068	-0,054
-646,999	-200,000	-0,003	0,119
-645,984	-200,000	-0,007	-0,115
-644,970	-170,539	-0,115	-0,003
-643,955	-200,000	-0,025	-0,084
-642,941	269,072	0,011	-0,015
-641,926	-86,870	-0,102	-0,023
-640,911	-161,694	-0,055	-0,002
-639,897	-200,000	-0,002	-0,076
-638,882	507,742	0,080	0,137
-637,868	-200,000	0,009	0,035
-636,853	312,587	-0,095	-0,132
-635,838	-200,000	-0,018	-0,104
-634,824	137,990	-0,106	-0,102
-633,809	247,157	-0,036	0,045
-632,795	33,286	0,055	-0,035
-631,780	-41,051	0,067	-0,025
-630,765	-200,000	0,007	0,134
-629,751	120,496	-0,044	0,040
-628,736	118,529	-0,103	-0,093
-627,722	133,002	0,031	-0,029
-626,707	97,343	0,107	-0,090
-625,692	659,457	-0,071	-0,135
-624,678	-54,644	-0,131	0,043
-623,663	89,622	0,075	-0,062
-622,649	74,893	-0,052	0,041
-621,634	179,845	-0,028	-0,030
-620,619	-44,772	0,058	-0,021
-619,605	800,000	-0,039	-0,082
-618,590	800,000	-0,030	0,072
-617,576	-200,000	0,007	0,046
-616,561	-124,017	0,120	0,014
-615,546	-64,124	0,073	-0,022
-614,532	-65,941	-0,111	-0,032
-613,517	458,298	0,045	-0,074
-612,503	-200,000	0,002	-0,078
-611,488	571,082	0,055	-0,098
-610,474	-121,035	0,080	-0,010
-609,459	-152,750	0,090	-0,005
-608,444	-200,000	0,017	-0,130
-607,430	-200,000	0,002	-0,025
-606,415	544,539	-0,063	-0,111
-605,401	800,000	0,055	-0,131
-604,386	355,873	0,033	-0,049
-603,371	635,815	-0,023	0,042
-602,357	78,187	0,146	-0,114
-601,342	53,861	-0,014	-0,010
-600,328	800,000	-0,019	-0,041
-599,313	-109,375	0,072	-0,011
-598,298	-41,532	0,028	-0,011
-597,284	268,566	-0,038	-0,049
-596,269	14,220	-0,079	0,045
-595,255	86,540	-0,085	0,068
-594,240	100,314	0,109	-0,092
-593,225	-200,000	-0,011	-0,065
-592,211	538,232	-0,100	-0,175
-591,196	-67,514	-0,144	0,041
-590,182	-159,084	-0,052	-0,002
-589,167	-129,207	0,175	-0,018
-588,152	24,118	0,044	0,026
-587,138	-200,000	-0,018	0,103
-586,123	-200,000	0,017	-0,104
-585,109	-200,000	0,010	-0,192
-584,094	-56,037	-0,075	0,024
-583,079	203,919	0,098	-0,112
-582,065	-200,000	0,004	0,088
-581,050	43,401	0,083	0,055
-580,036	110,131	0,050	-0,044
-579,021	366,624	-0,024	0,036
-578,006	505,115	-0,047	-0,080
-576,992	338,121	-0,037	-0,052
-575,977	800,000	-0,012	0,039
-574,963	800,000	0,022	-0,045
-573,948	-200,000	0,024	0,108
-572,934	151,382	0,092	0,092
-571,919	-100,342	-0,061	-0,011
-570,904	343,704	-0,070	0,101
-569,890	-167,438	-0,066	-0,002
-568,875	800,000	-0,015	-0,040
-567,861	-109,039	0,200	-0,031
-566,846	-139,536	-0,064	0,005
-565,831	-13,543	-0,108	0,051
-564,817	-163,869	0,095	-0,003
-563,802	627,099	0,052	-0,096
-562,788	-132,559	0,125	0,012
-561,773	135,986	-0,028	0,026
-560,758	-14,023	0,041	0,019
-559,744	700,968	0,035	-0,067
-558,729	-200,000	0,013	0,096
-557,715	140,096	0,047	0,045
-556,700	-200,000	-0,010	-0,179
-555,685	-200,000	-0,018	-0,148
-554,671	-200,000	0,025	0,154
-553,656	320,482	-0,030	0,042
-552,642	-108,501	-0,060	0,009
-551,627	597,707	0,018	-0,032
-550,612	188,639	-0,115	-0,126
-549,598	800,000	-0,039	0,089
-548,583	800,000	0,008	-0,024
-547,569	-200,000	-0,009	-0,036
-546,554	598,405	0,024	0,043
-545,539	37,240	-0,048	0,031
-544,525	-200,000	0,002	-0,013
-543,510	16,803	-0,051	0,029
-542,496	543,668	-0,029	0,051
-541,481	-92,267	-0,036	0,007
-540,466	109,562	-0,048	-0,042
-539,452	262,697	0,064	-0,081
-538,437	-200,000	0,002	0,073
-537,423	800,000	-0,043	-0,136
-536,408	-68,458	-0,053	-0,015
-535,393	-200,000	0,000	0,016
-534,379	745,566	-0,006	0,013
-533,364	-128,937	-0,200	0,020
-532,350	-200,000	0,016	-0,132
-531,335	229,675	0,057	0,068
-530,321	10,903	-0,161	0,090
-529,306	-200,000	0,000	0,134
-528,291	467,762	-0,032	0,052
-527,277	323,585	-0,076	0,107
-526,262	304,723	-0,076	0,104
-525,248	-200,000	0,017	0,082
-524,233	-200,000	0,023	0,186
-523,218	-110,349	-0,053	0,008
-522,204	719,210	-0,066	0,129
-521,189	800,000	-0,063	-0,135
-520,175	-5,971	-0,028	-0,014
-519,160	800,000	0,023	-0,071
-518,145	634,749	-0,096	-0,179
-517,131	51,581	0,078	-0,054
-516,116	800,000	0,027	-0,055
-515,102	800,000	0,013	0,030
-514,087	38,800	-0,074	-0,048
-513,072	-140,068	-0,037	0,003
-512,058	75,254	-0,053	0,041
-511,043	150,027	0,037	0,036
-510,029	-93,671	-0,095	-0,019
-509,014	106,864	-0,045	0,039
-507,999	-200,000	-0,024	0,165
-506,985	-200,000	-0,008	0,100
-505,970	-51,177	-0,059	0,020
-504,956	-29,277	-0,059	-0,025
-503,941	-36,562	0,148	-0,058
-502,926	-102,552	0,020	0,003
-501,912	-200,000	-0,009	0,122
-500,897	-31,082	0,132	0,054
-499,883	800,000	0,077	-0,234
-498,868	-94,900	0,101	-0,020
-497,853	800,000	-0,053	-0,119
-496,839	-200,000	0,003	0,070
-495,824	-170,643	-0,072	-0,002
-494,810	340,461	-0,009	0,012
-493,795	800,000	-0,042	-0,093
-492,781	-60,205	-0,067	0,021
-491,766	8,165	0,096	-0,052
-490,751	-200,000	0,019	-0,112
-489,737	-53,285	0,060	0,020
-488,722	-200,000	0,025	-0,087
-487,708	61,499	0,054	0,039
-486,693	19,384	-0,059	0,034
-485,678	-2,301	-0,099	-0,051
-484,664	651,265	0,122	-0,229
-483,649	-82,133	0,061	-0,014
-482,635	9,997	0,126	-0,070
-481,620	-48,577	0,086	-0,030
-480,605	62,580	0,059	-0,043
-479,591	800,000	0,048	-0,099
-478,576	228,265	-0,046	-0,054
-477,562	-200,000	-0,036	0,141
-476,547	183,521	-0,137	0,148
-475,532	-117,274	-0,238	-0,031
-474,518	730,473	0,025	-0,049
-473,503	-82,464	0,087	-0,020
-472,489	800,000	0,029	0,063
-471,474	-200,000	-0,018	0,080
-470,459	-10,872	-0,070	-0,034
-469,445	800,000	0,048	-0,110
-468,430	207,021	0,178	0,203
-467,416	-200,000	0,028	0,095
-466,401	-200,000	-0,025	0,135
-465,386	644,825	-0,055	0,103
-464,372	-200,000	-0,025	0,083
-463,357	-17,745	0,114	-0,052
-462,343	67,448	-0,059	0,044
-461,328	64,767	-0,110	-0,081
-460,313	-200,000	0,000	0,044
-459,299	127,137	0,015	-0,014
-458,284	-29,736	-0,012	0,005
-457,270	-200,000	0,002	-0,024
-456,255	132,257	0,071	-0,066
-455,241	-109,056	-0,133	0,020
-454,226	509,100	-0,068	-0,115
-453,211	-110,966	-0,056	0,008
-452,197	-111,494	0,090	-0,013
-451,182	114,241	0,111	-0,098
-450,168	-4,594	0,011	-0,005
-449,153	80,717	-0,068	0,054
-448,138	-38,612	-0,072	-0,028
-447,124	-52,140	0,148	0,050
-446,109	55,759	0,036	-0,025
-445,095	497,942	0,072	0,121
-444,080	63,829	0,106	0,077
-443,065	-200,000	0,016	0,110
-442,051	-200,000	-0,024	0,098
-441,036	-200,000	-0,013	0,087
-440,022	-11,574	-0,113	-0,054
-439,007	503,525	0,048	0,081
-437,992	800,000	-0,023	0,065
-436,978	-150,426	0,091	0,005
-435,963	-200,000	0,014	0,093
-434,949	-200,000	0,006	-0,098
-433,934	370,867	-0,046	0,068
-432,919	94,633	0,039	0,032
-431,905	-200,000	0,012	-0,055
-430,890	43,461	0,072	0,048
-429,876	-200,000	0,010	0,074
-428,861	30,852	-0,101	0,063
-427,846	-16,305	-0,050	0,023
-426,832	210,413	-0,036	0,041
-425,817	395,513	-0,054	-0,082
-424,803	-200,000	-0,001	0,026
-423,788	-108,041	0,107	-0,017
-422,773	-47,040	0,090	-0,032
-421,759	48,474	-0,045	0,031
-420,744	800,000	-0,001	0,003
-419,730	213,829	-0,076	-0,088
-418,715	-200,000	-0,005	0,053
-417,701	-200,000	0,002	-0,080
-416,686	-109,026	0,051	0,008
-415,671	-14,099	0,064	-0,030
-414,657	-105,580	0,051	0,008
-413,642	102,982	-0,033	0,028
-412,628	-64,620	0,101	0,030
-411,613	120,166	-0,076	-0,069
-410,598	-200,000	0,036	-0,118
-409,584	29,899	-0,088	0,055
-408,569	-200,000	0,020	0,066
-407,555	800,000	-0,017	0,051
-406,540	4,300	0,126	0,067
-405,525	253,030	-0,066	0,082
-404,511	-200,000	-0,026	-0,133
-403,496	-24,988	0,106	0,045
-402,482	177,458	-0,038	-0,040
-401,467	-112,965	0,142	-0,020
-400,452	-197,209	0,084	-0,000
-399,438	-57,462	-0,054	-0,017
-398,423	270,353	-0,034	0,043
-397,409	172,585	-0,072	0,076
-396,394	-89,228	0,121	0,026
-395,379	-125,930	0,082	-0,009
-394,365	67,442	0,054	0,040
-393,350	-200,000	0,057	-0,000
-392,336	-200,000	-0,012	-0,065
-391,321	-84,755	0,060	0,014
-390,306	148,625	-0,094	-0,092
-389,292	-46,881	-0,053	-0,019
-388,277	131,876	0,028	0,026
-387,263	-89,569	0,123	0,026
-386,248	467,964	0,065	-0,107
-385,233	800,000	0,034	-0,083
-384,219	2,383	-0,060	-0,031
-383,204	570,967	-0,035	-0,061
-382,190	-200,000	-0,015	0,053
-381,175	349,209	0,052	-0,076
-380,160	-111,931	-0,098	0,014
-379,146	28,550	0,046	-0,028
-378,131	-200,000	0,007	0,047
-377,117	-95,663	0,088	0,017
-376,102	800,000	0,028	0,084
-375,088	-103,733	0,017	0,003
-374,073	-200,000	0,009	-0,097
-373,058	25,577	-0,022	0,013
-372,044	800,000	0,081	0,237
-371,029	-3,977	0,083	0,041
-370,015	246,316	0,045	0,056
-369,000	-200,000	-0,009	-0,035
-367,985	161,644	-0,124	-0,126
-366,971	-41,920	-0,117	-0,043
-365,956	547,441	0,013	-0,023
-364,942	79,708	-0,134	0,105
-363,927	-200,000	-0,014	0,055
-362,912	212,990	0,090	0,103
-361,898	50,731	0,024	-0,016
-360,883	800,000	0,026	0,057
-359,869	377,389	0,022	-0,032
-358,854	466,533	0,062	0,101
-357,839	-74,712	0,152	0,039
-356,825	24,319	0,012	0,007
-355,810	411,375	-0,040	-0,061
-354,796	42,338	-0,099	-0,065
-353,781	1,084	-0,089	-0,046
-352,766	91,012	-0,146	0,119
-351,752	-200,000	-0,006	-0,048
-350,737	25,917	-0,143	0,087
-349,723	-109,048	-0,048	0,007
-348,708	-200,000	-0,024	0,083
-347,693	-200,000	-0,002	-0,007
-346,679	1,240	0,039	-0,020
-345,664	-115,366	0,110	-0,015
-344,650	800,000	-0,020	0,060
-343,635	-108,239	-0,076	-0,012
-342,620	-200,000	0,003	-0,025
-341,606	-77,630	-0,158	-0,039
-340,591	646,480	0,051	-0,094
-339,577	-144,090	-0,077	0,005
-338,562	-200,000	0,038	-0,169
-337,548	126,415	-0,107	-0,098
-336,533	166,866	0,033	0,034
-335,518	-200,000	-0,020	0,094
-334,504	191,240	0,064	0,070
-333,489	146,864	-0,038	0,037
-332,475	315,944	-0,068	-0,093
-331,460	-63,378	-0,096	-0,028
-330,445	221,947	0,082	-0,096
-329,431	800,000	0,030	0,088
-328,416	800,000	0,029	0,061
-327,402	384,247	0,025	-0,038
-326,387	-18,429	-0,073	0,033
-325,372	-200,000	-0,031	0,188
-324,358	-200,000	0,016	0,051
-323,343	-200,000	-0,003	0,091
-322,329	-17,360	0,114	-0,052
-321,314	-78,943	0,169	-0,042
-320,299	-200,000	0,049	-0,173
-319,285	-71,636	-0,047	-0,013
-318,270	800,000	0,028	-0,074
-317,256	-44,069	-0,115	0,042
-316,241	-43,116	-0,044	-0,016
-315,226	379,920	-0,058	0,087
-314,212	102,187	0,061	-0,052
-313,197	77,258	-0,096	-0,074
-312,183	-3,346	-0,155	0,078
-311,168	-200,000	-0,009	0,058
-310,153	-178,797	-0,065	-0,001
-309,139	800,000	0,023	-0,065
-308,124	-200,000	-0,011	-0,115
-307,110	800,000	-0,066	0,148
-306,095	793,563	0,050	0,101
-305,080	73,261	0,031	0,023
-304,066	57,197	-0,025	0,017
-303,051	14,098	-0,094	-0,053
-302,037	63,220	-0,042	-0,031
-301,022	-7,676	0,074	-0,036
-300,008	-200,000	0,000	0,122
-298,993	567,999	-0,012	0,021
-297,978	-63,581	0,076	-0,023
-296,964	295,419	-0,044	0,058
-295,949	-200,000	0,030	-0,116
-294,935	-89,102	-0,151	-0,032
-293,920	406,556	-0,030	0,047
-292,905	672,630	0,028	0,052
-291,891	800,000	0,015	0,039
-290,876	800,000	0,022	0,062
-289,862	-12,695	-0,049	-0,023
-288,847	800,000	-0,034	0,093
-287,832	-152,222	-0,167	-0,009
-286,818	-200,000	0,001	0,018
-285,803	58,265	0,037	0,026
-284,789	-200,000	0,037	-0,132
-283,774	-79,219	0,191	0,046
-282,759	35,771	-0,112	0,071
-281,745	-200,000	-0,001	0,078
-280,730	-9,199	-0,077	-0,037
-279,716	-48,744	0,055	-0,019
-278,701	-200,000	0,020	0,105
-277,686	-200,000	-0,017	0,117
-276,672	-200,000	-0,013	-0,067
-275,657	-136,318	-0,142	0,012
-274,643	308,334	-0,025	0,034
-273,628	327,871	-0,036	-0,050
-272,613	-181,186	0,073	-0,001
-271,599	-23,874	-0,085	0,037
-270,584	92,029	0,064	-0,053
-269,570	-200,000	0,023	0,125
-268,555	362,769	-0,036	-0,052
-267,540	12,621	-0,178	-0,099
-266,526	800,000	-0,007	0,022
-265,511	17,778	0,103	-0,059
-264,497	14,062	0,102	-0,057
-263,482	337,604	0,042	-0,060
-262,467	37,497	-0,032	-0,021
-261,453	38,159	0,059	-0,038
-260,438	207,450	-0,032	0,036
-259,424	-148,605	0,138	0,008
-258,409	745,594	0,053	0,103
-257,395	49,778	0,078	-0,053
-256,380	290,955	0,083	0,110
-255,365	55,644	0,098	-0,069
-254,351	-200,000	0,000	-0,043
-253,336	55,107	0,025	0,017
-252,322	169,920	0,023	-0,023
-251,307	800,000	-0,010	-0,025
-250,292	-133,998	0,103	-0,009
-249,278	-56,122	0,143	0,046
-248,263	628,365	-0,037	0,068
-247,249	689,736	-0,024	0,045
-246,234	800,000	-0,021	0,048
-245,219	800,000	0,039	-0,097
-244,205	-154,110	-0,086	-0,004
-243,190	-66,874	0,043	0,012
-242,176	-200,000	0,012	0,046
-241,161	102,353	-0,054	0,046
-240,146	-127,146	0,092	-0,010
-239,132	800,000	-0,037	0,074
-238,117	-200,000	-0,051	-0,167
-237,103	84,631	-0,080	-0,063
-236,088	800,000	0,071	0,171
-235,073	496,919	0,050	-0,084
-234,059	120,239	-0,016	-0,015
-233,044	173,376	-0,095	0,099
-232,030	800,000	-0,002	0,007
-231,015	322,225	-0,110	-0,151
-230,000	-88,261	0,056	0,012
-228,986	134,419	-0,087	-0,082
-227,971	-112,950	0,276	0,039
-226,957	-200,000	0,005	0,139
-225,942	139,366	-0,070	0,066
-224,927	395,242	0,060	0,091
-223,913	18,354	0,076	-0,044
-222,898	77,859	-0,081	-0,062
-221,884	800,000	0,056	-0,155
-220,869	-13,668	0,163	0,076
-219,855	112,384	-0,002	-0,002
-218,840	20,700	0,073	0,042
-217,825	-116,862	0,062	0,008
-216,811	-200,000	-0,007	0,072
-215,796	-52,665	0,072	0,024
-214,782	-200,000	0,039	0,161
-213,767	800,000	0,046	0,103
-212,752	-200,000	-0,011	-0,050
-211,738	-70,609	0,130	0,035
-210,723	-200,000	0,015	0,092
-209,709	-200,000	0,022	0,085
-208,694	-200,000	-0,009	0,090
-207,679	-103,944	-0,103	-0,017
-206,665	706,163	0,044	-0,084
-205,650	-199,144	0,072	-0,000
-204,636	4,709	-0,005	0,003
-203,621	800,000	-0,026	0,054
-202,606	9,568	0,117	-0,064
-201,592	144,915	-0,134	-0,130
-200,577	-200,000	0,004	-0,046
-199,563	-200,000	-0,015	0,080
-198,548	-111,109	0,170	0,025
-197,533	77,102	-0,061	0,047
-196,519	-12,119	-0,034	0,016
-195,504	-200,000	0,009	-0,079
-194,490	800,000	-0,034	-0,070
-193,475	-124,214	0,104	-0,012
-192,460	-4,628	0,039	0,019
-191,446	-64,061	-0,065	0,019
-190,431	25,738	0,066	-0,040
-189,417	800,000	-0,033	-0,078
-188,402	61,890	-0,013	0,010
-187,387	-88,720	-0,047	-0,010
-186,373	800,000	0,005	-0,011
-185,358	571,025	0,046	-0,080
-184,344	169,996	0,021	0,021
-183,329	-200,000	0,013	0,171
-182,315	448,162	-0,028	0,045
-181,300	79,059	-0,090	0,069
-180,285	-92,277	-0,139	-0,028
-179,271	220,078	-0,061	-0,070
-178,256	82,441	0,108	-0,084
-177,242	-200,000	0,009	-0,075
-176,227	800,000	0,040	-0,104
-175,212	397,049	-0,015	-0,023
-174,198	142,765	-0,078	0,075
-173,183	50,955	-0,079	-0,054
-172,169	40,804	-0,037	0,024
-171,154	-200,000	0,029	-0,123
-170,139	-80,895	0,119	0,028
-169,125	244,402	0,084	0,101
-168,110	479,811	-0,048	-0,079
-167,096	98,205	0,127	0,105
-166,081	673,625	-0,043	0,082
-165,066	-153,142	-0,147	0,007
-164,052	-55,788	-0,079	-0,025
-163,037	92,379	-0,042	0,034
-162,023	588,672	0,091	0,162
-161,008	57,738	0,093	-0,065
-159,993	-91,333	0,071	0,015
-158,979	37,228	-0,103	-0,066
-157,964	-140,109	-0,074	0,006
-156,950	800,000	0,017	0,045
-155,935	-95,176	-0,153	0,029
-154,920	103,998	0,087	-0,074
-153,906	292,955	0,055	0,073
-152,891	-166,438	-0,042	-0,001
-151,877	-200,000	-0,017	0,072
-150,862	195,362	-0,043	0,047
-149,847	-110,993	0,192	-0,028
-148,833	157,724	-0,035	0,035
-147,818	191,107	0,085	-0,093
-146,804	251,069	-0,053	0,066
-145,789	59,104	-0,086	0,061
-144,775	800,000	-0,051	-0,107
-143,760	31,785	0,078	-0,048
-142,745	-101,747	-0,108	0,019
-141,731	112,354	-0,058	-0,051
-140,716	435,106	-0,030	0,048
-139,702	-95,112	-0,087	-0,017
-138,687	28,582	0,062	0,038
-137,672	182,721	0,066	0,071
-136,658	-76,036	-0,042	-0,011
-135,643	129,104	-0,047	-0,043
-134,629	-19,464	-0,087	0,039
-133,614	175,571	0,073	-0,076
-132,599	94,709	0,018	-0,014
-131,585	800,000	0,048	0,126
-130,570	-8,188	0,045	-0,022
-129,556	127,976	0,047	-0,043
-128,541	-150,735	-0,276	-0,015
-127,526	800,000	-0,034	-0,091
-126,512	104,295	0,102	0,086
-125,497	-45,500	-0,109	-0,039
-124,483	-106,073	0,095	-0,015
-123,468	732,693	-0,062	0,121
-122,453	-200,000	-0,010	-0,116
-121,439	800,000	-0,021	-0,044
-120,424	90,940	0,058	-0,047
-119,410	-200,000	-0,023	0,077
-118,395	-200,000	-0,009	0,043
-117,380	-200,000	-0,006	0,077
-116,366	-82,089	0,034	0,008
-115,351	502,547	-0,027	0,046
-114,337	43,274	-0,085	-0,056
-113,322	-200,000	-0,012	-0,054
-112,307	-43,456	0,150	-0,054
-111,293	664,992	-0,054	0,100
-110,278	800,000	-0,021	0,061
-109,264	-79,549	-0,096	0,023
-108,249	-83,133	0,020	-0,005
-107,234	-200,000	0,011	-0,039
-106,220	-200,000	-0,002	0,011
-105,205	92,319	0,088	0,071
-104,191	22,782	0,083	0,049
-103,176	107,890	-0,031	0,026
-102,162	-56,794	-0,122	-0,038
-101,147	-80,167	-0,055	-0,013
-100,132	230,332	-0,059	-0,070
-99,118	254,418	0,054	-0,066
-98,103	488,926	-0,023	-0,037
-97,089	-117,992	-0,071	-0,009
-96,074	42,902	-0,106	0,069
-95,059	-30,188	-0,033	-0,014
-94,045	-200,000	-0,012	0,098
-93,030	-200,000	-0,006	-0,081
-92,016	-200,000	0,013	-0,051
-91,001	408,484	0,077	0,118
-89,986	-117,692	-0,114	0,015
-88,972	100,165	0,094	0,078
-87,957	800,000	-0,007	0,019
-86,943	-200,000	0,052	-0,176
-85,928	-73,826	0,112	-0,029
-84,913	-200,000	0,018	-0,160
-83,899	-194,002	0,047	-0,000
-82,884	800,000	-0,021	0,057
-81,870	-146,208	-0,143	-0,009
-80,855	105,756	0,047	-0,040
-79,840	69,641	-0,106	0,078
-78,826	-34,925	-0,114	0,045
-77,811	70,734	0,156	0,116
-76,797	28,078	0,063	-0,038
-75,782	-71,250	0,079	-0,021
-74,767	-200,000	0,020	0,122
-73,753	-200,000	-0,004	0,177
-72,738	146,352	0,049	0,047
-71,724	140,902	-0,109	0,103
-70,709	329,608	-0,084	0,117
-69,694	-200,000	0,022	-0,169
-68,680	-122,715	-0,100	-0,012
-67,665	-200,000	-0,010	0,061
-66,651	235,932	0,024	-0,029
-65,636	47,870	-0,021	-0,014
-64,622	119,511	-0,078	0,069
-63,607	-86,437	0,023	-0,005
-62,592	170,020	0,026	-0,026
-61,578	104,964	0,103	0,088
-60,563	800,000	-0,025	0,071
-59,549	-200,000	-0,031	0,168
-58,534	-26,189	-1,886	-0,792
-57,519	-200,000	-0,303	-0,994
-56,505	-200,000	-1,300	-4,862
-55,490	0,954	0,755	0,388
-54,476	800,000	5,381	12,101
-53,461	-200,000	17,096	280,474
-52,446	800,000	720,317	2222,436
-51,432	544,902	1635,610	2816,050
-50,417	112,967	1630,246	1418,187
-49,403	76,462	1287,535	978,580
-48,388	33,248	1030,395	640,270
-47,373	20,357	992,071	573,866
-46,359	18,985	980,184	562,456
-45,344	16,555	976,324	552,244
-44,330	16,691	974,863	551,843
-43,315	16,272	973,162	549,488
-42,300	16,216	971,929	548,587
-41,286	16,195	971,067	548,008
-40,271	16,193	970,083	547,423
-39,257	16,273	968,959	547,031
-38,242	16,230	968,239	546,460
-37,227	16,232	967,501	546,029
-36,213	16,291	966,512	545,643
-35,198	16,238	965,627	544,949
-34,184	16,214	965,125	544,567
-33,169	16,213	963,966	543,887
-32,154	16,267	962,859	543,414
-31,140	16,242	962,118	542,894
-30,125	16,290	961,270	542,551
-29,111	16,312	960,422	542,122
-28,096	16,192	959,921	541,430
-27,082	16,223	959,366	541,196
-26,067	16,206	958,609	540,693
-25,052	16,248	957,769	540,330
-24,038	16,224	956,966	539,778
-23,023	16,224	956,349	539,409
-22,009	16,251	955,607	539,056
-20,994	16,221	955,145	538,677
-19,979	16,272	954,395	538,398
-18,965	16,252	953,900	538,034
-17,950	16,218	953,226	537,523
-16,936	16,247	952,538	537,207
-15,921	16,153	951,954	536,554
-14,906	16,123	951,152	535,987
-13,892	16,088	950,572	535,525
-12,877	16,089	949,960	535,163
-11,863	16,018	949,255	534,518
-10,848	16,132	948,742	534,571
-9,833	16,136	948,297	534,310
-8,819	16,188	947,586	534,057
-7,804	16,105	946,973	533,424
-6,790	16,101	946,362	533,047
-5,775	16,126	945,702	532,732
-4,760	16,106	945,158	532,342
-3,746	16,129	944,550	532,050
-2,731	16,004	943,932	531,286
-1,717	15,925	943,248	530,630
-0,702	15,994	942,429	530,368
0,313	15,745	941,989	530,130
1,327	19,064	939,615	539,226
2,342	28,204	797,439	481,929
3,356	25,028	460,837	273,609
4,371	-2,366	314,728	157,734
5,386	-6,527	296,389	144,317
6,400	-8,326	290,361	139,583
7,415	-8,823	287,807	137,854
8,429	-8,867	286,160	137,010
9,444	-8,887	285,195	136,516
10,459	-9,028	284,892	136,222
11,473	-8,886	284,033	135,936
12,488	-9,022	283,758	135,660
13,502	-8,995	283,124	135,371
14,517	-8,908	282,667	135,225
15,531	-8,960	282,066	134,875
16,546	-9,184	281,824	134,531
17,561	-9,145	281,485	134,395
18,575	-9,149	281,122	134,206
19,590	-8,994	280,691	134,138
20,604	-8,883	280,318	134,053
21,619	-9,032	279,989	133,742
22,634	-9,076	279,774	133,585
23,648	-9,061	279,406	133,412
24,663	-9,094	279,189	133,265
25,677	-9,095	279,012	133,167
26,692	-9,103	278,675	132,987
27,707	-9,130	278,344	132,792
28,721	-9,057	278,013	132,691
29,736	-9,293	277,949	132,424
30,750	-9,251	277,582	132,278
31,765	-9,253	277,331	132,144
32,780	-9,161	277,088	132,104
33,794	-9,165	277,005	132,049
34,809	-9,107	276,501	131,851
35,823	-9,100	276,280	131,741
36,838	-9,268	276,149	131,508
37,853	-9,258	275,794	131,337
38,867	-9,168	275,504	131,272
39,882	-9,295	275,331	131,058
40,896	-9,315	275,246	130,988
41,911	-9,322	274,982	130,844
42,926	-9,301	274,593	130,667
43,940	-9,219	274,384	130,632
44,955	-9,316	274,074	130,381
45,969	-9,168	273,824	130,390
46,984	-9,495	273,674	130,001
47,999	-9,650	273,364	129,698
49,013	-9,729	273,174	129,523
50,028	-9,967	272,815	129,120
51,042	-9,908	272,518	129,022
52,057	-9,898	272,150	128,846
53,071	-9,828	272,158	128,903
54,086	-9,653	271,958	128,959
55,101	-9,682	271,928	128,907
56,115	-9,314	271,545	129,054
57,130	-9,082	271,389	129,183
58,144	-8,912	271,293	129,283
59,159	-9,063	271,051	129,017
60,174	-8,939	270,766	128,984
61,188	-9,054	270,693	128,832
62,203	-9,074	270,609	128,762
63,217	-8,947	270,207	128,675
64,232	-9,124	270,086	128,444
65,247	-8,961	269,829	128,460
66,261	-8,951	269,508	128,305
67,276	-9,400	269,428	127,844
68,290	-9,219	268,931	127,762
69,305	-9,315	268,805	127,603
70,320	-9,244	268,536	127,529
71,334	-9,231	268,377	127,454
72,349	-9,267	268,416	127,428
73,363	-9,075	268,059	127,422
74,378	-8,985	267,887	127,412
75,393	-8,917	267,559	127,305
76,407	-9,091	267,507	127,111
77,422	-8,990	267,377	127,130
78,436	-8,931	266,864	126,928
79,451	-9,027	266,793	126,796
80,466	-9,184	266,536	126,521
81,480	-9,234	266,330	126,366
82,495	-9,127	265,972	126,282
83,509	-9,241	265,940	126,152
84,524	-9,385	265,672	125,884
85,539	-9,171	265,285	125,882
86,553	-9,348	265,196	125,669
87,568	-9,167	265,025	125,740
88,582	-9,232	264,701	125,516
89,597	-9,320	264,572	125,365
90,611	-9,322	264,478	125,307
91,626	-9,025	264,179	125,421
92,641	-9,072	264,043	125,303
93,655	-9,218	263,918	125,102
94,670	-9,207	263,694	124,994
95,684	-9,223	263,502	124,878
96,699	-9,168	263,449	124,891
97,714	-9,253	263,083	124,631
98,728	-9,217	262,833	124,533
99,743	-9,376	262,517	124,230
100,757	-9,314	262,347	124,194
101,772	-9,434	262,309	124,058
102,787	-9,277	262,002	124,042
103,801	-9,002	261,688	124,126
104,816	-9,175	261,807	124,018
105,830	-9,047	261,508	123,978
106,845	-9,017	261,333	123,911
107,860	-8,917	261,016	123,838
108,874	-9,042	260,864	123,644
109,889	-9,133	260,682	123,467
110,903	-9,063	260,418	123,393
111,918	-9,214	260,338	123,210
112,933	-9,136	260,059	123,136
113,947	-8,981	259,802	123,140
114,962	-9,087	259,771	123,021
115,976	-9,084	259,697	122,978
116,991	-9,032	259,492	122,915
118,006	-9,039	259,169	122,745
119,020	-8,935	259,114	122,799
120,035	-8,945	258,877	122,668
121,049	-9,037	258,770	122,525
122,064	-8,919	258,524	122,501
123,079	-9,070	258,367	122,284
124,093	-9,261	258,181	122,018
125,108	-9,330	257,977	121,850
126,122	-9,428	257,554	121,554
127,137	-9,414	257,267	121,420
128,151	-9,544	257,149	121,240
129,166	-9,226	257,084	121,475
130,181	-9,419	256,885	121,203
131,195	-9,491	256,712	121,048
132,210	-9,245	256,406	121,106
133,224	-9,155	256,229	121,090
134,239	-9,085	256,087	121,073
135,254	-9,179	256,018	120,947
136,268	-9,127	255,777	120,868
137,283	-9,388	255,454	120,479
138,297	-9,654	255,236	120,136
139,312	-9,585	255,069	120,106
140,327	-9,287	254,952	120,298
141,341	-9,044	254,800	120,424
142,356	-9,030	254,707	120,381
143,370	-8,947	254,578	120,382
144,385	-8,744	254,235	120,383
145,400	-8,680	254,034	120,332
146,414	-8,879	253,827	120,052
147,429	-8,925	253,692	119,939
148,443	-8,834	253,570	119,948
149,458	-8,850	253,366	119,827
150,473	-8,893	253,185	119,694
151,487	-9,053	252,932	119,427
152,502	-8,856	252,684	119,467
153,516	-8,895	252,714	119,438
154,531	-8,813	252,508	119,399
155,546	-8,751	252,270	119,329
156,560	-8,842	252,049	119,137
157,575	-8,941	251,815	118,931
158,589	-8,969	251,723	118,853
159,604	-8,752	251,605	118,971
160,619	-8,780	251,534	118,903
161,633	-8,672	251,064	118,762
162,648	-8,939	251,139	118,561
163,662	-8,734	250,980	118,649
164,677	-8,927	250,818	118,398
165,692	-8,986	250,615	118,242
166,706	-8,787	250,315	118,258
167,721	-8,719	250,186	118,244
168,735	-8,834	250,066	118,080
169,750	-8,736	250,081	118,159
170,764	-8,721	249,852	118,053
171,779	-8,697	249,511	117,902
172,794	-8,699	249,547	117,906
173,808	-8,813	249,290	117,678
174,823	-9,113	248,880	117,222
175,837	-9,302	248,638	116,939
176,852	-9,100	248,859	117,203
177,867	-8,990	248,599	117,162
178,881	-8,842	248,456	117,207
179,896	-8,775	248,319	117,189
180,910	-8,850	248,097	117,012
181,925	-8,878	247,840	116,856
182,940	-8,952	247,792	116,762
183,954	-8,712	247,578	116,850
184,969	-8,954	247,393	116,551
185,983	-8,837	247,295	116,592
186,998	-8,821	246,985	116,448
188,013	-8,639	246,866	116,533
189,027	-8,795	246,806	116,365
190,042	-8,619	246,510	116,361
191,056	-8,828	246,347	116,100
192,071	-8,707	246,118	116,083
193,086	-8,814	246,084	115,967
194,100	-8,702	245,863	115,945
195,115	-8,569	245,712	115,974
196,129	-8,624	245,431	115,785
197,144	-8,759	245,238	115,573
198,159	-8,877	245,185	115,440
199,173	-8,832	244,903	115,334
200,188	-8,712	244,733	115,343
201,202	-9,255	244,569	114,808
202,217	-9,346	244,250	114,573
203,232	-9,444	243,926	114,330
204,246	-9,071	244,047	114,683
205,261	-8,419	243,874	115,126
206,275	-9,004	243,690	114,551
207,290	-6,082	244,840	117,485
208,304	-0,616	246,311	122,695
209,319	1,493	247,086	124,813
210,334	1,919	246,965	125,092
211,348	2,098	246,890	125,191
212,363	2,704	246,957	125,713
213,377	2,753	246,919	125,723
214,392	2,834	246,685	125,660
215,407	2,841	246,419	125,519
216,421	2,868	246,333	125,485
217,436	3,040	246,156	125,526
218,450	3,167	245,971	125,524
219,465	2,757	245,764	125,071
220,480	2,525	245,529	124,751
221,494	2,682	245,691	124,950
222,509	2,918	245,416	124,993
223,523	2,914	245,096	124,816
224,538	2,328	244,700	124,124
225,553	2,533	244,696	124,279
226,567	2,613	244,660	124,314
227,582	2,502	244,439	124,100
228,596	2,945	244,142	124,299
229,611	2,352	244,162	123,816
230,626	2,197	244,025	123,609
231,640	2,616	243,693	123,770
232,655	2,587	243,771	123,776
233,669	2,386	243,611	123,520
234,684	2,386	243,124	123,262
235,699	2,883	243,255	123,720
236,713	2,919	243,160	123,690
237,728	2,592	242,918	123,291
238,742	2,468	242,798	123,119
239,757	2,507	242,523	123,000
240,772	2,411	242,564	122,932
241,786	2,452	242,239	122,790
242,801	2,221	242,015	122,479
243,815	2,034	241,799	122,208
244,830	2,171	242,026	122,422
245,844	2,751	241,548	122,636
246,859	2,584	241,406	122,419
247,874	2,471	241,201	122,213
248,888	2,344	241,122	122,060
249,903	2,552	241,192	122,252
250,917	2,604	240,923	122,147
251,932	2,827	240,870	122,287
252,947	2,807	240,487	122,066
253,961	2,476	240,260	121,675
254,976	2,574	240,246	121,736
255,990	2,792	240,131	121,840
257,005	2,301	239,984	121,363
258,020	2,393	239,735	121,300
259,034	2,415	239,509	121,192
260,049	2,479	239,491	121,224
261,063	2,544	239,225	121,130
262,078	2,296	239,113	120,865
263,093	2,570	238,985	121,007
264,107	2,895	238,769	121,145
265,122	2,425	238,524	120,638
266,136	2,598	238,606	120,805
267,151	2,811	238,410	120,864
268,166	2,469	238,184	120,468
269,180	2,336	238,087	120,303
270,195	2,909	237,963	120,683
271,209	3,023	237,733	120,645
272,224	2,460	237,555	120,100
273,239	2,238	237,397	119,834
274,253	2,468	237,141	119,875
275,268	2,659	237,112	120,001
276,282	2,452	236,966	119,753
277,297	2,365	236,742	119,561
278,312	2,277	236,752	119,485
279,326	2,480	236,497	119,505
280,341	2,571	236,340	119,487
281,355	2,611	236,159	119,416
282,370	2,901	236,103	119,605
283,384	2,690	235,927	119,340
284,399	2,432	235,724	119,025
285,414	2,170	235,571	118,732
286,428	2,403	235,456	118,846
287,443	2,647	235,419	119,006
288,457	2,765	235,261	119,008
289,472	2,815	235,013	118,911
290,487	2,628	234,837	118,665
291,501	2,448	234,602	118,396
292,516	2,276	234,298	118,099
293,530	2,284	234,141	118,016
294,545	2,447	234,324	118,224
295,560	2,642	234,120	118,261
296,574	2,260	233,823	117,804
297,589	2,398	233,843	117,911
298,603	2,861	233,790	118,233
299,618	2,865	233,480	118,069
300,633	2,486	233,524	117,787
301,647	2,738	233,412	117,915
302,662	2,851	233,345	117,958
303,676	3,049	233,119	117,986
304,691	2,799	232,971	117,708
305,706	3,254	232,790	117,956
306,720	2,566	232,729	117,385
307,735	2,832	232,432	117,430
308,749	2,824	232,143	117,267
309,764	2,337	232,063	116,842
310,779	2,253	231,898	116,684
311,793	2,300	231,552	116,535
312,808	2,390	231,444	116,540
313,822	2,433	231,261	116,470
314,837	2,311	231,229	116,350
315,852	2,261	231,052	116,212
316,866	2,263	231,127	116,241
317,881	2,714	230,900	116,461
318,895	2,979	230,845	116,625
319,910	3,159	230,739	116,699
320,925	2,699	230,407	116,170
321,939	2,458	230,272	115,908
322,954	2,686	230,273	116,072
323,968	2,568	230,048	115,858
324,983	2,632	229,963	115,855
325,997	2,935	229,623	115,902
327,012	2,626	229,575	115,633
328,027	2,170	229,227	115,102
329,041	2,702	229,275	115,519
330,056	3,352	229,455	116,093
331,070	3,566	229,157	116,093
332,085	3,087	229,033	115,658
333,100	2,826	228,672	115,268
334,114	2,655	228,505	115,044
335,129	3,052	228,401	115,281
336,143	3,237	228,287	115,353
337,158	3,164	228,296	115,292
338,173	3,122	227,965	115,083
339,187	3,001	227,812	114,905
340,202	2,938	227,760	114,821
341,216	3,109	227,505	114,810
342,231	2,914	227,507	114,655
343,246	2,842	227,288	114,480
344,260	2,863	227,152	114,417
345,275	3,185	227,124	114,634
346,289	3,277	226,766	114,512
347,304	3,253	226,699	114,450
348,319	2,927	226,609	114,151
349,333	2,744	226,414	113,906
350,348	2,795	226,221	113,837
351,362	2,794	226,273	113,851
352,377	2,994	225,860	113,783
353,392	2,704	225,948	113,601
354,406	2,684	225,722	113,462
355,421	196,470	1320,147	1400,183
356,435	157,523	1453,494	1400,198
