DTS Sentinel unit serial number:	SN410029Multiplexer serial number:	ORYXHardware model number:	OX2-SRSoftware version number:	ORYX F/W v4,00 Oryx Data Collector v3.7.2.0data status	okinstallation	B5 Nyhavnadifferential loss correction	single-endedforward channel	channel 2reverse channel	N/Adate	2023/12/11time	14:27:13forward acquisition time	300,00reverse acquisition time	0,00gamma	499,1914k internal	0,3167k external	0,3167temperature offset calibration	1,0000default loss term (dB/km)	0,3820temperature slope calibration	1,0000multiplexer offset coefficient	1,0000multiplexer slope coefficient	1,0000fibre end	0,00T internal ref (°C)	12,42T ext. ref 1 (°C)	-1,84T ext. ref 2 (°C)	-1,82length (m)	temperature (°C)	Stokes	anti-Stokes-744,400	104,545	-0,023	-0,020
-743,385	-115,609	-0,215	0,029
-742,371	109,384	0,054	0,047
-741,356	-100,935	-0,296	-0,053
-740,342	6,223	0,104	0,056
-739,327	18,615	-0,220	-0,129
-738,312	800,000	0,037	0,097
-737,298	-54,396	-0,299	-0,099
-736,283	218,638	0,097	0,114
-735,269	-65,627	-0,347	0,102
-734,254	-18,358	0,132	0,061
-733,239	-43,984	-0,604	-0,222
-732,225	203,407	0,149	0,169
-731,210	-131,023	-0,234	-0,023
-730,196	175,791	0,081	-0,086
-729,181	-200,000	0,003	-0,081
-728,167	-152,509	-0,176	-0,009
-727,152	-98,961	0,018	0,003
-726,137	-188,924	0,032	-0,000
-725,123	-200,000	0,008	-0,063
-724,108	81,896	-0,035	-0,028
-723,094	204,985	-0,052	-0,059
-722,079	574,575	-0,097	-0,174
-721,064	800,000	0,046	-0,135
-720,050	7,918	-0,143	0,079
-719,035	800,000	-0,098	-0,236
-718,021	-49,827	-0,037	-0,013
-717,006	500,104	-0,050	-0,085
-715,991	800,000	0,046	-0,127
-714,977	-134,266	-0,062	0,006
-713,962	-83,393	0,078	0,018
-712,948	10,022	0,104	-0,058
-711,933	2,954	0,048	-0,025
-710,918	51,377	-0,056	-0,039
-709,904	800,000	-0,050	-0,155
-708,889	192,027	-0,081	0,090
-707,875	-200,000	0,026	-0,095
-706,860	-200,000	0,015	-0,071
-705,845	-200,000	-0,002	0,023
-704,831	-124,515	-0,073	-0,008
-703,816	-96,634	-0,134	-0,026
-702,802	-177,328	-0,043	-0,001
-701,787	-200,000	0,006	-0,076
-700,772	452,429	0,088	-0,143
-699,758	99,875	0,096	0,081
-698,743	800,000	0,034	-0,109
-697,729	-200,000	0,006	0,095
-696,714	437,175	-0,059	-0,095
-695,699	219,945	-0,089	0,105
-694,685	157,089	-0,020	-0,020
-693,670	209,738	-0,099	-0,114
-692,656	-200,000	0,018	-0,185
-691,641	1,532	0,098	0,052
-690,627	-108,010	0,147	-0,023
-689,612	-6,917	-0,076	-0,038
-688,597	-74,664	-0,158	-0,041
-687,583	201,553	-0,082	-0,093
-686,568	256,516	-0,103	-0,130
-685,554	-43,108	0,132	-0,049
-684,539	-200,000	0,006	0,269
-683,524	12,399	-0,098	0,055
-682,510	800,000	-0,005	0,011
-681,495	800,000	-0,023	0,052
-680,481	140,052	-0,024	0,023
-679,466	-24,566	0,069	-0,030
-678,451	598,555	0,068	0,124
-677,437	-200,000	-0,019	-0,091
-676,422	226,700	-0,062	0,074
-675,408	800,000	0,002	-0,006
-674,393	38,925	0,055	0,036
-673,378	800,000	-0,024	-0,069
-672,364	800,000	0,016	-0,036
-671,349	232,587	-0,054	0,065
-670,335	800,000	-0,030	0,060
-669,320	-200,000	0,004	-0,109
-668,305	-200,000	-0,007	-0,117
-667,291	236,122	-0,055	-0,067
-666,276	-0,535	-0,090	-0,047
-665,262	517,136	-0,061	-0,106
-664,247	-200,000	-0,006	-0,058
-663,232	-200,000	-0,014	-0,093
-662,218	248,294	-0,018	-0,022
-661,203	-37,102	-0,030	0,012
-660,189	800,000	-0,054	0,130
-659,174	396,739	-0,030	0,046
-658,159	-5,577	-0,124	-0,062
-657,145	122,017	-0,112	-0,102
-656,130	111,005	-0,041	0,036
-655,116	-28,375	0,145	-0,061
-654,101	39,592	-0,092	0,060
-653,086	-67,463	0,077	-0,022
-652,072	-89,295	-0,200	0,043
-651,057	205,312	0,030	-0,035
-650,043	-200,000	0,030	-0,116
-649,028	800,000	0,042	-0,123
-648,014	-33,295	0,070	0,028
-646,999	297,826	-0,050	-0,068
-645,984	-77,102	-0,046	-0,012
-644,970	-135,624	-0,135	0,012
-643,955	-200,000	0,023	-0,088
-642,941	-62,995	-0,193	0,058
-641,926	-109,655	0,083	-0,013
-640,911	-200,000	-0,019	-0,115
-639,897	10,603	-0,066	0,036
-638,882	-58,680	-0,120	-0,038
-637,868	169,249	0,048	0,050
-636,853	800,000	0,016	0,044
-635,838	92,730	0,041	-0,034
-634,824	-175,953	-0,071	0,001
-633,809	47,525	0,067	0,046
-632,795	-3,632	-0,108	0,055
-631,780	150,492	0,056	-0,055
-630,765	-121,233	-0,158	-0,019
-629,751	-30,452	0,056	0,023
-628,736	-200,000	-0,003	-0,061
-627,722	-12,589	0,115	-0,055
-626,707	-81,492	-0,113	-0,027
-625,692	-101,156	0,086	-0,015
-624,678	150,251	0,100	0,100
-623,663	-200,000	-0,004	0,072
-622,649	-137,072	-0,116	0,010
-621,634	-200,000	0,004	0,051
-620,619	318,240	-0,053	-0,074
-619,605	721,369	-0,006	-0,012
-618,590	-200,000	-0,003	0,103
-617,576	-92,446	-0,142	-0,029
-616,561	12,449	0,043	0,024
-615,546	800,000	-0,017	-0,047
-614,532	-200,000	0,003	-0,087
-613,517	301,755	-0,046	-0,063
-612,503	5,064	0,099	0,053
-611,488	-16,588	-0,040	0,018
-610,474	-52,150	0,129	-0,044
-609,459	800,000	-0,029	-0,074
-608,444	398,120	-0,091	0,139
-607,430	800,000	0,048	-0,103
-606,415	-200,000	0,012	-0,071
-605,401	800,000	-0,027	-0,059
-604,386	800,000	-0,020	-0,053
-603,371	101,110	0,029	0,025
-602,357	-19,817	-0,114	-0,051
-601,342	293,661	-0,072	-0,096
-600,328	340,277	-0,110	-0,158
-599,313	800,000	-0,072	-0,149
-598,298	-200,000	-0,008	-0,036
-597,284	-200,000	-0,003	-0,033
-596,269	150,511	-0,054	0,054
-595,255	40,496	0,032	0,021
-594,240	162,047	-0,033	0,034
-593,225	-44,582	0,056	-0,020
-592,211	800,000	0,044	-0,112
-591,196	-98,364	-0,160	0,030
-590,182	-141,924	0,097	-0,007
-589,167	443,291	-0,036	-0,058
-588,152	-44,805	0,090	-0,032
-587,138	19,661	-0,092	-0,054
-586,123	800,000	0,039	-0,093
-585,109	-109,955	-0,198	0,030
-584,094	-200,000	0,005	0,050
-583,079	7,750	0,041	0,022
-582,065	-97,902	0,114	0,021
-581,050	-140,873	-0,018	-0,001
-580,036	60,841	-0,178	0,129
-579,021	-200,000	-0,012	-0,150
-578,006	-123,199	-0,096	-0,011
-576,992	-200,000	0,005	0,064
-575,977	-194,908	0,107	0,001
-574,963	129,260	0,030	0,028
-573,948	800,000	-0,025	0,068
-572,934	-200,000	0,037	-0,126
-571,919	85,579	-0,074	0,059
-570,904	-154,826	-0,084	-0,004
-569,890	364,025	-0,050	-0,073
-568,875	-69,332	0,056	0,016
-567,861	-200,000	0,003	0,013
-566,846	37,511	0,059	0,038
-565,831	800,000	0,059	0,156
-564,817	57,180	-0,030	-0,022
-563,802	-200,000	0,041	-0,182
-562,788	-200,000	0,014	-0,094
-561,773	176,940	0,151	-0,161
-560,758	800,000	0,035	0,112
-559,744	-182,271	0,110	-0,001
-558,729	-31,303	0,047	-0,019
-557,715	-130,474	-0,086	0,008
-556,700	-59,906	-0,129	-0,040
-555,685	-152,511	-0,068	0,004
-554,671	800,000	0,016	-0,047
-553,656	259,743	0,054	-0,068
-552,642	157,375	0,044	0,044
-551,627	107,765	0,068	0,059
-550,612	-36,222	-0,067	0,026
-549,598	800,000	-0,085	-0,172
-548,583	-200,000	-0,006	-0,032
-547,569	54,340	-0,133	0,093
-546,554	443,358	0,109	0,174
-545,539	800,000	-0,036	-0,105
-544,525	272,225	0,081	0,105
-543,510	10,461	0,055	-0,030
-542,496	280,897	-0,079	-0,104
-541,481	800,000	0,034	-0,108
-540,466	167,838	0,066	0,068
-539,452	-65,887	0,194	0,056
-538,437	-200,000	0,012	-0,118
-537,423	800,000	0,039	-0,090
-536,408	-170,126	0,055	0,001
-535,393	25,103	-0,122	-0,074
-534,379	1,191	-0,145	0,076
-533,364	800,000	0,022	0,068
-532,350	-2,204	-0,085	0,043
-531,335	-36,679	0,152	0,059
-530,321	-51,314	-0,097	-0,033
-529,306	-200,000	0,006	0,098
-528,291	382,159	0,058	-0,087
-527,277	-200,000	-0,046	-0,171
-526,262	800,000	0,018	-0,055
-525,248	800,000	-0,081	-0,175
-524,233	-123,553	0,011	0,001
-523,218	-151,516	0,151	0,008
-522,204	605,184	-0,079	-0,145
-521,189	800,000	-0,066	0,137
-520,175	800,000	0,047	-0,140
-519,160	-18,692	0,041	-0,019
-518,145	41,421	0,078	-0,051
-517,131	-200,000	0,020	-0,081
-516,116	-200,000	-0,005	0,100
-515,102	800,000	-0,039	0,096
-514,087	66,317	-0,062	0,046
-513,072	482,536	-0,036	-0,059
-512,058	-200,000	0,005	0,047
-511,043	-200,000	0,005	-0,023
-510,029	-11,879	0,164	0,078
-509,014	-200,000	0,019	0,090
-507,999	-200,000	0,025	0,091
-506,985	-188,011	0,113	-0,001
-505,970	-200,000	0,029	-0,121
-504,956	-200,000	0,020	-0,078
-503,941	427,347	0,043	-0,067
-502,926	-103,017	0,017	-0,003
-501,912	653,365	0,075	0,141
-500,897	-200,000	-0,036	0,142
-499,883	11,908	0,020	0,011
-498,868	173,221	0,062	-0,066
-497,853	-33,156	-0,113	0,045
-496,839	800,000	-0,036	-0,098
-495,824	329,029	-0,017	-0,023
-494,810	800,000	0,071	0,165
-493,795	-200,000	0,018	0,081
-492,781	-123,922	-0,073	-0,008
-491,766	394,159	0,102	-0,155
-490,751	153,368	-0,081	-0,081
-489,737	-102,804	0,064	-0,011
-488,722	-200,000	-0,015	-0,114
-487,708	800,000	0,024	0,075
-486,693	-200,000	0,007	0,029
-485,678	66,607	0,031	-0,023
-484,664	45,778	-0,042	0,028
-483,649	33,799	0,053	0,034
-482,635	-73,369	0,084	-0,022
-481,620	-82,663	-0,212	0,049
-480,605	81,732	-0,035	-0,028
-479,591	240,376	0,090	-0,109
-478,576	156,500	0,028	-0,028
-477,562	526,537	0,048	-0,083
-476,547	17,588	-0,098	0,057
-475,532	-91,671	-0,061	0,013
-474,518	-200,000	0,018	0,111
-473,503	-71,322	0,047	0,013
-472,489	800,000	-0,027	-0,075
-471,474	-92,999	-0,076	0,015
-470,459	-200,000	-0,045	0,165
-469,445	405,193	-0,090	-0,139
-468,430	-122,408	0,080	0,009
-467,416	800,000	-0,035	0,086
-466,401	800,000	0,029	0,062
-465,386	85,852	0,128	0,102
-464,372	800,000	0,036	0,105
-463,357	67,153	-0,059	0,044
-462,343	87,699	-0,049	0,039
-461,328	-73,777	0,083	-0,022
-460,313	800,000	0,036	0,078
-459,299	800,000	0,053	0,112
-458,284	800,000	0,032	-0,071
-457,270	224,069	0,084	-0,098
-456,255	123,072	-0,012	-0,011
-455,241	-200,000	-0,024	0,121
-454,226	-44,605	-0,098	-0,035
-453,211	-104,554	0,030	0,005
-452,197	-200,000	0,012	0,087
-451,182	-64,044	0,105	0,031
-450,168	-97,260	0,049	-0,009
-449,153	67,387	-0,067	0,049
-448,138	107,081	-0,112	0,097
-447,124	-200,000	0,021	0,094
-446,109	73,253	0,060	-0,045
-445,095	-185,047	-0,165	-0,002
-444,080	-200,000	-0,006	0,033
-443,065	-131,825	-0,121	0,011
-442,051	-145,986	-0,086	0,005
-441,036	797,017	-0,005	0,009
-440,022	23,739	0,061	0,036
-439,007	800,000	-0,037	-0,104
-437,992	-110,342	0,142	0,021
-436,978	28,679	-0,044	-0,027
-435,963	-200,000	-0,008	-0,048
-434,949	-146,283	-0,052	0,003
-433,934	-51,480	-0,086	0,029
-432,919	-130,315	-0,030	0,003
-431,905	-77,963	0,099	0,025
-430,890	800,000	0,050	0,108
-429,876	67,023	0,101	0,075
-428,861	800,000	0,059	0,138
-427,846	800,000	-0,028	-0,075
-426,832	143,607	-0,188	-0,182
-425,817	-200,000	-0,025	-0,154
-424,803	475,594	-0,031	-0,051
-423,788	261,737	-0,083	-0,104
-422,773	-76,558	-0,024	0,006
-421,759	110,556	0,083	0,072
-420,744	-200,000	0,015	0,094
-419,730	-11,890	-0,070	-0,033
-418,715	-200,000	-0,009	-0,126
-417,701	-6,670	-0,069	0,034
-416,686	800,000	0,061	0,124
-415,671	212,270	0,046	0,053
-414,657	800,000	-0,047	0,137
-413,642	-200,000	0,012	0,120
-412,628	145,056	-0,076	0,074
-411,613	-200,000	0,003	-0,237
-410,598	800,000	-0,024	0,074
-409,584	800,000	-0,021	-0,045
-408,569	-19,513	-0,041	0,019
-407,555	706,276	0,044	0,085
-406,540	129,653	-0,111	0,103
-405,525	13,579	-0,032	0,018
-404,511	112,818	0,053	-0,047
-403,496	47,963	0,049	0,033
-402,482	800,000	-0,045	0,121
-401,467	800,000	-0,068	0,176
-400,452	248,128	0,086	-0,106
-399,438	-200,000	0,005	-0,031
-398,423	800,000	0,033	-0,070
-397,409	-22,397	-0,007	-0,003
-396,394	307,474	0,041	0,055
-395,379	-200,000	-0,008	0,061
-394,365	-141,481	-0,108	0,008
-393,350	-200,000	0,004	0,143
-392,336	-1,089	0,016	0,008
-391,321	-200,000	0,013	0,042
-390,306	800,000	-0,033	0,079
-389,292	-200,000	0,006	-0,045
-388,277	231,711	0,030	-0,035
-387,263	679,012	0,085	0,162
-386,248	-200,000	-0,001	0,044
-385,233	-49,236	0,082	0,028
-384,219	330,424	-0,042	-0,059
-383,204	-88,824	-0,219	0,047
-382,190	-200,000	-0,042	-0,137
-381,175	318,611	0,031	0,043
-380,160	274,917	0,072	0,092
-379,146	420,728	0,080	0,125
-378,131	124,266	-0,054	0,049
-377,117	-200,000	0,020	0,065
-376,102	800,000	0,049	0,145
-375,088	-200,000	0,018	0,095
-374,073	353,624	0,071	-0,102
-373,058	-131,878	0,106	-0,010
-372,044	0,083	0,100	0,051
-371,029	86,116	0,083	0,066
-370,015	739,920	0,048	0,095
-369,000	800,000	0,021	-0,059
-367,985	185,368	0,078	-0,084
-366,971	221,776	0,020	0,023
-365,956	12,982	-0,062	0,035
-364,942	-200,000	-0,025	0,101
-363,927	-200,000	0,008	-0,037
-362,912	-200,000	0,026	0,143
-361,898	-174,829	-0,098	-0,002
-360,883	-200,000	0,003	-0,129
-359,869	-60,404	0,039	-0,012
-358,854	2,064	0,050	0,026
-357,839	-17,177	-0,062	0,028
-356,825	800,000	-0,013	0,033
-355,810	153,853	0,075	-0,074
-354,796	115,544	0,109	-0,096
-353,781	-199,913	0,155	-0,001
-352,766	-200,000	0,003	-0,032
-351,752	-200,000	-0,001	-0,083
-350,737	800,000	0,028	0,057
-349,723	-157,575	0,061	0,003
-348,708	800,000	0,008	-0,021
-347,693	-197,024	-0,047	0,000
-346,679	-87,356	0,051	0,011
-345,664	-93,430	0,116	0,023
-344,650	-200,000	0,025	0,198
-343,635	124,697	0,104	0,095
-342,620	351,485	-0,088	0,126
-341,606	-43,566	0,121	-0,044
-340,591	92,452	0,079	0,064
-339,577	-200,000	-0,009	-0,211
-338,562	-200,000	-0,004	-0,253
-337,548	800,000	-0,080	-0,174
-336,533	-30,447	0,185	-0,075
-335,518	204,473	0,039	0,044
-334,504	533,821	-0,031	0,053
-333,489	-18,578	0,017	-0,008
-332,475	127,226	0,073	-0,067
-331,460	617,045	-0,037	-0,068
-330,445	160,925	-0,035	0,036
-329,431	800,000	0,036	0,078
-328,416	800,000	0,041	-0,089
-327,402	-72,333	-0,080	-0,021
-326,387	-200,000	0,003	0,028
-325,372	-178,767	-0,161	0,003
-324,358	634,461	0,026	0,048
-323,343	-93,216	-0,114	-0,023
-322,329	-28,976	0,155	-0,064
-321,314	-63,265	0,054	-0,016
-320,299	-79,263	0,109	0,027
-319,285	86,041	-0,042	0,033
-318,270	-72,912	-0,024	-0,006
-317,256	-167,224	-0,106	-0,003
-316,241	42,267	-0,100	0,065
-315,226	504,923	0,050	0,084
-314,212	170,714	0,107	0,111
-313,197	44,035	0,066	0,044
-312,183	-51,351	0,031	-0,011
-311,168	-200,000	-0,013	0,062
-310,153	386,566	0,039	0,059
-309,139	-169,985	0,098	0,002
-308,124	-176,977	-0,039	0,001
-307,110	400,292	-0,056	0,085
-306,095	-19,957	-0,076	0,034
-305,080	253,975	-0,044	-0,054
-304,066	-200,000	0,029	-0,106
-303,051	-200,000	-0,010	-0,048
-302,037	-200,000	-0,006	0,088
-301,022	290,989	-0,089	-0,117
-300,008	54,778	-0,063	-0,044
-298,993	800,000	-0,033	-0,083
-297,978	71,641	0,086	-0,065
-296,964	-200,000	-0,010	-0,036
-295,949	-59,829	-0,112	-0,034
-294,935	-200,000	-0,020	0,099
-293,920	400,056	-0,033	-0,050
-292,905	44,620	0,195	0,129
-291,891	800,000	0,040	0,095
-290,876	704,264	0,044	0,085
-289,862	106,544	0,085	-0,073
-288,847	-200,000	-0,029	-0,121
-287,832	181,235	-0,029	-0,031
-286,818	-78,016	0,050	-0,012
-285,803	800,000	-0,009	-0,022
-284,789	672,120	-0,004	-0,008
-283,774	800,000	-0,032	0,074
-282,759	251,316	-0,039	-0,048
-281,745	-11,609	-0,039	-0,018
-280,730	103,750	-0,014	-0,012
-279,716	-59,772	-0,112	-0,034
-278,701	273,723	-0,042	0,054
-277,686	346,050	-0,031	0,043
-276,672	-27,551	-0,139	-0,058
-275,657	66,475	0,146	-0,107
-274,643	-200,000	0,001	-0,048
-273,628	800,000	0,060	-0,136
-272,613	-200,000	0,032	0,130
-271,599	-33,109	0,045	-0,018
-270,584	346,999	0,050	0,071
-269,570	15,648	-0,013	-0,008
-268,555	-200,000	-0,002	-0,235
-267,540	336,237	-0,033	-0,046
-266,526	800,000	-0,044	-0,107
-265,511	-200,000	-0,009	-0,129
-264,497	31,780	0,099	-0,062
-263,482	246,564	0,056	0,069
-262,467	-11,365	-0,059	0,028
-261,453	800,000	-0,034	-0,099
-260,438	800,000	0,032	-0,100
-259,424	-7,878	-0,116	0,056
-258,409	800,000	-0,064	-0,132
-257,395	-10,134	0,155	-0,074
-256,380	800,000	0,037	0,081
-255,365	800,000	0,052	0,125
-254,351	197,525	-0,026	0,029
-253,336	-121,854	0,056	0,007
-252,322	-200,000	0,001	-0,093
-251,307	-200,000	0,023	-0,081
-250,292	575,583	0,053	-0,094
-249,278	-100,338	0,131	0,023
-248,263	-112,510	-0,011	0,002
-247,249	99,446	-0,072	-0,060
-246,234	-200,000	-0,054	0,185
-245,219	-74,314	0,085	-0,022
-244,205	800,000	-0,073	-0,148
-243,190	549,754	0,049	-0,084
-242,176	-99,829	0,045	0,008
-241,161	2,738	-0,026	0,013
-240,146	643,945	0,036	-0,067
-239,132	800,000	-0,049	-0,111
-238,117	-200,000	-0,001	-0,073
-237,103	116,408	0,054	0,047
-236,088	742,651	-0,064	-0,124
-235,073	118,858	0,028	0,025
-234,059	-200,000	-0,036	0,180
-233,044	-39,627	-0,147	-0,055
-232,030	38,562	-0,039	0,025
-231,015	-200,000	0,021	-0,152
-230,000	225,417	0,072	-0,085
-228,986	67,650	0,062	0,046
-227,971	-78,907	0,086	-0,021
-226,957	151,462	-0,031	-0,030
-225,942	59,200	0,064	-0,045
-224,927	557,388	-0,004	-0,007
-223,913	-58,704	0,089	-0,028
-222,898	-57,514	0,107	0,034
-221,884	-200,000	-0,010	0,056
-220,869	292,348	0,050	0,065
-219,855	-103,606	0,054	0,009
-218,840	450,204	0,070	0,111
-217,825	-200,000	-0,005	-0,109
-216,811	800,000	0,034	0,092
-215,796	-200,000	0,002	-0,059
-214,782	630,080	-0,054	0,099
-213,767	-99,098	0,054	0,010
-212,752	-101,533	0,020	0,003
-211,738	11,247	-0,056	0,031
-210,723	-15,060	-0,153	0,070
-209,709	-125,697	0,079	0,009
-208,694	130,258	-0,128	-0,118
-207,679	-200,000	0,022	0,085
-206,665	-191,151	-0,128	-0,001
-205,650	99,466	-0,023	-0,019
-204,636	202,597	0,075	0,083
-203,621	111,855	0,024	0,021
-202,606	-200,000	0,002	0,010
-201,592	-57,626	0,072	-0,023
-200,577	-66,403	-0,053	0,015
-199,563	-200,000	0,014	0,061
-198,548	-101,807	-0,079	-0,014
-197,533	127,144	-0,040	-0,036
-196,519	-200,000	-0,002	-0,135
-195,504	-200,000	0,004	0,066
-194,490	-200,000	-0,028	-0,241
-193,475	-41,899	-0,058	0,021
-192,460	104,141	0,096	-0,081
-191,446	-140,565	0,172	0,013
-190,431	-43,560	0,071	0,026
-189,417	800,000	-0,077	0,234
-188,402	-200,000	0,016	-0,067
-187,387	38,223	-0,064	0,041
-186,373	-29,642	0,033	-0,013
-185,358	-200,000	-0,016	-0,052
-184,344	-86,620	-0,086	-0,019
-183,329	-200,000	-0,018	0,083
-182,315	20,869	-0,109	0,063
-181,300	-200,000	-0,014	0,086
-180,285	-52,627	-0,083	0,027
-179,271	331,058	-0,056	0,078
-178,256	800,000	0,033	0,079
-177,242	209,672	-0,050	0,056
-176,227	589,015	0,016	0,028
-175,212	800,000	-0,031	-0,074
-174,198	-47,539	-0,001	0,000
-173,183	173,960	-0,043	-0,045
-172,169	-95,276	-0,083	0,016
-171,154	-174,287	0,127	-0,003
-170,139	-200,000	0,018	-0,063
-169,125	-200,000	0,013	0,218
-168,110	281,341	-0,067	0,086
-167,096	-58,318	-0,080	-0,025
-166,081	-111,672	-0,049	-0,007
-165,066	595,819	0,085	0,151
-164,052	521,617	-0,099	0,167
-163,037	31,371	-0,019	-0,012
-162,023	-200,000	0,012	-0,094
-161,008	-92,888	-0,045	-0,009
-159,993	227,157	-0,061	0,071
-158,979	764,459	-0,023	0,046
-157,964	371,976	-0,093	-0,136
-156,950	-169,982	-0,056	-0,001
-155,935	-114,035	-0,216	-0,030
-154,920	596,744	0,038	0,067
-153,906	49,006	0,172	0,116
-152,891	-200,000	0,014	0,067
-151,877	-183,602	-0,013	0,000
-150,862	249,510	-0,067	0,081
-149,847	-45,325	-0,088	0,031
-148,833	529,174	0,041	-0,069
-147,818	-124,985	0,110	-0,012
-146,804	-149,243	0,096	0,005
-145,789	53,962	0,132	0,091
-144,775	238,116	-0,054	-0,065
-143,760	-79,644	0,053	-0,013
-142,745	800,000	0,009	0,023
-141,731	-200,000	-0,009	0,110
-140,716	654,967	-0,021	-0,040
-139,702	36,825	-0,048	0,030
-138,687	-20,957	-0,223	0,098
-137,672	157,582	0,096	-0,095
-136,658	800,000	-0,050	-0,118
-135,643	123,208	-0,072	-0,065
-134,629	10,122	0,062	0,033
-133,614	-162,659	0,195	0,007
-132,599	-119,871	-0,037	-0,005
-131,585	96,589	0,116	0,095
-130,570	800,000	0,016	0,045
-129,556	706,000	0,058	-0,110
-128,541	-29,318	-0,138	-0,056
-127,526	-85,575	0,064	0,014
-126,512	-200,000	-0,003	-0,093
-125,497	-169,797	-0,074	0,002
-124,483	9,731	-0,102	0,056
-123,468	154,516	-0,033	0,033
-122,453	97,557	-0,023	-0,019
-121,439	-168,131	-0,014	-0,000
-120,424	-200,000	-0,014	0,067
-119,410	800,000	0,023	0,072
-118,395	-173,129	0,145	0,003
-117,380	5,531	0,064	0,034
-116,366	-57,045	-0,023	0,007
-115,351	800,000	-0,033	-0,068
-114,337	122,315	-0,118	-0,106
-113,322	-139,712	0,093	-0,007
-112,307	-87,266	-0,073	-0,016
-111,293	-200,000	-0,015	0,055
-110,278	800,000	-0,042	0,092
-109,264	201,640	-0,029	-0,032
-108,249	-200,000	0,021	-0,080
-107,234	800,000	0,015	0,039
-106,220	388,183	-0,035	-0,053
-105,205	-33,900	0,154	0,061
-104,191	-165,967	0,079	-0,002
-103,176	-200,000	-0,012	-0,072
-102,162	-200,000	-0,002	0,086
-101,147	800,000	-0,057	-0,170
-100,132	-109,397	-0,163	0,024
-99,118	-200,000	0,023	-0,133
-98,103	800,000	0,039	-0,095
-97,089	-200,000	0,004	0,103
-96,074	800,000	-0,046	-0,105
-95,059	-200,000	-0,035	-0,131
-94,045	418,624	-0,056	-0,086
-93,030	800,000	0,038	-0,103
-92,016	800,000	-0,079	-0,173
-91,001	-200,000	-0,031	0,100
-89,986	722,529	0,020	0,038
-88,972	800,000	0,026	0,057
-87,957	305,776	-0,030	0,041
-86,943	-55,457	0,090	0,029
-85,928	-200,000	-0,002	0,048
-84,913	183,731	0,066	-0,070
-83,899	-165,774	-0,082	-0,002
-82,884	293,466	0,105	-0,138
-81,870	327,877	-0,117	0,161
-80,855	-188,760	-0,121	-0,001
-79,840	163,015	0,066	0,066
-78,826	752,852	0,046	-0,090
-77,811	315,114	0,061	-0,082
-76,797	-200,000	0,000	-0,085
-75,782	296,422	0,086	-0,114
-74,767	334,224	0,054	-0,075
-73,753	-200,000	-0,009	-0,072
-72,738	219,867	0,021	-0,024
-71,724	-200,000	-0,037	-0,136
-70,709	800,000	-0,024	-0,073
-69,694	24,833	-0,023	-0,014
-68,680	-91,632	0,100	-0,020
-67,665	-64,327	0,112	-0,033
-66,651	57,668	0,060	0,042
-65,636	758,611	-0,024	-0,047
-64,622	620,135	0,025	-0,045
-63,607	-200,000	-0,005	0,023
-62,592	-178,445	-0,137	-0,002
-61,578	-119,071	0,032	0,004
-60,563	-25,730	0,105	-0,044
-59,549	-94,496	-0,053	0,010
-58,534	26,001	-2,232	-1,329
-57,519	-200,000	0,039	-0,789
-56,505	-200,000	-1,549	-5,309
-55,490	132,018	0,887	0,817
-54,476	800,000	5,509	12,269
-53,461	-200,000	19,342	321,342
-52,446	800,000	750,629	2310,307
-51,432	538,253	1662,262	2838,405
-50,417	114,716	1639,645	1430,041
-49,403	81,540	1287,484	995,502
-48,388	30,977	1027,128	628,473
-47,373	19,492	990,107	568,003
-46,359	16,254	977,878	550,360
-45,344	12,914	974,508	537,506
-44,330	13,346	972,606	537,852
-43,315	12,548	970,828	534,239
-42,300	12,451	969,661	533,261
-41,286	12,447	968,774	532,737
-40,271	12,401	967,893	532,084
-39,257	12,446	966,978	531,703
-38,242	12,469	965,969	531,203
-37,227	12,485	965,259	530,845
-36,213	12,390	964,366	530,024
-35,198	12,337	963,561	529,387
-34,184	12,412	962,804	529,194
-33,169	12,454	961,581	528,636
-32,154	12,479	960,944	528,346
-31,140	12,439	959,974	527,664
-30,125	12,463	959,137	527,260
-29,111	12,449	958,321	526,744
-28,096	12,483	957,869	526,586
-27,082	12,496	957,135	526,202
-26,067	12,487	956,273	525,678
-25,052	12,486	955,462	525,211
-24,038	12,425	954,873	524,667
-23,023	12,366	954,349	524,171
-22,009	12,483	953,593	524,110
-20,994	12,468	953,147	523,796
-19,979	12,540	952,400	523,596
-18,965	12,486	951,699	523,017
-17,950	12,475	951,188	522,680
-16,936	12,428	950,482	522,120
-15,921	12,398	950,025	521,753
-14,906	12,340	949,081	521,029
-13,892	12,365	948,572	520,808
-12,877	12,354	947,859	520,360
-11,863	12,355	947,062	519,905
-10,848	12,322	946,727	519,598
-9,833	12,399	946,263	519,565
-8,819	12,487	945,291	519,290
-7,804	12,345	944,823	518,562
-6,790	12,365	944,189	518,257
-5,775	12,423	943,742	518,177
-4,760	12,385	943,141	517,704
-3,746	12,351	942,539	517,247
-2,731	12,233	941,823	516,458
-1,717	12,228	941,167	516,062
-0,702	12,219	940,487	515,641
0,313	11,992	939,847	515,350
1,327	15,500	937,627	525,144
2,342	24,871	792,386	468,556
3,356	21,166	459,308	265,910
4,371	-5,731	318,319	155,369
5,386	-9,458	300,473	142,828
6,400	-11,139	294,691	138,375
7,415	-10,753	292,059	137,512
8,429	-10,862	290,685	136,745
9,444	-10,895	289,602	136,190
10,459	-11,103	289,041	135,709
11,473	-11,186	288,393	135,311
12,488	-11,423	287,817	134,796
13,502	-11,627	287,075	134,236
14,517	-11,368	286,619	134,265
15,531	-11,168	286,289	134,294
16,546	-11,309	286,235	134,118
17,561	-11,266	285,680	133,889
18,575	-11,021	285,306	133,940
19,590	-11,232	284,998	133,578
20,604	-11,177	284,734	133,496
21,619	-10,984	284,164	133,403
22,634	-11,134	284,159	133,244
23,648	-11,078	283,629	133,038
24,663	-11,108	283,457	132,916
25,677	-11,158	283,118	132,698
26,692	-11,309	282,912	132,443
27,707	-11,057	282,532	132,496
28,721	-10,983	282,302	132,448
29,736	-11,168	281,936	132,086
30,750	-11,099	281,783	132,069
31,765	-11,249	281,460	131,762
32,780	-11,180	281,282	131,734
33,794	-11,287	281,159	131,562
34,809	-11,282	280,731	131,355
35,823	-11,166	280,448	131,321
36,838	-11,273	280,142	131,064
37,853	-11,328	279,951	130,911
38,867	-11,342	279,767	130,799
39,882	-11,431	279,474	130,566
40,896	-11,222	279,240	130,643
41,911	-11,441	279,089	130,353
42,926	-11,293	278,786	130,341
43,940	-11,246	278,458	130,221
44,955	-11,295	278,112	130,001
45,969	-11,519	277,955	129,704
46,984	-11,486	277,802	129,652
47,999	-11,614	277,555	129,405
49,013	-11,459	277,344	129,440
50,028	-11,601	277,058	129,162
51,042	-11,519	276,719	129,070
52,057	-11,449	276,391	128,971
53,071	-11,723	276,406	128,709
54,086	-11,452	276,144	128,830
55,101	-11,541	275,879	128,611
56,115	-11,481	275,733	128,588
57,130	-11,375	275,325	128,485
58,144	-11,403	275,226	128,401
59,159	-11,373	274,946	128,287
60,174	-11,205	274,684	128,311
61,188	-11,272	274,563	128,180
62,203	-11,191	274,250	128,098
63,217	-11,194	274,121	128,024
64,232	-11,271	273,817	127,798
65,247	-11,402	273,688	127,605
66,261	-11,392	273,475	127,503
67,276	-11,399	273,101	127,311
68,290	-11,538	272,911	127,083
69,305	-11,598	272,618	126,879
70,320	-11,476	272,601	126,974
71,334	-11,400	272,281	126,883
72,349	-11,275	272,014	126,863
73,363	-11,382	271,958	126,726
74,378	-11,382	271,571	126,535
75,393	-11,238	271,251	126,507
76,407	-11,324	271,193	126,389
77,422	-11,371	270,886	126,192
78,436	-11,401	270,672	126,053
79,451	-11,622	270,557	125,786
80,466	-11,320	270,189	125,880
81,480	-11,250	269,900	125,798
82,495	-11,301	269,584	125,594
83,509	-11,230	269,630	125,668
84,524	-11,371	269,348	125,397
85,539	-11,399	269,077	125,234
86,553	-11,470	268,864	125,059
87,568	-11,438	268,726	125,013
88,582	-11,568	268,487	124,772
89,597	-11,443	268,224	124,753
90,611	-11,454	268,081	124,665
91,626	-11,423	268,047	124,666
92,641	-11,334	267,834	124,637
93,655	-11,319	267,514	124,491
94,670	-11,411	267,322	124,307
95,684	-11,365	267,143	124,254
96,699	-11,483	266,871	124,010
97,714	-11,630	266,904	123,881
98,728	-11,404	266,595	123,930
99,743	-11,445	266,242	123,718
100,757	-11,420	266,030	123,631
101,772	-11,311	265,683	123,557
102,787	-11,575	265,607	123,273
103,801	-11,496	265,503	123,285
104,816	-11,510	265,108	123,079
105,830	-11,523	265,110	123,056
106,845	-11,609	264,952	122,895
107,860	-11,463	264,711	122,903
108,874	-11,567	264,450	122,678
109,889	-11,576	264,209	122,547
110,903	-11,645	264,133	122,440
111,918	-11,810	263,818	122,135
112,933	-11,577	263,672	122,264
113,947	-11,601	263,379	122,096
114,962	-11,424	263,166	122,144
115,976	-11,163	262,972	122,276
116,991	-11,407	262,966	122,045
118,006	-11,481	262,765	121,875
119,020	-11,527	262,769	121,825
120,035	-11,370	262,529	121,842
121,049	-11,381	262,198	121,669
122,064	-11,242	261,829	121,608
123,079	-11,347	261,684	121,438
124,093	-11,576	261,559	121,166
125,108	-11,503	261,264	121,084
126,122	-11,441	261,051	121,029
127,137	-11,360	260,829	120,987
128,151	-11,314	260,687	120,951
129,166	-11,482	260,564	120,735
130,181	-11,515	260,363	120,601
131,195	-11,557	260,052	120,409
132,210	-11,561	259,851	120,303
133,224	-11,491	259,815	120,337
134,239	-11,512	259,453	120,140
135,254	-11,528	259,317	120,052
136,268	-11,584	258,993	119,843
137,283	-11,524	258,850	119,818
138,297	-11,681	258,690	119,597
139,312	-11,394	258,344	119,676
140,327	-11,482	258,401	119,615
141,341	-11,313	258,335	119,721
142,356	-11,278	257,963	119,568
143,370	-11,308	257,822	119,466
144,385	-11,224	257,679	119,462
145,400	-11,219	257,608	119,423
146,414	-11,052	257,344	119,435
147,429	-11,388	257,156	119,045
148,443	-11,457	257,014	118,910
149,458	-11,336	256,718	118,866
150,473	-11,353	256,566	118,771
151,487	-11,522	256,347	118,513
152,502	-11,369	256,248	118,589
153,516	-11,144	255,934	118,627
154,531	-11,376	255,891	118,396
155,546	-11,310	255,703	118,356
156,560	-11,213	255,326	118,254
157,575	-11,452	254,983	117,879
158,589	-11,325	254,949	117,962
159,604	-11,029	254,879	118,173
160,619	-10,987	254,890	118,204
161,633	-10,785	254,556	118,211
162,648	-11,176	254,587	117,880
163,662	-11,265	254,152	117,592
164,677	-11,415	253,883	117,329
165,692	-11,409	253,853	117,310
166,706	-11,121	253,761	117,503
167,721	-10,891	253,588	117,609
168,735	-10,812	253,385	117,571
169,750	-11,159	253,149	117,156
170,764	-11,397	252,976	116,863
171,779	-11,252	252,796	116,892
172,794	-11,219	252,840	116,930
173,808	-11,235	252,359	116,684
174,823	-11,642	252,226	116,267
175,837	-11,545	251,834	116,158
176,852	-11,580	251,903	116,150
177,867	-11,499	251,758	116,141
178,881	-11,413	251,665	116,161
179,896	-11,129	251,375	116,257
180,910	-11,340	251,208	115,991
181,925	-11,192	250,912	115,969
182,940	-11,104	250,856	116,007
183,954	-11,257	250,768	115,826
184,969	-11,197	250,633	115,804
185,983	-11,071	250,560	115,867
186,998	-10,903	250,429	115,937
188,013	-10,708	249,985	115,885
189,027	-11,285	249,919	115,359
190,042	-11,317	249,671	115,208
191,056	-11,327	249,351	115,041
192,071	-11,619	249,128	114,684
193,086	-11,592	249,082	114,675
194,100	-11,642	249,012	114,591
195,115	-11,283	248,696	114,735
196,129	-11,300	248,631	114,681
197,144	-11,216	248,307	114,591
198,159	-11,497	248,112	114,256
199,173	-11,527	247,924	114,135
200,188	-11,776	247,789	113,855
201,202	-11,750	247,420	113,697
202,217	-11,895	247,452	113,582
203,232	-11,968	247,089	113,344
204,246	-12,043	246,811	113,144
205,261	-12,070	246,535	112,985
206,275	-12,489	246,303	112,523
207,290	-11,604	246,551	113,358
208,304	-7,249	247,936	117,604
209,319	-3,980	249,019	120,831
210,334	-2,730	249,194	121,946
211,348	-1,938	249,346	122,669
212,363	-1,249	249,503	123,309
213,377	-0,775	249,389	123,637
214,392	-0,483	249,384	123,866
215,407	-0,158	249,262	124,064
216,421	-0,354	249,270	123,894
217,436	-0,384	248,965	123,707
218,450	-0,338	248,630	123,568
219,465	-0,426	248,566	123,452
220,480	-0,713	248,470	123,155
221,494	-0,500	248,346	123,259
222,509	-0,481	248,142	123,163
223,523	-0,501	247,988	123,059
224,538	-0,577	247,654	122,819
225,553	-0,651	247,512	122,676
226,567	-0,859	247,397	122,437
227,582	-0,657	247,128	122,459
228,596	-0,497	246,913	122,473
229,611	-0,677	246,920	122,318
230,626	-0,885	246,863	122,108
231,640	-0,629	246,419	122,088
232,655	-0,751	246,326	121,931
233,669	-0,720	246,134	121,851
234,684	-0,737	246,058	121,788
235,699	-0,647	245,832	121,738
236,713	-0,870	245,643	121,452
237,728	-0,600	245,526	121,604
238,742	-0,617	245,219	121,427
239,757	-0,616	245,075	121,346
240,772	-0,753	245,019	121,196
241,786	-0,803	244,755	121,013
242,801	-0,601	244,652	121,116
243,815	-0,967	244,662	120,812
244,830	-0,826	244,327	120,751
245,844	-0,671	244,115	120,761
246,859	-0,707	244,055	120,691
247,874	-0,672	243,908	120,636
248,888	-0,784	243,599	120,382
249,903	-0,777	243,475	120,316
250,917	-0,721	243,399	120,313
251,932	-0,730	243,324	120,258
252,947	-0,624	243,056	120,200
253,961	-0,810	242,867	119,946
254,976	-0,720	242,672	119,911
255,990	-0,691	242,571	119,874
257,005	-0,799	242,464	119,724
258,020	-0,890	242,383	119,600
259,034	-0,726	242,116	119,589
260,049	-0,668	241,879	119,508
261,063	-0,728	241,849	119,434
262,078	-0,620	241,651	119,412
263,093	-0,715	241,559	119,280
264,107	-0,890	241,375	119,038
265,122	-0,644	241,101	119,090
266,136	-0,880	241,213	118,946
267,151	-0,651	240,902	118,964
268,166	-0,589	240,708	118,908
269,180	-0,567	240,457	118,791
270,195	-0,724	240,469	118,660
271,209	-0,630	240,222	118,603
272,224	-0,594	240,128	118,575
273,239	-0,684	239,938	118,399
274,253	-0,577	239,705	118,358
275,268	-0,625	239,701	118,307
276,282	-0,761	239,626	118,152
277,297	-0,609	239,369	118,135
278,312	-0,636	239,071	117,956
279,326	-0,547	239,136	118,048
280,341	-0,616	238,862	117,848
281,355	-0,456	238,773	117,920
282,370	-0,721	238,698	117,663
283,384	-0,603	238,449	117,623
284,399	-0,400	238,217	117,658
285,414	-0,500	238,063	117,493
286,428	-0,530	238,035	117,445
287,443	-0,519	237,905	117,379
288,457	-0,492	237,579	117,229
289,472	-0,425	237,543	117,253
290,487	-0,775	237,390	116,893
291,501	-0,672	237,265	116,901
292,516	-0,463	237,032	116,940
293,530	-0,443	236,825	116,843
294,545	-0,403	236,917	116,909
295,560	-0,403	236,588	116,737
296,574	-0,419	236,547	116,694
297,589	-0,501	236,429	116,561
298,603	-0,438	236,167	116,471
299,618	-0,473	236,020	116,360
300,633	-0,384	235,969	116,394
301,647	-0,364	235,807	116,319
302,662	-0,441	235,571	116,133
303,676	-0,546	235,535	116,022
304,691	-0,400	235,400	116,060
305,706	-0,474	235,103	115,846
306,720	-0,348	234,980	115,872
307,735	-0,220	234,869	115,907
308,749	-0,344	234,826	115,778
309,764	-0,266	234,596	115,716
310,779	-0,229	234,326	115,601
311,793	-0,271	234,245	115,518
312,808	-0,229	234,207	115,522
313,822	0,069	233,838	115,560
314,837	-0,229	233,868	115,333
315,852	-0,036	233,657	115,368
316,866	-0,115	233,522	115,230
317,881	-0,228	233,374	115,061
318,895	-0,026	233,329	115,184
319,910	-0,021	233,060	115,044
320,925	-0,108	233,028	114,951
321,939	-0,299	232,849	114,706
322,954	-0,106	232,748	114,794
323,968	-0,205	232,808	114,737
324,983	-0,048	232,460	114,676
325,997	-0,143	232,389	114,558
327,012	0,010	232,115	114,530
328,027	0,060	232,032	114,517
329,041	0,007	231,796	114,349
330,056	-0,213	231,771	114,159
331,070	-0,029	231,427	114,120
332,085	0,016	231,398	114,129
333,100	0,033	231,258	114,063
334,114	-0,152	230,876	113,724
335,129	0,175	230,886	113,968
336,143	-0,102	230,788	113,698
337,158	0,017	230,616	113,694
338,173	0,078	230,511	113,678
339,187	0,209	230,298	113,663
340,202	0,247	230,058	113,563
341,216	0,139	229,917	113,402
342,231	0,157	229,862	113,378
343,246	0,092	229,780	113,278
344,260	0,004	229,628	113,126
345,275	0,200	229,485	113,194
346,289	0,192	229,425	113,149
347,304	0,096	229,277	112,993
348,319	0,050	228,981	112,802
349,333	0,271	228,891	112,914
350,348	0,234	228,811	112,837
351,362	0,366	228,566	112,806
352,377	0,263	228,410	112,640
353,392	0,158	228,314	112,505
354,406	0,302	228,219	112,556
355,421	197,006	1315,942	1392,872
356,435	158,073	1448,408	1392,819
