DTS Sentinel unit serial number:	SN410029Multiplexer serial number:	ORYXHardware model number:	OX2-SRSoftware version number:	ORYX F/W v4,00 Oryx Data Collector v3.7.2.0data status	okinstallation	B5 Nyhavnadifferential loss correction	single-endedforward channel	channel 2reverse channel	N/Adate	2023/12/13time	14:52:13forward acquisition time	300,00reverse acquisition time	0,00gamma	499,1914k internal	0,3160k external	0,3160temperature offset calibration	1,0000default loss term (dB/km)	0,3820temperature slope calibration	1,0000multiplexer offset coefficient	1,0000multiplexer slope coefficient	1,0000fibre end	0,00T internal ref (°C)	15,00T ext. ref 1 (°C)	-1,24T ext. ref 2 (°C)	-1,55length (m)	temperature (°C)	Stokes	anti-Stokes-744,400	708,123	0,037	-0,073
-743,385	66,740	-0,121	0,091
-742,371	800,000	0,054	0,167
-741,356	-65,183	-0,267	0,079
-740,342	160,551	0,136	0,140
-739,327	-153,195	-0,308	0,016
-738,312	-97,275	0,045	0,009
-737,298	-155,833	-0,296	0,014
-736,283	310,731	0,037	0,052
-735,269	-165,699	-0,330	-0,010
-734,254	-10,828	0,035	0,017
-733,239	-78,910	-0,476	-0,118
-732,225	-109,496	0,234	0,036
-731,210	-97,519	-0,113	-0,021
-730,196	-100,477	0,068	0,012
-729,181	-200,000	-0,027	0,190
-728,167	-170,193	-0,158	0,004
-727,152	14,526	0,013	0,007
-726,137	116,546	-0,054	0,049
-725,123	-200,000	0,006	-0,041
-724,108	-135,092	-0,092	-0,008
-723,094	-200,000	-0,004	-0,090
-722,079	-200,000	-0,012	-0,066
-721,064	115,294	0,072	0,065
-720,050	-200,000	0,014	0,091
-719,035	-11,321	-0,130	-0,063
-718,021	-123,740	-0,109	-0,013
-717,006	117,226	0,076	0,069
-715,991	-200,000	0,014	0,080
-714,977	75,035	-0,080	-0,062
-713,962	-63,796	0,065	-0,020
-712,948	-200,000	-0,024	0,105
-711,933	172,173	-0,066	0,070
-710,918	800,000	0,039	-0,095
-709,904	-200,000	0,002	-0,118
-708,889	-193,036	-0,077	0,000
-707,875	237,525	-0,079	-0,096
-706,860	335,811	0,078	0,111
-705,845	-200,000	0,053	0,226
-704,831	-200,000	-0,008	-0,130
-703,816	243,992	-0,028	-0,034
-702,802	115,192	-0,064	-0,058
-701,787	-103,031	-0,151	-0,026
-700,772	800,000	0,031	-0,098
-699,758	-200,000	-0,015	0,125
-698,743	800,000	0,029	-0,091
-697,729	673,769	0,012	-0,023
-696,714	-200,000	0,001	0,083
-695,699	4,618	-0,086	-0,046
-694,685	193,172	-0,060	-0,067
-693,670	155,376	0,109	-0,110
-692,656	701,367	0,022	-0,043
-691,641	163,698	0,033	-0,034
-690,627	373,406	0,089	0,134
-689,612	-11,137	0,068	-0,033
-688,597	800,000	-0,034	-0,093
-687,583	-149,944	0,021	0,001
-686,568	-50,209	-0,079	-0,027
-685,554	-127,361	-0,117	0,012
-684,539	37,225	-0,040	0,026
-683,524	450,635	0,078	0,127
-682,510	-200,000	-0,022	0,115
-681,495	512,505	0,057	0,098
-680,481	-200,000	0,023	-0,077
-679,466	45,548	0,052	0,035
-678,451	800,000	-0,040	-0,082
-677,437	-200,000	-0,002	-0,069
-676,422	110,623	0,087	-0,077
-675,408	-200,000	-0,008	0,075
-674,393	-92,184	0,061	0,013
-673,378	153,314	-0,091	0,092
-672,364	-200,000	0,032	-0,121
-671,349	800,000	-0,029	-0,081
-670,335	-200,000	0,002	-0,080
-669,320	-177,758	-0,095	0,002
-668,305	475,356	-0,055	0,091
-667,291	178,811	-0,056	-0,060
-666,276	-200,000	0,015	-0,048
-665,262	59,967	0,027	0,020
-664,247	-200,000	-0,052	-0,295
-663,232	-200,000	0,009	0,037
-662,218	265,769	0,033	0,043
-661,203	-161,293	-0,049	-0,002
-660,189	-200,000	0,001	-0,099
-659,174	800,000	-0,078	-0,181
-658,159	0,518	-0,112	-0,058
-657,145	134,194	-0,059	-0,056
-656,130	-52,393	-0,122	-0,041
-655,116	476,329	0,065	0,109
-654,101	184,360	0,120	0,131
-653,086	-200,000	0,007	-0,031
-652,072	775,331	-0,066	-0,133
-651,057	-200,000	-0,003	-0,044
-650,043	-200,000	0,018	-0,100
-649,028	524,273	-0,087	-0,151
-648,014	-200,000	-0,000	0,110
-646,999	789,927	-0,045	-0,092
-645,984	252,925	0,046	-0,057
-644,970	293,598	-0,078	0,105
-643,955	800,000	-0,020	-0,052
-642,941	405,130	-0,124	-0,193
-641,926	-61,757	0,012	0,004
-640,911	-150,513	0,099	-0,005
-639,897	800,000	0,074	0,168
-638,882	91,666	0,055	0,046
-637,868	-200,000	0,020	-0,091
-636,853	50,114	-0,071	0,049
-635,838	-78,023	-0,121	-0,030
-634,824	30,198	-0,069	0,043
-633,809	-118,200	0,128	0,016
-632,795	452,870	-0,074	-0,121
-631,780	800,000	-0,020	0,053
-630,765	-200,000	0,016	0,123
-629,751	727,531	-0,054	-0,106
-628,736	359,863	-0,038	-0,057
-627,722	-200,000	0,036	-0,184
-626,707	631,148	0,040	0,075
-625,692	-51,677	-0,045	-0,015
-624,678	800,000	0,032	0,068
-623,663	-200,000	-0,001	-0,081
-622,649	-200,000	-0,012	-0,112
-621,634	-122,743	-0,073	-0,009
-620,619	4,097	-0,063	-0,034
-619,605	208,727	0,096	-0,110
-618,590	111,078	-0,053	0,047
-617,576	104,445	0,143	0,123
-616,561	-163,837	-0,115	-0,004
-615,546	-56,992	-0,054	-0,017
-614,532	262,322	-0,083	0,106
-613,517	247,632	-0,071	-0,088
-612,503	800,000	0,023	-0,050
-611,488	-107,148	-0,039	-0,006
-610,474	169,162	0,055	-0,058
-609,459	-200,000	-0,005	0,093
-608,444	-200,000	-0,038	-0,157
-607,430	-40,228	-0,149	-0,057
-606,415	-200,000	0,046	-0,156
-605,401	-51,829	-0,101	-0,034
-604,386	97,986	-0,035	0,029
-603,371	-112,035	-0,093	0,014
-602,357	-113,692	-0,169	0,024
-601,342	-67,289	-0,056	-0,016
-600,328	-59,541	-0,047	0,015
-599,313	800,000	-0,024	-0,055
-598,298	166,769	0,017	0,017
-597,284	800,000	0,039	0,117
-596,269	800,000	-0,002	-0,005
-595,255	121,781	0,205	-0,188
-594,240	-113,359	-0,065	0,009
-593,225	-200,000	-0,025	-0,108
-592,211	800,000	0,003	0,008
-591,196	291,373	0,111	0,148
-590,182	800,000	-0,009	0,027
-589,167	-131,661	0,198	-0,019
-588,152	-200,000	-0,009	-0,060
-587,138	800,000	-0,056	0,130
-586,123	225,049	-0,050	-0,060
-585,109	-200,000	-0,012	-0,081
-584,094	262,633	-0,015	0,019
-583,079	-65,108	0,101	0,030
-582,065	-200,000	0,001	0,134
-581,050	-200,000	-0,003	-0,030
-580,036	194,897	0,065	-0,072
-579,021	-200,000	0,007	-0,098
-578,006	-200,000	-0,014	-0,073
-576,992	-200,000	0,003	-0,073
-575,977	358,853	0,030	-0,044
-574,963	80,727	0,062	0,049
-573,948	-200,000	-0,013	0,091
-572,934	800,000	0,084	0,183
-571,919	-85,825	-0,088	0,020
-570,904	621,386	-0,080	0,148
-569,890	-144,995	-0,137	0,009
-568,875	17,844	0,046	-0,027
-567,861	7,117	-0,064	-0,035
-566,846	47,269	0,146	-0,099
-565,831	-200,000	-0,018	0,065
-564,817	-16,794	-0,046	-0,021
-563,802	-120,661	-0,132	-0,016
-562,788	-145,256	0,056	0,004
-561,773	-43,306	0,057	-0,021
-560,758	775,049	0,014	-0,029
-559,744	-200,000	0,027	0,097
-558,729	18,866	0,093	-0,054
-557,715	-200,000	0,005	0,021
-556,700	800,000	-0,047	-0,145
-555,685	-200,000	-0,002	-0,041
-554,671	-33,447	-0,060	0,024
-553,656	-200,000	0,011	0,083
-552,642	17,153	-0,079	0,045
-551,627	-200,000	0,002	-0,015
-550,612	387,908	-0,052	-0,079
-549,598	-44,091	0,083	0,030
-548,583	5,367	0,022	-0,012
-547,569	800,000	-0,045	0,098
-546,554	-31,969	-0,058	-0,024
-545,539	-119,696	0,028	-0,003
-544,525	516,069	0,048	0,082
-543,510	-81,891	0,085	-0,020
-542,496	-155,893	-0,079	0,004
-541,481	54,401	0,101	0,071
-540,466	50,317	-0,088	-0,061
-539,452	97,829	-0,114	0,096
-538,437	-200,000	0,004	-0,059
-537,423	-82,302	-0,164	-0,039
-536,408	47,569	-0,061	0,042
-535,393	-200,000	0,044	-0,142
-534,379	-71,209	0,065	-0,018
-533,364	72,390	-0,049	-0,037
-532,350	236,926	0,151	-0,184
-531,335	-200,000	0,004	-0,078
-530,321	800,000	0,030	-0,079
-529,306	-38,935	-0,020	0,008
-528,291	-200,000	0,003	0,012
-527,277	160,834	0,061	-0,062
-526,262	58,600	-0,059	-0,042
-525,248	779,340	0,042	-0,085
-524,233	-114,245	0,084	0,012
-523,218	441,244	0,049	0,079
-522,204	-200,000	-0,012	0,045
-521,189	52,511	0,103	-0,072
-520,175	14,554	-0,038	0,022
-519,160	-50,207	0,054	-0,019
-518,145	-7,685	-0,079	0,039
-517,131	-200,000	-0,035	-0,131
-516,116	324,349	0,024	0,033
-515,102	211,313	0,020	0,023
-514,087	800,000	-0,026	-0,057
-513,072	-157,040	0,099	0,004
-512,058	179,683	0,058	0,062
-511,043	251,663	-0,019	-0,024
-510,029	-200,000	-0,002	0,097
-509,014	279,139	-0,043	-0,056
-507,999	585,326	-0,042	0,075
-506,985	800,000	0,065	-0,169
-505,970	105,787	-0,163	-0,141
-504,956	-200,000	-0,001	-0,070
-503,941	350,712	-0,042	-0,061
-502,926	437,798	-0,081	0,129
-501,912	-200,000	0,002	-0,095
-500,897	-200,000	-0,001	0,123
-499,883	657,743	-0,037	-0,070
-498,868	-67,367	-0,096	0,027
-497,853	-200,000	0,021	-0,070
-496,839	-200,000	0,022	0,150
-495,824	-200,000	-0,019	0,152
-494,810	112,852	0,124	0,110
-493,795	456,678	0,031	-0,051
-492,781	14,988	-0,084	-0,048
-491,766	528,690	0,024	0,042
-490,751	-200,000	-0,012	-0,175
-489,737	44,383	0,125	-0,083
-488,722	-92,331	-0,071	-0,015
-487,708	554,734	-0,032	0,056
-486,693	153,623	0,083	-0,083
-485,678	800,000	-0,013	0,039
-484,664	800,000	-0,024	-0,055
-483,649	210,036	0,043	-0,050
-482,635	800,000	0,041	-0,084
-481,620	-53,640	0,020	0,007
-480,605	800,000	0,033	0,091
-479,591	-100,987	0,104	-0,018
-478,576	128,848	-0,066	0,061
-477,562	-63,176	-0,090	-0,027
-476,547	-200,000	-0,012	-0,181
-475,532	345,454	0,100	0,144
-474,518	-200,000	-0,015	0,118
-473,503	261,339	0,053	0,067
-472,489	214,569	0,032	-0,037
-471,474	194,654	0,105	-0,116
-470,459	143,223	0,019	-0,018
-469,445	-20,277	-0,075	-0,033
-468,430	456,901	0,042	-0,068
-467,416	-4,944	0,050	0,025
-466,401	-42,364	0,053	0,019
-465,386	155,932	-0,050	0,050
-464,372	-118,132	0,086	-0,011
-463,357	-200,000	-0,000	-0,054
-462,343	26,183	-0,179	0,109
-461,328	-73,728	0,027	0,007
-460,313	-78,950	0,067	-0,017
-459,299	-200,000	-0,021	-0,102
-458,284	800,000	-0,010	-0,022
-457,270	800,000	-0,048	0,117
-456,255	290,456	0,029	0,039
-455,241	476,967	-0,003	0,005
-454,226	-173,529	-0,140	-0,003
-453,211	-76,732	-0,022	-0,006
-452,197	43,061	0,058	0,039
-451,182	-200,000	-0,008	0,063
-450,168	-200,000	0,020	0,085
-449,153	148,425	-0,079	-0,077
-448,138	-200,000	-0,010	-0,065
-447,124	-200,000	0,025	-0,117
-446,109	65,944	-0,075	-0,056
-445,095	-200,000	-0,026	-0,087
-444,080	-44,472	0,069	0,025
-443,065	187,340	-0,056	-0,061
-442,051	-200,000	-0,018	0,159
-441,036	-200,000	-0,005	-0,070
-440,022	-200,000	0,003	-0,105
-439,007	320,665	-0,066	-0,092
-437,992	-200,000	-0,008	0,060
-436,978	-39,862	0,064	-0,024
-435,963	-200,000	-0,011	0,095
-434,949	106,204	0,039	-0,033
-433,934	-156,558	-0,066	0,003
-432,919	22,117	0,095	0,056
-431,905	502,111	-0,049	0,083
-430,890	-200,000	-0,006	-0,036
-429,876	-200,000	-0,130	0,000
-428,861	-51,944	0,077	-0,026
-427,846	324,434	-0,029	0,040
-426,832	249,177	-0,048	-0,059
-425,817	54,891	-0,072	0,051
-424,803	-118,170	0,070	0,009
-423,788	-4,112	0,077	0,039
-422,773	-41,545	-0,052	0,019
-421,759	-87,116	0,006	0,001
-420,744	166,059	-0,061	-0,063
-419,730	777,196	0,030	0,060
-418,715	800,000	-0,015	-0,047
-417,701	-51,587	-0,031	0,011
-416,686	373,165	-0,021	0,031
-415,671	54,500	0,090	0,063
-414,657	384,124	-0,058	0,088
-413,642	-48,002	-0,153	0,053
-412,628	-71,510	-0,039	-0,010
-411,613	-200,000	-0,015	0,053
-410,598	-200,000	-0,014	-0,088
-409,584	22,547	0,090	0,053
-408,569	739,168	-0,040	0,079
-407,555	-83,316	-0,069	-0,016
-406,540	-200,000	0,007	0,063
-405,525	191,856	-0,050	-0,055
-404,511	-106,757	-0,099	0,016
-403,496	-200,000	0,003	0,019
-402,482	-200,000	0,005	-0,024
-401,467	-8,497	0,027	0,013
-400,452	-200,000	-0,008	-0,036
-399,438	-90,790	-0,101	-0,021
-398,423	-128,134	-0,026	0,003
-397,409	-50,772	-0,090	-0,030
-396,394	-17,506	0,076	-0,035
-395,379	-200,000	0,020	-0,084
-394,365	-200,000	0,009	0,196
-393,350	221,510	0,043	0,050
-392,336	367,684	0,074	0,110
-391,321	499,018	0,070	-0,118
-390,306	-127,065	0,038	-0,004
-389,292	800,000	0,034	-0,108
-388,277	-44,865	-0,045	-0,016
-387,263	-200,000	-0,028	0,127
-386,248	2,114	-0,051	-0,027
-385,233	143,779	0,032	-0,031
-384,219	193,834	-0,060	-0,066
-383,204	-200,000	0,010	0,100
-382,190	146,458	0,073	0,071
-381,175	-64,344	0,094	0,028
-380,160	-11,475	0,017	0,008
-379,146	-106,351	0,077	-0,012
-378,131	800,000	0,008	0,022
-377,117	800,000	0,029	0,064
-376,102	-160,374	-0,083	-0,003
-375,088	355,606	0,022	0,032
-374,073	-57,463	0,147	-0,047
-373,058	-200,000	-0,014	-0,074
-372,044	-125,873	0,115	-0,012
-371,029	47,904	0,053	0,036
-370,015	-200,000	0,015	0,093
-369,000	-200,000	-0,022	0,075
-367,985	435,159	-0,007	0,012
-366,971	88,638	0,059	0,048
-365,956	38,344	0,033	-0,021
-364,942	800,000	0,034	-0,083
-363,927	-200,000	0,002	-0,025
-362,912	-200,000	-0,000	0,087
-361,898	800,000	0,045	0,106
-360,883	42,810	-0,083	0,055
-359,869	27,664	0,143	0,087
-358,854	-70,251	0,041	-0,011
-357,839	480,556	0,029	-0,048
-356,825	201,522	-0,064	0,071
-355,810	-200,000	0,018	-0,130
-354,796	-117,319	-0,141	-0,018
-353,781	-50,051	-0,094	-0,032
-352,766	800,000	0,016	-0,052
-351,752	424,743	0,038	-0,059
-350,737	-63,172	-0,070	0,021
-349,723	109,992	-0,025	-0,022
-348,708	-200,000	0,052	0,168
-347,693	-129,243	0,062	0,006
-346,679	221,386	-0,101	-0,118
-345,664	-39,237	0,172	0,065
-344,650	800,000	0,007	-0,021
-343,635	-200,000	-0,011	0,038
-342,620	-78,051	0,067	0,017
-341,606	-200,000	0,007	0,153
-340,591	800,000	0,026	0,060
-339,577	-200,000	0,034	-0,136
-338,562	47,200	-0,117	-0,079
-337,548	183,382	-0,060	0,064
-336,533	479,396	-0,011	-0,018
-335,518	-99,884	0,181	-0,032
-334,504	800,000	-0,024	-0,053
-333,489	-53,458	-0,253	-0,083
-332,475	-200,000	0,003	-0,058
-331,460	19,023	-0,133	-0,077
-330,445	-166,783	0,099	-0,003
-329,431	800,000	0,029	-0,061
-328,416	30,305	0,051	0,032
-327,402	-200,000	-0,013	0,050
-326,387	71,306	-0,088	0,066
-325,372	800,000	0,030	-0,075
-324,358	800,000	-0,042	-0,120
-323,343	-46,846	-0,108	-0,038
-322,329	-112,555	-0,069	0,010
-321,314	33,354	-0,105	-0,066
-320,299	-75,834	0,157	-0,040
-319,285	-125,982	0,072	0,008
-318,270	-200,000	0,013	0,073
-317,256	-106,763	-0,137	-0,022
-316,241	26,720	0,121	-0,073
-315,226	72,007	0,059	0,044
-314,212	-200,000	-0,020	-0,066
-313,197	755,425	-0,033	0,066
-312,183	-116,015	-0,068	0,009
-311,168	10,031	-0,095	0,052
-310,153	-1,221	0,041	-0,021
-309,139	-200,000	0,004	-0,105
-308,124	-168,341	0,119	0,003
-307,110	-65,524	-0,118	-0,034
-306,095	-200,000	-0,027	-0,129
-305,080	257,051	-0,106	0,132
-304,066	800,000	-0,016	-0,041
-303,051	344,036	-0,039	0,055
-302,037	-87,673	-0,095	-0,020
-301,022	322,613	0,046	-0,064
-300,008	-200,000	-0,006	0,083
-298,993	-137,064	0,058	0,005
-297,978	-200,000	-0,027	0,130
-296,964	-89,690	0,026	-0,005
-295,949	800,000	-0,020	-0,062
-294,935	142,331	-0,097	-0,093
-293,920	78,892	-0,030	-0,023
-292,905	-122,453	0,139	0,016
-291,891	-59,886	0,078	0,024
-290,876	-200,000	-0,016	0,139
-289,862	-200,000	-0,002	-0,030
-288,847	-51,554	-0,178	0,060
-287,832	-200,000	-0,013	0,076
-286,818	20,813	0,049	0,029
-285,803	800,000	-0,025	0,069
-284,789	-200,000	0,009	-0,098
-283,774	-200,000	0,004	-0,108
-282,759	-200,000	-0,016	0,093
-281,745	-32,129	-0,041	0,017
-280,730	-200,000	-0,002	-0,031
-279,716	260,411	0,101	-0,127
-278,701	409,229	0,068	0,105
-277,686	408,603	0,065	0,100
-276,672	-157,997	-0,182	0,008
-275,657	534,444	-0,050	-0,086
-274,643	92,109	-0,072	0,058
-273,628	800,000	0,029	-0,068
-272,613	475,993	0,052	0,085
-271,599	-94,084	0,094	-0,018
-270,584	414,723	-0,046	0,071
-269,570	173,040	0,010	0,011
-268,555	27,063	0,116	-0,070
-267,540	-96,297	0,082	-0,016
-266,526	-117,901	-0,135	-0,017
-265,511	-12,605	-0,090	-0,042
-264,497	25,962	-0,073	0,044
-263,482	-200,000	-0,013	-0,053
-262,467	186,783	-0,013	0,014
-261,453	-151,609	0,132	0,007
-260,438	800,000	-0,037	0,090
-259,424	31,299	-0,057	-0,036
-258,409	0,478	0,069	-0,036
-257,395	-124,202	0,027	0,003
-256,380	768,421	0,095	0,188
-255,365	800,000	0,025	0,067
-254,351	-200,000	0,019	0,110
-253,336	-200,000	0,082	0,000
-252,322	143,568	0,024	-0,024
-251,307	648,119	-0,025	0,045
-250,292	-200,000	-0,016	-0,064
-249,278	-152,797	0,045	-0,002
-248,263	-67,441	0,039	0,011
-247,249	-200,000	-0,017	0,070
-246,234	-156,062	0,086	0,004
-245,219	36,469	-0,071	-0,045
-244,205	-200,000	-0,008	0,107
-243,190	-53,863	0,173	-0,057
-242,176	-200,000	0,008	-0,040
-241,161	11,245	-0,017	0,010
-240,146	-200,000	0,027	-0,116
-239,132	124,526	0,063	0,057
-238,117	101,894	-0,054	0,045
-237,103	-200,000	-0,024	0,195
-236,088	15,232	-0,054	-0,030
-235,073	654,609	-0,030	0,056
-234,059	-200,000	0,005	-0,040
-233,044	-170,230	0,125	-0,003
-232,030	-200,000	-0,020	0,084
-231,015	800,000	-0,049	-0,114
-230,000	-200,000	-0,023	-0,151
-228,986	-200,000	0,018	0,092
-227,971	800,000	0,017	-0,039
-226,957	-45,892	0,139	0,049
-225,942	93,809	0,064	-0,053
-224,927	-36,744	-0,214	0,083
-223,913	-80,817	0,082	-0,019
-222,898	-200,000	0,011	0,042
-221,884	-200,000	-0,012	-0,090
-220,869	800,000	0,046	0,096
-219,855	-122,791	0,074	0,008
-218,840	41,998	-0,079	0,052
-217,825	-200,000	0,032	0,171
-216,811	-200,000	0,002	-0,109
-215,796	800,000	-0,063	-0,165
-214,782	201,881	0,048	0,053
-213,767	-58,433	-0,100	0,031
-212,752	-125,744	0,080	0,009
-211,738	306,277	-0,026	0,035
-210,723	477,881	-0,029	0,047
-209,709	215,796	0,014	0,016
-208,694	117,812	0,101	-0,090
-207,679	747,797	-0,027	-0,054
-206,665	-200,000	0,011	-0,052
-205,650	-129,788	0,054	0,005
-204,636	6,487	0,103	-0,055
-203,621	57,503	0,072	0,051
-202,606	-176,973	0,226	0,004
-201,592	-200,000	0,001	0,270
-200,577	-150,089	-0,092	0,005
-199,563	249,271	0,070	-0,085
-198,548	34,737	0,090	-0,057
-197,533	800,000	0,061	0,178
-196,519	40,805	-0,019	0,013
-195,504	-200,000	0,001	0,058
-194,490	-200,000	-0,019	-0,193
-193,475	-194,686	0,087	-0,000
-192,460	169,118	-0,010	-0,011
-191,446	-120,073	0,052	-0,006
-190,431	800,000	-0,032	0,096
-189,417	800,000	0,011	-0,030
-188,402	-87,509	-0,057	-0,012
-187,387	-28,916	-0,108	-0,044
-186,373	-4,489	0,099	0,049
-185,358	-200,000	0,041	0,173
-184,344	133,830	0,117	-0,109
-183,329	-200,000	-0,002	0,034
-182,315	800,000	-0,012	0,035
-181,300	260,609	-0,069	-0,086
-180,285	70,625	0,049	0,036
-179,271	800,000	-0,022	-0,067
-178,256	69,233	-0,046	-0,034
-177,242	-129,408	0,053	0,005
-176,227	-62,351	-0,069	0,020
-175,212	590,532	0,041	-0,074
-174,198	124,823	-0,049	-0,045
-173,183	507,858	0,009	-0,016
-172,169	-104,933	-0,117	-0,019
-171,154	382,231	0,048	0,071
-170,139	-160,000	0,106	-0,004
-169,125	191,866	0,016	-0,017
-168,110	30,016	0,062	0,038
-167,096	-200,000	0,011	-0,062
-166,081	-200,000	0,038	0,156
-165,066	315,248	-0,121	0,165
-164,052	46,454	-0,094	-0,063
-163,037	-60,909	-0,091	0,027
-162,023	30,798	0,084	0,052
-161,008	-89,173	-0,109	0,023
-159,993	-123,154	0,051	-0,006
-158,979	68,639	0,036	0,027
-157,964	-200,000	0,004	-0,050
-156,950	-200,000	0,010	0,135
-155,935	8,237	0,149	0,080
-154,920	4,248	-0,168	0,088
-153,906	35,946	0,040	-0,025
-152,891	155,720	0,089	0,088
-151,877	-200,000	-0,003	0,029
-150,862	-200,000	0,027	-0,092
-149,847	-200,000	0,002	0,096
-148,833	800,000	-0,029	0,063
-147,818	11,363	-0,015	0,008
-146,804	-61,824	0,085	0,025
-145,789	26,304	0,012	-0,007
-144,775	-161,275	0,093	-0,003
-143,760	-171,659	-0,173	0,004
-142,745	-200,000	-0,018	-0,063
-141,731	240,961	-0,072	-0,087
-140,716	44,169	0,147	0,097
-139,702	440,119	-0,071	0,112
-138,687	800,000	-0,061	-0,140
-137,672	661,477	0,073	0,135
-136,658	-2,755	0,051	0,025
-135,643	-5,927	-0,150	0,074
-134,629	-200,000	-0,017	-0,073
-133,614	6,953	-0,139	-0,074
-132,599	162,827	0,016	-0,017
-131,585	5,155	-0,041	-0,022
-130,570	-200,000	0,021	-0,115
-129,556	-200,000	-0,016	-0,098
-128,541	-200,000	-0,038	-0,123
-127,526	800,000	0,034	0,078
-126,512	618,923	-0,079	0,143
-125,497	-177,364	0,117	-0,002
-124,483	-74,867	-0,071	0,018
-123,468	160,631	0,077	0,077
-122,453	18,474	-0,068	-0,039
-121,439	104,814	0,047	0,040
-120,424	405,178	0,035	-0,053
-119,410	104,450	0,022	-0,019
-118,395	-200,000	0,003	-0,120
-117,380	30,761	0,020	0,012
-116,366	-200,000	-0,003	-0,048
-115,351	-12,016	0,115	-0,054
-114,337	-77,146	0,050	0,012
-113,322	-41,873	0,063	0,023
-112,307	-31,780	0,086	-0,034
-111,293	-200,000	-0,009	-0,031
-110,278	-27,798	-0,059	0,024
-109,264	-66,334	-0,083	0,023
-108,249	147,614	-0,030	-0,029
-107,234	90,513	-0,088	-0,070
-106,220	250,025	-0,021	-0,026
-105,205	32,851	0,122	-0,076
-104,191	-18,120	0,080	-0,036
-103,176	-200,000	0,025	0,135
-102,162	-200,000	0,024	0,084
-101,147	-200,000	0,013	-0,066
-100,132	23,218	0,046	-0,027
-99,118	-142,085	-0,017	0,001
-98,103	-200,000	0,001	-0,058
-97,089	290,195	0,056	-0,074
-96,074	169,709	-0,041	0,042
-95,059	-76,265	-0,061	0,015
-94,045	562,717	-0,022	0,038
-93,030	-74,734	0,064	0,016
-92,016	319,752	-0,049	-0,067
-91,001	184,973	0,035	-0,038
-89,986	34,941	-0,107	-0,067
-88,972	-72,634	0,087	0,023
-87,957	449,030	-0,054	0,085
-86,943	21,993	-0,061	0,036
-85,928	-75,076	0,099	0,025
-84,913	40,810	-0,113	-0,073
-83,899	332,145	0,032	-0,045
-82,884	226,728	-0,005	-0,006
-81,870	470,272	-0,016	0,026
-80,855	189,524	-0,066	0,071
-79,840	-17,256	-0,046	0,021
-78,826	-107,920	-0,063	-0,010
-77,811	-200,000	-0,022	-0,082
-76,797	64,592	0,057	-0,041
-75,782	33,086	0,037	-0,023
-74,767	91,638	0,054	-0,043
-73,753	477,369	0,069	0,112
-72,738	-200,000	-0,017	-0,188
-71,724	264,597	0,096	-0,120
-70,709	-200,000	-0,013	-0,140
-69,694	509,418	-0,037	-0,063
-68,680	-200,000	-0,041	0,135
-67,665	800,000	0,023	0,048
-66,651	800,000	0,038	-0,099
-65,636	-200,000	0,030	-0,133
-64,622	800,000	-0,086	-0,189
-63,607	458,570	-0,088	-0,141
-62,592	531,136	0,008	0,014
-61,578	658,097	-0,067	-0,125
-60,563	620,379	0,013	-0,023
-59,549	-200,000	-0,029	0,126
-58,534	-2,926	-2,045	-1,021
-57,519	-200,000	-0,251	-0,829
-56,505	-200,000	-1,322	-4,969
-55,490	71,675	0,746	0,555
-54,476	800,000	5,320	11,949
-53,461	-200,000	17,818	287,423
-52,446	800,000	728,787	2225,347
-51,432	535,805	1644,471	2808,611
-50,417	109,608	1634,921	1404,541
-49,403	75,324	1286,748	972,277
-48,388	31,775	1027,141	632,495
-47,373	20,066	989,024	570,459
-46,359	18,213	976,844	557,344
-45,344	15,318	972,784	545,546
-44,330	15,560	971,206	545,428
-43,315	15,081	969,486	542,880
-42,300	15,033	968,425	542,108
-41,286	14,985	967,349	541,326
-40,271	14,979	966,368	540,737
-39,257	15,022	965,331	540,274
-38,242	15,090	964,425	539,966
-37,227	14,985	963,763	539,235
-36,213	15,000	962,715	538,677
-35,198	15,016	961,986	538,299
-34,184	15,025	961,287	537,916
-33,169	15,039	960,055	537,250
-32,154	15,077	959,319	536,938
-31,140	15,013	958,281	536,131
-30,125	15,061	957,810	536,002
-29,111	15,084	956,842	535,510
-28,096	15,042	956,393	535,104
-27,082	15,058	955,548	534,661
-26,067	15,061	954,693	534,172
-25,052	15,060	953,931	533,720
-24,038	15,075	953,346	533,418
-23,023	14,978	952,919	532,848
-22,009	15,033	952,165	532,583
-20,994	15,086	951,360	532,279
-19,979	15,044	950,869	531,850
-18,965	15,011	950,171	531,332
-17,950	14,999	949,742	531,035
-16,936	15,051	948,804	530,653
-15,921	14,923	948,361	529,977
-14,906	14,894	947,542	529,407
-13,892	14,924	946,826	529,082
-12,877	14,863	946,269	528,554
-11,863	14,935	945,735	528,465
-10,848	14,907	945,258	528,088
-9,833	14,951	944,671	527,879
-8,819	14,982	943,846	527,495
-7,804	14,957	943,231	527,051
-6,790	14,901	942,913	526,673
-5,775	15,011	942,184	526,593
-4,760	14,990	941,445	526,096
-3,746	14,950	940,814	525,595
-2,731	14,822	940,054	524,746
-1,717	14,760	939,534	524,238
-0,702	14,738	939,110	523,911
0,313	14,551	938,315	523,669
1,327	17,811	936,198	532,697
2,342	26,696	792,992	474,702
3,356	23,430	458,057	269,198
4,371	-3,480	314,000	155,991
5,386	-7,470	295,914	142,962
6,400	-9,650	289,820	137,846
7,415	-10,032	287,418	136,316
8,429	-10,045	285,741	135,495
9,444	-10,395	285,033	134,807
10,459	-10,174	284,295	134,661
11,473	-10,155	283,526	134,303
12,488	-10,156	283,102	134,089
13,502	-10,214	282,602	133,784
14,517	-10,057	282,095	133,683
15,531	-10,302	281,668	133,234
16,546	-9,977	281,221	133,323
17,561	-10,293	281,049	132,926
18,575	-10,164	280,655	132,851
19,590	-10,315	280,199	132,480
20,604	-10,188	279,973	132,481
21,619	-10,525	279,665	132,002
22,634	-10,182	279,245	132,119
23,648	-10,220	278,886	131,902
24,663	-10,214	278,729	131,822
25,677	-10,146	278,353	131,696
26,692	-10,134	278,037	131,547
27,707	-10,302	277,995	131,355
28,721	-10,360	277,579	131,093
29,736	-10,223	277,246	131,053
30,750	-10,216	276,968	130,917
31,765	-10,242	276,824	130,812
32,780	-10,237	276,670	130,733
33,794	-10,141	276,302	130,637
34,809	-10,386	276,195	130,344
35,823	-10,309	275,827	130,232
36,838	-10,351	275,525	130,038
37,853	-10,273	275,251	129,970
38,867	-10,237	275,052	129,898
39,882	-10,307	274,757	129,682
40,896	-10,124	274,645	129,789
41,911	-10,242	274,140	129,428
42,926	-10,310	274,047	129,310
43,940	-10,482	273,863	129,050
44,955	-10,450	273,652	128,969
45,969	-10,519	273,432	128,790
46,984	-10,500	273,191	128,682
47,999	-10,774	272,800	128,232
49,013	-10,831	272,677	128,110
50,028	-10,890	272,447	127,935
51,042	-10,870	272,003	127,735
52,057	-11,038	271,764	127,455
53,071	-11,028	271,689	127,417
54,086	-10,832	271,387	127,446
55,101	-10,715	271,395	127,546
56,115	-10,561	271,206	127,588
57,130	-10,244	270,918	127,735
58,144	-10,155	270,867	127,781
59,159	-10,252	270,615	127,562
60,174	-10,198	270,315	127,458
61,188	-10,065	270,240	127,533
62,203	-10,162	269,879	127,263
63,217	-10,113	269,494	127,115
64,232	-10,325	269,391	126,861
65,247	-10,071	269,232	127,007
66,261	-10,158	268,893	126,756
67,276	-10,354	268,730	126,489
68,290	-10,717	268,414	125,997
69,305	-10,548	268,281	126,079
70,320	-10,469	267,926	125,972
71,334	-10,390	267,976	126,057
72,349	-10,310	267,751	126,012
73,363	-10,170	267,473	125,997
74,378	-10,082	267,174	125,925
75,393	-10,254	267,099	125,723
76,407	-10,244	266,730	125,547
77,422	-10,135	266,613	125,580
78,436	-10,311	266,429	125,322
79,451	-10,100	265,998	125,299
80,466	-10,397	265,971	125,007
81,480	-10,294	265,623	124,924
82,495	-10,337	265,457	124,797
83,509	-10,284	265,299	124,759
84,524	-10,485	265,106	124,476
85,539	-10,358	264,688	124,383
86,553	-10,479	264,601	124,222
87,568	-10,515	264,427	124,097
88,582	-10,273	264,282	124,235
89,597	-10,358	263,995	124,013
90,611	-10,389	263,997	123,975
91,626	-10,174	263,713	124,023
92,641	-10,267	263,522	123,839
93,655	-10,383	263,373	123,654
94,670	-10,296	263,052	123,570
95,684	-10,230	262,728	123,466
96,699	-10,294	262,689	123,380
97,714	-10,203	262,358	123,294
98,728	-10,429	262,275	123,043
99,743	-10,433	261,958	122,880
100,757	-10,450	261,621	122,695
101,772	-10,470	261,498	122,609
102,787	-10,375	261,386	122,630
103,801	-10,406	261,326	122,563
104,816	-10,291	261,132	122,564
105,830	-10,123	261,169	122,719
106,845	-10,357	260,753	122,306
107,860	-10,255	260,510	122,271
108,874	-10,185	260,405	122,272
109,889	-10,205	260,121	122,110
110,903	-10,196	259,834	121,972
111,918	-10,412	259,800	121,755
112,933	-10,521	259,599	121,555
113,947	-10,000	259,235	121,831
114,962	-10,107	259,195	121,707
115,976	-10,245	258,951	121,461
116,991	-10,203	258,693	121,365
118,006	-10,146	258,664	121,391
119,020	-10,090	258,509	121,357
120,035	-10,146	258,417	121,254
121,049	-10,190	258,224	121,113
122,064	-10,210	257,974	120,969
123,079	-10,349	257,773	120,742
124,093	-10,334	257,495	120,615
125,108	-10,350	257,146	120,426
126,122	-10,468	256,963	120,227
127,137	-10,684	256,712	119,911
128,151	-10,723	256,513	119,773
129,166	-10,380	256,420	120,017
130,181	-10,460	256,256	119,860
131,195	-10,576	256,115	119,684
132,210	-10,315	255,857	119,777
133,224	-10,358	255,665	119,640
134,239	-10,107	255,571	119,802
135,254	-10,156	255,352	119,647
136,268	-10,163	255,092	119,508
137,283	-10,573	255,017	119,109
138,297	-10,607	254,709	118,925
139,312	-10,699	254,509	118,742
140,327	-10,342	254,278	118,931
141,341	-9,991	254,389	119,274
142,356	-10,081	254,198	119,096
143,370	-10,061	254,060	119,038
144,385	-9,860	253,774	119,065
145,400	-9,908	253,571	118,919
146,414	-9,876	253,301	118,809
147,429	-9,933	253,109	118,659
148,443	-10,071	253,007	118,483
149,458	-9,924	252,879	118,538
150,473	-9,871	252,764	118,519
151,487	-10,081	252,418	118,167
152,502	-10,185	252,251	117,990
153,516	-10,135	252,040	117,923
154,531	-10,084	251,956	117,917
155,546	-10,097	251,774	117,810
156,560	-10,066	251,679	117,781
157,575	-10,240	251,348	117,468
158,589	-10,141	251,310	117,524
159,604	-9,974	251,023	117,521
160,619	-10,055	250,705	117,293
161,633	-10,201	250,702	117,157
162,648	-9,986	250,546	117,255
163,662	-10,047	250,361	117,107
164,677	-10,062	250,165	116,993
165,692	-10,069	250,057	116,926
166,706	-9,825	249,842	117,021
167,721	-9,889	249,732	116,905
168,735	-9,867	249,559	116,832
169,750	-9,989	249,433	116,660
170,764	-9,777	249,256	116,745
171,779	-9,764	249,038	116,643
172,794	-9,849	248,741	116,422
173,808	-9,817	248,566	116,356
174,823	-10,353	248,403	115,821
175,837	-10,574	248,285	115,571
176,852	-10,079	248,016	115,849
177,867	-9,882	247,964	115,979
178,881	-10,067	247,962	115,814
179,896	-10,026	247,755	115,741
180,910	-9,990	247,528	115,654
181,925	-9,725	247,364	115,788
182,940	-9,948	247,137	115,486
183,954	-9,939	246,941	115,391
184,969	-9,964	246,861	115,323
185,983	-9,800	246,719	115,383
186,998	-9,831	246,419	115,206
188,013	-9,997	246,263	114,986
189,027	-9,825	246,130	115,055
190,042	-9,750	245,877	114,989
191,056	-9,960	245,913	114,822
192,071	-9,990	245,710	114,692
193,086	-10,000	245,462	114,558
194,100	-10,015	245,176	114,401
195,115	-9,899	245,203	114,500
196,129	-9,543	244,760	114,575
197,144	-10,009	244,806	114,203
198,159	-9,983	244,421	114,035
199,173	-9,779	244,294	114,133
200,188	-9,937	244,127	113,915
201,202	-10,374	243,916	113,448
202,217	-10,534	243,631	113,175
203,232	-10,545	243,511	113,100
204,246	-10,165	243,412	113,355
205,261	-9,621	243,320	113,747
206,275	-10,514	242,949	112,834
207,290	-6,372	244,537	116,962
208,304	1,195	247,041	124,408
209,319	4,537	247,879	127,582
210,334	4,915	247,871	127,879
211,348	5,354	247,764	128,174
212,363	5,367	247,672	128,126
213,377	5,461	247,555	128,131
214,392	5,181	247,382	127,800
215,407	5,204	247,172	127,698
216,421	5,128	247,143	127,609
217,436	5,400	246,874	127,683
218,450	5,732	246,716	127,863
219,465	5,231	246,609	127,384
220,480	5,277	246,266	127,234
221,494	5,045	246,181	126,989
222,509	5,035	245,981	126,866
223,523	4,918	245,832	126,682
224,538	4,684	245,514	126,316
225,553	4,947	245,419	126,470
226,567	5,127	245,243	126,515
227,582	5,013	245,081	126,327
228,596	4,836	244,920	126,089
229,611	4,687	244,786	125,887
230,626	4,652	244,494	125,697
231,640	4,748	244,339	125,685
232,655	4,750	244,385	125,698
233,669	4,499	244,117	125,346
234,684	4,299	243,970	125,097
235,699	4,748	244,020	125,476
236,713	4,994	243,825	125,564
237,728	4,884	243,418	125,254
238,742	4,566	243,307	124,929
239,757	4,521	242,926	124,685
240,772	4,382	243,007	124,604
241,786	4,657	242,922	124,771
242,801	4,259	242,573	124,260
243,815	4,718	242,516	124,590
244,830	4,817	242,432	124,615
245,844	4,754	242,422	124,547
246,859	4,719	241,960	124,271
247,874	4,791	241,875	124,274
248,888	4,716	241,791	124,160
249,903	4,737	241,572	124,053
250,917	4,819	241,390	124,014
251,932	5,021	241,454	124,198
252,947	4,873	241,153	123,913
253,961	4,644	241,041	123,662
254,976	4,813	240,738	123,630
255,990	4,849	240,667	123,612
257,005	4,758	240,450	123,417
258,020	4,578	240,303	123,186
259,034	4,396	240,241	122,999
260,049	4,620	240,149	123,119
261,063	4,469	239,925	122,873
262,078	4,557	239,833	122,885
263,093	4,824	239,689	123,012
264,107	4,893	239,458	122,938
265,122	4,718	239,255	122,684
266,136	4,886	239,161	122,758
267,151	4,845	239,183	122,726
268,166	4,675	238,771	122,369
269,180	4,375	238,606	122,036
270,195	5,190	238,584	122,658
271,209	5,464	238,630	122,887
272,224	4,669	238,281	122,069
273,239	4,358	238,061	121,700
274,253	4,318	237,723	121,485
275,268	4,495	237,772	121,639
276,282	4,619	237,605	121,640
277,297	4,346	237,235	121,225
278,312	4,631	237,134	121,387
279,326	4,589	237,086	121,318
280,341	4,695	236,977	121,335
281,355	4,755	236,787	121,274
282,370	4,731	236,661	121,180
283,384	4,880	236,506	121,206
284,399	4,679	236,332	120,949
285,414	4,433	236,173	120,665
286,428	4,442	235,935	120,539
287,443	4,636	235,977	120,701
288,457	4,833	235,853	120,782
289,472	5,040	235,563	120,783
290,487	4,972	235,438	120,655
291,501	4,628	235,163	120,236
292,516	4,321	235,044	119,926
293,530	4,322	234,952	119,869
294,545	4,821	234,856	120,197
295,560	4,599	234,857	120,014
296,574	4,473	234,344	119,644
297,589	4,457	234,404	119,651
298,603	4,936	234,477	120,049
299,618	4,941	234,280	119,942
300,633	4,899	234,011	119,760
301,647	4,846	234,057	119,733
302,662	5,287	233,939	120,003
303,676	5,049	233,739	119,706
304,691	4,871	233,593	119,482
305,706	4,914	233,534	119,475
306,720	5,077	233,266	119,452
307,735	4,918	233,060	119,214
308,749	4,714	232,897	118,963
309,764	4,578	232,660	118,727
310,779	4,416	232,405	118,462
311,793	4,114	232,128	118,079
312,808	4,100	232,107	118,047
313,822	4,565	232,015	118,345
314,837	4,821	231,886	118,465
315,852	4,664	231,796	118,288
316,866	4,741	231,756	118,317
317,881	4,834	231,636	118,315
318,895	4,872	231,561	118,296
319,910	4,806	231,375	118,140
320,925	4,771	230,964	117,893
321,939	4,348	230,844	117,499
322,954	4,473	230,891	117,608
323,968	4,654	230,569	117,571
324,983	4,505	230,661	117,494
325,997	5,003	230,382	117,720
327,012	4,888	230,192	117,524
328,027	4,703	230,070	117,312
329,041	5,020	230,024	117,518
330,056	5,329	230,062	117,762
331,070	5,387	229,864	117,693
332,085	5,043	229,610	117,292
333,100	4,957	229,281	117,049
334,114	4,826	229,318	116,959
335,129	5,078	229,232	117,094
336,143	5,182	229,062	117,076
337,158	5,119	228,838	116,903
338,173	5,022	228,608	116,703
339,187	4,645	228,478	116,342
340,202	4,630	228,407	116,284
341,216	4,850	228,094	116,280
342,231	4,657	228,105	116,130
343,246	4,660	227,912	116,023
344,260	4,750	227,791	116,019
345,275	5,065	227,976	116,339
346,289	5,065	227,743	116,210
347,304	4,962	227,440	115,968
348,319	5,158	227,241	116,003
349,333	4,689	227,059	115,549
350,348	4,574	226,877	115,361
351,362	4,652	226,770	115,354
352,377	4,522	226,585	115,153
353,392	4,397	226,468	114,990
354,406	4,476	226,329	114,967
355,421	196,118	1317,343	1394,440
356,435	157,254	1450,254	1394,412
