DTS Sentinel unit serial number:	SN410029Multiplexer serial number:	ORYXHardware model number:	OX2-SRSoftware version number:	ORYX F/W v4,00 Oryx Data Collector v3.7.2.0data status	okinstallation	B5 Nyhavnadifferential loss correction	single-endedforward channel	channel 2reverse channel	N/Adate	2023/12/14time	13:12:13forward acquisition time	300,00reverse acquisition time	0,00gamma	499,1914k internal	0,3157k external	0,3157temperature offset calibration	1,0000default loss term (dB/km)	0,3820temperature slope calibration	1,0000multiplexer offset coefficient	1,0000multiplexer slope coefficient	1,0000fibre end	0,00T internal ref (°C)	8,04T ext. ref 1 (°C)	-7,71T ext. ref 2 (°C)	-7,76length (m)	temperature (°C)	Stokes	anti-Stokes-744,400	-147,221	0,105	-0,006
-743,385	-131,595	-0,489	-0,047
-742,371	-152,696	0,266	-0,014
-741,356	-8,922	-0,306	-0,151
-740,342	-13,052	0,145	0,069
-739,327	-73,875	-0,267	-0,071
-738,312	367,890	-0,014	-0,021
-737,298	-12,580	-0,362	-0,174
-736,283	159,388	0,167	0,172
-735,269	-39,087	-0,252	-0,097
-734,254	136,412	0,125	0,121
-733,239	-43,847	-0,574	-0,212
-732,225	54,531	0,205	0,146
-731,210	-76,448	0,134	-0,034
-730,196	182,552	0,018	0,020
-729,181	-47,594	-0,143	0,051
-728,167	-35,085	0,115	0,046
-727,152	330,563	0,034	-0,048
-726,137	-174,600	-0,047	0,001
-725,123	297,735	-0,064	-0,087
-724,108	-55,187	-0,151	-0,050
-723,094	-200,000	0,027	-0,148
-722,079	-200,000	-0,009	0,072
-721,064	-66,729	-0,076	-0,022
-720,050	651,948	-0,061	-0,116
-719,035	40,630	0,114	-0,076
-718,021	140,707	-0,122	-0,119
-717,006	-43,543	-0,098	-0,036
-715,991	495,395	-0,011	-0,019
-714,977	-121,043	-0,116	0,014
-713,962	495,553	-0,020	-0,034
-712,948	-71,215	0,050	-0,014
-711,933	-124,849	-0,128	0,014
-710,918	-83,555	0,019	-0,004
-709,904	13,765	-0,140	-0,080
-708,889	210,946	-0,044	-0,051
-707,875	-200,000	-0,029	-0,149
-706,860	80,600	0,134	0,106
-705,845	-96,723	0,044	0,009
-704,831	38,835	-0,064	0,042
-703,816	-200,000	0,003	0,028
-702,802	93,021	-0,067	0,056
-701,787	-200,000	0,007	0,029
-700,772	-200,000	0,027	-0,101
-699,758	119,469	0,038	0,035
-698,743	244,119	0,034	-0,042
-697,729	-26,783	-0,040	0,017
-696,714	-95,789	0,104	0,020
-695,699	129,859	-0,083	-0,078
-694,685	-200,000	-0,023	-0,119
-693,670	455,731	-0,048	0,078
-692,656	154,550	0,039	-0,039
-691,641	-25,028	-0,074	0,032
-690,627	152,644	0,048	0,048
-689,612	800,000	0,006	0,017
-688,597	-184,455	-0,118	0,001
-687,583	-200,000	-0,002	-0,050
-686,568	-200,000	0,000	0,073
-685,554	800,000	-0,039	0,082
-684,539	-200,000	0,009	-0,032
-683,524	198,421	-0,043	0,049
-682,510	-200,000	-0,006	0,028
-681,495	-0,388	-0,073	-0,038
-680,481	-200,000	-0,017	-0,107
-679,466	303,245	0,105	-0,143
-678,451	45,542	-0,081	0,055
-677,437	16,205	-0,102	0,059
-676,422	800,000	-0,024	0,061
-675,408	562,874	0,017	0,031
-674,393	210,700	-0,043	0,049
-673,378	-133,969	-0,107	-0,010
-672,364	15,629	-0,150	-0,087
-671,349	-81,030	0,143	-0,034
-670,335	-55,930	0,052	-0,017
-669,320	53,102	-0,089	0,063
-668,305	-49,363	-0,113	0,039
-667,291	-103,849	-0,097	-0,016
-666,276	-200,000	0,005	-0,035
-665,262	-152,386	0,081	0,004
-664,247	-106,430	-0,033	-0,005
-663,232	378,835	-0,038	-0,057
-662,218	-34,709	0,163	-0,065
-661,203	645,317	0,054	0,101
-660,189	-32,376	0,084	-0,034
-659,174	-153,555	-0,065	0,003
-658,159	-200,000	-0,021	-0,089
-657,145	272,807	-0,062	0,081
-656,130	-61,865	-0,103	-0,031
-655,116	800,000	0,057	0,147
-654,101	800,000	0,051	0,113
-653,086	-124,198	-0,206	-0,023
-652,072	-167,204	-0,070	0,002
-651,057	-112,679	-0,043	-0,006
-650,043	20,036	0,051	-0,030
-649,028	-200,000	-0,026	-0,097
-648,014	-88,094	-0,028	-0,006
-646,999	-157,555	-0,222	0,010
-645,984	800,000	0,042	0,127
-644,970	63,889	-0,076	-0,056
-643,955	-200,000	-0,018	-0,110
-642,941	-74,507	-0,101	0,027
-641,926	-131,347	0,086	0,008
-640,911	-26,769	-0,065	0,028
-639,897	800,000	0,048	0,124
-638,882	246,111	-0,016	-0,020
-637,868	264,131	0,048	-0,062
-636,853	283,864	0,039	-0,052
-635,838	479,159	-0,040	-0,066
-634,824	369,112	-0,014	-0,021
-633,809	800,000	-0,007	0,017
-632,795	494,811	0,036	0,060
-631,780	800,000	0,023	0,048
-630,765	-178,601	0,066	-0,001
-629,751	-188,700	-0,175	-0,002
-628,736	-200,000	-0,003	-0,057
-627,722	397,041	0,050	-0,077
-626,707	800,000	-0,024	0,063
-625,692	62,888	-0,089	-0,065
-624,678	800,000	0,067	0,178
-623,663	78,895	0,048	-0,037
-622,649	-200,000	-0,019	-0,076
-621,634	-39,379	0,008	0,003
-620,619	-44,764	0,049	0,018
-619,605	-124,709	-0,132	0,015
-618,590	800,000	0,017	0,037
-617,576	-126,883	-0,041	-0,004
-616,561	-64,788	-0,088	-0,026
-615,546	-73,283	-0,064	-0,017
-614,532	33,513	-0,043	-0,027
-613,517	47,041	-0,128	-0,087
-612,503	-44,741	-0,048	0,017
-611,488	-200,000	-0,011	-0,078
-610,474	41,215	0,033	0,022
-609,459	-200,000	0,004	-0,141
-608,444	50,139	0,102	-0,070
-607,430	-3,143	-0,075	-0,038
-606,415	-32,951	0,067	-0,027
-605,401	44,852	0,082	-0,056
-604,386	-144,783	-0,080	0,005
-603,371	215,637	0,098	0,114
-602,357	-90,360	-0,105	-0,022
-601,342	-140,124	0,027	-0,002
-600,328	-200,000	0,036	-0,129
-599,313	-105,378	0,058	-0,010
-598,298	65,647	0,033	-0,024
-597,284	-58,237	0,052	-0,017
-596,269	114,469	-0,099	-0,088
-595,255	-12,991	0,056	-0,026
-594,240	44,655	-0,034	0,023
-593,225	-200,000	0,010	0,035
-592,211	89,815	-0,084	-0,068
-591,196	93,869	0,071	0,059
-590,182	451,031	-0,039	-0,064
-589,167	-74,361	-0,043	0,011
-588,152	214,658	-0,062	-0,073
-587,138	-200,000	0,022	0,101
-586,123	-200,000	0,001	0,018
-585,109	-71,545	-0,071	-0,019
-584,094	-200,000	0,019	-0,067
-583,079	-50,574	0,079	0,027
-582,065	-200,000	0,002	0,089
-581,050	-5,936	0,067	0,033
-580,036	123,713	-0,062	0,057
-579,021	800,000	-0,055	-0,134
-578,006	-200,000	0,024	-0,166
-576,992	55,768	-0,053	-0,037
-575,977	227,202	0,021	0,025
-574,963	-115,888	0,141	-0,019
-573,948	-200,000	0,003	0,160
-572,934	-40,457	-0,064	0,024
-571,919	-200,000	0,002	0,053
-570,904	-200,000	-0,013	0,162
-569,890	177,926	-0,105	0,112
-568,875	-200,000	0,014	0,059
-567,861	-60,693	-0,076	0,023
-566,846	92,089	0,020	0,016
-565,831	800,000	-0,022	0,051
-564,817	-200,000	0,013	0,089
-563,802	800,000	0,041	0,121
-562,788	630,235	0,038	-0,071
-561,773	284,876	-0,043	-0,057
-560,758	800,000	0,017	-0,054
-559,744	-60,630	-0,042	-0,013
-558,729	97,449	-0,119	-0,100
-557,715	-200,000	0,009	-0,067
-556,700	-200,000	0,008	-0,068
-555,685	-200,000	-0,006	-0,061
-554,671	497,636	-0,068	0,115
-553,656	-17,756	-0,068	0,031
-552,642	18,141	0,071	-0,041
-551,627	800,000	-0,016	0,032
-550,612	-38,880	-0,020	0,008
-549,598	-92,329	-0,132	0,027
-548,583	-200,000	0,017	-0,086
-547,569	800,000	-0,047	-0,122
-546,554	-200,000	0,013	-0,044
-545,539	-200,000	-0,024	-0,097
-544,525	-96,862	0,072	0,014
-543,510	-200,000	-0,025	0,086
-542,496	258,887	0,014	-0,018
-541,481	44,138	0,012	-0,008
-540,466	-136,802	-0,147	-0,012
-539,452	-113,215	0,102	0,015
-538,437	800,000	-0,022	-0,059
-537,423	800,000	-0,043	0,101
-536,408	-200,000	-0,002	0,076
-535,393	-19,490	0,082	0,037
-534,379	289,343	-0,118	-0,157
-533,364	-200,000	-0,026	-0,121
-532,350	-136,742	-0,110	0,009
-531,335	-127,775	0,119	0,012
-530,321	800,000	0,009	-0,022
-529,306	463,962	0,047	0,077
-528,291	-200,000	-0,023	-0,109
-527,277	-200,000	-0,000	-0,039
-526,262	-200,000	-0,022	-0,096
-525,248	-136,307	0,060	-0,005
-524,233	-63,155	-0,089	-0,027
-523,218	-200,000	-0,047	-0,269
-522,204	-50,640	0,025	0,008
-521,189	-200,000	-0,006	0,077
-520,175	800,000	0,042	-0,116
-519,160	498,709	-0,027	-0,046
-518,145	473,245	-0,008	0,013
-517,131	800,000	-0,028	-0,083
-516,116	207,800	0,112	0,127
-515,102	-2,997	-0,127	0,065
-514,087	106,580	0,014	0,012
-513,072	-189,962	0,134	0,001
-512,058	800,000	0,055	-0,126
-511,043	603,885	0,009	0,016
-510,029	557,357	0,016	-0,028
-509,014	-72,003	0,033	-0,009
-507,999	-200,000	0,002	-0,146
-506,985	800,000	-0,029	0,062
-505,970	116,697	-0,024	0,022
-504,956	-55,449	-0,050	-0,016
-503,941	800,000	-0,043	-0,092
-502,926	512,497	0,060	0,103
-501,912	-200,000	0,008	0,067
-500,897	-176,010	-0,108	0,002
-499,883	800,000	-0,044	0,102
-498,868	-200,000	0,005	0,077
-497,853	85,869	-0,044	-0,035
-496,839	390,339	-0,059	-0,090
-495,824	310,015	0,015	-0,020
-494,810	58,432	-0,063	0,045
-493,795	477,346	0,026	0,043
-492,781	116,258	-0,060	0,054
-491,766	13,550	-0,049	0,028
-490,751	239,957	-0,104	-0,127
-489,737	-176,429	-0,048	-0,001
-488,722	-150,331	0,021	0,001
-487,708	800,000	-0,040	-0,100
-486,693	298,244	0,023	-0,032
-485,678	-38,351	-0,125	0,048
-484,664	-27,470	-0,109	-0,046
-483,649	-80,374	0,004	-0,001
-482,635	730,024	0,021	-0,042
-481,620	-84,784	0,216	0,049
-480,605	-200,000	0,019	-0,067
-479,591	616,956	0,004	0,007
-478,576	288,200	0,034	0,045
-477,562	303,512	-0,089	-0,120
-476,547	-109,175	-0,084	0,013
-475,532	38,791	0,014	-0,009
-474,518	-105,481	-0,135	-0,022
-473,503	-200,000	0,012	0,097
-472,489	20,046	-0,133	0,078
-471,474	-14,377	0,079	-0,037
-470,459	116,139	-0,077	-0,069
-469,445	-40,298	-0,033	-0,013
-468,430	15,290	-0,230	-0,131
-467,416	-200,000	0,004	-0,059
-466,401	-164,398	0,238	-0,008
-465,386	-5,661	0,051	-0,026
-464,372	-200,000	-0,005	0,080
-463,357	-200,000	-0,019	0,093
-462,343	-65,759	-0,176	-0,051
-461,328	-76,153	-0,124	-0,032
-460,313	-67,082	0,080	-0,023
-459,299	533,022	-0,028	0,048
-458,284	-84,764	0,205	0,047
-457,270	-200,000	-0,015	0,082
-456,255	800,000	0,020	0,058
-455,241	286,872	0,028	0,037
-454,226	-96,035	0,145	0,028
-453,211	-200,000	0,015	0,145
-452,197	6,821	0,105	0,057
-451,182	-33,591	-0,043	0,017
-450,168	800,000	0,050	0,121
-449,153	-45,339	-0,053	-0,019
-448,138	611,417	0,022	0,040
-447,124	-125,530	0,036	-0,004
-446,109	-200,000	0,006	-0,072
-445,095	551,458	-0,066	0,116
-444,080	-200,000	-0,026	0,115
-443,065	-24,361	-0,068	0,029
-442,051	138,782	0,031	0,030
-441,036	87,934	-0,081	-0,065
-440,022	-12,438	0,111	0,053
-439,007	41,063	-0,155	-0,102
-437,992	-94,155	0,185	-0,037
-436,978	257,829	-0,061	-0,077
-435,963	23,796	0,166	0,100
-434,949	-200,000	-0,010	-0,046
-433,934	748,860	-0,032	-0,062
-432,919	-127,524	-0,019	0,002
-431,905	-200,000	0,004	0,035
-430,890	-118,090	0,067	-0,009
-429,876	123,280	0,043	-0,040
-428,861	800,000	0,030	0,081
-427,846	-200,000	0,005	0,094
-426,832	304,022	-0,024	0,033
-425,817	-200,000	-0,010	-0,047
-424,803	-200,000	0,003	-0,028
-423,788	-118,105	0,110	-0,014
-422,773	-200,000	-0,001	-0,029
-421,759	-70,695	0,069	-0,019
-420,744	-160,016	-0,175	-0,007
-419,730	-89,782	0,068	0,014
-418,715	800,000	0,042	-0,098
-417,701	23,982	0,112	-0,067
-416,686	412,682	0,103	0,160
-415,671	-96,094	-0,095	0,018
-414,657	45,495	0,127	0,085
-413,642	-139,249	-0,121	0,009
-412,628	183,897	0,029	0,031
-411,613	-90,466	-0,125	0,026
-410,598	46,216	-0,022	-0,015
-409,584	741,215	-0,021	0,041
-408,569	-86,082	0,107	0,024
-407,555	800,000	-0,012	0,036
-406,540	58,643	-0,045	-0,032
-405,525	800,000	-0,026	-0,064
-404,511	119,499	0,068	0,061
-403,496	-200,000	0,006	-0,103
-402,482	-49,701	0,185	0,064
-401,467	800,000	0,022	0,061
-400,452	-152,231	0,041	0,002
-399,438	-167,923	-0,105	-0,003
-398,423	5,062	-0,063	0,034
-397,409	-200,000	-0,013	0,080
-396,394	-200,000	0,004	0,106
-395,379	-200,000	0,025	-0,121
-394,365	28,651	0,135	0,083
-393,350	-125,100	0,142	-0,016
-392,336	153,472	-0,034	0,034
-391,321	800,000	0,054	-0,137
-390,306	800,000	-0,016	0,032
-389,292	491,094	-0,024	-0,039
-388,277	166,671	-0,096	-0,099
-387,263	612,876	-0,021	0,038
-386,248	26,287	-0,075	0,046
-385,233	244,733	-0,059	-0,073
-384,219	800,000	0,019	0,051
-383,204	-200,000	0,016	-0,054
-382,190	419,617	-0,022	-0,034
-381,175	800,000	0,026	-0,066
-380,160	-188,031	0,116	0,001
-379,146	44,036	0,085	0,056
-378,131	104,229	0,023	-0,020
-377,117	-200,000	-0,017	-0,071
-376,102	-200,000	-0,029	0,121
-375,088	-87,132	-0,095	0,021
-374,073	-200,000	-0,013	0,068
-373,058	-101,041	0,127	-0,022
-372,044	333,733	0,018	0,025
-371,029	-200,000	0,006	0,055
-370,015	800,000	-0,049	-0,102
-369,000	69,501	0,060	0,044
-367,985	-200,000	-0,019	-0,100
-366,971	-92,830	0,055	0,011
-365,956	-141,526	0,106	-0,008
-364,942	316,795	0,063	0,087
-363,927	35,341	0,082	0,052
-362,912	-100,118	0,078	0,014
-361,898	-200,000	-0,018	-0,119
-360,883	-4,504	-0,075	-0,037
-359,869	-200,000	0,009	0,125
-358,854	336,559	0,074	0,105
-357,839	-56,535	0,031	-0,010
-356,825	800,000	0,011	-0,032
-355,810	434,437	0,020	0,032
-354,796	-16,913	-0,049	0,022
-353,781	-80,384	-0,138	0,033
-352,766	12,228	0,075	0,042
-351,752	-114,976	0,156	0,021
-350,737	147,896	-0,058	0,057
-349,723	800,000	0,024	-0,071
-348,708	-200,000	0,015	0,189
-347,693	800,000	0,052	0,115
-346,679	448,558	0,100	-0,161
-345,664	186,507	0,017	0,018
-344,650	62,791	0,084	0,061
-343,635	-200,000	0,025	-0,183
-342,620	-23,573	0,052	0,022
-341,606	-200,000	-0,018	0,129
-340,591	-200,000	0,011	-0,082
-339,577	479,439	0,032	-0,053
-338,562	800,000	-0,041	0,109
-337,548	98,712	0,049	0,041
-336,533	15,597	0,052	0,029
-335,518	45,803	0,128	-0,086
-334,504	-29,151	-0,125	0,052
-333,489	-5,426	-0,066	0,033
-332,475	-79,432	0,016	-0,004
-331,460	-99,269	0,050	0,009
-330,445	-200,000	0,004	0,131
-329,431	-200,000	-0,018	0,087
-328,416	336,814	0,054	0,077
-327,402	161,450	-0,096	0,098
-326,387	18,378	-0,087	-0,051
-325,372	-200,000	-0,025	0,124
-324,358	-105,499	0,093	0,015
-323,343	800,000	0,024	0,068
-322,329	-90,694	-0,160	-0,033
-321,314	-200,000	0,040	0,165
-320,299	64,924	0,036	0,026
-319,285	-141,113	-0,034	0,002
-318,270	-200,000	-0,062	-0,209
-317,256	-113,810	-0,091	-0,013
-316,241	800,000	0,029	0,092
-315,226	35,418	0,010	0,006
-314,212	-200,000	-0,049	0,216
-313,197	-200,000	-0,001	0,062
-312,183	-200,000	0,018	0,078
-311,168	800,000	0,058	-0,122
-310,153	-49,646	-0,111	0,038
-309,139	-200,000	0,019	-0,063
-308,124	-147,043	0,051	0,003
-307,110	800,000	-0,015	0,042
-306,095	-200,000	-0,009	0,145
-305,080	800,000	-0,024	0,071
-304,066	326,280	0,052	0,072
-303,051	183,179	0,124	-0,133
-302,037	529,601	-0,069	0,119
-301,022	-40,909	0,089	-0,033
-300,008	650,753	0,038	0,071
-298,993	800,000	0,023	-0,063
-297,978	159,914	0,105	-0,106
-296,964	-12,293	-0,041	0,019
-295,949	351,602	-0,033	0,048
-294,935	343,330	0,054	0,077
-293,920	-169,244	-0,210	-0,006
-292,905	-14,022	0,125	0,058
-291,891	-18,653	0,127	0,057
-290,876	-42,616	-0,051	-0,019
-289,862	93,854	0,016	0,013
-288,847	-79,083	-0,126	-0,031
-287,832	95,631	-0,092	-0,076
-286,818	-200,000	0,010	0,097
-285,803	27,330	0,072	-0,044
-284,789	91,081	-0,049	-0,040
-283,774	-200,000	-0,001	0,006
-282,759	-200,000	-0,007	-0,097
-281,745	-200,000	-0,001	0,047
-280,730	391,427	0,032	-0,048
-279,716	74,782	-0,067	-0,051
-278,701	-117,937	0,080	0,010
-277,686	575,065	0,076	0,136
-276,672	163,687	0,103	0,105
-275,657	425,191	0,132	-0,207
-274,643	-74,486	0,101	0,026
-273,628	-200,000	-0,002	-0,064
-272,613	327,407	0,064	-0,090
-271,599	800,000	-0,027	-0,081
-270,584	-68,959	0,076	0,021
-269,570	-200,000	-0,002	0,115
-268,555	364,263	-0,050	0,074
-267,540	-38,302	-0,010	0,004
-266,526	800,000	-0,056	-0,161
-265,511	265,127	0,048	-0,060
-264,497	-200,000	-0,051	-0,164
-263,482	800,000	-0,006	0,017
-262,467	-5,177	-0,072	-0,036
-261,453	800,000	0,036	-0,107
-260,438	54,100	0,040	-0,028
-259,424	-40,816	-0,103	-0,038
-258,409	556,665	-0,003	0,005
-257,395	415,246	0,037	0,058
-256,380	-200,000	-0,001	0,070
-255,365	210,863	0,118	0,135
-254,351	-51,177	-0,037	-0,013
-253,336	-83,833	-0,080	-0,018
-252,322	-60,851	-0,100	-0,030
-251,307	489,442	0,026	-0,044
-250,292	13,398	-0,103	0,058
-249,278	741,216	0,021	0,041
-248,263	-193,566	0,121	0,001
-247,249	-68,456	0,014	-0,004
-246,234	157,165	0,079	0,079
-245,219	75,961	0,099	-0,076
-244,205	-200,000	0,005	-0,101
-243,190	800,000	-0,027	0,061
-242,176	178,052	0,071	0,075
-241,161	-116,033	0,123	0,016
-240,146	800,000	-0,055	0,135
-239,132	96,766	0,147	0,122
-238,117	186,167	-0,108	-0,116
-237,103	800,000	0,027	-0,064
-236,088	-200,000	-0,020	-0,077
-235,073	800,000	-0,030	0,093
-234,059	44,004	-0,084	0,055
-233,044	-144,198	0,099	0,007
-232,030	-200,000	-0,002	-0,045
-231,015	657,761	0,105	-0,197
-230,000	-96,190	-0,171	0,032
-228,986	-14,395	0,083	-0,038
-227,971	507,480	-0,040	-0,067
-226,957	-200,000	0,015	0,185
-225,942	-115,845	-0,054	-0,007
-224,927	92,953	-0,088	-0,072
-223,913	778,822	-0,021	0,042
-222,898	-200,000	-0,016	0,053
-221,884	98,500	0,025	0,021
-220,869	-70,146	0,125	-0,034
-219,855	-200,000	-0,018	0,099
-218,840	-200,000	0,037	0,177
-217,825	-64,288	0,060	-0,018
-216,811	141,284	-0,120	-0,115
-215,796	-92,893	0,009	-0,002
-214,782	25,858	-0,060	-0,036
-213,767	-12,358	-0,041	-0,019
-212,752	-23,677	0,117	-0,050
-211,738	800,000	0,053	0,124
-210,723	96,661	0,084	0,070
-209,709	219,272	-0,054	0,063
-208,694	-200,000	-0,021	-0,101
-207,679	10,187	-0,073	-0,040
-206,665	677,860	-0,061	-0,116
-205,650	9,819	0,180	-0,098
-204,636	220,183	0,074	-0,086
-203,621	47,656	0,108	-0,072
-202,606	-200,000	0,014	0,057
-201,592	-200,000	-0,009	-0,045
-200,577	-200,000	-0,017	-0,175
-199,563	-200,000	-0,012	-0,061
-198,548	-136,717	-0,131	0,011
-197,533	41,189	0,042	0,027
-196,519	-200,000	-0,010	-0,054
-195,504	42,346	-0,026	0,017
-194,490	87,290	-0,151	-0,120
-193,475	31,564	-0,173	-0,107
-192,460	-200,000	-0,018	-0,129
-191,446	-200,000	0,001	0,011
-190,431	-200,000	0,001	0,148
-189,417	-200,000	-0,006	0,064
-188,402	744,218	-0,048	0,093
-187,387	330,444	-0,067	0,094
-186,373	-200,000	0,018	-0,110
-185,358	103,928	0,048	0,040
-184,344	345,872	0,072	0,103
-183,329	-82,043	0,035	-0,008
-182,315	55,161	-0,067	0,047
-181,300	-69,103	0,039	0,011
-180,285	430,256	0,011	0,017
-179,271	-142,669	0,082	0,006
-178,256	-102,096	0,038	-0,007
-177,242	-67,108	0,101	0,028
-176,227	199,477	-0,042	-0,047
-175,212	479,844	-0,050	0,082
-174,198	-43,419	-0,123	-0,044
-173,183	144,152	0,034	-0,033
-172,169	386,336	-0,057	0,085
-171,154	40,747	0,073	-0,047
-170,139	-21,334	0,120	-0,053
-169,125	800,000	0,047	-0,131
-168,110	228,076	0,079	-0,092
-167,096	140,647	0,074	0,070
-166,081	-18,313	-0,128	-0,058
-165,066	-151,696	-0,104	-0,005
-164,052	252,785	0,041	-0,050
-163,037	-200,000	-0,013	-0,078
-162,023	-200,000	0,022	-0,107
-161,008	-49,105	-0,051	0,017
-159,993	800,000	-0,027	0,060
-158,979	322,147	-0,063	-0,087
-157,964	-149,229	-0,086	-0,005
-156,950	800,000	-0,040	0,100
-155,935	293,808	0,040	0,052
-154,920	-31,297	0,077	-0,031
-153,906	-80,346	0,030	0,007
-152,891	36,871	-0,076	0,048
-151,877	800,000	-0,016	0,042
-150,862	-200,000	-0,041	0,138
-149,847	-117,998	0,113	0,014
-148,833	-54,991	-0,075	-0,024
-147,818	98,509	0,081	-0,067
-146,804	18,269	0,058	0,033
-145,789	115,490	-0,069	-0,061
-144,775	800,000	-0,012	-0,027
-143,760	-200,000	-0,014	-0,053
-142,745	-200,000	-0,034	-0,160
-141,731	-32,241	-0,034	-0,014
-140,716	-200,000	0,017	0,097
-139,702	800,000	-0,050	0,103
-138,687	-200,000	-0,006	0,071
-137,672	-200,000	0,033	-0,128
-136,658	-200,000	-0,007	-0,085
-135,643	278,360	0,037	0,048
-134,629	36,100	0,116	-0,074
-133,614	87,113	0,077	0,061
-132,599	-139,990	-0,116	-0,009
-131,585	578,458	-0,051	0,090
-130,570	123,031	-0,030	-0,027
-129,556	180,142	0,063	0,066
-128,541	246,949	-0,008	0,010
-127,526	-200,000	-0,008	0,105
-126,512	569,255	0,016	0,028
-125,497	-52,836	0,053	0,017
-124,483	578,592	0,010	0,019
-123,468	641,624	0,001	0,002
-122,453	-81,240	-0,181	-0,043
-121,439	-200,000	-0,014	-0,138
-120,424	313,943	0,037	0,050
-119,410	-26,654	-0,057	-0,024
-118,395	-24,608	-0,049	0,021
-117,380	304,657	0,050	-0,067
-116,366	-200,000	0,001	0,008
-115,351	122,758	0,009	0,008
-114,337	57,447	-0,048	0,034
-113,322	103,544	0,013	0,011
-112,307	68,234	0,014	0,010
-111,293	800,000	-0,035	0,093
-110,278	-65,924	0,084	0,024
-109,264	-69,223	0,035	0,009
-108,249	-31,492	0,060	-0,024
-107,234	-200,000	-0,024	-0,080
-106,220	800,000	0,038	0,076
-105,205	92,356	0,101	0,082
-104,191	15,540	-0,058	0,032
-103,176	800,000	-0,039	-0,087
-102,162	93,199	0,047	-0,038
-101,147	-68,423	0,021	0,006
-100,132	490,264	-0,077	-0,127
-99,118	-96,507	-0,055	0,010
-98,103	173,849	0,060	0,062
-97,089	-200,000	0,024	0,105
-96,074	619,999	0,033	-0,059
-95,059	582,165	-0,040	0,070
-94,045	315,563	-0,071	-0,096
-93,030	800,000	-0,037	0,105
-92,016	162,285	-0,012	0,012
-91,001	800,000	0,021	0,054
-89,986	361,221	0,054	0,077
-88,972	125,208	0,011	0,010
-87,957	20,042	-0,039	-0,023
-86,943	-200,000	0,020	-0,100
-85,928	209,947	-0,065	0,074
-84,913	800,000	0,035	0,073
-83,899	32,510	-0,004	-0,002
-82,884	-53,085	-0,201	0,066
-81,870	-131,181	0,098	-0,009
-80,855	58,394	0,102	0,072
-79,840	800,000	-0,063	-0,166
-78,826	30,430	-0,100	-0,061
-77,811	241,856	0,074	-0,090
-76,797	800,000	-0,040	-0,118
-75,782	-102,061	0,148	-0,025
-74,767	-200,000	0,006	-0,066
-73,753	-200,000	-0,010	0,050
-72,738	33,638	-0,063	-0,039
-71,724	-200,000	-0,004	-0,014
-70,709	-200,000	-0,013	-0,068
-69,694	-129,005	0,048	-0,005
-68,680	-134,993	0,165	0,014
-67,665	-36,466	0,086	0,033
-66,651	2,082	-0,130	0,067
-65,636	-200,000	0,007	-0,085
-64,622	-200,000	-0,007	0,027
-63,607	-119,277	-0,070	-0,009
-62,592	-38,890	-0,084	0,032
-61,578	-25,108	-0,038	-0,016
-60,563	10,453	0,173	0,094
-59,549	576,716	0,035	0,062
-58,534	100,105	-2,483	-2,066
-57,519	65,181	0,375	-0,272
-56,505	-200,000	-1,682	-5,477
-55,490	463,686	1,287	2,072
-54,476	800,000	5,220	11,195
-53,461	-200,000	22,092	346,251
-52,446	800,000	759,520	2297,874
-51,432	515,717	1646,028	2770,100
-50,417	98,488	1610,481	1331,872
-49,403	66,474	1267,192	923,302
-48,388	23,374	1018,111	599,097
-47,373	19,273	985,079	566,112
-46,359	12,941	972,184	537,963
-45,344	8,667	968,816	522,078
-44,330	9,144	966,958	522,618
-43,315	8,173	965,075	518,406
-42,300	8,108	964,011	517,600
-41,286	8,071	963,043	516,941
-40,271	8,046	962,099	516,332
-39,257	8,056	961,099	515,809
-38,242	8,142	960,004	515,479
-37,227	8,039	959,553	514,882
-36,213	8,042	958,707	514,416
-35,198	8,030	957,886	513,915
-34,184	8,127	956,823	513,641
-33,169	8,056	956,096	513,000
-32,154	8,166	955,130	512,816
-31,140	8,146	954,243	512,256
-30,125	8,137	953,450	511,782
-29,111	8,159	952,595	511,373
-28,096	8,050	952,163	510,768
-27,082	8,042	951,334	510,278
-26,067	8,040	950,710	509,917
-25,052	8,031	949,801	509,380
-24,038	8,050	949,017	509,001
-23,023	8,000	948,543	508,566
-22,009	8,075	947,834	508,406
-20,994	8,062	947,387	508,105
-19,979	8,065	946,726	507,738
-18,965	8,097	945,953	507,407
-17,950	8,088	945,472	507,099
-16,936	8,049	944,775	506,580
-15,921	8,048	943,952	506,115
-14,906	7,954	943,372	505,486
-13,892	7,997	942,637	505,210
-12,877	7,981	941,946	504,769
-11,863	7,954	941,509	504,429
-10,848	7,934	941,022	504,082
-9,833	8,031	940,624	504,157
-8,819	8,025	939,709	503,629
-7,804	7,960	939,089	503,069
-6,790	7,988	938,603	502,880
-5,775	8,006	938,016	502,601
-4,760	8,035	937,293	502,286
-3,746	7,928	937,118	501,834
-2,731	7,827	936,201	501,001
-1,717	7,845	935,450	500,637
-0,702	7,827	934,841	500,233
0,313	7,648	934,241	500,102
1,327	11,085	931,841	509,612
2,342	19,777	780,366	449,563
3,356	14,866	448,537	250,974
4,371	-11,251	312,952	147,302
5,386	-14,855	295,536	135,442
6,400	-16,968	289,276	130,465
7,415	-17,412	286,730	128,868
8,429	-18,070	284,784	127,339
9,444	-18,338	283,998	126,715
10,459	-18,081	283,343	126,662
11,473	-18,081	282,645	126,339
12,488	-18,124	282,131	126,056
13,502	-18,146	281,746	125,851
14,517	-18,204	281,379	125,621
15,531	-18,334	280,752	125,204
16,546	-18,182	280,351	125,160
17,561	-18,167	279,934	124,977
18,575	-17,970	279,528	124,974
19,590	-18,153	279,226	124,652
20,604	-18,170	278,900	124,479
21,619	-18,276	278,719	124,286
22,634	-18,171	278,277	124,178
23,648	-18,165	278,054	124,073
24,663	-18,174	277,792	123,937
25,677	-18,098	277,500	123,867
26,692	-18,128	277,167	123,679
27,707	-18,079	276,847	123,572
28,721	-18,113	276,654	123,443
29,736	-18,234	276,231	123,129
30,750	-18,224	276,172	123,101
31,765	-18,125	275,852	123,041
32,780	-17,897	275,406	123,046
33,794	-18,219	275,387	122,723
34,809	-17,996	275,041	122,767
35,823	-18,022	274,797	122,623
36,838	-18,089	274,515	122,424
37,853	-18,176	274,234	122,206
38,867	-18,255	274,128	122,073
39,882	-18,100	273,759	122,043
40,896	-18,051	273,503	121,964
41,911	-18,144	273,290	121,771
42,926	-18,275	273,092	121,550
43,940	-18,154	272,808	121,526
44,955	-18,144	272,562	121,414
45,969	-18,151	272,297	121,279
46,984	-17,963	272,156	121,380
47,999	-18,185	272,057	121,119
49,013	-18,138	271,691	120,989
50,028	-18,082	271,534	120,960
51,042	-18,090	271,196	120,791
52,057	-18,114	271,064	120,699
53,071	-18,015	270,797	120,661
54,086	-18,143	270,645	120,464
55,101	-18,000	270,362	120,460
56,115	-17,871	270,064	120,435
57,130	-18,015	269,861	120,201
58,144	-18,049	269,712	120,094
59,159	-18,274	269,296	119,690
60,174	-18,162	269,112	119,701
61,188	-18,261	269,057	119,574
62,203	-18,183	268,666	119,462
63,217	-17,978	268,520	119,574
64,232	-18,102	268,097	119,261
65,247	-18,114	268,094	119,238
66,261	-18,160	267,525	118,933
67,276	-18,045	267,400	118,971
68,290	-18,084	267,362	118,909
69,305	-18,015	267,094	118,842
70,320	-17,854	266,794	118,844
71,334	-18,039	266,730	118,637
72,349	-18,082	266,399	118,439
73,363	-18,073	266,183	118,341
74,378	-18,036	265,992	118,280
75,393	-17,982	265,742	118,207
76,407	-18,084	265,576	118,030
77,422	-18,149	265,263	117,821
78,436	-18,096	265,197	117,829
79,451	-17,983	264,748	117,722
80,466	-18,048	264,454	117,522
81,480	-18,188	264,341	117,335
82,495	-18,005	263,999	117,337
83,509	-18,181	263,973	117,157
84,524	-18,097	263,774	117,134
85,539	-18,016	263,451	117,053
86,553	-18,189	263,528	116,921
87,568	-17,956	263,143	116,948
88,582	-18,026	262,771	116,710
89,597	-18,139	262,651	116,545
90,611	-18,042	262,421	116,520
91,626	-17,948	262,313	116,545
92,641	-17,879	261,974	116,446
93,655	-18,082	261,738	116,150
94,670	-18,222	261,764	116,026
95,684	-17,983	261,414	116,074
96,699	-17,995	261,142	115,931
97,714	-18,025	261,035	115,847
98,728	-18,094	260,856	115,697
99,743	-18,007	260,647	115,671
100,757	-17,976	260,480	115,613
101,772	-17,968	260,175	115,475
102,787	-18,080	260,057	115,313
103,801	-18,065	259,841	115,220
104,816	-18,038	259,604	115,129
105,830	-18,137	259,351	114,919
106,845	-18,064	259,238	114,923
107,860	-18,035	259,001	114,833
108,874	-18,110	258,703	114,625
109,889	-18,033	258,626	114,648
110,903	-17,926	258,324	114,598
111,918	-17,969	258,150	114,473
112,933	-17,945	258,042	114,436
113,947	-17,894	257,714	114,325
114,962	-18,021	257,571	114,140
115,976	-18,139	257,530	114,009
116,991	-18,077	257,139	113,879
118,006	-18,106	257,034	113,797
119,020	-17,858	256,766	113,885
120,035	-18,036	256,702	113,691
121,049	-18,082	256,453	113,530
122,064	-18,043	256,181	113,434
123,079	-18,121	256,246	113,385
124,093	-17,904	255,879	113,401
125,108	-18,011	255,517	113,137
126,122	-17,953	255,295	113,080
127,137	-17,943	255,258	113,062
128,151	-17,992	255,248	113,005
129,166	-17,982	254,941	112,867
130,181	-17,908	254,674	112,803
131,195	-17,810	254,250	112,689
132,210	-17,995	254,207	112,501
133,224	-17,939	254,003	112,448
134,239	-17,889	253,784	112,385
135,254	-17,962	253,551	112,209
136,268	-17,969	253,533	112,185
137,283	-17,992	253,240	112,026
138,297	-17,934	253,127	112,015
139,312	-17,889	252,783	111,892
140,327	-17,986	252,622	111,727
141,341	-18,059	252,558	111,627
142,356	-17,788	252,061	111,629
143,370	-17,927	252,108	111,521
144,385	-18,032	252,015	111,380
145,400	-17,922	251,647	111,301
146,414	-17,864	251,504	111,277
147,429	-17,764	251,207	111,221
148,443	-17,938	251,085	111,009
149,458	-17,954	251,046	110,968
150,473	-17,849	250,857	110,964
151,487	-17,826	250,461	110,798
152,502	-17,956	250,365	110,636
153,516	-17,726	250,054	110,683
154,531	-17,900	249,917	110,466
155,546	-18,039	249,804	110,288
156,560	-17,877	249,603	110,326
157,575	-17,804	249,428	110,301
158,589	-17,755	249,167	110,217
159,604	-17,757	248,981	110,124
160,619	-17,847	248,900	110,002
161,633	-17,845	248,728	109,918
162,648	-17,896	248,460	109,747
163,662	-17,903	248,452	109,727
164,677	-17,837	248,312	109,711
165,692	-17,873	248,017	109,541
166,706	-17,849	247,882	109,491
167,721	-18,003	247,609	109,233
168,735	-17,876	247,678	109,359
169,750	-17,764	247,354	109,301
170,764	-17,749	247,155	109,216
171,779	-17,895	247,097	109,058
172,794	-17,636	246,833	109,148
173,808	-17,839	246,558	108,847
174,823	-17,664	246,494	108,956
175,837	-17,809	246,373	108,771
176,852	-17,852	246,384	108,730
177,867	-17,795	246,090	108,638
178,881	-17,820	245,816	108,487
179,896	-17,544	245,589	108,606
180,910	-18,093	245,615	108,153
181,925	-17,948	245,338	108,141
182,940	-17,742	245,126	108,208
183,954	-17,777	244,934	108,085
184,969	-17,728	244,815	108,064
185,983	-17,987	244,737	107,805
186,998	-17,828	244,554	107,846
188,013	-17,963	244,422	107,667
189,027	-17,504	243,976	107,839
190,042	-17,800	243,962	107,580
191,056	-17,597	243,745	107,641
192,071	-17,827	243,682	107,415
193,086	-17,677	243,363	107,388
194,100	-17,824	243,230	107,198
195,115	-17,670	243,009	107,218
196,129	-17,667	242,763	107,103
197,144	-17,853	242,558	106,851
198,159	-17,781	242,403	106,831
199,173	-17,865	242,368	106,738
200,188	-17,848	242,084	106,617
201,202	-17,678	241,935	106,681
202,217	-17,799	241,851	106,536
203,232	-17,765	241,667	106,473
204,246	-17,612	241,407	106,474
205,261	-17,740	241,338	106,329
206,275	-16,143	241,943	107,889
207,290	-10,767	243,670	113,059
208,304	-5,141	245,380	118,482
209,319	-3,147	245,827	120,331
210,334	-2,540	245,933	120,873
211,348	-1,888	246,138	121,499
212,363	-1,117	246,178	122,144
213,377	-0,401	246,295	122,782
214,392	0,058	246,292	123,146
215,407	0,453	246,141	123,385
216,421	0,688	246,009	123,501
217,436	0,502	245,954	123,310
218,450	0,363	245,826	123,121
219,465	0,691	245,683	123,308
220,480	0,776	245,452	123,250
221,494	0,592	245,204	122,964
222,509	0,212	245,057	122,568
223,523	0,106	244,913	122,398
224,538	0,164	244,550	122,254
225,553	-0,007	244,467	122,061
226,567	-0,124	244,337	121,890
227,582	0,077	244,183	121,966
228,596	-0,053	243,967	121,742
229,611	0,008	243,842	121,718
230,626	0,162	243,439	121,631
231,640	0,037	243,477	121,538
232,655	-0,130	243,290	121,297
233,669	0,068	243,146	121,376
234,684	0,216	242,933	121,379
235,699	-0,187	242,898	121,024
236,713	0,055	242,645	121,083
237,728	0,087	242,568	121,060
238,742	-0,017	242,258	120,810
239,757	0,042	242,028	120,733
240,772	0,021	241,907	120,644
241,786	-0,149	241,923	120,505
242,801	0,224	241,703	120,684
243,815	-0,121	241,624	120,356
244,830	-0,089	241,468	120,293
245,844	0,040	241,216	120,261
246,859	0,066	241,054	120,191
247,874	-0,128	241,044	120,019
248,888	0,166	240,768	120,106
249,903	0,230	240,482	120,005
250,917	0,040	240,457	119,829
251,932	0,225	240,293	119,885
252,947	0,212	240,125	119,780
253,961	0,112	239,993	119,624
254,976	-0,118	239,859	119,362
255,990	-0,007	239,684	119,353
257,005	0,109	239,642	119,415
258,020	0,125	239,387	119,289
259,034	0,185	239,052	119,160
260,049	0,180	238,968	119,103
261,063	0,027	238,895	118,935
262,078	0,166	238,627	118,900
263,093	0,229	238,465	118,860
264,107	-0,084	238,500	118,618
265,122	0,040	238,300	118,606
266,136	0,286	238,161	118,721
267,151	0,225	237,782	118,474
268,166	0,206	237,745	118,429
269,180	-0,067	237,678	118,169
270,195	0,023	237,450	118,117
271,209	0,045	237,473	118,135
272,224	0,086	237,077	117,960
273,239	-0,069	237,158	117,868
274,253	-0,053	236,947	117,765
275,268	0,165	236,784	117,845
276,282	0,199	236,548	117,744
277,297	0,308	236,279	117,685
278,312	0,072	236,310	117,505
279,326	0,259	236,073	117,523
280,341	0,124	235,990	117,365
281,355	0,454	235,760	117,499
282,370	0,188	235,649	117,225
283,384	0,163	235,503	117,122
284,399	0,137	235,418	117,049
285,414	0,129	235,170	116,909
286,428	0,208	235,150	116,950
287,443	0,299	234,944	116,908
288,457	0,160	234,745	116,691
289,472	0,275	234,577	116,686
290,487	0,142	234,490	116,529
291,501	0,280	234,406	116,584
292,516	0,324	234,151	116,481
293,530	0,306	234,011	116,387
294,545	0,625	233,733	116,486
295,560	0,391	233,772	116,314
296,574	0,331	233,564	116,153
297,589	0,253	233,408	116,005
298,603	0,513	233,297	116,141
299,618	0,307	233,153	115,900
300,633	0,304	233,121	115,871
301,647	0,310	233,003	115,807
302,662	0,296	232,697	115,633
303,676	0,370	232,673	115,668
304,691	0,403	232,358	115,527
305,706	0,281	232,354	115,420
306,720	0,406	232,132	115,396
307,735	0,290	232,008	115,235
308,749	0,572	231,878	115,377
309,764	0,360	231,733	115,131
310,779	0,545	231,554	115,174
311,793	0,306	231,345	114,877
312,808	0,468	231,094	114,866
313,822	0,334	231,072	114,742
314,837	0,343	230,937	114,672
315,852	0,437	230,836	114,684
316,866	0,368	230,630	114,518
317,881	0,527	230,629	114,629
318,895	0,408	230,451	114,439
319,910	0,499	230,280	114,414
320,925	0,478	229,951	114,224
321,939	0,556	229,961	114,278
322,954	0,523	229,907	114,216
323,968	0,570	229,608	114,093
324,983	0,488	229,455	113,945
325,997	0,325	229,326	113,746
327,012	0,501	229,218	113,816
328,027	0,492	229,105	113,743
329,041	0,341	229,029	113,581
330,056	0,600	228,599	113,554
331,070	0,613	228,585	113,546
332,085	0,543	228,484	113,433
333,100	0,521	228,433	113,381
334,114	0,355	228,134	113,097
335,129	0,169	228,144	112,952
336,143	0,545	227,814	113,061
337,158	0,583	227,750	113,048
338,173	0,673	227,582	113,023
339,187	0,661	227,407	112,917
340,202	0,667	227,335	112,875
341,216	0,427	227,291	112,663
342,231	0,336	227,088	112,484
343,246	0,536	227,048	112,604
344,260	0,652	226,673	112,495
345,275	0,734	226,719	112,570
346,289	0,492	226,613	112,325
347,304	0,532	226,444	112,262
348,319	0,588	226,093	112,120
349,333	0,446	225,957	111,936
350,348	0,474	225,939	111,938
351,362	0,692	225,752	111,998
352,377	0,698	225,537	111,885
353,392	0,642	225,437	111,784
354,406	0,504	225,286	111,597
355,421	192,559	1312,001	1378,866
356,435	154,254	1444,256	1378,710
