DTS Sentinel unit serial number:	SN410029Multiplexer serial number:	ORYXHardware model number:	OX2-SRSoftware version number:	ORYX F/W v4,00 Oryx Data Collector v3.7.2.0data status	okinstallation	B5 Nyhavnadifferential loss correction	single-endedforward channel	channel 2reverse channel	N/Adate	2023/12/14time	00:17:13forward acquisition time	300,00reverse acquisition time	0,00gamma	499,1914k internal	0,3155k external	0,3155temperature offset calibration	1,0000default loss term (dB/km)	0,3820temperature slope calibration	1,0000multiplexer offset coefficient	1,0000multiplexer slope coefficient	1,0000fibre end	0,00T internal ref (°C)	8,68T ext. ref 1 (°C)	-7,45T ext. ref 2 (°C)	-7,49length (m)	temperature (°C)	Stokes	anti-Stokes-744,400	-110,011	0,271	0,041
-743,385	-43,462	-0,306	-0,113
-742,371	32,377	0,229	0,146
-741,356	-135,839	-0,435	0,037
-740,342	131,451	0,102	0,096
-739,327	-94,080	-0,338	-0,068
-738,312	235,206	0,150	0,183
-737,298	-90,683	-0,363	-0,077
-736,283	-193,498	0,071	0,000
-735,269	-116,735	-0,201	-0,027
-734,254	-200,000	-0,012	0,071
-733,239	-71,524	-0,554	-0,152
-732,225	-107,434	0,147	0,024
-731,210	523,142	-0,076	0,132
-730,196	-8,632	-0,013	0,006
-729,181	-113,126	-0,144	-0,021
-728,167	9,164	-0,011	-0,006
-727,152	-200,000	0,003	0,079
-726,137	-140,198	-0,146	-0,011
-725,123	51,196	-0,127	-0,089
-724,108	62,809	-0,103	-0,076
-723,094	-200,000	0,026	-0,182
-722,079	-200,000	-0,006	-0,111
-721,064	97,739	0,015	-0,013
-720,050	-151,647	-0,042	-0,002
-719,035	277,758	0,053	0,069
-718,021	3,656	0,063	-0,034
-717,006	197,584	-0,107	0,121
-715,991	800,000	-0,039	-0,101
-714,977	-78,336	-0,038	0,010
-713,962	243,939	-0,043	-0,053
-712,948	-15,337	-0,041	0,019
-711,933	-200,000	0,001	-0,033
-710,918	800,000	0,039	0,089
-709,904	625,834	0,049	-0,092
-708,889	-200,000	-0,031	-0,192
-707,875	-68,830	-0,170	0,048
-706,860	45,972	0,063	-0,043
-705,845	-200,000	-0,003	0,211
-704,831	16,588	0,144	-0,084
-703,816	-200,000	-0,017	-0,136
-702,802	574,643	0,013	0,024
-701,787	69,402	-0,088	-0,067
-700,772	800,000	0,015	0,043
-699,758	52,212	0,081	-0,057
-698,743	800,000	0,027	0,062
-697,729	92,672	-0,135	0,112
-696,714	233,571	0,006	0,007
-695,699	800,000	0,010	0,021
-694,685	231,502	-0,125	0,152
-693,670	564,831	0,078	-0,140
-692,656	-130,219	-0,036	-0,004
-691,641	101,080	0,040	-0,034
-690,627	-9,396	0,081	0,040
-689,612	-200,000	-0,009	0,119
-688,597	-200,000	0,020	-0,111
-687,583	30,137	0,060	0,038
-686,568	54,642	-0,068	-0,048
-685,554	-200,000	-0,011	-0,163
-684,539	518,863	0,087	0,150
-683,524	-98,784	0,082	-0,015
-682,510	-200,000	-0,005	-0,021
-681,495	-24,783	-0,023	-0,010
-680,481	-200,000	-0,007	-0,057
-679,466	-109,647	-0,042	-0,006
-678,451	93,924	-0,050	-0,041
-677,437	63,966	0,057	0,042
-676,422	-30,390	-0,046	-0,019
-675,408	-57,836	-0,050	0,016
-674,393	42,556	-0,038	-0,026
-673,378	800,000	0,024	-0,071
-672,364	55,570	-0,054	-0,039
-671,349	800,000	0,035	0,099
-670,335	-200,000	0,028	0,183
-669,320	-200,000	0,012	0,048
-668,305	347,449	0,097	0,141
-667,291	152,386	-0,028	0,028
-666,276	-101,409	-0,242	0,043
-665,262	335,236	-0,039	-0,056
-664,247	116,038	0,026	0,023
-663,232	-43,809	-0,147	-0,054
-662,218	-160,910	0,096	0,004
-661,203	-50,150	-0,048	-0,017
-660,189	418,759	-0,035	0,055
-659,174	-200,000	-0,012	-0,169
-658,159	-115,712	-0,102	-0,014
-657,145	800,000	-0,038	-0,081
-656,130	-98,839	-0,009	0,002
-655,116	216,931	0,094	0,111
-654,101	145,515	0,036	0,036
-653,086	-124,025	0,066	0,008
-652,072	595,200	0,012	0,022
-651,057	256,805	-0,083	-0,105
-650,043	-65,404	-0,173	0,051
-649,028	17,858	-0,111	-0,065
-648,014	-200,000	-0,009	0,108
-646,999	145,185	0,022	0,022
-645,984	361,553	-0,072	-0,106
-644,970	269,828	-0,020	-0,026
-643,955	331,304	-0,125	-0,177
-642,941	442,509	-0,081	-0,131
-641,926	-200,000	-0,008	0,058
-640,911	277,888	-0,096	0,126
-639,897	511,262	-0,078	0,134
-638,882	-200,000	-0,028	-0,131
-637,868	-200,000	-0,023	-0,121
-636,853	13,661	-0,116	-0,066
-635,838	800,000	-0,012	-0,028
-634,824	655,439	0,015	0,029
-633,809	-196,645	-0,052	-0,000
-632,795	-170,728	0,074	0,002
-631,780	138,312	0,024	0,023
-630,765	408,254	-0,040	0,062
-629,751	-129,399	-0,133	-0,013
-628,736	-196,479	0,001	0,000
-627,722	-55,568	0,137	-0,045
-626,707	8,079	0,066	-0,036
-625,692	97,945	0,065	-0,055
-624,678	-200,000	-0,011	0,053
-623,663	81,214	-0,052	-0,041
-622,649	-200,000	-0,023	-0,124
-621,634	-178,208	-0,130	-0,002
-620,619	626,877	-0,054	0,101
-619,605	-109,701	0,054	0,008
-618,590	-200,000	0,025	-0,083
-617,576	-122,920	0,101	0,012
-616,561	-32,759	-0,023	0,009
-615,546	76,689	-0,081	0,063
-614,532	-92,511	-0,055	0,011
-613,517	229,807	-0,038	-0,046
-612,503	800,000	-0,022	0,060
-611,488	163,053	0,063	-0,065
-610,474	-196,437	0,068	0,000
-609,459	86,096	0,037	0,030
-608,444	315,341	0,044	0,061
-607,430	800,000	0,060	0,150
-606,415	263,972	-0,063	0,080
-605,401	-115,938	0,078	0,011
-604,386	-9,966	-0,086	-0,042
-603,371	-84,474	0,064	0,015
-602,357	226,297	-0,080	0,096
-601,342	78,129	0,053	0,041
-600,328	-89,345	-0,044	-0,009
-599,313	-62,875	-0,050	0,015
-598,298	-75,298	-0,112	-0,029
-597,284	-66,633	0,067	0,019
-596,269	-200,000	0,022	-0,147
-595,255	800,000	-0,019	0,059
-594,240	-200,000	-0,006	-0,123
-593,225	-124,749	-0,085	0,010
-592,211	-43,649	0,075	-0,028
-591,196	497,370	-0,054	0,092
-590,182	-32,677	0,110	-0,045
-589,167	203,162	-0,033	0,037
-588,152	800,000	0,005	-0,016
-587,138	-15,386	0,061	0,028
-586,123	666,877	0,032	0,061
-585,109	-200,000	-0,002	-0,112
-584,094	-107,190	0,034	-0,005
-583,079	-200,000	-0,005	0,048
-582,065	48,973	0,023	-0,016
-581,050	800,000	-0,025	-0,070
-580,036	800,000	-0,015	-0,036
-579,021	163,663	0,077	0,079
-578,006	-146,389	0,154	0,010
-576,992	242,622	0,014	-0,018
-575,977	-200,000	0,000	-0,016
-574,963	-200,000	0,010	0,076
-573,948	516,657	-0,030	0,051
-572,934	128,709	-0,030	-0,028
-571,919	800,000	-0,029	-0,093
-570,904	-200,000	-0,005	-0,123
-569,890	800,000	-0,040	-0,123
-568,875	-200,000	0,030	-0,160
-567,861	800,000	-0,054	0,158
-566,846	11,112	-0,112	-0,063
-565,831	765,895	0,031	0,063
-564,817	-39,691	-0,140	-0,053
-563,802	537,343	0,048	0,083
-562,788	-159,758	0,032	0,001
-561,773	-200,000	0,041	-0,167
-560,758	-138,794	0,211	0,017
-559,744	-120,826	0,156	-0,019
-558,729	800,000	-0,041	-0,102
-557,715	310,020	-0,022	-0,030
-556,700	-58,012	-0,071	-0,022
-555,685	-200,000	-0,018	-0,134
-554,671	15,818	-0,127	0,073
-553,656	-200,000	0,016	0,068
-552,642	504,987	-0,023	0,039
-551,627	0,146	-0,079	-0,041
-550,612	800,000	0,012	-0,027
-549,598	-109,389	-0,193	-0,030
-548,583	44,466	-0,096	0,065
-547,569	399,701	-0,022	0,033
-546,554	114,744	0,078	0,070
-545,539	65,668	-0,024	0,017
-544,525	637,810	0,044	0,082
-543,510	-146,645	-0,081	0,005
-542,496	-100,605	-0,112	-0,020
-541,481	-105,394	0,052	0,009
-540,466	-104,064	0,043	-0,007
-539,452	800,000	-0,033	-0,074
-538,437	800,000	0,023	0,047
-537,423	143,055	-0,087	-0,084
-536,408	-200,000	-0,006	-0,102
-535,393	-52,798	-0,037	-0,012
-534,379	2,748	-0,045	-0,024
-533,364	-200,000	-0,002	-0,021
-532,350	800,000	-0,035	0,096
-531,335	-42,913	0,049	0,018
-530,321	-200,000	-0,020	0,134
-529,306	800,000	-0,033	0,088
-528,291	-124,886	-0,141	-0,016
-527,277	598,887	0,037	-0,067
-526,262	-200,000	-0,004	-0,145
-525,248	800,000	-0,029	-0,064
-524,233	-200,000	-0,021	0,114
-523,218	800,000	-0,016	-0,037
-522,204	-200,000	0,020	0,145
-521,189	-68,067	-0,141	-0,040
-520,175	-200,000	0,018	-0,130
-519,160	-200,000	-0,013	0,115
-518,145	500,142	-0,024	0,041
-517,131	-85,012	0,046	-0,010
-516,116	444,245	-0,039	-0,063
-515,102	389,053	-0,090	-0,137
-514,087	-200,000	-0,017	-0,064
-513,072	296,864	0,066	-0,089
-512,058	-200,000	0,011	0,145
-511,043	108,894	0,059	-0,051
-510,029	151,371	-0,078	0,078
-509,014	7,865	0,123	0,067
-507,999	113,367	-0,097	0,086
-506,985	-200,000	-0,054	-0,219
-505,970	397,725	-0,080	-0,122
-504,956	800,000	-0,028	-0,065
-503,941	800,000	0,085	-0,240
-502,926	686,287	0,055	0,106
-501,912	-110,053	0,065	-0,010
-500,897	-200,000	0,005	-0,084
-499,883	-109,980	-0,064	0,010
-498,868	188,523	-0,113	-0,124
-497,853	800,000	-0,035	0,095
-496,839	9,275	-0,107	0,059
-495,824	173,013	0,063	-0,067
-494,810	113,054	-0,001	0,001
-493,795	670,306	-0,030	-0,057
-492,781	437,082	-0,081	0,129
-491,766	246,329	-0,031	-0,038
-490,751	154,881	-0,110	-0,111
-489,737	458,577	-0,046	0,075
-488,722	205,835	0,015	-0,017
-487,708	800,000	0,006	-0,015
-486,693	57,431	-0,118	-0,084
-485,678	156,317	0,045	-0,045
-484,664	232,012	0,026	-0,031
-483,649	85,065	0,081	-0,065
-482,635	318,921	-0,050	0,070
-481,620	46,657	0,086	0,058
-480,605	-40,202	0,058	0,022
-479,591	548,619	0,072	-0,126
-478,576	-33,688	0,034	0,014
-477,562	-48,558	0,100	0,035
-476,547	48,884	-0,129	-0,088
-475,532	117,322	-0,119	0,107
-474,518	-39,762	0,103	-0,039
-473,503	-81,502	-0,059	-0,014
-472,489	800,000	-0,021	0,044
-471,474	-139,703	-0,161	-0,012
-470,459	-50,494	0,125	0,043
-469,445	-200,000	-0,005	0,041
-468,430	418,947	-0,030	0,047
-467,416	800,000	0,075	0,189
-466,401	125,861	0,152	0,141
-465,386	501,976	0,016	-0,028
-464,372	-200,000	-0,011	0,090
-463,357	-142,482	-0,064	0,005
-462,343	72,990	0,025	-0,019
-461,328	53,024	-0,057	-0,040
-460,313	58,528	-0,091	0,065
-459,299	-174,226	-0,038	-0,001
-458,284	68,151	0,148	0,110
-457,270	-200,000	0,003	0,066
-456,255	-137,409	-0,131	0,011
-455,241	128,694	-0,061	-0,056
-454,226	157,442	0,087	-0,088
-453,211	97,122	-0,067	-0,056
-452,197	-67,261	-0,086	0,025
-451,182	-76,130	-0,075	-0,019
-450,168	-127,034	0,098	-0,010
-449,153	-35,689	0,114	-0,045
-448,138	641,032	0,034	-0,063
-447,124	24,257	-0,092	-0,055
-446,109	260,677	0,052	0,066
-445,095	174,401	-0,044	-0,047
-444,080	-200,000	0,002	-0,016
-443,065	152,161	0,033	-0,033
-442,051	-15,657	0,079	-0,036
-441,036	50,047	0,023	0,016
-440,022	-128,025	-0,039	0,004
-439,007	299,011	0,075	0,101
-437,992	-200,000	0,003	0,160
-436,978	19,231	-0,106	-0,062
-435,963	-200,000	-0,013	0,115
-434,949	-200,000	0,005	-0,022
-433,934	249,836	0,095	0,118
-432,919	-94,373	0,183	0,036
-431,905	-200,000	-0,001	-0,026
-430,890	-200,000	0,005	0,096
-429,876	157,783	-0,014	0,014
-428,861	131,802	0,043	0,041
-427,846	-200,000	0,002	-0,036
-426,832	22,914	-0,061	-0,037
-425,817	249,338	0,059	0,073
-424,803	59,148	-0,106	0,076
-423,788	291,955	-0,091	0,121
-422,773	0,129	0,042	-0,022
-421,759	26,863	0,049	0,030
-420,744	-40,346	0,059	-0,022
-419,730	280,840	0,118	-0,154
-418,715	-174,787	-0,055	-0,001
-417,701	160,466	0,084	-0,086
-416,686	-200,000	-0,010	0,069
-415,671	-83,078	0,134	-0,031
-414,657	-116,194	0,021	-0,003
-413,642	186,898	-0,101	0,110
-412,628	-200,000	-0,005	0,025
-411,613	-200,000	-0,016	-0,117
-410,598	-200,000	-0,002	0,028
-409,584	-90,036	-0,009	0,002
-408,569	-116,583	-0,073	0,010
-407,555	510,705	-0,035	0,060
-406,540	166,825	0,096	0,099
-405,525	-200,000	-0,019	0,159
-404,511	800,000	0,014	-0,032
-403,496	355,437	-0,059	0,086
-402,482	230,761	-0,018	-0,022
-401,467	-61,907	0,121	0,037
-400,452	-200,000	0,005	0,036
-399,438	289,923	0,047	0,062
-398,423	-200,000	-0,020	-0,068
-397,409	800,000	0,084	-0,184
-396,394	-200,000	0,001	0,047
-395,379	115,370	-0,024	-0,021
-394,365	-116,749	-0,074	-0,010
-393,350	750,838	-0,043	-0,086
-392,336	-105,526	0,089	0,015
-391,321	144,830	-0,154	0,150
-390,306	233,744	0,052	-0,063
-389,292	-200,000	-0,015	-0,102
-388,277	118,315	-0,101	0,091
-387,263	-200,000	-0,012	-0,046
-386,248	-200,000	-0,004	0,030
-385,233	-76,721	-0,066	0,017
-384,219	-106,383	0,119	0,019
-383,204	800,000	-0,043	-0,116
-382,190	800,000	0,019	-0,049
-381,175	121,235	-0,138	0,125
-380,160	-200,000	-0,005	-0,037
-379,146	800,000	-0,051	-0,106
-378,131	-140,151	0,071	-0,005
-377,117	52,149	-0,020	-0,014
-376,102	800,000	0,023	0,046
-375,088	-45,033	0,068	-0,025
-374,073	535,862	-0,119	-0,207
-373,058	126,870	0,027	-0,025
-372,044	-43,843	0,108	0,039
-371,029	800,000	-0,007	-0,020
-370,015	-200,000	0,039	-0,161
-369,000	541,291	-0,011	-0,018
-367,985	-71,690	-0,043	-0,011
-366,971	30,540	0,046	0,028
-365,956	-24,512	0,096	-0,041
-364,942	-200,000	0,014	0,141
-363,927	-200,000	0,005	0,050
-362,912	-46,639	0,174	0,062
-361,898	149,938	0,099	-0,097
-360,883	33,153	0,111	0,070
-359,869	360,553	-0,043	-0,063
-358,854	-200,000	-0,028	-0,116
-357,839	-106,936	0,192	-0,031
-356,825	-49,441	-0,049	0,017
-355,810	354,199	0,065	0,094
-354,796	800,000	-0,007	0,019
-353,781	-200,000	0,045	-0,193
-352,766	-200,000	-0,012	-0,108
-351,752	800,000	0,034	-0,077
-350,737	137,057	0,027	-0,025
-349,723	800,000	0,023	0,066
-348,708	-200,000	-0,010	-0,080
-347,693	491,018	-0,013	0,022
-346,679	18,899	-0,076	-0,044
-345,664	761,528	0,021	-0,042
-344,650	-124,885	0,105	0,012
-343,635	-24,210	0,128	0,055
-342,620	347,417	0,037	-0,054
-341,606	38,964	-0,063	0,041
-340,591	12,816	-0,168	0,094
-339,577	800,000	0,026	0,053
-338,562	150,561	-0,023	0,022
-337,548	-200,000	-0,006	-0,105
-336,533	72,832	0,050	0,038
-335,518	-200,000	-0,021	0,089
-334,504	800,000	-0,030	0,090
-333,489	136,086	-0,071	-0,068
-332,475	-59,634	-0,027	0,008
-331,460	-114,077	0,047	-0,007
-330,445	-200,000	0,012	0,057
-329,431	16,470	-0,058	-0,033
-328,416	79,159	-0,040	0,031
-327,402	34,561	0,070	-0,044
-326,387	-200,000	-0,020	-0,065
-325,372	-200,000	0,008	-0,032
-324,358	800,000	-0,047	-0,116
-323,343	225,381	-0,041	-0,048
-322,329	-96,850	-0,050	-0,009
-321,314	-78,079	-0,045	-0,011
-320,299	484,063	-0,042	0,069
-319,285	693,126	-0,047	0,089
-318,270	757,460	0,037	-0,072
-317,256	47,228	-0,087	0,059
-316,241	404,262	0,061	0,094
-315,226	-71,834	0,123	0,033
-314,212	-14,026	0,114	-0,053
-313,197	-200,000	-0,021	0,183
-312,183	-200,000	0,003	0,037
-311,168	-91,665	0,022	-0,005
-310,153	-200,000	0,005	0,051
-309,139	568,347	0,077	-0,135
-308,124	219,197	-0,069	-0,081
-307,110	447,363	0,037	-0,060
-306,095	-70,905	-0,154	0,042
-305,080	-200,000	-0,002	0,104
-304,066	718,710	-0,041	-0,080
-303,051	30,044	0,081	0,050
-302,037	61,301	-0,032	0,023
-301,022	-117,371	0,111	-0,014
-300,008	182,614	-0,016	0,017
-298,993	183,119	-0,033	-0,035
-297,978	-188,853	0,037	-0,000
-296,964	-183,574	-0,047	-0,001
-295,949	172,729	-0,108	0,113
-294,935	-72,873	0,037	0,010
-293,920	289,438	-0,029	-0,038
-292,905	-200,000	-0,008	0,062
-291,891	123,302	-0,020	-0,018
-290,876	-146,476	0,074	0,005
-289,862	-130,857	0,107	0,010
-288,847	344,265	-0,020	-0,029
-287,832	-168,824	0,113	-0,003
-286,818	-200,000	0,003	0,049
-285,803	-42,932	0,127	-0,047
-284,789	-150,611	0,149	-0,008
-283,774	-200,000	0,027	0,157
-282,759	671,295	-0,052	0,099
-281,745	-92,008	-0,105	0,021
-280,730	-53,210	0,061	0,020
-279,716	-25,411	0,076	0,032
-278,701	-200,000	-0,008	-0,047
-277,686	196,154	-0,048	0,053
-276,672	-68,930	0,134	-0,037
-275,657	188,766	0,073	-0,079
-274,643	-47,717	-0,073	0,026
-273,628	-78,332	-0,169	0,042
-272,613	-200,000	-0,011	0,053
-271,599	336,096	0,052	-0,073
-270,584	334,344	0,042	-0,059
-269,570	37,357	-0,019	-0,012
-268,555	412,584	0,029	-0,045
-267,540	-113,203	0,044	0,006
-266,526	-200,000	-0,001	0,079
-265,511	-48,869	-0,075	-0,026
-264,497	-170,151	0,111	0,003
-263,482	380,982	0,024	-0,035
-262,467	-200,000	-0,016	0,053
-261,453	277,432	-0,084	0,108
-260,438	-200,000	0,006	-0,073
-259,424	800,000	0,018	0,041
-258,409	800,000	0,021	0,048
-257,395	-89,749	0,020	-0,004
-256,380	-28,218	0,071	0,030
-255,365	800,000	-0,005	0,011
-254,351	800,000	0,031	-0,073
-253,336	-200,000	0,010	-0,075
-252,322	800,000	-0,038	-0,080
-251,307	265,240	-0,047	-0,059
-250,292	477,596	0,082	-0,135
-249,278	-181,060	0,107	0,002
-248,263	13,261	0,021	0,012
-247,249	-200,000	-0,012	-0,076
-246,234	-133,225	-0,087	-0,008
-245,219	-38,701	0,077	-0,029
-244,205	462,632	-0,072	-0,116
-243,190	34,201	-0,043	-0,027
-242,176	-98,649	-0,094	0,017
-241,161	-200,000	-0,014	0,132
-240,146	165,483	-0,013	-0,013
-239,132	800,000	0,049	-0,148
-238,117	144,625	-0,009	0,009
-237,103	-152,594	-0,145	0,007
-236,088	-200,000	-0,005	0,038
-235,073	-200,000	-0,005	0,034
-234,059	-23,959	0,088	0,038
-233,044	227,354	-0,023	0,027
-232,030	-200,000	0,032	0,000
-231,015	-200,000	0,018	0,083
-230,000	-91,416	0,049	-0,010
-228,986	-200,000	-0,005	-0,076
-227,971	108,451	0,016	0,014
-226,957	2,335	-0,008	-0,004
-225,942	153,043	0,104	0,103
-224,927	-93,867	0,051	-0,010
-223,913	-200,000	-0,000	-0,061
-222,898	800,000	-0,002	-0,006
-221,884	28,801	-0,124	-0,076
-220,869	-168,084	0,109	-0,003
-219,855	308,598	-0,051	0,069
-218,840	-149,128	0,104	0,006
-217,825	-85,861	-0,039	0,009
-216,811	115,380	0,030	0,026
-215,796	-200,000	-0,018	-0,060
-214,782	800,000	0,021	0,055
-213,767	-107,782	0,142	0,022
-212,752	287,485	0,050	0,065
-211,738	800,000	0,022	0,052
-210,723	152,045	-0,070	-0,069
-209,709	-200,000	0,007	0,108
-208,694	259,679	-0,046	0,058
-207,679	-102,827	-0,092	-0,016
-206,665	649,305	0,039	0,072
-205,650	-64,065	-0,099	0,029
-204,636	-79,934	0,098	0,024
-203,621	-200,000	0,032	-0,135
-202,606	-200,000	0,005	-0,052
-201,592	227,902	-0,062	-0,073
-200,577	-200,000	-0,002	-0,078
-199,563	602,521	0,053	0,095
-198,548	800,000	0,039	-0,113
-197,533	-130,877	-0,149	0,014
-196,519	391,650	-0,072	0,108
-195,504	800,000	0,026	0,059
-194,490	800,000	-0,061	0,155
-193,475	220,739	0,052	-0,061
-192,460	147,198	0,009	0,009
-191,446	800,000	0,035	-0,094
-190,431	-51,537	0,034	0,012
-189,417	510,785	-0,027	0,045
-188,402	-36,562	-0,047	0,018
-187,387	-86,578	-0,178	-0,039
-186,373	-44,524	-0,130	0,047
-185,358	-200,000	-0,026	0,126
-184,344	-200,000	0,014	0,069
-183,329	36,338	-0,067	0,043
-182,315	-115,370	0,030	-0,004
-181,300	-52,155	-0,032	0,011
-180,285	-200,000	-0,031	0,130
-179,271	-127,667	-0,117	-0,012
-178,256	127,301	0,118	-0,108
-177,242	327,208	0,061	-0,084
-176,227	800,000	0,020	0,061
-175,212	-15,397	0,113	0,052
-174,198	-61,515	0,090	-0,027
-173,183	-200,000	-0,007	-0,029
-172,169	126,893	-0,036	0,033
-171,154	800,000	0,037	0,087
-170,139	-0,698	0,123	0,063
-169,125	58,801	0,134	0,095
-168,110	-26,124	0,104	-0,044
-167,096	-17,477	-0,110	-0,050
-166,081	800,000	-0,015	0,033
-165,066	103,687	-0,036	0,030
-164,052	-99,364	0,013	-0,002
-163,037	-189,323	0,161	-0,001
-162,023	733,198	-0,019	-0,036
-161,008	164,411	-0,026	0,027
-159,993	97,867	0,112	0,093
-158,979	77,601	-0,119	0,091
-157,964	289,360	-0,040	0,052
-156,950	-137,040	-0,049	0,004
-155,935	-51,727	0,069	-0,023
-154,920	-8,886	0,106	0,051
-153,906	-143,393	0,235	-0,016
-152,891	658,014	-0,045	-0,084
-151,877	17,169	-0,133	0,076
-150,862	79,847	-0,008	-0,006
-149,847	-66,820	0,078	0,022
-148,833	228,528	-0,046	0,054
-147,818	73,179	0,075	-0,056
-146,804	800,000	-0,037	-0,088
-145,789	430,864	-0,057	0,089
-144,775	-81,469	0,046	0,011
-143,760	800,000	0,023	0,063
-142,745	-32,443	0,073	-0,029
-141,731	-200,000	0,018	-0,177
-140,716	-138,780	0,053	0,004
-139,702	-102,533	0,041	0,007
-138,687	-200,000	0,004	0,091
-137,672	-133,895	-0,147	-0,013
-136,658	-82,066	-0,105	-0,024
-135,643	222,701	0,065	-0,076
-134,629	-200,000	-0,029	-0,139
-133,614	16,221	-0,061	-0,034
-132,599	-171,033	0,186	-0,004
-131,585	-151,373	-0,104	-0,006
-130,570	477,854	-0,015	0,025
-129,556	-39,985	-0,135	0,051
-128,541	-157,565	-0,133	-0,006
-127,526	735,635	-0,029	-0,057
-126,512	527,046	-0,024	0,041
-125,497	278,741	0,085	-0,109
-124,483	-47,422	0,115	-0,040
-123,468	-83,921	0,090	0,020
-122,453	-115,074	-0,053	0,007
-121,439	348,597	-0,005	-0,007
-120,424	7,255	-0,124	0,066
-119,410	77,240	-0,061	-0,046
-118,395	79,228	0,021	-0,016
-117,380	463,918	0,063	0,102
-116,366	102,571	-0,051	-0,043
-115,351	2,624	-0,108	0,056
-114,337	800,000	-0,023	0,060
-113,322	-200,000	0,076	0,000
-112,307	-139,521	-0,132	0,010
-111,293	564,965	-0,047	-0,082
-110,278	800,000	-0,011	0,027
-109,264	-101,522	0,067	0,012
-108,249	-200,000	-0,001	-0,055
-107,234	-87,588	-0,111	0,024
-106,220	798,694	-0,045	0,090
-105,205	220,876	0,081	-0,094
-104,191	-200,000	-0,018	-0,075
-103,176	-200,000	0,019	-0,100
-102,162	-88,336	0,063	0,013
-101,147	-88,646	-0,143	-0,030
-100,132	800,000	-0,004	-0,011
-99,118	-78,149	0,019	0,005
-98,103	-134,966	-0,112	-0,010
-97,089	-90,786	0,131	-0,027
-96,074	-200,000	0,018	0,079
-95,059	800,000	0,050	0,126
-94,045	96,299	-0,031	0,026
-93,030	368,141	-0,076	-0,110
-92,016	-114,507	0,058	-0,008
-91,001	589,191	0,062	-0,110
-89,986	40,476	0,008	-0,005
-88,972	97,500	-0,081	-0,067
-87,957	146,923	-0,014	-0,013
-86,943	-108,784	0,035	-0,005
-85,928	-94,013	-0,080	0,016
-84,913	112,735	0,023	0,020
-83,899	-200,000	-0,010	0,064
-82,884	800,000	0,030	0,081
-81,870	35,704	-0,024	-0,015
-80,855	64,184	-0,045	-0,033
-79,840	-159,233	0,024	0,001
-78,826	-200,000	0,012	-0,109
-77,811	0,333	-0,181	0,092
-76,797	-140,871	-0,052	0,004
-75,782	-84,591	-0,067	-0,015
-74,767	161,665	0,164	0,165
-73,753	-139,962	-0,038	-0,003
-72,738	-200,000	-0,024	-0,101
-71,724	139,684	-0,144	-0,136
-70,709	-120,137	-0,036	0,004
-69,694	-200,000	-0,040	-0,231
-68,680	-86,461	-0,094	-0,021
-67,665	-11,611	0,090	0,042
-66,651	165,206	-0,022	0,023
-65,636	-200,000	-0,007	0,072
-64,622	404,459	-0,046	0,069
-63,607	-200,000	0,006	0,020
-62,592	800,000	0,031	0,079
-61,578	700,798	0,034	0,065
-60,563	206,631	0,099	0,111
-59,549	-168,635	-0,120	0,003
-58,534	82,252	-2,579	-2,008
-57,519	179,731	0,258	-0,271
-56,505	-200,000	-1,625	-5,272
-55,490	358,626	1,146	1,649
-54,476	800,000	5,289	11,440
-53,461	-200,000	21,782	345,504
-52,446	800,000	760,908	2313,647
-51,432	519,371	1652,569	2791,678
-50,417	103,817	1617,759	1364,735
-49,403	73,393	1273,357	956,262
-48,388	25,320	1022,026	608,571
-47,373	19,305	988,587	568,730
-46,359	13,480	975,744	542,182
-45,344	9,358	972,499	526,801
-44,330	9,827	970,302	527,132
-43,315	8,773	968,535	522,692
-42,300	8,765	967,220	521,933
-41,286	8,693	966,371	521,220
-40,271	8,719	965,352	520,733
-39,257	8,704	964,357	520,128
-38,242	8,709	963,516	519,670
-37,227	8,726	962,709	519,271
-36,213	8,672	961,865	518,618
-35,198	8,715	961,133	518,341
-34,184	8,720	960,296	517,888
-33,169	8,693	959,202	517,188
-32,154	8,776	958,435	517,024
-31,140	8,790	957,548	516,569
-30,125	8,761	956,662	515,978
-29,111	8,705	956,015	515,427
-28,096	8,761	955,235	515,168
-27,082	8,768	954,609	514,832
-26,067	8,714	953,918	514,264
-25,052	8,676	953,274	513,774
-24,038	8,684	952,392	513,305
-23,023	8,668	951,728	512,874
-22,009	8,767	951,168	512,872
-20,994	8,755	950,675	512,548
-19,979	8,738	949,996	512,104
-18,965	8,734	949,407	511,756
-17,950	8,688	948,925	511,327
-16,936	8,693	948,183	510,924
-15,921	8,644	947,511	510,382
-14,906	8,628	946,605	509,822
-13,892	8,656	946,185	509,666
-12,877	8,600	945,614	509,161
-11,863	8,559	944,888	508,619
-10,848	8,552	944,367	508,294
-9,833	8,659	943,854	508,341
-8,819	8,624	943,085	507,793
-7,804	8,594	942,381	507,299
-6,790	8,620	941,745	507,020
-5,775	8,652	941,342	506,884
-4,760	8,658	940,725	506,552
-3,746	8,623	939,930	505,991
-2,731	8,497	939,225	505,192
-1,717	8,432	938,689	504,676
-0,702	8,420	938,152	504,329
0,313	8,266	937,283	504,134
1,327	11,639	935,281	513,694
2,342	20,345	783,452	453,228
3,356	15,524	450,230	253,141
4,371	-10,758	313,175	148,066
5,386	-14,505	295,614	135,952
6,400	-16,474	289,426	131,137
7,415	-16,677	286,873	129,770
8,429	-17,390	285,101	128,258
9,444	-17,390	284,132	127,811
10,459	-17,453	283,619	127,508
11,473	-17,398	282,898	127,226
12,488	-17,297	282,364	127,072
13,502	-17,378	281,928	126,786
14,517	-17,195	281,501	126,759
15,531	-17,445	281,221	126,381
16,546	-17,196	280,621	126,340
17,561	-17,203	280,402	126,223
18,575	-17,126	280,006	126,108
19,590	-17,205	279,398	125,746
20,604	-17,099	279,250	125,770
21,619	-17,207	278,856	125,478
22,634	-16,918	278,405	125,540
23,648	-17,174	278,320	125,246
24,663	-17,221	277,953	125,026
25,677	-17,156	277,830	125,021
26,692	-17,106	277,529	124,922
27,707	-17,230	277,201	124,645
28,721	-17,309	276,969	124,455
29,736	-17,244	276,567	124,325
30,750	-17,228	276,414	124,261
31,765	-17,184	276,158	124,176
32,780	-17,149	275,880	124,072
33,794	-17,287	275,767	123,880
34,809	-17,206	275,298	123,735
35,823	-17,074	275,065	123,743
36,838	-17,385	275,002	123,411
37,853	-17,192	274,687	123,441
38,867	-17,067	274,415	123,425
39,882	-17,260	273,979	123,036
40,896	-17,137	273,955	123,130
41,911	-17,101	273,767	123,069
42,926	-16,972	273,262	122,951
43,940	-17,367	273,275	122,577
44,955	-17,229	272,946	122,547
45,969	-17,187	272,802	122,511
46,984	-16,920	272,437	122,584
47,999	-17,034	272,326	122,418
49,013	-17,118	272,218	122,279
50,028	-17,037	271,965	122,231
51,042	-16,938	271,673	122,180
52,057	-16,989	271,376	121,988
53,071	-17,017	271,209	121,877
54,086	-17,069	271,063	121,752
55,101	-17,051	270,838	121,657
56,115	-17,068	270,447	121,454
57,130	-17,172	270,316	121,289
58,144	-17,077	270,083	121,261
59,159	-17,130	269,617	120,993
60,174	-17,103	269,617	121,007
61,188	-17,136	269,310	120,827
62,203	-17,063	268,873	120,688
63,217	-16,950	268,824	120,759
64,232	-17,278	268,619	120,355
65,247	-16,984	268,413	120,521
66,261	-17,148	268,121	120,229
67,276	-17,011	267,882	120,237
68,290	-17,095	267,798	120,112
69,305	-17,093	267,347	119,900
70,320	-17,010	267,226	119,911
71,334	-17,153	267,109	119,718
72,349	-17,212	266,857	119,540
73,363	-16,840	266,411	119,668
74,378	-17,036	266,371	119,461
75,393	-16,957	266,022	119,366
76,407	-16,948	265,857	119,289
77,422	-17,080	265,813	119,139
78,436	-17,000	265,405	119,018
79,451	-17,154	265,414	118,872
80,466	-16,914	264,943	118,867
81,480	-17,084	264,825	118,650
82,495	-17,187	264,629	118,459
83,509	-17,201	264,420	118,342
84,524	-16,986	264,149	118,404
85,539	-16,972	264,001	118,339
86,553	-17,041	263,708	118,136
87,568	-17,009	263,467	118,046
88,582	-17,038	263,375	117,968
89,597	-16,907	263,094	117,949
90,611	-17,178	262,836	117,580
91,626	-16,943	262,596	117,673
92,641	-17,228	262,522	117,375
93,655	-17,161	262,376	117,358
94,670	-17,125	262,122	117,267
95,684	-17,077	261,979	117,235
96,699	-17,202	261,709	116,992
97,714	-16,952	261,480	117,102
98,728	-17,019	261,395	116,994
99,743	-16,969	261,041	116,870
100,757	-17,027	260,797	116,698
101,772	-17,093	260,657	116,567
102,787	-17,010	260,416	116,522
103,801	-17,178	260,200	116,266
104,816	-17,144	260,041	116,215
105,830	-17,103	259,628	116,057
106,845	-17,201	259,892	116,078
107,860	-17,081	259,378	115,943
108,874	-16,975	259,250	115,969
109,889	-17,067	259,007	115,769
110,903	-17,048	258,839	115,700
111,918	-17,005	258,501	115,577
112,933	-16,978	258,534	115,605
113,947	-17,083	258,170	115,340
114,962	-17,058	258,074	115,309
115,976	-16,899	257,755	115,295
116,991	-17,112	257,554	115,009
118,006	-17,158	257,373	114,877
119,020	-17,025	257,240	114,923
120,035	-16,837	257,038	114,987
121,049	-16,767	256,745	114,908
122,064	-16,927	256,718	114,745
123,079	-17,018	256,506	114,561
124,093	-16,992	256,272	114,469
125,108	-16,750	255,930	114,517
126,122	-16,911	255,898	114,352
127,137	-16,977	255,836	114,256
128,151	-17,100	255,594	114,032
129,166	-16,971	255,261	113,985
130,181	-16,928	255,126	113,951
131,195	-16,850	254,888	113,903
132,210	-16,981	254,713	113,700
133,224	-16,903	254,443	113,637
134,239	-16,956	254,283	113,510
135,254	-16,818	253,977	113,483
136,268	-16,994	253,879	113,277
137,283	-16,952	253,700	113,223
138,297	-16,834	253,387	113,175
139,312	-16,918	253,286	113,047
140,327	-17,093	253,091	112,800
141,341	-16,845	252,809	112,877
142,356	-17,003	252,802	112,729
143,370	-16,995	252,480	112,582
144,385	-16,824	252,303	112,639
145,400	-16,958	252,085	112,417
146,414	-16,897	251,957	112,402
147,429	-17,093	251,760	112,137
148,443	-17,018	251,584	112,112
149,458	-16,931	251,373	112,083
150,473	-16,905	251,073	111,961
151,487	-16,911	251,076	111,947
152,502	-16,866	250,751	111,830
153,516	-16,885	250,546	111,712
154,531	-17,030	250,254	111,450
155,546	-17,211	250,260	111,289
156,560	-16,985	249,953	111,334
157,575	-16,852	249,804	111,370
158,589	-16,958	249,598	111,179
159,604	-16,864	249,404	111,162
160,619	-17,092	249,292	110,909
161,633	-17,145	249,004	110,727
162,648	-16,897	248,867	110,865
163,662	-16,882	248,790	110,834
164,677	-16,713	248,513	110,842
165,692	-17,031	248,507	110,562
166,706	-16,979	248,332	110,518
167,721	-17,020	248,120	110,380
168,735	-16,993	247,859	110,276
169,750	-17,072	247,882	110,211
170,764	-16,940	247,659	110,212
171,779	-16,897	247,429	110,136
172,794	-17,003	247,267	109,965
173,808	-17,061	247,069	109,819
174,823	-17,021	246,906	109,770
175,837	-17,120	246,834	109,646
176,852	-17,022	246,549	109,591
177,867	-16,899	246,287	109,567
178,881	-17,016	246,194	109,418
179,896	-16,861	246,065	109,480
180,910	-16,957	245,989	109,357
181,925	-16,954	245,734	109,236
182,940	-16,780	245,628	109,324
183,954	-16,785	245,387	109,203
184,969	-16,859	245,252	109,071
185,983	-16,747	245,025	109,054
186,998	-16,799	244,766	108,886
188,013	-16,965	244,543	108,640
189,027	-16,849	244,390	108,658
190,042	-16,970	244,195	108,462
191,056	-16,955	244,165	108,452
192,071	-16,839	243,846	108,395
193,086	-16,898	243,759	108,298
194,100	-16,887	243,550	108,204
195,115	-17,023	243,386	108,011
196,129	-17,092	243,354	107,930
197,144	-16,920	242,972	107,892
198,159	-17,125	242,911	107,687
199,173	-16,857	242,668	107,789
200,188	-17,000	242,468	107,574
201,202	-16,792	242,295	107,658
202,217	-16,661	242,089	107,664
203,232	-16,780	241,980	107,508
204,246	-16,985	241,662	107,191
205,261	-17,253	241,699	106,978
206,275	-15,565	241,883	108,428
207,290	-10,557	243,942	113,458
208,304	-4,375	245,739	119,392
209,319	-1,615	246,235	121,901
210,334	-0,797	246,766	122,829
211,348	0,495	246,735	123,870
212,363	0,836	246,946	124,247
213,377	1,396	246,739	124,594
214,392	1,621	246,854	124,827
215,407	1,877	246,547	124,872
216,421	1,939	246,653	124,965
217,436	1,888	246,487	124,828
218,450	1,903	246,166	124,666
219,465	2,021	245,983	124,660
220,480	1,759	246,075	124,480
221,494	1,662	245,647	124,173
222,509	1,165	245,319	123,588
223,523	1,340	245,134	123,627
224,538	0,996	244,903	123,218
225,553	0,990	244,781	123,141
226,567	1,082	244,493	123,060
227,582	0,936	244,394	122,880
228,596	1,145	244,281	122,984
229,611	0,959	244,171	122,765
230,626	0,976	243,949	122,656
231,640	0,890	243,849	122,525
232,655	0,863	243,626	122,380
233,669	0,776	243,481	122,226
234,684	0,917	243,374	122,276
235,699	0,978	243,158	122,206
236,713	0,802	243,021	121,983
237,728	0,929	242,961	122,045
238,742	0,980	242,564	121,876
239,757	0,887	242,554	121,785
240,772	0,936	242,311	121,692
241,786	1,028	242,088	121,643
242,801	0,924	241,975	121,491
243,815	0,694	241,821	121,218
244,830	0,910	241,698	121,319
245,844	0,983	241,616	121,326
246,859	0,837	241,393	121,086
247,874	0,807	241,284	120,996
248,888	1,125	241,074	121,136
249,903	1,044	240,972	121,009
250,917	0,936	240,938	120,895
251,932	0,936	240,762	120,795
252,947	1,034	240,491	120,727
253,961	1,033	240,368	120,654
254,976	0,929	240,286	120,518
255,990	1,045	240,077	120,496
257,005	0,916	239,924	120,305
258,020	0,978	239,674	120,219
259,034	0,902	239,635	120,127
260,049	1,175	239,474	120,253
261,063	1,081	239,177	120,019
262,078	0,923	239,095	119,841
263,093	1,080	238,936	119,876
264,107	0,886	238,874	119,680
265,122	0,962	238,628	119,607
266,136	1,105	238,413	119,601
267,151	1,195	238,355	119,633
268,166	1,007	238,137	119,364
269,180	0,888	237,955	119,168
270,195	0,740	237,824	118,974
271,209	1,106	237,769	119,226
272,224	0,939	237,655	119,026
273,239	0,877	237,444	118,861
274,253	0,992	237,361	118,900
275,268	1,013	237,014	118,731
276,282	1,025	236,836	118,642
277,297	0,864	236,751	118,462
278,312	0,920	236,542	118,390
279,326	0,863	236,510	118,319
280,341	0,947	236,395	118,317
281,355	1,109	236,184	118,328
282,370	1,139	236,061	118,279
283,384	1,058	235,794	118,072
284,399	0,919	235,752	117,931
285,414	0,879	235,541	117,784
286,428	0,925	235,548	117,812
287,443	0,904	235,351	117,687
288,457	1,145	235,112	117,745
289,472	0,889	235,046	117,502
290,487	0,943	234,801	117,412
291,501	0,964	234,689	117,361
292,516	0,962	234,541	117,275
293,530	1,103	234,411	117,310
294,545	1,208	234,174	117,262
295,560	1,095	234,030	117,092
296,574	1,058	233,954	117,014
297,589	1,071	233,767	116,920
298,603	1,298	233,548	116,977
299,618	1,122	233,354	116,733
300,633	1,121	233,292	116,690
301,647	1,034	233,307	116,620
302,662	1,057	233,158	116,553
303,676	0,973	232,918	116,358
304,691	1,056	232,725	116,315
305,706	1,281	232,486	116,359
306,720	1,105	232,492	116,216
307,735	1,269	232,302	116,236
308,749	1,236	232,154	116,127
309,764	1,399	232,049	116,190
310,779	1,067	231,952	115,875
311,793	0,977	231,699	115,669
312,808	1,223	231,445	115,721
313,822	1,157	231,402	115,638
314,837	1,030	231,336	115,498
315,852	1,223	231,088	115,511
316,866	1,137	231,056	115,419
317,881	1,425	230,946	115,574
318,895	1,221	230,687	115,278
319,910	1,197	230,529	115,171
320,925	1,121	230,381	115,029
321,939	1,023	230,251	114,879
322,954	0,956	230,203	114,794
323,968	1,208	230,054	114,901
324,983	1,118	229,900	114,745
325,997	0,992	229,743	114,561
327,012	1,194	229,493	114,580
328,027	1,123	229,316	114,427
329,041	1,320	229,180	114,498
330,056	1,156	229,090	114,319
331,070	1,162	229,055	114,296
332,085	1,285	228,808	114,255
333,100	1,178	228,435	113,978
334,114	1,254	228,303	113,960
335,129	1,324	228,233	113,967
336,143	1,172	228,074	113,763
337,158	1,440	227,996	113,916
338,173	1,293	228,004	113,799
339,187	1,398	227,776	113,754
340,202	1,404	227,455	113,589
341,216	1,322	227,454	113,516
342,231	1,279	227,375	113,434
343,246	1,276	227,087	113,278
344,260	1,475	227,135	113,442
345,275	1,211	226,900	113,116
346,289	1,134	226,860	113,028
347,304	1,265	226,712	113,043
348,319	1,254	226,423	112,880
349,333	1,380	226,176	112,840
350,348	1,205	226,218	112,721
351,362	1,349	226,058	112,739
352,377	1,420	225,888	112,697
353,392	1,231	225,846	112,525
354,406	1,343	225,523	112,438
355,421	191,877	1311,593	1377,479
356,435	153,691	1443,787	1377,346
