DTS Sentinel unit serial number:	SN410029Multiplexer serial number:	ORYXHardware model number:	OX2-SRSoftware version number:	ORYX F/W v4,00 Oryx Data Collector v3.7.2.0data status	okinstallation	B5 Nyhavnadifferential loss correction	single-endedforward channel	channel 2reverse channel	N/Adate	2023/12/12time	03:07:13forward acquisition time	300,00reverse acquisition time	0,00gamma	499,1914k internal	0,3156k external	0,3156temperature offset calibration	1,0000default loss term (dB/km)	0,3820temperature slope calibration	1,0000multiplexer offset coefficient	1,0000multiplexer slope coefficient	1,0000fibre end	0,00T internal ref (°C)	15,74T ext. ref 1 (°C)	-0,70T ext. ref 2 (°C)	-0,97length (m)	temperature (°C)	Stokes	anti-Stokes-744,400	63,155	0,108	0,080
-743,385	-18,877	-0,177	-0,081
-742,371	-65,545	0,124	0,036
-741,356	-79,566	-0,263	0,065
-740,342	105,362	0,115	0,100
-739,327	-1,225	-0,145	-0,075
-738,312	1,553	0,085	0,045
-737,298	-71,287	-0,388	0,107
-736,283	-46,558	0,065	-0,023
-735,269	-17,760	-0,334	0,154
-734,254	47,821	0,142	0,098
-733,239	-95,492	-0,400	-0,078
-732,225	246,868	0,081	-0,101
-731,210	-6,003	0,074	0,037
-730,196	-55,994	-0,067	0,022
-729,181	-200,000	-0,012	0,105
-728,167	-138,878	0,094	-0,007
-727,152	-16,352	0,057	-0,026
-726,137	60,475	-0,057	-0,042
-725,123	-31,425	-0,148	-0,061
-724,108	51,273	-0,189	-0,132
-723,094	-200,000	-0,001	0,019
-722,079	-200,000	0,004	-0,143
-721,064	-200,000	-0,021	0,127
-720,050	273,481	-0,090	-0,118
-719,035	-39,671	-0,092	0,035
-718,021	-75,457	-0,052	0,014
-717,006	-200,000	-0,002	0,045
-715,991	531,398	-0,035	-0,062
-714,977	-30,074	0,058	-0,024
-713,962	-152,666	-0,093	0,005
-712,948	-135,371	-0,115	-0,010
-711,933	-200,000	-0,019	-0,083
-710,918	-200,000	-0,001	-0,065
-709,904	339,389	-0,111	-0,159
-708,889	-200,000	-0,016	-0,053
-707,875	-200,000	0,003	-0,115
-706,860	800,000	-0,018	-0,050
-705,845	117,419	0,085	0,077
-704,831	495,857	0,039	0,066
-703,816	12,855	-0,108	-0,061
-702,802	-112,155	0,058	0,009
-701,787	641,516	-0,039	-0,073
-700,772	137,976	-0,133	-0,128
-699,758	-47,131	-0,030	0,011
-698,743	800,000	0,018	0,040
-697,729	-200,000	0,026	0,120
-696,714	81,189	0,081	-0,064
-695,699	216,905	-0,089	-0,105
-694,685	97,489	-0,037	-0,032
-693,670	-200,000	0,018	0,090
-692,656	800,000	-0,020	0,059
-691,641	79,051	-0,088	0,069
-690,627	-200,000	-0,039	0,167
-689,612	-198,261	0,142	0,001
-688,597	-174,819	-0,095	0,002
-687,583	800,000	-0,052	-0,140
-686,568	-200,000	0,034	-0,126
-685,554	60,268	-0,051	0,037
-684,539	-159,990	-0,051	0,002
-683,524	800,000	0,010	-0,026
-682,510	82,936	0,081	-0,065
-681,495	62,139	-0,102	0,075
-680,481	-200,000	-0,018	-0,132
-679,466	-28,225	-0,134	0,057
-678,451	-53,970	-0,038	0,013
-677,437	-130,022	-0,122	-0,012
-676,422	-186,521	0,044	-0,000
-675,408	159,154	0,060	0,061
-674,393	336,905	-0,070	0,101
-673,378	53,420	-0,057	-0,040
-672,364	-200,000	-0,021	-0,076
-671,349	671,727	0,049	0,093
-670,335	-63,233	0,048	0,014
-669,320	-200,000	-0,025	0,129
-668,305	112,915	-0,101	0,090
-667,291	-103,928	-0,146	-0,025
-666,276	-200,000	0,002	-0,068
-665,262	60,170	-0,071	0,052
-664,247	466,836	-0,066	-0,109
-663,232	-135,761	-0,166	-0,014
-662,218	196,236	0,055	-0,062
-661,203	-140,784	0,106	-0,008
-660,189	109,679	-0,072	0,063
-659,174	33,309	-0,047	0,030
-658,159	379,562	0,023	0,035
-657,145	-200,000	-0,014	-0,061
-656,130	-200,000	0,009	0,034
-655,116	39,636	0,049	-0,033
-654,101	688,630	0,067	0,130
-653,086	-200,000	0,038	-0,142
-652,072	-200,000	-0,002	0,099
-651,057	800,000	-0,048	-0,153
-650,043	363,524	-0,063	-0,093
-649,028	-200,000	0,027	0,137
-648,014	-48,579	0,022	-0,008
-646,999	800,000	0,078	-0,164
-645,984	-38,172	-0,111	-0,043
-644,970	66,180	-0,135	-0,100
-643,955	58,994	-0,083	-0,060
-642,941	-200,000	-0,006	-0,048
-641,926	674,665	-0,053	-0,101
-640,911	-116,110	0,107	0,015
-639,897	-86,873	0,070	-0,016
-638,882	-121,071	-0,042	0,005
-637,868	11,167	-0,119	-0,067
-636,853	165,343	-0,181	-0,188
-635,838	800,000	-0,024	-0,055
-634,824	-83,629	0,094	-0,022
-633,809	800,000	0,015	-0,045
-632,795	13,482	0,061	0,034
-631,780	-200,000	0,033	0,155
-630,765	-110,693	-0,046	0,007
-629,751	-11,112	-0,158	0,076
-628,736	-200,000	-0,016	-0,148
-627,722	-57,465	-0,136	-0,044
-626,707	-7,096	0,132	0,065
-625,692	389,905	-0,003	-0,004
-624,678	693,250	-0,083	0,160
-623,663	146,536	-0,093	-0,092
-622,649	-200,000	0,007	-0,128
-621,634	169,333	-0,041	-0,043
-620,619	-128,875	0,077	-0,008
-619,605	-200,000	-0,035	0,128
-618,590	-200,000	0,012	0,083
-617,576	-140,255	-0,114	0,009
-616,561	111,492	-0,059	-0,052
-615,546	62,013	-0,103	0,076
-614,532	-12,004	-0,099	-0,048
-613,517	170,728	0,049	-0,052
-612,503	-93,358	-0,171	0,034
-611,488	479,511	-0,030	0,050
-610,474	-49,551	-0,026	-0,009
-609,459	548,856	0,016	0,028
-608,444	4,566	-0,127	-0,068
-607,430	19,969	-0,101	0,060
-606,415	-200,000	0,006	0,047
-605,401	315,839	0,015	-0,020
-604,386	-134,879	0,067	0,006
-603,371	26,178	-0,004	0,002
-602,357	15,383	-0,066	0,038
-601,342	250,872	-0,054	-0,067
-600,328	-47,298	-0,070	0,025
-599,313	106,840	0,029	-0,026
-598,298	-200,000	-0,001	0,089
-597,284	800,000	-0,057	-0,146
-596,269	-200,000	0,015	-0,110
-595,255	800,000	0,035	-0,078
-594,240	-158,788	-0,162	-0,007
-593,225	-114,203	-0,116	0,016
-592,211	-125,032	-0,152	-0,017
-591,196	800,000	-0,058	0,121
-590,182	-151,810	0,050	-0,003
-589,167	123,988	-0,038	-0,035
-588,152	183,520	-0,086	0,094
-587,138	-76,570	0,092	-0,023
-586,123	-200,000	-0,020	-0,126
-585,109	68,535	-0,065	0,049
-584,094	177,125	-0,082	0,088
-583,079	-63,457	0,098	0,029
-582,065	595,919	-0,085	-0,156
-581,050	353,702	0,086	-0,125
-580,036	-200,000	0,005	0,071
-579,021	-200,000	0,010	-0,044
-578,006	507,188	0,013	-0,023
-576,992	-127,160	0,189	0,020
-575,977	-200,000	0,018	-0,113
-574,963	-139,306	-0,100	0,008
-573,948	-200,000	-0,007	-0,074
-572,934	800,000	0,005	0,012
-571,919	288,438	-0,029	-0,038
-570,904	105,074	0,081	-0,070
-569,890	372,486	-0,046	0,068
-568,875	-9,520	0,073	0,036
-567,861	354,333	0,022	0,032
-566,846	94,017	-0,078	0,065
-565,831	-200,000	-0,018	-0,103
-564,817	-80,710	-0,158	-0,038
-563,802	766,255	-0,073	-0,145
-562,788	-200,000	0,016	0,134
-561,773	360,224	0,100	0,148
-560,758	174,147	0,061	0,065
-559,744	-78,576	0,106	0,026
-558,729	-111,332	0,053	0,008
-557,715	696,669	-0,057	-0,110
-556,700	404,022	-0,041	-0,063
-555,685	108,871	-0,114	-0,100
-554,671	-200,000	0,030	0,120
-553,656	-96,531	-0,055	-0,011
-552,642	-60,320	0,149	-0,046
-551,627	-157,149	0,132	0,006
-550,612	-83,752	-0,100	-0,023
-549,598	707,159	0,072	-0,139
-548,583	136,585	-0,038	-0,036
-547,569	75,361	-0,097	0,075
-546,554	-200,000	-0,003	-0,093
-545,539	-200,000	-0,030	0,127
-544,525	-85,636	-0,164	-0,037
-543,510	56,402	0,080	-0,057
-542,496	800,000	-0,061	-0,151
-541,481	-93,570	-0,068	0,014
-540,466	-200,000	0,019	0,084
-539,452	800,000	0,007	-0,018
-538,437	-200,000	-0,014	0,051
-537,423	102,388	0,039	-0,033
-536,408	-33,634	-0,122	-0,049
-535,393	-65,561	0,094	-0,027
-534,379	800,000	-0,057	0,158
-533,364	38,824	0,031	0,020
-532,350	800,000	-0,010	0,022
-531,335	-200,000	-0,003	0,158
-530,321	-63,337	0,062	0,019
-529,306	89,068	-0,009	0,007
-528,291	588,164	-0,053	0,097
-527,277	391,142	0,086	-0,131
-526,262	-3,514	-0,059	-0,030
-525,248	190,736	0,081	0,090
-524,233	-200,000	-0,018	-0,068
-523,218	174,648	-0,011	0,011
-522,204	-200,000	-0,019	0,071
-521,189	-6,683	-0,036	0,018
-520,175	10,591	0,060	-0,033
-519,160	-70,380	0,029	0,008
-518,145	800,000	0,019	-0,041
-517,131	195,954	0,074	0,083
-516,116	124,081	-0,052	0,047
-515,102	154,180	0,092	0,092
-514,087	322,673	0,038	0,053
-513,072	26,522	-0,081	-0,050
-512,058	737,205	-0,023	0,045
-511,043	800,000	0,035	-0,074
-510,029	-52,736	0,061	0,021
-509,014	-35,229	-0,042	0,017
-507,999	322,588	0,017	0,024
-506,985	-200,000	-0,005	-0,030
-505,970	93,569	-0,078	-0,065
-504,956	4,015	-0,042	-0,022
-503,941	-4,911	0,071	0,035
-502,926	-200,000	0,005	0,154
-501,912	-200,000	0,058	-0,198
-500,897	79,776	0,095	0,075
-499,883	-200,000	-0,013	-0,090
-498,868	-200,000	-0,002	-0,016
-497,853	-27,609	-0,108	-0,046
-496,839	79,560	0,071	-0,055
-495,824	476,540	-0,041	-0,068
-494,810	381,850	0,064	-0,096
-493,795	-200,000	-0,003	0,109
-492,781	-65,413	-0,033	0,010
-491,766	-80,722	-0,099	0,024
-490,751	383,851	-0,054	-0,081
-489,737	359,996	-0,073	0,107
-488,722	-200,000	0,015	0,070
-487,708	-38,769	0,072	-0,027
-486,693	228,925	-0,082	-0,097
-485,678	800,000	0,033	-0,071
-484,664	191,574	-0,035	-0,039
-483,649	71,781	-0,077	-0,059
-482,635	411,019	-0,059	-0,092
-481,620	-200,000	-0,002	0,052
-480,605	316,372	-0,069	-0,096
-479,591	342,046	0,045	0,064
-478,576	169,180	0,018	-0,019
-477,562	185,041	0,056	-0,061
-476,547	-55,396	-0,152	-0,050
-475,532	800,000	0,027	-0,082
-474,518	800,000	0,016	-0,044
-473,503	138,133	-0,050	0,048
-472,489	-192,458	0,140	-0,001
-471,474	19,351	0,047	0,027
-470,459	-200,000	-0,012	-0,144
-469,445	800,000	0,030	-0,092
-468,430	742,569	0,049	0,097
-467,416	419,848	-0,089	-0,139
-466,401	800,000	-0,024	0,051
-465,386	-200,000	-0,035	0,147
-464,372	800,000	-0,014	0,037
-463,357	-34,375	-0,063	-0,025
-462,343	213,680	-0,026	0,030
-461,328	272,712	-0,076	-0,098
-460,313	-200,000	0,025	-0,093
-459,299	-200,000	-0,002	0,251
-458,284	-113,812	0,071	-0,010
-457,270	-15,210	-0,096	0,044
-456,255	538,927	-0,076	-0,133
-455,241	14,574	0,053	0,030
-454,226	-137,991	-0,142	0,011
-453,211	-200,000	-0,001	0,109
-452,197	150,347	0,045	0,045
-451,182	800,000	-0,020	-0,048
-450,168	-200,000	0,000	-0,059
-449,153	-200,000	-0,012	-0,062
-448,138	-127,343	-0,125	-0,013
-447,124	13,144	0,091	-0,051
-446,109	-16,093	0,080	0,037
-445,095	-200,000	-0,007	-0,099
-444,080	-200,000	0,031	-0,171
-443,065	14,504	0,043	-0,025
-442,051	-12,586	-0,068	0,032
-441,036	38,766	-0,106	-0,069
-440,022	136,714	0,060	-0,058
-439,007	95,308	-0,036	-0,030
-437,992	124,191	-0,067	-0,061
-436,978	-60,730	0,151	0,046
-435,963	-79,848	-0,073	-0,018
-434,949	-200,000	0,007	-0,086
-433,934	131,897	0,056	-0,052
-432,919	495,230	-0,057	-0,095
-431,905	-200,000	-0,029	-0,140
-430,890	-200,000	-0,015	0,142
-429,876	-200,000	0,006	0,104
-428,861	-200,000	0,012	0,056
-427,846	-112,062	-0,065	-0,009
-426,832	800,000	0,080	-0,226
-425,817	-65,157	-0,099	-0,029
-424,803	-200,000	-0,033	-0,114
-423,788	-200,000	0,007	-0,027
-422,773	-96,296	0,111	0,021
-421,759	-121,049	0,213	-0,026
-420,744	432,134	-0,037	0,058
-419,730	-85,822	0,039	-0,009
-418,715	554,594	-0,016	0,028
-417,701	-200,000	-0,019	-0,155
-416,686	-200,000	0,023	-0,077
-415,671	-200,000	-0,006	0,056
-414,657	-105,068	0,100	0,016
-413,642	-134,562	-0,065	-0,006
-412,628	800,000	0,041	0,108
-411,613	-59,547	0,063	0,020
-410,598	-131,220	-0,042	0,004
-409,584	-200,000	-0,006	-0,040
-408,569	-68,847	0,067	-0,019
-407,555	-20,724	0,041	0,018
-406,540	-93,182	-0,079	-0,016
-405,525	-56,244	0,078	0,025
-404,511	-200,000	0,022	0,071
-403,496	-47,993	-0,129	-0,045
-402,482	-183,578	0,140	0,002
-401,467	800,000	-0,029	0,077
-400,452	-200,000	-0,014	-0,169
-399,438	247,222	-0,018	0,022
-398,423	-198,384	-0,048	0,000
-397,409	57,454	0,030	0,022
-396,394	23,459	0,128	0,077
-395,379	117,246	-0,094	-0,084
-394,365	-0,048	0,030	0,016
-393,350	-102,513	0,049	0,008
-392,336	123,224	0,064	-0,058
-391,321	122,322	0,135	-0,123
-390,306	-100,241	-0,117	-0,021
-389,292	-200,000	-0,001	-0,095
-388,277	-125,157	0,121	0,013
-387,263	-59,709	-0,074	0,023
-386,248	-200,000	-0,022	0,134
-385,233	-7,156	-0,134	0,066
-384,219	138,524	0,087	-0,083
-383,204	-145,801	-0,169	-0,011
-382,190	203,753	0,079	0,089
-381,175	800,000	-0,054	-0,145
-380,160	-152,846	0,115	0,006
-379,146	-105,421	0,211	0,034
-378,131	223,014	0,017	-0,020
-377,117	-33,156	0,063	-0,025
-376,102	-97,984	-0,046	0,009
-375,088	678,286	0,037	-0,070
-374,073	-200,000	-0,016	-0,098
-373,058	151,011	0,111	0,110
-372,044	-174,883	0,142	-0,003
-371,029	311,913	0,104	-0,142
-370,015	200,663	0,081	0,091
-369,000	644,794	0,036	-0,068
-367,985	800,000	0,039	-0,116
-366,971	-30,384	-0,031	0,013
-365,956	193,085	0,074	0,081
-364,942	800,000	0,065	-0,180
-363,927	80,345	0,027	0,021
-362,912	-200,000	-0,002	-0,011
-361,898	86,602	-0,048	0,038
-360,883	-100,675	0,067	0,012
-359,869	24,242	-0,105	-0,063
-358,854	89,340	-0,058	-0,047
-357,839	130,392	0,043	0,040
-356,825	-136,312	0,152	-0,013
-355,810	-200,000	-0,011	0,050
-354,796	303,966	-0,057	-0,077
-353,781	-168,485	-0,154	0,004
-352,766	-83,957	-0,054	0,012
-351,752	-109,518	0,024	-0,004
-350,737	299,695	0,031	-0,042
-349,723	-200,000	0,021	0,114
-348,708	-52,506	-0,052	0,017
-347,693	-184,471	0,129	0,001
-346,679	-33,600	-0,024	0,010
-345,664	30,351	-0,056	-0,034
-344,650	-31,688	-0,071	-0,029
-343,635	-200,000	0,028	0,129
-342,620	-1,773	0,117	0,060
-341,606	57,661	-0,057	-0,041
-340,591	800,000	-0,022	0,072
-339,577	23,636	0,080	0,048
-338,562	-78,747	-0,091	0,022
-337,548	800,000	0,022	-0,051
-336,533	6,108	-0,089	0,048
-335,518	130,822	-0,075	0,070
-334,504	-200,000	0,000	0,040
-333,489	144,922	0,073	0,071
-332,475	-179,248	0,203	-0,003
-331,460	126,105	0,045	-0,041
-330,445	800,000	-0,037	0,104
-329,431	206,998	0,067	0,076
-328,416	-53,642	0,020	0,007
-327,402	-104,179	0,108	-0,018
-326,387	-56,054	-0,104	0,033
-325,372	-200,000	0,010	-0,050
-324,358	-65,292	-0,069	0,020
-323,343	-129,629	-0,073	-0,007
-322,329	-200,000	-0,001	-0,102
-321,314	800,000	0,025	0,053
-320,299	-146,293	0,046	-0,003
-319,285	-52,694	-0,135	-0,045
-318,270	-200,000	-0,008	0,141
-317,256	89,362	-0,075	-0,061
-316,241	123,504	0,083	0,075
-315,226	131,237	-0,124	-0,116
-314,212	125,465	0,105	0,096
-313,197	-186,231	-0,072	0,001
-312,183	269,784	0,101	0,130
-311,168	-106,035	-0,033	-0,005
-310,153	-200,000	-0,004	-0,207
-309,139	-200,000	0,023	-0,165
-308,124	-200,000	0,002	0,051
-307,110	84,908	-0,065	-0,051
-306,095	754,954	0,037	0,073
-305,080	-200,000	-0,017	0,161
-304,066	-88,061	-0,183	0,039
-303,051	-152,976	0,075	0,004
-302,037	117,464	-0,054	0,048
-301,022	202,131	0,106	0,119
-300,008	62,938	0,072	-0,053
-298,993	800,000	-0,046	0,117
-297,978	193,781	0,073	-0,081
-296,964	399,102	-0,023	0,034
-295,949	-6,874	0,056	0,028
-294,935	-16,689	0,099	-0,045
-293,920	77,954	0,090	0,069
-292,905	11,333	-0,098	-0,054
-291,891	179,390	0,115	0,123
-290,876	59,153	0,149	0,106
-289,862	-83,304	-0,045	0,010
-288,847	-14,844	0,054	-0,025
-287,832	228,970	0,042	-0,050
-286,818	-46,090	0,039	-0,014
-285,803	800,000	0,025	-0,066
-284,789	124,156	0,144	0,131
-283,774	-80,498	0,055	-0,013
-282,759	64,769	0,088	0,064
-281,745	-200,000	-0,033	0,126
-280,730	416,587	0,059	-0,091
-279,716	7,328	-0,095	-0,051
-278,701	71,739	0,067	0,051
-277,686	17,964	0,138	-0,079
-276,672	117,528	0,086	0,076
-275,657	-200,000	-0,016	0,087
-274,643	-151,879	-0,067	-0,003
-273,628	-74,960	-0,024	-0,006
-272,613	668,646	-0,013	-0,024
-271,599	-61,587	0,066	0,020
-270,584	-200,000	0,011	0,161
-269,570	354,769	0,103	0,148
-268,555	-200,000	-0,008	-0,056
-267,540	-200,000	0,004	-0,055
-266,526	-200,000	0,020	-0,178
-265,511	-200,000	0,009	-0,047
-264,497	800,000	-0,051	-0,128
-263,482	-200,000	-0,031	0,105
-262,467	-200,000	0,027	0,158
-261,453	800,000	0,057	-0,128
-260,438	17,142	0,062	-0,035
-259,424	-133,952	0,126	0,011
-258,409	224,297	0,045	-0,053
-257,395	73,717	-0,133	0,101
-256,380	800,000	0,018	0,041
-255,365	445,656	0,060	0,096
-254,351	-200,000	0,020	-0,083
-253,336	800,000	-0,042	-0,106
-252,322	540,202	0,038	-0,067
-251,307	-97,431	0,054	-0,010
-250,292	28,270	-0,060	-0,037
-249,278	-29,461	-0,004	0,001
-248,263	-117,972	0,081	0,010
-247,249	-118,105	0,041	0,005
-246,234	482,313	0,080	-0,131
-245,219	408,195	-0,074	-0,114
-244,205	238,931	-0,112	-0,135
-243,190	-33,318	0,120	-0,048
-242,176	-49,430	0,050	-0,017
-241,161	-28,587	0,210	-0,087
-240,146	26,158	-0,081	0,049
-239,132	161,071	-0,093	0,094
-238,117	124,976	-0,059	0,054
-237,103	213,556	0,040	0,045
-236,088	25,240	0,083	-0,050
-235,073	22,929	0,023	-0,014
-234,059	109,264	0,007	0,006
-233,044	-41,790	-0,066	0,024
-232,030	-200,000	-0,012	0,173
-231,015	306,526	0,081	0,110
-230,000	-200,000	-0,007	0,032
-228,986	77,547	-0,097	0,075
-227,971	-200,000	-0,024	0,184
-226,957	88,996	-0,102	0,082
-225,942	-103,713	-0,045	-0,008
-224,927	135,770	0,038	-0,036
-223,913	757,909	0,030	-0,060
-222,898	-0,045	-0,031	-0,016
-221,884	207,525	0,068	-0,077
-220,869	-0,484	0,049	0,025
-219,855	-13,024	-0,011	-0,005
-218,840	800,000	0,046	0,103
-217,825	-138,287	0,100	0,008
-216,811	-2,774	-0,117	-0,059
-215,796	-6,651	-0,110	0,054
-214,782	284,494	0,035	0,046
-213,767	315,428	0,137	0,187
-212,752	800,000	0,076	0,219
-211,738	75,575	0,072	0,055
-210,723	326,953	0,067	0,093
-209,709	-200,000	0,007	-0,040
-208,694	800,000	-0,100	0,244
-207,679	-200,000	-0,009	-0,045
-206,665	-21,508	0,107	0,047
-205,650	-200,000	-0,006	-0,032
-204,636	-200,000	0,005	0,081
-203,621	62,003	-0,092	0,066
-202,606	-150,051	-0,140	0,008
-201,592	63,292	0,052	-0,038
-200,577	-71,223	-0,033	0,009
-199,563	14,406	0,051	0,029
-198,548	159,862	0,100	0,100
-197,533	302,621	0,065	-0,088
-196,519	33,277	0,054	0,034
-195,504	683,860	0,022	0,041
-194,490	-200,000	0,007	0,054
-193,475	-93,932	-0,082	0,016
-192,460	-40,446	0,198	0,074
-191,446	335,143	-0,041	0,058
-190,431	-14,814	0,126	0,058
-189,417	-200,000	-0,004	0,017
-188,402	250,527	0,052	-0,064
-187,387	-0,550	-0,035	0,018
-186,373	-78,942	-0,101	-0,025
-185,358	-200,000	-0,017	0,133
-184,344	-69,418	-0,054	0,015
-183,329	-116,586	-0,112	-0,015
-182,315	136,033	-0,115	0,108
-181,300	273,663	-0,164	0,210
-180,285	108,875	0,034	0,030
-179,271	-6,163	0,084	-0,041
-178,256	-200,000	-0,008	0,099
-177,242	117,604	-0,165	-0,147
-176,227	-129,178	-0,121	-0,012
-175,212	203,780	-0,089	-0,100
-174,198	184,578	-0,026	0,028
-173,183	800,000	0,025	0,057
-172,169	114,613	-0,079	-0,070
-171,154	-112,749	0,201	0,028
-170,139	354,774	-0,049	0,070
-169,125	17,850	-0,008	-0,005
-168,110	-200,000	-0,023	0,078
-167,096	-200,000	0,016	-0,100
-166,081	-200,000	-0,009	-0,041
-165,066	527,584	0,020	-0,034
-164,052	68,352	0,046	0,034
-163,037	156,281	0,027	-0,027
-162,023	-200,000	0,018	0,232
-161,008	-200,000	-0,025	0,107
-159,993	800,000	-0,028	-0,089
-158,979	-200,000	-0,011	-0,115
-157,964	-200,000	-0,002	-0,019
-156,950	-140,508	0,162	0,012
-155,935	800,000	-0,032	-0,074
-154,920	800,000	0,016	-0,035
-153,906	77,141	-0,086	0,066
-152,891	76,078	-0,073	0,055
-151,877	-200,000	0,014	-0,096
-150,862	-16,666	-0,037	0,017
-149,847	82,288	-0,020	0,015
-148,833	-180,009	-0,030	-0,000
-147,818	46,320	-0,012	0,008
-146,804	800,000	-0,010	-0,026
-145,789	800,000	0,037	0,084
-144,775	-200,000	-0,003	-0,048
-143,760	133,773	-0,089	-0,083
-142,745	800,000	-0,010	0,023
-141,731	800,000	0,034	0,079
-140,716	382,867	0,079	0,118
-139,702	103,746	0,123	0,104
-138,687	185,325	0,084	-0,090
-137,672	42,246	0,031	0,020
-136,658	-121,701	-0,181	-0,021
-135,643	-200,000	0,011	-0,062
-134,629	9,855	-0,085	0,046
-133,614	-56,992	0,138	0,044
-132,599	-200,000	-0,006	0,038
-131,585	800,000	-0,041	0,101
-130,570	-73,255	-0,100	-0,026
-129,556	-200,000	-0,001	-0,045
-128,541	-96,320	-0,105	-0,020
-127,526	-118,182	0,080	0,010
-126,512	297,658	0,057	0,075
-125,497	-200,000	-0,014	-0,082
-124,483	23,741	-0,049	0,029
-123,468	800,000	0,028	0,080
-122,453	-200,000	-0,001	-0,018
-121,439	70,127	-0,112	-0,083
-120,424	-200,000	0,008	0,026
-119,410	-124,581	0,042	0,005
-118,395	147,939	-0,144	-0,140
-117,380	-125,776	0,053	-0,006
-116,366	-93,357	-0,066	0,013
-115,351	-88,339	-0,023	-0,005
-114,337	-200,000	0,031	-0,103
-113,322	-116,757	-0,007	-0,001
-112,307	-153,849	-0,063	-0,003
-111,293	470,663	-0,055	0,090
-110,278	-200,000	0,020	-0,075
-109,264	-200,000	-0,000	0,109
-108,249	-59,417	0,091	-0,028
-107,234	89,093	0,040	-0,032
-106,220	-25,911	0,178	-0,075
-105,205	227,018	0,056	-0,065
-104,191	-200,000	0,002	0,065
-103,176	18,888	0,075	-0,043
-102,162	697,111	-0,051	-0,097
-101,147	208,422	-0,081	-0,091
-100,132	800,000	-0,064	-0,138
-99,118	800,000	0,007	-0,014
-98,103	-25,061	-0,033	-0,014
-97,089	-200,000	-0,003	0,080
-96,074	-200,000	-0,012	-0,072
-95,059	-46,508	-0,098	0,034
-94,045	91,427	0,107	0,087
-93,030	800,000	0,008	0,020
-92,016	676,641	-0,054	-0,101
-91,001	-200,000	-0,028	0,138
-89,986	-134,547	0,066	-0,006
-88,972	-106,800	0,051	0,008
-87,957	-35,633	-0,156	0,060
-86,943	-24,911	-0,112	-0,048
-85,928	800,000	-0,044	0,113
-84,913	35,584	0,018	-0,011
-83,899	800,000	0,067	-0,178
-82,884	-83,237	-0,066	-0,015
-81,870	-26,434	0,162	0,068
-80,855	-11,491	-0,081	0,038
-79,840	800,000	-0,030	-0,080
-78,826	618,642	0,050	0,090
-77,811	-48,837	-0,134	-0,046
-76,797	-105,606	0,089	-0,014
-75,782	-200,000	-0,006	-0,032
-74,767	-71,350	0,125	0,033
-73,753	-130,647	-0,054	-0,005
-72,738	800,000	0,047	0,116
-71,724	46,951	-0,149	0,099
-70,709	4,608	0,104	0,054
-69,694	800,000	-0,019	0,052
-68,680	786,493	-0,032	0,063
-67,665	-28,711	0,117	-0,048
-66,651	230,702	0,079	0,093
-65,636	60,038	-0,031	0,022
-64,622	-123,569	0,028	-0,003
-63,607	-200,000	0,028	-0,154
-62,592	-160,638	0,122	-0,005
-61,578	-200,000	-0,001	0,127
-60,563	151,271	0,182	0,178
-59,549	-68,991	-0,216	0,059
-58,534	-26,498	-1,896	-0,794
-57,519	-200,000	-0,249	-1,014
-56,505	-200,000	-1,324	-4,880
-55,490	-17,600	0,796	0,358
-54,476	800,000	5,296	12,153
-53,461	-200,000	17,366	283,873
-52,446	800,000	724,281	2222,946
-51,432	540,443	1640,432	2815,110
-50,417	111,243	1631,786	1411,417
-49,403	75,693	1286,325	974,649
-48,388	32,542	1028,242	636,578
-47,373	20,185	990,070	572,174
-46,359	18,676	978,187	560,333
-45,344	16,024	974,166	549,321
-44,330	16,269	972,755	549,305
-43,315	15,778	971,117	546,754
-42,300	15,781	969,891	546,053
-41,286	15,791	968,830	545,466
-40,271	15,772	967,540	544,655
-39,257	15,764	966,892	544,243
-38,242	15,769	966,145	543,817
-37,227	15,781	965,116	543,257
-36,213	15,773	964,358	542,780
-35,198	15,728	963,493	542,128
-34,184	15,831	962,721	542,005
-33,169	15,705	961,914	541,123
-32,154	15,763	960,770	540,645
-31,140	15,775	960,012	540,234
-30,125	15,771	959,402	539,858
-29,111	15,803	958,384	539,365
-28,096	15,792	957,799	538,979
-27,082	15,791	957,318	538,685
-26,067	15,808	956,438	538,223
-25,052	15,726	955,715	537,530
-24,038	15,775	954,939	537,232
-23,023	15,776	954,414	536,916
-22,009	15,745	953,742	536,419
-20,994	15,776	953,148	536,163
-19,979	15,807	952,442	535,844
-18,965	15,783	951,726	535,343
-17,950	15,794	951,179	535,047
-16,936	15,703	950,469	534,336
-15,921	15,770	949,811	534,161
-14,906	15,721	949,047	533,554
-13,892	15,646	948,437	532,949
-12,877	15,618	947,864	532,518
-11,863	15,618	947,198	532,123
-10,848	15,609	946,924	531,916
-9,833	15,736	946,314	531,957
-8,819	15,684	945,752	531,456
-7,804	15,724	944,905	531,087
-6,790	15,678	944,375	530,622
-5,775	15,686	943,750	530,275
-4,760	15,709	943,190	530,013
-3,746	15,672	942,607	529,545
-2,731	15,571	941,757	528,727
-1,717	15,495	941,277	528,196
-0,702	15,573	940,512	527,993
0,313	15,333	939,942	527,711
1,327	18,489	937,653	536,327
2,342	27,432	794,879	478,375
3,356	24,119	458,812	271,035
4,371	-3,225	313,753	156,336
5,386	-7,191	295,368	143,160
6,400	-9,245	289,378	138,210
7,415	-9,572	286,836	136,662
8,429	-9,760	285,593	135,874
9,444	-9,690	284,507	135,414
10,459	-9,700	283,753	135,033
11,473	-9,749	283,259	134,738
12,488	-9,673	282,830	134,596
13,502	-9,839	282,286	134,164
14,517	-9,726	282,008	134,129
15,531	-9,857	281,390	133,697
16,546	-9,738	281,079	133,653
17,561	-9,669	280,662	133,509
18,575	-9,563	280,401	133,474
19,590	-9,736	279,948	133,081
20,604	-9,627	279,726	133,067
21,619	-9,840	279,278	132,639
22,634	-9,782	279,132	132,613
23,648	-9,794	278,692	132,382
24,663	-9,643	278,390	132,370
25,677	-9,684	278,141	132,200
26,692	-9,924	277,952	131,871
27,707	-9,680	277,661	131,953
28,721	-9,688	277,339	131,780
29,736	-9,734	276,982	131,555
30,750	-9,683	276,709	131,462
31,765	-9,731	276,493	131,303
32,780	-9,806	276,436	131,193
33,794	-9,657	276,066	131,146
34,809	-9,715	275,821	130,963
35,823	-9,682	275,585	130,870
36,838	-9,843	275,333	130,588
37,853	-9,897	275,141	130,435
38,867	-9,751	274,860	130,426
39,882	-9,692	274,587	130,341
40,896	-9,653	274,294	130,226
41,911	-9,926	274,180	129,905
42,926	-9,691	273,815	129,941
43,940	-9,994	273,578	129,534
44,955	-9,718	273,315	129,655
45,969	-9,934	273,180	129,378
46,984	-9,924	272,925	129,255
47,999	-10,260	272,681	128,815
49,013	-10,328	272,412	128,613
50,028	-10,249	272,164	128,558
51,042	-10,453	271,854	128,211
52,057	-10,461	271,592	128,068
53,071	-10,280	271,252	128,065
54,086	-10,206	271,312	128,150
55,101	-10,055	271,019	128,140
56,115	-9,931	270,839	128,158
57,130	-9,651	270,710	128,344
58,144	-9,631	270,613	128,304
59,159	-9,635	270,314	128,147
60,174	-9,569	269,960	128,029
61,188	-9,638	269,928	127,939
62,203	-9,594	269,623	127,823
63,217	-9,619	269,563	127,760
64,232	-9,780	269,275	127,465
65,247	-9,514	269,031	127,582
66,261	-9,712	268,767	127,264
67,276	-9,877	268,545	126,997
68,290	-9,958	268,304	126,798
69,305	-9,912	268,077	126,721
70,320	-10,009	267,821	126,500
71,334	-9,715	267,685	126,693
72,349	-9,692	267,423	126,578
73,363	-9,507	267,251	126,654
74,378	-9,788	267,034	126,285
75,393	-9,701	266,858	126,269
76,407	-9,483	266,619	126,342
77,422	-9,664	266,432	126,078
78,436	-9,638	266,217	125,988
79,451	-9,628	266,040	125,903
80,466	-9,440	265,710	125,905
81,480	-9,558	265,347	125,616
82,495	-9,789	265,273	125,361
83,509	-9,532	265,047	125,475
84,524	-9,710	264,826	125,198
85,539	-10,037	264,681	124,825
86,553	-9,782	264,157	124,796
87,568	-10,021	264,305	124,640
88,582	-9,862	264,031	124,642
89,597	-9,821	263,837	124,575
90,611	-9,801	263,758	124,546
91,626	-9,516	263,426	124,633
92,641	-9,522	263,142	124,482
93,655	-9,659	263,065	124,312
94,670	-9,677	263,012	124,260
95,684	-9,666	262,717	124,119
96,699	-9,470	262,396	124,131
97,714	-9,683	262,403	123,933
98,728	-9,869	262,112	123,619
99,743	-9,937	261,845	123,422
100,757	-9,844	261,519	123,340
101,772	-9,989	261,559	123,219
102,787	-9,986	261,231	123,056
103,801	-9,807	261,064	123,125
104,816	-9,427	260,885	123,366
105,830	-9,810	260,841	122,995
106,845	-9,568	260,557	123,064
107,860	-9,665	260,352	122,871
108,874	-9,942	260,243	122,564
109,889	-9,855	259,890	122,463
110,903	-9,755	259,613	122,410
111,918	-9,928	259,583	122,232
112,933	-9,862	259,499	122,240
113,947	-9,526	259,140	122,356
114,962	-9,709	259,182	122,204
115,976	-9,806	258,852	121,952
116,991	-9,623	258,623	121,994
118,006	-9,819	258,487	121,747
119,020	-9,861	258,517	121,713
120,035	-9,667	258,181	121,714
121,049	-9,707	257,966	121,567
122,064	-9,632	257,818	121,552
123,079	-9,575	257,423	121,405
124,093	-9,572	257,223	121,302
125,108	-10,029	257,155	120,861
126,122	-10,004	256,953	120,777
127,137	-10,127	256,670	120,526
128,151	-9,906	256,412	120,586
129,166	-9,860	256,260	120,544
130,181	-9,731	256,079	120,560
131,195	-9,919	255,910	120,307
132,210	-9,702	255,637	120,355
133,224	-9,750	255,543	120,259
134,239	-9,653	255,435	120,281
135,254	-9,577	255,247	120,247
136,268	-9,751	255,008	119,974
137,283	-9,924	254,663	119,652
138,297	-10,066	254,553	119,468
139,312	-10,046	254,309	119,360
140,327	-9,861	254,271	119,490
141,341	-9,518	254,049	119,670
142,356	-9,534	253,900	119,575
143,370	-9,447	253,745	119,567
144,385	-9,609	253,628	119,362
145,400	-9,581	253,361	119,249
146,414	-9,650	253,251	119,128
147,429	-9,563	253,174	119,155
148,443	-9,360	252,914	119,196
149,458	-9,394	252,774	119,091
150,473	-9,283	252,469	119,031
151,487	-9,530	252,241	118,702
152,502	-9,624	252,071	118,532
153,516	-9,552	251,883	118,493
154,531	-9,581	251,735	118,388
155,546	-9,474	251,528	118,372
156,560	-9,440	251,411	118,335
157,575	-9,631	251,191	118,059
158,589	-9,583	251,058	118,026
159,604	-9,519	250,866	117,980
160,619	-9,464	250,670	117,924
161,633	-9,628	250,495	117,693
162,648	-9,267	250,336	117,912
163,662	-9,510	250,198	117,632
164,677	-9,544	250,015	117,507
165,692	-9,513	249,832	117,436
166,706	-9,496	249,754	117,404
167,721	-9,545	249,609	117,284
168,735	-9,425	249,372	117,262
169,750	-9,457	249,255	117,170
170,764	-9,398	249,217	117,191
171,779	-9,245	248,779	117,104
172,794	-9,409	248,736	116,935
173,808	-9,640	248,567	116,652
174,823	-9,933	248,402	116,318
175,837	-10,058	248,002	116,015
176,852	-9,631	247,881	116,305
177,867	-9,416	247,729	116,404
178,881	-9,298	247,630	116,446
179,896	-9,435	247,535	116,276
180,910	-9,556	247,421	116,111
181,925	-9,522	247,285	116,065
182,940	-9,583	247,030	115,884
183,954	-9,417	246,841	115,924
184,969	-9,554	246,713	115,739
185,983	-9,512	246,583	115,703
186,998	-9,471	246,440	115,659
188,013	-9,429	246,155	115,550
189,027	-9,508	246,033	115,417
190,042	-9,576	245,715	115,202
191,056	-9,622	245,667	115,131
192,071	-9,561	245,554	115,118
193,086	-9,397	245,162	115,059
194,100	-9,432	245,144	115,012
195,115	-9,313	244,892	114,981
196,129	-9,419	244,793	114,837
197,144	-9,537	244,570	114,626
198,159	-9,351	244,282	114,633
199,173	-9,451	244,149	114,478
200,188	-9,515	243,998	114,345
201,202	-9,944	243,765	113,873
202,217	-10,069	243,486	113,630
203,232	-10,103	243,372	113,539
204,246	-9,596	243,197	113,862
205,261	-9,120	243,056	114,175
206,275	-10,148	242,749	113,181
207,290	-7,141	244,181	116,308
208,304	-0,284	246,133	122,887
209,319	2,932	246,884	125,906
210,334	3,211	246,938	126,153
211,348	3,361	247,048	126,322
212,363	3,802	246,833	126,563
213,377	3,930	246,677	126,578
214,392	3,701	246,647	126,362
215,407	3,658	246,275	126,125
216,421	3,726	246,200	126,132
217,436	3,961	246,055	126,239
218,450	4,030	245,952	126,231
219,465	3,778	245,668	125,867
220,480	3,293	245,488	125,367
221,494	3,463	245,320	125,409
222,509	3,618	245,087	125,405
223,523	3,380	245,108	125,210
224,538	2,997	244,719	124,688
225,553	3,156	244,696	124,795
226,567	3,323	244,463	124,801
227,582	3,500	244,368	124,886
228,596	3,721	244,102	124,919
229,611	3,197	243,983	124,420
230,626	3,242	243,736	124,320
231,640	3,271	243,577	124,251
232,655	3,494	243,517	124,391
233,669	3,181	243,303	124,017
234,684	2,949	242,990	123,658
235,699	3,518	243,066	124,146
236,713	3,781	242,894	124,261
237,728	3,342	242,623	123,756
238,742	3,167	242,381	123,480
239,757	2,940	242,252	123,221
240,772	3,240	242,214	123,432
241,786	3,428	242,153	123,541
242,801	3,165	241,796	123,136
243,815	2,979	241,829	122,993
244,830	3,414	241,510	123,169
245,844	3,423	241,437	123,128
246,859	3,274	241,163	122,858
247,874	3,287	241,053	122,801
248,888	3,297	240,890	122,715
249,903	3,372	240,693	122,664
250,917	3,427	240,711	122,707
251,932	3,829	240,533	122,926
252,947	3,450	240,449	122,569
253,961	3,369	240,022	122,276
254,976	3,465	240,049	122,355
255,990	3,736	239,790	122,429
257,005	3,212	239,724	121,967
258,020	3,167	239,445	121,778
259,034	2,914	239,373	121,529
260,049	3,307	239,162	121,723
261,063	3,105	239,142	121,542
262,078	3,394	238,710	121,541
263,093	3,455	238,794	121,621
264,107	3,540	238,678	121,618
265,122	3,153	238,454	121,187
266,136	3,434	238,376	121,359
267,151	3,919	238,117	121,600
268,166	3,456	237,885	121,105
269,180	3,083	237,743	120,727
270,195	3,904	237,980	121,485
271,209	3,939	237,788	121,404
272,224	3,290	237,423	120,696
273,239	2,898	237,065	120,194
274,253	3,042	237,045	120,287
275,268	3,372	236,795	120,409
276,282	3,568	236,756	120,532
277,297	3,109	236,620	120,092
278,312	3,343	236,535	120,221
279,326	3,431	236,425	120,224
280,341	3,360	236,178	120,032
281,355	3,431	236,059	120,016
282,370	3,442	235,997	119,982
283,384	3,457	235,713	119,839
284,399	3,341	235,544	119,652
285,414	2,963	235,492	119,320
286,428	3,238	235,217	119,384
287,443	3,342	235,073	119,381
288,457	3,484	234,955	119,422
289,472	3,385	234,904	119,308
290,487	3,361	234,730	119,191
291,501	2,980	234,665	118,851
292,516	3,052	234,312	118,717
293,530	3,215	234,013	118,681
294,545	3,344	234,090	118,809
295,560	3,286	233,961	118,688
296,574	3,057	233,646	118,341
297,589	3,172	233,458	118,324
298,603	3,572	233,628	118,710
299,618	3,601	233,501	118,657
300,633	3,460	233,311	118,441
301,647	3,519	233,282	118,461
302,662	3,922	233,167	118,703
303,676	3,699	232,881	118,375
304,691	3,658	232,757	118,270
305,706	3,811	232,532	118,263
306,720	3,767	232,486	118,195
307,735	3,624	232,375	118,018
308,749	3,504	232,034	117,742
309,764	3,338	231,912	117,542
310,779	3,078	231,750	117,250
311,793	3,066	231,453	117,080
312,808	3,201	231,263	117,077
313,822	2,879	231,265	116,821
314,837	3,019	231,149	116,860
315,852	3,035	230,954	116,762
316,866	3,489	230,965	117,105
317,881	3,424	230,726	116,923
318,895	3,631	230,667	117,041
319,910	3,764	230,470	117,032
320,925	3,526	230,345	116,776
321,939	3,189	230,076	116,374
322,954	3,649	229,982	116,666
323,968	3,299	229,895	116,345
324,983	3,024	229,617	115,985
325,997	3,064	229,641	116,017
327,012	3,334	229,462	116,122
328,027	3,494	229,293	116,146
329,041	3,627	229,149	116,164
330,056	4,134	229,112	116,519
331,070	3,926	228,941	116,264
332,085	3,471	228,750	115,813
333,100	3,726	228,586	115,912
334,114	3,586	228,518	115,761
335,129	3,823	228,225	115,781
336,143	3,667	228,150	115,616
337,158	3,579	227,976	115,450
338,173	3,702	227,927	115,508
339,187	3,665	227,775	115,393
340,202	3,788	227,673	115,423
341,216	3,643	227,343	115,137
342,231	3,409	227,329	114,944
343,246	3,498	227,159	114,915
344,260	3,822	226,953	115,043
345,275	3,706	226,938	114,938
346,289	3,842	226,767	114,943
347,304	3,846	226,659	114,881
348,319	3,828	226,444	114,748
349,333	3,673	226,233	114,515
350,348	3,644	226,034	114,383
351,362	3,683	226,043	114,407
352,377	3,398	225,850	114,087
353,392	3,314	225,654	113,914
354,406	3,509	225,418	113,930
355,421	196,490	1321,869	1402,168
356,435	157,519	1455,453	1402,163
