DTS Sentinel unit serial number:	SN410029Multiplexer serial number:	ORYXHardware model number:	OX2-SRSoftware version number:	ORYX F/W v4,00 Oryx Data Collector v3.7.2.0data status	okinstallation	B5 Nyhavnadifferential loss correction	single-endedforward channel	channel 2reverse channel	N/Adate	2023/12/14time	04:32:13forward acquisition time	300,00reverse acquisition time	0,00gamma	499,1914k internal	0,3157k external	0,3157temperature offset calibration	1,0000default loss term (dB/km)	0,3820temperature slope calibration	1,0000multiplexer offset coefficient	1,0000multiplexer slope coefficient	1,0000fibre end	0,00T internal ref (°C)	7,86T ext. ref 1 (°C)	-8,60T ext. ref 2 (°C)	-8,67length (m)	temperature (°C)	Stokes	anti-Stokes-744,400	137,960	0,042	0,041
-743,385	-181,171	-0,451	0,006
-742,371	-24,243	0,196	0,086
-741,356	-138,749	-0,192	0,015
-740,342	-67,714	0,067	0,019
-739,327	42,377	-0,287	-0,192
-738,312	97,602	0,136	0,115
-737,298	-77,842	-0,595	-0,150
-736,283	-165,414	0,281	0,009
-735,269	-16,282	-0,461	-0,215
-734,254	-148,660	0,138	0,008
-733,239	-25,667	-0,495	-0,214
-732,225	-116,352	0,240	0,032
-731,210	-200,000	0,003	0,128
-730,196	-200,000	0,008	0,069
-729,181	31,404	-0,092	0,058
-728,167	-40,196	-0,035	0,013
-727,152	95,699	-0,047	0,039
-726,137	800,000	-0,082	-0,195
-725,123	-18,479	0,050	-0,023
-724,108	68,848	0,080	-0,060
-723,094	-200,000	-0,019	-0,068
-722,079	130,185	0,141	-0,133
-721,064	6,651	-0,109	0,060
-720,050	-102,708	0,057	0,010
-719,035	-156,790	0,101	0,005
-718,021	37,303	-0,017	-0,011
-717,006	800,000	-0,054	-0,163
-715,991	-74,803	-0,119	0,031
-714,977	-200,000	-0,018	-0,060
-713,962	126,455	-0,039	0,037
-712,948	-40,971	-0,092	-0,035
-711,933	13,669	-0,062	0,035
-710,918	138,338	-0,044	-0,043
-709,904	-70,336	0,021	-0,006
-708,889	-200,000	-0,053	-0,218
-707,875	-200,000	-0,005	-0,133
-706,860	800,000	-0,023	-0,052
-705,845	-200,000	-0,028	-0,158
-704,831	203,271	-0,015	0,017
-703,816	50,120	0,014	-0,010
-702,802	800,000	-0,049	-0,102
-701,787	-112,094	-0,050	0,007
-700,772	-167,717	0,058	-0,002
-699,758	160,341	0,076	-0,078
-698,743	196,790	-0,030	-0,034
-697,729	-147,479	0,045	-0,003
-696,714	201,095	0,057	-0,065
-695,699	-200,000	0,029	-0,136
-694,685	689,656	-0,024	-0,047
-693,670	-200,000	-0,033	-0,195
-692,656	-146,225	-0,015	0,001
-691,641	-67,954	0,108	0,031
-690,627	800,000	-0,048	-0,154
-689,612	-9,005	0,070	0,035
-688,597	148,752	0,065	-0,065
-687,583	597,400	-0,101	-0,186
-686,568	-200,000	-0,012	-0,067
-685,554	-200,000	0,002	0,067
-684,539	-123,518	-0,119	-0,014
-683,524	-200,000	0,007	0,057
-682,510	23,970	-0,083	-0,050
-681,495	5,612	-0,072	-0,039
-680,481	-200,000	-0,022	0,077
-679,466	12,384	-0,035	-0,020
-678,451	-200,000	0,010	0,085
-677,437	101,385	-0,050	-0,043
-676,422	11,639	-0,105	-0,059
-675,408	142,266	0,018	0,018
-674,393	-106,831	-0,057	-0,009
-673,378	-200,000	-0,023	-0,082
-672,364	2,450	0,141	-0,075
-671,349	181,288	-0,045	-0,048
-670,335	-187,355	-0,103	-0,001
-669,320	-180,476	0,045	0,001
-668,305	389,636	0,034	0,052
-667,291	19,161	-0,070	-0,041
-666,276	2,249	0,015	0,008
-665,262	-128,266	-0,077	-0,008
-664,247	38,431	-0,099	-0,065
-663,232	-149,790	0,116	-0,007
-662,218	119,755	0,057	-0,052
-661,203	486,614	-0,106	-0,178
-660,189	800,000	0,037	0,094
-659,174	-52,867	-0,139	-0,047
-658,159	-200,000	-0,040	-0,174
-657,145	169,792	0,010	-0,010
-656,130	64,918	0,050	-0,037
-655,116	-140,959	0,119	-0,009
-654,101	800,000	0,053	0,123
-653,086	-108,062	0,097	0,015
-652,072	93,140	-0,071	0,059
-651,057	234,644	-0,080	-0,097
-650,043	53,945	-0,148	-0,104
-649,028	-200,000	-0,004	-0,044
-648,014	800,000	-0,052	-0,146
-646,999	-166,936	0,103	0,003
-645,984	59,193	0,044	-0,032
-644,970	-9,057	0,111	-0,054
-643,955	800,000	-0,058	-0,156
-642,941	-125,093	-0,108	0,012
-641,926	800,000	0,033	-0,103
-640,911	800,000	0,017	-0,044
-639,897	76,305	0,106	-0,082
-638,882	-2,594	-0,064	-0,033
-637,868	-200,000	0,002	-0,072
-636,853	-200,000	-0,007	-0,140
-635,838	-200,000	0,013	-0,098
-634,824	-200,000	0,035	-0,161
-633,809	-200,000	-0,006	-0,082
-632,795	800,000	-0,034	-0,093
-631,780	-68,318	-0,109	0,031
-630,765	-161,170	-0,140	-0,005
-629,751	337,464	-0,050	-0,072
-628,736	-59,985	-0,167	-0,052
-627,722	-200,000	0,033	0,108
-626,707	-200,000	-0,002	-0,010
-625,692	392,907	-0,078	0,119
-624,678	473,362	0,075	0,124
-623,663	-200,000	-0,048	0,171
-622,649	800,000	-0,037	-0,095
-621,634	-200,000	-0,009	-0,028
-620,619	-182,805	-0,094	0,001
-619,605	-24,188	0,080	-0,035
-618,590	312,097	-0,095	-0,131
-617,576	-136,672	0,060	-0,005
-616,561	-80,184	-0,126	0,031
-615,546	100,263	-0,045	0,038
-614,532	800,000	-0,012	-0,038
-613,517	14,564	0,110	-0,063
-612,503	-68,051	-0,076	-0,021
-611,488	175,817	0,027	0,029
-610,474	-23,892	0,114	0,050
-609,459	-192,260	-0,076	0,001
-608,444	124,297	-0,054	0,049
-607,430	800,000	-0,006	-0,014
-606,415	99,383	-0,119	-0,101
-605,401	155,179	0,046	-0,046
-604,386	-200,000	-0,005	0,135
-603,371	394,348	0,038	0,058
-602,357	-7,087	-0,125	0,062
-601,342	56,878	-0,054	-0,038
-600,328	156,721	0,028	-0,028
-599,313	116,376	0,072	-0,065
-598,298	3,241	0,044	0,024
-597,284	-178,751	0,107	-0,002
-596,269	-144,253	-0,107	-0,007
-595,255	800,000	-0,034	-0,073
-594,240	-8,445	-0,068	-0,033
-593,225	96,738	0,025	-0,021
-592,211	-56,536	-0,086	-0,028
-591,196	-200,000	0,005	-0,034
-590,182	-103,317	0,178	0,030
-589,167	-200,000	0,004	0,084
-588,152	283,277	-0,045	0,060
-587,138	-141,022	-0,202	-0,015
-586,123	-200,000	-0,001	-0,125
-585,109	-141,563	0,060	-0,004
-584,094	-200,000	-0,001	-0,064
-583,079	800,000	0,016	-0,035
-582,065	84,527	-0,064	0,052
-581,050	800,000	-0,011	-0,029
-580,036	81,907	0,087	0,069
-579,021	140,458	-0,034	0,033
-578,006	-200,000	0,017	-0,142
-576,992	-35,391	-0,109	-0,043
-575,977	-100,268	0,092	-0,017
-574,963	-200,000	-0,018	0,078
-573,948	26,769	0,083	-0,051
-572,934	-200,000	0,006	0,041
-571,919	83,742	-0,139	-0,111
-570,904	800,000	-0,037	-0,096
-569,890	-200,000	-0,020	-0,108
-568,875	-184,470	-0,058	-0,001
-567,861	800,000	0,039	0,100
-566,846	746,857	0,009	0,018
-565,831	256,290	0,133	0,167
-564,817	129,736	-0,064	-0,060
-563,802	164,995	0,061	-0,063
-562,788	173,411	-0,027	-0,029
-561,773	-68,070	-0,048	0,014
-560,758	-200,000	0,006	-0,034
-559,744	72,967	0,069	0,053
-558,729	404,674	0,057	0,088
-557,715	99,582	-0,104	-0,088
-556,700	160,538	0,020	-0,020
-555,685	800,000	-0,055	-0,126
-554,671	-127,564	0,061	-0,006
-553,656	800,000	0,029	-0,062
-552,642	-99,653	0,028	0,005
-551,627	62,674	-0,028	-0,021
-550,612	198,398	-0,109	-0,122
-549,598	185,014	-0,096	-0,104
-548,583	767,340	0,038	-0,076
-547,569	-24,357	0,054	0,024
-546,554	-200,000	0,011	0,040
-545,539	373,287	-0,027	-0,041
-544,525	-200,000	0,001	0,039
-543,510	-41,476	0,061	0,023
-542,496	547,744	0,050	-0,088
-541,481	-136,641	-0,132	0,011
-540,466	754,045	-0,038	-0,075
-539,452	-200,000	0,009	0,046
-538,437	-200,000	0,014	0,174
-537,423	-85,765	-0,083	0,019
-536,408	-78,805	0,077	0,019
-535,393	-93,892	-0,104	-0,021
-534,379	19,563	-0,114	0,067
-533,364	-33,077	-0,101	-0,041
-532,350	-34,714	0,205	-0,081
-531,335	-200,000	0,096	0,000
-530,321	-57,317	-0,037	-0,012
-529,306	-30,340	-0,009	-0,004
-528,291	-94,920	-0,057	0,011
-527,277	209,164	-0,059	-0,067
-526,262	107,438	-0,054	-0,047
-525,248	-200,000	-0,014	-0,076
-524,233	-106,280	0,045	0,007
-523,218	-200,000	0,003	0,024
-522,204	800,000	-0,047	-0,108
-521,189	361,934	-0,046	-0,067
-520,175	-200,000	0,010	-0,053
-519,160	-182,977	-0,027	0,000
-518,145	800,000	-0,027	-0,077
-517,131	-42,277	0,181	-0,067
-516,116	284,845	0,017	-0,023
-515,102	191,784	0,076	-0,084
-514,087	-200,000	0,008	-0,142
-513,072	450,824	-0,079	-0,128
-512,058	-49,038	-0,151	-0,052
-511,043	-98,803	0,129	-0,024
-510,029	-109,591	0,044	0,007
-509,014	218,998	0,030	0,035
-507,999	-200,000	-0,006	0,081
-506,985	-30,481	0,090	-0,037
-505,970	3,272	-0,127	-0,067
-504,956	-200,000	0,005	-0,175
-503,941	94,364	0,085	0,070
-502,926	176,194	-0,075	-0,080
-501,912	56,795	0,197	0,140
-500,897	111,183	0,008	0,007
-499,883	-200,000	-0,005	-0,040
-498,868	29,304	0,045	-0,028
-497,853	-78,550	-0,122	-0,030
-496,839	800,000	0,073	0,160
-495,824	28,231	0,046	-0,028
-494,810	-200,000	0,012	-0,058
-493,795	165,700	0,072	0,075
-492,781	-200,000	-0,024	-0,136
-491,766	-52,350	-0,048	-0,016
-490,751	800,000	-0,088	-0,185
-489,737	81,530	-0,039	0,031
-488,722	194,081	0,052	0,058
-487,708	526,734	0,088	0,152
-486,693	-200,000	-0,003	0,053
-485,678	-105,740	0,126	-0,021
-484,664	373,361	-0,019	-0,028
-483,649	141,776	-0,093	-0,090
-482,635	161,059	0,096	-0,098
-481,620	800,000	0,026	0,071
-480,605	800,000	0,011	-0,030
-479,591	-200,000	-0,006	0,078
-478,576	-200,000	0,013	-0,086
-477,562	-200,000	0,018	-0,210
-476,547	-11,033	-0,182	-0,087
-475,532	339,557	-0,090	0,128
-474,518	149,179	0,064	0,063
-473,503	152,103	0,052	-0,052
-472,489	1,273	0,106	0,055
-471,474	-173,394	-0,146	-0,003
-470,459	-200,000	-0,024	-0,090
-469,445	-77,472	0,081	-0,020
-468,430	-200,000	0,019	0,083
-467,416	197,327	0,038	0,043
-466,401	800,000	-0,013	0,037
-465,386	-200,000	0,024	0,087
-464,372	-200,000	0,007	0,052
-463,357	53,129	-0,139	0,097
-462,343	11,037	0,168	-0,093
-461,328	-13,322	-0,052	-0,025
-460,313	122,329	0,048	-0,044
-459,299	61,573	0,145	0,105
-458,284	143,966	-0,064	-0,062
-457,270	800,000	-0,041	0,122
-456,255	-200,000	-0,014	0,098
-455,241	143,266	-0,162	-0,157
-454,226	187,904	0,005	-0,006
-453,211	100,560	0,061	0,052
-452,197	-126,414	-0,129	-0,014
-451,182	-200,000	0,006	0,106
-450,168	-200,000	0,008	0,108
-449,153	800,000	-0,042	-0,087
-448,138	59,876	0,024	0,017
-447,124	17,268	-0,045	-0,026
-446,109	-200,000	0,002	-0,013
-445,095	123,046	-0,048	-0,044
-444,080	237,058	-0,032	-0,039
-443,065	295,266	-0,045	0,060
-442,051	78,640	0,093	0,072
-441,036	147,550	-0,047	-0,046
-440,022	-185,793	-0,063	0,001
-439,007	-24,386	-0,096	0,042
-437,992	-35,306	0,114	0,045
-436,978	-200,000	-0,012	0,184
-435,963	101,172	0,076	0,064
-434,949	-73,869	0,091	-0,024
-433,934	-200,000	0,014	-0,084
-432,919	-8,218	-0,132	-0,064
-431,905	655,691	-0,072	-0,136
-430,890	-34,154	-0,038	0,015
-429,876	-200,000	0,041	0,138
-428,861	117,873	-0,062	-0,055
-427,846	-200,000	0,002	-0,056
-426,832	-15,095	-0,218	-0,101
-425,817	800,000	0,052	-0,123
-424,803	211,707	0,108	-0,124
-423,788	-19,750	-0,054	0,024
-422,773	275,297	0,041	0,054
-421,759	-119,645	0,212	-0,026
-420,744	-139,927	-0,130	-0,010
-419,730	69,551	0,093	0,070
-418,715	800,000	-0,048	-0,115
-417,701	-181,351	0,071	0,001
-416,686	62,337	-0,073	0,053
-415,671	301,491	0,059	0,079
-414,657	800,000	-0,019	0,055
-413,642	-200,000	0,015	0,105
-412,628	432,516	0,022	-0,035
-411,613	530,724	-0,024	0,042
-410,598	800,000	-0,058	-0,165
-409,584	800,000	0,018	-0,051
-408,569	-200,000	0,046	0,154
-407,555	800,000	-0,058	0,118
-406,540	392,444	0,073	0,111
-405,525	11,742	-0,129	0,072
-404,511	1,222	0,089	-0,046
-403,496	-177,892	-0,037	-0,001
-402,482	-200,000	0,035	-0,133
-401,467	694,131	0,059	0,114
-400,452	800,000	-0,048	0,108
-399,438	-200,000	0,009	0,111
-398,423	-200,000	0,025	-0,124
-397,409	-200,000	0,015	-0,087
-396,394	-121,933	-0,065	-0,008
-395,379	217,223	0,025	0,029
-394,365	-200,000	0,019	0,118
-393,350	-45,953	0,065	0,023
-392,336	43,933	0,024	0,016
-391,321	-140,985	0,088	-0,006
-390,306	80,015	-0,115	-0,090
-389,292	-166,604	0,116	-0,003
-388,277	773,382	0,053	0,106
-387,263	34,701	-0,114	0,072
-386,248	18,950	0,065	0,038
-385,233	370,072	-0,048	0,071
-384,219	-200,000	0,012	0,068
-383,204	-143,655	-0,046	0,003
-382,190	-46,683	0,068	0,024
-381,175	44,001	0,078	-0,052
-380,160	800,000	-0,021	0,052
-379,146	6,372	-0,083	-0,045
-378,131	-200,000	-0,005	0,045
-377,117	213,253	-0,047	-0,055
-376,102	-68,668	0,175	-0,049
-375,088	249,273	-0,036	0,045
-374,073	354,950	-0,015	-0,022
-373,058	135,821	-0,017	0,016
-372,044	-123,791	0,167	0,019
-371,029	-200,000	-0,014	0,073
-370,015	-36,316	0,108	0,042
-369,000	800,000	-0,040	-0,113
-367,985	550,343	0,047	-0,082
-366,971	-50,587	0,131	0,045
-365,956	-200,000	0,010	0,046
-364,942	345,864	0,042	-0,060
-363,927	-46,238	0,069	0,024
-362,912	800,000	-0,016	-0,047
-361,898	-156,884	-0,128	0,006
-360,883	-200,000	-0,003	-0,130
-359,869	-81,884	0,126	0,030
-358,854	135,818	-0,076	-0,072
-357,839	-91,897	-0,082	0,017
-356,825	-200,000	0,000	-0,056
-355,810	11,448	0,136	-0,075
-354,796	-20,624	0,045	-0,020
-353,781	-3,156	0,117	-0,059
-352,766	-200,000	0,009	0,088
-351,752	146,992	0,066	-0,065
-350,737	-200,000	0,019	-0,061
-349,723	-134,658	-0,044	-0,004
-348,708	800,000	0,033	-0,086
-347,693	310,849	-0,098	0,134
-346,679	105,200	-0,075	-0,065
-345,664	-5,594	-0,033	0,016
-344,650	429,825	-0,029	0,045
-343,635	800,000	0,044	0,131
-342,620	-200,000	0,053	0,220
-341,606	-200,000	-0,018	0,105
-340,591	800,000	-0,046	0,127
-339,577	-124,288	-0,190	0,021
-338,562	800,000	0,049	0,127
-337,548	-200,000	-0,012	0,091
-336,533	402,151	0,094	0,144
-335,518	-48,889	0,254	0,088
-334,504	544,300	-0,016	-0,029
-333,489	-200,000	0,019	-0,079
-332,475	-108,451	-0,170	-0,026
-331,460	110,313	0,068	-0,059
-330,445	-67,941	0,077	0,022
-329,431	800,000	-0,056	-0,125
-328,416	110,043	0,082	0,071
-327,402	-200,000	0,014	0,055
-326,387	-125,685	0,052	-0,006
-325,372	-200,000	-0,003	-0,106
-324,358	167,726	-0,074	-0,076
-323,343	800,000	-0,054	-0,113
-322,329	-200,000	-0,021	-0,096
-321,314	-57,266	0,086	0,027
-320,299	57,090	-0,036	0,025
-319,285	800,000	-0,014	0,037
-318,270	-89,524	0,030	-0,006
-317,256	51,090	-0,048	-0,033
-316,241	769,194	-0,068	0,134
-315,226	-200,000	0,043	0,155
-314,212	106,863	-0,063	0,054
-313,197	241,300	0,025	0,030
-312,183	297,333	0,078	0,104
-311,168	-200,000	0,019	0,088
-310,153	-160,703	-0,038	0,001
-309,139	-137,498	-0,113	0,009
-308,124	49,607	0,103	-0,070
-307,110	800,000	-0,036	0,105
-306,095	800,000	-0,013	0,031
-305,080	-200,000	-0,006	0,031
-304,066	-86,412	-0,108	0,024
-303,051	-46,581	-0,060	0,021
-302,037	-167,152	-0,067	-0,002
-301,022	-102,357	-0,074	-0,013
-300,008	30,904	0,082	0,051
-298,993	-116,979	0,109	-0,014
-297,978	643,830	-0,081	0,150
-296,964	-200,000	0,001	0,040
-295,949	184,167	0,054	0,058
-294,935	-200,000	-0,005	-0,097
-293,920	-182,010	-0,082	0,001
-292,905	-125,946	0,110	0,012
-291,891	800,000	-0,027	0,072
-290,876	350,381	0,043	0,062
-289,862	521,380	-0,069	-0,118
-288,847	-200,000	0,038	0,165
-287,832	253,696	0,042	0,052
-286,818	800,000	-0,039	0,119
-285,803	-126,887	-0,137	-0,014
-284,789	520,632	0,136	0,232
-283,774	-200,000	-0,058	0,209
-282,759	-91,408	0,030	-0,006
-281,745	385,422	-0,101	0,152
-280,730	-106,168	0,039	0,006
-279,716	800,000	0,022	0,055
-278,701	800,000	-0,053	0,166
-277,686	622,828	0,040	-0,072
-276,672	-200,000	0,004	0,117
-275,657	-39,195	0,096	0,036
-274,643	137,914	-0,038	0,036
-273,628	-63,866	-0,029	0,008
-272,613	-72,509	-0,047	-0,012
-271,599	-200,000	-0,006	0,080
-270,584	-7,417	0,041	-0,020
-269,570	43,954	0,097	-0,064
-268,555	-157,075	-0,128	-0,006
-267,540	800,000	-0,035	0,092
-266,526	376,464	-0,094	-0,139
-265,511	-200,000	-0,000	-0,021
-264,497	-47,702	0,090	-0,032
-263,482	102,534	-0,134	0,113
-262,467	116,540	0,053	0,047
-261,453	-200,000	0,006	-0,024
-260,438	-200,000	0,025	-0,098
-259,424	-31,577	-0,045	0,018
-258,409	-200,000	-0,019	-0,121
-257,395	37,736	0,102	0,065
-256,380	-130,195	-0,040	0,004
-255,365	-200,000	0,013	0,102
-254,351	800,000	0,017	-0,047
-253,336	-200,000	0,065	-0,208
-252,322	54,605	-0,118	-0,082
-251,307	574,618	-0,037	-0,065
-250,292	-200,000	0,004	-0,039
-249,278	-110,563	0,056	0,008
-248,263	-128,727	0,120	-0,012
-247,249	-58,887	-0,048	0,015
-246,234	800,000	-0,029	-0,071
-245,219	324,776	-0,018	0,025
-244,205	120,249	-0,110	-0,099
-243,190	800,000	0,016	-0,036
-242,176	-19,605	0,095	-0,042
-241,161	-10,219	-0,125	0,060
-240,146	789,922	0,057	-0,114
-239,132	142,216	0,050	-0,048
-238,117	109,206	-0,020	-0,017
-237,103	98,077	0,058	-0,048
-236,088	602,649	-0,012	0,022
-235,073	-101,718	0,144	0,025
-234,059	-200,000	-0,013	0,095
-233,044	436,099	0,097	0,153
-232,030	-200,000	0,011	-0,092
-231,015	29,245	-0,168	-0,103
-230,000	71,025	-0,087	0,065
-228,986	800,000	0,026	-0,057
-227,971	109,889	0,113	-0,098
-226,957	-64,552	0,096	-0,028
-225,942	-174,858	0,066	-0,001
-224,927	-200,000	0,010	0,100
-223,913	294,387	0,024	0,031
-222,898	279,869	0,043	-0,056
-221,884	-103,212	-0,167	-0,028
-220,869	-10,071	0,129	0,062
-219,855	209,798	-0,060	0,068
-218,840	800,000	-0,043	0,095
-217,825	-200,000	-0,017	0,085
-216,811	443,200	0,056	0,089
-215,796	-154,879	-0,117	0,005
-214,782	113,589	0,101	0,089
-213,767	800,000	-0,028	0,087
-212,752	-31,439	-0,072	0,029
-211,738	-200,000	-0,003	0,021
-210,723	-149,995	0,070	-0,004
-209,709	-49,905	0,040	0,013
-208,694	-84,964	-0,149	-0,033
-207,679	116,905	0,038	-0,034
-206,665	800,000	0,040	0,081
-205,650	-9,798	0,107	-0,051
-204,636	-200,000	0,000	-0,005
-203,621	307,416	0,034	-0,046
-202,606	680,886	-0,058	0,109
-201,592	176,095	-0,039	0,041
-200,577	-200,000	-0,005	-0,108
-199,563	-200,000	-0,009	0,161
-198,548	610,310	0,058	0,105
-197,533	-200,000	-0,030	0,100
-196,519	-94,309	-0,129	-0,025
-195,504	442,715	0,105	0,167
-194,490	-70,097	-0,200	-0,055
-193,475	-200,000	0,003	-0,012
-192,460	-200,000	-0,003	-0,166
-191,446	200,449	0,138	-0,153
-190,431	-141,830	0,136	-0,010
-189,417	30,534	-0,146	0,090
-188,402	47,734	-0,030	-0,020
-187,387	192,854	0,018	-0,019
-186,373	-200,000	0,016	-0,089
-185,358	350,039	-0,019	-0,028
-184,344	800,000	-0,027	0,059
-183,329	101,553	-0,086	-0,073
-182,315	-53,177	0,157	0,052
-181,300	800,000	-0,050	0,123
-180,285	87,511	-0,110	-0,088
-179,271	-85,495	0,109	-0,024
-178,256	-200,000	-0,000	-0,062
-177,242	-94,565	0,116	-0,022
-176,227	54,821	0,113	0,079
-175,212	-40,563	-0,090	-0,034
-174,198	-123,095	0,173	0,020
-173,183	25,603	-0,053	0,032
-172,169	709,625	0,026	0,050
-171,154	-200,000	0,005	-0,087
-170,139	226,470	-0,050	-0,058
-169,125	800,000	0,029	-0,082
-168,110	123,945	0,046	0,041
-167,096	-142,933	-0,123	-0,008
-166,081	800,000	-0,060	0,127
-165,066	800,000	0,023	-0,065
-164,052	288,147	-0,066	-0,087
-163,037	-24,074	0,203	-0,087
-162,023	-200,000	0,010	0,095
-161,008	69,375	-0,077	0,057
-159,993	188,723	0,065	0,070
-158,979	-34,521	0,095	0,037
-157,964	128,780	-0,042	0,039
-156,950	800,000	-0,019	-0,046
-155,935	-200,000	0,028	0,148
-154,920	161,328	0,084	0,085
-153,906	173,602	0,065	-0,067
-152,891	4,970	-0,058	-0,030
-151,877	111,342	-0,046	-0,040
-150,862	83,384	-0,130	-0,102
-149,847	-121,188	0,075	0,009
-148,833	62,953	-0,066	-0,048
-147,818	6,777	-0,038	0,021
-146,804	800,000	0,056	-0,156
-145,789	-112,801	0,030	-0,004
-144,775	136,846	0,038	-0,036
-143,760	261,589	-0,134	-0,167
-142,745	59,849	-0,054	-0,038
-141,731	-132,433	0,148	0,014
-140,716	-33,747	0,092	-0,036
-139,702	-200,000	-0,030	0,113
-138,687	164,349	0,048	-0,049
-137,672	-26,358	-0,121	-0,051
-136,658	208,381	0,030	-0,034
-135,643	610,061	0,035	0,063
-134,629	-200,000	-0,024	-0,099
-133,614	-166,828	0,116	0,003
-132,599	-64,018	0,065	-0,019
-131,585	-200,000	0,013	-0,050
-130,570	-155,213	-0,117	0,005
-129,556	-200,000	-0,057	-0,202
-128,541	18,303	0,025	-0,014
-127,526	89,322	0,104	0,083
-126,512	-92,753	-0,079	0,016
-125,497	15,214	0,152	-0,085
-124,483	-153,243	-0,160	-0,008
-123,468	707,149	0,019	-0,036
-122,453	-35,338	0,080	-0,031
-121,439	-132,391	-0,051	0,005
-120,424	127,764	0,134	0,122
-119,410	-200,000	-0,016	-0,069
-118,395	119,381	0,115	0,102
-117,380	-126,096	-0,189	0,020
-116,366	175,960	0,079	-0,082
-115,351	150,998	-0,114	-0,112
-114,337	800,000	0,023	0,072
-113,322	91,292	-0,058	-0,047
-112,307	-200,000	-0,037	-0,173
-111,293	-200,000	0,002	-0,005
-110,278	201,412	0,044	0,049
-109,264	172,217	0,063	-0,065
-108,249	-142,288	0,142	-0,010
-107,234	125,382	-0,078	-0,071
-106,220	656,527	0,020	-0,036
-105,205	-79,102	0,187	0,045
-104,191	68,017	0,028	-0,021
-103,176	19,859	0,081	-0,047
-102,162	-200,000	0,009	0,063
-101,147	-200,000	0,035	-0,158
-100,132	58,009	-0,057	-0,040
-99,118	178,504	-0,109	-0,115
-98,103	574,588	0,064	-0,112
-97,089	800,000	0,045	0,117
-96,074	-55,901	-0,108	-0,035
-95,059	180,870	-0,059	0,063
-94,045	6,623	-0,112	-0,060
-93,030	-150,511	-0,077	-0,004
-92,016	-200,000	0,008	0,056
-91,001	-65,042	-0,042	0,012
-89,986	286,818	0,061	0,080
-88,972	-200,000	-0,015	-0,084
-87,957	-124,834	-0,047	0,005
-86,943	-200,000	0,022	-0,074
-85,928	-131,795	-0,119	-0,011
-84,913	86,139	0,054	-0,043
-83,899	-65,905	-0,008	-0,002
-82,884	160,716	-0,038	0,039
-81,870	-156,285	0,165	0,007
-80,855	800,000	0,027	0,055
-79,840	-115,340	-0,057	-0,008
-78,826	198,490	0,153	-0,168
-77,811	-84,861	-0,104	-0,023
-76,797	-34,854	0,141	0,055
-75,782	240,679	-0,027	-0,033
-74,767	-200,000	-0,054	-0,238
-73,753	-104,268	-0,025	0,004
-72,738	-79,934	-0,107	0,026
-71,724	800,000	-0,021	0,055
-70,709	-58,440	-0,129	0,040
-69,694	-95,794	-0,106	-0,020
-68,680	191,588	0,094	-0,102
-67,665	-94,085	-0,098	-0,019
-66,651	-200,000	0,008	0,024
-65,636	800,000	-0,042	0,103
-64,622	-200,000	0,007	0,080
-63,607	683,951	-0,084	-0,158
-62,592	102,715	0,059	0,049
-61,578	-200,000	-0,013	-0,125
-60,563	-200,000	-0,031	-0,152
-59,549	36,347	0,104	0,066
-58,534	94,473	-2,600	-2,120
-57,519	15,138	0,462	-0,259
-56,505	-200,000	-1,642	-5,323
-55,490	533,556	1,122	1,915
-54,476	800,000	5,175	11,369
-53,461	-200,000	22,248	347,846
-52,446	800,000	759,797	2290,451
-51,432	512,743	1643,810	2760,085
-50,417	96,604	1606,372	1319,575
-49,403	64,366	1263,782	912,514
-48,388	22,766	1016,361	596,075
-47,373	19,403	984,028	566,004
-46,359	12,846	970,810	536,958
-45,344	8,561	967,540	521,106
-44,330	9,018	965,487	521,475
-43,315	7,993	963,832	517,213
-42,300	7,967	962,740	516,524
-41,286	7,920	961,708	515,795
-40,271	7,932	960,659	515,251
-39,257	7,909	959,727	514,657
-38,242	7,900	958,880	514,153
-37,227	7,860	958,071	513,569
-36,213	7,925	957,138	513,257
-35,198	7,897	956,465	512,786
-34,184	7,961	955,692	512,558
-33,169	7,891	954,614	511,732
-32,154	7,947	953,884	511,502
-31,140	7,956	952,885	510,975
-30,125	7,994	952,111	510,662
-29,111	7,920	951,350	509,995
-28,096	7,991	950,664	509,836
-27,082	7,914	950,207	509,324
-26,067	7,850	949,440	508,687
-25,052	7,908	948,345	508,268
-24,038	7,837	947,737	507,694
-23,023	7,833	947,339	507,445
-22,009	7,931	946,676	507,384
-20,994	7,939	946,179	507,123
-19,979	7,888	945,323	506,481
-18,965	7,866	944,804	506,113
-17,950	7,898	944,061	505,797
-16,936	7,805	943,638	505,255
-15,921	7,795	942,851	504,779
-14,906	7,761	941,988	504,191
-13,892	7,805	941,519	504,060
-12,877	7,764	940,750	503,497
-11,863	7,770	940,215	503,208
-10,848	7,802	939,749	503,042
-9,833	7,821	939,340	502,863
-8,819	7,814	938,589	502,419
-7,804	7,799	937,736	501,897
-6,790	7,772	937,400	501,609
-5,775	7,749	936,900	501,249
-4,760	7,777	936,190	500,939
-3,746	7,750	935,832	500,642
-2,731	7,696	934,913	499,958
-1,717	7,592	934,255	499,258
-0,702	7,660	933,567	499,086
0,313	7,437	932,909	498,781
1,327	10,934	930,551	508,493
2,342	19,662	778,674	448,340
3,356	14,640	446,676	249,625
4,371	-11,881	311,599	146,011
5,386	-15,620	294,091	134,024
6,400	-17,837	287,936	129,017
7,415	-17,863	285,385	127,838
8,429	-18,467	283,633	126,454
9,444	-18,543	282,749	125,975
10,459	-18,353	282,024	125,824
11,473	-18,397	281,560	125,564
12,488	-18,402	281,161	125,370
13,502	-18,423	280,531	125,057
14,517	-18,346	280,097	124,927
15,531	-18,139	279,652	124,916
16,546	-18,239	279,462	124,724
17,561	-18,204	278,942	124,514
18,575	-18,250	278,828	124,408
19,590	-18,256	278,164	124,095
20,604	-18,118	277,997	124,141
21,619	-18,325	277,666	123,785
22,634	-17,970	277,112	123,864
23,648	-18,042	276,963	123,718
24,663	-18,136	276,732	123,515
25,677	-18,211	276,488	123,324
26,692	-18,075	276,082	123,261
27,707	-18,028	275,908	123,216
28,721	-18,179	275,555	122,905
29,736	-17,977	275,344	122,990
30,750	-18,027	275,032	122,793
31,765	-18,282	274,822	122,449
32,780	-17,956	274,554	122,625
33,794	-18,027	274,278	122,424
34,809	-18,021	274,087	122,333
35,823	-18,057	273,780	122,151
36,838	-17,882	273,461	122,162
37,853	-18,027	273,213	121,905
38,867	-18,017	273,066	121,838
39,882	-18,095	272,746	121,611
40,896	-17,947	272,556	121,654
41,911	-18,090	272,233	121,365
42,926	-18,082	272,157	121,328
43,940	-18,162	271,903	121,130
44,955	-18,105	271,600	121,037
45,969	-18,008	271,310	120,987
46,984	-18,124	271,416	120,916
47,999	-17,765	270,981	121,044
49,013	-17,868	270,976	120,935
50,028	-17,929	270,528	120,668
51,042	-17,845	270,449	120,700
52,057	-17,849	270,269	120,605
53,071	-18,023	269,968	120,299
54,086	-17,892	269,685	120,283
55,101	-17,784	269,493	120,287
56,115	-17,920	269,225	120,031
57,130	-18,083	268,864	119,710
58,144	-18,131	268,684	119,575
59,159	-18,054	268,337	119,480
60,174	-18,029	268,185	119,425
61,188	-17,941	267,956	119,392
62,203	-17,939	267,707	119,273
63,217	-17,845	267,499	119,255
64,232	-18,044	267,290	118,970
65,247	-18,205	267,037	118,700
66,261	-18,043	266,796	118,730
67,276	-17,952	266,650	118,737
68,290	-18,071	266,277	118,452
69,305	-17,967	266,261	118,529
70,320	-17,886	266,122	118,530
71,334	-18,049	265,807	118,232
72,349	-18,073	265,360	118,001
73,363	-18,175	265,263	117,855
74,378	-18,213	265,026	117,705
75,393	-17,997	264,771	117,776
76,407	-18,179	264,633	117,539
77,422	-17,973	264,470	117,642
78,436	-18,062	264,128	117,399
79,451	-18,086	263,913	117,272
80,466	-17,964	263,717	117,284
81,480	-17,991	263,506	117,156
82,495	-17,904	263,151	117,065
83,509	-17,920	263,088	117,012
84,524	-17,691	262,845	117,100
85,539	-17,712	262,614	116,967
86,553	-17,609	262,318	116,916
87,568	-17,958	262,151	116,520
88,582	-18,098	261,884	116,266
89,597	-17,989	261,899	116,360
90,611	-18,029	261,531	116,150
91,626	-18,035	261,489	116,116
92,641	-18,001	261,245	116,027
93,655	-17,981	260,994	115,923
94,670	-17,900	260,787	115,893
95,684	-18,188	260,653	115,568
96,699	-18,023	260,296	115,545
97,714	-18,114	260,328	115,469
98,728	-18,072	260,014	115,356
99,743	-17,825	259,780	115,461
100,757	-17,902	259,416	115,220
101,772	-17,951	259,451	115,182
102,787	-17,901	259,081	115,052
103,801	-18,024	258,877	114,842
104,816	-18,193	258,884	114,687
105,830	-17,826	258,443	114,804
106,845	-17,886	258,313	114,683
107,860	-17,890	258,082	114,566
108,874	-18,045	257,932	114,353
109,889	-18,077	257,605	114,171
110,903	-18,004	257,374	114,122
111,918	-18,019	257,314	114,073
112,933	-17,995	257,186	114,026
113,947	-17,968	256,884	113,906
114,962	-17,933	256,557	113,781
115,976	-18,010	256,464	113,663
116,991	-17,795	256,155	113,703
118,006	-18,042	256,075	113,442
119,020	-17,966	255,742	113,351
120,035	-18,061	255,920	113,337
121,049	-18,009	255,592	113,227
122,064	-17,918	255,478	113,245
123,079	-17,999	255,126	113,008
124,093	-17,911	255,000	113,019
125,108	-17,857	254,761	112,949
126,122	-18,012	254,790	112,818
127,137	-17,824	254,520	112,851
128,151	-17,822	254,285	112,739
129,166	-17,859	254,047	112,591
130,181	-17,859	253,887	112,510
131,195	-18,059	253,568	112,187
132,210	-18,021	253,216	112,053
133,224	-17,877	253,099	112,115
134,239	-18,137	252,960	111,821
135,254	-17,852	252,749	111,962
136,268	-17,862	252,599	111,876
137,283	-17,916	252,206	111,647
138,297	-17,890	252,167	111,642
139,312	-17,527	251,931	111,838
140,327	-17,965	251,736	111,367
141,341	-18,022	251,611	111,254
142,356	-18,070	251,513	111,159
143,370	-17,981	251,236	111,102
144,385	-17,889	251,068	111,097
145,400	-17,941	250,637	110,852
146,414	-17,972	250,684	110,836
147,429	-17,825	250,348	110,803
148,443	-17,817	250,369	110,809
149,458	-17,767	249,914	110,639
150,473	-17,971	250,023	110,505
151,487	-17,860	249,581	110,394
152,502	-18,007	249,486	110,218
153,516	-17,900	249,293	110,213
154,531	-17,839	249,122	110,179
155,546	-17,872	248,736	109,971
156,560	-17,981	248,779	109,888
157,575	-17,979	248,666	109,831
158,589	-17,887	248,379	109,771
159,604	-17,993	248,149	109,571
160,619	-18,041	248,044	109,474
161,633	-17,834	247,824	109,541
162,648	-17,818	247,549	109,423
163,662	-18,005	247,547	109,256
164,677	-17,869	247,455	109,319
165,692	-17,974	247,172	109,097
166,706	-17,739	246,867	109,149
167,721	-17,867	246,803	109,003
168,735	-17,951	246,754	108,903
169,750	-17,868	246,384	108,798
170,764	-17,593	246,314	108,987
171,779	-17,972	246,149	108,589
172,794	-18,065	246,090	108,475
173,808	-17,882	245,790	108,486
174,823	-17,853	245,749	108,482
175,837	-17,792	245,488	108,408
176,852	-17,950	245,453	108,251
177,867	-17,952	245,185	108,122
178,881	-17,856	245,145	108,174
179,896	-17,980	244,776	107,899
180,910	-17,998	244,632	107,812
181,925	-17,827	244,392	107,837
182,940	-17,994	244,208	107,609
183,954	-17,869	244,094	107,652
184,969	-17,877	243,930	107,564
185,983	-17,932	243,764	107,435
186,998	-17,807	243,561	107,439
188,013	-18,035	243,458	107,197
189,027	-17,876	243,088	107,155
190,042	-18,014	243,036	107,009
191,056	-17,986	242,777	106,908
192,071	-17,920	242,524	106,841
193,086	-17,832	242,386	106,843
194,100	-17,895	242,344	106,763
195,115	-18,006	242,082	106,548
196,129	-17,909	241,954	106,561
197,144	-17,872	241,648	106,447
198,159	-17,854	241,500	106,387
199,173	-17,882	241,427	106,322
200,188	-17,928	241,186	106,170
201,202	-17,938	241,130	106,127
202,217	-17,910	240,999	106,083
203,232	-17,511	240,540	106,195
204,246	-17,729	240,324	105,914
205,261	-18,191	240,152	105,454
206,275	-17,187	240,695	106,498
207,290	-12,183	242,308	111,287
208,304	-5,625	244,349	117,601
209,319	-2,334	245,154	120,685
210,334	-1,312	245,297	121,584
211,348	-0,420	245,732	122,522
212,363	0,272	245,632	123,029
213,377	0,476	245,677	123,209
214,392	0,775	245,505	123,357
215,407	1,229	245,385	123,658
216,421	1,259	245,313	123,635
217,436	1,383	245,102	123,620
218,450	1,288	245,038	123,498
219,465	1,378	244,767	123,424
220,480	1,352	244,913	123,466
221,494	1,264	244,551	123,200
222,509	0,989	244,208	122,792
223,523	0,802	243,932	122,490
224,538	0,635	243,815	122,284
225,553	0,467	243,707	122,082
226,567	0,613	243,385	122,029
227,582	0,522	243,485	121,995
228,596	0,615	243,299	121,966
229,611	0,731	243,098	121,948
230,626	0,588	242,895	121,720
231,640	0,690	242,544	121,615
232,655	0,757	242,517	121,645
233,669	0,506	242,358	121,352
234,684	0,464	242,205	121,231
235,699	0,582	242,027	121,225
236,713	0,529	241,856	121,086
237,728	0,481	241,767	120,992
238,742	0,522	241,661	120,961
239,757	0,569	241,355	120,835
240,772	0,496	241,244	120,710
241,786	0,642	241,035	120,713
242,801	0,450	241,119	120,589
243,815	0,561	240,927	120,572
244,830	0,499	240,712	120,403
245,844	0,443	240,609	120,296
246,859	0,722	240,202	120,306
247,874	0,603	240,210	120,203
248,888	0,434	240,053	119,979
249,903	0,444	239,927	119,914
250,917	0,653	239,699	119,956
251,932	0,766	239,643	120,007
252,947	0,743	239,379	119,846
253,961	0,556	239,275	119,634
254,976	0,630	239,010	119,551
255,990	0,733	238,889	119,561
257,005	0,685	238,786	119,461
258,020	0,590	238,699	119,331
259,034	0,520	238,467	119,148
260,049	0,576	238,423	119,160
261,063	0,691	238,121	119,090
262,078	0,709	238,037	119,052
263,093	0,322	237,852	118,642
264,107	0,613	237,790	118,831
265,122	0,601	237,569	118,700
266,136	0,734	237,405	118,713
267,151	0,512	237,380	118,515
268,166	0,633	237,148	118,483
269,180	0,435	236,879	118,183
270,195	0,453	236,774	118,134
271,209	0,561	236,674	118,158
272,224	0,484	236,675	118,088
273,239	0,614	236,302	117,993
274,253	0,556	236,123	117,848
275,268	0,735	235,856	117,845
276,282	0,466	235,733	117,561
277,297	0,519	235,654	117,554
278,312	0,440	235,450	117,379
279,326	0,753	235,318	117,548
280,341	0,576	235,340	117,410
281,355	0,737	235,042	117,377
282,370	0,812	234,944	117,376
283,384	0,780	234,756	117,246
284,399	0,484	234,658	116,956
285,414	0,462	234,435	116,818
286,428	0,522	234,509	116,890
287,443	0,711	234,205	116,875
288,457	0,732	234,076	116,818
289,472	0,760	233,833	116,707
290,487	0,685	233,742	116,593
291,501	0,558	233,755	116,491
292,516	0,721	233,503	116,481
293,530	0,574	233,379	116,295
294,545	0,692	233,201	116,287
295,560	0,735	232,959	116,189
296,574	0,822	232,986	116,259
297,589	0,605	232,810	115,994
298,603	0,695	232,563	115,930
299,618	0,778	232,394	115,900
300,633	0,715	232,392	115,839
301,647	0,727	232,255	115,770
302,662	0,699	232,054	115,638
303,676	0,866	231,840	115,649
304,691	0,687	231,749	115,456
305,706	0,779	231,445	115,365
306,720	0,946	231,302	115,411
307,735	0,697	231,431	115,275
308,749	0,954	231,256	115,374
309,764	0,829	230,995	115,138
310,779	0,946	230,860	115,150
311,793	0,856	230,672	114,977
312,808	0,877	230,647	114,971
313,822	1,202	230,249	115,010
314,837	0,977	230,197	114,802
315,852	0,911	229,966	114,626
316,866	1,062	229,979	114,738
317,881	0,908	229,723	114,483
318,895	0,858	229,660	114,403
319,910	0,714	229,440	114,174
320,925	0,994	229,358	114,335
321,939	0,793	229,224	114,106
322,954	0,794	229,169	114,069
323,968	1,036	228,839	114,078
324,983	1,101	228,653	114,024
325,997	0,863	228,593	113,804
327,012	0,796	228,456	113,675
328,027	0,842	228,414	113,678
329,041	0,669	228,221	113,442
330,056	1,211	227,974	113,717
331,070	0,957	227,856	113,457
332,085	0,797	227,724	113,261
333,100	0,767	227,517	113,125
334,114	0,904	227,401	113,160
335,129	1,153	227,185	113,230
336,143	0,606	227,107	112,770
337,158	0,884	227,072	112,952
338,173	1,068	226,907	112,997
339,187	0,927	226,673	112,765
340,202	0,953	226,561	112,719
341,216	0,952	226,445	112,650
342,231	1,025	226,202	112,574
343,246	0,830	226,209	112,421
344,260	0,980	225,991	112,415
345,275	1,024	225,853	112,369
346,289	1,049	225,720	112,312
347,304	0,888	225,629	112,137
348,319	1,006	225,482	112,141
349,333	1,219	225,292	112,196
350,348	1,006	225,115	111,939
351,362	1,030	225,061	111,920
352,377	1,208	224,878	111,951
353,392	1,096	224,668	111,753
354,406	0,992	224,639	111,652
355,421	192,320	1310,679	1376,887
356,435	154,046	1442,835	1376,737
