DTS Sentinel unit serial number:	SN410029Multiplexer serial number:	ORYXHardware model number:	OX2-SRSoftware version number:	ORYX F/W v4,00 Oryx Data Collector v3.7.2.0data status	okinstallation	B5 Nyhavnadifferential loss correction	single-endedforward channel	channel 2reverse channel	N/Adate	2023/12/14time	16:52:13forward acquisition time	300,00reverse acquisition time	0,00gamma	499,1914k internal	0,3157k external	0,3157temperature offset calibration	1,0000default loss term (dB/km)	0,3820temperature slope calibration	1,0000multiplexer offset coefficient	1,0000multiplexer slope coefficient	1,0000fibre end	0,00T internal ref (°C)	8,07T ext. ref 1 (°C)	-7,33T ext. ref 2 (°C)	-7,38length (m)	temperature (°C)	Stokes	anti-Stokes-744,400	-9,041	0,111	-0,055
-743,385	-99,628	-0,298	-0,055
-742,371	-70,185	0,275	0,077
-741,356	-11,996	-0,203	-0,098
-740,342	211,507	0,157	0,182
-739,327	-67,403	-0,366	-0,105
-738,312	800,000	-0,040	0,091
-737,298	-68,049	-0,452	-0,129
-736,283	266,173	0,078	0,101
-735,269	-152,699	-0,395	-0,020
-734,254	-40,224	0,205	0,078
-733,239	-15,567	-0,542	-0,254
-732,225	-19,244	0,219	0,100
-731,210	-10,789	0,081	-0,039
-730,196	-200,000	0,018	0,123
-729,181	-200,000	-0,014	-0,109
-728,167	-40,226	-0,093	-0,036
-727,152	-200,000	-0,009	0,029
-726,137	-21,897	-0,111	-0,049
-725,123	354,090	-0,046	-0,068
-724,108	152,966	0,088	-0,089
-723,094	536,034	-0,026	0,046
-722,079	9,600	-0,178	-0,099
-721,064	144,330	-0,098	0,097
-720,050	246,115	0,052	-0,065
-719,035	-200,000	-0,015	-0,105
-718,021	-107,617	-0,149	0,024
-717,006	82,753	0,029	-0,023
-715,991	24,542	-0,176	-0,107
-714,977	222,540	-0,097	-0,116
-713,962	103,628	0,110	0,095
-712,948	236,953	0,086	-0,105
-711,933	-101,141	-0,085	0,015
-710,918	-200,000	0,007	-0,030
-709,904	-139,927	-0,056	-0,004
-708,889	18,801	-0,122	-0,072
-707,875	66,355	-0,090	-0,067
-706,860	-40,577	0,086	-0,033
-705,845	778,912	-0,029	0,058
-704,831	57,040	-0,066	0,047
-703,816	28,095	0,061	0,038
-702,802	-56,245	-0,158	-0,051
-701,787	-109,237	0,155	0,024
-700,772	800,000	-0,039	-0,102
-699,758	240,351	0,059	-0,073
-698,743	79,031	-0,040	-0,031
-697,729	686,235	0,069	0,134
-696,714	623,491	0,079	-0,147
-695,699	41,837	-0,014	-0,009
-694,685	-200,000	0,025	-0,101
-693,670	256,684	-0,110	-0,139
-692,656	-200,000	-0,030	-0,119
-691,641	81,138	-0,055	0,044
-690,627	-200,000	0,000	0,084
-689,612	-46,512	0,123	-0,044
-688,597	135,110	-0,083	-0,080
-687,583	614,957	-0,102	-0,189
-686,568	-74,605	0,126	0,033
-685,554	800,000	-0,038	-0,107
-684,539	179,357	-0,027	0,029
-683,524	-137,863	0,144	-0,012
-682,510	111,551	-0,056	0,050
-681,495	-200,000	-0,001	-0,042
-680,481	-110,132	-0,029	0,004
-679,466	60,932	-0,092	-0,067
-678,451	-200,000	-0,023	0,104
-677,437	-105,868	0,100	0,016
-676,422	-41,192	-0,190	-0,072
-675,408	88,363	-0,103	-0,084
-674,393	74,486	-0,030	0,023
-673,378	-200,000	0,017	-0,151
-672,364	272,601	-0,105	-0,137
-671,349	523,366	-0,034	-0,059
-670,335	141,355	-0,039	-0,038
-669,320	800,000	0,048	-0,144
-668,305	-131,520	0,148	-0,014
-667,291	738,273	-0,029	0,058
-666,276	-200,000	-0,016	-0,063
-665,262	-86,848	0,040	-0,009
-664,247	-200,000	0,041	-0,151
-663,232	324,418	0,107	-0,151
-662,218	-200,000	0,024	0,211
-661,203	266,176	0,015	-0,019
-660,189	197,108	-0,107	0,120
-659,174	800,000	-0,042	-0,093
-658,159	800,000	-0,029	0,068
-657,145	-200,000	-0,016	0,077
-656,130	-125,835	-0,134	0,015
-655,116	-200,000	-0,014	-0,088
-654,101	775,983	-0,056	0,113
-653,086	-200,000	0,001	0,092
-652,072	-150,035	-0,034	-0,002
-651,057	-200,000	-0,001	0,186
-650,043	800,000	-0,018	-0,053
-649,028	-39,652	-0,081	0,031
-648,014	-2,849	-0,087	0,045
-646,999	159,460	-0,109	-0,111
-645,984	800,000	-0,033	0,089
-644,970	57,658	-0,009	0,006
-643,955	-3,103	-0,090	-0,046
-642,941	117,107	0,057	0,051
-641,926	40,187	0,021	-0,014
-640,911	-122,965	0,096	0,011
-639,897	-84,642	0,082	0,019
-638,882	17,669	-0,081	0,047
-637,868	-200,000	0,012	-0,051
-636,853	32,477	-0,067	-0,042
-635,838	-200,000	-0,001	-0,055
-634,824	40,643	-0,017	0,011
-633,809	800,000	0,024	0,069
-632,795	-122,380	0,083	-0,010
-631,780	752,871	-0,056	0,111
-630,765	31,827	-0,089	0,056
-629,751	593,866	-0,044	0,080
-628,736	211,530	-0,033	0,038
-627,722	-68,575	0,011	0,003
-626,707	-200,000	0,019	0,098
-625,692	800,000	-0,028	-0,069
-624,678	800,000	0,045	-0,092
-623,663	213,908	0,118	0,137
-622,649	-200,000	-0,014	-0,073
-621,634	259,239	-0,089	-0,112
-620,619	86,791	-0,126	0,102
-619,605	800,000	0,034	0,091
-618,590	438,149	-0,010	0,016
-617,576	358,386	-0,045	0,066
-616,561	800,000	0,047	0,152
-615,546	295,903	-0,056	-0,076
-614,532	-200,000	-0,007	0,038
-613,517	-200,000	-0,038	-0,125
-612,503	153,172	-0,029	-0,029
-611,488	-100,586	0,018	0,003
-610,474	-96,036	0,102	-0,020
-609,459	326,718	-0,077	-0,108
-608,444	-200,000	-0,018	0,059
-607,430	106,009	0,081	-0,070
-606,415	-200,000	-0,011	-0,039
-605,401	156,064	-0,084	0,085
-604,386	-121,439	0,080	-0,010
-603,371	800,000	0,024	-0,050
-602,357	-200,000	-0,012	-0,072
-601,342	-94,557	-0,046	-0,009
-600,328	800,000	-0,027	-0,058
-599,313	110,113	0,026	0,023
-598,298	-200,000	0,023	-0,102
-597,284	100,855	0,067	0,058
-596,269	800,000	0,008	0,023
-595,255	800,000	0,011	0,028
-594,240	-200,000	-0,022	-0,084
-593,225	68,604	0,054	-0,040
-592,211	68,186	0,063	-0,047
-591,196	217,947	0,083	0,097
-590,182	47,143	0,083	0,057
-589,167	152,136	-0,068	0,068
-588,152	585,231	-0,023	0,041
-587,138	800,000	-0,028	-0,076
-586,123	185,627	0,012	-0,013
-585,109	-200,000	0,009	-0,057
-584,094	360,290	-0,092	-0,135
-583,079	19,685	-0,049	-0,029
-582,065	-17,859	-0,065	-0,030
-581,050	52,777	-0,068	0,048
-580,036	16,265	-0,092	-0,053
-579,021	38,053	-0,066	-0,043
-578,006	800,000	-0,067	-0,211
-576,992	800,000	0,032	-0,084
-575,977	-157,760	0,077	0,003
-574,963	-200,000	-0,019	0,113
-573,948	-43,981	-0,068	0,025
-572,934	-200,000	0,004	0,109
-571,919	800,000	0,002	0,005
-570,904	252,413	-0,014	-0,018
-569,890	800,000	0,042	-0,121
-568,875	-200,000	0,006	-0,117
-567,861	-45,813	0,073	0,026
-566,846	-185,068	0,130	-0,001
-565,831	-200,000	-0,006	0,119
-564,817	-91,748	0,074	-0,015
-563,802	496,341	-0,067	0,114
-562,788	-200,000	0,000	-0,120
-561,773	-62,146	0,038	-0,011
-560,758	-7,808	0,124	0,061
-559,744	168,867	0,024	0,025
-558,729	-17,995	0,115	0,053
-557,715	-169,772	-0,148	-0,004
-556,700	800,000	0,032	0,095
-555,685	-23,004	0,040	0,017
-554,671	736,579	0,072	0,143
-553,656	-1,245	0,078	-0,040
-552,642	-200,000	0,062	-0,200
-551,627	-200,000	-0,011	-0,039
-550,612	468,497	-0,036	0,059
-549,598	222,670	0,032	-0,037
-548,583	-99,280	-0,027	-0,005
-547,569	-14,261	0,028	0,013
-546,554	-151,013	0,045	-0,002
-545,539	-200,000	0,002	0,127
-544,525	-200,000	0,002	0,021
-543,510	164,688	0,048	0,050
-542,496	-113,344	-0,095	-0,013
-541,481	-57,224	0,130	0,042
-540,466	56,257	-0,040	0,029
-539,452	166,438	0,016	-0,017
-538,437	800,000	-0,044	-0,106
-537,423	66,380	0,019	-0,014
-536,408	48,782	0,027	-0,018
-535,393	61,299	0,038	-0,027
-534,379	50,069	-0,144	-0,099
-533,364	122,602	0,109	-0,100
-532,350	-200,000	0,009	-0,034
-531,335	-65,732	0,069	0,020
-530,321	-200,000	-0,026	0,144
-529,306	-108,512	-0,165	-0,026
-528,291	-111,481	0,062	0,009
-527,277	242,448	-0,023	0,028
-526,262	8,003	-0,126	0,069
-525,248	103,921	0,088	-0,075
-524,233	245,820	-0,049	-0,060
-523,218	800,000	0,006	-0,012
-522,204	-56,460	-0,130	-0,042
-521,189	88,047	-0,092	0,074
-520,175	23,283	0,127	0,076
-519,160	177,323	0,140	-0,149
-518,145	-98,501	-0,095	0,018
-517,131	800,000	-0,025	0,075
-516,116	800,000	0,005	-0,017
-515,102	451,758	-0,078	-0,127
-514,087	-131,534	0,085	0,008
-513,072	146,276	-0,057	-0,056
-512,058	-122,690	0,080	0,009
-511,043	-16,060	0,167	-0,077
-510,029	-170,635	-0,094	-0,002
-509,014	800,000	0,028	-0,057
-507,999	-23,158	0,097	0,042
-506,985	63,228	-0,115	0,084
-505,970	-200,000	0,002	0,109
-504,956	-200,000	0,019	0,072
-503,941	800,000	-0,036	0,110
-502,926	-106,142	-0,112	0,018
-501,912	-200,000	0,014	-0,077
-500,897	-200,000	-0,027	-0,095
-499,883	423,812	-0,056	-0,089
-498,868	800,000	-0,017	-0,052
-497,853	351,745	-0,053	-0,077
-496,839	653,717	0,067	0,125
-495,824	-170,788	-0,160	0,004
-494,810	-145,927	-0,108	0,007
-493,795	-5,088	-0,061	-0,031
-492,781	93,418	0,047	-0,039
-491,766	265,688	-0,041	-0,053
-490,751	-200,000	-0,022	-0,148
-489,737	75,683	0,050	0,039
-488,722	394,517	-0,056	0,086
-487,708	88,325	0,087	-0,071
-486,693	39,115	-0,120	0,078
-485,678	-200,000	0,008	0,166
-484,664	-200,000	-0,000	-0,063
-483,649	-200,000	0,016	-0,106
-482,635	800,000	0,040	-0,100
-481,620	800,000	-0,023	-0,054
-480,605	-106,353	0,030	0,005
-479,591	-58,414	0,036	-0,012
-478,576	333,331	-0,039	-0,055
-477,562	82,932	0,069	-0,054
-476,547	92,381	-0,067	0,055
-475,532	-19,466	0,139	-0,063
-474,518	404,719	-0,106	0,163
-473,503	520,097	0,027	0,047
-472,489	199,660	-0,032	0,035
-471,474	-200,000	0,021	0,072
-470,459	-200,000	-0,007	0,074
-469,445	-10,210	-0,084	-0,040
-468,430	96,590	-0,096	-0,080
-467,416	-26,662	0,058	0,024
-466,401	147,040	0,066	0,065
-465,386	688,368	0,035	-0,067
-464,372	-124,109	-0,084	-0,010
-463,357	-200,000	0,020	-0,116
-462,343	-26,225	-0,132	0,056
-461,328	-114,525	0,102	0,014
-460,313	28,696	0,055	0,034
-459,299	104,926	0,064	-0,055
-458,284	124,638	-0,021	0,019
-457,270	800,000	-0,046	0,113
-456,255	205,550	-0,053	-0,060
-455,241	-111,005	-0,019	0,003
-454,226	-172,324	0,031	-0,001
-453,211	-150,665	0,046	-0,003
-452,197	83,059	-0,048	0,038
-451,182	800,000	0,034	-0,076
-450,168	97,896	0,062	-0,052
-449,153	800,000	0,049	-0,115
-448,138	800,000	-0,076	-0,154
-447,124	-84,082	0,079	0,018
-446,109	64,995	0,099	0,073
-445,095	4,292	0,169	0,090
-444,080	-13,706	-0,090	0,042
-443,065	356,631	-0,110	-0,160
-442,051	800,000	0,031	0,063
-441,036	-200,000	-0,051	-0,000
-440,022	800,000	0,005	0,016
-439,007	800,000	-0,032	0,065
-437,992	64,115	0,097	-0,071
-436,978	-71,128	-0,086	-0,023
-435,963	800,000	0,023	-0,051
-434,949	-200,000	-0,003	-0,022
-433,934	-143,367	-0,213	0,015
-432,919	-51,925	-0,056	0,019
-431,905	748,798	0,061	0,120
-430,890	-60,205	-0,114	-0,035
-429,876	-55,293	-0,084	-0,027
-428,861	43,870	-0,037	0,025
-427,846	79,058	0,036	0,028
-426,832	-9,900	-0,025	-0,012
-425,817	-52,991	0,057	-0,019
-424,803	449,495	-0,057	-0,093
-423,788	368,456	0,026	-0,039
-422,773	316,683	-0,085	0,117
-421,759	-35,758	-0,141	-0,055
-420,744	150,073	0,087	-0,086
-419,730	110,695	0,064	0,056
-418,715	-31,956	0,070	0,028
-417,701	296,869	0,059	-0,079
-416,686	-200,000	0,024	-0,176
-415,671	50,700	0,009	0,006
-414,657	800,000	0,042	0,111
-413,642	-200,000	-0,015	0,159
-412,628	-33,982	-0,043	-0,017
-411,613	-200,000	-0,012	-0,073
-410,598	-76,357	-0,049	0,013
-409,584	91,637	0,075	0,061
-408,569	69,424	-0,072	0,054
-407,555	-1,211	0,157	0,080
-406,540	-97,400	0,053	0,010
-405,525	-159,042	-0,055	-0,002
-404,511	-200,000	-0,012	-0,140
-403,496	800,000	-0,044	-0,139
-402,482	-200,000	0,042	-0,147
-401,467	414,240	0,034	0,053
-400,452	33,534	0,149	0,094
-399,438	-200,000	0,061	0,226
-398,423	800,000	-0,030	0,078
-397,409	800,000	-0,021	-0,043
-396,394	-200,000	-0,020	0,079
-395,379	-120,463	0,072	0,009
-394,365	20,963	-0,042	-0,025
-393,350	600,207	0,078	0,142
-392,336	-200,000	-0,023	0,111
-391,321	336,010	-0,079	-0,112
-390,306	31,282	0,031	-0,019
-389,292	322,806	0,093	0,130
-388,277	-40,817	-0,038	-0,014
-387,263	8,271	0,085	-0,046
-386,248	800,000	0,045	0,105
-385,233	12,615	0,042	0,023
-384,219	-200,000	-0,043	-0,169
-383,204	-1,609	-0,175	-0,089
-382,190	-119,407	-0,103	0,013
-381,175	452,766	-0,066	-0,107
-380,160	-50,431	0,089	0,030
-379,146	-10,993	-0,074	0,035
-378,131	800,000	-0,038	0,082
-377,117	-93,099	0,052	-0,010
-376,102	-14,982	-0,133	0,062
-375,088	-200,000	0,000	-0,097
-374,073	-200,000	-0,003	0,015
-373,058	66,477	-0,077	0,057
-372,044	800,000	0,068	-0,165
-371,029	800,000	0,081	-0,185
-370,015	32,630	0,062	0,039
-369,000	14,249	-0,076	0,043
-367,985	-129,205	0,034	-0,003
-366,971	572,394	-0,013	0,023
-365,956	45,213	0,081	0,054
-364,942	469,430	0,091	0,149
-363,927	-32,724	-0,070	-0,028
-362,912	-78,730	-0,093	-0,023
-361,898	800,000	-0,064	0,140
-360,883	97,495	-0,024	0,020
-359,869	800,000	-0,033	-0,072
-358,854	166,847	-0,060	0,062
-357,839	-162,874	0,101	0,004
-356,825	319,870	-0,071	0,098
-355,810	52,994	-0,023	-0,016
-354,796	-200,000	-0,013	-0,109
-353,781	-200,000	0,013	0,043
-352,766	-140,700	0,069	0,005
-351,752	48,337	0,104	-0,071
-350,737	195,180	0,046	-0,051
-349,723	-200,000	0,008	-0,163
-348,708	-124,231	0,215	-0,024
-347,693	4,241	-0,041	-0,022
-346,679	-70,448	-0,145	-0,040
-345,664	-200,000	-0,016	-0,058
-344,650	-73,165	0,070	0,018
-343,635	90,756	-0,070	0,057
-342,620	800,000	0,013	-0,030
-341,606	647,664	0,014	0,026
-340,591	296,708	-0,062	-0,083
-339,577	81,920	0,074	-0,058
-338,562	-143,094	-0,032	-0,002
-337,548	49,643	0,079	-0,054
-336,533	-200,000	0,013	0,081
-335,518	-183,269	-0,048	0,001
-334,504	416,271	-0,050	0,078
-333,489	-22,084	0,082	-0,036
-332,475	54,242	-0,042	0,030
-331,460	461,476	-0,004	-0,007
-330,445	-176,624	0,057	0,001
-329,431	-177,072	-0,040	0,001
-328,416	143,091	0,032	-0,031
-327,402	-161,566	0,123	0,004
-326,387	-91,319	0,140	0,029
-325,372	0,834	-0,048	-0,025
-324,358	-200,000	0,000	-0,108
-323,343	-68,334	0,035	-0,010
-322,329	800,000	0,030	0,071
-321,314	-200,000	0,010	-0,076
-320,299	800,000	0,092	0,240
-319,285	38,612	-0,104	0,067
-318,270	-113,904	-0,067	0,009
-317,256	83,613	-0,015	-0,012
-316,241	71,235	0,096	0,072
-315,226	21,413	0,042	0,025
-314,212	-63,271	0,216	-0,064
-313,197	-158,276	-0,087	0,004
-312,183	-71,325	-0,096	-0,026
-311,168	109,257	0,121	0,105
-310,153	18,834	-0,127	0,074
-309,139	800,000	0,047	-0,116
-308,124	-111,366	-0,088	0,013
-307,110	578,306	0,040	0,071
-306,095	800,000	0,029	-0,068
-305,080	-44,947	-0,077	0,028
-304,066	11,394	0,089	0,049
-303,051	800,000	0,011	-0,032
-302,037	357,351	0,097	-0,141
-301,022	565,070	-0,033	0,059
-300,008	102,722	0,029	0,025
-298,993	800,000	-0,007	0,014
-297,978	800,000	0,048	-0,108
-296,964	114,981	0,062	0,055
-295,949	-200,000	-0,042	-0,154
-294,935	69,387	0,084	-0,062
-293,920	800,000	-0,060	-0,160
-292,905	482,684	0,061	-0,101
-291,891	-47,777	0,029	-0,010
-290,876	266,799	0,039	-0,050
-289,862	-21,281	-0,104	0,046
-288,847	-200,000	-0,005	-0,063
-287,832	20,945	-0,060	-0,035
-286,818	67,212	0,059	0,044
-285,803	-89,067	0,117	0,025
-284,789	-200,000	0,009	0,080
-283,774	-121,270	-0,105	0,013
-282,759	-109,501	0,048	0,007
-281,745	23,894	0,089	-0,053
-280,730	280,226	0,018	-0,023
-279,716	97,454	-0,088	-0,073
-278,701	343,361	0,054	0,076
-277,686	80,989	0,078	-0,061
-276,672	-33,767	-0,187	0,074
-275,657	221,622	-0,056	0,065
-274,643	191,765	0,092	-0,100
-273,628	747,672	-0,057	-0,112
-272,613	-25,361	0,049	-0,021
-271,599	-200,000	-0,007	0,052
-270,584	-200,000	-0,009	0,108
-269,570	800,000	-0,062	0,154
-268,555	800,000	-0,003	0,008
-267,540	-95,444	-0,129	0,025
-266,526	800,000	-0,031	-0,076
-265,511	3,542	-0,101	-0,053
-264,497	-58,025	0,254	-0,080
-263,482	83,846	-0,059	0,046
-262,467	222,084	-0,051	0,059
-261,453	-35,853	-0,105	0,041
-260,438	88,766	-0,111	-0,089
-259,424	-200,000	0,005	0,030
-258,409	-24,658	0,046	-0,020
-257,395	386,302	-0,031	-0,046
-256,380	-67,174	0,106	0,030
-255,365	-200,000	0,000	0,118
-254,351	800,000	0,039	-0,096
-253,336	-200,000	0,001	-0,041
-252,322	-87,764	-0,139	-0,030
-251,307	-200,000	0,012	-0,076
-250,292	35,791	-0,036	-0,023
-249,278	-161,374	0,178	-0,007
-248,263	115,949	0,081	0,072
-247,249	-200,000	-0,005	0,038
-246,234	-166,077	0,077	-0,002
-245,219	-200,000	-0,021	-0,109
-244,205	-200,000	-0,020	0,163
-243,190	-200,000	-0,027	-0,137
-242,176	-200,000	0,004	-0,015
-241,161	601,554	-0,039	0,071
-240,146	55,725	0,076	0,053
-239,132	-46,659	0,154	0,054
-238,117	-191,584	-0,162	0,001
-237,103	371,710	0,040	0,060
-236,088	-70,070	0,058	-0,016
-235,073	32,700	0,030	0,019
-234,059	662,636	0,011	0,021
-233,044	-200,000	-0,017	0,073
-232,030	800,000	-0,018	0,049
-231,015	36,250	0,049	-0,031
-230,000	-36,087	-0,112	0,044
-228,986	-200,000	0,012	0,127
-227,971	-57,476	-0,135	0,042
-226,957	295,051	0,025	-0,034
-225,942	25,781	0,126	0,076
-224,927	-33,193	-0,079	0,032
-223,913	-127,820	-0,076	0,008
-222,898	-200,000	-0,028	-0,091
-221,884	6,924	-0,076	0,041
-220,869	-200,000	-0,012	0,204
-219,855	-200,000	-0,002	0,064
-218,840	-42,323	0,094	0,035
-217,825	86,795	0,085	-0,068
-216,811	800,000	-0,008	0,023
-215,796	-14,439	0,126	0,058
-214,782	-112,350	-0,058	0,008
-213,767	800,000	0,006	0,014
-212,752	800,000	-0,043	0,105
-211,738	-102,784	0,086	-0,015
-210,723	-145,195	-0,113	-0,007
-209,709	-74,652	-0,061	0,016
-208,694	-164,846	-0,046	-0,001
-207,679	10,203	0,084	0,046
-206,665	36,876	0,082	-0,052
-205,650	800,000	0,052	0,121
-204,636	-200,000	-0,028	0,102
-203,621	-200,000	0,005	0,087
-202,606	-200,000	0,021	0,087
-201,592	24,149	-0,039	0,023
-200,577	-64,966	0,142	0,041
-199,563	679,625	0,039	0,073
-198,548	17,208	0,101	-0,058
-197,533	376,765	-0,051	0,075
-196,519	-200,000	-0,012	0,110
-195,504	324,011	-0,074	-0,103
-194,490	106,138	0,115	-0,099
-193,475	-200,000	0,016	0,181
-192,460	112,124	0,121	-0,106
-191,446	-200,000	0,009	0,080
-190,431	800,000	0,011	0,032
-189,417	-162,625	-0,026	0,001
-188,402	752,946	0,028	0,056
-187,387	800,000	-0,072	-0,150
-186,373	-200,000	0,020	-0,092
-185,358	-200,000	-0,011	-0,135
-184,344	-200,000	0,006	0,024
-183,329	-200,000	-0,023	-0,127
-182,315	339,805	0,107	-0,151
-181,300	43,125	-0,142	-0,093
-180,285	-200,000	-0,001	-0,016
-179,271	-12,089	-0,143	0,067
-178,256	28,580	0,108	0,066
-177,242	-22,065	-0,178	0,078
-176,227	569,783	0,101	0,178
-175,212	-200,000	0,011	0,129
-174,198	-200,000	0,009	-0,044
-173,183	-118,270	-0,110	0,014
-172,169	800,000	-0,008	0,018
-171,154	-55,687	-0,019	-0,006
-170,139	-74,944	-0,108	0,028
-169,125	328,965	0,018	0,025
-168,110	-36,237	0,031	-0,012
-167,096	272,160	-0,108	-0,138
-166,081	800,000	-0,021	0,053
-165,066	257,325	-0,080	0,099
-164,052	800,000	-0,023	-0,050
-163,037	174,509	0,113	-0,118
-162,023	23,720	-0,092	0,054
-161,008	155,502	-0,041	0,041
-159,993	-111,345	0,112	0,016
-158,979	-38,242	-0,114	0,043
-157,964	262,187	-0,108	-0,135
-156,950	-40,102	0,007	0,003
-155,935	-36,896	0,061	-0,023
-154,920	642,524	0,031	-0,057
-153,906	800,000	-0,038	-0,110
-152,891	-11,163	0,214	-0,101
-151,877	176,327	0,029	-0,030
-150,862	75,834	0,021	-0,016
-149,847	150,918	0,084	-0,082
-148,833	106,262	0,028	0,024
-147,818	5,176	0,032	0,017
-146,804	92,373	0,083	0,067
-145,789	-200,000	0,028	0,183
-144,775	105,768	-0,133	-0,113
-143,760	-200,000	0,045	-0,159
-142,745	84,593	-0,025	0,019
-141,731	-200,000	0,002	0,078
-140,716	800,000	0,019	-0,040
-139,702	96,707	0,140	-0,115
-138,687	45,522	-0,137	0,091
-137,672	259,121	0,066	-0,082
-136,658	-22,865	-0,061	0,026
-135,643	335,746	-0,045	0,063
-134,629	203,239	-0,017	0,019
-133,614	-200,000	0,016	0,069
-132,599	-48,328	-0,108	-0,037
-131,585	-200,000	-0,008	0,112
-130,570	800,000	0,058	0,154
-129,556	285,748	-0,096	-0,125
-128,541	-87,419	-0,058	0,012
-127,526	800,000	0,059	0,117
-126,512	-200,000	-0,016	0,077
-125,497	-21,650	0,114	0,050
-124,483	-200,000	0,000	0,076
-123,468	-200,000	-0,035	-0,112
-122,453	176,337	-0,050	-0,052
-121,439	-200,000	0,013	-0,173
-120,424	-200,000	-0,000	-0,084
-119,410	182,047	0,074	0,078
-118,395	156,402	0,007	-0,007
-117,380	-16,249	0,071	-0,032
-116,366	800,000	-0,016	-0,041
-115,351	-64,127	-0,027	0,008
-114,337	-38,712	-0,028	-0,011
-113,322	247,678	-0,017	0,021
-112,307	175,879	-0,037	-0,039
-111,293	22,315	-0,034	-0,020
-110,278	46,018	0,098	0,065
-109,264	-200,000	0,009	-0,098
-108,249	-200,000	0,031	-0,133
-107,234	-113,302	0,162	0,023
-106,220	-111,710	0,030	-0,004
-105,205	608,542	-0,031	-0,056
-104,191	79,507	-0,064	0,049
-103,176	-75,341	-0,024	0,006
-102,162	800,000	-0,028	0,058
-101,147	-200,000	0,005	-0,070
-100,132	-170,030	-0,226	0,006
-99,118	-200,000	-0,002	-0,020
-98,103	-45,232	-0,070	-0,025
-97,089	272,438	-0,068	-0,087
-96,074	18,181	0,042	0,024
-95,059	469,596	-0,042	0,068
-94,045	298,901	0,052	0,068
-93,030	202,977	-0,141	-0,157
-92,016	159,275	-0,079	0,079
-91,001	-33,022	-0,069	0,027
-89,986	-200,000	0,028	0,127
-88,972	-89,950	0,079	-0,016
-87,957	-76,862	0,098	-0,024
-86,943	209,909	0,057	-0,064
-85,928	-39,408	-0,101	0,038
-84,913	-65,886	-0,082	0,023
-83,899	-75,789	0,112	0,028
-82,884	-98,523	0,126	0,023
-81,870	44,232	0,124	-0,082
-80,855	-200,000	-0,017	0,168
-79,840	-200,000	0,026	0,101
-78,826	-12,178	-0,180	-0,084
-77,811	-200,000	-0,021	0,108
-76,797	-200,000	-0,019	0,066
-75,782	18,100	0,054	0,031
-74,767	-200,000	-0,002	-0,147
-73,753	-200,000	-0,025	-0,120
-72,738	-155,625	-0,072	-0,003
-71,724	215,532	-0,035	-0,040
-70,709	-103,262	-0,049	-0,008
-69,694	25,820	0,136	-0,081
-68,680	75,388	0,066	-0,050
-67,665	85,538	-0,065	0,051
-66,651	-71,722	0,133	0,035
-65,636	800,000	0,020	-0,042
-64,622	-144,758	-0,162	-0,011
-63,607	193,640	0,101	-0,110
-62,592	119,292	-0,062	0,055
-61,578	-20,023	-0,124	0,055
-60,563	-200,000	0,013	-0,074
-59,549	-75,661	-0,130	-0,033
-58,534	73,134	-2,644	-1,983
-57,519	67,263	0,286	-0,209
-56,505	-200,000	-1,602	-5,661
-55,490	457,850	1,234	1,976
-54,476	800,000	5,183	11,137
-53,461	-200,000	22,099	346,642
-52,446	800,000	760,160	2300,369
-51,432	515,839	1647,068	2772,220
-50,417	98,995	1611,280	1335,026
-49,403	67,190	1267,862	926,685
-48,388	23,528	1018,510	599,875
-47,373	19,195	985,430	566,075
-46,359	12,928	972,470	538,097
-45,344	8,694	969,335	522,467
-44,330	9,167	967,176	522,830
-43,315	8,260	965,263	518,812
-42,300	8,141	964,318	517,893
-41,286	8,072	963,324	517,113
-40,271	8,159	962,360	516,861
-39,257	8,148	961,477	516,328
-38,242	8,126	960,421	515,669
-37,227	8,079	959,804	515,164
-36,213	8,059	958,986	514,640
-35,198	8,044	958,127	514,110
-34,184	8,105	957,227	513,804
-33,169	8,040	956,400	513,129
-32,154	8,142	955,441	512,924
-31,140	8,153	954,579	512,478
-30,125	8,144	953,822	512,020
-29,111	8,154	953,116	511,656
-28,096	8,177	952,540	511,398
-27,082	8,161	951,440	510,738
-26,067	8,086	951,028	510,256
-25,052	8,115	950,058	509,808
-24,038	8,098	949,309	509,329
-23,023	8,096	948,785	509,023
-22,009	8,135	948,281	508,858
-20,994	8,122	947,617	508,440
-19,979	8,139	946,905	508,091
-18,965	8,080	946,235	507,522
-17,950	8,124	945,732	507,374
-16,936	8,057	945,047	506,773
-15,921	8,051	944,355	506,362
-14,906	7,983	943,550	505,691
-13,892	8,030	942,885	505,466
-12,877	7,974	942,501	505,060
-11,863	7,919	941,712	504,442
-10,848	7,961	941,413	504,396
-9,833	8,023	941,041	504,375
-8,819	8,115	940,118	504,152
-7,804	8,042	939,421	503,526
-6,790	7,980	938,913	503,036
-5,775	8,025	938,427	502,900
-4,760	8,062	937,609	502,558
-3,746	8,024	937,173	502,185
-2,731	7,877	936,365	501,265
-1,717	7,848	935,760	500,829
-0,702	7,862	935,110	500,506
0,313	7,715	934,468	500,453
1,327	11,163	932,332	510,144
2,342	20,011	780,348	450,179
3,356	15,170	448,872	251,631
4,371	-11,058	313,458	147,753
5,386	-14,784	295,972	135,719
6,400	-16,765	289,826	130,919
7,415	-17,260	286,943	129,119
8,429	-17,964	285,039	127,562
9,444	-18,161	284,399	127,072
10,459	-17,984	283,542	126,850
11,473	-18,041	283,047	126,561
12,488	-17,767	282,451	126,549
13,502	-18,077	281,944	126,011
14,517	-17,888	281,519	125,992
15,531	-18,040	281,198	125,691
16,546	-17,990	280,755	125,530
17,561	-18,203	280,520	125,209
18,575	-18,266	280,243	125,014
19,590	-17,956	279,516	124,975
20,604	-17,815	279,414	125,053
21,619	-17,971	279,003	124,709
22,634	-18,101	278,673	124,426
23,648	-17,893	278,258	124,428
24,663	-18,015	278,130	124,243
25,677	-18,011	277,891	124,130
26,692	-17,975	277,636	124,039
27,707	-17,939	277,157	123,848
28,721	-17,932	276,862	123,711
29,736	-17,986	276,655	123,557
30,750	-17,978	276,414	123,446
31,765	-17,963	276,224	123,365
32,780	-17,909	275,922	123,269
33,794	-18,081	275,677	122,987
34,809	-17,944	275,488	123,020
35,823	-17,985	275,020	122,762
36,838	-17,989	274,955	122,718
37,853	-18,161	274,765	122,461
38,867	-18,014	274,402	122,426
39,882	-17,985	274,063	122,291
40,896	-17,929	273,903	122,261
41,911	-17,923	273,682	122,157
42,926	-17,912	273,394	122,028
43,940	-17,919	273,176	121,913
44,955	-17,916	272,840	121,756
45,969	-17,832	272,681	121,752
46,984	-17,878	272,452	121,596
47,999	-17,963	272,281	121,430
49,013	-17,737	272,170	121,579
50,028	-17,841	271,864	121,335
51,042	-17,858	271,588	121,186
52,057	-17,935	271,422	121,030
53,071	-17,832	271,231	121,029
54,086	-17,738	270,925	120,968
55,101	-17,793	270,630	120,775
56,115	-17,840	270,397	120,617
57,130	-17,987	270,353	120,451
58,144	-17,890	269,981	120,364
59,159	-17,885	269,657	120,214
60,174	-18,099	269,443	119,910
61,188	-17,919	269,231	119,971
62,203	-17,871	269,052	119,924
63,217	-17,865	268,740	119,780
64,232	-18,024	268,715	119,612
65,247	-17,961	268,422	119,529
66,261	-18,044	268,173	119,332
67,276	-17,808	267,863	119,399
68,290	-17,940	267,716	119,202
69,305	-17,924	267,538	119,126
70,320	-17,830	267,272	119,083
71,334	-17,772	266,923	118,969
72,349	-17,982	266,760	118,696
73,363	-17,885	266,491	118,653
74,378	-17,814	266,226	118,590
75,393	-18,010	266,204	118,392
76,407	-17,965	265,840	118,260
77,422	-17,914	265,771	118,265
78,436	-17,899	265,440	118,120
79,451	-17,977	265,192	117,929
80,466	-17,875	264,970	117,912
81,480	-17,876	264,669	117,766
82,495	-17,982	264,482	117,577
83,509	-17,865	264,365	117,620
84,524	-17,880	264,199	117,522
85,539	-17,672	263,895	117,564
86,553	-17,890	263,695	117,268
87,568	-17,880	263,575	117,213
88,582	-17,863	263,198	117,050
89,597	-17,760	262,952	117,023
90,611	-17,914	263,050	116,917
91,626	-17,930	262,636	116,710
92,641	-17,710	262,568	116,866
93,655	-17,879	262,275	116,573
94,670	-17,917	261,991	116,403
95,684	-17,879	262,006	116,433
96,699	-17,842	261,662	116,303
97,714	-17,969	261,482	116,099
98,728	-17,859	261,310	116,111
99,743	-17,692	260,941	116,085
100,757	-17,845	260,937	115,937
101,772	-17,770	260,597	115,842
102,787	-17,931	260,293	115,554
103,801	-17,923	260,132	115,479
104,816	-17,851	259,982	115,466
105,830	-17,962	259,941	115,339
106,845	-17,628	259,472	115,415
107,860	-17,810	259,462	115,240
108,874	-17,809	259,171	115,101
109,889	-17,804	259,048	115,041
110,903	-17,797	258,780	114,918
111,918	-17,844	258,599	114,785
112,933	-17,714	258,294	114,755
113,947	-18,006	258,153	114,425
114,962	-17,832	258,036	114,515
115,976	-17,844	257,827	114,402
116,991	-17,724	257,504	114,354
118,006	-17,770	257,407	114,260
119,020	-17,928	257,199	114,020
120,035	-17,898	257,086	113,986
121,049	-17,857	256,796	113,883
122,064	-17,789	256,660	113,872
123,079	-17,694	256,412	113,834
124,093	-17,671	256,196	113,748
125,108	-18,085	256,001	113,291
126,122	-17,838	255,878	113,441
127,137	-17,828	255,659	113,343
128,151	-17,591	255,467	113,453
129,166	-17,699	255,311	113,281
130,181	-17,744	255,011	113,098
131,195	-17,830	254,856	112,945
132,210	-17,960	254,561	112,692
133,224	-17,872	254,503	112,732
134,239	-17,740	254,197	112,701
135,254	-17,743	254,030	112,613
136,268	-17,755	253,843	112,511
137,283	-17,860	253,806	112,394
138,297	-17,706	253,529	112,393
139,312	-17,771	253,252	112,205
140,327	-17,750	253,038	112,118
141,341	-17,754	252,816	112,006
142,356	-17,619	252,642	112,035
143,370	-17,861	252,508	111,758
144,385	-17,849	252,269	111,653
145,400	-17,716	252,117	111,689
146,414	-17,825	251,901	111,491
147,429	-17,768	251,675	111,430
148,443	-17,748	251,484	111,351
149,458	-17,642	251,235	111,322
150,473	-17,698	251,164	111,233
151,487	-17,891	250,895	110,940
152,502	-17,676	250,622	110,992
153,516	-17,646	250,429	110,921
154,531	-17,836	250,376	110,727
155,546	-17,994	250,304	110,551
156,560	-17,810	250,055	110,587
157,575	-17,625	249,730	110,590
158,589	-17,813	249,793	110,449
159,604	-17,804	249,419	110,282
160,619	-17,870	249,108	110,078
161,633	-17,887	249,011	110,011
162,648	-17,766	249,026	110,111
163,662	-17,800	248,820	109,981
164,677	-17,546	248,512	110,049
165,692	-17,560	248,324	109,944
166,706	-17,621	248,082	109,776
167,721	-17,719	247,975	109,636
168,735	-18,014	247,971	109,377
169,750	-17,754	247,848	109,531
170,764	-17,720	247,629	109,453
171,779	-17,694	247,437	109,380
172,794	-17,592	247,203	109,352
173,808	-17,736	246,988	109,127
174,823	-17,852	247,030	109,039
175,837	-17,549	246,670	109,123
176,852	-17,541	246,541	109,063
177,867	-17,560	246,411	108,980
178,881	-17,777	246,230	108,709
179,896	-17,497	246,127	108,887
180,910	-17,695	245,852	108,591
181,925	-17,675	245,716	108,538
182,940	-17,613	245,392	108,437
183,954	-17,852	245,428	108,245
184,969	-17,658	245,123	108,261
185,983	-17,718	244,928	108,116
186,998	-17,781	244,729	107,966
188,013	-17,691	244,509	107,934
189,027	-17,616	244,268	107,879
190,042	-17,677	244,192	107,787
191,056	-17,635	244,144	107,790
192,071	-17,602	243,914	107,706
193,086	-17,754	243,712	107,483
194,100	-17,672	243,535	107,462
195,115	-17,685	243,362	107,366
196,129	-17,634	243,137	107,298
197,144	-17,756	243,089	107,168
198,159	-17,735	242,850	107,070
199,173	-17,746	242,608	106,945
200,188	-17,580	242,513	107,029
201,202	-17,564	242,362	106,966
202,217	-17,387	242,202	107,030
203,232	-17,508	241,940	106,807
204,246	-17,648	241,684	106,569
205,261	-17,339	241,755	106,844
206,275	-15,859	242,249	108,261
207,290	-11,695	243,661	112,299
208,304	-6,016	245,641	117,891
209,319	-2,992	246,069	120,581
210,334	-2,587	246,191	120,965
211,348	-1,848	246,400	121,666
212,363	-1,203	246,370	122,172
213,377	-0,621	246,438	122,675
214,392	-0,075	246,465	123,128
215,407	0,186	246,464	123,332
216,421	0,343	246,192	123,314
217,436	0,339	246,122	123,265
218,450	0,449	245,943	123,254
219,465	0,675	245,801	123,357
220,480	0,640	245,657	123,245
221,494	0,362	245,612	122,984
222,509	0,216	245,337	122,716
223,523	0,010	245,054	122,395
224,538	0,012	244,851	122,284
225,553	-0,004	244,724	122,197
226,567	0,096	244,551	122,181
227,582	-0,013	244,396	122,004
228,596	-0,003	244,286	121,946
229,611	-0,039	244,153	121,840
230,626	0,028	243,861	121,738
231,640	0,098	243,811	121,759
232,655	0,142	243,464	121,611
233,669	0,179	243,419	121,607
234,684	-0,096	243,308	121,317
235,699	-0,018	243,098	121,265
236,713	0,109	242,862	121,240
237,728	0,027	242,809	121,135
238,742	0,056	242,618	121,053
239,757	0,085	242,370	120,942
240,772	0,123	242,319	120,937
241,786	-0,047	242,119	120,688
242,801	0,025	241,976	120,665
243,815	0,224	241,802	120,727
244,830	0,042	241,726	120,533
245,844	-0,048	241,493	120,333
246,859	-0,172	241,357	120,154
247,874	0,141	241,037	120,236
248,888	-0,016	240,951	120,056
249,903	0,135	240,799	120,091
250,917	0,063	240,745	119,995
251,932	0,064	240,590	119,908
252,947	0,098	240,407	119,834
253,961	0,116	240,157	119,712
254,976	0,067	240,017	119,593
255,990	-0,003	239,848	119,443
257,005	-0,015	239,818	119,408
258,020	0,034	239,624	119,339
259,034	-0,089	239,545	119,191
260,049	0,066	239,215	119,140
261,063	-0,050	239,029	118,945
262,078	0,204	239,013	119,127
263,093	-0,022	238,783	118,822
264,107	0,030	238,630	118,777
265,122	-0,014	238,488	118,661
266,136	-0,004	238,533	118,680
267,151	0,149	238,220	118,636
268,166	0,191	237,999	118,549
269,180	0,016	237,867	118,333
270,195	0,070	237,725	118,295
271,209	0,093	237,621	118,251
272,224	-0,135	237,521	118,010
273,239	-0,077	237,311	117,942
274,253	-0,022	237,118	117,878
275,268	0,117	236,943	117,891
276,282	0,037	236,815	117,754
277,297	0,190	236,625	117,768
278,312	0,042	236,586	117,623
279,326	0,138	236,330	117,560
280,341	0,178	236,157	117,495
281,355	0,158	236,051	117,416
282,370	0,191	235,913	117,363
283,384	0,079	235,786	117,201
284,399	-0,017	235,629	117,038
285,414	0,072	235,517	117,041
286,428	0,169	235,389	117,043
287,443	0,306	235,245	117,068
288,457	0,383	234,917	116,955
289,472	0,183	234,906	116,783
290,487	-0,101	234,734	116,465
291,501	0,173	234,553	116,578
292,516	0,100	234,391	116,431
293,530	0,261	234,401	116,550
294,545	0,319	234,173	116,472
295,560	0,283	233,933	116,314
296,574	0,096	233,878	116,131
297,589	0,140	233,826	116,129
298,603	0,048	233,639	115,955
299,618	0,397	233,301	116,047
300,633	0,269	233,238	115,906
301,647	0,350	233,107	115,893
302,662	0,158	233,003	115,683
303,676	0,400	232,828	115,773
304,691	0,255	232,747	115,610
305,706	0,378	232,379	115,512
306,720	0,470	232,298	115,532
307,735	0,436	232,214	115,454
308,749	0,366	232,103	115,335
309,764	0,361	231,983	115,260
310,779	0,205	231,891	115,084
311,793	0,141	231,682	114,922
312,808	0,439	231,500	115,050
313,822	0,206	231,390	114,806
314,837	0,312	231,264	114,814
315,852	0,237	231,147	114,689
316,866	0,381	230,890	114,661
317,881	0,483	230,654	114,612
318,895	0,520	230,571	114,589
319,910	0,445	230,443	114,457
320,925	0,404	230,310	114,350
321,939	0,556	230,147	114,375
322,954	0,525	230,057	114,296
323,968	0,602	229,893	114,263
324,983	0,396	229,855	114,077
325,997	0,389	229,677	113,973
327,012	0,374	229,485	113,857
328,027	0,500	229,188	113,794
329,041	0,422	229,185	113,724
330,056	0,451	228,961	113,624
331,070	0,587	228,857	113,666
332,085	0,309	228,728	113,381
333,100	0,504	228,473	113,392
334,114	0,285	228,387	113,174
335,129	0,491	228,053	113,153
336,143	0,453	228,145	113,161
337,158	0,654	227,933	113,196
338,173	0,379	227,885	112,956
339,187	0,462	227,694	112,913
340,202	0,653	227,486	112,944
341,216	0,483	227,372	112,749
342,231	0,560	227,219	112,722
343,246	0,609	227,123	112,700
344,260	0,756	227,045	112,762
345,275	0,526	226,887	112,501
346,289	0,570	226,700	112,431
347,304	0,549	226,674	112,393
348,319	0,364	226,485	112,150
349,333	0,691	226,218	112,253
350,348	0,513	226,142	112,072
351,362	0,579	226,083	112,082
352,377	0,746	225,805	112,058
353,392	0,633	225,662	111,893
354,406	0,465	225,700	111,777
355,421	192,215	1311,981	1377,802
356,435	153,981	1444,179	1377,654
