DTS Sentinel unit serial number:	SN410029Multiplexer serial number:	ORYXHardware model number:	OX2-SRSoftware version number:	ORYX F/W v4,00 Oryx Data Collector v3.7.2.0data status	okinstallation	B5 Nyhavnadifferential loss correction	single-endedforward channel	channel 2reverse channel	N/Adate	2023/12/12time	13:17:13forward acquisition time	300,00reverse acquisition time	0,00gamma	499,1914k internal	0,3158k external	0,3158temperature offset calibration	1,0000default loss term (dB/km)	0,3820temperature slope calibration	1,0000multiplexer offset coefficient	1,0000multiplexer slope coefficient	1,0000fibre end	0,00T internal ref (°C)	15,57T ext. ref 1 (°C)	-0,39T ext. ref 2 (°C)	-0,61length (m)	temperature (°C)	Stokes	anti-Stokes-744,400	-85,162	-0,055	0,013
-743,385	-105,596	-0,154	0,026
-742,371	-5,060	0,043	0,022
-741,356	-33,189	-0,209	-0,085
-740,342	-88,298	0,131	-0,029
-739,327	-109,821	-0,255	-0,039
-738,312	88,020	-0,032	-0,026
-737,298	-36,380	-0,269	0,106
-736,283	66,246	0,049	0,036
-735,269	-10,866	-0,099	-0,048
-734,254	-200,000	-0,013	0,122
-733,239	-108,591	-0,436	-0,068
-732,225	-114,531	0,087	0,012
-731,210	571,593	0,043	0,077
-730,196	164,482	0,082	-0,085
-729,181	-174,908	-0,172	0,003
-728,167	-68,731	-0,112	0,032
-727,152	-200,000	-0,028	-0,110
-726,137	-77,308	-0,072	-0,018
-725,123	-69,976	-0,082	0,023
-724,108	309,596	0,065	-0,090
-723,094	-200,000	0,021	-0,092
-722,079	635,223	-0,062	-0,117
-721,064	-101,485	-0,072	-0,013
-720,050	-71,392	0,066	0,018
-719,035	275,291	-0,078	-0,102
-718,021	-155,996	-0,105	0,005
-717,006	333,307	0,027	-0,038
-715,991	800,000	0,014	-0,031
-714,977	29,017	0,127	-0,079
-713,962	-42,661	-0,043	0,016
-712,948	542,816	-0,044	-0,078
-711,933	52,957	-0,058	0,041
-710,918	636,654	-0,035	-0,066
-709,904	559,641	-0,044	-0,078
-708,889	541,630	-0,026	-0,045
-707,875	-53,664	-0,205	-0,069
-706,860	800,000	-0,023	-0,048
-705,845	66,400	-0,056	-0,042
-704,831	293,718	-0,011	0,015
-703,816	-200,000	0,000	-0,088
-702,802	207,983	0,018	-0,020
-701,787	60,661	-0,029	0,021
-700,772	521,825	-0,014	0,024
-699,758	543,936	-0,082	-0,145
-698,743	301,602	0,073	0,100
-697,729	-85,371	0,085	0,019
-696,714	23,070	0,108	-0,065
-695,699	-200,000	0,006	0,046
-694,685	405,747	0,071	-0,111
-693,670	365,501	-0,007	-0,011
-692,656	-151,774	0,054	-0,003
-691,641	-50,812	-0,054	-0,018
-690,627	-103,601	-0,110	-0,019
-689,612	800,000	-0,055	0,126
-688,597	-41,056	0,015	-0,006
-687,583	86,358	-0,064	-0,052
-686,568	337,110	-0,076	-0,109
-685,554	353,352	-0,052	0,077
-684,539	-200,000	0,024	-0,109
-683,524	238,906	0,016	0,020
-682,510	-34,696	-0,078	-0,031
-681,495	-159,000	0,070	-0,003
-680,481	24,668	-0,067	-0,040
-679,466	800,000	0,025	0,062
-678,451	-7,498	-0,123	-0,061
-677,437	-200,000	-0,009	0,058
-676,422	207,473	0,067	0,077
-675,408	8,315	0,084	0,046
-674,393	-86,048	-0,122	-0,028
-673,378	-55,625	-0,105	-0,034
-672,364	460,260	0,054	-0,088
-671,349	-200,000	-0,011	-0,052
-670,335	-103,232	0,069	-0,012
-669,320	42,507	-0,048	0,032
-668,305	-164,970	0,011	0,000
-667,291	283,214	-0,024	-0,032
-666,276	800,000	0,051	0,115
-665,262	-200,000	0,009	0,048
-664,247	-200,000	0,023	-0,091
-663,232	252,212	-0,080	-0,100
-662,218	598,273	0,048	0,088
-661,203	-68,995	0,171	-0,048
-660,189	-63,721	-0,084	-0,025
-659,174	-132,784	-0,099	-0,009
-658,159	-14,385	-0,085	-0,040
-657,145	-97,000	-0,040	0,008
-656,130	-8,279	0,005	0,002
-655,116	9,894	-0,031	0,017
-654,101	21,146	-0,037	-0,022
-653,086	22,497	0,064	-0,039
-652,072	248,609	-0,062	-0,078
-651,057	414,218	-0,050	-0,079
-650,043	-200,000	-0,006	-0,047
-649,028	485,380	0,029	0,049
-648,014	-113,673	0,069	-0,010
-646,999	-200,000	-0,003	0,043
-645,984	800,000	-0,033	-0,093
-644,970	-200,000	-0,008	0,090
-643,955	317,087	-0,064	-0,089
-642,941	137,181	-0,085	-0,082
-641,926	-200,000	-0,003	-0,072
-640,911	-132,575	0,078	0,007
-639,897	13,803	0,063	0,036
-638,882	-200,000	0,004	-0,034
-637,868	-192,064	-0,098	0,001
-636,853	4,207	-0,026	0,014
-635,838	589,764	-0,079	0,144
-634,824	-14,084	-0,042	-0,020
-633,809	209,709	-0,017	0,020
-632,795	-2,237	0,071	-0,036
-631,780	-200,000	-0,049	0,164
-630,765	280,793	-0,094	-0,124
-629,751	-200,000	0,017	-0,106
-628,736	97,502	-0,194	-0,163
-627,722	-200,000	0,006	-0,100
-626,707	-200,000	0,027	0,086
-625,692	-162,722	0,045	-0,002
-624,678	-92,189	0,076	0,016
-623,663	-158,998	0,147	-0,006
-622,649	556,728	-0,026	0,047
-621,634	-159,078	-0,087	-0,004
-620,619	-94,910	0,137	-0,027
-619,605	-200,000	0,034	0,131
-618,590	149,582	-0,021	-0,021
-617,576	-200,000	-0,011	0,126
-616,561	800,000	-0,019	-0,057
-615,546	-12,896	-0,081	-0,039
-614,532	55,302	-0,039	0,028
-613,517	59,015	-0,079	0,057
-612,503	800,000	0,034	-0,087
-611,488	-200,000	0,038	-0,135
-610,474	-200,000	0,001	0,153
-609,459	-35,995	-0,226	0,089
-608,444	800,000	0,008	-0,018
-607,430	-200,000	0,004	-0,126
-606,415	-175,993	-0,100	-0,002
-605,401	-120,679	0,012	-0,001
-604,386	-22,394	0,070	-0,031
-603,371	800,000	-0,036	-0,115
-602,357	191,855	0,082	-0,091
-601,342	-200,000	0,027	0,100
-600,328	26,390	-0,137	-0,084
-599,313	-200,000	0,011	-0,070
-598,298	-146,594	-0,085	0,005
-597,284	-11,393	-0,020	0,010
-596,269	41,908	0,053	0,035
-595,255	-200,000	0,128	-0,000
-594,240	-135,013	0,071	-0,006
-593,225	-200,000	-0,091	-0,000
-592,211	-200,000	-0,008	-0,067
-591,196	143,592	0,079	0,077
-590,182	20,741	-0,044	-0,026
-589,167	-36,054	0,124	0,049
-588,152	106,504	-0,061	-0,053
-587,138	-128,454	0,113	0,012
-586,123	-200,000	0,003	0,013
-585,109	234,123	-0,023	-0,027
-584,094	-68,662	-0,071	0,020
-583,079	255,364	0,092	-0,116
-582,065	800,000	0,016	0,046
-581,050	-39,761	0,159	-0,060
-580,036	558,273	0,032	0,057
-579,021	-200,000	0,017	-0,169
-578,006	329,658	-0,039	-0,055
-576,992	92,485	-0,058	-0,048
-575,977	-200,000	0,002	-0,028
-574,963	-107,467	0,127	0,020
-573,948	-13,839	0,069	0,033
-572,934	800,000	-0,068	-0,167
-571,919	267,833	-0,048	0,061
-570,904	-200,000	-0,011	-0,077
-569,890	-65,344	-0,019	-0,005
-568,875	-161,795	0,075	0,003
-567,861	212,226	-0,068	0,078
-566,846	-192,203	0,068	0,000
-565,831	-85,351	0,029	0,007
-564,817	800,000	-0,028	-0,086
-563,802	800,000	-0,041	-0,096
-562,788	800,000	-0,031	-0,069
-561,773	-200,000	-0,010	0,083
-560,758	-200,000	-0,021	0,124
-559,744	-33,230	0,115	0,046
-558,729	401,513	-0,045	0,069
-557,715	-200,000	0,010	-0,066
-556,700	-80,703	-0,053	0,013
-555,685	39,269	0,060	0,039
-554,671	-63,173	0,140	0,042
-553,656	117,732	-0,166	0,149
-552,642	-90,484	0,143	0,030
-551,627	-56,651	0,150	0,048
-550,612	-140,350	-0,059	0,004
-549,598	800,000	-0,035	0,071
-548,583	-200,000	-0,022	-0,134
-547,569	279,457	-0,102	0,134
-546,554	-200,000	0,031	-0,139
-545,539	-117,637	-0,062	-0,008
-544,525	-200,000	0,008	-0,064
-543,510	182,612	-0,074	-0,080
-542,496	80,903	-0,028	-0,022
-541,481	800,000	0,044	-0,113
-540,466	-16,974	-0,109	0,050
-539,452	497,539	-0,035	0,059
-538,437	-200,000	-0,005	-0,147
-537,423	800,000	0,028	-0,074
-536,408	296,327	-0,042	0,057
-535,393	-200,000	-0,005	0,018
-534,379	-200,000	0,003	-0,012
-533,364	-88,891	-0,098	0,021
-532,350	-200,000	-0,005	0,043
-531,335	-26,049	0,070	0,030
-530,321	-45,929	0,144	0,052
-529,306	-200,000	-0,022	0,110
-528,291	5,669	-0,073	0,040
-527,277	-200,000	-0,022	-0,103
-526,262	-200,000	0,005	0,109
-525,248	-200,000	0,027	0,118
-524,233	748,113	-0,060	0,120
-523,218	90,922	-0,060	0,049
-522,204	90,764	0,059	-0,048
-521,189	31,394	-0,088	0,055
-520,175	160,872	0,118	-0,120
-519,160	219,569	0,071	-0,083
-518,145	-145,199	0,106	0,007
-517,131	-98,862	-0,139	0,026
-516,116	421,521	-0,032	0,050
-515,102	-200,000	-0,014	-0,132
-514,087	263,422	0,041	-0,052
-513,072	268,662	0,043	-0,055
-512,058	-23,736	0,079	-0,034
-511,043	434,269	0,026	-0,042
-510,029	-153,311	-0,018	0,001
-509,014	-81,279	0,018	-0,004
-507,999	14,435	-0,040	0,023
-506,985	-73,156	-0,183	0,049
-505,970	378,147	-0,039	-0,058
-504,956	-200,000	-0,021	-0,085
-503,941	117,329	0,044	0,040
-502,926	-200,000	0,007	-0,046
-501,912	-81,944	0,060	0,014
-500,897	482,757	-0,027	0,045
-499,883	-2,465	-0,031	0,016
-498,868	412,292	-0,052	0,081
-497,853	-149,597	0,069	0,004
-496,839	209,340	0,068	-0,077
-495,824	73,517	0,040	-0,031
-494,810	-200,000	0,006	-0,044
-493,795	194,981	0,084	0,093
-492,781	13,722	-0,094	-0,053
-491,766	-200,000	0,011	-0,060
-490,751	-17,665	-0,068	-0,031
-489,737	65,492	-0,121	-0,089
-488,722	69,922	-0,102	-0,076
-487,708	-200,000	0,152	-0,000
-486,693	140,472	0,045	0,043
-485,678	82,536	0,064	-0,051
-484,664	56,992	0,086	0,061
-483,649	-119,553	0,033	0,004
-482,635	737,145	-0,053	-0,104
-481,620	-53,165	0,077	0,026
-480,605	217,076	0,042	-0,049
-479,591	-200,000	0,024	0,090
-478,576	800,000	0,054	-0,162
-477,562	270,520	-0,023	-0,030
-476,547	239,325	-0,028	-0,034
-475,532	-96,982	-0,058	0,011
-474,518	171,929	-0,024	0,025
-473,503	370,241	0,093	0,138
-472,489	585,972	0,084	0,151
-471,474	473,841	-0,041	-0,068
-470,459	165,291	0,158	0,163
-469,445	87,181	-0,110	0,089
-468,430	-12,807	-0,027	-0,013
-467,416	144,248	0,055	-0,054
-466,401	5,622	0,115	0,062
-465,386	-200,000	-0,031	0,179
-464,372	-200,000	-0,008	0,070
-463,357	-175,265	-0,084	0,002
-462,343	86,356	0,042	-0,033
-461,328	100,576	-0,105	0,089
-460,313	-200,000	0,023	0,088
-459,299	-73,696	0,038	-0,010
-458,284	658,811	-0,078	0,147
-457,270	-200,000	0,000	0,081
-456,255	-200,000	-0,048	-0,187
-455,241	220,186	0,090	-0,105
-454,226	-200,000	-0,032	-0,161
-453,211	-182,184	0,099	0,001
-452,197	800,000	-0,042	0,099
-451,182	266,340	-0,052	0,067
-450,168	-200,000	0,011	0,052
-449,153	-145,258	-0,145	0,009
-448,138	19,973	-0,187	-0,109
-447,124	-200,000	0,001	-0,080
-446,109	800,000	0,029	-0,063
-445,095	-200,000	0,022	0,169
-444,080	800,000	0,038	0,094
-443,065	90,612	0,105	-0,086
-442,051	317,951	0,047	-0,066
-441,036	-31,691	0,045	-0,018
-440,022	101,262	-0,026	0,022
-439,007	42,560	0,119	-0,078
-437,992	-200,000	0,007	-0,191
-436,978	-87,871	0,111	-0,024
-435,963	-0,719	0,083	-0,043
-434,949	54,074	-0,101	0,071
-433,934	-200,000	0,001	0,079
-432,919	3,610	-0,052	0,028
-431,905	-200,000	-0,000	-0,037
-430,890	-31,212	-0,084	-0,034
-429,876	-200,000	0,008	-0,132
-428,861	24,337	0,084	0,050
-427,846	529,434	0,059	0,102
-426,832	511,022	0,016	-0,027
-425,817	-200,000	-0,004	-0,134
-424,803	-200,000	-0,011	0,055
-423,788	474,058	-0,030	0,050
-422,773	147,705	0,059	0,058
-421,759	-200,000	0,008	0,142
-420,744	4,307	0,072	0,038
-419,730	800,000	-0,042	-0,097
-418,715	84,596	-0,131	-0,104
-417,701	-200,000	0,001	-0,133
-416,686	54,683	-0,049	-0,034
-415,671	183,044	-0,060	0,064
-414,657	-172,404	0,042	-0,001
-413,642	162,456	0,050	0,051
-412,628	-23,736	-0,093	0,040
-411,613	66,609	0,041	-0,030
-410,598	-65,050	-0,135	-0,039
-409,584	141,729	0,064	-0,061
-408,569	800,000	0,050	0,147
-407,555	211,051	0,038	-0,043
-406,540	106,772	0,036	0,031
-405,525	7,693	-0,113	-0,061
-404,511	652,217	-0,065	-0,123
-403,496	282,208	0,059	0,077
-402,482	800,000	0,010	0,024
-401,467	-4,219	-0,151	0,076
-400,452	-200,000	0,028	0,137
-399,438	-131,381	0,163	-0,015
-398,423	-68,132	0,156	-0,044
-397,409	644,261	-0,027	-0,051
-396,394	4,826	0,134	-0,072
-395,379	372,532	-0,118	0,175
-394,365	-200,000	0,002	-0,009
-393,350	320,110	0,018	0,025
-392,336	-121,961	0,060	-0,007
-391,321	-12,656	0,077	-0,036
-390,306	604,440	-0,066	-0,120
-389,292	-63,522	0,106	-0,031
-388,277	-117,649	0,029	0,004
-387,263	800,000	0,036	-0,106
-386,248	-65,433	0,042	0,012
-385,233	122,060	0,054	0,049
-384,219	559,523	-0,007	-0,012
-383,204	-180,715	-0,056	0,001
-382,190	800,000	-0,051	-0,128
-381,175	800,000	-0,023	-0,053
-380,160	-87,995	0,096	-0,021
-379,146	-200,000	0,014	-0,078
-378,131	-59,606	-0,054	0,017
-377,117	618,456	0,038	-0,070
-376,102	-176,747	0,049	0,001
-375,088	-200,000	-0,008	-0,087
-374,073	244,719	-0,069	-0,084
-373,058	44,323	-0,125	-0,083
-372,044	532,541	0,057	-0,098
-371,029	-200,000	-0,007	-0,095
-370,015	552,689	-0,001	-0,002
-369,000	800,000	-0,046	0,115
-367,985	-139,773	-0,032	0,002
-366,971	-69,264	0,048	0,013
-365,956	-200,000	0,022	0,157
-364,942	-76,257	-0,113	0,029
-363,927	109,542	-0,110	-0,096
-362,912	-1,923	0,170	0,086
-361,898	97,378	0,138	-0,115
-360,883	-69,276	-0,021	0,006
-359,869	800,000	-0,031	-0,090
-358,854	244,272	0,046	0,057
-357,839	800,000	-0,046	0,126
-356,825	-36,437	-0,031	0,012
-355,810	800,000	-0,054	0,151
-354,796	-90,016	-0,084	0,018
-353,781	70,437	-0,105	-0,079
-352,766	13,725	0,081	-0,045
-351,752	258,308	0,070	-0,088
-350,737	800,000	0,027	0,069
-349,723	-37,903	-0,079	0,030
-348,708	800,000	-0,050	0,156
-347,693	-200,000	0,052	0,195
-346,679	800,000	-0,050	0,111
-345,664	800,000	-0,049	-0,140
-344,650	-41,642	-0,033	0,012
-343,635	62,139	-0,012	0,008
-342,620	-53,996	-0,098	0,032
-341,606	-200,000	-0,015	-0,069
-340,591	-191,103	0,052	0,000
-339,577	614,861	-0,012	0,022
-338,562	-160,630	0,084	0,003
-337,548	800,000	0,041	0,096
-336,533	7,749	0,087	0,047
-335,518	306,806	-0,073	0,099
-334,504	754,260	0,045	0,089
-333,489	47,667	0,090	-0,061
-332,475	-162,605	-0,029	-0,001
-331,460	800,000	0,052	-0,135
-330,445	-133,784	-0,049	-0,004
-329,431	-19,271	0,080	-0,036
-328,416	310,513	0,106	0,145
-327,402	-200,000	0,002	0,040
-326,387	-53,088	-0,132	0,044
-325,372	-200,000	-0,011	-0,098
-324,358	-200,000	-0,012	-0,056
-323,343	215,805	0,026	-0,030
-322,329	-132,319	-0,088	-0,008
-321,314	0,933	-0,097	0,050
-320,299	31,540	0,047	0,029
-319,285	709,441	-0,021	0,041
-318,270	-200,000	0,011	0,068
-317,256	-52,911	0,059	0,020
-316,241	-200,000	0,015	-0,060
-315,226	-62,486	0,033	0,010
-314,212	-161,690	0,058	0,002
-313,197	-200,000	0,038	0,208
-312,183	-132,657	0,078	0,007
-311,168	-200,000	-0,012	-0,049
-310,153	-72,448	-0,046	-0,012
-309,139	276,267	-0,031	-0,040
-308,124	-43,903	0,241	-0,087
-307,110	407,902	0,096	0,148
-306,095	-200,000	0,007	0,088
-305,080	-8,419	0,010	-0,005
-304,066	-200,000	0,009	-0,073
-303,051	-105,582	-0,150	0,024
-302,037	-200,000	-0,012	0,081
-301,022	800,000	-0,019	-0,058
-300,008	-145,003	0,099	0,006
-298,993	141,540	-0,047	0,045
-297,978	94,385	-0,045	0,037
-296,964	-200,000	-0,005	0,130
-295,949	800,000	-0,055	-0,141
-294,935	800,000	0,028	-0,072
-293,920	56,631	-0,038	-0,027
-292,905	-200,000	0,028	0,130
-291,891	-15,018	0,105	-0,049
-290,876	-91,655	0,149	0,030
-289,862	-200,000	-0,003	0,051
-288,847	-200,000	0,018	-0,115
-287,832	800,000	-0,053	-0,138
-286,818	-200,000	-0,029	0,145
-285,803	342,959	-0,096	-0,137
-284,789	170,904	0,070	0,072
-283,774	100,063	-0,070	0,059
-282,759	-72,204	0,057	-0,015
-281,745	37,106	-0,148	0,095
-280,730	-200,000	-0,002	-0,210
-279,716	-200,000	0,028	-0,183
-278,701	430,368	-0,010	0,016
-277,686	112,570	0,178	0,156
-276,672	-200,000	-0,006	-0,100
-275,657	-150,278	-0,087	-0,005
-274,643	-84,427	-0,010	-0,002
-273,628	-20,464	0,072	0,032
-272,613	-200,000	-0,003	0,070
-271,599	800,000	-0,035	0,107
-270,584	71,106	0,206	-0,155
-269,570	-200,000	-0,008	0,034
-268,555	264,037	-0,076	0,096
-267,540	-50,452	0,069	-0,024
-266,526	-48,159	-0,108	-0,038
-265,511	-68,026	0,089	0,025
-264,497	-118,900	-0,049	-0,006
-263,482	-68,776	-0,046	0,013
-262,467	-200,000	0,002	-0,086
-261,453	-65,304	0,060	-0,017
-260,438	387,247	0,025	-0,037
-259,424	-188,846	0,170	0,001
-258,409	145,580	-0,146	-0,142
-257,395	-76,320	0,138	-0,035
-256,380	800,000	-0,058	0,167
-255,365	-200,000	0,000	0,081
-254,351	-12,381	0,077	-0,036
-253,336	-5,644	0,122	-0,061
-252,322	-96,042	-0,090	-0,017
-251,307	47,400	0,145	-0,097
-250,292	-10,310	-0,121	-0,058
-249,278	59,895	0,097	0,069
-248,263	-12,916	0,121	0,057
-247,249	424,786	-0,059	0,092
-246,234	-53,571	-0,086	0,028
-245,219	-56,535	0,017	-0,005
-244,205	-76,915	-0,107	-0,027
-243,190	800,000	0,030	0,079
-242,176	-160,159	-0,105	0,004
-241,161	-146,281	0,118	0,007
-240,146	-18,596	0,144	-0,065
-239,132	250,390	0,042	-0,051
-238,117	55,392	-0,120	-0,084
-237,103	372,681	0,015	0,022
-236,088	-200,000	-0,002	-0,081
-235,073	800,000	0,042	-0,128
-234,059	-200,000	0,017	0,077
-233,044	-95,854	0,048	-0,009
-232,030	422,422	0,035	-0,055
-231,015	-64,234	-0,148	-0,043
-230,000	800,000	0,027	-0,065
-228,986	-53,894	-0,104	0,034
-227,971	7,472	0,126	0,068
-226,957	-23,279	0,110	-0,048
-225,942	-200,000	0,019	0,130
-224,927	45,553	-0,046	0,030
-223,913	-19,734	-0,063	-0,028
-222,898	85,915	0,064	-0,051
-221,884	20,490	0,056	-0,032
-220,869	-200,000	0,014	0,102
-219,855	-84,392	0,043	-0,010
-218,840	-200,000	0,019	0,080
-217,825	664,621	-0,021	0,039
-216,811	800,000	-0,036	-0,085
-215,796	-109,368	0,038	-0,006
-214,782	24,031	-0,036	-0,021
-213,767	16,797	-0,125	0,071
-212,752	109,715	0,108	0,093
-211,738	73,278	-0,119	0,090
-210,723	-200,000	0,016	-0,068
-209,709	-200,000	0,005	-0,031
-208,694	590,865	-0,081	-0,145
-207,679	-162,255	-0,117	0,004
-206,665	709,731	-0,054	0,103
-205,650	37,711	0,068	0,043
-204,636	350,691	-0,020	0,029
-203,621	395,685	-0,039	0,059
-202,606	369,957	-0,022	-0,033
-201,592	240,501	-0,102	-0,123
-200,577	-98,377	-0,075	-0,014
-199,563	20,781	-0,039	-0,023
-198,548	-134,532	0,019	-0,002
-197,533	155,158	0,064	0,064
-196,519	-200,000	0,010	0,041
-195,504	-53,597	-0,071	-0,023
-194,490	32,401	-0,083	-0,051
-193,475	-200,000	-0,003	-0,035
-192,460	62,256	-0,058	0,042
-191,446	-97,153	0,208	0,039
-190,431	2,183	-0,045	0,023
-189,417	-18,948	-0,140	0,063
-188,402	-17,685	-0,045	0,020
-187,387	38,079	-0,047	0,030
-186,373	-9,073	0,129	0,062
-185,358	-109,489	-0,170	-0,026
-184,344	800,000	-0,017	-0,048
-183,329	800,000	0,017	-0,043
-182,315	519,586	0,003	0,005
-181,300	-114,300	-0,075	0,010
-180,285	500,263	-0,072	-0,120
-179,271	418,981	0,043	0,066
-178,256	210,749	-0,053	-0,060
-177,242	272,840	0,019	0,024
-176,227	-200,000	-0,022	0,141
-175,212	800,000	-0,047	0,137
-174,198	800,000	-0,017	-0,039
-173,183	-36,367	-0,062	0,024
-172,169	-72,519	0,138	-0,036
-171,154	-200,000	-0,009	0,094
-170,139	150,596	-0,028	0,027
-169,125	-13,285	-0,076	0,035
-168,110	680,676	-0,007	0,014
-167,096	-102,264	0,028	-0,005
-166,081	-180,824	0,064	-0,001
-165,066	-33,768	-0,192	0,076
-164,052	-200,000	0,002	0,029
-163,037	636,255	0,046	0,085
-162,023	401,893	-0,023	0,035
-161,008	16,840	0,228	-0,130
-159,993	382,186	-0,077	-0,114
-158,979	-200,000	0,017	0,058
-157,964	800,000	0,030	-0,068
-156,950	11,358	-0,216	-0,119
-155,935	479,488	-0,068	0,112
-154,920	800,000	-0,041	0,102
-153,906	-200,000	-0,009	0,142
-152,891	-40,335	-0,102	0,038
-151,877	-97,405	-0,112	0,021
-150,862	-200,000	0,001	-0,104
-149,847	800,000	-0,034	0,083
-148,833	432,645	-0,045	0,071
-147,818	-114,007	0,051	-0,007
-146,804	46,444	0,115	-0,077
-145,789	369,317	0,053	0,078
-144,775	800,000	0,033	-0,067
-143,760	-200,000	0,039	-0,128
-142,745	-200,000	-0,074	-0,259
-141,731	31,458	0,083	0,051
-140,716	-200,000	-0,009	0,148
-139,702	800,000	-0,008	0,024
-138,687	90,461	-0,029	-0,023
-137,672	-33,819	-0,057	-0,023
-136,658	-35,218	-0,035	-0,013
-135,643	-200,000	0,050	0,186
-134,629	-100,364	0,125	0,022
-133,614	141,546	0,007	-0,006
-132,599	-40,892	-0,049	0,018
-131,585	707,286	-0,016	0,031
-130,570	126,368	-0,094	0,086
-129,556	-5,902	0,079	0,039
-128,541	-200,000	-0,009	0,130
-127,526	102,251	0,059	0,050
-126,512	161,262	0,094	0,094
-125,497	136,585	-0,043	0,041
-124,483	800,000	0,034	0,094
-123,468	-200,000	-0,014	0,071
-122,453	-138,879	-0,134	-0,010
-121,439	267,456	0,037	-0,046
-120,424	800,000	0,014	-0,036
-119,410	-200,000	-0,014	-0,049
-118,395	-158,221	-0,043	0,002
-117,380	165,186	-0,094	0,096
-116,366	-200,000	0,007	0,098
-115,351	284,955	-0,052	0,067
-114,337	-56,560	0,045	0,014
-113,322	-72,262	-0,189	-0,050
-112,307	-55,549	0,063	-0,020
-111,293	-200,000	-0,043	0,248
-110,278	-113,736	0,117	-0,016
-109,264	-71,757	-0,104	-0,028
-108,249	276,344	0,089	-0,114
-107,234	-74,203	-0,112	0,029
-106,220	-200,000	0,013	0,049
-105,205	426,403	-0,062	0,096
-104,191	81,983	0,103	0,080
-103,176	568,088	0,050	0,088
-102,162	-89,407	0,185	0,039
-101,147	800,000	-0,070	0,174
-100,132	440,623	-0,078	0,122
-99,118	-38,238	0,026	-0,010
-98,103	-97,487	-0,064	-0,012
-97,089	800,000	-0,045	0,129
-96,074	288,775	0,107	0,140
-95,059	-200,000	-0,002	0,060
-94,045	783,347	-0,073	0,144
-93,030	79,895	-0,053	-0,041
-92,016	288,616	0,033	-0,044
-91,001	-200,000	0,030	0,124
-89,986	-200,000	0,009	0,114
-88,972	-200,000	0,003	0,034
-87,957	-200,000	-0,006	-0,132
-86,943	125,082	0,186	-0,168
-85,928	-200,000	-0,021	0,100
-84,913	-125,898	-0,133	0,014
-83,899	404,016	0,003	-0,005
-82,884	2,579	0,159	0,082
-81,870	800,000	0,033	-0,074
-80,855	-200,000	-0,000	-0,003
-79,840	-0,270	0,061	0,031
-78,826	-41,718	-0,113	-0,041
-77,811	-20,162	-0,176	0,077
-76,797	800,000	-0,019	0,039
-75,782	-200,000	-0,024	-0,128
-74,767	800,000	0,099	0,234
-73,753	800,000	-0,049	0,137
-72,738	201,567	0,005	-0,006
-71,724	102,426	0,167	0,140
-70,709	780,188	-0,053	-0,104
-69,694	-200,000	-0,013	-0,068
-68,680	74,149	0,041	0,031
-67,665	-200,000	-0,012	0,052
-66,651	-51,991	-0,185	0,061
-65,636	-2,397	0,045	-0,023
-64,622	50,797	-0,115	0,078
-63,607	546,437	-0,038	0,066
-62,592	154,960	-0,045	0,044
-61,578	-200,000	-0,010	-0,039
-60,563	194,033	0,048	0,052
-59,549	-200,000	-0,037	0,266
-58,534	-15,361	-2,002	-0,915
-57,519	800,000	-0,366	-1,008
-56,505	-200,000	-1,194	-4,865
-55,490	-16,818	0,718	0,325
-54,476	800,000	5,324	12,114
-53,461	-200,000	17,486	283,638
-52,446	800,000	724,673	2219,481
-51,432	539,232	1640,492	2811,457
-50,417	110,707	1632,120	1408,553
-49,403	75,101	1286,050	971,667
-48,388	32,232	1027,826	634,999
-47,373	20,124	989,793	571,572
-46,359	18,655	977,598	559,691
-45,344	15,853	973,580	548,199
-44,330	16,086	972,344	548,245
-43,315	15,605	970,298	545,500
-42,300	15,572	969,201	544,751
-41,286	15,559	968,322	544,196
-40,271	15,592	967,098	543,593
-39,257	15,616	966,156	543,118
-38,242	15,598	965,302	542,560
-37,227	15,659	964,634	542,362
-36,213	15,631	963,676	541,710
-35,198	15,624	962,878	541,217
-34,184	15,623	962,182	540,800
-33,169	15,566	961,089	539,979
-32,154	15,573	960,366	539,574
-31,140	15,564	959,609	539,100
-30,125	15,626	958,640	538,734
-29,111	15,606	957,831	538,195
-28,096	15,619	957,238	537,880
-27,082	15,608	956,554	537,438
-26,067	15,602	955,850	537,003
-25,052	15,510	955,147	536,293
-24,038	15,604	954,329	536,113
-23,023	15,564	953,694	535,606
-22,009	15,630	952,798	535,292
-20,994	15,606	952,438	534,993
-19,979	15,627	951,929	534,752
-18,965	15,616	951,143	534,254
-17,950	15,585	950,622	533,842
-16,936	15,545	950,043	533,370
-15,921	15,580	949,292	533,036
-14,906	15,526	948,527	532,415
-13,892	15,530	947,707	531,944
-12,877	15,469	947,332	531,519
-11,863	15,467	946,662	531,117
-10,848	15,434	946,320	530,799
-9,833	15,601	945,551	530,876
-8,819	15,561	945,073	530,460
-7,804	15,477	944,314	529,746
-6,790	15,424	943,859	529,301
-5,775	15,506	943,305	529,229
-4,760	15,500	942,645	528,819
-3,746	15,606	941,847	528,687
-2,731	15,378	941,143	527,550
-1,717	15,349	940,717	527,199
-0,702	15,332	940,031	526,738
0,313	15,176	939,373	526,673
1,327	18,296	937,128	535,195
2,342	27,256	794,732	477,619
3,356	24,037	459,514	271,209
4,371	-2,715	314,450	157,165
5,386	-6,697	296,186	143,995
6,400	-8,717	290,282	139,107
7,415	-9,116	287,729	137,479
8,429	-9,565	286,320	136,354
9,444	-9,373	285,255	136,022
10,459	-9,383	284,743	135,756
11,473	-9,465	284,218	135,414
12,488	-9,384	283,701	135,234
13,502	-9,431	283,065	134,873
14,517	-9,487	282,577	134,575
15,531	-9,382	282,044	134,410
16,546	-9,574	281,797	134,095
17,561	-9,611	281,345	133,833
18,575	-9,402	280,984	133,850
19,590	-9,471	280,587	133,582
20,604	-9,462	280,270	133,428
21,619	-9,742	280,103	133,069
22,634	-9,585	279,596	132,966
23,648	-9,692	279,383	132,751
24,663	-9,393	278,951	132,819
25,677	-9,568	278,798	132,568
26,692	-9,434	278,584	132,582
27,707	-9,425	278,284	132,436
28,721	-9,460	277,963	132,238
29,736	-9,658	277,798	131,960
30,750	-9,659	277,515	131,813
31,765	-9,505	277,310	131,849
32,780	-9,690	277,008	131,519
33,794	-9,695	276,813	131,410
34,809	-9,660	276,567	131,315
35,823	-9,613	276,109	131,129
36,838	-9,633	275,924	131,011
37,853	-9,707	275,819	130,880
38,867	-9,560	275,347	130,782
39,882	-9,524	275,234	130,751
40,896	-9,603	275,034	130,570
41,911	-9,750	274,863	130,339
42,926	-9,745	274,570	130,193
43,940	-9,688	274,281	130,098
44,955	-9,677	273,880	129,906
45,969	-9,784	273,850	129,780
46,984	-9,772	273,409	129,572
47,999	-10,192	273,353	129,142
49,013	-10,397	273,048	128,796
50,028	-10,445	272,773	128,609
51,042	-10,400	272,439	128,483
52,057	-10,455	272,267	128,338
53,071	-10,261	271,943	128,354
54,086	-10,419	271,964	128,206
55,101	-10,190	271,766	128,314
56,115	-9,941	271,579	128,444
57,130	-9,662	271,484	128,647
58,144	-9,524	271,186	128,621
59,159	-9,333	270,949	128,673
60,174	-9,480	270,908	128,507
61,188	-9,476	270,516	128,313
62,203	-9,421	270,312	128,255
63,217	-9,640	270,221	128,000
64,232	-9,647	269,908	127,833
65,247	-9,374	269,607	127,930
66,261	-9,352	269,418	127,849
67,276	-9,631	269,079	127,421
68,290	-9,806	268,829	127,131
69,305	-9,819	268,631	127,015
70,320	-9,759	268,438	126,966
71,334	-9,706	268,384	126,979
72,349	-9,575	268,034	126,920
73,363	-9,335	267,922	127,075
74,378	-9,341	267,655	126,932
75,393	-9,538	267,541	126,687
76,407	-9,470	267,247	126,599
77,422	-9,491	266,939	126,422
78,436	-9,527	266,982	126,398
79,451	-9,385	266,516	126,296
80,466	-9,479	266,306	126,099
81,480	-9,565	266,053	125,890
82,495	-9,730	265,888	125,652
83,509	-9,852	265,839	125,508
84,524	-9,664	265,503	125,507
85,539	-9,845	265,171	125,176
86,553	-9,775	265,032	125,163
87,568	-9,615	264,858	125,213
88,582	-9,698	264,722	125,063
89,597	-9,785	264,468	124,853
90,611	-9,471	264,341	125,065
91,626	-9,524	264,146	124,914
92,641	-9,456	263,906	124,850
93,655	-9,497	263,748	124,727
94,670	-9,453	263,623	124,696
95,684	-9,520	263,267	124,457
96,699	-9,483	263,281	124,486
97,714	-9,627	262,925	124,178
98,728	-9,821	262,645	123,861
99,743	-9,841	262,300	123,670
100,757	-9,914	262,410	123,646
101,772	-9,695	262,097	123,682
102,787	-9,686	261,917	123,594
103,801	-9,613	261,831	123,607
104,816	-9,517	261,545	123,547
105,830	-9,444	261,504	123,581
106,845	-9,556	261,267	123,358
107,860	-9,482	260,998	123,286
108,874	-9,464	260,744	123,171
109,889	-9,488	260,633	123,086
110,903	-9,646	260,508	122,877
111,918	-9,614	260,150	122,725
112,933	-9,497	260,111	122,799
113,947	-9,510	259,923	122,688
114,962	-9,633	259,596	122,414
115,976	-9,578	259,542	122,426
116,991	-9,671	259,284	122,212
118,006	-9,584	259,129	122,204
119,020	-9,416	258,854	122,211
120,035	-9,365	258,940	122,285
121,049	-9,576	258,646	121,951
122,064	-9,427	258,390	121,950
123,079	-9,568	258,130	121,693
124,093	-9,502	258,014	121,685
125,108	-9,850	257,766	121,253
126,122	-9,992	257,572	121,027
127,137	-9,847	257,118	120,930
128,151	-9,869	257,127	120,904
129,166	-9,676	256,985	120,994
130,181	-9,788	256,607	120,708
131,195	-9,684	256,582	120,776
132,210	-9,457	256,389	120,871
133,224	-9,547	256,295	120,738
134,239	-9,397	256,248	120,836
135,254	-9,425	255,940	120,655
136,268	-9,440	255,629	120,485
137,283	-9,842	255,467	120,050
138,297	-9,998	255,106	119,735
139,312	-9,816	255,000	119,831
140,327	-9,602	254,926	119,971
141,341	-9,538	254,860	119,984
142,356	-9,392	254,569	119,962
143,370	-9,470	254,436	119,822
144,385	-9,155	254,271	120,004
145,400	-9,345	254,190	119,792
146,414	-9,192	253,801	119,729
147,429	-9,384	253,760	119,535
148,443	-9,419	253,502	119,373
149,458	-9,180	253,260	119,453
150,473	-9,226	253,226	119,386
151,487	-9,390	253,136	119,193
152,502	-9,273	252,812	119,129
153,516	-9,049	252,594	119,207
154,531	-9,246	252,524	118,996
155,546	-9,348	252,257	118,772
156,560	-9,212	252,085	118,797
157,575	-9,401	251,944	118,558
158,589	-9,416	251,722	118,431
159,604	-9,349	251,520	118,383
160,619	-9,360	251,402	118,307
161,633	-9,282	251,206	118,270
162,648	-9,097	251,080	118,357
163,662	-9,197	250,924	118,189
164,677	-9,141	250,782	118,158
165,692	-9,246	250,486	117,919
166,706	-9,392	250,360	117,726
167,721	-9,333	250,244	117,711
168,735	-9,123	249,931	117,730
169,750	-9,269	249,868	117,567
170,764	-9,246	249,867	117,576
171,779	-9,121	249,525	117,510
172,794	-9,098	249,338	117,430
173,808	-9,164	249,124	117,264
174,823	-9,628	248,855	116,737
175,837	-10,062	248,733	116,305
176,852	-9,285	248,598	116,883
177,867	-9,109	248,498	116,973
178,881	-9,195	248,427	116,857
179,896	-9,232	248,374	116,791
180,910	-9,072	248,022	116,749
181,925	-9,012	247,782	116,675
182,940	-8,912	247,688	116,704
183,954	-9,079	247,702	116,561
184,969	-9,206	247,379	116,293
185,983	-9,238	247,078	116,114
186,998	-9,045	247,003	116,230
188,013	-8,995	246,964	116,242
189,027	-8,937	246,706	116,159
190,042	-9,007	246,419	115,956
191,056	-8,943	246,355	115,968
192,071	-9,074	246,206	115,779
193,086	-8,943	245,795	115,683
194,100	-9,104	245,822	115,552
195,115	-8,915	245,576	115,583
196,129	-9,229	245,562	115,307
197,144	-9,204	245,309	115,198
198,159	-9,196	245,198	115,142
199,173	-9,035	244,908	115,128
200,188	-9,297	244,800	114,852
201,202	-9,271	244,478	114,712
202,217	-9,722	244,021	114,117
203,232	-9,829	244,026	114,021
204,246	-9,495	244,096	114,317
205,261	-8,610	244,018	114,998
206,275	-9,440	243,557	114,090
207,290	-5,957	244,998	117,621
208,304	0,714	247,064	124,125
209,319	3,582	247,826	126,872
210,334	3,895	247,797	127,104
211,348	4,055	247,692	127,171
212,363	4,658	247,569	127,594
213,377	4,698	247,495	127,578
214,392	4,590	247,321	127,387
215,407	4,586	247,064	127,241
216,421	4,338	246,982	126,983
217,436	4,670	246,849	127,176
218,450	4,799	246,730	127,209
219,465	4,383	246,406	126,690
220,480	4,332	246,315	126,590
221,494	4,199	246,080	126,349
222,509	4,331	245,936	126,372
223,523	4,066	245,836	126,091
224,538	3,713	245,488	125,613
225,553	3,927	245,386	125,725
226,567	3,757	245,242	125,501
227,582	3,924	245,140	125,574
228,596	4,135	245,056	125,692
229,611	3,799	244,715	125,232
230,626	3,753	244,526	125,087
231,640	3,929	244,426	125,167
232,655	3,875	244,284	125,040
233,669	3,957	244,026	124,964
234,684	3,746	243,848	124,690
235,699	3,981	244,051	124,973
236,713	4,227	243,770	125,018
237,728	3,710	243,524	124,461
238,742	3,778	243,239	124,360
239,757	3,787	243,119	124,295
240,772	3,763	242,990	124,198
241,786	4,090	242,727	124,317
242,801	3,651	242,712	123,944
243,815	3,626	242,451	123,779
244,830	3,867	242,407	123,940
245,844	4,047	242,245	123,991
246,859	3,826	242,217	123,787
247,874	4,041	241,806	123,739
248,888	3,956	241,767	123,640
249,903	4,002	241,616	123,589
250,917	4,148	241,573	123,673
251,932	4,217	241,451	123,655
252,947	4,150	241,221	123,472
253,961	3,870	240,899	123,073
254,976	4,200	240,816	123,283
255,990	4,354	240,613	123,292
257,005	3,774	240,571	122,795
258,020	3,665	240,319	122,569
259,034	3,587	240,116	122,392
260,049	3,971	240,130	122,694
261,063	3,670	239,963	122,358
262,078	3,755	239,713	122,287
263,093	4,048	239,653	122,480
264,107	4,056	239,562	122,428
265,122	3,869	239,204	122,086
266,136	4,158	239,122	122,263
267,151	4,183	239,058	122,239
268,166	3,689	238,853	121,731
269,180	3,625	238,646	121,564
270,195	4,257	238,748	122,106
271,209	4,364	238,610	122,110
272,224	3,973	238,172	121,565
273,239	3,545	238,149	121,205
274,253	3,817	237,808	121,234
275,268	3,888	237,700	121,225
276,282	4,034	237,622	121,289
277,297	3,655	237,325	120,829
278,312	3,765	237,306	120,895
279,326	3,985	237,170	120,988
280,341	4,254	236,887	121,044
281,355	3,980	236,836	120,792
282,370	4,122	236,767	120,857
283,384	4,108	236,553	120,726
284,399	3,823	236,318	120,373
285,414	3,542	236,173	120,068
286,428	3,825	235,999	120,190
287,443	3,814	235,915	120,128
288,457	4,110	235,765	120,272
289,472	4,145	235,588	120,198
290,487	4,109	235,337	120,031
291,501	3,777	235,230	119,708
292,516	3,665	235,095	119,541
293,530	3,419	234,968	119,274
294,545	4,053	234,864	119,704
295,560	3,824	234,698	119,430
296,574	3,718	234,553	119,264
297,589	3,854	234,524	119,344
298,603	4,011	234,369	119,376
299,618	4,025	234,221	119,301
300,633	4,185	234,004	119,304
301,647	4,263	233,821	119,261
302,662	4,379	233,738	119,297
303,676	4,329	233,604	119,179
304,691	4,237	233,501	119,046
305,706	4,475	233,429	119,182
306,720	4,369	233,176	118,960
307,735	4,088	233,112	118,701
308,749	4,007	232,852	118,495
309,764	3,892	232,646	118,291
310,779	3,796	232,521	118,143
311,793	3,632	232,374	117,932
312,808	3,773	232,032	117,857
313,822	3,731	232,003	117,798
314,837	3,750	231,834	117,717
315,852	3,601	231,681	117,515
316,866	3,753	231,612	117,586
317,881	3,882	231,532	117,633
318,895	4,137	231,243	117,670
319,910	4,077	231,124	117,553
320,925	4,028	231,121	117,504
321,939	4,030	231,011	117,439
322,954	4,324	230,752	117,521
323,968	3,931	230,693	117,182
324,983	3,863	230,258	116,898
325,997	3,653	230,145	116,671
327,012	4,009	230,176	116,947
328,027	4,284	230,093	117,103
329,041	4,241	230,147	117,087
330,056	4,573	230,043	117,276
331,070	4,860	229,759	117,338
332,085	4,291	229,534	116,782
333,100	4,154	229,286	116,542
334,114	3,992	229,106	116,317
335,129	4,277	229,017	116,477
336,143	4,606	229,038	116,727
337,158	4,468	228,976	116,580
338,173	4,266	228,569	116,210
339,187	4,123	228,483	116,048
340,202	4,177	228,235	115,953
341,216	3,939	228,232	115,761
342,231	4,210	227,885	115,779
343,246	4,131	227,848	115,691
344,260	4,312	227,705	115,743
345,275	4,550	227,665	115,891
346,289	4,526	227,467	115,762
347,304	4,393	227,353	115,594
348,319	4,267	227,274	115,449
349,333	4,246	227,100	115,335
350,348	3,850	226,938	114,946
351,362	4,125	226,744	115,044
352,377	4,015	226,510	114,832
353,392	3,999	226,412	114,760
354,406	3,961	226,415	114,723
355,421	196,276	1319,881	1398,793
356,435	157,376	1453,113	1398,785
