DTS Sentinel unit serial number:	SN410029Multiplexer serial number:	ORYXHardware model number:	OX2-SRSoftware version number:	ORYX F/W v4,00 Oryx Data Collector v3.7.2.0data status	okinstallation	B5 Nyhavnadifferential loss correction	single-endedforward channel	channel 2reverse channel	N/Adate	2023/12/14time	19:22:13forward acquisition time	300,00reverse acquisition time	0,00gamma	499,1914k internal	0,3156k external	0,3156temperature offset calibration	1,0000default loss term (dB/km)	0,3820temperature slope calibration	1,0000multiplexer offset coefficient	1,0000multiplexer slope coefficient	1,0000fibre end	0,00T internal ref (°C)	8,87T ext. ref 1 (°C)	-5,73T ext. ref 2 (°C)	-5,79length (m)	temperature (°C)	Stokes	anti-Stokes-744,400	800,000	0,054	0,156
-743,385	50,799	-0,144	-0,101
-742,371	-106,863	0,221	0,036
-741,356	-6,264	-0,228	-0,114
-740,342	-200,000	-0,024	0,152
-739,327	-113,489	-0,430	-0,061
-738,312	-70,512	0,230	0,064
-737,298	-21,908	-0,297	-0,133
-736,283	76,134	0,140	0,109
-735,269	-82,445	-0,428	0,102
-734,254	-103,515	0,124	0,021
-733,239	-20,531	-0,596	-0,269
-732,225	81,953	0,131	0,104
-731,210	674,309	-0,060	0,115
-730,196	-200,000	0,006	0,042
-729,181	-200,000	-0,019	-0,066
-728,167	800,000	0,021	-0,048
-727,152	-200,000	0,003	-0,057
-726,137	144,169	-0,092	0,091
-725,123	-150,903	0,109	-0,006
-724,108	-34,119	-0,218	-0,088
-723,094	800,000	-0,057	-0,161
-722,079	175,384	-0,062	-0,067
-721,064	139,011	-0,082	-0,079
-720,050	-4,991	-0,078	-0,040
-719,035	113,976	0,053	0,047
-718,021	-200,000	-0,014	0,048
-717,006	410,086	-0,048	0,075
-715,991	125,320	-0,084	-0,078
-714,977	800,000	-0,057	-0,135
-713,962	209,286	-0,107	-0,124
-712,948	-39,814	0,050	0,019
-711,933	9,603	-0,062	0,035
-710,918	4,220	-0,022	-0,012
-709,904	668,350	-0,048	-0,092
-708,889	92,762	-0,072	-0,060
-707,875	411,020	0,133	-0,208
-706,860	-98,990	0,151	-0,028
-705,845	262,457	-0,046	0,059
-704,831	800,000	-0,013	-0,037
-703,816	-104,509	-0,056	-0,009
-702,802	-200,000	0,011	-0,145
-701,787	800,000	-0,028	0,074
-700,772	157,019	-0,147	-0,150
-699,758	800,000	-0,055	-0,132
-698,743	-14,169	-0,032	-0,015
-697,729	-57,166	0,025	-0,008
-696,714	-200,000	-0,025	0,130
-695,699	800,000	0,040	-0,089
-694,685	293,140	-0,156	-0,210
-693,670	800,000	-0,037	-0,103
-692,656	552,722	-0,049	-0,087
-691,641	217,134	0,143	0,168
-690,627	146,485	0,066	-0,065
-689,612	-200,000	-0,008	-0,126
-688,597	-7,479	-0,058	0,029
-687,583	457,104	-0,059	-0,096
-686,568	-70,809	-0,106	-0,029
-685,554	-200,000	0,017	-0,068
-684,539	-32,865	0,007	-0,003
-683,524	-37,407	-0,062	-0,024
-682,510	-151,874	-0,058	-0,003
-681,495	-16,109	0,033	-0,015
-680,481	89,554	-0,044	0,036
-679,466	1,034	-0,042	-0,022
-678,451	58,294	0,035	-0,025
-677,437	-42,755	0,006	-0,002
-676,422	-200,000	-0,022	0,118
-675,408	140,026	0,058	0,056
-674,393	-126,061	-0,155	0,017
-673,378	311,373	-0,145	-0,201
-672,364	-120,552	-0,070	-0,009
-671,349	-200,000	-0,003	-0,034
-670,335	-99,477	0,190	0,035
-669,320	-200,000	-0,035	0,133
-668,305	148,334	0,092	0,092
-667,291	172,469	-0,086	-0,091
-666,276	41,247	-0,086	0,057
-665,262	-200,000	-0,018	0,085
-664,247	581,632	-0,044	-0,080
-663,232	-30,360	-0,034	0,014
-662,218	-200,000	0,000	-0,064
-661,203	-111,515	0,094	0,014
-660,189	34,616	-0,031	-0,020
-659,174	730,801	-0,081	-0,161
-658,159	37,112	-0,171	-0,111
-657,145	390,058	-0,122	-0,186
-656,130	-200,000	-0,029	0,159
-655,116	253,867	0,042	0,053
-654,101	175,017	-0,027	-0,029
-653,086	-28,480	-0,032	-0,013
-652,072	800,000	-0,045	-0,105
-651,057	-28,180	-0,123	0,052
-650,043	-200,000	-0,020	-0,123
-649,028	620,768	-0,056	0,105
-648,014	-47,873	0,083	-0,029
-646,999	-60,058	0,059	-0,019
-645,984	22,833	0,095	-0,057
-644,970	-200,000	0,010	0,051
-643,955	19,668	-0,119	-0,070
-642,941	-23,415	0,033	-0,015
-641,926	588,834	-0,032	0,058
-640,911	-200,000	0,002	0,086
-639,897	-200,000	0,010	0,045
-638,882	-200,000	0,009	0,087
-637,868	106,381	-0,085	0,074
-636,853	-158,961	0,062	-0,003
-635,838	-90,422	0,030	0,006
-634,824	277,402	-0,124	-0,162
-633,809	-200,000	0,005	0,078
-632,795	142,247	-0,128	0,125
-631,780	-65,212	-0,039	-0,011
-630,765	-166,203	-0,118	-0,004
-629,751	71,889	0,064	-0,049
-628,736	-200,000	-0,000	0,032
-627,722	-200,000	0,013	-0,114
-626,707	162,096	0,083	-0,085
-625,692	-49,774	0,096	-0,033
-624,678	-155,857	-0,166	0,008
-623,663	417,755	-0,037	0,058
-622,649	-200,000	0,006	-0,031
-621,634	-50,485	-0,181	-0,062
-620,619	800,000	-0,035	-0,076
-619,605	-200,000	0,000	0,078
-618,590	145,054	0,055	0,054
-617,576	311,797	0,029	-0,040
-616,561	-43,649	-0,040	-0,015
-615,546	198,575	0,086	-0,097
-614,532	-109,634	-0,044	-0,007
-613,517	-120,495	0,037	-0,005
-612,503	-200,000	0,007	-0,042
-611,488	194,781	0,087	0,097
-610,474	-101,875	-0,109	-0,019
-609,459	-98,190	-0,094	-0,018
-608,444	-200,000	-0,015	-0,152
-607,430	81,787	-0,048	-0,038
-606,415	194,675	-0,049	-0,055
-605,401	-200,000	-0,034	-0,156
-604,386	-200,000	-0,012	0,113
-603,371	-200,000	-0,009	0,150
-602,357	-200,000	0,010	-0,039
-601,342	-35,394	0,065	-0,026
-600,328	202,705	0,076	-0,086
-599,313	360,360	-0,031	0,046
-598,298	244,766	0,059	0,073
-597,284	162,466	0,082	0,084
-596,269	-200,000	0,012	0,040
-595,255	459,501	-0,047	0,076
-594,240	-200,000	-0,039	-0,195
-593,225	603,996	-0,069	-0,126
-592,211	-200,000	0,047	-0,153
-591,196	-200,000	0,009	0,108
-590,182	250,138	0,087	0,109
-589,167	-200,000	-0,009	-0,071
-588,152	-155,732	0,080	-0,004
-587,138	-200,000	-0,035	0,120
-586,123	-200,000	0,003	-0,124
-585,109	800,000	-0,005	0,012
-584,094	-49,333	-0,061	-0,021
-583,079	800,000	-0,039	0,102
-582,065	-23,473	0,114	-0,050
-581,050	167,823	0,071	-0,074
-580,036	-200,000	-0,007	-0,074
-579,021	469,571	-0,088	-0,145
-578,006	413,793	-0,099	-0,155
-576,992	-69,228	-0,053	0,015
-575,977	47,426	0,049	0,034
-574,963	-40,680	0,092	0,035
-573,948	328,497	-0,097	-0,138
-572,934	216,807	0,105	0,123
-571,919	-161,885	-0,054	-0,002
-570,904	800,000	-0,068	0,147
-569,890	-92,331	0,132	-0,027
-568,875	-200,000	0,018	-0,178
-567,861	800,000	-0,045	-0,099
-566,846	-103,510	-0,154	-0,026
-565,831	800,000	0,016	0,038
-564,817	658,146	0,039	0,073
-563,802	116,636	-0,154	-0,139
-562,788	105,279	-0,071	0,061
-561,773	-200,000	0,018	0,100
-560,758	163,735	0,125	0,129
-559,744	419,968	0,033	0,052
-558,729	-79,808	-0,074	-0,018
-557,715	7,060	-0,014	-0,007
-556,700	800,000	0,052	-0,168
-555,685	-148,702	0,069	-0,004
-554,671	428,851	0,069	0,109
-553,656	-60,225	0,046	-0,014
-552,642	800,000	0,034	-0,079
-551,627	-200,000	0,035	0,190
-550,612	800,000	-0,036	-0,103
-549,598	-59,367	-0,119	0,037
-548,583	-200,000	-0,005	0,064
-547,569	2,623	-0,075	0,040
-546,554	-70,949	0,083	-0,023
-545,539	443,872	0,070	-0,114
-544,525	-174,577	-0,098	-0,002
-543,510	-164,717	-0,034	-0,001
-542,496	347,950	-0,041	0,059
-541,481	93,244	0,069	-0,057
-540,466	213,147	0,029	0,034
-539,452	59,099	0,173	0,125
-538,437	11,994	-0,088	0,049
-537,423	-200,000	0,005	-0,018
-536,408	-200,000	0,033	-0,139
-535,393	401,643	0,055	0,085
-534,379	8,704	0,030	0,017
-533,364	31,177	-0,143	0,089
-532,350	800,000	0,066	0,135
-531,335	800,000	0,022	-0,062
-530,321	800,000	0,038	0,108
-529,306	800,000	-0,021	-0,055
-528,291	3,301	0,123	-0,065
-527,277	-200,000	-0,016	0,084
-526,262	-200,000	-0,039	0,163
-525,248	162,615	0,084	0,086
-524,233	-82,218	-0,024	0,006
-523,218	798,236	-0,037	0,075
-522,204	134,870	0,014	-0,014
-521,189	712,513	-0,054	-0,106
-520,175	254,907	-0,114	-0,143
-519,160	-59,652	-0,067	-0,021
-518,145	118,601	0,079	0,072
-517,131	78,329	-0,171	0,134
-516,116	303,775	0,057	0,077
-515,102	69,714	-0,054	-0,040
-514,087	16,352	-0,061	0,035
-513,072	538,118	-0,039	-0,068
-512,058	153,400	0,188	-0,188
-511,043	-200,000	0,027	-0,133
-510,029	172,208	0,119	0,125
-509,014	-122,534	0,159	0,019
-507,999	-200,000	-0,025	-0,144
-506,985	-200,000	-0,005	0,069
-505,970	643,450	0,015	0,028
-504,956	800,000	0,018	0,053
-503,941	-187,443	0,142	-0,001
-502,926	761,353	0,032	0,065
-501,912	61,087	0,080	0,058
-500,897	-131,379	0,134	-0,013
-499,883	-99,076	-0,168	-0,031
-498,868	256,812	-0,017	0,022
-497,853	55,388	-0,075	0,053
-496,839	800,000	-0,032	-0,084
-495,824	-200,000	0,011	0,062
-494,810	208,569	0,085	0,097
-493,795	218,795	-0,036	-0,042
-492,781	-15,031	-0,025	-0,012
-491,766	348,187	-0,096	-0,139
-490,751	-200,000	0,023	-0,171
-489,737	471,192	0,051	0,084
-488,722	-15,998	0,036	-0,017
-487,708	615,700	-0,050	0,093
-486,693	-200,000	-0,026	0,161
-485,678	274,455	-0,036	0,047
-484,664	-200,000	0,040	-0,162
-483,649	-200,000	0,019	-0,143
-482,635	-188,476	-0,081	0,001
-481,620	-143,521	-0,122	0,008
-480,605	-182,933	0,206	-0,003
-479,591	-200,000	0,007	0,066
-478,576	-134,838	-0,070	0,006
-477,562	473,662	0,027	-0,044
-476,547	-35,353	-0,103	-0,041
-475,532	-14,113	0,037	-0,017
-474,518	-117,868	0,015	-0,002
-473,503	294,658	0,073	0,098
-472,489	-38,329	-0,046	-0,018
-471,474	67,788	0,098	0,073
-470,459	29,929	-0,066	0,041
-469,445	446,077	0,024	-0,039
-468,430	-75,242	-0,034	-0,009
-467,416	-200,000	0,018	0,066
-466,401	-33,259	0,205	0,082
-465,386	289,646	-0,006	0,008
-464,372	800,000	0,033	-0,071
-463,357	800,000	-0,032	0,100
-462,343	101,289	-0,023	-0,019
-461,328	800,000	-0,029	0,076
-460,313	-118,162	0,123	0,016
-459,299	-98,161	0,085	0,016
-458,284	-72,975	0,029	0,008
-457,270	-159,316	-0,125	0,005
-456,255	24,004	-0,199	0,120
-455,241	-5,296	-0,089	-0,045
-454,226	318,961	0,090	-0,125
-453,211	-182,339	0,143	0,002
-452,197	25,462	-0,048	0,029
-451,182	-42,545	-0,017	0,006
-450,168	122,449	0,009	-0,008
-449,153	-65,612	-0,044	-0,013
-448,138	-60,185	0,041	-0,013
-447,124	77,897	-0,086	0,067
-446,109	107,784	-0,078	0,067
-445,095	257,798	0,047	-0,059
-444,080	321,968	0,028	0,038
-443,065	218,064	-0,046	0,053
-442,051	187,812	0,048	0,052
-441,036	757,793	-0,015	-0,029
-440,022	31,967	-0,058	0,037
-439,007	-76,061	0,081	-0,021
-437,992	340,161	0,016	0,024
-436,978	435,500	-0,056	0,089
-435,963	-53,854	0,068	0,022
-434,949	-147,291	-0,139	0,008
-433,934	-17,219	-0,120	0,055
-432,919	-113,229	-0,052	0,007
-431,905	29,266	-0,102	-0,063
-430,890	-168,861	0,038	0,001
-429,876	-200,000	-0,001	-0,053
-428,861	-200,000	0,010	0,072
-427,846	194,198	0,060	-0,066
-426,832	800,000	-0,058	-0,154
-425,817	800,000	0,061	-0,188
-424,803	-76,349	0,041	0,010
-423,788	15,332	0,118	-0,067
-422,773	-200,000	-0,012	0,044
-421,759	377,649	0,055	0,081
-420,744	-200,000	0,018	0,132
-419,730	-34,325	-0,186	-0,074
-418,715	-200,000	-0,004	-0,071
-417,701	-165,089	-0,124	-0,004
-416,686	5,850	0,161	0,086
-415,671	-200,000	-0,010	0,283
-414,657	-61,925	0,032	0,010
-413,642	-95,800	-0,061	-0,012
-412,628	280,664	-0,081	-0,106
-411,613	371,597	0,037	-0,055
-410,598	26,149	-0,043	0,026
-409,584	800,000	-0,034	0,073
-408,569	-94,134	-0,051	-0,010
-407,555	-200,000	0,016	0,114
-406,540	-200,000	0,015	0,085
-405,525	-200,000	-0,022	0,076
-404,511	-200,000	0,008	-0,033
-403,496	-104,015	0,102	0,017
-402,482	94,835	-0,074	-0,061
-401,467	-9,741	0,044	-0,021
-400,452	794,480	-0,079	-0,160
-399,438	-8,101	-0,075	-0,036
-398,423	800,000	-0,040	0,084
-397,409	698,580	-0,031	0,059
-396,394	42,489	0,096	-0,063
-395,379	-200,000	-0,009	0,044
-394,365	-44,693	0,093	-0,034
-393,350	43,036	-0,066	-0,044
-392,336	26,489	0,064	-0,039
-391,321	-137,765	0,089	-0,007
-390,306	734,979	0,022	-0,044
-389,292	-69,392	0,023	0,006
-388,277	337,971	-0,049	0,070
-387,263	-200,000	-0,024	0,112
-386,248	-200,000	0,025	0,097
-385,233	351,097	-0,056	-0,080
-384,219	24,699	-0,092	0,055
-383,204	8,408	-0,133	-0,072
-382,190	-200,000	-0,003	-0,191
-381,175	-200,000	0,019	-0,076
-380,160	-126,965	-0,085	0,009
-379,146	800,000	-0,021	-0,047
-378,131	-200,000	-0,016	-0,080
-377,117	572,607	0,082	-0,146
-376,102	-72,095	-0,123	-0,033
-375,088	800,000	0,054	0,168
-374,073	-65,109	-0,147	0,043
-373,058	-200,000	-0,005	-0,065
-372,044	-200,000	0,022	0,110
-371,029	-99,992	-0,059	-0,011
-370,015	-50,382	-0,132	-0,045
-369,000	-200,000	-0,012	-0,081
-367,985	-15,017	-0,111	-0,051
-366,971	-154,411	0,123	0,006
-365,956	354,982	0,092	0,134
-364,942	-107,563	-0,046	-0,007
-363,927	175,099	-0,027	-0,029
-362,912	-88,196	-0,092	-0,020
-361,898	800,000	-0,077	-0,219
-360,883	800,000	-0,033	-0,069
-359,869	-57,714	-0,060	0,019
-358,854	132,910	0,033	0,031
-357,839	-200,000	0,004	-0,019
-356,825	340,185	0,052	-0,075
-355,810	140,206	-0,077	-0,074
-354,796	-200,000	0,017	-0,110
-353,781	-113,627	0,022	0,003
-352,766	-40,469	-0,190	-0,071
-351,752	110,347	-0,057	0,050
-350,737	-200,000	-0,001	-0,116
-349,723	-200,000	-0,005	0,139
-348,708	-200,000	0,008	0,128
-347,693	-147,791	-0,154	-0,009
-346,679	-3,220	-0,063	-0,032
-345,664	182,112	-0,116	0,125
-344,650	-78,296	0,041	0,010
-343,635	80,894	0,061	-0,048
-342,620	800,000	0,017	-0,038
-341,606	-14,809	0,094	0,044
-340,591	-194,309	0,063	-0,000
-339,577	800,000	-0,040	-0,086
-338,562	-200,000	-0,012	-0,128
-337,548	430,860	-0,059	-0,093
-336,533	-92,767	0,137	0,028
-335,518	19,369	0,066	-0,038
-334,504	-200,000	0,020	0,078
-333,489	-200,000	0,000	0,049
-332,475	190,812	0,116	-0,127
-331,460	-115,218	-0,025	0,003
-330,445	-200,000	-0,021	0,103
-329,431	607,916	0,060	0,110
-328,416	-200,000	-0,005	0,056
-327,402	792,091	0,066	0,132
-326,387	800,000	0,022	-0,052
-325,372	-19,736	0,124	-0,055
-324,358	-77,870	0,082	-0,020
-323,343	97,682	0,067	0,056
-322,329	401,109	0,090	0,137
-321,314	-200,000	-0,011	-0,073
-320,299	267,850	0,018	-0,022
-319,285	-6,520	0,023	-0,011
-318,270	800,000	0,020	-0,062
-317,256	-200,000	0,002	-0,076
-316,241	-61,031	0,117	0,035
-315,226	44,473	0,018	0,012
-314,212	-200,000	0,014	0,120
-313,197	17,364	-0,057	-0,033
-312,183	-27,068	0,069	0,029
-311,168	20,592	0,064	-0,038
-310,153	87,397	0,047	-0,037
-309,139	-200,000	0,018	-0,075
-308,124	-49,461	0,234	-0,080
-307,110	-200,000	0,017	0,056
-306,095	194,480	-0,106	0,117
-305,080	23,704	0,034	-0,020
-304,066	5,104	-0,136	-0,072
-303,051	410,248	0,029	-0,045
-302,037	20,274	-0,033	-0,019
-301,022	-70,368	-0,032	0,009
-300,008	-200,000	-0,002	-0,086
-298,993	-200,000	0,003	0,075
-297,978	-31,678	-0,096	-0,039
-296,964	-140,105	-0,157	0,012
-295,949	-28,471	-0,097	-0,040
-294,935	-200,000	-0,005	-0,034
-293,920	17,285	0,032	-0,019
-292,905	-156,512	0,030	-0,001
-291,891	800,000	0,056	0,162
-290,876	800,000	-0,047	0,095
-289,862	338,666	-0,077	0,108
-288,847	132,892	-0,049	0,046
-287,832	-200,000	-0,090	0,000
-286,818	-200,000	0,018	0,120
-285,803	47,056	0,050	-0,034
-284,789	-139,830	0,056	0,004
-283,774	-200,000	0,016	-0,054
-282,759	-35,690	-0,111	-0,043
-281,745	-200,000	-0,020	-0,081
-280,730	-200,000	0,010	0,036
-279,716	-89,000	0,062	-0,013
-278,701	35,402	0,062	-0,039
-277,686	232,300	-0,099	0,118
-276,672	58,624	-0,038	0,027
-275,657	-18,144	0,084	0,038
-274,643	-1,055	0,102	-0,052
-273,628	304,294	0,080	0,108
-272,613	-103,440	-0,094	-0,016
-271,599	-200,000	-0,007	0,024
-270,584	-158,462	0,106	0,004
-269,570	800,000	0,034	0,103
-268,555	249,793	0,030	-0,037
-267,540	53,169	0,109	-0,075
-266,526	32,030	-0,038	0,024
-265,511	-26,765	-0,124	0,052
-264,497	800,000	0,055	0,121
-263,482	-200,000	-0,008	0,069
-262,467	-200,000	0,009	0,065
-261,453	-146,848	0,195	0,012
-260,438	236,714	-0,090	-0,108
-259,424	-49,325	-0,094	-0,032
-258,409	-92,066	-0,093	0,019
-257,395	206,677	0,043	-0,049
-256,380	-200,000	-0,010	0,052
-255,365	156,592	0,122	0,122
-254,351	800,000	0,022	-0,070
-253,336	-125,631	0,072	0,008
-252,322	-160,983	-0,149	-0,006
-251,307	800,000	-0,022	-0,057
-250,292	394,424	-0,120	-0,181
-249,278	112,642	0,076	0,066
-248,263	-26,999	0,159	0,067
-247,249	34,684	0,105	0,066
-246,234	800,000	-0,033	-0,088
-245,219	110,612	0,100	-0,087
-244,205	160,702	-0,027	0,027
-243,190	141,128	-0,139	-0,133
-242,176	-121,962	0,242	-0,028
-241,161	170,723	-0,106	0,110
-240,146	357,450	-0,039	0,057
-239,132	-49,711	0,052	0,018
-238,117	800,000	-0,014	-0,034
-237,103	452,358	-0,054	0,087
-236,088	-200,000	0,003	-0,023
-235,073	194,140	0,092	-0,101
-234,059	20,146	-0,029	0,017
-233,044	466,782	-0,024	0,039
-232,030	-200,000	-0,003	-0,117
-231,015	7,771	0,102	0,055
-230,000	584,515	-0,082	-0,146
-228,986	-200,000	0,045	0,152
-227,971	603,637	-0,065	-0,117
-226,957	-104,090	0,151	0,025
-225,942	225,542	0,021	0,024
-224,927	102,439	0,078	-0,066
-223,913	-131,574	0,060	-0,006
-222,898	219,357	-0,070	-0,081
-221,884	800,000	-0,021	-0,064
-220,869	800,000	-0,015	0,039
-219,855	59,357	-0,117	0,084
-218,840	-53,128	-0,091	0,030
-217,825	-200,000	-0,002	0,049
-216,811	18,428	-0,123	0,071
-215,796	156,266	0,027	0,027
-214,782	71,047	-0,052	-0,039
-213,767	-200,000	0,021	-0,089
-212,752	-43,580	0,018	-0,006
-211,738	-200,000	-0,003	0,065
-210,723	-200,000	0,008	-0,091
-209,709	134,465	0,094	-0,088
-208,694	-85,705	-0,096	-0,021
-207,679	-69,279	0,120	-0,033
-206,665	355,179	-0,059	0,085
-205,650	534,271	0,082	0,141
-204,636	-200,000	0,052	0,187
-203,621	-168,275	0,144	-0,004
-202,606	-25,520	-0,082	0,035
-201,592	-200,000	-0,000	-0,072
-200,577	-200,000	-0,001	-0,127
-199,563	-112,262	0,058	0,008
-198,548	-32,253	0,094	0,038
-197,533	-50,356	0,089	0,030
-196,519	800,000	-0,031	-0,090
-195,504	23,045	-0,124	-0,073
-194,490	-63,840	-0,073	0,021
-193,475	-200,000	0,005	-0,024
-192,460	48,189	0,047	0,031
-191,446	-200,000	0,015	0,109
-190,431	-113,146	0,119	-0,017
-189,417	-16,068	-0,041	-0,019
-188,402	149,194	-0,065	0,064
-187,387	800,000	0,004	0,013
-186,373	-53,587	-0,179	-0,059
-185,358	-3,169	0,032	0,016
-184,344	-200,000	-0,001	-0,046
-183,329	140,794	0,137	-0,131
-182,315	162,799	0,078	0,080
-181,300	-2,840	0,040	0,020
-180,285	172,785	-0,044	0,046
-179,271	-134,263	-0,077	-0,007
-178,256	8,252	0,188	0,101
-177,242	2,401	0,150	-0,078
-176,227	-122,846	-0,060	-0,007
-175,212	449,887	0,045	0,072
-174,198	-72,731	-0,078	0,021
-173,183	800,000	-0,007	0,021
-172,169	-2,456	-0,077	-0,039
-171,154	-24,110	-0,087	-0,038
-170,139	-55,372	0,018	-0,006
-169,125	800,000	0,030	0,065
-168,110	-77,324	0,023	0,006
-167,096	103,747	0,055	-0,047
-166,081	-64,224	-0,089	0,026
-165,066	-80,908	-0,068	-0,016
-164,052	-131,116	-0,112	0,011
-163,037	-142,970	0,126	-0,009
-162,023	-184,655	-0,035	0,000
-161,008	100,529	-0,027	-0,023
-159,993	-200,000	-0,003	0,011
-158,979	376,283	0,065	-0,097
-157,964	-133,786	-0,025	0,002
-156,950	-4,769	0,073	0,036
-155,935	318,496	-0,062	-0,085
-154,920	323,887	0,059	-0,081
-153,906	-200,000	0,020	0,070
-152,891	85,801	-0,044	-0,035
-151,877	-200,000	0,003	-0,131
-150,862	-74,202	0,058	-0,015
-149,847	-95,950	0,205	-0,039
-148,833	-200,000	-0,013	0,115
-147,818	-165,756	-0,051	-0,002
-146,804	800,000	0,021	0,047
-145,789	532,682	0,104	0,178
-144,775	-100,633	-0,174	0,031
-143,760	-200,000	-0,000	0,112
-142,745	342,541	-0,037	0,053
-141,731	571,528	-0,017	0,030
-140,716	-76,993	0,085	-0,021
-139,702	478,207	0,121	0,197
-138,687	-200,000	0,002	0,034
-137,672	-200,000	-0,013	0,138
-136,658	756,545	0,041	-0,080
-135,643	-200,000	0,012	-0,130
-134,629	-200,000	-0,023	0,074
-133,614	23,494	-0,163	0,096
-132,599	800,000	0,037	0,117
-131,585	800,000	0,084	0,176
-130,570	245,027	-0,164	0,199
-129,556	-200,000	-0,019	0,151
-128,541	591,003	-0,006	-0,011
-127,526	-55,627	-0,157	-0,050
-126,512	-88,285	0,037	-0,008
-125,497	-200,000	0,004	0,018
-124,483	-26,842	0,108	-0,045
-123,468	-200,000	0,035	-0,172
-122,453	-200,000	0,005	-0,073
-121,439	498,008	-0,034	-0,056
-120,424	7,489	-0,044	-0,024
-119,410	321,187	-0,015	-0,021
-118,395	-27,585	0,110	0,046
-117,380	-141,900	-0,116	-0,008
-116,366	-200,000	0,005	0,019
-115,351	800,000	-0,064	0,138
-114,337	139,495	0,047	-0,044
-113,322	122,899	-0,074	-0,067
-112,307	355,474	0,032	0,045
-111,293	57,384	0,078	0,055
-110,278	-28,921	-0,103	0,042
-109,264	87,845	-0,020	-0,016
-108,249	800,000	0,018	0,040
-107,234	690,830	-0,067	-0,126
-106,220	-200,000	0,001	0,026
-105,205	-6,774	0,071	0,035
-104,191	-93,640	-0,107	-0,021
-103,176	-125,792	0,059	0,006
-102,162	20,107	0,120	0,069
-101,147	-200,000	0,012	0,045
-100,132	-200,000	0,066	0,227
-99,118	800,000	0,049	-0,122
-98,103	800,000	-0,015	0,032
-97,089	-69,252	0,180	0,049
-96,074	-123,466	0,106	0,012
-95,059	662,487	-0,008	-0,015
-94,045	-60,442	-0,205	-0,062
-93,030	-31,219	0,042	-0,017
-92,016	-114,010	-0,100	-0,014
-91,001	-200,000	0,004	0,054
-89,986	800,000	-0,036	-0,076
-88,972	-200,000	-0,015	0,091
-87,957	183,196	0,069	0,073
-86,943	765,436	-0,055	0,109
-85,928	-200,000	0,001	-0,082
-84,913	87,611	-0,034	0,027
-83,899	-200,000	-0,012	0,081
-82,884	-89,570	0,014	-0,003
-81,870	-200,000	-0,020	0,064
-80,855	-161,616	0,038	0,001
-79,840	132,142	-0,040	-0,037
-78,826	23,619	-0,060	-0,035
-77,811	413,724	0,009	0,014
-76,797	8,384	0,078	-0,042
-75,782	615,417	-0,035	-0,063
-74,767	28,621	0,082	-0,050
-73,753	-126,342	0,081	0,009
-72,738	94,861	-0,063	0,051
-71,724	-200,000	0,002	0,041
-70,709	-106,846	-0,067	-0,011
-69,694	177,061	-0,066	0,069
-68,680	-200,000	0,012	0,108
-67,665	-200,000	-0,003	-0,056
-66,651	-200,000	0,035	-0,130
-65,636	-200,000	0,016	0,091
-64,622	42,388	-0,050	0,033
-63,607	82,080	0,064	0,050
-62,592	464,841	-0,024	0,038
-61,578	-200,000	0,003	0,060
-60,563	4,304	-0,055	0,029
-59,549	98,340	0,042	0,035
-58,534	89,504	-2,483	-1,987
-57,519	322,754	0,264	-0,363
-56,505	-200,000	-1,561	-5,242
-55,490	434,460	1,254	1,963
-54,476	800,000	5,110	11,027
-53,461	-200,000	21,583	336,107
-52,446	800,000	762,164	2285,777
-51,432	508,175	1657,253	2772,916
-50,417	104,492	1622,343	1371,094
-49,403	75,172	1276,417	965,111
-48,388	26,016	1023,532	611,508
-47,373	19,123	989,014	568,061
-46,359	13,533	976,457	542,456
-45,344	9,566	973,268	527,613
-44,330	10,044	971,091	527,985
-43,315	8,989	969,359	523,559
-42,300	8,979	967,967	522,752
-41,286	8,875	967,084	521,915
-40,271	8,907	966,238	521,542
-39,257	8,880	965,384	520,974
-38,242	8,873	964,471	520,435
-37,227	8,950	963,431	520,106
-36,213	8,842	962,894	519,444
-35,198	8,867	962,076	519,064
-34,184	8,899	961,355	518,756
-33,169	8,897	960,142	518,075
-32,154	8,926	959,423	517,760
-31,140	8,874	958,527	517,089
-30,125	8,998	957,671	517,008
-29,111	8,878	956,891	516,178
-28,096	8,966	956,249	516,096
-27,082	8,962	955,583	515,703
-26,067	8,936	954,860	515,207
-25,052	8,850	954,100	514,501
-24,038	8,844	953,311	514,036
-23,023	8,876	952,549	513,707
-22,009	8,904	952,226	513,602
-20,994	8,908	951,703	513,313
-19,979	8,923	950,728	512,815
-18,965	8,905	950,257	512,483
-17,950	8,883	949,649	512,063
-16,936	8,897	948,728	511,591
-15,921	8,853	948,272	511,184
-14,906	8,798	947,497	510,570
-13,892	8,824	946,823	510,270
-12,877	8,780	946,139	509,739
-11,863	8,813	945,638	509,555
-10,848	8,783	945,155	509,180
-9,833	8,850	944,620	509,084
-8,819	8,813	943,691	508,446
-7,804	8,722	943,272	507,910
-6,790	8,776	942,670	507,735
-5,775	8,829	942,148	507,605
-4,760	8,881	941,452	507,376
-3,746	8,760	940,837	506,639
-2,731	8,620	940,209	505,834
-1,717	8,652	939,344	505,450
-0,702	8,621	939,114	505,210
0,313	8,513	938,046	505,054
1,327	11,830	935,917	514,363
2,342	20,462	784,892	454,121
3,356	15,984	451,432	254,377
4,371	-9,935	314,351	149,426
5,386	-13,656	296,913	137,338
6,400	-15,559	290,741	132,574
7,415	-16,209	287,800	130,579
8,429	-16,995	285,940	128,953
9,444	-17,407	285,316	128,256
10,459	-17,359	284,635	127,987
11,473	-17,402	284,000	127,648
12,488	-17,180	283,404	127,583
13,502	-17,542	282,911	126,999
14,517	-17,425	282,487	126,911
15,531	-17,468	281,998	126,639
16,546	-17,654	281,652	126,292
17,561	-17,491	281,227	126,248
18,575	-17,281	280,937	126,308
19,590	-17,511	280,498	125,878
20,604	-17,417	280,150	125,801
21,619	-17,514	279,729	125,508
22,634	-17,604	279,567	125,338
23,648	-17,680	279,235	125,105
24,663	-17,575	278,872	125,032
25,677	-17,598	278,613	124,883
26,692	-17,493	278,379	124,867
27,707	-17,501	278,160	124,750
28,721	-17,625	277,934	124,519
29,736	-17,615	277,519	124,331
30,750	-17,607	277,367	124,260
31,765	-17,603	277,127	124,145
32,780	-17,454	276,863	124,158
33,794	-17,284	276,504	124,147
34,809	-17,529	276,279	123,802
35,823	-17,628	276,198	123,662
36,838	-17,600	275,759	123,480
37,853	-17,471	275,580	123,511
38,867	-17,359	275,219	123,444
39,882	-17,561	275,108	123,192
40,896	-17,568	274,843	123,057
41,911	-17,505	274,644	123,015
42,926	-17,449	274,369	122,934
43,940	-17,548	274,063	122,693
44,955	-17,483	273,943	122,689
45,969	-17,649	273,653	122,393
46,984	-17,534	273,505	122,424
47,999	-17,354	273,123	122,409
49,013	-17,393	272,990	122,302
50,028	-17,376	272,750	122,201
51,042	-17,143	272,514	122,300
52,057	-17,587	272,377	121,814
53,071	-17,425	272,119	121,839
54,086	-17,459	271,849	121,676
55,101	-17,564	271,634	121,471
56,115	-17,359	271,351	121,524
57,130	-17,284	271,147	121,491
58,144	-17,558	270,987	121,155
59,159	-17,426	270,716	121,145
60,174	-17,336	270,378	121,066
61,188	-17,346	270,240	120,984
62,203	-17,415	270,004	120,805
63,217	-17,426	269,765	120,676
64,232	-17,355	269,501	120,613
65,247	-17,311	269,233	120,523
66,261	-17,414	269,086	120,351
67,276	-17,484	268,787	120,143
68,290	-17,413	268,593	120,111
69,305	-17,254	268,457	120,184
70,320	-17,433	268,108	119,854
71,334	-17,515	267,961	119,702
72,349	-17,498	267,746	119,612
73,363	-17,432	267,505	119,553
74,378	-17,492	267,178	119,342
75,393	-17,509	267,100	119,281
76,407	-17,299	266,874	119,361
77,422	-17,282	266,546	119,219
78,436	-17,291	266,408	119,138
79,451	-17,139	265,983	119,075
80,466	-17,432	265,740	118,691
81,480	-17,462	265,627	118,603
82,495	-17,425	265,271	118,466
83,509	-17,435	265,273	118,448
84,524	-17,322	264,957	118,397
85,539	-17,205	264,672	118,365
86,553	-17,376	264,515	118,131
87,568	-17,376	264,388	118,063
88,582	-17,537	264,174	117,812
89,597	-17,470	264,008	117,788
90,611	-17,245	263,782	117,879
91,626	-17,455	263,734	117,658
92,641	-17,430	263,342	117,495
93,655	-17,366	263,112	117,439
94,670	-17,457	262,946	117,273
95,684	-17,539	262,887	117,163
96,699	-17,400	262,440	117,078
97,714	-17,204	262,356	117,205
98,728	-17,245	262,141	117,062
99,743	-17,308	262,079	116,968
100,757	-17,218	261,686	116,862
101,772	-17,364	261,463	116,622
102,787	-17,395	261,282	116,503
103,801	-17,278	261,035	116,487
104,816	-17,433	260,900	116,278
105,830	-17,339	260,773	116,295
106,845	-17,393	260,521	116,124
107,860	-17,222	260,341	116,185
108,874	-17,286	260,000	115,966
109,889	-17,354	259,953	115,874
110,903	-17,325	259,602	115,733
111,918	-17,342	259,498	115,662
112,933	-17,282	259,357	115,641
113,947	-17,349	258,991	115,409
114,962	-17,270	258,907	115,431
115,976	-17,148	258,662	115,418
116,991	-17,270	258,477	115,218
118,006	-17,275	258,201	115,081
119,020	-17,180	258,196	115,151
120,035	-17,386	258,112	114,924
121,049	-17,403	257,975	114,837
122,064	-17,403	257,697	114,703
123,079	-17,258	257,344	114,663
124,093	-17,309	257,064	114,483
125,108	-17,191	256,866	114,488
126,122	-17,279	256,770	114,357
127,137	-17,231	256,532	114,283
128,151	-17,129	256,419	114,312
129,166	-17,266	256,141	114,058
130,181	-17,356	256,104	113,953
131,195	-17,429	255,878	113,779
132,210	-17,397	255,654	113,698
133,224	-17,232	255,266	113,657
134,239	-17,271	255,169	113,571
135,254	-17,292	254,962	113,450
136,268	-16,982	254,666	113,576
137,283	-17,311	254,509	113,212
138,297	-17,240	254,350	113,192
139,312	-17,255	254,216	113,110
140,327	-17,389	254,040	112,906
141,341	-17,354	253,797	112,818
142,356	-17,033	253,585	112,990
143,370	-17,142	253,369	112,789
144,385	-17,099	253,214	112,748
145,400	-17,197	252,997	112,557
146,414	-17,222	252,877	112,472
147,429	-17,274	252,568	112,280
148,443	-17,399	252,491	112,129
149,458	-17,335	252,232	112,058
150,473	-17,203	252,110	112,107
151,487	-17,287	251,922	111,942
152,502	-17,218	251,739	111,910
153,516	-17,453	251,557	111,618
154,531	-17,358	251,368	111,606
155,546	-17,213	251,137	111,616
156,560	-17,193	251,000	111,562
157,575	-17,152	250,805	111,500
158,589	-17,227	250,591	111,332
159,604	-17,294	250,544	111,244
160,619	-16,856	250,012	111,369
161,633	-17,286	250,111	111,039
162,648	-17,057	249,858	111,110
163,662	-17,044	249,640	111,014
164,677	-17,195	249,625	110,870
165,692	-17,230	249,303	110,688
166,706	-17,124	249,251	110,744
167,721	-17,073	248,993	110,663
168,735	-17,322	249,023	110,456
169,750	-17,194	248,785	110,448
170,764	-17,307	248,691	110,302
171,779	-17,084	248,345	110,326
172,794	-17,140	248,131	110,174
173,808	-17,313	248,137	110,022
174,823	-17,242	247,778	109,912
175,837	-17,198	247,730	109,918
176,852	-17,243	247,573	109,801
177,867	-17,204	247,479	109,782
178,881	-17,068	247,238	109,779
179,896	-17,044	247,002	109,684
180,910	-17,341	246,908	109,385
181,925	-17,094	246,582	109,437
182,940	-17,274	246,653	109,309
183,954	-17,165	246,339	109,251
184,969	-17,105	246,167	109,214
185,983	-17,182	246,005	109,069
186,998	-16,934	245,724	109,140
188,013	-17,248	245,615	108,822
189,027	-17,138	245,416	108,815
190,042	-17,153	245,284	108,735
191,056	-17,060	245,124	108,730
192,071	-16,995	244,868	108,661
193,086	-17,108	244,613	108,445
194,100	-17,094	244,472	108,384
195,115	-17,282	244,417	108,195
196,129	-17,129	244,080	108,162
197,144	-17,159	244,051	108,115
198,159	-17,131	243,768	108,003
199,173	-17,139	243,701	107,957
200,188	-17,277	243,578	107,779
201,202	-17,076	243,373	107,844
202,217	-17,110	243,032	107,656
203,232	-16,871	242,920	107,793
204,246	-16,992	242,703	107,587
205,261	-16,845	242,782	107,733
206,275	-14,854	243,025	109,462
207,290	-11,179	244,602	113,191
208,304	-6,005	246,309	118,255
209,319	-2,818	246,904	121,170
210,334	-2,377	247,135	121,638
211,348	-1,719	247,225	122,216
212,363	-1,195	247,006	122,531
213,377	-0,964	247,056	122,736
214,392	-0,284	247,211	123,364
215,407	0,063	247,264	123,667
216,421	0,088	247,033	123,560
217,436	0,305	246,879	123,652
218,450	0,336	246,698	123,576
219,465	0,261	246,635	123,472
220,480	0,293	246,444	123,391
221,494	0,245	246,199	123,218
222,509	0,194	245,850	122,990
223,523	-0,120	245,854	122,723
224,538	-0,185	245,735	122,599
225,553	-0,032	245,393	122,543
226,567	-0,092	245,260	122,417
227,582	-0,136	245,044	122,262
228,596	-0,011	244,873	122,268
229,611	-0,053	244,734	122,153
230,626	-0,102	244,596	122,034
231,640	-0,164	244,447	121,898
232,655	-0,327	244,307	121,684
233,669	0,005	243,991	121,787
234,684	-0,002	243,941	121,745
235,699	-0,098	243,817	121,594
236,713	-0,152	243,697	121,480
237,728	-0,210	243,599	121,372
238,742	-0,045	243,205	121,299
239,757	-0,131	243,193	121,213
240,772	-0,042	242,918	121,137
241,786	-0,189	242,876	120,986
242,801	-0,176	242,632	120,865
243,815	-0,060	242,565	120,914
244,830	-0,180	242,321	120,685
245,844	-0,094	242,238	120,703
246,859	-0,150	242,125	120,590
247,874	-0,102	241,881	120,496
248,888	0,004	241,703	120,482
249,903	-0,027	241,573	120,382
250,917	-0,083	241,495	120,287
251,932	0,006	241,340	120,271
252,947	-0,036	241,164	120,138
253,961	0,032	241,027	120,114
254,976	-0,111	240,856	119,903
255,990	-0,008	240,705	119,901
257,005	-0,108	240,509	119,712
258,020	-0,251	240,477	119,571
259,034	-0,136	240,105	119,467
260,049	-0,072	239,883	119,397
261,063	-0,208	239,920	119,296
262,078	-0,093	239,739	119,287
263,093	-0,167	239,551	119,124
264,107	-0,249	239,514	119,029
265,122	-0,137	239,196	118,950
266,136	-0,028	239,128	118,993
267,151	0,015	238,950	118,928
268,166	-0,151	238,661	118,641
269,180	-0,071	238,561	118,644
270,195	-0,116	238,318	118,477
271,209	0,014	238,292	118,557
272,224	-0,204	238,231	118,343
273,239	-0,026	238,060	118,389
274,253	-0,238	237,857	118,109
275,268	0,092	237,673	118,269
276,282	-0,138	237,532	118,006
277,297	-0,025	237,199	117,919
278,312	-0,098	237,127	117,816
279,326	-0,110	237,004	117,734
280,341	-0,037	237,029	117,794
281,355	0,100	236,832	117,793
282,370	0,088	236,634	117,675
283,384	-0,164	236,457	117,378
284,399	-0,013	236,406	117,460
285,414	-0,163	236,244	117,252
286,428	-0,139	236,184	117,231
287,443	-0,013	235,954	117,205
288,457	-0,220	235,869	116,990
289,472	-0,014	235,548	116,982
290,487	0,131	235,450	117,036
291,501	0,114	235,301	116,939
292,516	-0,077	235,154	116,706
293,530	-0,042	235,017	116,654
294,545	0,037	235,010	116,703
295,560	0,127	234,743	116,630
296,574	0,068	234,580	116,492
297,589	-0,032	234,457	116,343
298,603	0,178	234,149	116,343
299,618	0,152	234,130	116,302
300,633	0,184	234,018	116,262
301,647	0,285	233,802	116,222
302,662	0,128	233,769	116,073
303,676	0,181	233,493	115,968
304,691	0,283	233,424	116,002
305,706	0,041	233,200	115,693
306,720	0,269	233,037	115,778
307,735	0,028	232,973	115,550
308,749	0,358	232,745	115,681
309,764	0,243	232,758	115,588
310,779	0,189	232,493	115,405
311,793	0,258	232,321	115,362
312,808	0,194	232,246	115,265
313,822	0,130	232,032	115,100
314,837	0,147	231,952	115,063
315,852	0,178	231,794	114,998
316,866	0,406	231,539	115,036
317,881	0,264	231,418	114,857
318,895	0,412	231,179	114,842
319,910	0,275	231,068	114,672
320,925	0,252	231,073	114,647
321,939	0,269	230,845	114,535
322,954	0,324	230,722	114,506
323,968	0,304	230,586	114,413
324,983	0,430	230,393	114,403
325,997	0,286	230,259	114,217
327,012	0,289	230,120	114,140
328,027	0,311	229,955	114,065
329,041	0,362	229,684	113,960
330,056	0,398	229,708	113,988
331,070	0,138	229,666	113,759
332,085	0,380	229,534	113,868
333,100	0,253	229,186	113,589
334,114	0,194	229,066	113,474
335,129	0,245	228,990	113,465
336,143	0,115	228,881	113,303
337,158	0,411	228,800	113,477
338,173	0,232	228,543	113,204
339,187	0,429	228,534	113,338
340,202	0,682	228,196	113,351
341,216	0,511	228,189	113,209
342,231	0,578	227,915	113,113
343,246	0,538	227,756	112,994
344,260	0,519	227,536	112,860
345,275	0,314	227,592	112,724
346,289	0,521	227,377	112,763
347,304	0,466	227,430	112,738
348,319	0,425	227,158	112,562
349,333	0,455	226,960	112,477
350,348	0,503	226,799	112,422
351,362	0,528	226,624	112,344
352,377	0,471	226,540	112,251
353,392	0,366	226,481	112,133
354,406	0,471	226,224	112,074
355,421	192,762	1312,642	1380,638
356,435	154,454	1444,872	1380,502
