DTS Sentinel unit serial number:	SN410029Multiplexer serial number:	ORYXHardware model number:	OX2-SRSoftware version number:	ORYX F/W v4,00 Oryx Data Collector v3.7.2.0data status	okinstallation	B5 Nyhavnadifferential loss correction	single-endedforward channel	channel 2reverse channel	N/Adate	2023/12/11time	20:37:13forward acquisition time	300,00reverse acquisition time	0,00gamma	499,1914k internal	0,3157k external	0,3157temperature offset calibration	1,0000default loss term (dB/km)	0,3820temperature slope calibration	1,0000multiplexer offset coefficient	1,0000multiplexer slope coefficient	1,0000fibre end	0,00T internal ref (°C)	16,02T ext. ref 1 (°C)	0,22T ext. ref 2 (°C)	-0,04length (m)	temperature (°C)	Stokes	anti-Stokes-744,400	71,677	0,110	0,084
-743,385	-79,055	-0,260	-0,065
-742,371	64,996	0,179	0,133
-741,356	-25,146	-0,172	-0,075
-740,342	660,092	0,127	0,242
-739,327	-82,722	-0,209	-0,050
-738,312	93,047	0,051	-0,042
-737,298	-2,133	-0,192	-0,099
-736,283	800,000	0,037	0,094
-735,269	144,406	-0,139	0,137
-734,254	173,369	0,068	-0,072
-733,239	-117,289	-0,543	-0,072
-732,225	39,241	0,036	0,024
-731,210	-200,000	0,003	0,045
-730,196	-93,192	-0,069	-0,014
-729,181	-68,154	-0,164	0,047
-728,167	-200,000	0,002	-0,017
-727,152	19,276	0,134	-0,079
-726,137	-2,950	-0,090	0,046
-725,123	-116,715	-0,039	0,005
-724,108	397,920	-0,063	-0,098
-723,094	-106,049	-0,075	0,012
-722,079	-22,276	-0,061	0,027
-721,064	-71,205	0,095	-0,026
-720,050	-71,992	-0,105	0,029
-719,035	563,842	0,028	-0,050
-718,021	11,757	-0,095	-0,054
-717,006	-200,000	0,024	-0,135
-715,991	59,212	-0,228	-0,165
-714,977	667,094	-0,088	-0,167
-713,962	800,000	-0,030	-0,087
-712,948	-200,000	-0,003	0,063
-711,933	800,000	-0,071	0,147
-710,918	-56,831	0,079	0,026
-709,904	-200,000	-0,002	-0,103
-708,889	-113,592	-0,121	-0,017
-707,875	60,544	-0,040	0,029
-706,860	800,000	-0,028	0,084
-705,845	239,172	-0,098	-0,121
-704,831	-200,000	0,017	-0,126
-703,816	-14,950	-0,124	-0,058
-702,802	-200,000	0,001	-0,106
-701,787	728,734	-0,036	-0,071
-700,772	-200,000	-0,004	0,060
-699,758	274,581	-0,065	0,085
-698,743	-200,000	-0,005	-0,088
-697,729	-200,000	-0,002	-0,040
-696,714	-157,665	-0,028	0,001
-695,699	453,426	-0,031	0,050
-694,685	42,127	-0,053	0,036
-693,670	800,000	-0,044	-0,128
-692,656	-36,417	0,117	0,046
-691,641	-200,000	0,002	0,086
-690,627	-80,067	-0,082	-0,020
-689,612	-33,064	0,133	0,054
-688,597	326,674	0,027	0,038
-687,583	800,000	-0,018	0,055
-686,568	800,000	-0,037	-0,100
-685,554	390,826	0,117	-0,179
-684,539	46,818	0,101	0,069
-683,524	-200,000	0,046	-0,157
-682,510	37,717	0,026	-0,017
-681,495	706,465	-0,012	-0,023
-680,481	-200,000	0,018	-0,103
-679,466	800,000	0,041	-0,118
-678,451	-200,000	0,016	0,100
-677,437	-113,378	-0,070	-0,010
-676,422	230,703	0,027	-0,032
-675,408	-38,395	0,019	0,007
-674,393	-200,000	0,013	0,063
-673,378	-200,000	-0,005	0,055
-672,364	800,000	-0,025	-0,063
-671,349	24,535	0,063	-0,038
-670,335	96,314	0,064	-0,054
-669,320	-80,728	0,060	-0,015
-668,305	-117,009	0,099	0,013
-667,291	-152,626	-0,144	0,007
-666,276	103,713	-0,016	-0,014
-665,262	43,109	-0,066	-0,044
-664,247	800,000	0,041	-0,120
-663,232	235,237	-0,072	-0,088
-662,218	-200,000	-0,016	-0,051
-661,203	704,838	0,078	0,152
-660,189	183,454	-0,064	0,070
-659,174	60,267	0,043	-0,031
-658,159	221,524	0,026	-0,031
-657,145	111,218	0,120	0,106
-656,130	-200,000	0,027	-0,100
-655,116	800,000	-0,003	0,008
-654,101	-113,778	0,037	-0,005
-653,086	55,753	0,093	0,066
-652,072	340,255	-0,081	-0,116
-651,057	-110,959	0,078	-0,012
-650,043	-27,970	-0,090	-0,038
-649,028	89,056	-0,070	-0,057
-648,014	-57,620	0,072	0,023
-646,999	-92,414	0,005	0,001
-645,984	110,046	-0,023	-0,020
-644,970	-100,647	0,063	-0,011
-643,955	60,396	-0,139	-0,101
-642,941	-13,911	0,078	-0,037
-641,926	-169,267	-0,085	-0,002
-640,911	-200,000	-0,012	0,057
-639,897	40,311	0,149	-0,099
-638,882	-102,336	-0,086	0,015
-637,868	-200,000	0,003	0,047
-636,853	134,630	-0,030	0,029
-635,838	239,354	0,061	0,074
-634,824	-200,000	0,026	-0,156
-633,809	800,000	0,066	0,157
-632,795	800,000	0,046	-0,129
-631,780	-34,171	-0,020	-0,008
-630,765	213,348	0,040	0,046
-629,751	59,243	-0,062	0,045
-628,736	351,392	0,081	-0,117
-627,722	-55,084	-0,092	0,030
-626,707	364,024	-0,016	-0,024
-625,692	312,949	0,089	0,123
-624,678	-200,000	-0,006	0,112
-623,663	-78,752	-0,042	0,010
-622,649	661,640	-0,071	-0,136
-621,634	194,180	0,085	-0,094
-620,619	-98,216	-0,054	-0,010
-619,605	137,925	-0,020	-0,019
-618,590	39,639	0,056	0,036
-617,576	800,000	-0,024	-0,058
-616,561	-108,238	-0,100	-0,016
-615,546	92,920	-0,079	0,066
-614,532	689,436	0,039	0,075
-613,517	186,005	-0,061	0,067
-612,503	-200,000	-0,009	-0,109
-611,488	72,401	-0,052	-0,040
-610,474	-200,000	-0,001	0,066
-609,459	-200,000	-0,078	0,000
-608,444	-110,110	-0,118	-0,018
-607,430	-200,000	0,003	-0,040
-606,415	376,939	0,093	-0,140
-605,401	-49,930	0,101	0,035
-604,386	-49,817	-0,083	-0,029
-603,371	800,000	0,032	0,082
-602,357	39,558	-0,019	-0,013
-601,342	800,000	-0,038	0,092
-600,328	-137,162	-0,136	0,011
-599,313	-200,000	0,010	0,153
-598,298	43,162	-0,090	-0,060
-597,284	800,000	0,062	0,160
-596,269	77,225	0,067	-0,052
-595,255	-200,000	0,019	-0,155
-594,240	800,000	-0,057	-0,152
-593,225	16,520	0,027	0,016
-592,211	-200,000	0,016	-0,117
-591,196	-161,224	-0,194	0,007
-590,182	-98,256	0,012	-0,002
-589,167	336,991	-0,079	-0,113
-588,152	-45,154	0,100	0,036
-587,138	-200,000	-0,021	0,103
-586,123	-87,663	0,022	0,005
-585,109	22,740	-0,115	-0,069
-584,094	265,727	0,067	0,085
-583,079	26,351	0,075	-0,046
-582,065	800,000	-0,068	0,175
-581,050	6,298	0,091	0,050
-580,036	-200,000	-0,039	-0,130
-579,021	-44,149	-0,192	-0,070
-578,006	214,785	0,078	-0,091
-576,992	800,000	-0,054	0,156
-575,977	-200,000	0,013	-0,086
-574,963	154,237	-0,035	-0,035
-573,948	-106,727	0,091	0,015
-572,934	165,997	0,068	-0,071
-571,919	-85,548	-0,068	-0,015
-570,904	-64,596	-0,155	-0,046
-569,890	-12,755	0,078	-0,037
-568,875	-16,190	0,026	0,012
-567,861	79,406	-0,095	0,074
-566,846	118,872	0,101	-0,092
-565,831	40,323	-0,059	0,039
-564,817	-180,625	0,090	0,001
-563,802	-169,789	-0,052	-0,001
-562,788	279,675	-0,123	-0,161
-561,773	-156,362	0,105	0,005
-560,758	-58,228	0,143	-0,045
-559,744	17,278	-0,066	0,038
-558,729	-112,981	-0,086	-0,012
-557,715	-13,235	0,115	-0,055
-556,700	228,260	-0,088	-0,105
-555,685	800,000	-0,010	0,025
-554,671	-200,000	0,019	-0,091
-553,656	-129,631	0,189	-0,019
-552,642	-52,679	0,125	-0,042
-551,627	392,221	0,008	0,012
-550,612	-153,006	-0,081	0,004
-549,598	-200,000	0,014	0,100
-548,583	800,000	0,032	-0,082
-547,569	372,613	-0,024	-0,036
-546,554	159,342	0,082	0,083
-545,539	-44,911	0,118	-0,043
-544,525	-200,000	0,002	-0,027
-543,510	-38,816	0,081	-0,031
-542,496	159,536	0,061	-0,063
-541,481	445,983	0,030	-0,049
-540,466	15,479	0,054	0,031
-539,452	99,191	-0,062	0,053
-538,437	-200,000	0,015	-0,091
-537,423	92,146	-0,021	-0,017
-536,408	-113,521	0,107	0,015
-535,393	354,364	-0,037	-0,053
-534,379	173,559	0,021	-0,022
-533,364	-82,029	-0,107	-0,025
-532,350	-110,352	0,144	-0,022
-531,335	183,972	-0,049	-0,053
-530,321	800,000	-0,021	0,052
-529,306	-111,956	0,052	-0,008
-528,291	81,899	-0,085	0,067
-527,277	-200,000	0,051	0,186
-526,262	482,949	-0,019	-0,032
-525,248	-200,000	0,018	-0,058
-524,233	122,724	0,083	-0,075
-523,218	-36,994	-0,072	-0,028
-522,204	110,632	0,083	-0,073
-521,189	-200,000	-0,019	0,098
-520,175	-200,000	-0,000	-0,014
-519,160	-200,000	-0,005	-0,024
-518,145	150,685	-0,066	0,065
-517,131	-200,000	0,001	0,139
-516,116	800,000	-0,030	0,072
-515,102	-200,000	-0,011	0,073
-514,087	800,000	-0,038	-0,085
-513,072	-200,000	-0,002	0,070
-512,058	800,000	0,051	0,124
-511,043	-88,800	0,082	0,018
-510,029	-10,670	-0,084	0,041
-509,014	207,960	0,092	0,105
-507,999	3,722	0,105	0,056
-506,985	327,329	0,057	0,080
-505,970	259,500	0,103	0,130
-504,956	-121,935	-0,088	-0,010
-503,941	-142,942	0,025	-0,002
-502,926	800,000	0,022	0,057
-501,912	15,988	0,093	0,053
-500,897	262,174	-0,165	0,210
-499,883	-200,000	-0,029	-0,143
-498,868	-200,000	-0,021	-0,069
-497,853	-161,987	-0,066	0,002
-496,839	-200,000	0,012	-0,043
-495,824	-200,000	-0,023	0,130
-494,810	-0,824	0,037	-0,019
-493,795	214,987	0,056	0,064
-492,781	-149,483	-0,067	-0,004
-491,766	47,292	0,160	0,109
-490,751	305,241	-0,105	-0,143
-489,737	-25,522	-0,103	0,044
-488,722	-94,122	0,120	-0,024
-487,708	-200,000	-0,011	0,124
-486,693	163,800	-0,030	0,031
-485,678	659,992	-0,036	-0,067
-484,664	15,643	-0,061	-0,035
-483,649	-70,101	0,018	0,005
-482,635	255,622	-0,061	0,076
-481,620	-152,164	0,106	-0,005
-480,605	178,822	0,017	0,018
-479,591	394,048	-0,048	-0,072
-478,576	488,183	0,088	0,148
-477,562	-16,751	-0,119	-0,055
-476,547	-141,025	-0,024	-0,002
-475,532	368,905	0,029	-0,043
-474,518	240,109	-0,050	0,061
-473,503	-152,735	0,017	0,001
-472,489	274,892	-0,119	-0,155
-471,474	-200,000	-0,013	0,104
-470,459	167,837	-0,013	0,014
-469,445	-4,862	-0,087	-0,043
-468,430	800,000	-0,054	-0,122
-467,416	274,523	0,095	0,123
-466,401	46,565	0,018	0,012
-465,386	467,121	0,050	0,081
-464,372	800,000	-0,040	-0,090
-463,357	517,235	-0,049	0,083
-462,343	-169,919	-0,099	-0,003
-461,328	-200,000	0,006	0,097
-460,313	201,284	0,087	0,098
-459,299	356,594	0,035	-0,051
-458,284	-45,068	0,077	0,028
-457,270	-200,000	-0,033	-0,111
-456,255	584,506	-0,042	0,075
-455,241	461,603	-0,010	0,016
-454,226	-200,000	-0,005	0,046
-453,211	-178,384	-0,044	-0,001
-452,197	264,630	0,020	-0,026
-451,182	-41,712	-0,018	0,007
-450,168	-76,507	0,087	0,022
-449,153	-63,869	-0,126	0,037
-448,138	79,121	-0,091	-0,071
-447,124	-200,000	0,002	0,059
-446,109	207,838	0,085	-0,097
-445,095	137,561	-0,125	0,119
-444,080	-57,365	0,060	-0,019
-443,065	91,367	-0,055	0,045
-442,051	-116,173	-0,080	0,011
-441,036	202,215	-0,052	0,058
-440,022	-200,000	0,004	-0,103
-439,007	24,102	-0,027	0,016
-437,992	800,000	0,092	0,213
-436,978	-118,078	-0,044	-0,006
-435,963	-200,000	0,023	0,102
-434,949	-115,481	-0,042	0,006
-433,934	-94,719	-0,126	-0,025
-432,919	-200,000	-0,031	-0,224
-431,905	800,000	-0,023	-0,064
-430,890	107,661	-0,093	-0,080
-429,876	800,000	0,035	0,083
-428,861	421,556	-0,072	0,113
-427,846	184,526	0,057	-0,061
-426,832	-200,000	-0,019	-0,065
-425,817	594,808	0,026	0,048
-424,803	-200,000	-0,063	-0,284
-423,788	-110,785	-0,082	-0,012
-422,773	203,701	0,050	-0,057
-421,759	24,610	0,039	-0,024
-420,744	800,000	0,024	-0,076
-419,730	144,329	-0,119	-0,116
-418,715	-46,905	0,127	-0,045
-417,701	800,000	-0,046	-0,100
-416,686	800,000	-0,030	-0,067
-415,671	800,000	-0,009	0,027
-414,657	164,599	0,040	0,041
-413,642	-19,380	0,127	0,057
-412,628	-40,332	-0,007	-0,003
-411,613	-10,861	-0,153	-0,073
-410,598	-59,950	0,065	0,020
-409,584	3,953	0,125	0,066
-408,569	-36,240	0,039	-0,015
-407,555	-79,683	0,171	-0,042
-406,540	351,015	0,053	0,076
-405,525	-3,189	0,111	-0,056
-404,511	-200,000	-0,036	-0,166
-403,496	-200,000	-0,005	-0,067
-402,482	-200,000	-0,028	-0,134
-401,467	79,142	0,082	0,064
-400,452	164,933	0,100	-0,103
-399,438	-151,711	0,058	-0,003
-398,423	-200,000	0,008	-0,065
-397,409	191,321	-0,030	0,033
-396,394	-122,705	0,038	-0,004
-395,379	-149,721	0,107	0,006
-394,365	-200,000	-0,021	0,101
-393,350	-8,103	-0,024	-0,012
-392,336	-4,683	0,088	0,044
-391,321	138,748	0,103	0,099
-390,306	800,000	0,022	0,067
-389,292	210,708	-0,092	0,105
-388,277	-25,880	0,057	0,024
-387,263	152,133	-0,062	0,061
-386,248	697,160	0,021	0,041
-385,233	42,573	-0,168	0,111
-384,219	-200,000	0,009	0,067
-383,204	59,833	-0,133	-0,095
-382,190	-67,727	-0,053	0,015
-381,175	0,645	-0,095	0,049
-380,160	404,708	0,030	-0,046
-379,146	151,398	0,039	0,039
-378,131	800,000	-0,026	0,067
-377,117	63,927	-0,051	0,037
-376,102	800,000	-0,019	-0,057
-375,088	-20,157	0,025	-0,011
-374,073	109,475	-0,093	0,081
-373,058	528,276	0,078	-0,135
-372,044	-200,000	-0,016	0,107
-371,029	580,253	0,048	-0,085
-370,015	-200,000	0,007	-0,168
-369,000	800,000	0,071	0,166
-367,985	-200,000	0,004	0,025
-366,971	-81,536	-0,034	-0,008
-365,956	-200,000	-0,009	-0,136
-364,942	66,318	0,084	-0,062
-363,927	44,510	0,063	-0,042
-362,912	206,683	0,035	-0,040
-361,898	94,543	-0,017	0,014
-360,883	-61,662	-0,115	-0,035
-359,869	238,375	0,033	-0,039
-358,854	331,824	0,032	-0,045
-357,839	-117,884	0,091	0,012
-356,825	197,892	0,052	0,058
-355,810	93,982	-0,078	0,064
-354,796	-84,175	-0,075	0,017
-353,781	181,450	0,011	-0,011
-352,766	-200,000	0,008	-0,089
-351,752	-200,000	0,010	-0,069
-350,737	-200,000	0,039	0,210
-349,723	-71,786	0,138	0,037
-348,708	-68,722	-0,086	-0,024
-347,693	168,358	-0,062	-0,064
-346,679	-79,126	-0,153	-0,038
-345,664	-1,189	-0,061	-0,031
-344,650	-200,000	-0,001	-0,011
-343,635	-179,633	0,034	-0,001
-342,620	19,042	0,159	-0,092
-341,606	-74,574	-0,130	-0,034
-340,591	-122,723	-0,061	0,007
-339,577	263,063	0,021	-0,026
-338,562	-200,000	0,002	0,022
-337,548	485,578	0,039	0,065
-336,533	681,272	0,041	-0,077
-335,518	12,631	-0,023	-0,013
-334,504	80,853	-0,022	0,017
-333,489	266,565	0,041	-0,052
-332,475	-200,000	0,002	-0,085
-331,460	83,435	-0,108	-0,085
-330,445	800,000	-0,035	-0,079
-329,431	-54,833	0,081	0,026
-328,416	-47,347	0,044	0,016
-327,402	800,000	0,049	0,113
-326,387	-30,211	0,142	0,058
-325,372	245,044	-0,089	-0,109
-324,358	-63,110	-0,154	-0,046
-323,343	800,000	-0,055	-0,111
-322,329	-140,181	0,089	0,007
-321,314	-21,432	0,132	0,058
-320,299	-55,539	0,028	-0,009
-319,285	-125,792	-0,076	0,008
-318,270	-100,004	-0,115	-0,021
-317,256	800,000	-0,030	0,061
-316,241	800,000	-0,041	0,089
-315,226	-200,000	-0,006	0,042
-314,212	800,000	-0,045	0,111
-313,197	-200,000	-0,018	0,133
-312,183	-102,751	0,057	0,010
-311,168	24,930	-0,059	-0,036
-310,153	38,844	0,087	0,056
-309,139	10,553	0,079	-0,044
-308,124	-53,752	-0,113	-0,037
-307,110	-200,000	0,002	-0,048
-306,095	800,000	0,042	0,103
-305,080	250,558	-0,036	-0,044
-304,066	-200,000	0,026	-0,154
-303,051	66,767	0,056	0,041
-302,037	-113,632	-0,077	-0,011
-301,022	800,000	0,031	-0,062
-300,008	17,807	0,027	0,016
-298,993	800,000	0,080	0,200
-297,978	-200,000	0,008	0,179
-296,964	-200,000	0,009	-0,132
-295,949	167,852	-0,091	-0,094
-294,935	-40,841	0,086	-0,032
-293,920	279,585	0,059	-0,077
-292,905	-102,931	-0,069	0,012
-291,891	0,789	0,086	0,044
-290,876	168,808	0,093	0,096
-289,862	800,000	-0,070	-0,146
-288,847	-10,076	-0,049	0,024
-287,832	800,000	0,046	-0,093
-286,818	178,265	-0,048	-0,051
-285,803	83,075	-0,053	-0,042
-284,789	-23,589	-0,140	-0,061
-283,774	-200,000	0,079	0,266
-282,759	31,108	-0,076	-0,047
-281,745	-82,863	-0,136	-0,031
-280,730	-200,000	-0,024	-0,084
-279,716	56,091	0,111	-0,078
-278,701	43,540	0,104	0,069
-277,686	-200,000	0,036	-0,125
-276,672	588,463	-0,014	0,025
-275,657	-200,000	0,004	0,044
-274,643	800,000	0,068	-0,138
-273,628	-148,118	0,068	-0,004
-272,613	-200,000	-0,003	0,117
-271,599	695,316	0,020	0,038
-270,584	800,000	-0,048	0,148
-269,570	-35,626	0,233	-0,091
-268,555	81,461	-0,088	-0,069
-267,540	-25,228	-0,064	0,027
-266,526	800,000	-0,068	-0,174
-265,511	-98,760	-0,076	0,014
-264,497	142,381	0,028	-0,027
-263,482	-200,000	0,003	0,095
-262,467	166,475	0,066	0,068
-261,453	28,652	0,055	-0,034
-260,438	211,067	0,074	-0,085
-259,424	-57,021	0,027	0,009
-258,409	-61,439	0,203	-0,061
-257,395	123,104	-0,055	-0,050
-256,380	-200,000	0,006	0,066
-255,365	-82,844	0,096	-0,022
-254,351	-161,577	-0,047	-0,002
-253,336	-132,367	-0,088	-0,008
-252,322	180,982	-0,118	-0,126
-251,307	800,000	-0,074	-0,176
-250,292	207,761	-0,120	0,135
-249,278	420,680	-0,080	-0,125
-248,263	10,905	-0,018	0,010
-247,249	17,607	-0,117	-0,067
-246,234	477,308	0,034	-0,056
-245,219	800,000	-0,051	-0,108
-244,205	800,000	-0,036	-0,074
-243,190	800,000	-0,028	-0,061
-242,176	118,063	0,108	-0,097
-241,161	-111,598	-0,037	0,005
-240,146	168,808	-0,038	0,039
-239,132	-34,863	0,050	-0,020
-238,117	-138,927	-0,087	0,007
-237,103	681,341	0,060	-0,113
-236,088	80,665	0,053	0,041
-235,073	-200,000	-0,017	0,083
-234,059	72,409	0,067	0,050
-233,044	-101,588	0,126	0,022
-232,030	-89,145	-0,127	0,027
-231,015	-8,223	-0,086	-0,042
-230,000	262,515	-0,060	-0,076
-228,986	-43,841	-0,149	0,054
-227,971	317,806	0,091	-0,125
-226,957	-200,000	-0,024	0,084
-225,942	-200,000	0,014	0,185
-224,927	174,023	-0,055	0,058
-223,913	800,000	-0,022	0,064
-222,898	11,116	-0,058	-0,032
-221,884	198,622	-0,065	0,072
-220,869	-77,432	0,093	-0,023
-219,855	250,594	0,193	0,238
-218,840	-200,000	0,000	0,109
-217,825	343,915	0,061	0,087
-216,811	567,043	-0,047	-0,083
-215,796	-55,877	0,089	-0,028
-214,782	285,917	0,046	-0,061
-213,767	314,053	0,049	-0,067
-212,752	-117,751	-0,129	0,017
-211,738	225,689	0,081	0,095
-210,723	-200,000	-0,012	0,194
-209,709	88,924	-0,113	-0,090
-208,694	800,000	0,071	-0,186
-207,679	-200,000	-0,022	0,129
-206,665	432,050	0,037	0,059
-205,650	-200,000	0,011	0,120
-204,636	446,170	-0,048	0,076
-203,621	57,314	-0,020	0,014
-202,606	208,773	-0,079	-0,090
-201,592	800,000	-0,077	-0,225
-200,577	456,156	0,098	-0,157
-199,563	289,563	-0,052	-0,069
-198,548	800,000	-0,004	-0,008
-197,533	-56,966	-0,029	-0,009
-196,519	96,931	0,082	0,068
-195,504	800,000	-0,079	-0,238
-194,490	15,941	-0,140	0,080
-193,475	-145,149	-0,191	0,012
-192,460	610,450	0,024	0,043
-191,446	-200,000	0,003	0,092
-190,431	-200,000	-0,014	0,081
-189,417	800,000	0,054	0,110
-188,402	-200,000	-0,014	0,167
-187,387	83,523	-0,095	0,074
-186,373	420,977	0,063	-0,098
-185,358	381,257	0,047	0,070
-184,344	-187,158	0,071	-0,001
-183,329	15,265	0,024	-0,014
-182,315	-200,000	0,001	0,133
-181,300	800,000	-0,014	-0,039
-180,285	-79,476	0,076	-0,018
-179,271	-200,000	-0,039	0,166
-178,256	-200,000	0,002	0,022
-177,242	-200,000	-0,005	-0,026
-176,227	800,000	0,032	-0,085
-175,212	-35,305	0,092	0,036
-174,198	233,529	-0,102	-0,121
-173,183	800,000	-0,012	-0,028
-172,169	-200,000	-0,010	0,078
-171,154	107,425	0,120	0,103
-170,139	-84,143	0,112	0,025
-169,125	-0,171	0,068	0,035
-168,110	800,000	0,071	0,157
-167,096	-200,000	0,001	-0,012
-166,081	800,000	0,037	0,111
-165,066	-20,526	-0,093	-0,041
-164,052	-75,536	0,105	0,027
-163,037	264,684	0,123	-0,154
-162,023	-200,000	-0,036	0,161
-161,008	13,634	0,075	-0,042
-159,993	800,000	0,054	0,147
-158,979	800,000	0,029	-0,088
-157,964	108,113	-0,065	-0,056
-156,950	54,829	-0,156	0,108
-155,935	-99,416	0,085	-0,015
-154,920	-51,083	0,113	0,038
-153,906	800,000	-0,063	0,133
-152,891	-49,304	0,105	0,036
-151,877	-200,000	0,032	0,104
-150,862	201,069	0,012	0,013
-149,847	800,000	-0,003	0,007
-148,833	51,836	0,113	-0,078
-147,818	-200,000	0,017	0,064
-146,804	800,000	-0,022	-0,051
-145,789	63,300	0,051	0,036
-144,775	-200,000	-0,000	-0,151
-143,760	-200,000	-0,124	-0,000
-142,745	800,000	0,012	-0,030
-141,731	144,339	-0,109	-0,105
-140,716	67,915	-0,038	0,028
-139,702	-84,032	0,055	-0,012
-138,687	22,925	0,082	-0,048
-137,672	211,786	0,096	-0,110
-136,658	-200,000	-0,025	-0,150
-135,643	-111,043	-0,022	0,003
-134,629	554,785	-0,011	-0,020
-133,614	-49,074	-0,036	-0,012
-132,599	-34,183	0,028	0,011
-131,585	-4,998	-0,038	-0,019
-130,570	-85,163	0,058	0,013
-129,556	800,000	0,073	-0,213
-128,541	-200,000	-0,022	-0,123
-127,526	800,000	-0,048	-0,111
-126,512	431,434	0,047	0,073
-125,497	10,935	0,131	0,072
-124,483	800,000	-0,012	-0,035
-123,468	-200,000	0,026	-0,140
-122,453	-126,785	0,050	0,005
-121,439	-101,963	0,026	0,004
-120,424	772,853	-0,037	0,073
-119,410	67,332	0,094	-0,069
-118,395	110,098	0,038	0,033
-117,380	131,027	0,152	0,141
-116,366	-102,194	0,046	0,008
-115,351	-105,357	-0,075	-0,012
-114,337	4,376	-0,110	0,058
-113,322	87,595	0,106	0,084
-112,307	-125,505	-0,068	-0,007
-111,293	107,918	0,105	0,090
-110,278	-200,000	0,010	0,150
-109,264	800,000	-0,024	-0,057
-108,249	-200,000	-0,046	-0,149
-107,234	539,921	0,054	0,092
-106,220	144,565	-0,034	-0,032
-105,205	726,006	-0,037	-0,072
-104,191	328,822	0,020	-0,027
-103,176	63,314	0,143	0,103
-102,162	209,261	-0,079	0,089
-101,147	66,865	0,079	-0,058
-100,132	129,655	-0,045	0,042
-99,118	-70,021	-0,056	-0,015
-98,103	-200,000	-0,038	0,156
-97,089	800,000	0,010	-0,024
-96,074	454,063	0,033	0,053
-95,059	-147,593	0,061	0,004
-94,045	-200,000	0,001	-0,112
-93,030	382,206	-0,014	-0,021
-92,016	-200,000	0,004	-0,039
-91,001	728,270	0,032	0,062
-89,986	287,929	0,055	0,072
-88,972	346,901	0,035	0,050
-87,957	-137,308	0,084	-0,007
-86,943	395,548	-0,068	-0,103
-85,928	-158,324	0,081	-0,003
-84,913	-129,112	-0,118	0,012
-83,899	-119,055	0,007	-0,001
-82,884	797,460	-0,015	-0,030
-81,870	800,000	0,026	-0,054
-80,855	800,000	0,049	-0,099
-79,840	-200,000	0,014	-0,057
-78,826	800,000	-0,044	-0,121
-77,811	-24,060	-0,187	0,080
-76,797	74,825	-0,047	-0,036
-75,782	310,564	0,029	0,039
-74,767	-200,000	-0,001	-0,008
-73,753	302,460	0,059	0,078
-72,738	165,550	-0,104	0,106
-71,724	-85,528	-0,118	-0,026
-70,709	-200,000	-0,012	-0,070
-69,694	800,000	0,049	-0,114
-68,680	758,385	0,027	0,054
-67,665	1,188	0,061	-0,031
-66,651	-44,290	0,118	0,042
-65,636	-200,000	-0,009	0,080
-64,622	77,205	-0,097	0,074
-63,607	-200,000	0,018	-0,094
-62,592	2,248	0,061	-0,031
-61,578	14,723	-0,060	-0,034
-60,563	-200,000	-0,003	-0,023
-59,549	-28,767	0,088	-0,036
-58,534	-29,181	-1,822	-0,746
-57,519	800,000	-0,407	-0,963
-56,505	-200,000	-1,225	-4,898
-55,490	19,851	0,731	0,422
-54,476	800,000	5,332	12,196
-53,461	-200,000	17,069	282,585
-52,446	800,000	721,610	2226,403
-51,432	544,026	1637,576	2816,848
-50,417	112,503	1631,039	1416,300
-49,403	76,341	1286,949	977,389
-48,388	33,023	1029,427	638,735
-47,373	20,299	991,125	572,972
-46,359	18,822	979,373	561,307
-45,344	16,296	975,496	550,782
-44,330	16,513	973,892	550,567
-43,315	16,114	972,078	548,213
-42,300	16,082	971,170	547,576
-41,286	16,042	970,044	546,787
-40,271	16,053	969,065	546,250
-39,257	16,060	968,043	545,673
-38,242	16,053	967,299	545,210
-37,227	16,115	966,439	544,908
-36,213	16,049	965,642	544,219
-35,198	16,035	964,796	543,677
-34,184	16,055	964,051	543,300
-33,169	16,001	962,938	542,478
-32,154	16,127	962,008	542,340
-31,140	15,993	961,281	541,474
-30,125	16,087	960,402	541,263
-29,111	16,061	959,577	540,690
-28,096	16,106	958,895	540,430
-27,082	16,134	958,249	540,134
-26,067	16,073	957,454	539,469
-25,052	16,081	956,939	539,182
-24,038	16,113	956,030	538,754
-23,023	15,968	955,515	537,974
-22,009	16,058	954,766	537,821
-20,994	16,133	954,120	537,675
-19,979	16,098	953,479	537,180
-18,965	16,022	952,991	536,641
-17,950	16,082	952,269	536,407
-16,936	15,970	951,815	535,770
-15,921	16,009	951,011	535,423
-14,906	15,906	950,265	534,653
-13,892	15,982	949,606	534,503
-12,877	15,908	948,939	533,870
-11,863	15,946	948,301	533,610
-10,848	15,883	947,976	533,205
-9,833	16,033	947,438	533,360
-8,819	15,990	946,663	532,764
-7,804	15,958	946,101	532,324
-6,790	15,916	945,572	531,873
-5,775	16,000	944,869	531,725
-4,760	15,932	944,239	531,131
-3,746	15,948	943,802	530,917
-2,731	15,774	943,174	529,992
-1,717	15,780	942,440	529,576
-0,702	15,792	941,704	529,180
0,313	15,596	941,078	529,006
1,327	18,708	938,931	537,573
2,342	27,537	796,707	479,593
3,356	24,364	460,854	272,527
4,371	-2,465	315,322	157,884
5,386	-6,568	297,018	144,544
6,400	-8,347	291,047	139,855
7,415	-8,791	288,478	138,170
8,429	-9,103	286,823	137,059
9,444	-9,201	286,158	136,632
10,459	-9,152	285,288	136,253
11,473	-9,180	284,859	136,010
12,488	-9,035	284,274	135,858
13,502	-9,209	283,811	135,456
14,517	-9,106	283,439	135,367
15,531	-9,178	282,855	135,006
16,546	-9,283	282,529	134,737
17,561	-9,107	281,908	134,598
18,575	-9,197	281,603	134,354
19,590	-9,362	281,416	134,095
20,604	-9,171	280,995	134,064
21,619	-9,262	280,748	133,848
22,634	-9,228	280,337	133,673
23,648	-9,411	280,176	133,409
24,663	-9,327	279,971	133,380
25,677	-9,340	279,567	133,163
26,692	-9,389	279,314	132,984
27,707	-9,132	278,964	133,050
28,721	-9,334	278,762	132,749
29,736	-9,143	278,405	132,749
30,750	-9,222	278,073	132,504
31,765	-9,264	277,816	132,331
32,780	-9,483	277,739	132,074
33,794	-9,334	277,322	132,005
34,809	-9,284	277,125	131,947
35,823	-9,324	276,910	131,794
36,838	-9,321	276,558	131,618
37,853	-9,381	276,424	131,486
38,867	-9,307	276,242	131,458
39,882	-9,439	276,004	131,208
40,896	-9,168	275,665	131,290
41,911	-9,363	275,330	130,936
42,926	-9,341	275,096	130,833
43,940	-9,369	274,925	130,714
44,955	-9,506	274,758	130,495
45,969	-9,527	274,384	130,286
46,984	-9,504	274,087	130,155
47,999	-9,585	273,871	129,965
49,013	-9,889	273,670	129,574
50,028	-9,885	273,462	129,468
51,042	-10,048	273,014	129,093
52,057	-10,044	273,019	129,088
53,071	-10,082	272,683	128,882
54,086	-9,882	272,696	129,062
55,101	-9,960	272,530	128,900
56,115	-9,632	272,248	129,059
57,130	-9,306	272,111	129,285
58,144	-9,075	271,831	129,354
59,159	-8,985	271,520	129,277
60,174	-9,175	271,536	129,098
61,188	-9,158	271,368	129,023
62,203	-9,137	271,061	128,884
63,217	-9,178	270,774	128,699
64,232	-9,167	270,586	128,608
65,247	-9,111	270,363	128,542
66,261	-9,125	270,024	128,356
67,276	-9,338	269,865	128,073
68,290	-9,539	269,585	127,745
69,305	-9,548	269,424	127,649
70,320	-9,729	269,244	127,387
71,334	-9,384	269,007	127,579
72,349	-9,224	268,848	127,638
73,363	-9,209	268,661	127,552
74,378	-8,989	268,341	127,590
75,393	-9,023	268,198	127,479
76,407	-9,295	267,937	127,096
77,422	-9,206	267,736	127,070
78,436	-9,085	267,459	127,038
79,451	-9,156	267,386	126,927
80,466	-9,307	267,073	126,630
81,480	-9,351	266,839	126,468
82,495	-9,379	266,548	126,293
83,509	-9,261	266,356	126,298
84,524	-9,488	266,185	126,000
85,539	-9,493	265,927	125,862
86,553	-9,612	265,869	125,716
87,568	-9,491	265,653	125,712
88,582	-9,403	265,277	125,602
89,597	-9,410	265,030	125,468
90,611	-9,372	264,996	125,475
91,626	-9,233	264,846	125,518
92,641	-9,240	264,529	125,350
93,655	-9,202	264,438	125,329
94,670	-9,182	264,166	125,207
95,684	-9,309	263,984	124,996
96,699	-9,284	263,891	124,964
97,714	-9,324	263,647	124,801
98,728	-9,553	263,308	124,425
99,743	-9,545	263,059	124,303
100,757	-9,589	262,861	124,159
101,772	-9,416	262,549	124,155
102,787	-9,249	262,555	124,295
103,801	-9,235	262,276	124,165
104,816	-9,156	262,227	124,200
105,830	-9,218	262,156	124,101
106,845	-9,117	261,814	124,018
107,860	-9,140	261,649	123,908
108,874	-9,209	261,445	123,739
109,889	-9,301	261,299	123,577
110,903	-9,140	260,951	123,544
111,918	-9,396	260,809	123,239
112,933	-9,171	260,574	123,316
113,947	-9,207	260,551	123,263
114,962	-9,174	260,222	123,126
115,976	-9,225	260,098	123,011
116,991	-9,252	259,941	122,902
118,006	-9,140	259,702	122,876
119,020	-9,243	259,693	122,770
120,035	-9,180	259,285	122,622
121,049	-9,269	259,262	122,522
122,064	-9,157	259,069	122,518
123,079	-9,267	258,929	122,344
124,093	-9,215	258,588	122,218
125,108	-9,359	258,343	121,966
126,122	-9,489	258,080	121,717
127,137	-9,620	257,804	121,462
128,151	-9,723	257,781	121,350
129,166	-9,265	257,442	121,578
130,181	-9,422	257,332	121,379
131,195	-9,568	257,131	121,147
132,210	-9,420	257,190	121,292
133,224	-9,133	256,733	121,315
134,239	-9,119	256,675	121,289
135,254	-9,133	256,453	121,161
136,268	-9,159	256,249	121,032
137,283	-9,630	256,059	120,523
138,297	-9,691	255,838	120,355
139,312	-9,733	255,667	120,227
140,327	-9,375	255,443	120,422
141,341	-9,154	255,544	120,649
142,356	-9,336	255,267	120,351
143,370	-8,894	255,139	120,660
144,385	-8,895	254,948	120,558
145,400	-8,961	254,628	120,340
146,414	-9,056	254,411	120,145
147,429	-9,039	254,307	120,099
148,443	-8,961	254,068	120,043
149,458	-9,053	254,011	119,926
150,473	-9,023	253,745	119,816
151,487	-9,091	253,535	119,647
152,502	-9,191	253,433	119,503
153,516	-9,063	253,322	119,550
154,531	-9,032	253,117	119,469
155,546	-9,131	252,872	119,258
156,560	-9,050	252,633	119,204
157,575	-8,968	252,296	119,104
158,589	-9,001	252,307	119,070
159,604	-9,000	252,222	119,021
160,619	-8,900	251,737	118,866
161,633	-8,956	251,763	118,820
162,648	-9,071	251,632	118,650
163,662	-9,018	251,429	118,589
164,677	-8,852	251,244	118,632
165,692	-8,955	251,201	118,514
166,706	-8,689	250,962	118,616
167,721	-8,941	250,729	118,282
168,735	-9,159	250,777	118,109
169,750	-8,971	250,546	118,149
170,764	-9,091	250,517	118,023
171,779	-8,953	250,266	118,011
172,794	-8,932	250,015	117,900
173,808	-8,817	249,767	117,869
174,823	-9,392	249,565	117,279
175,837	-9,662	249,356	116,944
176,852	-9,196	249,317	117,307
177,867	-8,873	249,060	117,447
178,881	-9,004	249,021	117,308
179,896	-8,859	248,765	117,298
180,910	-8,854	248,687	117,255
181,925	-9,141	248,480	116,906
182,940	-8,846	248,288	117,052
183,954	-8,924	248,059	116,869
184,969	-8,932	247,881	116,768
185,983	-8,887	247,788	116,752
186,998	-8,923	247,681	116,661
188,013	-8,868	247,422	116,574
189,027	-9,001	247,321	116,405
190,042	-8,915	247,091	116,358
191,056	-8,742	246,914	116,408
192,071	-8,797	246,883	116,338
193,086	-8,842	246,562	116,138
194,100	-8,767	246,462	116,143
195,115	-8,667	246,230	116,106
196,129	-8,677	245,938	115,950
197,144	-8,934	245,891	115,705
198,159	-8,773	245,713	115,744
199,173	-8,869	245,509	115,558
200,188	-8,899	245,302	115,426
201,202	-9,096	245,000	115,111
202,217	-9,376	244,773	114,764
203,232	-9,443	244,500	114,571
204,246	-8,962	244,541	114,975
205,261	-8,350	244,537	115,466
206,275	-8,851	244,458	115,007
207,290	-5,902	245,470	117,904
208,304	-1,015	246,888	122,620
209,319	1,317	247,459	124,823
210,334	1,772	247,480	125,199
211,348	2,050	247,491	125,423
212,363	2,409	247,432	125,678
213,377	2,556	247,503	125,824
214,392	2,754	247,157	125,801
215,407	2,419	246,988	125,427
216,421	2,693	246,743	125,518
217,436	2,900	246,680	125,645
218,450	2,591	246,604	125,340
219,465	2,376	246,293	124,994
220,480	2,152	246,193	124,749
221,494	2,562	246,118	125,036
222,509	2,643	245,969	125,016
223,523	2,851	245,619	124,997
224,538	1,968	245,319	124,111
225,553	2,204	245,171	124,218
226,567	2,309	245,167	124,290
227,582	2,328	245,121	124,272
228,596	2,424	244,860	124,206
229,611	2,303	244,552	123,941
230,626	2,258	244,455	123,844
231,640	2,200	244,376	123,745
232,655	2,557	244,123	123,897
233,669	2,267	244,005	123,590
234,684	2,158	243,802	123,388
235,699	2,739	243,856	123,877
236,713	2,770	243,481	123,700
237,728	2,490	243,302	123,371
238,742	2,314	243,131	123,130
239,757	2,392	243,028	123,130
240,772	2,319	242,743	122,916
241,786	2,303	242,734	122,888
242,801	2,123	242,483	122,604
243,815	2,032	242,294	122,424
244,830	2,391	242,290	122,702
245,844	2,457	242,021	122,607
246,859	2,477	241,972	122,588
247,874	2,384	241,726	122,377
248,888	2,275	241,582	122,206
249,903	2,542	241,479	122,357
250,917	2,727	241,379	122,444
251,932	2,933	241,169	122,492
252,947	2,610	240,957	122,114
253,961	2,254	240,792	121,734
254,976	2,341	240,806	121,801
255,990	2,671	240,552	121,926
257,005	2,135	240,283	121,350
258,020	1,949	240,080	121,088
259,034	2,304	240,170	121,406
260,049	2,399	239,915	121,342
261,063	2,321	239,754	121,187
262,078	2,097	239,655	120,949
263,093	2,313	239,502	121,033
264,107	2,478	239,374	121,088
265,122	2,467	239,147	120,953
266,136	2,478	239,010	120,883
267,151	2,662	238,872	120,948
268,166	2,199	238,635	120,450
269,180	2,012	238,478	120,212
270,195	2,945	238,430	120,916
271,209	2,974	238,295	120,860
272,224	2,267	238,186	120,234
273,239	2,138	237,794	119,924
274,253	2,297	237,619	119,950
275,268	2,332	237,599	119,958
276,282	2,399	237,595	119,998
277,297	2,185	237,336	119,688
278,312	2,352	237,140	119,709
279,326	2,205	237,204	119,615
280,341	2,445	236,946	119,663
281,355	2,394	236,719	119,498
282,370	2,661	236,789	119,732
283,384	2,437	236,412	119,355
284,399	2,335	236,147	119,131
285,414	1,930	236,095	118,776
286,428	2,223	235,887	118,891
287,443	2,610	235,675	119,076
288,457	2,614	235,734	119,098
289,472	2,764	235,480	119,077
290,487	2,594	235,337	118,861
291,501	2,225	235,020	118,402
292,516	1,915	234,927	118,104
293,530	1,976	234,892	118,123
294,545	2,351	234,835	118,375
295,560	2,212	234,639	118,158
296,574	2,139	234,417	117,979
297,589	2,185	234,208	117,899
298,603	2,512	234,254	118,165
299,618	2,608	234,106	118,155
300,633	2,467	234,009	117,986
301,647	2,498	233,842	117,915
302,662	2,916	233,659	118,136
303,676	3,037	233,583	118,181
304,691	2,828	233,371	117,901
305,706	2,925	233,166	117,862
306,720	2,913	233,118	117,818
307,735	2,698	232,965	117,565
308,749	2,637	232,703	117,375
309,764	2,235	232,537	116,971
310,779	2,245	232,162	116,779
311,793	2,005	232,045	116,526
312,808	1,986	232,012	116,484
313,822	2,096	231,717	116,410
314,837	2,011	231,757	116,355
315,852	2,069	231,555	116,287
316,866	2,436	231,318	116,439
317,881	2,640	231,371	116,612
318,895	2,928	231,234	116,752
319,910	2,864	231,249	116,701
320,925	2,691	230,922	116,393
321,939	2,356	230,832	116,082
322,954	2,490	230,717	116,115
323,968	2,521	230,580	116,060
324,983	2,582	230,371	115,991
325,997	2,743	230,288	116,061
327,012	2,389	230,117	115,695
328,027	2,308	229,736	115,432
329,041	2,216	229,712	115,340
330,056	2,778	229,882	115,842
331,070	3,383	229,737	116,218
332,085	2,988	229,429	115,752
333,100	2,814	229,156	115,472
334,114	2,704	228,991	115,295
335,129	2,723	228,935	115,272
336,143	2,847	228,766	115,270
337,158	2,915	228,762	115,309
338,173	2,896	228,548	115,176
339,187	2,801	228,252	114,945
340,202	2,794	228,226	114,917
341,216	2,778	228,139	114,851
342,231	2,555	227,980	114,593
343,246	2,639	227,713	114,511
344,260	2,850	227,619	114,612
345,275	2,996	227,554	114,679
346,289	3,010	227,504	114,654
347,304	3,013	227,270	114,528
348,319	2,941	227,123	114,390
349,333	2,809	226,836	114,136
350,348	2,669	226,608	113,907
351,362	2,789	226,642	114,004
352,377	2,656	226,457	113,801
353,392	2,626	226,190	113,634
354,406	2,857	226,062	113,732
355,421	195,228	1321,822	1397,647
356,435	156,478	1455,334	1397,656
