DTS Sentinel unit serial number:	SN410029Multiplexer serial number:	ORYXHardware model number:	OX2-SRSoftware version number:	ORYX F/W v4,00 Oryx Data Collector v3.7.2.0data status	okinstallation	B5 Nyhavnadifferential loss correction	single-endedforward channel	channel 2reverse channel	N/Adate	2023/12/14time	06:47:13forward acquisition time	300,00reverse acquisition time	0,00gamma	499,1914k internal	0,3159k external	0,3159temperature offset calibration	1,0000default loss term (dB/km)	0,3820temperature slope calibration	1,0000multiplexer offset coefficient	1,0000multiplexer slope coefficient	1,0000fibre end	0,00T internal ref (°C)	7,37T ext. ref 1 (°C)	-9,09T ext. ref 2 (°C)	-9,17length (m)	temperature (°C)	Stokes	anti-Stokes-744,400	22,375	0,130	0,078
-743,385	-97,901	-0,293	-0,055
-742,371	800,000	0,094	0,242
-741,356	-57,354	-0,294	-0,095
-740,342	-72,135	0,210	0,057
-739,327	-96,578	-0,418	-0,080
-738,312	67,304	0,195	0,146
-737,298	-44,140	-0,361	-0,133
-736,283	-8,045	0,159	0,079
-735,269	-138,653	-0,487	-0,039
-734,254	-50,963	0,194	0,067
-733,239	-19,160	-0,394	-0,179
-732,225	-76,431	0,301	0,077
-731,210	6,383	-0,094	0,051
-730,196	-200,000	-0,010	0,035
-729,181	-16,521	-0,061	-0,028
-728,167	142,331	0,005	-0,005
-727,152	262,377	-0,081	0,104
-726,137	-200,000	0,014	-0,048
-725,123	-43,216	-0,107	-0,040
-724,108	492,354	-0,035	-0,060
-723,094	-173,697	-0,199	-0,004
-722,079	223,930	-0,120	-0,143
-721,064	800,000	-0,049	-0,120
-720,050	381,946	-0,013	-0,019
-719,035	-37,682	-0,051	0,020
-718,021	-81,802	-0,079	-0,019
-717,006	-200,000	-0,003	-0,083
-715,991	101,188	-0,045	-0,039
-714,977	-104,712	-0,048	-0,008
-713,962	800,000	0,019	0,046
-712,948	-200,000	0,029	0,144
-711,933	384,121	0,059	0,090
-710,918	-165,660	-0,177	0,006
-709,904	-200,000	0,004	0,021
-708,889	-200,000	0,002	-0,101
-707,875	-61,155	0,074	-0,023
-706,860	34,415	-0,076	-0,049
-705,845	-100,447	0,043	0,008
-704,831	-30,088	0,147	-0,061
-703,816	81,950	-0,094	-0,075
-702,802	-200,000	0,011	-0,037
-701,787	-200,000	0,026	-0,151
-700,772	316,602	0,034	0,048
-699,758	-200,000	0,004	0,102
-698,743	-87,383	0,002	-0,001
-697,729	79,191	0,015	-0,012
-696,714	800,000	-0,010	-0,022
-695,699	-200,000	-0,011	0,112
-694,685	-200,000	0,034	-0,185
-693,670	-2,441	-0,104	0,053
-692,656	57,937	-0,166	-0,120
-691,641	246,087	0,098	0,121
-690,627	-200,000	0,008	-0,102
-689,612	-200,000	0,022	0,076
-688,597	-95,433	-0,058	-0,011
-687,583	33,359	-0,024	-0,016
-686,568	568,243	-0,035	-0,063
-685,554	610,940	0,083	-0,154
-684,539	2,328	0,094	0,050
-683,524	504,482	-0,114	0,195
-682,510	-65,822	0,093	-0,027
-681,495	236,059	-0,071	-0,087
-680,481	-200,000	0,015	-0,066
-679,466	-79,026	-0,127	-0,032
-678,451	558,573	0,057	0,101
-677,437	167,259	0,009	-0,010
-676,422	-108,950	0,098	-0,015
-675,408	-200,000	-0,009	0,046
-674,393	-19,530	0,034	0,015
-673,378	54,077	-0,083	-0,058
-672,364	-90,476	0,028	0,006
-671,349	800,000	-0,028	-0,076
-670,335	-200,000	0,005	0,080
-669,320	124,020	0,024	0,022
-668,305	800,000	-0,053	-0,120
-667,291	58,080	-0,101	0,073
-666,276	-200,000	0,005	0,076
-665,262	137,189	-0,025	0,024
-664,247	-56,032	-0,110	-0,036
-663,232	353,876	0,019	0,028
-662,218	84,550	0,123	0,099
-661,203	467,183	0,089	0,146
-660,189	800,000	0,020	0,048
-659,174	800,000	-0,043	-0,104
-658,159	597,784	0,053	0,098
-657,145	141,114	-0,085	0,082
-656,130	-200,000	-0,007	0,107
-655,116	216,601	-0,029	-0,034
-654,101	-145,599	0,219	0,014
-653,086	29,705	-0,101	0,063
-652,072	5,441	0,139	-0,075
-651,057	178,220	0,066	-0,071
-650,043	460,817	0,075	-0,124
-649,028	293,909	0,023	-0,031
-648,014	96,200	-0,047	0,040
-646,999	-200,000	0,022	-0,087
-645,984	-200,000	0,011	0,088
-644,970	-200,000	0,015	0,068
-643,955	13,468	-0,109	-0,062
-642,941	10,098	-0,072	0,040
-641,926	-138,788	-0,151	0,012
-640,911	-200,000	0,032	0,109
-639,897	-7,721	-0,133	0,066
-638,882	-2,343	0,077	-0,039
-637,868	-200,000	-0,014	0,074
-636,853	273,485	0,027	0,034
-635,838	425,371	-0,056	-0,089
-634,824	-66,005	-0,130	0,038
-633,809	-200,000	-0,009	0,048
-632,795	800,000	0,030	0,064
-631,780	800,000	-0,036	0,111
-630,765	184,459	-0,071	-0,077
-629,751	540,369	0,052	-0,091
-628,736	-114,285	-0,039	0,005
-627,722	-200,000	-0,018	0,127
-626,707	800,000	-0,016	0,050
-625,692	-29,978	-0,016	0,007
-624,678	45,039	0,004	0,003
-623,663	-21,143	0,058	-0,026
-622,649	-200,000	0,012	0,048
-621,634	800,000	-0,044	-0,105
-620,619	54,770	0,011	0,008
-619,605	-50,669	0,194	0,067
-618,590	-200,000	-0,010	0,133
-617,576	-200,000	0,015	0,121
-616,561	763,088	0,044	0,088
-615,546	415,659	-0,043	0,068
-614,532	800,000	0,039	0,097
-613,517	380,792	0,065	-0,097
-612,503	800,000	0,027	-0,076
-611,488	125,794	-0,040	-0,037
-610,474	224,894	-0,094	0,112
-609,459	-175,367	-0,139	0,003
-608,444	35,983	0,071	-0,046
-607,430	-113,897	-0,142	-0,020
-606,415	-72,436	-0,096	-0,026
-605,401	708,056	0,007	-0,014
-604,386	-96,352	-0,068	0,013
-603,371	395,575	0,026	0,039
-602,357	800,000	-0,025	0,065
-601,342	-30,690	-0,103	0,043
-600,328	734,947	0,050	-0,098
-599,313	800,000	-0,061	-0,132
-598,298	-200,000	-0,004	-0,035
-597,284	103,891	0,060	-0,052
-596,269	767,753	0,046	-0,091
-595,255	271,307	0,084	-0,109
-594,240	-200,000	0,003	-0,088
-593,225	162,453	-0,132	-0,135
-592,211	-200,000	-0,027	-0,142
-591,196	-200,000	0,029	0,100
-590,182	452,957	-0,065	-0,105
-589,167	349,393	-0,033	0,048
-588,152	-102,354	0,007	0,001
-587,138	-200,000	0,004	-0,025
-586,123	800,000	-0,055	-0,152
-585,109	156,323	-0,091	-0,093
-584,094	-200,000	-0,016	0,068
-583,079	800,000	0,022	-0,069
-582,065	-173,477	0,018	-0,000
-581,050	105,067	0,063	-0,055
-580,036	-14,565	-0,087	0,041
-579,021	-29,613	0,108	-0,045
-578,006	330,807	-0,108	-0,153
-576,992	800,000	0,012	0,031
-575,977	39,613	0,114	0,075
-574,963	257,191	0,074	-0,094
-573,948	-90,924	0,074	0,015
-572,934	800,000	-0,009	-0,028
-571,919	-99,123	0,024	0,004
-570,904	800,000	0,033	-0,090
-569,890	-200,000	-0,001	0,073
-568,875	-200,000	0,011	0,101
-567,861	209,027	0,018	0,021
-566,846	5,101	-0,135	-0,072
-565,831	157,322	0,014	0,014
-564,817	-200,000	-0,000	0,155
-563,802	569,263	0,008	-0,014
-562,788	800,000	-0,015	-0,034
-561,773	11,604	-0,127	0,071
-560,758	92,357	-0,026	0,021
-559,744	27,738	0,104	-0,064
-558,729	-200,000	0,029	-0,097
-557,715	-200,000	-0,009	-0,059
-556,700	-200,000	-0,023	-0,158
-555,685	-127,472	-0,153	-0,016
-554,671	-200,000	0,003	0,035
-553,656	-200,000	-0,017	0,098
-552,642	-39,545	-0,093	-0,035
-551,627	800,000	-0,057	0,130
-550,612	354,089	-0,081	-0,119
-549,598	327,059	-0,070	-0,098
-548,583	-58,384	-0,149	0,047
-547,569	553,782	-0,007	0,012
-546,554	-38,413	0,066	0,025
-545,539	213,244	0,100	0,116
-544,525	241,532	0,028	-0,035
-543,510	-37,098	-0,064	-0,025
-542,496	-200,000	-0,037	-0,170
-541,481	-42,781	-0,118	-0,044
-540,466	-115,484	0,169	-0,023
-539,452	800,000	0,030	-0,064
-538,437	800,000	-0,019	-0,053
-537,423	-200,000	0,017	-0,069
-536,408	-79,946	-0,079	0,019
-535,393	-200,000	0,017	-0,083
-534,379	-173,681	-0,052	0,001
-533,364	281,110	-0,032	0,041
-532,350	-200,000	0,034	0,174
-531,335	37,705	-0,077	0,050
-530,321	-200,000	-0,005	0,130
-529,306	-2,751	-0,043	0,022
-528,291	101,375	0,044	0,038
-527,277	-157,594	0,059	0,003
-526,262	123,628	-0,053	0,048
-525,248	123,768	-0,073	0,067
-524,233	-111,505	0,085	0,012
-523,218	-200,000	-0,028	0,092
-522,204	-200,000	0,002	0,046
-521,189	-73,119	-0,142	0,038
-520,175	-136,512	-0,081	0,007
-519,160	186,580	0,024	-0,026
-518,145	-98,331	0,095	0,018
-517,131	182,592	-0,011	-0,012
-516,116	15,996	0,026	-0,015
-515,102	-200,000	-0,005	-0,142
-514,087	-200,000	0,018	-0,128
-513,072	195,524	-0,075	-0,083
-512,058	224,934	0,019	-0,023
-511,043	-44,675	0,139	-0,051
-510,029	218,331	0,018	0,020
-509,014	514,732	0,034	-0,059
-507,999	219,934	0,026	0,030
-506,985	-111,771	-0,048	0,007
-505,970	-200,000	0,021	-0,125
-504,956	573,832	-0,053	-0,094
-503,941	-174,658	-0,057	-0,001
-502,926	122,589	0,093	-0,085
-501,912	-200,000	0,003	0,053
-500,897	800,000	-0,051	-0,110
-499,883	800,000	-0,009	0,022
-498,868	116,948	-0,044	0,039
-497,853	72,433	0,034	0,026
-496,839	800,000	0,050	-0,122
-495,824	-200,000	-0,016	0,131
-494,810	9,264	-0,100	0,055
-493,795	399,163	0,052	0,079
-492,781	226,860	-0,071	0,084
-491,766	100,874	-0,015	-0,013
-490,751	-158,831	0,028	-0,001
-489,737	-100,253	-0,085	-0,015
-488,722	13,999	0,116	-0,066
-487,708	-156,976	-0,144	-0,006
-486,693	-165,810	0,089	0,003
-485,678	119,245	-0,068	-0,061
-484,664	-200,000	-0,003	0,026
-483,649	376,893	-0,064	-0,096
-482,635	-200,000	0,010	0,044
-481,620	3,957	-0,062	-0,033
-480,605	-178,923	-0,051	-0,001
-479,591	800,000	0,035	-0,094
-478,576	90,420	-0,061	-0,050
-477,562	-200,000	0,003	-0,083
-476,547	-200,000	0,001	-0,116
-475,532	800,000	0,081	-0,171
-474,518	-200,000	0,009	0,078
-473,503	772,646	0,047	0,094
-472,489	266,777	0,110	0,140
-471,474	-45,376	-0,056	0,020
-470,459	168,423	0,035	-0,037
-469,445	98,310	0,087	-0,073
-468,430	83,702	-0,115	-0,092
-467,416	-104,706	0,174	0,029
-466,401	73,768	-0,138	-0,105
-465,386	-1,781	0,118	-0,061
-464,372	-6,352	-0,105	0,052
-463,357	431,852	-0,009	-0,014
-462,343	-158,951	0,089	-0,004
-461,328	721,855	-0,051	-0,099
-460,313	-118,262	0,028	0,004
-459,299	76,109	-0,052	0,040
-458,284	-15,294	0,157	0,073
-457,270	800,000	0,032	0,091
-456,255	-125,088	-0,101	-0,011
-455,241	132,892	0,029	0,027
-454,226	141,363	-0,080	-0,077
-453,211	-200,000	-0,019	0,158
-452,197	-89,603	0,044	-0,009
-451,182	-30,736	-0,108	0,044
-450,168	64,966	-0,138	0,101
-449,153	-200,000	0,008	0,072
-448,138	-54,748	-0,015	-0,005
-447,124	800,000	-0,043	-0,089
-446,109	118,003	0,073	-0,066
-445,095	110,503	0,104	0,091
-444,080	421,750	0,024	0,038
-443,065	800,000	0,023	0,067
-442,051	-200,000	-0,013	-0,099
-441,036	-36,564	-0,097	0,038
-440,022	800,000	-0,029	-0,082
-439,007	-138,952	0,147	0,011
-437,992	800,000	-0,029	0,059
-436,978	51,416	-0,075	-0,052
-435,963	800,000	0,055	-0,116
-434,949	-200,000	-0,039	0,160
-433,934	-14,062	-0,120	0,056
-432,919	240,169	0,069	-0,084
-431,905	126,503	0,107	-0,098
-430,890	144,456	0,153	-0,148
-429,876	-200,000	0,006	0,026
-428,861	-157,891	0,058	-0,002
-427,846	-200,000	-0,018	0,153
-426,832	-200,000	0,004	-0,101
-425,817	800,000	0,042	0,116
-424,803	174,602	0,049	-0,052
-423,788	-141,520	-0,087	0,006
-422,773	-200,000	0,042	0,136
-421,759	-200,000	0,001	0,078
-420,744	-200,000	-0,005	0,056
-419,730	13,239	0,037	0,021
-418,715	211,755	0,064	0,073
-417,701	-200,000	0,018	-0,145
-416,686	-76,057	0,083	0,021
-415,671	-200,000	-0,008	0,037
-414,657	-43,852	-0,124	-0,045
-413,642	36,939	0,089	-0,057
-412,628	-53,931	-0,094	-0,031
-411,613	-66,910	0,019	-0,005
-410,598	-163,338	0,052	0,002
-409,584	-200,000	0,021	-0,106
-408,569	98,999	-0,155	0,130
-407,555	-200,000	0,043	0,152
-406,540	394,086	0,060	-0,090
-405,525	-96,035	0,038	0,007
-404,511	-90,470	-0,021	-0,004
-403,496	-200,000	-0,003	0,145
-402,482	-194,602	0,084	0,000
-401,467	-19,586	0,116	0,052
-400,452	281,195	0,124	0,162
-399,438	800,000	0,022	0,067
-398,423	-200,000	0,008	-0,061
-397,409	35,218	-0,123	0,078
-396,394	-27,605	0,066	0,028
-395,379	209,125	0,055	-0,063
-394,365	-200,000	-0,008	0,076
-393,350	-12,815	0,078	0,037
-392,336	140,031	-0,019	-0,018
-391,321	107,757	0,088	-0,076
-390,306	-200,000	-0,034	-0,162
-389,292	800,000	0,036	-0,099
-388,277	46,311	-0,037	-0,025
-387,263	28,219	-0,021	-0,013
-386,248	70,638	0,007	-0,005
-385,233	-200,000	0,009	0,078
-384,219	190,609	0,022	0,024
-383,204	34,124	-0,007	-0,005
-382,190	-60,524	-0,053	0,016
-381,175	-136,320	0,014	-0,001
-380,160	-148,544	0,057	-0,003
-379,146	-31,607	0,114	-0,046
-378,131	-200,000	-0,049	0,174
-377,117	585,649	0,007	-0,012
-376,102	-85,452	-0,033	-0,007
-375,088	99,757	0,063	-0,053
-374,073	279,176	0,044	0,057
-373,058	-200,000	-0,002	0,112
-372,044	-200,000	0,012	0,117
-371,029	16,818	0,065	-0,037
-370,015	-200,000	-0,026	-0,156
-369,000	-200,000	-0,003	0,056
-367,985	611,044	0,022	-0,041
-366,971	366,436	0,014	0,021
-365,956	-94,486	0,183	0,036
-364,942	348,258	0,055	0,079
-363,927	232,714	0,105	0,125
-362,912	-171,500	-0,144	0,003
-361,898	168,996	-0,035	-0,036
-360,883	800,000	-0,024	-0,077
-359,869	800,000	0,017	-0,036
-358,854	-80,342	0,093	0,022
-357,839	-200,000	0,022	0,085
-356,825	148,757	0,048	-0,047
-355,810	-194,322	0,070	-0,000
-354,796	-200,000	0,012	-0,053
-353,781	800,000	-0,029	-0,069
-352,766	-93,287	-0,110	0,022
-351,752	38,676	0,041	0,027
-350,737	-49,414	0,055	0,019
-349,723	122,444	0,195	0,177
-348,708	412,969	0,107	-0,166
-347,693	-132,317	-0,070	0,007
-346,679	-17,344	-0,142	0,065
-345,664	32,102	-0,092	0,057
-344,650	150,472	0,102	-0,100
-343,635	-200,000	-0,023	0,087
-342,620	-200,000	0,035	-0,114
-341,606	-69,687	0,054	0,015
-340,591	-53,439	-0,072	0,024
-339,577	598,711	-0,041	-0,075
-338,562	-2,986	0,140	-0,071
-337,548	23,958	0,053	0,032
-336,533	44,620	0,159	0,106
-335,518	-135,460	-0,133	-0,011
-334,504	-200,000	-0,003	0,159
-333,489	-200,000	0,008	0,093
-332,475	105,040	-0,049	-0,042
-331,460	316,360	0,094	-0,129
-330,445	363,882	-0,051	0,074
-329,431	28,686	-0,053	0,033
-328,416	-30,422	0,066	0,027
-327,402	246,226	-0,042	-0,052
-326,387	-200,000	-0,004	-0,123
-325,372	184,000	0,028	-0,031
-324,358	-128,919	-0,093	-0,009
-323,343	-45,244	0,067	-0,024
-322,329	17,617	0,091	0,052
-321,314	-200,000	-0,004	0,044
-320,299	800,000	-0,079	0,161
-319,285	141,511	0,065	0,062
-318,270	737,658	-0,097	-0,190
-317,256	-200,000	-0,035	-0,160
-316,241	-64,321	0,033	0,010
-315,226	226,363	0,114	-0,134
-314,212	31,890	0,032	0,020
-313,197	592,122	-0,010	0,019
-312,183	800,000	-0,030	-0,066
-311,168	31,566	0,025	0,016
-310,153	-200,000	-0,025	-0,105
-309,139	800,000	0,050	0,110
-308,124	-200,000	-0,012	-0,045
-307,110	84,016	0,032	0,026
-306,095	-200,000	-0,025	0,084
-305,080	-200,000	0,031	0,148
-304,066	511,334	-0,057	0,096
-303,051	22,339	0,062	-0,037
-302,037	17,545	-0,108	0,062
-301,022	-200,000	0,023	0,100
-300,008	-200,000	-0,017	0,057
-298,993	8,503	0,075	0,041
-297,978	-74,799	0,091	-0,024
-296,964	202,972	-0,053	0,060
-295,949	53,259	-0,098	0,068
-294,935	60,186	-0,051	-0,037
-293,920	-153,806	-0,043	-0,002
-292,905	-200,000	0,011	0,064
-291,891	-71,383	0,161	0,043
-290,876	-138,965	0,131	-0,010
-289,862	222,573	-0,027	-0,032
-288,847	245,784	-0,042	-0,051
-287,832	47,991	0,055	-0,037
-286,818	-7,189	0,038	0,018
-285,803	-200,000	-0,002	-0,114
-284,789	-48,105	-0,090	0,031
-283,774	137,219	0,094	0,089
-282,759	-192,244	-0,070	0,000
-281,745	-77,650	0,125	0,031
-280,730	-37,515	-0,236	-0,091
-279,716	-200,000	0,005	-0,020
-278,701	406,538	0,045	-0,070
-277,686	105,932	-0,064	0,055
-276,672	800,000	0,067	0,142
-275,657	185,483	-0,023	-0,025
-274,643	620,979	-0,102	0,187
-273,628	-123,566	0,124	0,014
-272,613	149,493	-0,063	-0,061
-271,599	-164,303	-0,019	-0,001
-270,584	180,047	0,175	0,186
-269,570	419,588	-0,034	0,052
-268,555	-23,847	-0,094	0,040
-267,540	-33,825	0,082	-0,033
-266,526	-135,654	-0,131	-0,011
-265,511	800,000	-0,026	-0,081
-264,497	105,228	-0,070	0,060
-263,482	-107,140	0,043	0,007
-262,467	-200,000	-0,005	0,089
-261,453	339,813	0,057	-0,081
-260,438	96,323	-0,083	0,069
-259,424	-200,000	0,016	-0,080
-258,409	9,824	-0,070	-0,039
-257,395	800,000	0,012	0,039
-256,380	800,000	0,038	-0,121
-255,365	276,383	-0,038	-0,049
-254,351	-200,000	-0,001	0,076
-253,336	187,945	-0,044	-0,048
-252,322	800,000	0,007	0,018
-251,307	70,499	0,040	-0,030
-250,292	105,980	-0,036	-0,031
-249,278	509,635	-0,062	-0,104
-248,263	3,204	-0,077	0,041
-247,249	30,855	-0,132	0,081
-246,234	103,878	0,063	0,053
-245,219	111,476	-0,106	0,092
-244,205	800,000	-0,052	-0,131
-243,190	-200,000	0,034	0,111
-242,176	480,491	0,062	0,102
-241,161	688,769	-0,008	0,015
-240,146	0,732	0,080	-0,041
-239,132	523,082	-0,063	-0,107
-238,117	24,747	-0,165	-0,099
-237,103	-200,000	0,010	-0,066
-236,088	-200,000	-0,008	-0,032
-235,073	800,000	0,065	0,133
-234,059	800,000	0,026	0,062
-233,044	-29,559	-0,082	0,034
-232,030	-18,579	0,082	0,037
-231,015	800,000	0,035	0,081
-230,000	-51,122	-0,012	0,004
-228,986	800,000	0,020	0,042
-227,971	-1,554	0,087	-0,044
-226,957	-91,144	0,118	-0,024
-225,942	-125,462	0,157	-0,017
-224,927	-200,000	-0,115	0,000
-223,913	800,000	0,013	-0,032
-222,898	320,976	-0,057	-0,079
-221,884	-200,000	0,008	-0,040
-220,869	272,645	-0,046	0,059
-219,855	322,137	0,048	-0,066
-218,840	-178,784	-0,010	0,000
-217,825	-200,000	0,000	-0,071
-216,811	34,921	0,111	-0,070
-215,796	-135,558	-0,106	0,009
-214,782	498,941	-0,088	-0,147
-213,767	784,073	0,068	-0,135
-212,752	-71,759	-0,086	-0,023
-211,738	554,296	0,080	-0,139
-210,723	-51,770	0,229	-0,077
-209,709	-60,292	-0,106	-0,032
-208,694	-85,423	0,133	-0,030
-207,679	-22,534	-0,081	0,035
-206,665	64,634	0,062	-0,045
-205,650	-200,000	-0,004	-0,063
-204,636	-35,254	0,022	0,008
-203,621	-28,760	-0,164	-0,068
-202,606	-68,538	0,061	-0,017
-201,592	86,525	0,133	-0,105
-200,577	-115,566	-0,133	0,018
-199,563	-200,000	0,009	0,105
-198,548	-200,000	-0,001	0,086
-197,533	-79,479	-0,143	0,035
-196,519	800,000	-0,037	-0,081
-195,504	54,735	0,065	-0,045
-194,490	612,381	0,041	0,075
-193,475	43,357	-0,151	-0,099
-192,460	148,577	-0,125	0,122
-191,446	44,796	0,011	-0,007
-190,431	-200,000	0,006	0,057
-189,417	-200,000	0,004	0,069
-188,402	261,185	-0,036	-0,045
-187,387	168,210	0,071	0,073
-186,373	-26,903	0,109	0,046
-185,358	-109,939	-0,122	0,018
-184,344	255,876	0,050	-0,062
-183,329	-150,501	0,061	-0,003
-182,315	-166,142	0,089	-0,003
-181,300	262,048	0,061	-0,077
-180,285	154,513	0,047	-0,047
-179,271	-200,000	-0,021	-0,151
-178,256	48,266	-0,110	-0,074
-177,242	-200,000	0,002	-0,020
-176,227	50,811	0,029	0,019
-175,212	-200,000	0,025	0,125
-174,198	158,733	-0,061	0,061
-173,183	271,128	-0,050	-0,063
-172,169	37,895	-0,088	0,056
-171,154	365,860	0,053	-0,077
-170,139	-200,000	-0,029	0,164
-169,125	-200,000	0,030	0,188
-168,110	-200,000	0,017	0,097
-167,096	-200,000	-0,014	-0,173
-166,081	-200,000	0,012	-0,039
-165,066	-43,702	0,060	0,022
-164,052	5,365	-0,035	0,019
-163,037	-85,336	0,167	-0,037
-162,023	-16,330	0,125	0,057
-161,008	800,000	-0,025	0,067
-159,993	-111,681	-0,044	-0,006
-158,979	-200,000	-0,002	-0,089
-157,964	-200,000	0,001	-0,087
-156,950	-42,884	-0,073	0,027
-155,935	800,000	0,042	0,110
-154,920	741,092	-0,018	0,035
-153,906	-200,000	-0,008	0,099
-152,891	-125,234	0,037	-0,004
-151,877	800,000	-0,060	0,131
-150,862	-81,971	-0,092	-0,022
-149,847	-200,000	0,023	-0,107
-148,833	741,465	-0,039	-0,075
-147,818	33,542	0,081	-0,050
-146,804	-40,885	-0,080	0,030
-145,789	-200,000	0,025	-0,143
-144,775	-140,984	-0,054	-0,004
-143,760	-200,000	-0,044	-0,325
-142,745	192,311	-0,067	-0,073
-141,731	-93,464	0,024	-0,005
-140,716	-200,000	0,005	0,163
-139,702	-70,908	-0,133	0,036
-138,687	-200,000	-0,038	-0,189
-137,672	-200,000	-0,005	-0,071
-136,658	35,117	0,040	-0,025
-135,643	800,000	-0,027	-0,083
-134,629	324,200	0,048	-0,066
-133,614	800,000	-0,029	0,058
-132,599	241,402	0,064	0,077
-131,585	296,159	-0,028	-0,037
-130,570	-173,226	0,107	0,002
-129,556	-132,203	0,059	-0,005
-128,541	463,551	-0,035	0,056
-127,526	127,795	-0,078	0,072
-126,512	25,341	-0,110	-0,066
-125,497	105,546	0,059	0,050
-124,483	-163,842	0,077	-0,003
-123,468	184,292	-0,054	0,057
-122,453	800,000	0,014	-0,028
-121,439	800,000	-0,026	-0,060
-120,424	46,105	-0,124	-0,082
-119,410	186,916	0,086	-0,092
-118,395	12,522	-0,034	-0,019
-117,380	-109,016	0,158	-0,024
-116,366	283,153	0,034	0,044
-115,351	-200,000	-0,003	0,037
-114,337	262,309	-0,114	0,143
-113,322	-45,015	-0,095	0,034
-112,307	-32,525	0,071	-0,028
-111,293	800,000	-0,013	-0,034
-110,278	-8,236	0,125	-0,060
-109,264	61,272	-0,123	0,087
-108,249	-200,000	0,015	-0,056
-107,234	383,317	-0,087	-0,129
-106,220	469,584	-0,033	-0,054
-105,205	800,000	-0,054	-0,151
-104,191	12,217	-0,104	-0,058
-103,176	102,008	0,078	-0,066
-102,162	-200,000	-0,002	-0,027
-101,147	-200,000	0,001	-0,067
-100,132	-145,165	-0,035	-0,002
-99,118	-36,707	-0,076	0,029
-98,103	800,000	-0,022	-0,069
-97,089	64,753	-0,050	0,036
-96,074	165,519	-0,048	0,049
-95,059	-55,836	0,048	-0,015
-94,045	223,155	-0,027	0,031
-93,030	343,713	-0,062	0,087
-92,016	-157,960	0,108	-0,005
-91,001	17,295	-0,038	0,022
-89,986	-200,000	-0,008	-0,063
-88,972	800,000	0,044	0,101
-87,957	101,494	-0,094	0,079
-86,943	-159,233	0,075	-0,003
-85,928	145,063	0,015	-0,015
-84,913	123,633	-0,052	-0,047
-83,899	-200,000	0,005	0,097
-82,884	-200,000	0,008	-0,128
-81,870	800,000	-0,019	0,053
-80,855	-200,000	-0,018	0,069
-79,840	-200,000	-0,003	0,095
-78,826	-178,060	-0,094	0,002
-77,811	32,943	0,054	-0,034
-76,797	-200,000	-0,022	0,093
-75,782	-200,000	0,002	-0,014
-74,767	-200,000	0,011	0,171
-73,753	327,182	-0,036	0,049
-72,738	-123,854	0,082	-0,009
-71,724	50,358	0,052	-0,035
-70,709	-153,640	-0,075	-0,004
-69,694	29,842	-0,039	-0,024
-68,680	24,831	0,044	-0,026
-67,665	680,385	0,025	0,046
-66,651	-94,087	-0,196	-0,038
-65,636	240,387	-0,093	0,112
-64,622	12,207	-0,039	-0,021
-63,607	3,236	-0,193	0,101
-62,592	391,758	-0,049	-0,074
-61,578	-26,598	-0,113	-0,047
-60,563	-60,284	0,089	0,027
-59,549	710,306	-0,053	0,101
-58,534	87,003	-2,653	-2,102
-57,519	-160,511	0,354	-0,013
-56,505	800,000	-1,770	-5,464
-55,490	450,078	1,304	2,071
-54,476	800,000	5,214	11,287
-53,461	-200,000	22,712	347,977
-52,446	800,000	764,139	2271,686
-51,432	500,769	1644,471	2732,811
-50,417	93,868	1602,336	1302,421
-49,403	61,892	1258,874	898,644
-48,388	21,647	1011,164	588,942
-47,373	18,662	978,646	560,192
-46,359	12,098	965,520	531,322
-45,344	8,001	962,436	516,270
-44,330	8,358	960,283	516,257
-43,315	7,475	958,378	512,345
-42,300	7,383	957,668	511,645
-41,286	7,426	956,448	511,113
-40,271	7,404	955,348	510,435
-39,257	7,403	954,621	510,022
-38,242	7,453	953,669	509,656
-37,227	7,413	952,974	509,135
-36,213	7,376	952,133	508,546
-35,198	7,438	951,141	508,194
-34,184	7,446	950,392	507,801
-33,169	7,371	949,563	507,095
-32,154	7,458	948,584	506,834
-31,140	7,490	947,697	506,443
-30,125	7,457	947,081	505,986
-29,111	7,446	946,199	505,461
-28,096	7,448	945,849	505,259
-27,082	7,398	945,224	504,745
-26,067	7,364	944,518	504,239
-25,052	7,347	943,564	503,656
-24,038	7,324	942,917	503,218
-23,023	7,370	942,099	502,908
-22,009	7,365	941,698	502,659
-20,994	7,349	940,944	502,183
-19,979	7,392	940,442	502,032
-18,965	7,405	939,549	501,577
-17,950	7,368	939,149	501,227
-16,936	7,337	938,519	500,773
-15,921	7,362	937,681	500,385
-14,906	7,312	936,949	499,815
-13,892	7,271	936,515	499,434
-12,877	7,231	936,048	499,038
-11,863	7,270	935,147	498,661
-10,848	7,302	934,619	498,462
-9,833	7,355	934,230	498,401
-8,819	7,312	933,509	497,863
-7,804	7,329	932,613	497,417
-6,790	7,292	932,307	497,119
-5,775	7,325	931,843	496,954
-4,760	7,327	931,228	496,613
-3,746	7,225	930,782	496,035
-2,731	7,186	929,961	495,456
-1,717	7,137	929,297	494,928
-0,702	7,164	928,635	494,639
0,313	6,964	927,922	494,377
1,327	10,366	925,534	503,718
2,342	18,844	773,338	442,924
3,356	13,797	443,030	246,204
4,371	-12,180	309,013	144,410
5,386	-16,010	291,781	132,514
6,400	-18,096	285,623	127,663
7,415	-18,266	283,068	126,345
8,429	-18,749	281,129	125,002
9,444	-18,989	280,277	124,381
10,459	-18,939	279,658	124,143
11,473	-18,844	279,118	123,984
12,488	-18,858	278,750	123,796
13,502	-18,778	278,057	123,554
14,517	-18,715	277,885	123,526
15,531	-18,676	277,265	123,276
16,546	-18,567	277,061	123,278
17,561	-18,508	276,420	123,038
18,575	-18,434	276,304	123,046
19,590	-18,530	275,834	122,735
20,604	-18,534	275,698	122,659
21,619	-18,628	275,235	122,354
22,634	-18,356	274,904	122,452
23,648	-18,442	274,540	122,198
24,663	-18,566	274,455	122,032
25,677	-18,483	274,236	122,002
26,692	-18,439	273,829	121,852
27,707	-18,622	273,552	121,546
28,721	-18,601	273,273	121,431
29,736	-18,415	273,053	121,496
30,750	-18,406	272,678	121,327
31,765	-18,456	272,618	121,242
32,780	-18,517	272,286	121,027
33,794	-18,532	271,971	120,863
34,809	-18,489	271,929	120,873
35,823	-18,537	271,643	120,690
36,838	-18,466	271,299	120,592
37,853	-18,463	270,985	120,445
38,867	-18,635	270,738	120,166
39,882	-18,392	270,375	120,218
40,896	-18,429	270,276	120,130
41,911	-18,472	269,968	119,942
42,926	-18,277	269,799	120,037
43,940	-18,444	269,616	119,790
44,955	-18,334	269,423	119,795
45,969	-18,390	269,151	119,612
46,984	-18,294	268,958	119,604
47,999	-18,235	268,756	119,558
49,013	-18,346	268,498	119,330
50,028	-18,414	268,356	119,194
51,042	-18,227	268,165	119,270
52,057	-18,341	267,828	119,005
53,071	-18,231	267,534	118,964
54,086	-18,253	267,448	118,895
55,101	-18,489	267,248	118,580
56,115	-18,322	266,910	118,572
57,130	-18,547	266,609	118,224
58,144	-18,510	266,484	118,190
59,159	-18,597	266,141	117,949
60,174	-18,525	265,973	117,929
61,188	-18,701	265,751	117,660
62,203	-18,383	265,549	117,849
63,217	-18,507	265,283	117,608
64,232	-18,436	264,881	117,484
65,247	-18,274	264,633	117,510
66,261	-18,422	264,348	117,239
67,276	-18,204	264,240	117,377
68,290	-18,422	264,069	117,094
69,305	-18,278	263,905	117,141
70,320	-18,396	263,673	116,921
71,334	-18,334	263,285	116,794
72,349	-18,397	263,210	116,694
73,363	-18,368	262,853	116,551
74,378	-18,564	262,734	116,313
75,393	-18,406	262,550	116,363
76,407	-18,579	262,292	116,083
77,422	-18,357	262,064	116,170
78,436	-18,598	261,942	115,890
79,451	-18,593	261,623	115,743
80,466	-18,477	261,396	115,736
81,480	-18,387	261,257	115,744
82,495	-18,425	261,126	115,643
83,509	-18,218	260,732	115,642
84,524	-18,380	260,663	115,457
85,539	-18,467	260,529	115,310
86,553	-18,344	260,202	115,264
87,568	-18,437	259,982	115,074
88,582	-18,465	259,705	114,916
89,597	-18,496	259,636	114,848
90,611	-18,449	259,343	114,750
91,626	-18,416	259,187	114,699
92,641	-18,381	258,926	114,604
93,655	-18,390	258,758	114,512
94,670	-18,463	258,390	114,275
95,684	-18,342	258,271	114,318
96,699	-18,273	258,011	114,253
97,714	-18,439	258,076	114,126
98,728	-18,410	257,845	114,040
99,743	-18,117	257,482	114,126
100,757	-18,228	257,266	113,922
101,772	-18,401	257,120	113,697
102,787	-18,465	256,817	113,496
103,801	-18,411	256,609	113,442
104,816	-18,476	256,418	113,290
105,830	-18,380	256,383	113,348
106,845	-18,546	256,027	113,036
107,860	-18,443	255,904	113,061
108,874	-18,537	255,683	112,872
109,889	-18,353	255,359	112,878
110,903	-18,547	255,315	112,681
111,918	-18,556	255,150	112,590
112,933	-18,309	254,773	112,628
113,947	-18,407	254,681	112,492
114,962	-18,592	254,562	112,270
115,976	-18,412	254,277	112,289
116,991	-18,218	253,956	112,305
118,006	-18,386	253,848	112,103
119,020	-18,422	253,611	111,957
120,035	-18,315	253,573	112,022
121,049	-18,426	253,310	111,801
122,064	-18,431	253,139	111,711
123,079	-18,595	252,959	111,480
124,093	-18,308	252,737	111,619
125,108	-18,269	252,569	111,568
126,122	-18,251	252,534	111,558
127,137	-18,275	252,316	111,432
128,151	-18,380	252,049	111,213
129,166	-18,320	251,796	111,143
130,181	-18,266	251,713	111,143
131,195	-18,182	251,253	111,001
132,210	-18,318	251,095	110,806
133,224	-18,377	250,976	110,693
134,239	-18,383	250,588	110,507
135,254	-18,413	250,571	110,465
136,268	-18,262	250,403	110,509
137,283	-18,263	250,135	110,380
138,297	-18,200	250,064	110,392
139,312	-18,257	249,811	110,222
140,327	-18,455	249,534	109,922
141,341	-18,426	249,327	109,846
142,356	-18,349	249,157	109,826
143,370	-18,360	248,897	109,693
144,385	-18,425	248,736	109,557
145,400	-18,455	248,545	109,438
146,414	-18,426	248,303	109,346
147,429	-18,433	248,295	109,327
148,443	-18,278	247,934	109,288
149,458	-18,275	247,866	109,251
150,473	-18,387	247,649	109,052
151,487	-18,404	247,449	108,940
152,502	-18,439	247,313	108,841
153,516	-18,248	246,905	108,811
154,531	-18,291	246,753	108,699
155,546	-18,308	246,753	108,675
156,560	-18,413	246,395	108,420
157,575	-18,333	246,264	108,419
158,589	-18,432	246,094	108,252
159,604	-18,446	245,856	108,126
160,619	-18,308	245,812	108,212
161,633	-18,182	245,534	108,185
162,648	-18,469	245,385	107,871
163,662	-18,313	245,269	107,940
164,677	-18,306	245,169	107,893
165,692	-18,303	244,907	107,770
166,706	-18,180	244,740	107,789
167,721	-18,369	244,712	107,610
168,735	-18,263	244,478	107,586
169,750	-18,434	244,354	107,380
170,764	-18,313	244,164	107,387
171,779	-18,357	243,930	107,238
172,794	-18,311	243,845	107,229
173,808	-18,216	243,643	107,209
174,823	-18,152	243,645	107,253
175,837	-18,088	243,368	107,174
176,852	-18,143	242,970	106,944
177,867	-18,376	242,818	106,677
178,881	-18,332	242,751	106,674
179,896	-18,348	242,488	106,535
180,910	-18,431	242,433	106,434
181,925	-18,298	242,049	106,364
182,940	-18,284	241,976	106,334
183,954	-18,409	241,838	106,162
184,969	-18,119	241,650	106,306
185,983	-18,369	241,540	106,045
186,998	-18,272	241,350	106,031
188,013	-18,335	241,226	105,916
189,027	-18,198	240,916	105,881
190,042	-18,496	240,809	105,583
191,056	-18,208	240,623	105,726
192,071	-18,448	240,462	105,451
193,086	-18,147	240,280	105,606
194,100	-18,314	240,033	105,353
195,115	-18,237	239,837	105,319
196,129	-18,419	239,672	105,090
197,144	-18,350	239,432	105,032
198,159	-18,423	239,393	104,946
199,173	-18,382	239,171	104,872
200,188	-18,385	238,878	104,732
201,202	-18,286	238,866	104,798
202,217	-18,252	238,612	104,704
203,232	-18,237	238,463	104,641
204,246	-18,206	238,232	104,555
205,261	-18,373	237,974	104,299
206,275	-17,288	238,664	105,465
207,290	-12,543	240,148	109,948
208,304	-5,791	242,302	116,422
209,319	-1,915	243,161	119,983
210,334	-0,959	243,464	120,901
211,348	-0,192	243,589	121,577
212,363	0,037	243,453	121,685
213,377	0,346	243,446	121,922
214,392	0,667	243,282	122,090
215,407	0,950	243,428	122,383
216,421	1,186	243,207	122,452
217,436	1,245	243,121	122,446
218,450	1,321	243,034	122,453
219,465	1,176	242,910	122,262
220,480	1,479	242,560	122,320
221,494	1,234	242,443	122,052
222,509	0,704	242,127	121,454
223,523	0,720	241,978	121,381
224,538	0,590	241,697	121,125
225,553	0,566	241,653	121,073
226,567	0,430	241,311	120,781
227,582	0,601	241,280	120,892
228,596	0,519	241,126	120,738
229,611	0,636	240,938	120,728
230,626	0,608	240,914	120,682
231,640	0,594	240,712	120,559
232,655	0,421	240,502	120,304
233,669	0,403	240,201	120,129
234,684	0,513	240,078	120,144
235,699	0,461	239,994	120,050
236,713	0,629	239,836	120,095
237,728	0,620	239,598	119,957
238,742	0,635	239,368	119,843
239,757	0,432	239,344	119,659
240,772	0,381	239,233	119,552
241,786	0,578	239,074	119,619
242,801	0,557	238,835	119,472
243,815	0,451	238,715	119,317
244,830	0,576	238,499	119,297
245,844	0,597	238,328	119,218
246,859	0,590	238,113	119,094
247,874	0,378	238,152	118,935
248,888	0,350	237,934	118,793
249,903	0,613	237,728	118,888
250,917	0,622	237,733	118,887
251,932	0,600	237,535	118,760
252,947	0,736	237,274	118,727
253,961	0,700	237,158	118,630
254,976	0,566	237,050	118,460
255,990	0,693	236,815	118,432
257,005	0,669	236,756	118,372
258,020	0,645	236,486	118,208
259,034	0,927	236,233	118,292
260,049	0,503	236,255	117,960
261,063	0,232	236,077	117,648
262,078	0,567	235,871	117,798
263,093	0,475	235,770	117,664
264,107	0,494	235,518	117,543
265,122	0,663	235,493	117,653
266,136	0,706	235,317	117,587
267,151	0,597	235,167	117,416
268,166	0,726	234,938	117,393
269,180	0,648	234,670	117,187
270,195	0,571	234,717	117,140
271,209	0,649	234,572	117,119
272,224	0,799	234,393	117,136
273,239	0,694	234,118	116,906
274,253	0,572	234,058	116,771
275,268	0,758	233,900	116,826
276,282	0,555	233,767	116,592
277,297	0,552	233,483	116,437
278,312	0,575	233,371	116,389
279,326	0,616	233,281	116,365
280,341	0,543	233,206	116,260
281,355	0,571	232,994	116,166
282,370	0,458	232,932	116,038
283,384	0,669	232,651	116,050
284,399	0,564	232,661	115,964
285,414	0,419	232,416	115,719
286,428	0,623	232,180	115,749
287,443	0,824	232,090	115,849
288,457	0,606	232,137	115,694
289,472	0,466	231,886	115,451
290,487	0,655	231,618	115,452
291,501	0,419	231,687	115,295
292,516	0,591	231,412	115,279
293,530	0,696	231,271	115,280
294,545	0,722	231,078	115,194
295,560	0,601	230,863	114,983
296,574	0,745	230,775	115,039
297,589	0,579	230,743	114,886
298,603	0,945	230,561	115,065
299,618	0,853	230,332	114,870
300,633	0,899	230,328	114,893
301,647	0,830	230,068	114,700
302,662	1,064	229,823	114,747
303,676	0,966	229,705	114,603
304,691	0,763	229,637	114,404
305,706	0,876	229,610	114,466
306,720	0,759	229,461	114,293
307,735	0,909	229,201	114,267
308,749	0,854	229,180	114,205
309,764	0,835	228,908	114,045
310,779	0,680	228,887	113,907
311,793	0,852	228,630	113,899
312,808	0,936	228,434	113,854
313,822	0,673	228,334	113,596
314,837	0,803	228,213	113,624
315,852	0,918	228,103	113,646
316,866	0,860	227,852	113,466
317,881	0,913	227,603	113,372
318,895	0,814	227,708	113,340
319,910	0,646	227,516	113,108
320,925	0,825	227,265	113,108
321,939	0,730	227,226	113,006
322,954	1,034	227,150	113,187
323,968	0,867	227,003	112,978
324,983	0,868	226,757	112,847
325,997	1,094	226,664	112,959
327,012	0,955	226,461	112,744
328,027	1,167	226,239	112,782
329,041	0,827	226,079	112,439
330,056	0,730	226,066	112,349
331,070	0,849	225,952	112,371
332,085	0,769	225,800	112,226
333,100	0,863	225,509	112,142
334,114	0,850	225,365	112,051
335,129	0,838	225,208	111,954
336,143	0,842	225,235	111,960
337,158	0,892	224,996	111,868
338,173	1,049	224,992	111,973
339,187	0,999	224,789	111,824
340,202	1,051	224,646	111,783
341,216	1,043	224,451	111,669
342,231	1,065	224,301	111,601
343,246	0,862	224,389	111,484
344,260	1,071	224,120	111,496
345,275	1,253	223,908	111,515
346,289	1,079	223,719	111,283
347,304	1,088	223,634	111,237
348,319	0,997	223,433	111,060
349,333	0,976	223,297	110,967
350,348	0,965	223,233	110,917
351,362	1,177	222,992	110,943
352,377	1,214	222,948	110,938
353,392	0,905	222,999	110,727
354,406	0,833	222,807	110,569
355,421	191,976	1312,228	1376,723
356,435	153,685	1444,795	1376,548
