DTS Sentinel unit serial number:	SN410029Multiplexer serial number:	ORYXHardware model number:	OX2-SRSoftware version number:	ORYX F/W v4,00 Oryx Data Collector v3.7.2.0data status	okinstallation	B5 Nyhavnadifferential loss correction	single-endedforward channel	channel 2reverse channel	N/Adate	2023/12/12time	15:32:13forward acquisition time	300,00reverse acquisition time	0,00gamma	499,1914k internal	0,3157k external	0,3157temperature offset calibration	1,0000default loss term (dB/km)	0,3820temperature slope calibration	1,0000multiplexer offset coefficient	1,0000multiplexer slope coefficient	1,0000fibre end	0,00T internal ref (°C)	15,93T ext. ref 1 (°C)	-0,47T ext. ref 2 (°C)	-0,72length (m)	temperature (°C)	Stokes	anti-Stokes-744,400	161,065	0,065	0,067
-743,385	-80,816	-0,257	-0,063
-742,371	-39,912	0,155	0,059
-741,356	-17,640	-0,232	0,107
-740,342	23,846	0,137	0,083
-739,327	-157,389	-0,299	-0,013
-738,312	-200,000	0,020	-0,080
-737,298	-93,729	-0,259	0,052
-736,283	-200,000	0,016	-0,120
-735,269	-101,453	-0,302	-0,054
-734,254	5,500	0,059	-0,032
-733,239	19,590	-0,437	-0,259
-732,225	-27,582	0,149	0,063
-731,210	-181,026	0,036	-0,001
-730,196	624,697	0,040	-0,075
-729,181	-20,138	-0,051	-0,023
-728,167	-35,648	-0,092	-0,037
-727,152	800,000	0,063	0,158
-726,137	108,557	-0,193	-0,169
-725,123	88,598	-0,038	-0,031
-724,108	800,000	0,050	-0,126
-723,094	233,486	-0,076	-0,093
-722,079	-200,000	-0,022	-0,176
-721,064	163,430	-0,130	-0,135
-720,050	800,000	-0,022	0,054
-719,035	-107,287	-0,113	-0,018
-718,021	598,628	0,025	-0,046
-717,006	800,000	0,023	-0,055
-715,991	-200,000	0,011	-0,143
-714,977	800,000	-0,053	-0,114
-713,962	-200,000	-0,009	-0,159
-712,948	-200,000	0,013	-0,065
-711,933	-200,000	-0,027	-0,184
-710,918	402,697	-0,071	0,111
-709,904	566,363	-0,075	-0,135
-708,889	-200,000	-0,013	-0,043
-707,875	57,306	-0,102	0,073
-706,860	409,531	0,034	0,054
-705,845	-96,549	-0,072	0,014
-704,831	-200,000	-0,027	0,138
-703,816	398,800	-0,050	-0,077
-702,802	5,744	-0,075	0,041
-701,787	-200,000	0,047	-0,198
-700,772	-200,000	0,014	-0,082
-699,758	3,586	-0,100	0,054
-698,743	30,737	0,030	-0,019
-697,729	800,000	0,046	0,133
-696,714	158,712	-0,016	-0,017
-695,699	183,926	-0,037	-0,040
-694,685	35,276	-0,149	0,096
-693,670	800,000	0,013	0,027
-692,656	107,946	0,058	0,051
-691,641	800,000	0,016	0,038
-690,627	-67,280	0,187	-0,054
-689,612	137,775	0,072	-0,069
-688,597	-105,922	0,079	0,013
-687,583	238,515	-0,087	-0,106
-686,568	-200,000	0,008	-0,087
-685,554	345,693	-0,112	-0,162
-684,539	258,054	-0,084	-0,107
-683,524	-200,000	-0,005	-0,042
-682,510	800,000	-0,020	0,040
-681,495	237,631	0,074	-0,091
-680,481	-200,000	-0,007	-0,028
-679,466	-200,000	0,021	-0,222
-678,451	-54,683	-0,091	0,030
-677,437	128,730	-0,007	0,007
-676,422	655,493	0,052	0,098
-675,408	-29,461	-0,079	0,033
-674,393	60,494	0,024	-0,018
-673,378	-200,000	-0,004	-0,040
-672,364	92,248	-0,090	-0,074
-671,349	-200,000	0,024	-0,116
-670,335	52,528	0,047	-0,033
-669,320	18,336	-0,060	-0,035
-668,305	35,242	0,075	-0,048
-667,291	-64,928	0,067	-0,020
-666,276	-28,499	-0,124	-0,052
-665,262	-103,793	-0,112	-0,019
-664,247	-200,000	-0,022	0,080
-663,232	-200,000	-0,011	0,092
-662,218	-124,015	-0,093	0,011
-661,203	-200,000	0,003	-0,041
-660,189	57,929	-0,032	0,023
-659,174	800,000	-0,013	-0,027
-658,159	159,768	-0,051	-0,052
-657,145	203,372	-0,101	-0,115
-656,130	-200,000	0,018	-0,090
-655,116	-167,729	-0,126	-0,004
-654,101	-200,000	-0,020	-0,159
-653,086	-124,744	-0,114	0,013
-652,072	186,995	-0,024	0,027
-651,057	-86,116	-0,130	-0,029
-650,043	-200,000	0,005	-0,228
-649,028	47,558	0,117	-0,080
-648,014	800,000	0,078	0,181
-646,999	-200,000	-0,025	0,152
-645,984	194,540	-0,073	-0,082
-644,970	98,372	-0,044	-0,037
-643,955	360,865	0,028	0,042
-642,941	-89,210	-0,044	-0,010
-641,926	800,000	-0,059	-0,128
-640,911	-166,182	-0,021	0,001
-639,897	60,243	0,045	0,032
-638,882	-200,000	-0,008	0,048
-637,868	800,000	0,040	-0,109
-636,853	-200,000	0,064	-0,236
-635,838	-81,480	-0,116	0,028
-634,824	95,823	-0,057	-0,048
-633,809	0,066	0,050	-0,026
-632,795	-20,497	-0,045	-0,020
-631,780	-169,840	0,121	-0,003
-630,765	-200,000	0,028	-0,103
-629,751	600,183	-0,122	-0,223
-628,736	-125,087	-0,081	-0,009
-627,722	93,120	0,123	0,102
-626,707	30,211	-0,041	0,025
-625,692	-177,995	0,157	-0,003
-624,678	-200,000	0,001	0,080
-623,663	-12,180	0,019	0,009
-622,649	-77,750	-0,075	0,019
-621,634	484,342	0,044	-0,074
-620,619	-200,000	-0,021	0,068
-619,605	-200,000	0,002	0,086
-618,590	800,000	-0,036	0,109
-617,576	62,849	-0,056	0,041
-616,561	-12,245	-0,148	-0,071
-615,546	800,000	0,023	-0,059
-614,532	-200,000	0,006	-0,065
-613,517	-55,872	-0,121	-0,039
-612,503	-8,236	0,059	-0,029
-611,488	-200,000	-0,001	-0,052
-610,474	-200,000	0,047	0,154
-609,459	-200,000	0,041	0,174
-608,444	-7,186	0,110	-0,055
-607,430	103,316	-0,014	-0,012
-606,415	-129,325	-0,094	0,009
-605,401	-200,000	0,006	-0,071
-604,386	701,064	-0,039	0,075
-603,371	542,430	-0,057	0,101
-602,357	60,939	-0,135	-0,098
-601,342	-43,484	0,078	0,029
-600,328	800,000	-0,050	-0,148
-599,313	178,736	0,063	-0,067
-598,298	-136,815	-0,070	-0,006
-597,284	564,185	0,015	-0,027
-596,269	-200,000	0,019	0,101
-595,255	110,001	0,091	0,080
-594,240	-87,833	-0,029	0,006
-593,225	457,551	0,040	-0,066
-592,211	-77,570	-0,114	0,029
-591,196	800,000	0,040	-0,084
-590,182	-200,000	0,016	0,065
-589,167	-200,000	0,007	0,056
-588,152	501,678	-0,066	-0,112
-587,138	-88,735	0,103	0,022
-586,123	-200,000	-0,045	-0,168
-585,109	356,093	-0,069	-0,102
-584,094	399,608	0,029	-0,044
-583,079	39,580	-0,081	0,053
-582,065	-137,923	0,091	-0,007
-581,050	-200,000	0,010	0,059
-580,036	660,400	-0,037	0,069
-579,021	347,711	-0,050	-0,073
-578,006	11,038	0,036	-0,020
-576,992	45,577	-0,087	-0,059
-575,977	-137,131	-0,070	-0,006
-574,963	24,724	0,113	-0,068
-573,948	284,709	-0,147	-0,194
-572,934	33,175	0,037	0,024
-571,919	-57,913	-0,127	0,040
-570,904	-200,000	-0,000	-0,029
-569,890	-200,000	0,034	-0,218
-568,875	43,433	-0,102	0,068
-567,861	-200,000	0,003	0,082
-566,846	448,411	0,067	0,109
-565,831	800,000	-0,017	0,035
-564,817	800,000	0,021	-0,067
-563,802	800,000	0,015	0,036
-562,788	481,554	-0,075	0,125
-561,773	-19,057	0,046	-0,021
-560,758	147,498	0,045	0,045
-559,744	252,385	-0,053	-0,067
-558,729	-200,000	-0,008	-0,141
-557,715	387,715	-0,128	-0,195
-556,700	16,889	-0,142	-0,082
-555,685	155,925	-0,019	0,019
-554,671	139,700	-0,016	0,015
-553,656	115,987	0,061	0,055
-552,642	-13,704	-0,100	0,047
-551,627	149,966	0,115	0,114
-550,612	85,560	-0,034	-0,027
-549,598	605,418	-0,033	-0,061
-548,583	-33,484	-0,080	-0,032
-547,569	233,553	0,074	-0,089
-546,554	-200,000	0,012	0,062
-545,539	-200,000	-0,024	0,112
-544,525	22,568	-0,135	0,081
-543,510	-28,354	-0,075	-0,031
-542,496	800,000	0,010	0,030
-541,481	-200,000	-0,013	0,049
-540,466	362,507	0,019	0,028
-539,452	-200,000	0,013	0,054
-538,437	446,673	0,036	-0,058
-537,423	800,000	0,028	0,073
-536,408	-14,241	-0,043	0,020
-535,393	-75,009	-0,159	0,041
-534,379	800,000	-0,056	-0,167
-533,364	280,722	0,051	-0,067
-532,350	-200,000	0,011	0,045
-531,335	116,218	-0,057	0,051
-530,321	230,497	0,078	0,094
-529,306	-43,338	0,050	0,018
-528,291	281,444	-0,079	-0,103
-527,277	-200,000	-0,027	-0,204
-526,262	-162,687	0,034	0,001
-525,248	800,000	0,061	-0,174
-524,233	-200,000	-0,006	-0,055
-523,218	-200,000	0,003	0,067
-522,204	551,034	-0,059	-0,105
-521,189	92,821	0,054	0,045
-520,175	800,000	-0,029	-0,084
-519,160	800,000	-0,048	0,099
-518,145	5,800	-0,087	-0,047
-517,131	529,396	0,005	-0,010
-516,116	60,941	0,039	-0,029
-515,102	-200,000	-0,009	0,129
-514,087	-125,626	-0,041	-0,005
-513,072	-200,000	-0,020	-0,127
-512,058	-59,073	-0,092	0,029
-511,043	348,671	0,048	0,069
-510,029	276,580	0,034	-0,044
-509,014	247,428	-0,018	-0,023
-507,999	98,681	0,029	-0,024
-506,985	102,816	-0,061	-0,052
-505,970	358,598	0,011	-0,016
-504,956	-138,010	-0,137	-0,011
-503,941	126,784	0,036	-0,033
-502,926	-41,891	0,135	-0,050
-501,912	-161,346	0,075	-0,003
-500,897	249,253	0,098	0,121
-499,883	-200,000	-0,033	-0,144
-498,868	615,016	-0,023	-0,042
-497,853	-200,000	-0,004	0,037
-496,839	-42,446	-0,079	-0,029
-495,824	73,731	0,087	-0,066
-494,810	-200,000	0,000	-0,128
-493,795	-200,000	-0,002	-0,006
-492,781	-7,033	-0,071	-0,035
-491,766	1,959	-0,179	0,094
-490,751	-200,000	-0,023	0,091
-489,737	-200,000	-0,005	0,205
-488,722	-121,993	0,028	0,003
-487,708	-157,996	0,133	-0,006
-486,693	800,000	0,054	0,116
-485,678	460,112	-0,012	-0,019
-484,664	49,905	-0,057	0,040
-483,649	-6,429	-0,077	-0,038
-482,635	23,304	0,052	-0,031
-481,620	405,919	0,025	0,039
-480,605	176,083	-0,012	0,013
-479,591	-200,000	-0,071	0,000
-478,576	23,595	0,178	0,106
-477,562	-200,000	0,007	-0,061
-476,547	2,982	-0,061	-0,032
-475,532	800,000	0,040	-0,102
-474,518	-200,000	0,011	0,096
-473,503	183,826	0,019	0,021
-472,489	-200,000	0,027	0,156
-471,474	-164,159	0,290	-0,010
-470,459	-165,791	-0,098	0,003
-469,445	-8,343	-0,164	0,080
-468,430	-180,221	0,100	0,001
-467,416	-122,669	-0,032	0,004
-466,401	-200,000	-0,005	-0,030
-465,386	469,288	-0,017	0,028
-464,372	102,860	0,186	0,159
-463,357	-18,618	0,053	0,024
-462,343	-53,799	-0,110	-0,036
-461,328	-80,503	-0,030	0,007
-460,313	800,000	-0,010	-0,032
-459,299	169,354	0,106	0,110
-458,284	800,000	0,071	0,147
-457,270	232,268	-0,063	-0,076
-456,255	-200,000	0,012	-0,103
-455,241	-148,071	-0,150	-0,009
-454,226	-200,000	0,006	-0,075
-453,211	166,480	-0,011	-0,011
-452,197	800,000	-0,048	-0,109
-451,182	304,448	0,079	-0,107
-450,168	21,326	-0,075	0,044
-449,153	169,549	-0,050	0,052
-448,138	-200,000	0,049	-0,211
-447,124	449,135	-0,022	0,035
-446,109	-181,180	0,062	-0,001
-445,095	-81,656	0,032	0,008
-444,080	-3,289	0,024	0,012
-443,065	82,993	-0,198	-0,157
-442,051	800,000	-0,013	-0,031
-441,036	800,000	0,044	0,094
-440,022	-160,594	-0,087	0,003
-439,007	-200,000	-0,011	-0,105
-437,992	588,672	0,051	0,093
-436,978	-133,581	0,065	0,006
-435,963	-107,253	0,034	0,005
-434,949	1,191	0,107	0,056
-433,934	-30,589	-0,069	0,028
-432,919	262,995	0,040	0,050
-431,905	531,836	0,074	-0,127
-430,890	52,867	-0,115	0,080
-429,876	-200,000	-0,012	-0,131
-428,861	-68,607	0,062	0,018
-427,846	-18,403	0,073	-0,033
-426,832	-105,651	0,035	-0,006
-425,817	176,665	0,056	-0,060
-424,803	-200,000	-0,003	-0,034
-423,788	372,363	0,086	-0,128
-422,773	-121,722	-0,082	-0,010
-421,759	235,497	0,033	0,039
-420,744	83,760	0,070	-0,055
-419,730	-42,220	-0,065	-0,024
-418,715	-59,224	0,062	0,019
-417,701	-64,616	0,197	-0,058
-416,686	-200,000	0,025	0,096
-415,671	-200,000	-0,017	0,131
-414,657	52,403	0,085	0,059
-413,642	5,512	-0,134	0,072
-412,628	-147,132	-0,107	-0,007
-411,613	80,288	-0,060	0,047
-410,598	-173,871	0,056	-0,001
-409,584	146,308	0,039	0,038
-408,569	3,247	0,053	0,028
-407,555	679,742	-0,038	0,073
-406,540	-200,000	-0,006	-0,047
-405,525	450,521	0,035	-0,056
-404,511	-96,111	-0,138	0,026
-403,496	722,873	0,021	-0,042
-402,482	-133,013	-0,109	-0,010
-401,467	-60,312	0,090	-0,028
-400,452	8,866	0,058	-0,032
-399,438	61,974	0,127	0,092
-398,423	-151,567	-0,165	-0,009
-397,409	800,000	0,020	-0,064
-396,394	341,708	0,038	-0,055
-395,379	-200,000	-0,009	0,031
-394,365	118,008	0,151	0,135
-393,350	36,609	0,014	0,009
-392,336	-200,000	0,008	0,134
-391,321	-200,000	0,003	0,049
-390,306	9,674	-0,052	-0,029
-389,292	58,324	0,045	0,032
-388,277	-151,800	-0,161	0,008
-387,263	-200,000	0,016	-0,058
-386,248	211,409	0,037	0,042
-385,233	188,641	0,055	0,060
-384,219	300,799	0,032	0,043
-383,204	25,149	-0,026	0,015
-382,190	536,558	-0,073	-0,126
-381,175	-183,286	0,036	-0,000
-380,160	-29,645	0,042	-0,017
-379,146	7,665	-0,101	0,055
-378,131	-200,000	0,022	0,129
-377,117	-92,648	-0,212	0,043
-376,102	103,307	-0,149	-0,127
-375,088	17,502	0,123	0,071
-374,073	800,000	0,040	0,086
-373,058	800,000	0,027	0,080
-372,044	-20,540	-0,083	0,037
-371,029	-70,797	0,103	0,028
-370,015	800,000	0,062	0,183
-369,000	547,144	-0,122	-0,213
-367,985	800,000	0,033	-0,082
-366,971	-31,625	-0,068	-0,028
-365,956	164,499	0,023	0,024
-364,942	234,087	0,062	0,074
-363,927	800,000	0,016	-0,051
-362,912	-43,518	0,034	-0,012
-361,898	-135,706	-0,088	0,007
-360,883	114,344	0,055	0,049
-359,869	-152,971	0,092	-0,005
-358,854	-200,000	0,014	-0,087
-357,839	324,555	0,030	0,041
-356,825	307,364	-0,137	0,186
-355,810	-200,000	0,033	0,134
-354,796	-4,143	0,029	0,014
-353,781	-200,000	-0,008	-0,071
-352,766	-160,495	-0,066	-0,003
-351,752	-7,717	0,066	0,032
-350,737	-200,000	-0,000	-0,135
-349,723	-16,840	0,086	0,040
-348,708	229,684	0,024	0,029
-347,693	396,099	-0,033	-0,050
-346,679	-97,271	0,113	0,021
-345,664	-108,751	0,115	-0,018
-344,650	-200,000	-0,001	0,015
-343,635	74,501	0,084	0,064
-342,620	-20,743	0,133	0,059
-341,606	-200,000	-0,012	0,133
-340,591	301,341	-0,085	0,114
-339,577	800,000	-0,013	0,029
-338,562	60,847	-0,166	-0,120
-337,548	21,329	0,014	-0,008
-336,533	179,897	0,043	0,046
-335,518	800,000	-0,016	-0,038
-334,504	-5,404	-0,094	-0,047
-333,489	-121,385	0,101	0,012
-332,475	-200,000	-0,027	-0,087
-331,460	-200,000	0,013	0,143
-330,445	112,346	-0,078	-0,068
-329,431	215,651	0,060	-0,069
-328,416	-200,000	-0,008	0,039
-327,402	94,315	0,106	0,087
-326,387	-200,000	0,001	-0,037
-325,372	-200,000	-0,015	-0,097
-324,358	-200,000	-0,012	0,091
-323,343	800,000	-0,020	0,055
-322,329	-67,843	-0,053	-0,015
-321,314	-200,000	-0,057	0,235
-320,299	-27,548	0,044	0,019
-319,285	-154,072	-0,063	0,003
-318,270	2,052	0,096	-0,050
-317,256	-21,808	-0,184	-0,081
-316,241	-40,461	0,066	0,025
-315,226	-166,856	0,067	0,002
-314,212	-200,000	0,005	0,049
-313,197	118,311	-0,100	0,089
-312,183	-200,000	0,026	0,109
-311,168	181,372	-0,103	-0,110
-310,153	57,649	0,050	0,036
-309,139	-77,404	0,085	-0,021
-308,124	-77,489	-0,033	-0,008
-307,110	12,856	0,105	0,059
-306,095	-59,365	0,144	0,044
-305,080	2,848	0,089	0,047
-304,066	79,076	-0,058	-0,045
-303,051	84,682	-0,127	0,101
-302,037	-200,000	-0,025	-0,079
-301,022	15,066	0,142	0,081
-300,008	-157,371	-0,060	0,003
-298,993	-200,000	0,007	0,094
-297,978	-200,000	-0,009	0,051
-296,964	38,750	-0,092	0,059
-295,949	632,220	-0,024	0,044
-294,935	800,000	0,024	-0,050
-293,920	-47,031	-0,114	-0,040
-292,905	383,043	-0,021	0,031
-291,891	800,000	0,012	0,033
-290,876	122,881	0,148	0,134
-289,862	361,405	0,040	0,058
-288,847	-200,000	0,002	0,081
-287,832	304,313	-0,071	-0,095
-286,818	380,602	-0,106	-0,158
-285,803	-41,666	-0,034	-0,012
-284,789	-200,000	-0,021	0,109
-283,774	-163,731	-0,048	0,002
-282,759	12,676	0,113	-0,063
-281,745	-105,973	-0,052	-0,008
-280,730	277,919	0,057	-0,073
-279,716	157,568	0,070	-0,070
-278,701	126,716	0,053	0,049
-277,686	800,000	0,038	0,104
-276,672	-200,000	0,011	0,051
-275,657	88,818	0,053	0,043
-274,643	123,294	-0,016	-0,014
-273,628	800,000	0,018	-0,055
-272,613	625,512	-0,078	0,143
-271,599	-33,054	-0,031	-0,012
-270,584	-200,000	0,041	0,139
-269,570	-200,000	-0,013	0,044
-268,555	-200,000	0,013	-0,053
-267,540	-200,000	0,023	-0,154
-266,526	-200,000	0,020	-0,166
-265,511	-4,530	-0,059	-0,029
-264,497	147,245	0,042	-0,041
-263,482	-111,007	0,230	0,034
-262,467	408,217	-0,039	0,060
-261,453	-81,741	-0,135	0,032
-260,438	333,462	0,028	0,040
-259,424	19,704	0,076	-0,044
-258,409	-200,000	0,004	0,017
-257,395	-12,702	0,063	0,030
-256,380	-122,150	0,098	-0,011
-255,365	-200,000	-0,028	0,128
-254,351	312,099	-0,095	-0,129
-253,336	165,023	0,038	0,039
-252,322	-56,448	-0,096	0,031
-251,307	-94,177	-0,019	-0,004
-250,292	754,958	0,013	0,025
-249,278	122,870	-0,014	0,013
-248,263	187,735	-0,049	0,053
-247,249	289,030	-0,043	-0,057
-246,234	130,369	-0,027	0,025
-245,219	25,582	-0,068	0,041
-244,205	9,408	0,086	-0,047
-243,190	-123,661	-0,087	-0,010
-242,176	-65,013	0,128	0,037
-241,161	-200,000	-0,018	0,145
-240,146	-54,680	-0,072	-0,024
-239,132	168,135	0,044	-0,045
-238,117	-6,194	-0,069	0,034
-237,103	-200,000	0,021	-0,232
-236,088	160,977	-0,015	-0,015
-235,073	498,758	-0,079	0,133
-234,059	-200,000	0,017	0,075
-233,044	142,766	0,020	0,019
-232,030	800,000	0,023	-0,048
-231,015	1,624	0,037	0,019
-230,000	34,120	-0,112	-0,071
-228,986	125,427	-0,079	-0,072
-227,971	-200,000	-0,007	0,046
-226,957	77,942	0,144	0,111
-225,942	492,164	0,037	-0,061
-224,927	-152,978	-0,023	0,001
-223,913	-200,000	0,028	-0,157
-222,898	-101,580	-0,139	0,024
-221,884	-200,000	-0,019	-0,064
-220,869	19,437	0,114	0,066
-219,855	380,475	-0,050	-0,074
-218,840	-200,000	0,008	0,191
-217,825	-99,233	0,106	0,019
-216,811	339,222	-0,018	-0,026
-215,796	-24,007	-0,048	0,021
-214,782	-82,180	0,170	-0,040
-213,767	61,653	-0,045	0,032
-212,752	-36,929	0,084	0,032
-211,738	30,292	0,060	-0,037
-210,723	-200,000	0,008	0,042
-209,709	-124,355	-0,099	0,011
-208,694	-200,000	0,009	-0,081
-207,679	800,000	-0,014	-0,029
-206,665	-200,000	0,026	0,129
-205,650	64,769	-0,142	-0,104
-204,636	800,000	0,036	-0,094
-203,621	800,000	-0,051	-0,154
-202,606	-200,000	0,001	-0,124
-201,592	70,164	0,096	-0,072
-200,577	-28,075	-0,038	-0,016
-199,563	-98,674	0,148	0,027
-198,548	100,674	0,043	-0,036
-197,533	40,795	-0,068	0,044
-196,519	-200,000	-0,014	-0,047
-195,504	20,077	-0,055	0,032
-194,490	-200,000	0,001	-0,012
-193,475	-110,948	0,056	-0,008
-192,460	165,320	0,100	-0,102
-191,446	170,179	0,046	-0,047
-190,431	2,064	0,099	0,051
-189,417	92,377	0,136	0,110
-188,402	-200,000	0,034	-0,123
-187,387	-200,000	0,020	-0,180
-186,373	-200,000	-0,010	-0,132
-185,358	-132,111	-0,180	-0,017
-184,344	-57,476	0,234	0,074
-183,329	86,064	0,008	-0,006
-182,315	361,771	-0,033	-0,048
-181,300	-27,300	-0,112	0,047
-180,285	-121,317	0,075	-0,009
-179,271	50,205	0,083	-0,056
-178,256	-39,522	-0,098	0,037
-177,242	83,816	0,049	-0,039
-176,227	800,000	0,020	0,059
-175,212	-23,505	-0,052	-0,023
-174,198	152,856	0,033	0,032
-173,183	800,000	-0,028	0,067
-172,169	117,276	-0,056	0,050
-171,154	-200,000	0,002	-0,127
-170,139	616,875	0,092	0,166
-169,125	-200,000	0,029	0,121
-168,110	343,653	-0,126	0,178
-167,096	168,656	0,039	-0,040
-166,081	800,000	-0,028	-0,073
-165,066	16,611	-0,050	-0,028
-164,052	-200,000	0,040	-0,152
-163,037	161,392	-0,076	-0,077
-162,023	-179,516	0,029	-0,000
-161,008	800,000	0,049	-0,099
-159,993	102,026	-0,039	0,033
-158,979	800,000	0,013	-0,036
-157,964	104,512	-0,097	0,082
-156,950	-200,000	0,006	-0,105
-155,935	800,000	0,017	-0,050
-154,920	-9,654	0,087	0,041
-153,906	250,565	0,036	0,044
-152,891	9,442	-0,075	0,041
-151,877	-84,470	-0,062	-0,014
-150,862	111,514	-0,169	0,146
-149,847	-200,000	0,022	0,132
-148,833	800,000	0,028	0,059
-147,818	122,004	0,115	0,103
-146,804	144,054	-0,027	-0,026
-145,789	-200,000	0,014	0,073
-144,775	117,968	-0,064	-0,057
-143,760	259,329	-0,071	0,088
-142,745	-124,493	0,027	-0,003
-141,731	257,652	-0,104	0,130
-140,716	-200,000	-0,021	-0,121
-139,702	-33,064	-0,074	0,029
-138,687	-111,895	-0,069	-0,010
-137,672	-200,000	-0,004	-0,082
-136,658	155,922	0,096	-0,095
-135,643	84,151	0,064	0,051
-134,629	631,605	-0,067	0,123
-133,614	183,777	-0,039	0,041
-132,599	-44,239	0,068	-0,024
-131,585	-200,000	-0,008	-0,112
-130,570	-107,451	0,029	0,005
-129,556	-200,000	0,001	-0,037
-128,541	-65,698	0,049	-0,014
-127,526	87,506	-0,077	-0,061
-126,512	596,016	-0,027	0,048
-125,497	418,353	0,016	0,024
-124,483	-200,000	-0,005	-0,067
-123,468	-32,683	0,077	0,031
-122,453	6,988	-0,028	0,015
-121,439	-158,874	-0,081	-0,003
-120,424	-193,607	0,057	0,000
-119,410	317,866	0,035	0,047
-118,395	97,102	-0,016	0,013
-117,380	-200,000	-0,017	0,105
-116,366	353,487	0,018	0,026
-115,351	800,000	-0,054	0,161
-114,337	-22,031	-0,067	0,029
-113,322	211,044	-0,107	0,121
-112,307	-85,710	0,067	0,015
-111,293	-112,579	0,078	0,011
-110,278	139,946	-0,087	0,083
-109,264	-200,000	-0,012	0,040
-108,249	-200,000	0,004	-0,058
-107,234	-167,073	0,127	0,004
-106,220	427,813	-0,135	0,210
-105,205	565,438	0,010	-0,018
-104,191	342,949	0,070	0,098
-103,176	-186,969	-0,024	-0,000
-102,162	-134,916	-0,129	0,011
-101,147	-9,625	-0,145	-0,069
-100,132	176,131	-0,044	-0,046
-99,118	800,000	0,028	-0,076
-98,103	220,983	-0,030	-0,035
-97,089	-89,420	0,048	-0,010
-96,074	-177,309	0,069	0,001
-95,059	-161,537	0,145	0,005
-94,045	-200,000	-0,039	0,186
-93,030	-25,999	-0,060	0,025
-92,016	111,203	-0,073	0,063
-91,001	-200,000	-0,023	-0,085
-89,986	800,000	-0,045	-0,098
-88,972	142,025	0,055	-0,053
-87,957	62,343	-0,080	-0,058
-86,943	-200,000	0,011	-0,058
-85,928	261,338	-0,053	-0,067
-84,913	260,696	0,108	-0,134
-83,899	123,211	0,044	0,040
-82,884	800,000	0,045	0,097
-81,870	-28,257	-0,130	0,054
-80,855	155,404	0,108	0,107
-79,840	-147,966	-0,028	0,002
-78,826	-32,859	-0,150	0,060
-77,811	-200,000	-0,023	-0,109
-76,797	800,000	-0,056	0,135
-75,782	-194,471	0,080	0,000
-74,767	22,967	0,090	0,053
-73,753	42,368	-0,121	0,079
-72,738	-200,000	-0,006	-0,165
-71,724	-200,000	-0,010	-0,064
-70,709	800,000	-0,033	-0,090
-69,694	11,106	-0,081	-0,044
-68,680	-75,302	0,103	-0,026
-67,665	-200,000	0,009	0,205
-66,651	558,423	0,061	0,107
-65,636	51,356	-0,044	0,030
-64,622	-200,000	0,014	-0,053
-63,607	800,000	-0,026	-0,056
-62,592	459,418	0,048	0,077
-61,578	-70,018	-0,158	0,043
-60,563	201,839	0,047	0,052
-59,549	269,699	0,027	-0,035
-58,534	-16,311	-1,888	-0,857
-57,519	-200,000	-0,326	-1,046
-56,505	-200,000	-1,121	-4,833
-55,490	-55,562	0,635	0,203
-54,476	800,000	5,270	11,978
-53,461	-200,000	17,340	284,769
-52,446	800,000	723,015	2231,630
-51,432	545,198	1638,509	2821,727
-50,417	112,291	1630,936	1415,608
-49,403	76,367	1286,416	977,369
-48,388	32,850	1029,221	638,203
-47,373	20,358	990,986	573,253
-46,359	18,777	978,923	561,060
-45,344	16,274	975,207	550,704
-44,330	16,434	973,654	550,330
-43,315	15,949	971,876	547,716
-42,300	15,975	970,809	547,177
-41,286	15,916	969,796	546,394
-40,271	15,969	968,611	545,875
-39,257	15,990	968,031	545,598
-38,242	16,004	967,002	545,040
-37,227	15,973	966,226	544,480
-36,213	15,963	965,339	543,927
-35,198	15,983	964,468	543,480
-34,184	15,996	963,825	543,138
-33,169	15,880	962,794	542,158
-32,154	15,965	961,949	541,937
-31,140	15,981	960,879	541,364
-30,125	15,936	960,319	540,882
-29,111	16,028	959,200	540,528
-28,096	15,998	958,755	540,158
-27,082	15,966	958,121	539,677
-26,067	15,955	957,410	539,220
-25,052	15,898	956,530	538,519
-24,038	15,919	955,867	538,192
-23,023	15,965	955,155	537,916
-22,009	15,939	954,457	537,419
-20,994	15,955	953,990	537,188
-19,979	15,956	953,495	536,888
-18,965	16,020	952,662	536,603
-17,950	15,981	952,141	536,163
-16,936	15,993	951,381	535,753
-15,921	15,903	950,761	535,096
-14,906	15,876	949,991	534,555
-13,892	15,877	949,245	534,117
-12,877	15,775	948,996	533,630
-11,863	15,833	948,273	533,387
-10,848	15,869	947,721	533,171
-9,833	15,967	947,082	533,102
-8,819	15,901	946,448	532,514
-7,804	15,873	945,761	532,018
-6,790	15,885	945,267	531,756
-5,775	15,907	944,529	531,389
-4,760	15,899	943,948	531,017
-3,746	15,886	943,426	530,660
-2,731	15,711	942,783	529,724
-1,717	15,667	942,181	529,225
-0,702	15,727	941,541	529,033
0,313	15,500	940,924	528,766
1,327	18,581	938,603	537,137
2,342	27,246	796,311	478,722
3,356	23,957	460,417	271,721
4,371	-2,893	314,910	157,262
5,386	-6,844	296,608	144,106
6,400	-8,741	290,398	139,192
7,415	-9,399	288,121	137,439
8,429	-9,464	286,625	136,650
9,444	-9,424	285,565	136,171
10,459	-9,464	285,170	135,931
11,473	-9,481	284,451	135,561
12,488	-9,713	284,043	135,129
13,502	-9,525	283,536	135,057
14,517	-9,357	282,961	134,933
15,531	-9,281	282,443	134,748
16,546	-9,383	282,050	134,451
17,561	-9,253	281,645	134,371
18,575	-9,280	281,429	134,229
19,590	-9,439	281,166	133,939
20,604	-9,463	280,950	133,801
21,619	-9,391	280,389	133,592
22,634	-9,445	280,139	133,409
23,648	-9,616	279,769	133,057
24,663	-9,387	279,539	133,155
25,677	-9,572	279,515	132,954
26,692	-9,369	279,138	132,957
27,707	-9,470	278,644	132,614
28,721	-9,599	278,519	132,420
29,736	-9,548	278,254	132,331
30,750	-9,327	277,921	132,370
31,765	-9,543	277,743	132,068
32,780	-9,281	277,269	132,079
33,794	-9,674	277,318	131,719
34,809	-9,462	276,920	131,718
35,823	-9,577	276,621	131,456
36,838	-9,607	276,417	131,319
37,853	-9,546	276,342	131,329
38,867	-9,445	275,827	131,168
39,882	-9,543	275,824	131,063
40,896	-9,454	275,448	130,956
41,911	-9,537	275,143	130,721
42,926	-9,559	274,876	130,562
43,940	-9,551	274,834	130,538
44,955	-9,599	274,633	130,386
45,969	-9,563	274,138	130,173
46,984	-9,838	274,094	129,883
47,999	-9,959	273,751	129,596
49,013	-10,133	273,453	129,281
50,028	-9,980	273,119	129,254
51,042	-9,963	272,804	129,110
52,057	-10,216	272,728	128,827
53,071	-10,162	272,547	128,780
54,086	-10,102	272,319	128,716
55,101	-9,878	272,151	128,833
56,115	-9,667	271,967	128,930
57,130	-9,466	271,914	129,080
58,144	-9,365	271,598	129,012
59,159	-9,371	271,619	129,005
60,174	-9,363	271,149	128,778
61,188	-9,516	271,077	128,590
62,203	-9,317	270,754	128,609
63,217	-9,353	270,683	128,531
64,232	-9,333	270,385	128,396
65,247	-9,430	270,081	128,151
66,261	-9,351	269,929	128,140
67,276	-9,503	269,515	127,793
68,290	-9,771	269,377	127,471
69,305	-9,985	269,130	127,146
70,320	-9,776	268,922	127,228
71,334	-9,702	268,892	127,270
72,349	-9,186	268,483	127,537
73,363	-9,219	268,179	127,351
74,378	-9,346	268,096	127,184
75,393	-9,449	267,977	127,023
76,407	-9,267	267,667	127,030
77,422	-9,494	267,571	126,766
78,436	-9,391	267,431	126,783
79,451	-9,197	266,951	126,720
80,466	-9,359	266,750	126,466
81,480	-9,661	266,535	126,079
82,495	-9,524	266,324	126,092
83,509	-9,660	266,200	125,899
84,524	-9,657	266,044	125,817
85,539	-9,837	265,745	125,502
86,553	-9,633	265,473	125,546
87,568	-9,537	265,204	125,494
88,582	-9,618	265,116	125,368
89,597	-9,495	264,793	125,315
90,611	-9,478	264,885	125,363
91,626	-9,337	264,572	125,330
92,641	-9,357	264,455	125,245
93,655	-9,372	264,055	125,031
94,670	-9,430	263,905	124,897
95,684	-9,545	263,874	124,768
96,699	-9,502	263,492	124,615
97,714	-9,453	263,322	124,567
98,728	-9,572	263,237	124,410
99,743	-9,698	262,913	124,133
100,757	-9,660	262,603	124,009
101,772	-9,583	262,467	124,003
102,787	-9,455	262,335	124,043
103,801	-9,616	262,279	123,862
104,816	-9,354	261,949	123,929
105,830	-9,380	261,798	123,823
106,845	-9,404	261,532	123,665
107,860	-9,488	261,357	123,497
108,874	-9,433	261,186	123,453
109,889	-9,442	260,919	123,308
110,903	-9,509	260,669	123,120
111,918	-9,301	260,416	123,173
112,933	-9,429	260,405	123,044
113,947	-9,510	260,304	122,914
114,962	-9,575	259,984	122,695
115,976	-9,352	259,880	122,831
116,991	-9,394	259,671	122,684
118,006	-9,443	259,552	122,574
119,020	-9,383	259,347	122,519
120,035	-9,371	259,277	122,485
121,049	-9,360	258,983	122,345
122,064	-9,233	258,747	122,335
123,079	-9,419	258,629	122,104
124,093	-9,574	258,434	121,866
125,108	-9,731	258,121	121,570
126,122	-9,696	257,754	121,417
127,137	-10,003	257,678	121,103
128,151	-9,868	257,493	121,122
129,166	-9,641	257,292	121,215
130,181	-9,434	257,066	121,278
131,195	-9,540	256,916	121,104
132,210	-9,460	256,743	121,081
133,224	-9,379	256,484	121,018
134,239	-9,447	256,411	120,914
135,254	-9,347	256,188	120,885
136,268	-9,542	256,167	120,695
137,283	-9,765	255,942	120,385
138,297	-9,758	255,592	120,215
139,312	-9,778	255,391	120,093
140,327	-9,626	255,309	120,176
141,341	-9,543	255,186	120,179
142,356	-9,304	255,026	120,299
143,370	-9,228	254,732	120,215
144,385	-9,107	254,623	120,257
145,400	-9,215	254,541	120,114
146,414	-9,230	254,315	119,985
147,429	-9,242	253,998	119,814
148,443	-9,343	253,899	119,670
149,458	-9,208	253,760	119,709
150,473	-9,203	253,507	119,584
151,487	-9,204	253,303	119,476
152,502	-9,345	253,336	119,360
153,516	-9,078	252,899	119,372
154,531	-9,264	252,832	119,170
155,546	-8,944	252,534	119,292
156,560	-9,074	252,341	119,080
157,575	-9,415	252,187	118,706
158,589	-9,249	252,133	118,811
159,604	-9,088	251,950	118,852
160,619	-9,042	251,687	118,756
161,633	-9,310	251,524	118,440
162,648	-9,132	251,468	118,555
163,662	-9,159	251,239	118,414
164,677	-9,243	251,059	118,247
165,692	-9,259	251,077	118,231
166,706	-9,318	250,864	118,070
167,721	-9,183	250,552	118,028
168,735	-9,255	250,496	117,930
169,750	-9,124	250,296	117,935
170,764	-9,089	250,142	117,882
171,779	-9,218	250,075	117,731
172,794	-8,980	249,797	117,790
173,808	-9,371	249,591	117,353
174,823	-9,546	249,277	117,048
175,837	-9,601	249,044	116,882
176,852	-9,351	248,976	117,050
177,867	-9,245	248,939	117,110
178,881	-9,058	248,769	117,177
179,896	-9,111	248,614	117,049
180,910	-8,966	248,377	117,048
181,925	-9,120	248,288	116,867
182,940	-9,313	248,061	116,589
183,954	-9,119	248,032	116,727
184,969	-9,113	247,766	116,596
185,983	-9,140	247,635	116,501
186,998	-9,035	247,424	116,479
188,013	-9,144	247,233	116,289
189,027	-9,260	247,035	116,088
190,042	-9,096	246,823	116,114
191,056	-8,988	246,694	116,133
192,071	-9,134	246,495	115,908
193,086	-9,201	246,389	115,792
194,100	-9,136	246,136	115,717
195,115	-9,084	245,946	115,661
196,129	-9,020	245,853	115,659
197,144	-9,290	245,593	115,303
198,159	-9,241	245,385	115,236
199,173	-9,407	245,401	115,096
200,188	-9,106	245,125	115,205
201,202	-9,494	244,834	114,738
202,217	-9,653	244,483	114,433
203,232	-9,727	244,289	114,270
204,246	-9,429	244,389	114,552
205,261	-8,969	244,186	114,825
206,275	-9,753	243,664	113,927
207,290	-6,624	245,146	117,188
208,304	0,668	247,346	124,276
209,319	3,736	248,168	127,222
210,334	4,178	248,236	127,611
211,348	4,331	248,087	127,651
212,363	4,590	248,040	127,829
213,377	4,633	247,905	127,783
214,392	4,447	247,762	127,544
215,407	4,197	247,622	127,255
216,421	4,465	247,283	127,290
217,436	4,651	247,232	127,406
218,450	4,663	247,098	127,335
219,465	4,295	246,818	126,877
220,480	4,246	246,728	126,779
221,494	4,175	246,527	126,606
222,509	4,394	246,245	126,630
223,523	4,406	246,049	126,527
224,538	3,818	245,919	125,967
225,553	4,021	245,748	126,035
226,567	3,951	245,670	125,927
227,582	4,153	245,590	126,039
228,596	4,107	245,351	125,868
229,611	3,878	245,167	125,576
230,626	3,770	244,884	125,331
231,640	3,644	244,835	125,192
232,655	3,969	244,768	125,411
233,669	3,866	244,451	125,154
234,684	3,794	244,167	124,939
235,699	4,066	244,196	125,164
236,713	4,355	244,081	125,328
237,728	3,771	243,848	124,724
238,742	3,835	243,604	124,640
239,757	3,903	243,498	124,629
240,772	3,786	243,438	124,492
241,786	3,970	243,132	124,474
242,801	3,938	242,912	124,324
243,815	3,691	242,970	124,143
244,830	3,877	242,874	124,234
245,844	3,999	242,663	124,213
246,859	3,865	242,479	123,999
247,874	3,881	242,172	123,844
248,888	3,849	242,241	123,842
249,903	4,071	241,910	123,841
250,917	4,135	241,971	123,913
251,932	4,368	241,784	123,993
252,947	4,174	241,497	123,680
253,961	3,794	241,341	123,283
254,976	3,973	241,165	123,326
255,990	4,235	240,908	123,393
257,005	3,824	240,896	123,047
258,020	3,709	240,686	122,837
259,034	3,999	240,509	122,967
260,049	4,015	240,373	122,899
261,063	3,853	240,275	122,710
262,078	3,806	240,016	122,529
263,093	4,244	239,851	122,782
264,107	4,205	239,827	122,728
265,122	4,042	239,705	122,525
266,136	3,982	239,642	122,435
267,151	4,341	239,488	122,630
268,166	4,011	239,279	122,251
269,180	3,737	239,040	121,899
270,195	4,400	238,944	122,365
271,209	4,540	238,979	122,484
272,224	4,047	238,475	121,824
273,239	3,711	238,315	121,466
274,253	3,654	238,243	121,373
275,268	4,026	238,121	121,594
276,282	4,035	238,046	121,552
277,297	3,752	237,693	121,138
278,312	3,733	237,671	121,101
279,326	4,104	237,487	121,288
280,341	3,875	237,423	121,065
281,355	4,036	237,224	121,079
282,370	4,088	237,159	121,076
283,384	3,728	236,977	120,690
284,399	3,838	236,582	120,564
285,414	3,619	236,600	120,391
286,428	3,668	236,414	120,324
287,443	3,946	236,346	120,496
288,457	4,042	236,170	120,470
289,472	4,042	235,903	120,323
290,487	3,745	235,911	120,085
291,501	3,878	235,647	120,044
292,516	3,547	235,451	119,675
293,530	3,808	235,188	119,734
294,545	3,954	235,318	119,903
295,560	3,815	235,041	119,643
296,574	3,813	234,779	119,498
297,589	3,985	234,667	119,564
298,603	4,035	234,723	119,620
299,618	3,939	234,536	119,440
300,633	3,992	234,471	119,437
301,647	4,038	234,397	119,424
302,662	4,228	234,337	119,531
303,676	4,474	234,020	119,549
304,691	4,270	233,883	119,311
305,706	4,380	233,644	119,263
306,720	4,427	233,534	119,232
307,735	4,182	233,338	118,932
308,749	3,863	233,391	118,702
309,764	3,958	233,047	118,590
310,779	3,813	232,700	118,291
311,793	3,616	232,622	118,090
312,808	3,476	232,519	117,919
313,822	3,712	232,350	118,004
314,837	3,672	232,226	117,900
315,852	3,676	232,069	117,813
316,866	3,746	232,066	117,855
317,881	4,094	231,831	117,992
318,895	3,967	231,579	117,755
319,910	4,102	231,596	117,857
320,925	4,126	231,420	117,775
321,939	3,919	231,231	117,511
322,954	4,240	231,056	117,656
323,968	3,923	231,018	117,385
324,983	3,656	230,806	117,062
325,997	4,019	230,657	117,253
327,012	4,013	230,676	117,248
328,027	4,138	230,462	117,223
329,041	4,095	230,394	117,146
330,056	4,769	230,407	117,655
331,070	4,800	230,099	117,510
332,085	4,379	229,990	117,125
333,100	4,147	229,593	116,736
334,114	4,276	229,458	116,755
335,129	4,461	229,497	116,905
336,143	4,673	229,393	117,002
337,158	4,550	229,243	116,821
338,173	4,380	228,914	116,515
339,187	3,853	228,917	116,108
340,202	4,217	228,753	116,290
341,216	4,039	228,552	116,043
342,231	4,195	228,307	116,026
343,246	4,188	228,100	115,904
344,260	4,178	228,043	115,857
345,275	4,230	228,091	115,911
346,289	4,389	227,962	115,954
347,304	4,357	227,885	115,881
348,319	4,551	227,607	115,875
349,333	4,262	227,373	115,529
350,348	4,159	227,237	115,372
351,362	4,107	227,082	115,245
352,377	4,144	226,901	115,169
353,392	3,831	226,747	114,848
354,406	3,763	226,672	114,749
355,421	195,739	1321,208	1399,021
356,435	156,938	1454,558	1399,046
