DTS Sentinel unit serial number:	SN410029Multiplexer serial number:	ORYXHardware model number:	OX2-SRSoftware version number:	ORYX F/W v4,00 Oryx Data Collector v3.7.2.0data status	okinstallation	B5 Nyhavnadifferential loss correction	single-endedforward channel	channel 2reverse channel	N/Adate	2023/12/12time	09:57:13forward acquisition time	300,00reverse acquisition time	0,00gamma	499,1914k internal	0,3158k external	0,3158temperature offset calibration	1,0000default loss term (dB/km)	0,3820temperature slope calibration	1,0000multiplexer offset coefficient	1,0000multiplexer slope coefficient	1,0000fibre end	0,00T internal ref (°C)	15,00T ext. ref 1 (°C)	-1,31T ext. ref 2 (°C)	-1,62length (m)	temperature (°C)	Stokes	anti-Stokes-744,400	17,582	0,036	-0,021
-743,385	-79,079	-0,354	0,088
-742,371	-142,872	0,058	0,004
-741,356	-66,565	-0,280	0,081
-740,342	-114,759	0,164	0,023
-739,327	-34,938	-0,299	-0,120
-738,312	-21,783	-0,135	-0,060
-737,298	-171,590	-0,205	0,005
-736,283	-75,506	0,116	0,030
-735,269	-92,050	-0,283	0,059
-734,254	111,230	0,052	-0,046
-733,239	-60,971	-0,412	-0,127
-732,225	48,475	0,071	0,049
-731,210	2,052	0,113	0,060
-730,196	-200,000	0,025	-0,098
-729,181	82,938	-0,123	-0,099
-728,167	800,000	-0,035	0,101
-727,152	-133,670	-0,161	0,015
-726,137	800,000	0,039	-0,081
-725,123	800,000	0,017	0,052
-724,108	77,846	-0,082	0,064
-723,094	-200,000	-0,006	-0,121
-722,079	255,016	-0,105	-0,132
-721,064	237,417	-0,111	-0,136
-720,050	-135,538	-0,113	-0,010
-719,035	-200,000	-0,013	-0,100
-718,021	592,655	-0,043	-0,079
-717,006	676,370	-0,045	-0,086
-715,991	82,395	-0,078	-0,063
-714,977	64,459	-0,091	0,067
-713,962	-200,000	-0,001	0,105
-712,948	-200,000	-0,019	-0,073
-711,933	191,074	-0,046	0,051
-710,918	-200,000	0,030	0,101
-709,904	632,009	-0,109	-0,203
-708,889	-8,630	0,156	-0,077
-707,875	-66,619	-0,194	0,056
-706,860	-118,258	-0,061	-0,008
-705,845	800,000	0,031	0,093
-704,831	-109,726	-0,047	0,007
-703,816	148,128	0,087	-0,086
-702,802	-165,954	-0,184	-0,006
-701,787	240,071	-0,080	-0,098
-700,772	115,568	-0,066	-0,059
-699,758	-200,000	-0,006	-0,179
-698,743	389,663	0,006	-0,009
-697,729	44,903	0,135	-0,091
-696,714	800,000	-0,045	-0,142
-695,699	-55,603	-0,029	-0,010
-694,685	-23,535	-0,079	0,035
-693,670	97,363	-0,090	-0,076
-692,656	20,715	0,173	0,103
-691,641	800,000	0,029	0,068
-690,627	70,894	-0,028	-0,021
-689,612	-9,617	-0,062	-0,030
-688,597	-161,155	0,062	-0,002
-687,583	75,079	0,071	0,055
-686,568	20,496	-0,061	-0,036
-685,554	-161,496	0,071	-0,003
-684,539	-118,479	-0,063	0,008
-683,524	98,159	0,060	0,051
-682,510	-200,000	-0,023	0,075
-681,495	-95,031	-0,128	-0,025
-680,481	-15,172	-0,097	-0,045
-679,466	-67,962	-0,117	-0,033
-678,451	-165,679	-0,140	0,004
-677,437	234,175	-0,047	-0,057
-676,422	-77,940	-0,135	0,034
-675,408	109,966	0,148	0,131
-674,393	800,000	0,015	0,046
-673,378	121,543	-0,084	-0,077
-672,364	-73,740	-0,181	0,048
-671,349	800,000	-0,034	-0,098
-670,335	-57,204	-0,037	-0,012
-669,320	148,179	0,038	0,038
-668,305	367,933	-0,018	0,026
-667,291	-91,005	-0,126	0,026
-666,276	364,537	0,090	-0,134
-665,262	220,986	-0,123	-0,145
-664,247	99,810	-0,102	-0,087
-663,232	-200,000	-0,041	-0,139
-662,218	74,566	0,011	-0,008
-661,203	800,000	0,031	0,066
-660,189	402,746	0,044	-0,069
-659,174	-93,877	0,066	0,013
-658,159	-200,000	-0,004	0,072
-657,145	-18,784	-0,279	-0,127
-656,130	800,000	0,031	0,074
-655,116	-179,761	-0,023	-0,000
-654,101	-43,022	0,078	0,029
-653,086	-200,000	-0,004	-0,030
-652,072	800,000	-0,056	-0,144
-651,057	30,647	-0,090	-0,056
-650,043	407,338	-0,004	-0,006
-649,028	-116,321	-0,034	-0,005
-648,014	800,000	0,026	-0,078
-646,999	786,554	0,039	0,080
-645,984	-138,037	-0,067	-0,005
-644,970	800,000	-0,010	-0,027
-643,955	-200,000	0,005	-0,065
-642,941	43,728	-0,047	-0,032
-641,926	800,000	0,060	-0,132
-640,911	65,288	0,089	0,066
-639,897	145,505	-0,085	0,084
-638,882	-200,000	0,001	0,155
-637,868	-75,781	-0,161	0,042
-636,853	-21,893	-0,096	0,043
-635,838	-200,000	-0,001	-0,143
-634,824	38,797	-0,140	0,091
-633,809	34,449	0,126	-0,081
-632,795	611,045	0,091	0,168
-631,780	297,602	-0,016	0,021
-630,765	-96,340	-0,148	-0,028
-629,751	11,301	-0,072	-0,040
-628,736	-91,324	-0,109	0,023
-627,722	128,453	-0,044	-0,041
-626,707	307,109	0,039	0,054
-625,692	310,291	0,063	0,087
-624,678	187,923	0,077	0,084
-623,663	-32,634	0,054	-0,022
-622,649	42,702	-0,180	-0,120
-621,634	-200,000	-0,006	0,053
-620,619	-200,000	0,008	-0,035
-619,605	-200,000	0,010	-0,048
-618,590	34,157	0,027	0,017
-617,576	-152,319	0,088	0,005
-616,561	-200,000	-0,008	0,203
-615,546	93,677	-0,067	-0,055
-614,532	-200,000	-0,096	0,000
-613,517	538,316	0,035	-0,061
-612,503	-200,000	-0,016	0,093
-611,488	-46,571	0,086	0,031
-610,474	800,000	-0,016	0,044
-609,459	241,347	-0,057	-0,070
-608,444	-200,000	-0,003	-0,064
-607,430	445,102	-0,086	-0,139
-606,415	-200,000	-0,002	0,021
-605,401	439,247	-0,104	0,167
-604,386	-120,793	0,024	0,003
-603,371	-200,000	0,047	0,155
-602,357	496,433	-0,014	0,024
-601,342	-78,673	-0,250	0,062
-600,328	-3,270	0,061	-0,031
-599,313	-39,215	-0,066	0,025
-598,298	88,462	-0,101	0,082
-597,284	367,198	0,054	-0,080
-596,269	800,000	0,020	0,060
-595,255	-200,000	-0,029	0,122
-594,240	800,000	0,014	-0,039
-593,225	32,850	-0,087	0,055
-592,211	-200,000	0,024	0,084
-591,196	800,000	-0,020	0,060
-590,182	36,106	0,135	-0,087
-589,167	59,870	-0,034	-0,025
-588,152	-200,000	0,052	-0,195
-587,138	199,098	-0,080	-0,090
-586,123	-200,000	0,012	-0,109
-585,109	-193,763	-0,137	-0,001
-584,094	166,086	-0,065	0,068
-583,079	-139,225	0,136	-0,011
-582,065	461,798	0,023	0,037
-581,050	6,444	-0,124	0,067
-580,036	800,000	0,067	0,139
-579,021	-7,870	-0,090	0,045
-578,006	394,853	0,144	-0,220
-576,992	326,608	0,080	-0,112
-575,977	534,931	-0,035	-0,060
-574,963	157,295	0,075	-0,076
-573,948	257,822	0,056	0,071
-572,934	370,320	0,053	0,078
-571,919	800,000	-0,075	-0,200
-570,904	20,335	-0,146	-0,086
-569,890	-200,000	-0,033	0,137
-568,875	-68,049	0,066	-0,019
-567,861	-138,082	0,111	0,009
-566,846	14,386	0,071	-0,040
-565,831	134,469	-0,063	-0,060
-564,817	116,033	-0,043	-0,039
-563,802	-200,000	0,024	-0,130
-562,788	705,387	-0,009	0,017
-561,773	-200,000	-0,011	-0,037
-560,758	-94,711	0,128	-0,025
-559,744	-39,178	0,133	0,051
-558,729	222,061	0,077	-0,091
-557,715	-126,359	-0,077	0,008
-556,700	51,610	-0,079	-0,055
-555,685	800,000	0,023	-0,058
-554,671	-143,393	-0,034	-0,002
-553,656	31,546	-0,079	0,050
-552,642	-200,000	0,022	0,102
-551,627	-183,786	0,122	0,001
-550,612	42,477	0,141	-0,093
-549,598	-200,000	-0,043	-0,268
-548,583	84,607	-0,045	0,036
-547,569	369,663	-0,062	-0,092
-546,554	347,068	0,081	-0,117
-545,539	330,813	0,044	-0,062
-544,525	-168,996	-0,067	-0,002
-543,510	-117,451	0,067	0,009
-542,496	-200,000	-0,025	0,132
-541,481	-200,000	0,013	-0,056
-540,466	156,511	0,035	0,035
-539,452	-90,521	-0,052	-0,011
-538,437	-200,000	-0,034	0,114
-537,423	25,757	-0,074	0,045
-536,408	30,536	0,067	0,042
-535,393	800,000	-0,014	0,039
-534,379	-200,000	-0,022	-0,123
-533,364	-200,000	-0,030	-0,099
-532,350	685,815	0,015	0,029
-531,335	-200,000	0,023	0,084
-530,321	244,041	-0,068	0,084
-529,306	229,959	0,078	0,093
-528,291	-113,363	0,094	0,013
-527,277	184,890	-0,044	0,048
-526,262	-200,000	0,002	-0,035
-525,248	89,387	0,057	-0,046
-524,233	-76,992	0,120	-0,030
-523,218	800,000	-0,014	-0,040
-522,204	85,581	-0,147	-0,118
-521,189	-67,611	-0,087	-0,025
-520,175	241,505	-0,054	-0,066
-519,160	-200,000	0,000	-0,118
-518,145	-18,003	-0,097	-0,044
-517,131	754,371	0,043	0,085
-516,116	-141,014	0,261	0,019
-515,102	490,826	0,007	0,012
-514,087	189,489	0,064	-0,071
-513,072	10,946	-0,093	0,052
-512,058	85,618	0,059	-0,047
-511,043	7,620	0,099	-0,054
-510,029	233,929	-0,032	0,038
-509,014	52,063	-0,054	-0,038
-507,999	202,742	-0,062	-0,070
-506,985	70,925	-0,153	-0,115
-505,970	189,812	-0,084	-0,092
-504,956	800,000	-0,048	-0,136
-503,941	-200,000	-0,007	0,094
-502,926	381,636	0,065	0,097
-501,912	53,298	-0,086	0,060
-500,897	146,823	0,193	0,189
-499,883	74,239	-0,046	-0,035
-498,868	-200,000	0,008	-0,033
-497,853	99,176	-0,044	-0,037
-496,839	800,000	-0,045	-0,146
-495,824	-200,000	-0,015	0,060
-494,810	68,764	0,124	0,093
-493,795	-55,753	0,084	0,027
-492,781	243,953	-0,055	-0,068
-491,766	63,536	0,044	0,032
-490,751	9,918	-0,038	-0,021
-489,737	-200,000	0,021	-0,087
-488,722	42,661	0,085	-0,056
-487,708	145,208	0,079	0,077
-486,693	-74,037	-0,079	0,021
-485,678	-95,287	0,161	-0,031
-484,664	81,514	-0,048	-0,038
-483,649	85,298	0,017	-0,014
-482,635	668,693	-0,022	-0,042
-481,620	420,412	0,052	0,081
-480,605	800,000	0,049	0,116
-479,591	25,324	0,086	0,052
-478,576	109,688	-0,055	0,048
-477,562	800,000	0,027	-0,061
-476,547	19,331	-0,098	0,057
-475,532	-200,000	0,010	-0,088
-474,518	94,971	0,035	0,029
-473,503	74,914	-0,053	0,041
-472,489	-114,747	0,044	0,006
-471,474	-200,000	0,031	-0,147
-470,459	64,071	0,036	-0,026
-469,445	246,273	0,050	0,061
-468,430	170,363	0,055	-0,058
-467,416	177,113	-0,061	-0,065
-466,401	152,109	0,064	0,064
-465,386	800,000	0,010	-0,032
-464,372	112,393	0,025	-0,022
-463,357	800,000	0,033	0,103
-462,343	-94,717	0,091	0,018
-461,328	-200,000	-0,015	-0,065
-460,313	141,170	-0,020	-0,019
-459,299	-164,406	0,041	0,001
-458,284	49,140	0,057	0,039
-457,270	267,388	0,034	0,043
-456,255	-200,000	-0,007	-0,155
-455,241	625,341	0,038	0,071
-454,226	32,618	0,088	-0,055
-453,211	-200,000	0,009	0,053
-452,197	-9,744	0,125	-0,060
-451,182	800,000	-0,044	0,124
-450,168	62,343	0,112	0,081
-449,153	81,511	-0,130	-0,102
-448,138	-200,000	0,015	-0,080
-447,124	-114,266	0,042	-0,006
-446,109	4,264	0,128	0,068
-445,095	-200,000	0,017	0,096
-444,080	-74,380	0,084	0,022
-443,065	178,190	0,021	0,022
-442,051	800,000	0,021	-0,056
-441,036	-105,576	0,105	-0,017
-440,022	-30,199	-0,103	0,043
-439,007	107,317	0,075	-0,065
-437,992	-120,258	0,075	-0,009
-436,978	-109,279	-0,092	-0,014
-435,963	19,421	0,046	0,027
-434,949	-89,089	-0,142	-0,030
-433,934	311,047	0,031	-0,043
-432,919	-150,675	-0,114	-0,006
-431,905	259,221	-0,038	0,047
-430,890	-107,714	-0,094	0,015
-429,876	-200,000	0,025	0,087
-428,861	275,092	-0,048	0,062
-427,846	-200,000	-0,021	-0,155
-426,832	-192,860	-0,040	0,000
-425,817	-18,837	-0,060	0,027
-424,803	37,541	0,152	-0,098
-423,788	-200,000	0,000	0,044
-422,773	516,191	-0,052	0,089
-421,759	800,000	0,017	0,039
-420,744	-25,383	-0,162	-0,069
-419,730	-200,000	-0,039	-0,140
-418,715	350,260	-0,080	-0,116
-417,701	-200,000	0,011	0,057
-416,686	528,572	-0,053	0,092
-415,671	-127,234	0,191	0,020
-414,657	800,000	0,062	0,129
-413,642	97,028	0,008	0,006
-412,628	72,803	-0,091	-0,069
-411,613	-172,323	-0,208	0,005
-410,598	9,378	0,089	0,049
-409,584	-200,000	0,004	0,072
-408,569	375,794	0,058	0,087
-407,555	382,591	0,059	-0,089
-406,540	150,341	0,015	0,015
-405,525	-15,607	0,113	-0,052
-404,511	318,622	-0,053	0,073
-403,496	-200,000	-0,006	-0,111
-402,482	-101,908	0,146	-0,025
-401,467	-200,000	-0,020	0,069
-400,452	11,211	0,018	0,010
-399,438	60,760	0,115	0,083
-398,423	362,301	-0,035	0,051
-397,409	-200,000	0,010	0,102
-396,394	800,000	-0,022	-0,056
-395,379	-200,000	-0,016	-0,063
-394,365	800,000	0,068	0,188
-393,350	318,983	-0,069	0,096
-392,336	-16,497	0,042	-0,019
-391,321	-200,000	0,021	-0,197
-390,306	-16,643	-0,071	0,032
-389,292	15,596	-0,032	-0,018
-388,277	-28,948	0,100	-0,041
-387,263	-200,000	-0,033	0,138
-386,248	800,000	0,013	0,035
-385,233	-200,000	0,019	0,085
-384,219	-35,574	0,060	-0,024
-383,204	-59,592	-0,153	-0,048
-382,190	120,327	0,029	-0,026
-381,175	-200,000	0,005	0,024
-380,160	167,327	-0,106	-0,110
-379,146	800,000	-0,034	-0,079
-378,131	128,395	0,054	-0,050
-377,117	-64,890	-0,042	-0,012
-376,102	-200,000	0,010	-0,083
-375,088	-118,238	-0,079	0,010
-374,073	800,000	0,031	0,094
-373,058	-129,448	0,224	0,022
-372,044	800,000	0,028	-0,065
-371,029	144,018	-0,008	-0,008
-370,015	-200,000	-0,043	0,170
-369,000	187,623	0,053	0,058
-367,985	800,000	-0,017	-0,040
-366,971	-20,740	0,056	-0,025
-365,956	396,855	0,081	0,123
-364,942	-21,838	0,125	0,055
-363,927	-89,555	0,098	-0,021
-362,912	-124,797	-0,156	0,017
-361,898	482,921	-0,038	-0,063
-360,883	-24,042	-0,108	0,047
-359,869	800,000	0,026	0,070
-358,854	-200,000	0,001	0,131
-357,839	221,943	0,087	0,102
-356,825	291,772	0,118	0,157
-355,810	-200,000	0,002	0,058
-354,796	9,662	0,099	-0,054
-353,781	800,000	-0,045	-0,144
-352,766	227,654	0,083	-0,098
-351,752	-102,025	0,035	-0,006
-350,737	319,808	0,040	-0,056
-349,723	-56,928	0,097	0,031
-348,708	-107,832	0,036	0,006
-347,693	-200,000	0,029	0,201
-346,679	85,915	-0,089	-0,071
-345,664	108,979	-0,023	0,020
-344,650	106,209	0,080	0,069
-343,635	131,715	-0,107	0,100
-342,620	-114,756	-0,069	0,009
-341,606	200,995	-0,113	0,126
-340,591	-55,677	-0,077	-0,025
-339,577	-200,000	0,005	0,041
-338,562	800,000	-0,062	-0,175
-337,548	800,000	0,080	-0,163
-336,533	35,369	-0,122	0,077
-335,518	147,008	0,094	0,092
-334,504	38,069	-0,061	-0,040
-333,489	-130,148	-0,089	0,009
-332,475	105,525	0,014	-0,012
-331,460	227,031	0,080	-0,094
-330,445	214,270	-0,011	-0,012
-329,431	800,000	-0,055	0,124
-328,416	41,007	-0,179	0,117
-327,402	800,000	0,032	-0,090
-326,387	-200,000	-0,039	-0,150
-325,372	461,236	-0,048	-0,077
-324,358	-53,204	-0,086	-0,029
-323,343	-7,200	-0,099	0,049
-322,329	120,410	-0,039	-0,036
-321,314	-2,814	0,102	0,051
-320,299	80,837	0,027	-0,021
-319,285	302,256	0,122	0,165
-318,270	42,255	-0,025	-0,017
-317,256	-200,000	-0,023	-0,083
-316,241	88,036	-0,059	-0,047
-315,226	248,749	-0,057	0,071
-314,212	245,502	0,051	0,062
-313,197	90,447	0,062	-0,050
-312,183	788,348	0,010	0,020
-311,168	-46,508	-0,115	-0,041
-310,153	185,874	-0,052	-0,056
-309,139	263,996	-0,073	0,092
-308,124	60,693	0,050	0,036
-307,110	779,964	0,058	-0,115
-306,095	22,189	0,106	0,062
-305,080	-60,717	-0,055	0,017
-304,066	-200,000	-0,027	-0,107
-303,051	-94,469	-0,055	-0,011
-302,037	-200,000	-0,042	-0,141
-301,022	-115,988	0,117	0,016
-300,008	-142,356	0,101	0,007
-298,993	91,497	0,044	0,036
-297,978	448,874	-0,022	0,036
-296,964	-78,059	-0,071	-0,018
-295,949	40,402	-0,063	-0,041
-294,935	-107,072	-0,073	0,012
-293,920	-200,000	-0,022	-0,111
-292,905	725,548	0,061	0,118
-291,891	800,000	0,004	0,010
-290,876	512,492	0,044	-0,074
-289,862	287,696	-0,072	-0,095
-288,847	12,558	0,050	-0,028
-287,832	-13,692	-0,031	-0,015
-286,818	-200,000	0,047	0,000
-285,803	-154,706	0,097	-0,005
-284,789	108,384	-0,059	-0,051
-283,774	-200,000	0,006	-0,041
-282,759	209,407	0,038	-0,043
-281,745	30,318	0,036	0,022
-280,730	41,802	-0,116	-0,076
-279,716	-97,587	-0,083	0,015
-278,701	-200,000	0,019	0,070
-277,686	-166,154	0,066	-0,002
-276,672	-109,714	-0,031	-0,005
-275,657	-200,000	-0,004	-0,028
-274,643	800,000	0,014	0,033
-273,628	-200,000	-0,046	-0,155
-272,613	82,441	-0,111	-0,087
-271,599	382,300	-0,099	0,147
-270,584	800,000	-0,007	-0,016
-269,570	-200,000	0,045	0,159
-268,555	255,481	-0,114	0,142
-267,540	-62,265	0,026	0,008
-266,526	175,948	-0,071	-0,074
-265,511	-15,356	-0,189	0,087
-264,497	-23,527	0,106	0,046
-263,482	58,396	0,128	-0,090
-262,467	494,266	0,018	-0,030
-261,453	127,115	-0,059	0,054
-260,438	-200,000	0,033	-0,191
-259,424	734,530	-0,034	-0,066
-258,409	-200,000	0,010	0,064
-257,395	-75,597	0,077	-0,020
-256,380	365,059	-0,075	0,109
-255,365	47,678	-0,109	-0,074
-254,351	153,840	-0,032	-0,032
-253,336	-115,864	0,022	-0,003
-252,322	-200,000	-0,026	-0,120
-251,307	-94,060	0,038	0,007
-250,292	-200,000	0,028	0,124
-249,278	41,565	0,046	-0,030
-248,263	-114,895	0,043	0,006
-247,249	69,821	-0,068	0,050
-246,234	196,048	0,128	-0,141
-245,219	-200,000	-0,012	0,047
-244,205	-200,000	0,003	-0,024
-243,190	-69,674	-0,057	-0,016
-242,176	-39,214	0,073	-0,027
-241,161	-37,934	-0,130	0,050
-240,146	-84,401	0,052	0,012
-239,132	5,254	0,090	0,048
-238,117	-200,000	-0,004	-0,032
-237,103	-200,000	-0,010	0,054
-236,088	800,000	0,036	-0,114
-235,073	-44,852	-0,061	0,022
-234,059	-108,088	0,073	0,011
-233,044	800,000	-0,048	0,152
-232,030	-9,790	-0,054	-0,026
-231,015	123,466	0,052	-0,047
-230,000	-200,000	0,003	0,052
-228,986	455,636	-0,017	-0,027
-227,971	800,000	0,018	0,055
-226,957	556,645	0,022	0,038
-225,942	-200,000	0,026	0,103
-224,927	75,119	-0,053	-0,041
-223,913	800,000	0,055	-0,114
-222,898	313,923	0,057	-0,077
-221,884	155,285	-0,048	-0,048
-220,869	160,876	0,093	0,094
-219,855	184,815	0,146	0,156
-218,840	116,221	-0,168	0,148
-217,825	-200,000	0,005	-0,077
-216,811	-200,000	-0,024	0,078
-215,796	-70,352	-0,012	-0,003
-214,782	724,935	-0,053	0,102
-213,767	110,936	0,067	0,059
-212,752	120,916	0,020	0,018
-211,738	-200,000	0,004	0,075
-210,723	20,860	0,027	0,016
-209,709	-200,000	-0,009	-0,079
-208,694	68,868	-0,038	0,028
-207,679	240,402	-0,010	0,012
-206,665	-159,216	-0,108	0,004
-205,650	111,925	0,062	-0,054
-204,636	-61,727	0,215	0,065
-203,621	422,420	-0,044	-0,068
-202,606	-200,000	0,027	-0,117
-201,592	-200,000	-0,007	-0,122
-200,577	30,061	-0,109	0,067
-199,563	18,078	-0,057	0,033
-198,548	-200,000	0,001	0,024
-197,533	135,277	-0,077	0,072
-196,519	5,403	0,074	0,039
-195,504	301,088	-0,013	-0,018
-194,490	-200,000	-0,017	-0,122
-193,475	-43,516	-0,045	-0,016
-192,460	-103,712	-0,056	-0,009
-191,446	-200,000	-0,018	0,127
-190,431	669,277	-0,051	0,095
-189,417	582,012	0,091	-0,161
-188,402	-200,000	-0,018	0,066
-187,387	-196,999	0,056	0,000
-186,373	332,904	-0,009	0,013
-185,358	-200,000	-0,006	-0,067
-184,344	261,677	-0,030	0,038
-183,329	-1,761	-0,042	0,021
-182,315	-127,060	0,011	0,001
-181,300	-200,000	-0,034	-0,123
-180,285	800,000	0,014	-0,033
-179,271	-41,882	-0,098	-0,036
-178,256	-7,928	0,024	-0,012
-177,242	-200,000	-0,009	0,060
-176,227	47,070	0,052	0,035
-175,212	-31,816	-0,025	0,010
-174,198	-106,661	0,138	-0,022
-173,183	800,000	0,032	-0,077
-172,169	346,452	0,042	-0,060
-171,154	-121,687	-0,152	0,018
-170,139	-142,888	-0,031	0,002
-169,125	-159,134	0,042	-0,002
-168,110	-200,000	0,005	-0,131
-167,096	175,663	0,039	-0,041
-166,081	-200,000	0,004	0,164
-165,066	149,237	-0,098	0,095
-164,052	-10,387	-0,070	-0,033
-163,037	179,850	0,127	0,135
-162,023	41,809	0,059	0,038
-161,008	800,000	-0,034	0,073
-159,993	-200,000	-0,053	-0,192
-158,979	-135,676	0,096	-0,008
-157,964	70,508	0,049	0,036
-156,950	-15,040	-0,053	-0,025
-155,935	-67,425	-0,047	-0,013
-154,920	706,215	-0,052	0,099
-153,906	-23,341	0,094	-0,041
-152,891	280,924	-0,028	0,036
-151,877	789,703	-0,053	0,105
-150,862	-119,228	-0,052	0,007
-149,847	-109,460	-0,056	0,008
-148,833	-66,436	0,077	-0,022
-147,818	76,037	-0,043	0,032
-146,804	73,741	-0,102	-0,077
-145,789	-122,712	0,057	-0,007
-144,775	-200,000	-0,012	-0,062
-143,760	800,000	-0,033	-0,102
-142,745	-200,000	-0,029	-0,145
-141,731	247,622	0,092	-0,112
-140,716	113,356	0,034	0,030
-139,702	-200,000	-0,013	0,126
-138,687	-200,000	-0,004	-0,025
-137,672	-142,864	-0,026	-0,002
-136,658	-60,111	-0,086	-0,026
-135,643	-200,000	0,003	-0,040
-134,629	-200,000	-0,000	-0,046
-133,614	800,000	0,053	-0,141
-132,599	-38,896	0,083	-0,031
-131,585	-200,000	0,017	0,117
-130,570	-145,202	-0,119	-0,008
-129,556	43,158	-0,044	-0,029
-128,541	-200,000	0,016	0,072
-127,526	-74,817	0,039	0,010
-126,512	-14,503	0,080	0,037
-125,497	284,736	0,056	0,073
-124,483	35,627	0,049	-0,031
-123,468	800,000	-0,036	0,075
-122,453	-23,316	-0,010	0,004
-121,439	-200,000	0,005	-0,027
-120,424	-200,000	0,004	-0,067
-119,410	-200,000	0,025	0,148
-118,395	77,740	-0,066	-0,051
-117,380	-136,736	0,314	0,026
-116,366	149,444	-0,057	-0,056
-115,351	-129,034	-0,091	0,009
-114,337	-30,999	-0,105	-0,042
-113,322	800,000	0,007	-0,019
-112,307	800,000	-0,016	-0,050
-111,293	183,555	-0,070	-0,074
-110,278	-200,000	-0,006	0,219
-109,264	16,747	0,059	-0,034
-108,249	-200,000	0,007	-0,063
-107,234	-200,000	0,010	-0,072
-106,220	237,622	-0,055	0,066
-105,205	-16,620	-0,140	0,063
-104,191	-79,988	0,056	0,013
-103,176	490,438	0,060	-0,098
-102,162	388,525	-0,021	-0,031
-101,147	-200,000	-0,013	-0,069
-100,132	28,499	-0,094	0,057
-99,118	-131,142	-0,140	-0,013
-98,103	-67,558	0,055	-0,015
-97,089	-200,000	-0,008	-0,035
-96,074	15,300	0,107	0,060
-95,059	-128,570	0,036	0,004
-94,045	140,179	-0,177	-0,168
-93,030	-200,000	0,005	-0,148
-92,016	800,000	-0,046	-0,133
-91,001	-34,782	-0,084	0,033
-89,986	-200,000	0,008	-0,038
-88,972	111,629	0,024	-0,020
-87,957	-200,000	0,001	0,069
-86,943	49,190	-0,094	0,063
-85,928	800,000	0,005	0,012
-84,913	143,965	0,154	-0,147
-83,899	-200,000	-0,000	-0,047
-82,884	-200,000	-0,020	0,170
-81,870	-38,945	0,134	0,050
-80,855	397,722	0,057	-0,087
-79,840	-23,298	0,045	0,019
-78,826	577,109	0,014	-0,024
-77,811	-67,997	-0,055	-0,015
-76,797	-88,137	0,189	-0,040
-75,782	128,391	0,051	-0,047
-74,767	63,215	0,038	-0,027
-73,753	121,336	0,070	-0,063
-72,738	709,288	-0,078	0,148
-71,724	-100,240	-0,025	-0,004
-70,709	63,221	-0,140	-0,101
-69,694	100,410	0,141	-0,117
-68,680	-200,000	-0,019	-0,069
-67,665	-200,000	-0,004	-0,068
-66,651	38,064	0,035	-0,023
-65,636	180,355	0,085	-0,089
-64,622	36,578	-0,044	-0,028
-63,607	-200,000	0,014	-0,064
-62,592	-82,361	-0,221	0,051
-61,578	800,000	0,016	0,052
-60,563	225,946	-0,167	0,195
-59,549	580,747	0,028	0,049
-58,534	-3,084	-1,918	-0,957
-57,519	800,000	-0,331	-0,867
-56,505	-200,000	-1,313	-5,019
-55,490	42,560	0,901	0,587
-54,476	800,000	5,285	12,415
-53,461	-200,000	17,912	288,805
-52,446	800,000	729,032	2231,798
-51,432	537,999	1645,267	2816,827
-50,417	109,502	1635,587	1405,686
-49,403	75,340	1287,175	973,410
-48,388	31,627	1027,507	632,704
-47,373	20,082	989,071	570,980
-46,359	18,327	976,554	557,982
-45,344	15,291	972,952	545,971
-44,330	15,563	971,289	545,903
-43,315	15,045	969,581	543,232
-42,300	14,957	968,411	542,268
-41,286	15,017	967,276	541,805
-40,271	14,965	966,306	541,071
-39,257	15,016	965,414	540,718
-38,242	15,068	964,568	540,392
-37,227	15,044	963,767	539,842
-36,213	15,044	962,821	539,290
-35,198	15,086	961,824	538,848
-34,184	15,053	961,249	538,396
-33,169	14,986	960,199	537,570
-32,154	15,022	959,281	537,152
-31,140	15,021	958,352	536,607
-30,125	15,053	957,798	536,378
-29,111	15,066	956,832	535,858
-28,096	15,078	956,249	535,551
-27,082	15,043	955,590	535,045
-26,067	15,035	954,810	534,561
-25,052	15,005	953,924	533,948
-24,038	14,998	953,378	533,600
-23,023	15,066	952,696	533,416
-22,009	15,031	952,282	533,051
-20,994	15,073	951,577	532,769
-19,979	15,061	950,800	532,275
-18,965	15,005	950,190	531,733
-17,950	15,000	949,776	531,464
-16,936	14,966	949,041	530,924
-15,921	14,984	948,442	530,624
-14,906	14,930	947,577	529,948
-13,892	14,953	946,973	529,662
-12,877	14,922	946,468	529,260
-11,863	14,889	945,588	528,642
-10,848	14,898	945,169	528,415
-9,833	14,995	944,618	528,393
-8,819	15,050	944,000	528,200
-7,804	14,935	943,469	527,519
-6,790	14,905	942,905	527,085
-5,775	14,877	942,436	526,716
-4,760	14,936	941,565	526,394
-3,746	14,954	940,859	526,037
-2,731	14,805	940,401	525,287
-1,717	14,729	939,648	524,607
-0,702	14,771	939,038	524,379
0,313	14,585	938,324	524,184
1,327	17,740	936,315	532,949
2,342	26,723	792,558	474,878
3,356	23,375	457,551	269,022
4,371	-3,745	313,680	155,668
5,386	-7,720	295,430	142,586
6,400	-9,625	289,292	137,726
7,415	-10,109	286,875	136,088
8,429	-10,310	285,470	135,212
9,444	-10,261	284,516	134,796
10,459	-10,162	283,696	134,492
11,473	-10,184	283,169	134,209
12,488	-10,218	282,733	133,957
13,502	-10,230	282,183	133,673
14,517	-10,224	281,783	133,478
15,531	-10,194	281,304	133,268
16,546	-10,115	280,906	133,144
17,561	-10,214	280,599	132,890
18,575	-10,203	280,245	132,721
19,590	-10,230	279,830	132,487
20,604	-10,303	279,621	132,307
21,619	-10,293	279,250	132,129
22,634	-10,197	278,883	132,036
23,648	-10,173	278,509	131,870
24,663	-10,364	278,245	131,551
25,677	-10,280	277,924	131,467
26,692	-10,237	277,688	131,385
27,707	-10,297	277,511	131,233
28,721	-10,270	277,307	131,150
29,736	-10,356	276,974	130,899
30,750	-10,121	276,597	130,931
31,765	-10,249	276,461	130,735
32,780	-10,311	276,067	130,478
33,794	-10,360	276,001	130,389
34,809	-10,386	275,665	130,194
35,823	-10,282	275,330	130,122
36,838	-10,374	275,175	129,951
37,853	-10,198	274,870	129,960
38,867	-10,417	274,714	129,669
39,882	-10,155	274,419	129,764
40,896	-10,223	274,208	129,589
41,911	-10,408	274,040	129,326
42,926	-10,231	273,587	129,265
43,940	-10,034	273,371	129,335
44,955	-10,364	273,164	128,919
45,969	-10,379	273,087	128,857
46,984	-10,426	272,686	128,612
47,999	-10,648	272,510	128,311
49,013	-10,827	272,218	127,997
50,028	-10,895	271,907	127,776
51,042	-10,930	271,705	127,637
52,057	-10,919	271,324	127,456
53,071	-10,789	271,211	127,512
54,086	-10,876	271,069	127,353
55,101	-10,797	270,951	127,360
56,115	-10,364	270,807	127,681
57,130	-10,201	270,537	127,692
58,144	-10,142	270,418	127,679
59,159	-10,031	270,077	127,609
60,174	-10,108	269,922	127,454
61,188	-10,101	269,657	127,324
62,203	-10,117	269,485	127,215
63,217	-10,126	269,248	127,085
64,232	-10,115	269,119	127,023
65,247	-10,256	268,854	126,757
66,261	-10,092	268,576	126,765
67,276	-10,317	268,445	126,486
68,290	-10,264	267,983	126,305
69,305	-10,531	267,751	125,941
70,320	-10,515	267,690	125,916
71,334	-10,384	267,557	125,961
72,349	-10,354	267,374	125,891
73,363	-10,327	267,137	125,794
74,378	-9,937	266,652	125,907
75,393	-10,174	266,642	125,677
76,407	-10,249	266,378	125,472
77,422	-10,004	265,930	125,472
78,436	-9,997	265,905	125,456
79,451	-10,120	265,739	125,255
80,466	-10,305	265,539	124,982
81,480	-10,408	265,290	124,761
82,495	-10,187	264,955	124,791
83,509	-10,220	264,839	124,696
84,524	-10,253	264,639	124,561
85,539	-10,464	264,412	124,253
86,553	-10,419	264,112	124,142
87,568	-10,275	263,972	124,194
88,582	-10,530	263,939	123,939
89,597	-10,186	263,515	124,037
90,611	-10,253	263,436	123,928
91,626	-10,189	263,304	123,913
92,641	-10,007	263,085	123,961
93,655	-10,155	262,774	123,671
94,670	-10,135	262,541	123,568
95,684	-10,321	262,342	123,298
96,699	-10,271	262,184	123,257
97,714	-10,229	261,951	123,174
98,728	-10,305	261,670	122,964
99,743	-10,553	261,600	122,699
100,757	-10,474	261,318	122,626
101,772	-10,429	261,152	122,577
102,787	-10,239	260,897	122,615
103,801	-10,242	260,826	122,568
104,816	-10,229	260,642	122,483
105,830	-10,171	260,569	122,488
106,845	-10,170	260,315	122,359
107,860	-10,074	260,101	122,332
108,874	-10,366	259,900	121,969
109,889	-10,252	259,720	121,975
110,903	-10,189	259,509	121,920
111,918	-10,298	259,273	121,702
112,933	-10,294	259,125	121,625
113,947	-10,071	258,996	121,750
114,962	-10,352	258,682	121,345
115,976	-10,126	258,406	121,402
116,991	-10,281	258,418	121,262
118,006	-10,261	258,309	121,217
119,020	-10,324	258,252	121,124
120,035	-10,076	257,771	121,105
121,049	-10,126	257,679	121,007
122,064	-10,078	257,479	120,944
123,079	-10,172	257,370	120,800
124,093	-10,052	257,072	120,754
125,108	-10,359	256,803	120,350
126,122	-10,556	256,485	120,019
127,137	-10,618	256,375	119,903
128,151	-10,500	256,273	119,947
129,166	-10,370	256,033	119,937
130,181	-10,353	255,749	119,807
131,195	-10,489	255,514	119,569
132,210	-10,270	255,413	119,701
133,224	-10,145	255,312	119,751
134,239	-10,257	255,090	119,539
135,254	-10,191	255,002	119,544
136,268	-10,376	254,885	119,319
137,283	-10,347	254,351	119,083
138,297	-10,447	254,196	118,914
139,312	-10,539	253,900	118,686
140,327	-10,185	253,959	119,007
141,341	-10,023	253,895	119,105
142,356	-10,091	253,648	118,921
143,370	-10,061	253,396	118,818
144,385	-9,886	253,125	118,830
145,400	-9,854	253,087	118,828
146,414	-9,923	252,896	118,669
147,429	-9,961	252,685	118,527
148,443	-9,977	252,628	118,477
149,458	-10,057	252,465	118,321
150,473	-9,930	252,246	118,316
151,487	-10,069	251,901	118,026
152,502	-10,041	251,921	118,048
153,516	-10,060	251,792	117,961
154,531	-9,947	251,337	117,833
155,546	-9,998	251,354	117,788
156,560	-10,003	250,980	117,598
157,575	-9,840	250,795	117,639
158,589	-10,087	250,655	117,353
159,604	-10,047	250,589	117,346
160,619	-10,001	250,455	117,312
161,633	-10,061	250,133	117,099
162,648	-9,898	250,006	117,167
163,662	-9,914	250,106	117,190
164,677	-9,860	249,755	117,061
165,692	-10,008	249,616	116,861
166,706	-9,986	249,419	116,777
167,721	-9,967	249,180	116,670
168,735	-10,056	249,101	116,548
169,750	-10,164	249,076	116,435
170,764	-10,086	248,790	116,356
171,779	-9,803	248,478	116,437
172,794	-10,100	248,506	116,191
173,808	-9,983	248,279	116,172
174,823	-10,509	247,932	115,560
175,837	-10,513	247,745	115,459
176,852	-10,308	247,622	115,563
177,867	-10,106	247,589	115,706
178,881	-10,020	247,367	115,664
179,896	-10,175	247,290	115,488
180,910	-10,058	247,160	115,514
181,925	-9,805	246,686	115,493
182,940	-9,978	246,784	115,385
183,954	-10,055	246,506	115,180
184,969	-9,980	246,410	115,187
185,983	-9,792	246,123	115,199
186,998	-9,777	246,090	115,186
188,013	-9,991	245,931	114,923
189,027	-10,004	245,732	114,810
190,042	-9,908	245,608	114,821
191,056	-9,907	245,350	114,691
192,071	-9,907	245,218	114,619
193,086	-10,177	244,953	114,262
194,100	-9,958	244,847	114,383
195,115	-9,922	244,715	114,341
196,129	-9,901	244,385	114,193
197,144	-9,801	244,099	114,132
198,159	-9,809	243,938	114,040
199,173	-9,790	243,939	114,046
200,188	-9,938	243,757	113,830
201,202	-10,075	243,487	113,581
202,217	-10,481	243,174	113,092
203,232	-10,571	243,037	112,945
204,246	-10,163	242,941	113,224
205,261	-9,422	242,778	113,742
206,275	-10,149	242,573	113,044
207,290	-5,515	244,590	117,781
208,304	1,737	246,721	124,788
209,319	3,937	247,208	126,840
210,334	3,931	247,061	126,748
211,348	4,278	246,863	126,920
212,363	4,164	246,908	126,838
213,377	4,248	246,611	126,744
214,392	4,017	246,653	126,565
215,407	4,278	246,260	126,565
216,421	4,031	246,347	126,396
217,436	4,288	246,092	126,465
218,450	4,221	245,930	126,315
219,465	4,218	245,587	126,126
220,480	3,737	245,467	125,659
221,494	3,654	245,333	125,511
222,509	3,909	245,201	125,641
223,523	4,031	244,898	125,574
224,538	3,932	244,770	125,417
225,553	3,566	244,611	125,026
226,567	3,723	244,439	125,054
227,582	3,574	244,423	124,914
228,596	3,708	244,361	124,980
229,611	3,605	243,964	124,682
230,626	3,564	243,798	124,553
231,640	3,645	243,626	124,519
232,655	3,704	243,441	124,461
233,669	3,655	243,321	124,349
234,684	3,790	242,986	124,277
235,699	3,891	243,184	124,448
236,713	3,895	242,930	124,311
237,728	3,504	242,779	123,906
238,742	3,739	242,429	123,906
239,757	3,624	242,259	123,715
240,772	3,542	242,318	123,668
241,786	3,815	242,058	123,744
242,801	3,736	241,873	123,575
243,815	3,744	241,751	123,508
244,830	3,830	241,721	123,552
245,844	3,770	241,521	123,390
246,859	3,612	241,230	123,104
247,874	3,844	241,089	123,207
248,888	4,026	240,929	123,260
249,903	3,850	240,796	123,040
250,917	3,830	240,770	123,000
251,932	3,704	240,516	122,758
252,947	3,728	240,445	122,730
253,961	3,671	240,179	122,538
254,976	3,563	240,043	122,371
255,990	3,676	239,968	122,412
257,005	3,567	239,712	122,184
258,020	3,661	239,679	122,231
259,034	3,653	239,472	122,109
260,049	3,727	239,333	122,085
261,063	3,681	239,006	121,871
262,078	3,792	238,959	121,924
263,093	3,852	238,925	121,944
264,107	4,079	238,587	121,940
265,122	3,620	238,568	121,556
266,136	3,744	238,413	121,564
267,151	3,991	238,353	121,718
268,166	3,858	238,065	121,455
269,180	3,735	237,895	121,260
270,195	3,861	237,816	121,309
271,209	4,008	237,526	121,266
272,224	3,634	237,464	120,929
273,239	3,600	237,185	120,749
274,253	3,967	237,101	120,985
275,268	3,713	236,998	120,722
276,282	3,680	236,870	120,619
277,297	3,743	236,548	120,494
278,312	3,747	236,514	120,470
279,326	3,958	236,332	120,532
280,341	3,697	236,268	120,284
281,355	3,794	236,027	120,225
282,370	3,807	235,851	120,136
283,384	3,592	235,750	119,905
284,399	3,761	235,538	119,919
285,414	3,578	235,445	119,717
286,428	3,984	235,192	119,895
287,443	3,578	235,274	119,610
288,457	3,919	235,018	119,735
289,472	3,864	234,877	119,609
290,487	3,619	234,603	119,269
291,501	3,540	234,370	119,078
292,516	3,432	234,420	119,010
293,530	3,598	234,229	119,030
294,545	3,746	234,196	119,118
295,560	3,751	234,017	119,020
296,574	3,533	233,937	118,800
297,589	3,747	233,699	118,834
298,603	3,978	233,682	118,993
299,618	3,891	233,425	118,785
300,633	3,911	233,409	118,781
301,647	3,924	233,357	118,754
302,662	4,216	233,020	118,797
303,676	3,910	232,893	118,486
304,691	4,068	232,661	118,480
305,706	3,917	232,605	118,324
306,720	3,652	232,474	118,043
307,735	3,887	232,216	118,082
308,749	3,835	232,135	117,990
309,764	3,565	231,935	117,671
310,779	3,552	231,673	117,517
311,793	3,689	231,588	117,569
312,808	3,603	231,376	117,385
313,822	3,671	231,271	117,373
314,837	3,539	231,159	117,205
315,852	3,613	231,003	117,172
316,866	3,850	231,069	117,376
317,881	3,980	230,677	117,266
318,895	3,897	230,714	117,210
319,910	3,775	230,542	117,020
320,925	3,742	230,284	116,854
321,939	3,840	230,164	116,857
322,954	3,891	230,208	116,907
323,968	4,112	229,926	116,921
324,983	4,328	229,667	116,943
325,997	4,069	229,588	116,696
327,012	3,990	229,387	116,524
328,027	3,625	229,372	116,229
329,041	4,010	229,423	116,537
330,056	4,275	229,133	116,579
331,070	4,252	228,988	116,477
332,085	4,136	228,897	116,334
333,100	3,704	228,677	115,885
334,114	4,230	228,251	116,055
335,129	4,211	228,188	115,998
336,143	3,990	228,205	115,830
337,158	3,756	228,091	115,586
338,173	3,935	227,827	115,576
339,187	3,808	227,790	115,452
340,202	3,881	227,620	115,410
341,216	3,780	227,476	115,251
342,231	3,744	227,332	115,141
343,246	3,780	227,217	115,099
344,260	3,989	226,859	115,064
345,275	3,800	226,922	114,944
346,289	3,727	226,690	114,763
347,304	3,791	226,511	114,709
348,319	3,608	226,320	114,465
349,333	3,706	226,125	114,430
350,348	3,182	225,937	113,935
351,362	3,263	225,922	113,976
352,377	3,169	225,640	113,754
353,392	2,938	225,400	113,452
354,406	2,715	225,342	113,246
355,421	194,234	1322,365	1394,838
356,435	155,616	1456,016	1394,832
