DTS Sentinel unit serial number:	SN410029Multiplexer serial number:	ORYXHardware model number:	OX2-SRSoftware version number:	ORYX F/W v4,00 Oryx Data Collector v3.7.2.0data status	okinstallation	B5 Nyhavnadifferential loss correction	single-endedforward channel	channel 2reverse channel	N/Adate	2023/12/13time	18:17:13forward acquisition time	300,00reverse acquisition time	0,00gamma	499,1914k internal	0,3159k external	0,3159temperature offset calibration	1,0000default loss term (dB/km)	0,3820temperature slope calibration	1,0000multiplexer offset coefficient	1,0000multiplexer slope coefficient	1,0000fibre end	0,00T internal ref (°C)	12,92T ext. ref 1 (°C)	-4,32T ext. ref 2 (°C)	-4,40length (m)	temperature (°C)	Stokes	anti-Stokes-744,400	800,000	0,047	0,104
-743,385	-99,008	-0,429	0,079
-742,371	-97,331	0,154	0,029
-741,356	13,727	-0,204	0,116
-740,342	-117,803	0,153	-0,020
-739,327	-126,523	-0,226	-0,024
-738,312	353,306	0,018	0,026
-737,298	-168,086	-0,329	0,009
-736,283	206,041	0,078	0,090
-735,269	-42,966	-0,220	-0,082
-734,254	549,781	0,061	0,108
-733,239	-36,815	-0,452	-0,178
-732,225	-57,526	0,176	0,057
-731,210	-96,041	-0,156	0,030
-730,196	339,108	-0,077	-0,111
-729,181	71,346	-0,126	-0,096
-728,167	377,096	0,024	0,036
-727,152	-44,814	-0,132	0,048
-726,137	192,728	0,054	0,061
-725,123	-200,000	0,040	-0,171
-724,108	82,216	-0,077	-0,062
-723,094	800,000	0,021	-0,060
-722,079	102,867	-0,121	-0,104
-721,064	-110,144	0,137	0,021
-720,050	-160,645	0,070	0,003
-719,035	65,552	-0,014	0,011
-718,021	459,836	-0,034	0,056
-717,006	-200,000	-0,006	-0,064
-715,991	-99,552	-0,158	-0,029
-714,977	-200,000	0,015	-0,143
-713,962	-61,978	0,006	0,002
-712,948	108,546	0,109	0,095
-711,933	-200,000	0,016	-0,116
-710,918	-200,000	-0,031	0,113
-709,904	670,809	-0,037	0,072
-708,889	-100,390	-0,111	-0,020
-707,875	583,585	-0,044	-0,080
-706,860	356,192	0,037	0,054
-705,845	-82,339	-0,164	-0,039
-704,831	-5,210	-0,093	-0,047
-703,816	-200,000	-0,002	0,095
-702,802	-200,000	-0,004	-0,105
-701,787	-200,000	-0,037	-0,191
-700,772	-200,000	-0,002	-0,081
-699,758	-151,668	0,014	0,001
-698,743	800,000	0,031	0,088
-697,729	107,411	-0,138	0,121
-696,714	42,402	-0,062	0,042
-695,699	800,000	0,008	0,022
-694,685	-95,338	-0,046	0,009
-693,670	800,000	-0,055	-0,150
-692,656	75,393	-0,148	-0,115
-691,641	677,030	0,083	-0,159
-690,627	-200,000	-0,024	0,119
-689,612	-109,148	-0,054	0,008
-688,597	-200,000	-0,000	-0,023
-687,583	-190,042	0,108	0,001
-686,568	73,493	0,052	-0,040
-685,554	800,000	-0,040	0,116
-684,539	-200,000	-0,002	0,058
-683,524	-29,568	0,099	-0,042
-682,510	447,691	-0,027	-0,044
-681,495	-36,401	-0,064	0,025
-680,481	-200,000	-0,007	-0,103
-679,466	-40,368	-0,044	-0,017
-678,451	20,862	0,073	-0,044
-677,437	184,186	-0,123	0,134
-676,422	210,172	0,064	-0,074
-675,408	-200,000	-0,008	0,141
-674,393	216,796	-0,093	0,109
-673,378	75,147	-0,131	-0,101
-672,364	158,336	-0,042	-0,043
-671,349	-200,000	0,009	-0,086
-670,335	-200,000	-0,018	-0,107
-669,320	-200,000	-0,006	-0,040
-668,305	119,730	0,087	0,079
-667,291	77,200	-0,027	-0,021
-666,276	-200,000	-0,018	-0,062
-665,262	-115,051	-0,118	-0,016
-664,247	800,000	0,033	0,067
-663,232	-116,415	-0,147	-0,020
-662,218	194,778	-0,054	-0,060
-661,203	11,864	-0,018	0,010
-660,189	-37,360	-0,068	-0,027
-659,174	160,355	-0,110	0,113
-658,159	-143,086	0,058	0,004
-657,145	-81,293	0,002	-0,001
-656,130	441,515	-0,046	-0,074
-655,116	2,306	0,026	0,014
-654,101	-200,000	0,011	0,061
-653,086	-200,000	-0,004	0,033
-652,072	736,814	-0,036	-0,071
-651,057	135,313	-0,010	-0,010
-650,043	-117,489	-0,068	-0,009
-649,028	182,074	-0,124	-0,134
-648,014	-12,469	0,054	0,026
-646,999	304,041	0,024	-0,033
-645,984	38,040	0,038	-0,025
-644,970	123,872	0,018	-0,016
-643,955	170,658	-0,066	-0,069
-642,941	321,140	0,069	0,097
-641,926	-90,670	-0,160	0,034
-640,911	-76,311	0,095	-0,024
-639,897	-125,018	0,159	-0,018
-638,882	490,085	-0,059	0,099
-637,868	-200,000	-0,016	-0,125
-636,853	3,809	-0,030	0,016
-635,838	-200,000	-0,001	-0,045
-634,824	-200,000	-0,009	0,082
-633,809	-200,000	0,000	-0,033
-632,795	206,828	0,011	0,013
-631,780	-200,000	-0,011	0,078
-630,765	43,850	-0,109	-0,073
-629,751	-101,838	-0,079	-0,014
-628,736	-24,509	0,052	-0,023
-627,722	672,889	-0,028	-0,054
-626,707	-81,540	0,073	-0,017
-625,692	-89,331	-0,154	0,033
-624,678	285,466	0,117	0,155
-623,663	160,895	-0,081	-0,083
-622,649	-200,000	0,022	-0,085
-621,634	-200,000	0,035	-0,204
-620,619	-67,041	-0,096	-0,028
-619,605	-200,000	-0,034	0,130
-618,590	-149,018	-0,112	-0,006
-617,576	800,000	0,059	0,177
-616,561	21,742	-0,024	0,014
-615,546	-200,000	-0,015	-0,116
-614,532	-200,000	-0,014	-0,119
-613,517	-200,000	-0,008	0,038
-612,503	138,899	-0,058	-0,056
-611,488	245,789	0,077	0,096
-610,474	163,647	0,011	-0,011
-609,459	800,000	0,037	0,086
-608,444	-130,485	-0,147	-0,014
-607,430	430,250	-0,099	-0,157
-606,415	76,137	-0,017	0,013
-605,401	800,000	-0,047	-0,140
-604,386	-200,000	0,004	0,149
-603,371	-164,303	0,086	-0,003
-602,357	-75,937	0,038	0,010
-601,342	-200,000	0,013	-0,098
-600,328	307,103	-0,052	0,071
-599,313	-141,001	0,071	0,005
-598,298	347,015	-0,075	-0,108
-597,284	412,751	0,076	-0,118
-596,269	154,703	0,049	0,050
-595,255	-200,000	-0,013	0,061
-594,240	41,778	0,118	-0,078
-593,225	-64,069	-0,128	0,038
-592,211	-103,596	0,052	0,009
-591,196	800,000	-0,042	0,106
-590,182	-55,426	0,047	-0,015
-589,167	-75,858	-0,042	-0,011
-588,152	-6,810	0,097	0,048
-587,138	24,093	0,076	0,046
-586,123	576,584	-0,087	-0,155
-585,109	-61,373	-0,101	0,031
-584,094	-200,000	0,001	-0,074
-583,079	-0,087	-0,083	-0,043
-582,065	-52,537	0,060	-0,020
-581,050	383,322	0,059	-0,089
-580,036	-29,553	-0,096	-0,040
-579,021	800,000	-0,023	0,056
-578,006	39,122	0,130	0,085
-576,992	-113,301	-0,076	-0,011
-575,977	63,349	0,087	-0,064
-574,963	-38,261	-0,141	-0,054
-573,948	313,494	0,071	-0,098
-572,934	-98,711	0,137	-0,025
-571,919	-200,000	-0,044	-0,151
-570,904	-200,000	-0,011	-0,062
-569,890	-6,260	-0,059	-0,030
-568,875	800,000	-0,043	0,092
-567,861	509,724	0,121	0,207
-566,846	-105,679	0,049	-0,008
-565,831	322,198	-0,086	0,121
-564,817	-78,810	-0,071	0,018
-563,802	10,491	-0,120	-0,067
-562,788	-51,117	-0,141	-0,048
-561,773	201,642	-0,110	-0,124
-560,758	-24,116	0,058	0,025
-559,744	-47,062	0,048	-0,017
-558,729	-200,000	-0,006	0,080
-557,715	379,307	-0,021	0,032
-556,700	800,000	0,049	-0,127
-555,685	80,659	0,051	-0,040
-554,671	-89,863	0,022	0,005
-553,656	800,000	-0,038	0,116
-552,642	-52,038	-0,129	0,044
-551,627	-200,000	0,003	0,024
-550,612	50,651	0,120	-0,083
-549,598	-126,786	0,025	0,003
-548,583	227,668	-0,085	-0,101
-547,569	-112,331	0,057	0,008
-546,554	327,488	0,075	0,106
-545,539	-200,000	-0,007	-0,111
-544,525	-118,869	0,096	-0,012
-543,510	800,000	0,051	0,131
-542,496	284,541	-0,071	-0,094
-541,481	59,617	-0,048	-0,035
-540,466	8,970	0,152	0,083
-539,452	800,000	0,033	0,093
-538,437	-107,797	0,119	-0,019
-537,423	-200,000	0,007	0,043
-536,408	-200,000	0,011	-0,071
-535,393	-141,317	-0,075	0,006
-534,379	207,467	-0,040	-0,046
-533,364	800,000	-0,017	-0,044
-532,350	-200,000	-0,003	-0,044
-531,335	800,000	0,074	0,158
-530,321	-34,206	0,060	0,024
-529,306	-200,000	-0,003	0,052
-528,291	-200,000	0,010	-0,128
-527,277	-200,000	0,012	-0,084
-526,262	492,938	0,053	0,089
-525,248	114,351	-0,014	0,012
-524,233	97,235	0,143	0,120
-523,218	-91,718	0,144	0,030
-522,204	263,839	0,015	0,019
-521,189	689,748	-0,077	-0,148
-520,175	34,106	-0,097	-0,062
-519,160	-200,000	0,004	0,058
-518,145	12,991	0,088	0,050
-517,131	302,964	-0,062	0,084
-516,116	52,122	-0,047	-0,033
-515,102	-200,000	0,020	0,077
-514,087	-200,000	-0,001	-0,065
-513,072	800,000	-0,039	0,090
-512,058	138,955	0,134	-0,129
-511,043	356,011	0,067	-0,098
-510,029	-147,735	-0,040	-0,002
-509,014	64,528	0,087	0,064
-507,999	540,562	-0,068	-0,119
-506,985	800,000	0,026	0,069
-505,970	-132,227	-0,132	-0,012
-504,956	-41,791	0,067	0,025
-503,941	-151,609	0,052	0,003
-502,926	-91,456	0,041	0,008
-501,912	-8,030	0,069	-0,034
-500,897	-74,295	0,094	0,025
-499,883	800,000	-0,040	-0,081
-498,868	-200,000	0,001	-0,007
-497,853	-136,923	-0,176	0,015
-496,839	-22,981	-0,073	-0,032
-495,824	12,382	0,040	-0,022
-494,810	162,101	0,075	0,077
-493,795	-133,739	-0,017	0,001
-492,781	800,000	-0,015	0,044
-491,766	-21,676	-0,097	-0,043
-490,751	-17,922	-0,150	-0,068
-489,737	-200,000	0,026	0,103
-488,722	-115,535	0,181	-0,025
-487,708	800,000	-0,014	0,030
-486,693	-200,000	-0,025	-0,107
-485,678	800,000	-0,026	0,060
-484,664	760,320	-0,013	0,026
-483,649	-200,000	0,069	-0,268
-482,635	69,076	0,081	-0,061
-481,620	-200,000	0,008	0,060
-480,605	-200,000	-0,006	0,106
-479,591	75,225	0,069	0,053
-478,576	800,000	-0,052	-0,119
-477,562	38,192	0,063	-0,041
-476,547	-31,440	-0,127	-0,052
-475,532	165,038	-0,053	-0,054
-474,518	-200,000	0,006	-0,099
-473,503	-200,000	0,051	0,235
-472,489	-5,804	-0,094	0,047
-471,474	800,000	-0,027	0,068
-470,459	279,274	-0,051	-0,066
-469,445	-78,033	0,093	0,023
-468,430	415,184	0,073	0,113
-467,416	-8,325	-0,056	0,028
-466,401	-159,863	-0,146	-0,006
-465,386	800,000	0,042	0,117
-464,372	-12,769	0,150	-0,071
-463,357	-200,000	-0,017	0,175
-462,343	502,922	-0,088	-0,149
-461,328	-34,218	-0,031	-0,012
-460,313	284,275	-0,098	-0,129
-459,299	-54,270	0,057	-0,019
-458,284	-90,525	-0,039	-0,008
-457,270	-200,000	0,060	-0,199
-456,255	-29,651	0,106	-0,044
-455,241	-200,000	-0,021	0,072
-454,226	50,374	-0,018	-0,012
-453,211	82,917	-0,035	0,028
-452,197	800,000	0,050	0,112
-451,182	-81,643	0,144	0,034
-450,168	-200,000	-0,008	0,111
-449,153	-141,228	0,091	0,007
-448,138	-200,000	-0,030	-0,102
-447,124	324,861	0,066	0,092
-446,109	71,940	0,124	0,094
-445,095	-63,808	0,008	-0,002
-444,080	800,000	-0,042	-0,112
-443,065	-76,782	0,108	-0,027
-442,051	251,202	-0,092	0,114
-441,036	-200,000	0,004	-0,046
-440,022	-110,669	-0,081	0,012
-439,007	540,849	-0,025	-0,044
-437,992	-200,000	0,000	-0,109
-436,978	32,100	0,111	-0,069
-435,963	-141,181	-0,050	-0,004
-434,949	-200,000	0,028	0,126
-433,934	-200,000	-0,002	-0,042
-432,919	-59,926	0,049	-0,015
-431,905	800,000	0,023	0,071
-430,890	-200,000	-0,021	0,105
-429,876	176,290	0,019	0,020
-428,861	249,821	0,058	0,072
-427,846	-200,000	0,016	-0,061
-426,832	2,357	0,006	0,003
-425,817	-6,461	0,045	0,022
-424,803	49,265	0,108	-0,073
-423,788	560,552	-0,053	-0,094
-422,773	800,000	0,042	0,113
-421,759	-78,796	-0,023	0,006
-420,744	474,415	0,066	-0,109
-419,730	-200,000	0,001	-0,092
-418,715	-25,008	-0,051	-0,022
-417,701	800,000	-0,023	-0,055
-416,686	562,724	-0,102	-0,181
-415,671	-181,961	-0,016	0,000
-414,657	19,744	0,102	0,059
-413,642	-200,000	-0,007	0,082
-412,628	35,911	0,059	-0,037
-411,613	257,408	-0,034	-0,043
-410,598	105,980	-0,068	-0,058
-409,584	25,949	0,076	0,046
-408,569	-140,697	-0,090	0,007
-407,555	800,000	-0,025	-0,066
-406,540	456,557	-0,027	0,044
-405,525	-200,000	-0,017	-0,125
-404,511	-120,634	-0,094	0,011
-403,496	-178,010	0,083	0,001
-402,482	7,893	-0,114	-0,062
-401,467	-60,907	0,092	0,028
-400,452	800,000	0,073	0,164
-399,438	29,582	-0,039	-0,024
-398,423	-200,000	-0,004	0,120
-397,409	-19,065	0,035	0,016
-396,394	82,146	0,103	-0,081
-395,379	-29,963	-0,069	0,028
-394,365	106,580	0,143	0,123
-393,350	192,973	-0,004	0,004
-392,336	-162,920	-0,085	-0,003
-391,321	-36,082	-0,153	-0,060
-390,306	800,000	-0,048	-0,099
-389,292	123,848	-0,076	-0,069
-388,277	134,632	-0,122	-0,115
-387,263	208,946	0,072	-0,082
-386,248	92,443	0,083	0,068
-385,233	-200,000	-0,022	0,222
-384,219	496,319	-0,045	0,075
-383,204	-200,000	-0,003	-0,017
-382,190	-132,927	-0,123	0,011
-381,175	-73,740	0,055	-0,014
-380,160	101,914	0,086	-0,073
-379,146	6,012	-0,023	-0,012
-378,131	522,584	-0,108	0,185
-377,117	-200,000	0,004	-0,039
-376,102	-64,613	-0,177	0,052
-375,088	-200,000	0,002	-0,050
-374,073	-200,000	0,015	-0,047
-373,058	-104,775	0,134	0,022
-372,044	32,069	-0,035	0,022
-371,029	800,000	0,023	0,062
-370,015	-200,000	0,011	0,036
-369,000	800,000	0,034	-0,075
-367,985	-9,454	-0,053	0,026
-366,971	52,894	0,101	-0,070
-365,956	-53,767	0,050	0,016
-364,942	296,254	0,060	0,079
-363,927	95,514	-0,076	0,063
-362,912	-200,000	-0,018	0,096
-361,898	-130,517	-0,060	0,006
-360,883	139,800	-0,046	-0,044
-359,869	-200,000	0,001	-0,040
-358,854	-127,975	0,096	-0,010
-357,839	274,007	0,094	0,122
-356,825	-200,000	-0,034	-0,111
-355,810	-115,782	-0,110	-0,015
-354,796	-200,000	0,035	0,119
-353,781	-200,000	-0,001	-0,114
-352,766	305,785	-0,027	-0,037
-351,752	471,780	-0,053	-0,086
-350,737	-200,000	0,005	-0,047
-349,723	-11,529	0,066	-0,031
-348,708	-17,129	-0,035	0,016
-347,693	760,624	-0,009	0,017
-346,679	203,837	-0,114	-0,128
-345,664	162,091	-0,031	-0,031
-344,650	-200,000	0,013	0,070
-343,635	382,458	0,060	-0,090
-342,620	-196,510	-0,068	-0,000
-341,606	243,963	0,039	0,047
-340,591	-200,000	-0,006	0,110
-339,577	-200,000	-0,047	-0,169
-338,562	98,164	0,078	0,065
-337,548	-151,315	-0,051	-0,003
-336,533	-200,000	-0,031	-0,154
-335,518	-200,000	0,005	-0,124
-334,504	-14,083	0,071	0,033
-333,489	-200,000	-0,004	0,021
-332,475	-66,295	-0,138	-0,040
-331,460	140,022	0,036	-0,034
-330,445	-32,210	0,032	0,013
-329,431	-200,000	-0,004	-0,089
-328,416	95,943	0,142	0,117
-327,402	420,183	0,079	0,124
-326,387	-96,718	-0,119	-0,022
-325,372	-57,743	-0,178	0,056
-324,358	240,009	0,045	-0,054
-323,343	118,159	0,013	0,012
-322,329	248,052	0,081	-0,100
-321,314	451,651	0,043	0,068
-320,299	667,157	0,050	0,094
-319,285	139,159	-0,113	0,108
-318,270	-80,802	-0,051	0,012
-317,256	68,673	0,061	-0,045
-316,241	332,079	-0,007	-0,009
-315,226	-19,073	0,092	-0,041
-314,212	-200,000	-0,001	0,087
-313,197	-200,000	-0,002	0,073
-312,183	-11,791	-0,085	-0,040
-311,168	199,407	-0,084	0,093
-310,153	800,000	0,015	-0,043
-309,139	800,000	0,055	-0,127
-308,124	313,145	-0,083	-0,114
-307,110	-27,405	0,182	0,076
-306,095	800,000	-0,030	0,073
-305,080	18,185	0,064	-0,037
-304,066	-59,891	-0,067	0,021
-303,051	-132,245	-0,178	-0,016
-302,037	14,962	0,112	0,064
-301,022	-200,000	-0,135	-0,000
-300,008	800,000	-0,061	-0,124
-298,993	645,709	0,041	0,077
-297,978	30,040	-0,077	0,048
-296,964	157,385	-0,132	0,132
-295,949	377,630	-0,052	0,078
-294,935	800,000	0,041	-0,105
-293,920	-74,882	-0,054	-0,014
-292,905	800,000	0,035	0,110
-291,891	-200,000	-0,001	0,080
-290,876	-200,000	-0,022	0,128
-289,862	43,004	-0,059	0,039
-288,847	7,201	0,047	-0,025
-287,832	-14,907	0,035	0,016
-286,818	452,816	-0,045	0,073
-285,803	-49,263	0,135	-0,047
-284,789	800,000	0,024	-0,055
-283,774	-84,789	-0,111	0,025
-282,759	-8,760	0,103	-0,050
-281,745	178,748	-0,053	0,056
-280,730	-200,000	-0,018	-0,092
-279,716	19,562	0,063	0,037
-278,701	234,594	-0,065	0,078
-277,686	-200,000	0,028	0,110
-276,672	-200,000	-0,005	0,152
-275,657	1,008	-0,053	0,027
-274,643	742,532	0,029	-0,056
-273,628	-200,000	0,023	0,106
-272,613	-200,000	0,019	0,116
-271,599	-200,000	0,017	-0,065
-270,584	-200,000	-0,012	0,051
-269,570	-200,000	-0,015	0,061
-268,555	-160,652	-0,034	0,001
-267,540	-200,000	-0,011	-0,071
-266,526	569,252	0,062	-0,110
-265,511	-200,000	-0,011	-0,047
-264,497	800,000	0,026	0,076
-263,482	78,110	0,104	0,081
-262,467	516,130	-0,085	0,143
-261,453	800,000	-0,047	-0,110
-260,438	800,000	0,014	0,028
-259,424	184,215	0,061	-0,065
-258,409	-71,794	-0,041	0,011
-257,395	77,869	-0,073	-0,056
-256,380	159,453	0,049	0,049
-255,365	-128,073	0,017	0,002
-254,351	-117,934	0,081	-0,010
-253,336	800,000	-0,079	-0,160
-252,322	-200,000	-0,003	0,053
-251,307	120,369	0,043	-0,039
-250,292	-200,000	0,012	-0,052
-249,278	800,000	0,033	0,097
-248,263	-64,180	-0,170	0,050
-247,249	698,547	-0,030	0,058
-246,234	800,000	-0,024	-0,050
-245,219	-200,000	-0,016	0,062
-244,205	-114,098	-0,149	0,021
-243,190	568,148	-0,036	-0,063
-242,176	47,735	0,167	0,112
-241,161	383,456	0,026	0,039
-240,146	-86,518	0,083	-0,018
-239,132	-140,074	-0,037	0,003
-238,117	583,803	0,039	-0,069
-237,103	64,111	-0,091	-0,066
-236,088	-200,000	-0,008	-0,066
-235,073	-200,000	-0,023	-0,105
-234,059	800,000	0,022	-0,054
-233,044	800,000	-0,076	0,204
-232,030	103,364	0,092	0,078
-231,015	-42,926	0,058	0,021
-230,000	-57,700	-0,138	0,043
-228,986	22,365	-0,182	0,107
-227,971	-58,878	0,063	0,020
-226,957	-127,236	0,157	-0,016
-225,942	-200,000	-0,018	0,092
-224,927	203,350	0,047	0,052
-223,913	-134,877	-0,124	0,011
-222,898	523,259	-0,068	0,116
-221,884	-103,054	0,208	-0,035
-220,869	104,411	-0,073	-0,062
-219,855	80,602	0,057	0,044
-218,840	-61,578	0,135	0,041
-217,825	18,688	0,149	-0,086
-216,811	-62,221	-0,063	-0,019
-215,796	77,129	-0,074	-0,057
-214,782	630,025	0,050	-0,091
-213,767	-123,913	-0,043	0,005
-212,752	198,121	0,111	0,123
-211,738	-99,145	-0,105	-0,019
-210,723	-167,621	-0,150	-0,004
-209,709	800,000	0,009	-0,024
-208,694	558,403	-0,071	0,124
-207,679	794,579	0,062	-0,123
-206,665	18,833	0,066	0,038
-205,650	-121,803	0,085	-0,010
-204,636	205,740	-0,052	0,059
-203,621	800,000	-0,031	-0,091
-202,606	141,174	0,069	-0,066
-201,592	-132,501	-0,030	0,003
-200,577	38,443	-0,066	0,042
-199,563	-200,000	-0,002	0,026
-198,548	-200,000	0,005	-0,120
-197,533	800,000	-0,076	0,165
-196,519	-200,000	-0,014	0,093
-195,504	-200,000	-0,017	-0,167
-194,490	574,191	0,060	0,106
-193,475	-112,457	-0,184	0,026
-192,460	476,094	0,059	0,097
-191,446	800,000	0,038	0,098
-190,431	43,294	-0,049	0,032
-189,417	800,000	-0,004	0,010
-188,402	22,497	0,088	-0,051
-187,387	-200,000	-0,019	-0,102
-186,373	-200,000	-0,007	-0,103
-185,358	326,705	0,031	-0,043
-184,344	-200,000	-0,024	0,088
-183,329	746,849	0,037	0,072
-182,315	800,000	0,011	-0,028
-181,300	-87,759	0,062	0,013
-180,285	-109,975	-0,061	-0,009
-179,271	-183,810	-0,052	0,001
-178,256	266,887	0,043	-0,055
-177,242	800,000	0,025	0,053
-176,227	-127,278	0,049	0,005
-175,212	-97,211	0,143	0,027
-174,198	-133,310	0,136	-0,012
-173,183	-132,722	-0,068	-0,006
-172,169	-200,000	0,008	0,033
-171,154	-200,000	0,029	-0,140
-170,139	-200,000	-0,005	0,082
-169,125	-200,000	-0,013	-0,067
-168,110	136,883	-0,043	-0,041
-167,096	66,975	-0,064	0,047
-166,081	417,228	0,058	-0,090
-165,066	-200,000	0,004	-0,119
-164,052	-58,996	0,113	-0,035
-163,037	-32,259	0,071	0,028
-162,023	48,457	0,071	0,048
-161,008	709,935	0,114	0,218
-159,993	-9,590	0,075	-0,036
-158,979	-200,000	0,008	-0,085
-157,964	107,495	-0,041	-0,035
-156,950	-156,768	-0,221	-0,010
-155,935	-146,976	0,163	0,010
-154,920	3,608	0,102	0,054
-153,906	-117,263	-0,185	0,024
-152,891	601,882	-0,049	-0,087
-151,877	155,479	0,104	0,103
-150,862	30,882	-0,032	0,020
-149,847	-200,000	0,007	0,048
-148,833	54,414	0,072	0,050
-147,818	-66,517	0,078	-0,022
-146,804	43,941	-0,093	0,062
-145,789	-30,469	-0,107	-0,043
-144,775	-200,000	-0,025	-0,109
-143,760	185,093	-0,028	-0,029
-142,745	-14,736	0,110	-0,050
-141,731	45,753	0,079	0,052
-140,716	-200,000	0,001	0,033
-139,702	-200,000	0,023	-0,145
-138,687	615,534	-0,087	0,158
-137,672	-44,346	-0,171	-0,061
-136,658	-200,000	0,006	-0,159
-135,643	-80,751	0,025	0,006
-134,629	-200,000	-0,012	-0,042
-133,614	-200,000	0,004	0,071
-132,599	-21,685	0,052	0,023
-131,585	-4,008	0,031	0,015
-130,570	102,592	0,056	0,047
-129,556	-94,993	-0,135	0,026
-128,541	800,000	-0,039	-0,079
-127,526	-30,446	0,031	0,013
-126,512	-34,509	-0,155	-0,061
-125,497	539,118	0,039	0,067
-124,483	-48,569	0,081	-0,028
-123,468	128,224	-0,115	0,106
-122,453	800,000	-0,043	-0,121
-121,439	415,026	-0,133	-0,205
-120,424	452,281	0,038	0,061
-119,410	-115,135	-0,052	0,007
-118,395	-25,787	-0,126	0,053
-117,380	800,000	0,052	0,118
-116,366	370,709	-0,028	0,040
-115,351	-200,000	0,000	-0,048
-114,337	30,071	-0,054	0,033
-113,322	-200,000	0,009	-0,064
-112,307	-103,369	0,093	-0,016
-111,293	-200,000	0,008	0,107
-110,278	350,167	0,045	0,064
-109,264	-170,044	-0,082	-0,002
-108,249	-172,790	-0,065	-0,001
-107,234	-80,453	-0,037	-0,009
-106,220	-43,144	0,056	-0,020
-105,205	0,355	0,076	-0,039
-104,191	544,166	-0,050	0,086
-103,176	-200,000	0,054	0,183
-102,162	63,187	-0,090	-0,065
-101,147	-54,296	-0,052	0,017
-100,132	43,509	0,178	-0,117
-99,118	20,651	-0,122	0,071
-98,103	-60,810	0,021	0,006
-97,089	2,958	0,086	0,045
-96,074	38,792	0,059	0,038
-95,059	6,193	-0,053	-0,028
-94,045	-200,000	-0,034	-0,114
-93,030	-200,000	0,003	-0,025
-92,016	-6,077	-0,090	-0,044
-91,001	-54,684	0,047	0,015
-89,986	-200,000	0,001	0,035
-88,972	587,576	0,057	0,101
-87,957	296,964	0,093	0,123
-86,943	-200,000	0,003	0,037
-85,928	-86,461	-0,115	-0,025
-84,913	248,737	0,080	-0,097
-83,899	-200,000	-0,010	0,051
-82,884	800,000	-0,102	0,241
-81,870	226,549	0,077	0,090
-80,855	385,089	0,054	0,081
-79,840	52,886	0,081	0,056
-78,826	800,000	-0,034	0,087
-77,811	409,974	-0,058	-0,089
-76,797	179,146	-0,048	-0,050
-75,782	-82,662	-0,060	0,014
-74,767	-200,000	-0,007	-0,058
-73,753	269,498	-0,046	-0,058
-72,738	-167,301	0,068	-0,002
-71,724	208,271	-0,067	-0,075
-70,709	-200,000	0,020	-0,077
-69,694	159,882	-0,079	0,080
-68,680	10,476	0,048	-0,026
-67,665	800,000	0,089	0,271
-66,651	379,216	-0,062	0,092
-65,636	-6,884	0,062	0,030
-64,622	-41,602	-0,151	0,055
-63,607	305,674	-0,045	0,060
-62,592	608,128	0,058	-0,105
-61,578	-200,000	-0,021	0,075
-60,563	137,655	0,053	0,050
-59,549	33,616	-0,033	0,020
-58,534	40,395	-2,054	-1,324
-57,519	-200,000	-0,106	-0,668
-56,505	-200,000	-1,406	-5,209
-55,490	126,393	0,856	0,777
-54,476	800,000	5,413	11,994
-53,461	-200,000	19,206	326,589
-52,446	800,000	746,689	2336,441
-51,432	550,308	1659,721	2866,573
-50,417	114,066	1641,240	1431,772
-49,403	80,392	1290,838	995,927
-48,388	30,891	1030,954	632,035
-47,373	19,749	994,021	572,475
-46,359	16,754	981,617	555,443
-45,344	13,357	978,084	542,237
-44,330	13,695	976,470	542,433
-43,315	12,983	974,569	539,017
-42,300	12,981	973,354	538,315
-41,286	12,932	972,729	537,789
-40,271	12,907	971,685	537,108
-39,257	12,916	970,727	536,586
-38,242	12,927	969,843	536,114
-37,227	12,929	969,032	535,650
-36,213	12,953	968,007	535,141
-35,198	12,889	967,135	534,428
-34,184	13,007	966,337	534,352
-33,169	12,909	965,587	533,594
-32,154	13,026	964,379	533,287
-31,140	12,888	963,788	532,492
-30,125	12,970	962,841	532,211
-29,111	12,903	962,049	531,536
-28,096	12,944	961,362	531,268
-27,082	12,916	960,618	530,746
-26,067	13,010	959,781	530,567
-25,052	12,986	959,130	530,109
-24,038	12,925	958,525	529,555
-23,023	12,915	957,984	529,201
-22,009	13,003	957,192	529,028
-20,994	12,963	956,579	528,538
-19,979	12,992	956,013	528,300
-18,965	12,936	955,331	527,723
-17,950	12,986	954,688	527,506
-16,936	12,935	954,036	526,962
-15,921	12,925	953,493	526,607
-14,906	12,890	952,415	525,878
-13,892	12,831	952,181	525,541
-12,877	12,835	951,485	525,148
-11,863	12,842	950,748	524,744
-10,848	12,833	950,266	524,425
-9,833	12,929	949,676	524,388
-8,819	12,895	949,035	523,903
-7,804	12,825	948,357	523,285
-6,790	12,870	947,584	522,982
-5,775	12,881	947,366	522,878
-4,760	12,851	946,706	522,396
-3,746	12,780	946,152	521,844
-2,731	12,681	945,400	521,091
-1,717	12,693	944,599	520,668
-0,702	12,661	944,225	520,340
0,313	12,483	943,418	520,113
1,327	15,843	940,947	529,352
2,342	24,851	793,944	470,553
3,356	20,488	457,904	264,694
4,371	-7,117	316,112	153,166
5,386	-11,389	298,212	140,122
6,400	-13,273	291,915	135,268
7,415	-13,417	289,686	134,081
8,429	-13,428	288,041	133,296
9,444	-13,501	287,075	132,766
10,459	-13,599	286,671	132,471
11,473	-13,436	285,869	132,248
12,488	-13,463	285,451	132,017
13,502	-13,660	285,063	131,633
14,517	-13,389	284,595	131,669
15,531	-13,028	284,076	131,768
16,546	-12,894	283,859	131,786
17,561	-12,952	283,537	131,568
18,575	-12,817	283,130	131,498
19,590	-13,039	282,773	131,106
20,604	-12,867	282,531	131,149
21,619	-12,986	282,146	130,844
22,634	-12,916	281,832	130,754
23,648	-12,818	281,481	130,673
24,663	-12,867	281,212	130,489
25,677	-12,794	280,983	130,442
26,692	-12,723	280,683	130,359
27,707	-12,805	280,373	130,125
28,721	-12,696	279,955	130,023
29,736	-12,829	279,832	129,827
30,750	-12,794	279,541	129,714
31,765	-12,756	279,188	129,576
32,780	-12,960	278,958	129,262
33,794	-12,853	278,775	129,269
34,809	-12,762	278,494	129,213
35,823	-12,851	278,377	129,063
36,838	-12,904	278,085	128,866
37,853	-12,766	277,766	128,837
38,867	-12,791	277,391	128,628
39,882	-12,974	277,336	128,418
40,896	-12,919	277,187	128,389
41,911	-12,665	276,574	128,334
42,926	-12,771	276,538	128,205
43,940	-12,712	276,199	128,093
44,955	-12,906	276,152	127,876
45,969	-13,056	275,845	127,581
46,984	-12,876	275,534	127,595
47,999	-13,037	275,505	127,419
49,013	-12,904	275,132	127,360
50,028	-12,991	274,764	127,097
51,042	-13,075	274,630	126,946
52,057	-13,043	274,357	126,838
53,071	-12,999	274,123	126,759
54,086	-13,076	274,121	126,675
55,101	-13,027	273,672	126,502
56,115	-13,087	273,620	126,411
57,130	-13,011	273,479	126,405
58,144	-12,944	272,989	126,230
59,159	-12,926	272,770	126,134
60,174	-12,986	272,553	125,967
61,188	-12,757	272,466	126,128
62,203	-12,709	272,240	126,057
63,217	-12,846	271,918	125,769
64,232	-13,009	271,736	125,523
65,247	-12,960	271,375	125,390
66,261	-13,108	271,275	125,196
67,276	-12,807	270,912	125,295
68,290	-13,007	270,861	125,076
69,305	-13,131	270,606	124,833
70,320	-12,899	270,275	124,882
71,334	-12,750	270,246	124,995
72,349	-12,731	269,854	124,820
73,363	-12,911	269,465	124,464
74,378	-13,050	269,519	124,350
75,393	-12,933	269,196	124,297
76,407	-13,003	269,154	124,202
77,422	-13,013	268,742	123,992
78,436	-12,934	268,465	123,925
79,451	-13,053	268,446	123,797
80,466	-12,994	268,194	123,724
81,480	-12,974	267,844	123,569
82,495	-12,987	267,640	123,453
83,509	-12,817	267,503	123,533
84,524	-12,903	267,342	123,369
85,539	-12,799	267,073	123,328
86,553	-12,985	266,928	123,082
87,568	-12,754	266,619	123,137
88,582	-12,801	266,368	122,968
89,597	-12,973	266,236	122,741
90,611	-12,717	265,866	122,791
91,626	-12,928	265,897	122,604
92,641	-12,920	265,637	122,480
93,655	-12,758	265,378	122,496
94,670	-12,836	265,073	122,273
95,684	-12,943	264,916	122,094
96,699	-12,808	264,679	122,095
97,714	-12,963	264,540	121,881
98,728	-13,154	264,345	121,609
99,743	-12,697	264,081	121,886
100,757	-12,824	263,930	121,692
101,772	-12,746	263,732	121,659
102,787	-13,044	263,615	121,328
103,801	-12,952	263,432	121,316
104,816	-12,941	263,040	121,134
105,830	-13,004	262,927	121,015
106,845	-13,048	262,823	120,917
107,860	-13,067	262,537	120,757
108,874	-12,951	262,223	120,705
109,889	-13,089	261,965	120,453
110,903	-13,024	261,996	120,515
111,918	-12,945	261,633	120,407
112,933	-13,036	261,559	120,282
113,947	-12,919	261,290	120,251
114,962	-13,040	261,155	120,071
115,976	-13,042	261,053	120,011
116,991	-12,970	260,683	119,894
118,006	-12,813	260,470	119,924
119,020	-12,862	260,155	119,726
120,035	-13,018	260,300	119,644
121,049	-12,763	259,957	119,700
122,064	-13,079	259,844	119,359
123,079	-13,080	259,699	119,281
124,093	-13,001	259,405	119,205
125,108	-12,854	259,154	119,208
126,122	-12,970	258,970	119,011
127,137	-12,996	258,913	118,951
128,151	-12,894	258,661	118,914
129,166	-12,942	258,405	118,744
130,181	-12,954	258,197	118,627
131,195	-12,935	257,884	118,489
132,210	-13,059	257,860	118,359
133,224	-13,038	257,611	118,253
134,239	-12,977	257,341	118,172
135,254	-13,064	257,169	118,007
136,268	-13,109	256,938	117,850
137,283	-12,986	256,754	117,863
138,297	-13,017	256,708	117,804
139,312	-13,074	256,470	117,635
140,327	-13,145	256,449	117,553
141,341	-12,884	256,129	117,622
142,356	-12,899	255,814	117,454
143,370	-12,831	255,706	117,453
144,385	-12,772	255,471	117,385
145,400	-12,655	255,205	117,354
146,414	-12,986	255,339	117,119
147,429	-12,684	254,749	117,098
148,443	-12,865	254,728	116,922
149,458	-12,892	254,555	116,809
150,473	-12,746	254,381	116,844
151,487	-12,947	254,012	116,492
152,502	-12,820	253,951	116,563
153,516	-12,860	253,747	116,424
154,531	-12,887	253,710	116,373
155,546	-12,817	253,388	116,276
156,560	-13,005	253,303	116,065
157,575	-13,207	253,016	115,750
158,589	-12,996	252,738	115,793
159,604	-12,796	252,676	115,926
160,619	-12,704	252,598	115,958
161,633	-12,885	252,407	115,705
162,648	-12,668	252,213	115,791
163,662	-12,896	251,910	115,447
164,677	-13,036	251,749	115,244
165,692	-13,035	251,698	115,212
166,706	-12,973	251,440	115,136
167,721	-12,710	251,289	115,279
168,735	-12,951	251,153	115,003
169,750	-13,052	251,031	114,851
170,764	-12,778	250,773	114,954
171,779	-12,804	250,768	114,920
172,794	-12,744	250,448	114,814
173,808	-12,785	250,277	114,691
174,823	-12,928	250,007	114,436
175,837	-13,003	249,845	114,289
176,852	-12,956	249,813	114,303
177,867	-12,849	249,604	114,288
178,881	-12,960	249,439	114,108
179,896	-12,890	249,226	114,060
180,910	-12,902	249,096	113,980
181,925	-13,033	248,992	113,812
182,940	-12,848	248,768	113,855
183,954	-12,976	248,448	113,591
184,969	-12,750	248,454	113,773
185,983	-12,949	248,404	113,573
186,998	-12,763	248,035	113,550
188,013	-12,852	247,865	113,388
189,027	-12,757	247,759	113,408
190,042	-12,943	247,608	113,173
191,056	-13,182	247,319	112,833
192,071	-13,140	247,065	112,741
193,086	-13,308	246,892	112,513
194,100	-13,044	246,653	112,613
195,115	-12,848	246,527	112,708
196,129	-12,706	246,339	112,730
197,144	-12,886	246,066	112,446
198,159	-13,085	245,939	112,213
199,173	-13,130	245,862	112,131
200,188	-13,199	245,452	111,877
201,202	-13,238	245,431	111,825
202,217	-13,292	245,332	111,726
203,232	-13,418	245,091	111,502
204,246	-13,249	244,574	111,395
205,261	-14,149	244,145	110,450
206,275	-14,270	244,140	110,339
207,290	-10,182	245,748	114,435
208,304	-3,131	247,994	121,339
209,319	1,410	249,222	125,715
210,334	2,252	249,395	126,492
211,348	2,828	249,523	127,025
212,363	3,102	249,387	127,173
213,377	3,371	249,499	127,443
214,392	3,586	249,404	127,561
215,407	3,804	249,389	127,723
216,421	3,734	249,083	127,497
217,436	3,868	248,778	127,441
218,450	3,652	248,785	127,253
219,465	3,665	248,430	127,072
220,480	3,428	248,259	126,777
221,494	3,302	248,106	126,583
222,509	3,367	247,642	126,389
223,523	2,963	247,414	125,928
224,538	2,522	247,366	125,529
225,553	2,457	247,191	125,375
226,567	2,463	246,911	125,227
227,582	2,565	246,764	125,225
228,596	2,622	246,579	125,167
229,611	2,430	246,527	124,971
230,626	2,380	246,261	124,785
231,640	2,476	246,157	124,800
232,655	2,538	245,881	124,699
233,669	2,301	245,782	124,444
234,684	2,290	245,695	124,379
235,699	2,561	245,535	124,510
236,713	2,665	245,237	124,432
237,728	2,434	245,252	124,240
238,742	2,746	245,061	124,387
239,757	2,541	244,843	124,098
240,772	2,382	244,659	123,864
241,786	2,547	244,496	123,905
242,801	2,396	244,321	123,682
243,815	2,418	244,242	123,649
244,830	2,444	244,029	123,551
245,844	2,496	243,831	123,483
246,859	2,331	243,756	123,299
247,874	2,343	243,506	123,172
248,888	2,515	243,433	123,264
249,903	2,678	243,352	123,343
250,917	2,682	243,081	123,198
251,932	2,560	243,027	123,061
252,947	2,520	242,986	122,997
253,961	2,535	242,695	122,850
254,976	2,666	242,320	122,756
255,990	2,640	242,184	122,655
257,005	2,426	242,052	122,405
258,020	2,656	241,958	122,531
259,034	2,625	241,859	122,445
260,049	2,575	241,771	122,350
261,063	2,507	241,669	122,232
262,078	2,424	241,441	122,040
263,093	2,570	241,291	122,070
264,107	2,535	241,155	121,962
265,122	2,459	240,928	121,776
266,136	2,630	240,719	121,796
267,151	2,784	240,582	121,839
268,166	2,479	240,419	121,502
269,180	2,242	240,190	121,187
270,195	2,553	240,000	121,328
271,209	2,552	240,022	121,327
272,224	2,837	239,665	121,362
273,239	2,457	239,647	121,040
274,253	2,669	239,445	121,096
275,268	2,669	239,369	121,047
276,282	2,465	239,167	120,772
277,297	2,372	238,982	120,594
278,312	2,519	238,918	120,667
279,326	2,586	238,701	120,600
280,341	2,483	238,505	120,409
281,355	2,535	238,483	120,428
282,370	2,516	238,266	120,293
283,384	2,591	238,152	120,284
284,399	2,526	238,037	120,164
285,414	2,499	237,704	119,964
286,428	2,747	237,604	120,098
287,443	2,346	237,561	119,750
288,457	2,450	237,485	119,783
289,472	2,397	237,166	119,569
290,487	2,716	236,926	119,688
291,501	2,427	236,901	119,438
292,516	2,365	236,699	119,277
293,530	2,283	236,547	119,125
294,545	2,553	236,416	119,260
295,560	2,487	236,333	119,156
296,574	2,583	236,094	119,099
297,589	2,545	235,997	119,010
298,603	2,720	235,740	119,007
299,618	2,405	235,682	118,721
300,633	2,688	235,624	118,902
301,647	2,621	235,523	118,788
302,662	2,848	235,315	118,849
303,676	2,741	235,082	118,638
304,691	2,758	235,002	118,600
305,706	2,755	234,878	118,524
306,720	2,789	234,614	118,407
307,735	2,741	234,492	118,298
308,749	2,836	234,291	118,260
309,764	2,354	234,123	117,791
310,779	2,455	233,920	117,757
311,793	2,689	233,825	117,880
312,808	2,527	233,686	117,674
313,822	2,604	233,626	117,692
314,837	2,652	233,463	117,637
315,852	2,899	233,269	117,719
316,866	2,832	233,009	117,525
317,881	2,778	233,016	117,477
318,895	2,860	232,886	117,464
319,910	2,602	232,686	117,154
320,925	2,611	232,542	117,078
321,939	2,680	232,394	117,047
322,954	2,808	232,108	116,990
323,968	2,422	232,043	116,651
324,983	2,577	231,880	116,677
325,997	2,725	231,769	116,724
327,012	2,791	231,548	116,654
328,027	2,818	231,517	116,647
329,041	2,587	231,325	116,364
330,056	2,794	231,045	116,371
331,070	2,857	231,099	116,435
332,085	2,694	231,060	116,281
333,100	2,652	230,697	116,057
334,114	2,542	230,557	115,892
335,129	2,642	230,352	115,855
336,143	2,573	230,317	115,774
337,158	2,682	230,187	115,782
338,173	2,709	230,038	115,717
339,187	2,621	229,991	115,616
340,202	2,670	229,827	115,560
341,216	2,716	229,467	115,404
342,231	2,653	229,448	115,336
343,246	2,563	229,164	115,115
344,260	2,795	229,074	115,235
345,275	2,796	228,980	115,178
346,289	2,825	228,821	115,110
347,304	2,565	228,855	114,921
348,319	2,654	228,483	114,790
349,333	2,561	228,306	114,621
350,348	2,467	228,293	114,534
351,362	2,527	228,237	114,541
352,377	2,589	227,922	114,419
353,392	2,602	227,724	114,320
354,406	2,270	227,672	114,034
355,421	195,688	1313,716	1389,703
356,435	156,956	1445,973	1389,633
