DTS Sentinel unit serial number:	SN410029Multiplexer serial number:	ORYXHardware model number:	OX2-SRSoftware version number:	ORYX F/W v4,00 Oryx Data Collector v3.7.2.0data status	okinstallation	B5 Nyhavnadifferential loss correction	single-endedforward channel	channel 2reverse channel	N/Adate	2023/12/13time	14:07:13forward acquisition time	300,00reverse acquisition time	0,00gamma	499,1914k internal	0,3161k external	0,3161temperature offset calibration	1,0000default loss term (dB/km)	0,3820temperature slope calibration	1,0000multiplexer offset coefficient	1,0000multiplexer slope coefficient	1,0000fibre end	0,00T internal ref (°C)	14,88T ext. ref 1 (°C)	-1,13T ext. ref 2 (°C)	-1,42length (m)	temperature (°C)	Stokes	anti-Stokes-744,400	-10,570	0,070	0,034
-743,385	-126,973	-0,295	0,032
-742,371	-91,041	0,105	-0,022
-741,356	29,987	-0,305	0,191
-740,342	87,538	0,116	0,094
-739,327	-80,773	-0,247	-0,060
-738,312	-65,705	0,179	0,052
-737,298	-164,001	-0,386	0,013
-736,283	-200,000	0,021	0,262
-735,269	-82,005	-0,256	0,061
-734,254	23,752	0,183	0,111
-733,239	-27,896	-0,554	-0,235
-732,225	-66,144	0,167	-0,049
-731,210	215,991	0,037	-0,043
-730,196	800,000	0,021	-0,045
-729,181	-200,000	-0,014	0,052
-728,167	357,051	-0,044	-0,065
-727,152	51,498	0,042	-0,029
-726,137	235,217	-0,053	-0,064
-725,123	137,779	0,088	-0,085
-724,108	-200,000	-0,034	-0,155
-723,094	-200,000	-0,032	-0,156
-722,079	238,184	0,051	0,063
-721,064	-200,000	0,011	0,085
-720,050	259,877	-0,033	0,043
-719,035	-73,413	0,069	-0,018
-718,021	-200,000	-0,010	-0,079
-717,006	102,050	-0,118	-0,101
-715,991	169,803	-0,125	-0,132
-714,977	-200,000	0,003	-0,074
-713,962	-8,956	-0,070	-0,034
-712,948	-200,000	0,018	-0,092
-711,933	435,529	-0,052	-0,083
-710,918	266,395	0,066	0,085
-709,904	800,000	-0,048	-0,146
-708,889	-200,000	-0,004	-0,101
-707,875	645,335	-0,054	-0,102
-706,860	-98,592	0,105	-0,020
-705,845	-133,083	-0,091	0,008
-704,831	55,523	-0,036	0,026
-703,816	-117,198	0,058	-0,008
-702,802	171,492	0,145	-0,153
-701,787	-200,000	-0,019	0,068
-700,772	-169,326	-0,114	0,003
-699,758	-8,940	-0,016	0,008
-698,743	10,742	0,051	-0,029
-697,729	590,164	0,024	-0,044
-696,714	72,699	-0,051	-0,039
-695,699	-73,797	-0,075	0,020
-694,685	321,093	-0,066	-0,093
-693,670	135,873	-0,060	0,057
-692,656	169,964	0,027	-0,029
-691,641	-200,000	0,015	0,099
-690,627	-200,000	0,035	-0,136
-689,612	-200,000	0,021	-0,115
-688,597	460,797	-0,050	-0,082
-687,583	800,000	-0,044	-0,091
-686,568	800,000	-0,060	-0,177
-685,554	-170,537	0,040	-0,001
-684,539	458,819	-0,020	0,033
-683,524	-200,000	-0,016	-0,231
-682,510	-200,000	0,007	-0,075
-681,495	94,256	-0,073	-0,061
-680,481	-46,898	-0,155	-0,055
-679,466	-200,000	-0,010	-0,038
-678,451	-80,975	-0,090	-0,022
-677,437	800,000	0,011	0,036
-676,422	-42,472	0,136	0,051
-675,408	89,017	-0,136	-0,112
-674,393	800,000	0,018	0,051
-673,378	73,934	-0,003	0,003
-672,364	3,770	0,056	0,030
-671,349	3,332	-0,069	0,037
-670,335	-131,914	0,043	0,004
-669,320	178,756	-0,021	0,023
-668,305	272,389	0,073	0,095
-667,291	-2,893	0,032	-0,016
-666,276	444,138	0,047	0,076
-665,262	-200,000	-0,008	0,057
-664,247	-88,594	-0,061	-0,013
-663,232	246,532	0,047	-0,058
-662,218	575,208	-0,040	0,072
-661,203	-87,150	0,105	0,023
-660,189	619,760	0,041	0,076
-659,174	-36,495	-0,086	-0,034
-658,159	103,554	-0,041	0,035
-657,145	138,285	-0,044	-0,042
-656,130	-83,140	-0,094	0,022
-655,116	-97,814	-0,109	0,020
-654,101	-51,189	0,030	-0,010
-653,086	-184,301	0,039	-0,000
-652,072	252,274	0,056	-0,071
-651,057	-37,017	-0,102	-0,040
-650,043	38,434	-0,102	0,067
-649,028	-92,927	0,109	-0,022
-648,014	204,075	-0,025	-0,028
-646,999	235,430	0,045	-0,054
-645,984	19,772	-0,056	-0,033
-644,970	-110,991	-0,035	0,005
-643,955	-57,228	0,067	-0,021
-642,941	160,211	-0,146	-0,149
-641,926	-200,000	-0,020	-0,109
-640,911	229,011	-0,076	-0,091
-639,897	170,858	0,050	0,052
-638,882	-68,320	-0,042	0,012
-637,868	92,184	0,030	-0,025
-636,853	-200,000	-0,015	0,065
-635,838	715,119	0,054	-0,105
-634,824	-200,000	0,007	-0,050
-633,809	-172,216	0,080	0,002
-632,795	-200,000	0,006	-0,239
-631,780	-32,466	-0,061	-0,025
-630,765	66,851	0,120	0,089
-629,751	800,000	0,034	-0,097
-628,736	1,010	-0,189	-0,099
-627,722	339,074	-0,025	-0,036
-626,707	-25,876	-0,125	-0,054
-625,692	800,000	0,028	-0,063
-624,678	800,000	0,037	0,111
-623,663	-78,252	-0,069	-0,017
-622,649	6,153	-0,096	0,052
-621,634	103,319	-0,132	-0,113
-620,619	-200,000	-0,005	0,017
-619,605	137,094	0,057	0,055
-618,590	88,815	0,086	0,070
-617,576	-99,924	-0,011	-0,002
-616,561	236,114	0,090	0,109
-615,546	223,973	0,027	0,032
-614,532	10,748	-0,154	-0,086
-613,517	-133,197	0,039	-0,004
-612,503	69,475	0,003	-0,003
-611,488	-200,000	0,004	0,181
-610,474	-200,000	0,020	0,073
-609,459	-200,000	-0,004	0,062
-608,444	-200,000	0,035	-0,125
-607,430	174,165	0,056	-0,060
-606,415	164,450	-0,083	-0,086
-605,401	81,034	-0,067	-0,053
-604,386	800,000	0,040	-0,123
-603,371	-200,000	-0,020	0,076
-602,357	211,265	0,052	-0,060
-601,342	-58,584	-0,064	-0,020
-600,328	11,298	-0,097	-0,054
-599,313	-200,000	-0,025	-0,166
-598,298	-99,699	-0,073	-0,013
-597,284	-200,000	0,004	-0,040
-596,269	-123,586	0,133	-0,015
-595,255	342,092	0,069	-0,100
-594,240	-148,178	-0,083	0,005
-593,225	-200,000	-0,036	-0,128
-592,211	658,166	0,077	0,145
-591,196	312,089	-0,048	0,067
-590,182	36,122	0,065	-0,042
-589,167	-17,236	-0,149	-0,068
-588,152	-10,427	0,073	-0,035
-587,138	51,958	-0,064	-0,045
-586,123	-11,163	0,038	0,018
-585,109	-200,000	-0,036	0,188
-584,094	-200,000	0,006	-0,106
-583,079	800,000	0,042	0,097
-582,065	-200,000	0,010	0,057
-581,050	358,866	-0,040	0,058
-580,036	-200,000	-0,020	0,101
-579,021	-3,039	-0,059	-0,030
-578,006	296,192	0,084	-0,114
-576,992	89,339	0,056	-0,046
-575,977	768,785	0,055	-0,111
-574,963	-8,015	0,063	0,031
-573,948	-90,016	0,052	0,011
-572,934	73,729	-0,075	0,057
-571,919	-43,473	-0,088	-0,032
-570,904	-53,375	-0,116	-0,039
-569,890	171,189	-0,083	0,087
-568,875	288,199	0,081	0,108
-567,861	34,454	0,085	-0,054
-566,846	-200,000	0,049	-0,178
-565,831	-200,000	-0,012	0,088
-564,817	323,899	-0,074	-0,104
-563,802	310,176	0,033	-0,045
-562,788	124,936	0,019	-0,018
-561,773	-73,945	-0,102	-0,027
-560,758	-200,000	-0,014	-0,169
-559,744	800,000	0,027	-0,054
-558,729	800,000	0,028	-0,059
-557,715	-64,716	0,027	-0,008
-556,700	-200,000	-0,004	-0,019
-555,685	800,000	-0,020	-0,061
-554,671	-200,000	-0,036	-0,179
-553,656	-83,596	-0,085	0,020
-552,642	-99,613	0,099	-0,018
-551,627	485,209	-0,032	-0,053
-550,612	634,389	0,005	-0,010
-549,598	-200,000	0,004	-0,042
-548,583	-52,044	-0,059	0,020
-547,569	-200,000	-0,037	0,133
-546,554	4,659	-0,017	0,009
-545,539	-38,508	0,116	-0,045
-544,525	-136,554	-0,089	-0,007
-543,510	-200,000	-0,025	-0,088
-542,496	269,623	0,085	-0,109
-541,481	75,747	-0,076	0,058
-540,466	-84,111	0,089	0,021
-539,452	-200,000	-0,043	0,183
-538,437	-127,638	-0,081	0,008
-537,423	57,503	-0,109	-0,077
-536,408	-95,880	0,117	0,023
-535,393	-127,551	-0,127	0,013
-534,379	-200,000	-0,015	-0,179
-533,364	637,394	-0,037	-0,068
-532,350	-58,311	0,045	-0,014
-531,335	-86,859	0,065	-0,014
-530,321	-32,397	0,098	-0,040
-529,306	427,555	0,122	0,193
-528,291	-113,427	-0,038	0,005
-527,277	10,783	-0,190	-0,106
-526,262	800,000	0,055	0,150
-525,248	-197,519	0,129	-0,001
-524,233	-200,000	0,008	0,034
-523,218	309,405	0,043	-0,059
-522,204	106,802	-0,024	-0,021
-521,189	-128,724	0,017	-0,002
-520,175	800,000	-0,064	-0,169
-519,160	-99,417	-0,097	-0,018
-518,145	-75,742	0,057	-0,015
-517,131	-123,527	0,047	0,005
-516,116	-126,799	0,068	0,007
-515,102	478,826	-0,048	0,080
-514,087	221,077	-0,045	0,053
-513,072	178,111	-0,048	0,051
-512,058	-200,000	-0,019	-0,071
-511,043	147,116	-0,080	-0,079
-510,029	-19,840	0,069	0,031
-509,014	177,685	0,076	0,081
-507,999	800,000	-0,092	0,190
-506,985	21,024	0,086	0,051
-505,970	592,745	-0,012	0,022
-504,956	52,954	0,036	0,025
-503,941	-90,279	-0,065	-0,014
-502,926	684,818	0,023	-0,044
-501,912	-44,918	-0,039	0,014
-500,897	338,787	-0,030	0,043
-499,883	477,243	-0,085	0,141
-498,868	-200,000	-0,025	-0,130
-497,853	800,000	0,022	-0,066
-496,839	771,091	-0,055	0,110
-495,824	800,000	0,038	0,097
-494,810	-57,422	0,075	-0,024
-493,795	408,344	0,012	-0,018
-492,781	-200,000	-0,001	-0,145
-491,766	-93,099	-0,150	0,030
-490,751	-114,706	-0,193	0,027
-489,737	800,000	0,010	0,025
-488,722	-99,795	0,153	0,028
-487,708	-200,000	-0,036	0,217
-486,693	33,548	0,075	0,047
-485,678	-200,000	-0,026	-0,218
-484,664	-200,000	0,009	0,033
-483,649	64,468	-0,036	0,026
-482,635	-200,000	-0,002	0,023
-481,620	-152,812	-0,034	0,002
-480,605	-200,000	-0,001	0,056
-479,591	-200,000	0,003	0,071
-478,576	-200,000	-0,005	0,072
-477,562	735,958	0,028	-0,055
-476,547	11,211	-0,072	0,040
-475,532	-179,162	-0,081	-0,001
-474,518	90,063	-0,076	0,062
-473,503	115,707	0,053	-0,047
-472,489	29,485	0,089	-0,055
-471,474	301,746	0,052	-0,070
-470,459	590,964	-0,038	-0,068
-469,445	551,643	0,017	0,029
-468,430	-65,805	-0,050	0,015
-467,416	438,105	-0,054	-0,086
-466,401	800,000	0,066	0,144
-465,386	-200,000	-0,001	0,053
-464,372	648,550	0,044	0,082
-463,357	39,782	0,056	-0,036
-462,343	614,796	0,047	0,085
-461,328	28,309	-0,117	-0,072
-460,313	124,920	0,077	-0,071
-459,299	81,851	0,093	-0,073
-458,284	607,003	-0,048	0,088
-457,270	-83,192	0,023	-0,005
-456,255	-200,000	0,060	-0,210
-455,241	-64,823	-0,144	-0,042
-454,226	-63,871	-0,049	-0,014
-453,211	-81,662	0,122	-0,029
-452,197	-75,679	-0,149	-0,038
-451,182	-200,000	0,039	0,140
-450,168	743,876	0,051	0,099
-449,153	-29,582	-0,037	0,015
-448,138	-48,629	-0,196	-0,068
-447,124	158,426	-0,018	-0,018
-446,109	87,116	0,056	-0,045
-445,095	800,000	0,034	-0,094
-444,080	264,825	0,131	0,167
-443,065	-200,000	0,000	0,056
-442,051	-22,458	-0,162	-0,071
-441,036	-77,545	0,014	0,003
-440,022	-3,820	-0,216	0,109
-439,007	658,973	0,035	-0,066
-437,992	-200,000	-0,008	0,080
-436,978	134,516	0,075	0,071
-435,963	-73,525	-0,133	-0,035
-434,949	210,443	0,058	0,066
-433,934	453,749	-0,038	0,061
-432,919	98,390	0,057	-0,048
-431,905	261,889	-0,075	0,094
-430,890	-200,000	-0,031	0,159
-429,876	-38,311	0,137	0,052
-428,861	800,000	0,062	0,147
-427,846	-59,452	0,053	0,017
-426,832	246,024	0,015	-0,019
-425,817	129,481	0,108	-0,101
-424,803	-200,000	0,008	-0,041
-423,788	-200,000	-0,006	0,026
-422,773	89,136	0,158	0,128
-421,759	81,312	-0,048	-0,037
-420,744	399,174	0,062	0,094
-419,730	91,695	-0,100	-0,082
-418,715	-200,000	-0,018	-0,067
-417,701	-200,000	0,009	0,065
-416,686	-135,764	0,092	0,008
-415,671	-0,056	-0,172	0,089
-414,657	-200,000	0,004	0,073
-413,642	355,663	0,011	0,016
-412,628	-200,000	-0,005	0,201
-411,613	-52,826	-0,129	0,043
-410,598	-182,455	0,066	0,001
-409,584	-200,000	-0,014	0,049
-408,569	-200,000	0,004	0,112
-407,555	-23,116	0,085	-0,037
-406,540	-200,000	0,012	0,126
-405,525	-155,828	0,023	0,001
-404,511	-200,000	-0,014	-0,055
-403,496	111,783	0,017	-0,015
-402,482	-200,000	-0,007	-0,087
-401,467	-76,908	0,028	-0,007
-400,452	576,506	-0,091	0,163
-399,438	73,209	0,077	-0,058
-398,423	-200,000	-0,000	-0,158
-397,409	95,809	-0,085	-0,071
-396,394	800,000	0,019	-0,039
-395,379	277,411	0,099	0,128
-394,365	583,141	0,047	-0,084
-393,350	-21,872	-0,075	0,033
-392,336	264,464	0,077	0,097
-391,321	-103,554	0,106	-0,018
-390,306	800,000	0,018	-0,053
-389,292	-200,000	-0,011	-0,059
-388,277	293,923	0,036	0,048
-387,263	-200,000	-0,016	-0,089
-386,248	-200,000	0,005	0,151
-385,233	-37,240	0,018	-0,007
-384,219	-52,503	-0,067	0,022
-383,204	786,575	-0,051	-0,102
-382,190	-200,000	0,014	-0,142
-381,175	233,399	-0,086	-0,102
-380,160	-200,000	-0,000	0,085
-379,146	800,000	-0,028	0,083
-378,131	800,000	-0,031	0,066
-377,117	298,456	0,053	0,070
-376,102	403,620	0,048	-0,073
-375,088	102,767	-0,016	-0,014
-374,073	-200,000	0,033	0,115
-373,058	84,299	0,189	0,150
-372,044	-150,908	-0,052	-0,003
-371,029	-34,272	-0,050	-0,020
-370,015	-200,000	0,044	0,142
-369,000	-200,000	0,018	-0,110
-367,985	16,919	-0,116	-0,067
-366,971	800,000	0,056	0,150
-365,956	-17,480	0,079	0,036
-364,942	-200,000	0,001	-0,005
-363,927	8,829	-0,055	-0,030
-362,912	-200,000	-0,005	0,042
-361,898	-200,000	-0,011	0,056
-360,883	-9,696	-0,114	0,055
-359,869	244,218	-0,119	-0,145
-358,854	74,780	0,096	0,073
-357,839	686,624	0,045	0,085
-356,825	272,646	-0,038	-0,049
-355,810	-120,174	0,015	0,002
-354,796	-108,243	0,065	-0,010
-353,781	37,000	-0,089	-0,057
-352,766	562,810	0,028	-0,049
-351,752	-200,000	0,006	0,050
-350,737	77,772	-0,080	0,062
-349,723	435,960	0,054	0,085
-348,708	-38,177	0,161	0,062
-347,693	292,430	-0,036	-0,048
-346,679	-200,000	-0,022	-0,118
-345,664	117,858	-0,094	0,084
-344,650	98,889	-0,050	-0,041
-343,635	-200,000	0,005	0,049
-342,620	31,670	-0,117	0,073
-341,606	-200,000	-0,038	0,162
-340,591	800,000	0,071	-0,146
-339,577	-37,490	-0,085	-0,033
-338,562	-200,000	-0,028	0,124
-337,548	-53,510	0,120	0,039
-336,533	758,694	-0,040	-0,079
-335,518	238,963	0,019	-0,023
-334,504	147,356	-0,117	0,114
-333,489	1,510	-0,070	-0,036
-332,475	651,561	-0,004	0,008
-331,460	-143,977	0,077	-0,005
-330,445	800,000	0,011	0,026
-329,431	-91,717	-0,039	-0,008
-328,416	-153,925	0,034	-0,002
-327,402	-200,000	0,007	-0,092
-326,387	22,649	-0,077	-0,045
-325,372	73,624	-0,060	-0,045
-324,358	-110,926	-0,113	-0,017
-323,343	265,583	-0,056	-0,071
-322,329	-59,458	0,178	0,055
-321,314	103,278	0,081	0,069
-320,299	57,428	0,038	0,027
-319,285	-7,960	0,053	-0,026
-318,270	586,620	-0,061	-0,109
-317,256	33,835	-0,067	0,042
-316,241	15,503	0,074	-0,042
-315,226	19,839	0,057	-0,033
-314,212	-142,180	0,093	0,007
-313,197	800,000	0,106	0,265
-312,183	71,617	-0,058	-0,044
-311,168	-200,000	0,000	0,030
-310,153	-200,000	-0,002	0,125
-309,139	-200,000	-0,021	-0,160
-308,124	594,703	-0,061	0,111
-307,110	-200,000	0,028	0,196
-306,095	800,000	0,063	0,138
-305,080	20,610	0,060	0,035
-304,066	-17,587	0,067	-0,031
-303,051	-200,000	-0,031	-0,178
-302,037	-200,000	0,004	-0,168
-301,022	-57,053	0,056	-0,018
-300,008	800,000	-0,014	0,038
-298,993	-200,000	0,003	0,091
-297,978	800,000	-0,036	0,102
-296,964	-11,474	-0,087	0,041
-295,949	-101,453	-0,069	-0,012
-294,935	540,516	-0,040	-0,069
-293,920	-138,531	-0,020	0,002
-292,905	306,332	0,121	-0,163
-291,891	-73,015	0,069	-0,018
-290,876	-200,000	0,013	0,046
-289,862	336,031	-0,035	0,049
-288,847	-88,181	0,075	0,016
-287,832	-63,768	0,076	-0,022
-286,818	122,042	0,066	-0,059
-285,803	20,221	0,055	0,032
-284,789	-200,000	0,005	-0,065
-283,774	-34,801	0,083	-0,033
-282,759	272,577	-0,036	0,046
-281,745	16,339	0,048	0,027
-280,730	-7,559	-0,096	-0,047
-279,716	-200,000	0,005	-0,023
-278,701	800,000	0,044	0,099
-277,686	164,245	0,064	0,065
-276,672	-200,000	0,021	0,121
-275,657	290,136	-0,097	-0,127
-274,643	-73,458	-0,131	-0,034
-273,628	-200,000	0,028	-0,135
-272,613	3,905	0,067	-0,035
-271,599	102,527	0,047	-0,039
-270,584	-200,000	-0,040	0,148
-269,570	116,473	0,069	-0,061
-268,555	53,504	0,024	0,017
-267,540	-46,679	-0,100	-0,035
-266,526	-200,000	-0,015	-0,081
-265,511	-200,000	0,004	0,110
-264,497	-177,218	-0,080	0,001
-263,482	247,918	0,063	-0,077
-262,467	5,698	0,127	-0,068
-261,453	800,000	0,030	0,087
-260,438	-200,000	0,021	-0,162
-259,424	65,249	0,095	-0,069
-258,409	358,580	0,028	0,040
-257,395	-93,055	0,164	0,033
-256,380	800,000	-0,026	0,064
-255,365	-70,965	0,078	0,021
-254,351	17,465	-0,042	-0,024
-253,336	217,287	0,067	-0,078
-252,322	-67,044	-0,103	-0,029
-251,307	-105,550	-0,039	-0,006
-250,292	18,929	0,020	0,011
-249,278	107,680	0,054	0,047
-248,263	-193,384	0,053	-0,000
-247,249	800,000	-0,075	-0,164
-246,234	97,855	0,081	-0,067
-245,219	-200,000	-0,027	-0,116
-244,205	151,131	-0,111	-0,110
-243,190	-200,000	0,017	0,134
-242,176	-143,968	0,056	-0,004
-241,161	800,000	0,028	-0,064
-240,146	596,157	0,043	0,078
-239,132	-200,000	-0,001	-0,136
-238,117	324,922	0,052	-0,072
-237,103	-200,000	0,005	-0,073
-236,088	800,000	0,011	-0,027
-235,073	-200,000	0,015	0,058
-234,059	-68,191	0,046	0,013
-233,044	-12,698	-0,083	0,039
-232,030	-74,987	0,029	0,007
-231,015	-0,953	-0,048	0,025
-230,000	-131,623	0,040	0,004
-228,986	350,087	-0,030	-0,043
-227,971	228,441	0,069	0,082
-226,957	-200,000	0,040	0,189
-225,942	160,655	-0,024	-0,024
-224,927	-7,848	0,098	-0,048
-223,913	28,405	-0,100	-0,061
-222,898	-200,000	-0,008	0,032
-221,884	-200,000	0,014	-0,100
-220,869	-51,514	0,040	-0,013
-219,855	151,210	-0,107	-0,105
-218,840	-108,378	0,050	0,008
-217,825	311,541	0,029	0,039
-216,811	103,208	-0,150	-0,127
-215,796	-200,000	0,003	-0,014
-214,782	-19,929	-0,109	-0,048
-213,767	-200,000	-0,000	-0,027
-212,752	800,000	0,062	0,164
-211,738	800,000	0,067	0,189
-210,723	332,705	-0,061	-0,086
-209,709	32,063	-0,167	-0,104
-208,694	72,608	-0,149	-0,112
-207,679	-0,023	-0,143	-0,073
-206,665	-83,389	0,151	0,035
-205,650	800,000	-0,036	-0,113
-204,636	171,431	-0,048	-0,050
-203,621	-167,393	-0,030	-0,001
-202,606	212,612	0,043	0,049
-201,592	4,378	-0,036	-0,019
-200,577	-0,715	0,043	0,022
-199,563	-176,605	-0,084	0,002
-198,548	-200,000	-0,018	0,092
-197,533	52,311	0,130	0,089
-196,519	-84,217	-0,044	0,010
-195,504	119,184	-0,139	0,124
-194,490	-33,993	0,116	0,046
-193,475	655,993	-0,046	0,085
-192,460	-200,000	0,007	-0,064
-191,446	14,587	0,149	0,084
-190,431	-200,000	0,005	0,117
-189,417	130,302	-0,047	-0,043
-188,402	-105,971	0,103	0,017
-187,387	-200,000	-0,004	0,103
-186,373	-200,000	-0,057	0,000
-185,358	-93,915	-0,132	0,026
-184,344	5,159	0,112	0,059
-183,329	595,903	-0,028	0,050
-182,315	347,805	-0,016	-0,022
-181,300	264,315	-0,061	0,077
-180,285	-200,000	0,004	0,026
-179,271	65,488	0,110	-0,080
-178,256	473,615	0,028	0,045
-177,242	192,762	0,053	-0,058
-176,227	-93,654	0,054	0,011
-175,212	49,092	0,133	0,090
-174,198	-64,838	-0,058	-0,017
-173,183	191,472	-0,084	-0,091
-172,169	-1,628	-0,068	0,034
-171,154	-126,030	0,112	0,012
-170,139	-164,960	0,117	-0,004
-169,125	596,953	0,089	0,160
-168,110	16,314	0,017	0,010
-167,096	800,000	-0,028	0,058
-166,081	800,000	-0,027	-0,075
-165,066	538,198	-0,100	-0,172
-164,052	443,739	0,055	0,087
-163,037	800,000	-0,036	0,088
-162,023	800,000	-0,023	0,057
-161,008	135,253	0,068	0,063
-159,993	603,517	0,007	-0,013
-158,979	292,016	0,048	-0,063
-157,964	-200,000	0,012	-0,077
-156,950	34,182	0,057	-0,036
-155,935	112,443	0,036	0,031
-154,920	19,149	-0,047	-0,027
-153,906	-132,909	0,041	-0,004
-152,891	299,014	-0,039	-0,052
-151,877	254,648	-0,042	-0,052
-150,862	211,103	-0,065	-0,073
-149,847	-53,793	-0,012	-0,004
-148,833	-193,292	0,017	-0,000
-147,818	113,051	0,225	-0,196
-146,804	713,993	0,038	0,073
-145,789	347,606	0,118	0,167
-144,775	235,796	-0,096	0,115
-143,760	-200,000	-0,006	0,059
-142,745	254,953	0,030	-0,037
-141,731	800,000	0,065	0,158
-140,716	-19,918	0,074	-0,033
-139,702	-200,000	0,004	-0,064
-138,687	355,964	0,026	-0,037
-137,672	-70,674	-0,109	-0,029
-136,658	-106,996	-0,022	-0,003
-135,643	761,439	-0,057	-0,112
-134,629	240,060	-0,082	0,098
-133,614	-129,518	0,145	-0,014
-132,599	-17,628	-0,089	-0,040
-131,585	-98,179	-0,094	-0,017
-130,570	-103,790	-0,005	0,001
-129,556	17,314	0,034	-0,019
-128,541	276,435	-0,067	-0,086
-127,526	115,654	-0,038	-0,034
-126,512	-113,972	0,034	0,005
-125,497	800,000	-0,020	0,041
-124,483	383,307	0,029	0,042
-123,468	-200,000	-0,010	0,238
-122,453	-95,195	-0,076	0,015
-121,439	-7,400	-0,031	0,015
-120,424	-106,804	0,044	0,007
-119,410	-18,196	-0,062	0,028
-118,395	-160,282	0,136	0,005
-117,380	264,540	0,018	-0,023
-116,366	13,366	-0,035	0,019
-115,351	-89,823	-0,114	0,024
-114,337	347,014	-0,021	0,030
-113,322	800,000	-0,038	0,096
-112,307	20,045	0,068	-0,039
-111,293	-51,948	0,064	-0,021
-110,278	-2,885	0,030	0,015
-109,264	800,000	0,010	0,028
-108,249	-200,000	0,008	-0,036
-107,234	191,767	0,049	-0,053
-106,220	-200,000	-0,006	-0,023
-105,205	167,506	-0,040	-0,041
-104,191	-25,977	0,067	0,028
-103,176	-168,532	0,091	0,002
-102,162	226,179	-0,092	0,108
-101,147	117,847	-0,085	-0,075
-100,132	42,709	-0,064	-0,042
-99,118	53,038	-0,090	-0,062
-98,103	193,744	0,043	0,047
-97,089	800,000	0,034	-0,079
-96,074	280,051	0,095	0,122
-95,059	25,109	-0,013	-0,008
-94,045	-200,000	0,014	0,090
-93,030	55,308	0,058	-0,040
-92,016	-55,233	0,020	0,006
-91,001	777,538	0,045	0,089
-89,986	800,000	0,014	0,030
-88,972	-200,000	-0,021	0,162
-87,957	675,733	0,036	-0,067
-86,943	526,488	0,050	-0,085
-85,928	800,000	-0,032	-0,093
-84,913	800,000	-0,061	-0,135
-83,899	800,000	-0,028	-0,083
-82,884	515,932	-0,028	-0,047
-81,870	23,080	0,102	0,060
-80,855	84,748	-0,084	-0,066
-79,840	800,000	-0,043	-0,096
-78,826	-64,182	0,109	-0,032
-77,811	-60,397	-0,016	0,005
-76,797	238,533	0,009	0,011
-75,782	-71,117	-0,083	0,022
-74,767	74,444	-0,058	0,043
-73,753	386,763	0,051	0,077
-72,738	744,554	-0,064	0,124
-71,724	-200,000	0,000	0,123
-70,709	-0,966	-0,110	-0,055
-69,694	-92,543	0,052	0,010
-68,680	548,643	-0,053	-0,091
-67,665	-91,174	0,108	0,022
-66,651	91,264	0,067	0,054
-65,636	-200,000	-0,006	-0,026
-64,622	58,833	-0,038	0,027
-63,607	-200,000	-0,012	-0,088
-62,592	800,000	-0,014	-0,029
-61,578	-200,000	0,010	0,034
-60,563	305,484	0,119	0,160
-59,549	613,555	0,056	0,101
-58,534	2,588	-1,961	-1,016
-57,519	800,000	-0,380	-0,904
-56,505	-200,000	-1,359	-4,955
-55,490	102,126	0,780	0,653
-54,476	800,000	5,422	11,988
-53,461	-200,000	17,934	289,879
-52,446	800,000	729,735	2231,180
-51,432	535,867	1645,288	2809,833
-50,417	109,233	1634,954	1402,621
-49,403	74,895	1286,339	970,148
-48,388	31,523	1027,120	631,557
-47,373	20,036	988,741	570,135
-46,359	18,130	976,650	556,902
-45,344	15,145	972,708	544,876
-44,330	15,511	970,934	545,057
-43,315	14,941	969,041	542,114
-42,300	14,922	967,947	541,419
-41,286	14,824	967,130	540,622
-40,271	14,917	966,020	540,281
-39,257	14,904	965,154	539,734
-38,242	14,884	964,359	539,205
-37,227	14,896	963,474	538,727
-36,213	14,899	962,485	538,160
-35,198	14,890	961,643	537,639
-34,184	14,962	961,008	537,498
-33,169	14,850	960,119	536,616
-32,154	14,895	959,045	536,140
-31,140	14,916	958,400	535,825
-30,125	14,947	957,439	535,366
-29,111	14,938	956,522	534,802
-28,096	14,942	956,044	534,528
-27,082	14,913	955,403	534,055
-26,067	14,913	954,590	533,579
-25,052	14,896	953,797	533,061
-24,038	14,923	953,089	532,730
-23,023	14,864	952,563	532,228
-22,009	14,975	951,743	532,101
-20,994	14,934	951,173	531,631
-19,979	14,891	950,809	531,268
-18,965	14,891	949,946	530,767
-17,950	14,962	949,161	530,534
-16,936	14,864	948,725	529,955
-15,921	14,896	947,856	529,553
-14,906	14,821	947,218	528,936
-13,892	14,788	946,655	528,496
-12,877	14,832	945,904	528,195
-11,863	14,826	945,251	527,788
-10,848	14,756	944,966	527,387
-9,833	14,987	944,143	527,641
-8,819	14,849	943,783	526,979
-7,804	14,744	943,226	526,314
-6,790	14,812	942,727	526,230
-5,775	14,862	941,947	525,933
-4,760	14,849	941,236	525,475
-3,746	14,893	940,653	525,268
-2,731	14,627	940,178	524,142
-1,717	14,692	939,256	523,810
-0,702	14,677	938,667	523,415
0,313	14,514	938,011	523,325
1,327	17,692	935,802	532,039
2,342	26,655	792,284	474,119
3,356	23,388	457,675	268,879
4,371	-3,410	313,884	155,991
5,386	-7,459	295,818	142,911
6,400	-9,339	289,619	138,044
7,415	-9,901	287,270	136,359
8,429	-10,144	285,663	135,347
9,444	-10,059	284,686	134,955
10,459	-10,143	284,094	134,581
11,473	-10,118	283,551	134,336
12,488	-10,077	282,952	134,080
13,502	-10,312	282,574	133,662
14,517	-10,082	282,052	133,625
15,531	-10,188	281,591	133,293
16,546	-10,109	281,194	133,168
17,561	-10,175	280,862	132,936
18,575	-10,193	280,556	132,762
19,590	-10,149	280,065	132,560
20,604	-10,021	279,719	132,507
21,619	-10,331	279,477	132,084
22,634	-10,113	278,872	131,995
23,648	-10,240	278,840	131,847
24,663	-10,255	278,373	131,600
25,677	-10,438	278,437	131,444
26,692	-10,329	278,020	131,339
27,707	-10,215	277,677	131,274
28,721	-10,280	277,485	131,109
29,736	-10,328	277,178	130,907
30,750	-10,197	276,874	130,876
31,765	-10,362	276,701	130,627
32,780	-10,358	276,549	130,546
33,794	-10,266	276,312	130,510
34,809	-10,275	275,763	130,231
35,823	-10,124	275,600	130,284
36,838	-10,358	275,332	129,926
37,853	-10,350	275,102	129,813
38,867	-10,413	274,828	129,613
39,882	-10,218	274,677	129,713
40,896	-10,182	274,383	129,597
41,911	-10,287	274,068	129,338
42,926	-10,364	273,824	129,139
43,940	-10,230	273,686	129,189
44,955	-10,443	273,429	128,856
45,969	-10,460	273,219	128,730
46,984	-10,578	272,824	128,423
47,999	-10,678	272,676	128,249
49,013	-10,851	272,527	128,007
50,028	-10,912	272,066	127,723
51,042	-10,941	271,837	127,576
52,057	-11,186	271,673	127,261
53,071	-11,057	271,450	127,265
54,086	-10,998	271,286	127,231
55,101	-10,938	271,177	127,224
56,115	-10,509	270,982	127,517
57,130	-10,371	270,992	127,638
58,144	-10,093	270,604	127,700
59,159	-10,077	270,530	127,669
60,174	-10,196	270,255	127,418
61,188	-10,100	270,022	127,385
62,203	-9,981	269,652	127,308
63,217	-10,385	269,593	126,898
64,232	-10,135	269,327	126,991
65,247	-10,135	269,139	126,891
66,261	-10,097	268,972	126,835
67,276	-10,254	268,528	126,471
68,290	-10,357	268,396	126,304
69,305	-10,457	268,042	126,035
70,320	-10,420	267,785	125,936
71,334	-10,569	267,652	125,727
72,349	-10,327	267,675	125,947
73,363	-10,177	267,276	125,884
74,378	-10,070	266,982	125,832
75,393	-10,059	266,825	125,756
76,407	-9,981	266,620	125,719
77,422	-10,179	266,430	125,439
78,436	-10,083	266,168	125,392
79,451	-10,167	265,933	125,194
80,466	-10,146	265,661	125,074
81,480	-10,319	265,462	124,813
82,495	-10,335	265,314	124,717
83,509	-10,166	264,954	124,689
84,524	-10,400	264,965	124,473
85,539	-10,421	264,636	124,288
86,553	-10,519	264,414	124,085
87,568	-10,321	264,146	124,125
88,582	-10,348	263,953	124,000
89,597	-10,260	263,810	124,000
90,611	-10,248	263,734	123,964
91,626	-10,194	263,556	123,918
92,641	-10,233	263,337	123,769
93,655	-10,247	263,176	123,669
94,670	-10,117	262,844	123,619
95,684	-10,301	262,673	123,363
96,699	-10,306	262,510	123,271
97,714	-10,100	262,151	123,275
98,728	-10,395	262,029	122,944
99,743	-10,398	261,788	122,817
100,757	-10,659	261,632	122,502
101,772	-10,310	261,237	122,615
102,787	-10,285	261,228	122,623
103,801	-10,438	261,093	122,412
104,816	-10,083	260,787	122,572
105,830	-10,313	260,861	122,392
106,845	-10,149	260,608	122,408
107,860	-10,047	260,137	122,266
108,874	-10,252	260,217	122,111
109,889	-10,141	259,959	122,077
110,903	-10,203	259,812	121,943
111,918	-10,096	259,584	121,919
112,933	-10,244	259,401	121,692
113,947	-10,167	259,105	121,610
114,962	-10,222	259,087	121,542
115,976	-10,245	258,832	121,391
116,991	-10,295	258,683	121,267
118,006	-10,244	258,360	121,150
119,020	-10,303	258,404	121,108
120,035	-10,042	258,105	121,184
121,049	-10,200	257,981	120,978
122,064	-10,103	257,752	120,944
123,079	-10,189	257,503	120,742
124,093	-10,092	257,205	120,675
125,108	-10,306	257,103	120,431
126,122	-10,574	256,695	119,996
127,137	-10,985	256,779	119,668
128,151	-10,387	256,444	120,020
129,166	-10,478	256,249	119,839
130,181	-10,433	255,966	119,735
131,195	-10,472	255,810	119,618
132,210	-10,354	255,642	119,630
133,224	-10,114	255,532	119,776
134,239	-10,179	255,613	119,747
135,254	-10,066	255,115	119,600
136,268	-10,059	254,830	119,462
137,283	-10,672	254,797	118,908
138,297	-10,757	254,666	118,763
139,312	-10,603	254,323	118,725
140,327	-10,152	253,944	118,925
141,341	-9,973	254,036	119,111
142,356	-9,991	253,946	119,042
143,370	-9,997	253,716	118,918
144,385	-9,870	253,532	118,931
145,400	-9,991	253,453	118,779
146,414	-9,940	253,043	118,620
147,429	-10,083	253,099	118,514
148,443	-9,816	252,847	118,613
149,458	-9,875	252,713	118,489
150,473	-9,874	252,450	118,356
151,487	-10,155	252,273	118,023
152,502	-9,990	252,088	118,067
153,516	-10,017	252,048	118,015
154,531	-10,013	251,725	117,856
155,546	-9,900	251,482	117,827
156,560	-10,023	251,446	117,696
157,575	-10,181	251,230	117,451
158,589	-9,866	250,971	117,586
159,604	-9,991	250,861	117,418
160,619	-9,792	250,463	117,389
161,633	-9,924	250,489	117,279
162,648	-9,911	250,354	117,217
163,662	-10,008	250,231	117,067
164,677	-9,848	249,964	117,066
165,692	-9,938	249,986	116,990
166,706	-9,933	249,787	116,891
167,721	-9,901	249,500	116,773
168,735	-9,707	249,337	116,849
169,750	-10,042	249,126	116,458
170,764	-9,780	249,134	116,672
171,779	-9,724	248,841	116,572
172,794	-9,758	248,702	116,467
173,808	-10,114	248,589	116,106
174,823	-10,345	248,075	115,662
175,837	-10,502	247,954	115,465
176,852	-10,177	247,969	115,733
177,867	-9,790	247,821	115,977
178,881	-9,875	247,891	115,927
179,896	-9,891	247,464	115,705
180,910	-9,876	247,288	115,624
181,925	-9,735	247,149	115,667
182,940	-9,726	246,945	115,568
183,954	-9,745	246,710	115,432
184,969	-9,897	246,628	115,257
185,983	-9,707	246,496	115,343
186,998	-9,790	246,414	115,226
188,013	-9,803	246,202	115,106
189,027	-9,837	246,139	115,037
190,042	-9,911	245,739	114,779
191,056	-9,888	245,747	114,791
192,071	-9,918	245,463	114,624
193,086	-9,869	245,398	114,624
194,100	-9,837	245,133	114,516
195,115	-9,695	244,834	114,484
196,129	-9,628	244,657	114,446
197,144	-9,877	244,639	114,222
198,159	-9,777	244,277	114,124
199,173	-9,828	244,151	114,013
200,188	-9,850	244,002	113,916
201,202	-10,253	243,839	113,499
202,217	-10,238	243,505	113,346
203,232	-10,389	243,220	113,079
204,246	-9,988	243,308	113,438
205,261	-9,538	243,206	113,749
206,275	-10,499	242,894	112,808
207,290	-6,304	244,293	116,888
208,304	1,200	246,931	124,343
209,319	4,528	247,654	127,445
210,334	4,908	247,665	127,752
211,348	5,146	247,610	127,909
212,363	5,485	247,489	128,114
213,377	5,563	247,391	128,117
214,392	5,291	247,179	127,771
215,407	5,135	247,140	127,612
216,421	5,174	246,872	127,494
217,436	5,313	246,825	127,573
218,450	5,587	246,706	127,724
219,465	5,187	246,446	127,250
220,480	5,037	246,202	126,990
221,494	5,064	246,033	126,914
222,509	5,121	245,815	126,837
223,523	5,041	245,670	126,685
224,538	4,737	245,302	126,236
225,553	4,843	245,196	126,257
226,567	4,747	245,235	126,187
227,582	4,944	244,964	126,197
228,596	4,864	244,743	126,007
229,611	4,705	244,529	125,756
230,626	4,625	244,348	125,587
231,640	4,792	244,187	125,628
232,655	4,673	244,144	125,499
233,669	4,496	243,951	125,244
234,684	4,416	243,713	125,047
235,699	5,075	243,578	125,499
236,713	5,001	243,607	125,443
237,728	4,654	243,303	124,995
238,742	4,631	243,076	124,849
239,757	4,527	242,928	124,677
240,772	4,664	242,741	124,681
241,786	4,535	242,662	124,525
242,801	4,473	242,373	124,316
243,815	4,497	242,449	124,363
244,830	4,706	242,241	124,413
245,844	4,984	242,034	124,519
246,859	4,523	241,710	123,972
247,874	4,687	241,700	124,087
248,888	4,616	241,540	123,937
249,903	4,736	241,392	123,946
250,917	4,953	241,328	124,076
251,932	5,197	241,131	124,159
252,947	4,850	240,950	123,777
253,961	4,778	240,721	123,592
254,976	4,625	240,791	123,494
255,990	4,968	240,489	123,602
257,005	4,825	240,353	123,407
258,020	4,750	239,945	123,126
259,034	4,670	240,075	123,118
260,049	4,832	239,880	123,137
261,063	4,760	239,670	122,960
262,078	4,609	239,486	122,736
263,093	4,821	239,475	122,887
264,107	5,030	239,302	122,953
265,122	4,750	239,148	122,641
266,136	4,702	239,123	122,579
267,151	5,004	239,014	122,751
268,166	4,565	238,595	122,179
269,180	4,526	238,404	122,039
270,195	4,918	238,674	122,476
271,209	5,470	238,455	122,789
272,224	4,771	237,929	121,956
273,239	4,379	237,793	121,567
274,253	4,333	237,682	121,463
275,268	4,578	237,694	121,651
276,282	4,788	237,502	121,707
277,297	4,405	237,213	121,247
278,312	4,697	237,030	121,373
279,326	4,632	237,099	121,346
280,341	4,694	236,761	121,210
281,355	4,812	236,668	121,244
282,370	4,699	236,613	121,118
283,384	4,590	236,395	120,910
284,399	4,489	236,178	120,709
285,414	4,323	236,249	120,605
286,428	4,769	235,870	120,749
287,443	4,818	235,812	120,746
288,457	4,735	235,716	120,621
289,472	4,933	235,555	120,682
290,487	4,853	235,298	120,477
291,501	4,588	235,118	120,169
292,516	4,334	234,807	119,802
293,530	4,302	234,668	119,695
294,545	4,626	234,793	120,000
295,560	4,769	234,605	120,004
296,574	4,590	234,316	119,707
297,589	4,392	234,341	119,556
298,603	4,806	234,127	119,757
299,618	4,971	233,964	119,789
300,633	4,685	234,046	119,600
301,647	4,945	233,871	119,701
302,662	5,221	233,727	119,829
303,676	5,235	233,553	119,741
304,691	4,925	233,293	119,358
305,706	5,175	233,199	119,491
306,720	5,053	233,250	119,412
307,735	5,009	232,922	119,200
308,749	4,687	232,650	118,803
309,764	4,501	232,406	118,526
310,779	4,427	232,204	118,355
311,793	4,080	232,122	118,036
312,808	4,014	231,858	117,841
313,822	4,448	231,853	118,160
314,837	4,773	231,900	118,423
315,852	4,724	231,629	118,237
316,866	4,810	231,472	118,212
317,881	5,083	231,326	118,335
318,895	4,743	231,318	118,060
319,910	5,140	231,180	118,282
320,925	4,865	230,749	117,842
321,939	4,518	230,761	117,573
322,954	4,790	230,559	117,667
323,968	4,825	230,449	117,626
324,983	4,621	230,295	117,383
325,997	5,005	230,339	117,686
327,012	5,001	229,922	117,460
328,027	4,836	229,987	117,357
329,041	5,062	229,827	117,436
330,056	5,312	229,829	117,616
331,070	5,573	229,672	117,723
332,085	5,288	229,311	117,312
333,100	5,004	229,112	116,985
334,114	5,045	228,898	116,897
335,129	5,263	228,926	117,065
336,143	5,245	228,776	116,964
337,158	5,254	228,656	116,900
338,173	5,003	228,506	116,623
339,187	4,562	228,299	116,176
340,202	4,753	228,195	116,256
341,216	4,876	227,944	116,210
342,231	4,631	227,800	115,943
343,246	4,743	227,779	116,006
344,260	4,987	227,733	116,154
345,275	5,110	227,605	116,171
346,289	5,310	227,303	116,156
347,304	4,897	227,317	115,844
348,319	5,200	227,217	116,009
349,333	5,058	226,857	115,709
350,348	4,710	226,691	115,355
351,362	4,782	226,614	115,359
352,377	4,663	226,344	115,123
353,392	4,405	226,138	114,816
354,406	4,420	226,137	114,816
355,421	195,803	1318,104	1394,099
356,435	156,983	1451,134	1394,088
