DTS Sentinel unit serial number:	SN410029Multiplexer serial number:	ORYXHardware model number:	OX2-SRSoftware version number:	ORYX F/W v4,00 Oryx Data Collector v3.7.2.0data status	okinstallation	B5 Nyhavnadifferential loss correction	single-endedforward channel	channel 2reverse channel	N/Adate	2023/12/11time	18:42:13forward acquisition time	300,00reverse acquisition time	0,00gamma	499,1914k internal	0,3161k external	0,3161temperature offset calibration	1,0000default loss term (dB/km)	0,3820temperature slope calibration	1,0000multiplexer offset coefficient	1,0000multiplexer slope coefficient	1,0000fibre end	0,00T internal ref (°C)	15,31T ext. ref 1 (°C)	-0,37T ext. ref 2 (°C)	-0,56length (m)	temperature (°C)	Stokes	anti-Stokes-744,400	-94,008	0,215	-0,043
-743,385	-15,857	-0,377	0,176
-742,371	-103,534	0,305	0,052
-741,356	-57,973	-0,249	-0,080
-740,342	130,947	0,068	-0,065
-739,327	-148,386	-0,289	-0,017
-738,312	-1,432	0,133	0,069
-737,298	-82,745	-0,399	0,094
-736,283	91,332	0,027	-0,022
-735,269	-63,927	-0,303	0,090
-734,254	-127,721	0,041	-0,004
-733,239	-51,638	-0,512	-0,175
-732,225	30,300	0,140	0,088
-731,210	-85,707	-0,069	0,016
-730,196	-143,466	-0,080	-0,006
-729,181	-200,000	-0,030	-0,109
-728,167	62,106	0,097	-0,071
-727,152	800,000	0,015	-0,039
-726,137	-94,721	-0,084	-0,017
-725,123	560,417	-0,122	-0,217
-724,108	132,966	-0,128	-0,122
-723,094	-130,681	-0,121	0,012
-722,079	94,903	-0,116	-0,097
-721,064	-200,000	-0,001	-0,027
-720,050	-200,000	0,038	0,144
-719,035	-91,592	0,041	0,009
-718,021	95,960	-0,071	-0,060
-717,006	118,065	-0,094	-0,085
-715,991	-200,000	0,008	-0,091
-714,977	171,373	-0,091	0,096
-713,962	164,393	-0,061	0,064
-712,948	800,000	-0,057	0,181
-711,933	-117,453	-0,014	-0,002
-710,918	246,443	-0,071	-0,088
-709,904	66,796	-0,089	0,066
-708,889	-200,000	-0,027	-0,110
-707,875	-40,280	-0,124	0,047
-706,860	-113,622	0,100	-0,014
-705,845	246,444	0,076	-0,095
-704,831	105,408	-0,061	0,053
-703,816	-200,000	0,024	0,142
-702,802	-200,000	-0,029	-0,097
-701,787	12,365	-0,096	-0,054
-700,772	98,987	-0,047	-0,040
-699,758	16,088	0,057	-0,033
-698,743	-200,000	0,000	0,077
-697,729	100,255	0,044	0,038
-696,714	-130,638	-0,122	-0,012
-695,699	-103,426	0,167	0,029
-694,685	148,534	-0,173	-0,172
-693,670	800,000	-0,031	-0,094
-692,656	139,721	0,078	-0,076
-691,641	17,012	0,091	0,053
-690,627	-200,000	-0,008	-0,039
-689,612	-50,114	0,044	0,015
-688,597	-95,414	-0,153	-0,030
-687,583	699,876	-0,050	-0,097
-686,568	-25,707	-0,053	0,023
-685,554	-35,482	0,035	0,014
-684,539	-200,000	0,005	0,021
-683,524	-149,749	0,039	0,002
-682,510	-129,666	0,072	-0,007
-681,495	387,729	-0,045	0,068
-680,481	-200,000	0,071	-0,236
-679,466	800,000	-0,005	-0,011
-678,451	-200,000	-0,017	-0,100
-677,437	105,338	-0,028	-0,024
-676,422	6,982	0,039	0,021
-675,408	800,000	-0,042	0,113
-674,393	-92,469	-0,079	0,016
-673,378	214,736	-0,054	-0,063
-672,364	-143,315	-0,115	0,008
-671,349	-200,000	-0,013	-0,150
-670,335	38,947	0,072	-0,047
-669,320	800,000	-0,043	-0,102
-668,305	-200,000	-0,044	-0,191
-667,291	190,511	0,010	-0,011
-666,276	71,755	-0,121	-0,092
-665,262	-4,065	-0,091	-0,046
-664,247	276,210	-0,040	0,052
-663,232	-193,453	-0,044	0,000
-662,218	-115,170	0,099	-0,014
-661,203	1,385	-0,083	0,044
-660,189	-200,000	0,014	0,047
-659,174	-3,277	-0,160	-0,081
-658,159	800,000	-0,048	-0,120
-657,145	67,662	-0,060	0,045
-656,130	800,000	-0,055	-0,120
-655,116	390,657	-0,057	-0,086
-654,101	798,585	-0,024	-0,048
-653,086	582,627	-0,067	0,121
-652,072	-90,049	-0,066	-0,014
-651,057	-200,000	0,008	-0,048
-650,043	591,839	-0,052	-0,094
-649,028	375,278	-0,021	0,031
-648,014	-16,207	-0,066	0,031
-646,999	542,960	0,035	0,062
-645,984	-40,552	0,122	-0,046
-644,970	528,612	0,012	0,021
-643,955	-200,000	-0,022	-0,091
-642,941	307,735	0,039	-0,053
-641,926	-158,025	-0,087	-0,004
-640,911	98,255	0,030	-0,025
-639,897	39,557	0,110	0,072
-638,882	629,804	0,034	0,064
-637,868	305,263	-0,056	-0,076
-636,853	-69,932	-0,168	-0,047
-635,838	-200,000	0,016	-0,116
-634,824	-46,539	-0,026	-0,009
-633,809	13,208	0,042	0,024
-632,795	71,397	0,072	-0,055
-631,780	773,321	-0,062	-0,124
-630,765	-9,770	-0,012	-0,006
-629,751	80,651	-0,056	0,044
-628,736	179,425	-0,124	-0,133
-627,722	638,733	-0,022	-0,042
-626,707	110,706	-0,072	0,063
-625,692	-16,431	0,051	0,024
-624,678	-46,459	0,077	0,027
-623,663	-189,335	-0,102	0,001
-622,649	136,544	-0,046	-0,044
-621,634	211,623	-0,087	-0,101
-620,619	-200,000	-0,012	-0,103
-619,605	229,118	-0,098	-0,117
-618,590	-200,000	0,004	0,202
-617,576	16,184	-0,084	0,048
-616,561	800,000	0,037	-0,098
-615,546	20,598	-0,039	0,023
-614,532	254,347	-0,073	-0,092
-613,517	-43,931	0,091	0,033
-612,503	-24,566	-0,039	0,017
-611,488	55,192	0,006	-0,004
-610,474	65,989	-0,049	0,037
-609,459	-43,281	0,146	-0,054
-608,444	-200,000	0,013	-0,069
-607,430	591,621	0,018	-0,032
-606,415	611,928	0,017	0,031
-605,401	-58,094	0,007	0,002
-604,386	82,690	0,087	-0,069
-603,371	529,198	-0,044	-0,077
-602,357	800,000	0,004	-0,010
-601,342	800,000	0,015	-0,032
-600,328	-200,000	-0,026	-0,107
-599,313	-200,000	0,010	-0,244
-598,298	-119,377	0,109	-0,014
-597,284	-11,985	0,037	0,018
-596,269	-55,469	0,205	-0,067
-595,255	272,829	-0,076	0,099
-594,240	-200,000	0,006	-0,091
-593,225	129,743	0,074	0,070
-592,211	154,197	-0,072	-0,073
-591,196	-52,801	-0,155	0,052
-590,182	-200,000	0,007	-0,039
-589,167	-200,000	0,043	0,147
-588,152	-200,000	0,008	0,080
-587,138	358,495	0,029	-0,042
-586,123	18,675	-0,112	-0,065
-585,109	-105,253	-0,101	-0,017
-584,094	-200,000	0,009	-0,050
-583,079	178,372	0,041	0,043
-582,065	0,245	0,179	0,093
-581,050	-200,000	-0,015	0,121
-580,036	800,000	0,037	0,081
-579,021	800,000	-0,040	-0,099
-578,006	800,000	0,018	0,038
-576,992	1,434	0,051	0,027
-575,977	800,000	0,057	0,180
-574,963	-200,000	0,058	0,234
-573,948	-200,000	0,006	-0,109
-572,934	-200,000	0,009	-0,190
-571,919	-45,314	-0,192	-0,069
-570,904	66,264	0,051	-0,037
-569,890	-200,000	0,022	-0,079
-568,875	84,608	0,070	-0,056
-567,861	112,228	-0,127	-0,113
-566,846	212,674	0,034	0,039
-565,831	-58,920	0,052	0,016
-564,817	800,000	0,037	-0,087
-563,802	318,291	-0,010	0,013
-562,788	-69,924	0,066	-0,018
-561,773	32,213	-0,140	0,088
-560,758	286,080	0,083	0,110
-559,744	528,002	0,028	-0,049
-558,729	80,511	-0,035	0,027
-557,715	800,000	-0,044	-0,098
-556,700	-137,699	-0,117	0,009
-555,685	39,050	0,108	0,070
-554,671	-200,000	0,004	0,102
-553,656	577,701	-0,065	0,116
-552,642	800,000	0,055	-0,175
-551,627	113,243	-0,040	0,036
-550,612	383,940	0,055	-0,083
-549,598	38,744	0,102	0,066
-548,583	-69,115	-0,053	0,015
-547,569	127,846	0,050	-0,046
-546,554	-125,951	-0,050	0,005
-545,539	-83,368	0,116	0,027
-544,525	800,000	0,010	0,030
-543,510	-123,631	-0,122	-0,014
-542,496	-140,391	-0,026	0,002
-541,481	626,209	-0,083	0,153
-540,466	-200,000	0,001	0,059
-539,452	36,895	0,060	0,039
-538,437	382,946	0,042	0,063
-537,423	150,197	0,076	0,075
-536,408	20,309	-0,087	0,051
-535,393	115,160	0,068	-0,060
-534,379	-200,000	0,010	-0,135
-533,364	-200,000	0,002	-0,070
-532,350	800,000	-0,036	-0,108
-531,335	-92,220	0,077	-0,016
-530,321	747,184	-0,094	0,185
-529,306	-200,000	0,005	0,226
-528,291	-200,000	-0,015	0,134
-527,277	29,484	-0,125	-0,077
-526,262	-73,883	0,111	-0,029
-525,248	176,120	-0,078	0,083
-524,233	-154,896	0,153	-0,007
-523,218	1,163	-0,110	0,058
-522,204	307,421	-0,046	0,062
-521,189	490,148	0,057	-0,095
-520,175	-129,772	0,098	0,010
-519,160	106,800	-0,077	-0,067
-518,145	-200,000	0,030	0,100
-517,131	-167,041	0,139	0,004
-516,116	194,913	-0,084	-0,093
-515,102	-48,874	-0,001	0,000
-514,087	376,406	0,062	0,092
-513,072	-200,000	-0,003	-0,168
-512,058	-21,150	-0,064	-0,029
-511,043	-200,000	-0,023	0,185
-510,029	-5,448	0,144	0,072
-509,014	800,000	0,031	0,079
-507,999	-10,248	0,048	-0,023
-506,985	-103,018	-0,035	0,006
-505,970	-200,000	0,005	0,041
-504,956	185,236	-0,089	0,097
-503,941	800,000	0,041	0,119
-502,926	722,197	-0,032	0,062
-501,912	-127,871	-0,072	-0,007
-500,897	123,505	-0,078	0,072
-499,883	800,000	0,047	-0,097
-498,868	-152,265	-0,082	-0,004
-497,853	-200,000	-0,003	0,089
-496,839	-200,000	0,014	-0,056
-495,824	109,213	0,071	-0,062
-494,810	-64,360	-0,121	0,036
-493,795	169,362	0,050	-0,052
-492,781	485,111	0,081	0,135
-491,766	38,358	-0,074	-0,048
-490,751	-22,402	0,046	0,020
-489,737	220,401	-0,041	0,048
-488,722	-77,397	0,213	-0,054
-487,708	50,737	0,035	0,024
-486,693	2,790	0,073	-0,038
-485,678	386,927	0,071	0,107
-484,664	604,179	-0,036	-0,065
-483,649	-97,430	-0,055	0,010
-482,635	-200,000	0,026	0,139
-481,620	-141,657	-0,073	-0,005
-480,605	-43,827	-0,062	0,023
-479,591	800,000	0,023	0,071
-478,576	800,000	0,011	0,028
-477,562	-116,365	-0,071	-0,009
-476,547	800,000	-0,034	0,085
-475,532	101,670	0,128	0,109
-474,518	-45,829	-0,048	0,017
-473,503	800,000	0,065	0,168
-472,489	-200,000	-0,015	0,103
-471,474	135,843	0,049	0,046
-470,459	50,043	0,116	-0,080
-469,445	80,943	0,058	-0,045
-468,430	297,588	-0,072	-0,097
-467,416	-108,130	0,142	0,022
-466,401	181,104	-0,025	0,027
-465,386	79,053	0,097	-0,076
-464,372	83,988	-0,058	0,046
-463,357	202,586	-0,076	-0,085
-462,343	-50,680	0,085	-0,029
-461,328	-90,052	0,071	-0,015
-460,313	-80,948	-0,080	-0,019
-459,299	-88,947	-0,113	0,024
-458,284	61,924	0,135	0,098
-457,270	48,917	-0,053	-0,037
-456,255	22,736	-0,156	-0,093
-455,241	9,489	-0,108	-0,060
-454,226	800,000	-0,048	-0,112
-453,211	26,484	0,052	0,031
-452,197	94,913	-0,046	0,038
-451,182	53,712	-0,082	-0,057
-450,168	800,000	-0,024	0,072
-449,153	30,466	0,052	0,032
-448,138	-17,769	-0,140	0,064
-447,124	298,387	-0,069	-0,093
-446,109	-74,092	-0,112	-0,029
-445,095	-53,328	0,139	0,046
-444,080	800,000	0,043	0,118
-443,065	315,637	-0,037	0,051
-442,051	33,149	-0,070	-0,044
-441,036	-200,000	0,031	-0,155
-440,022	800,000	0,031	-0,077
-439,007	-185,548	0,220	0,002
-437,992	800,000	0,028	0,064
-436,978	-26,219	0,061	0,026
-435,963	497,791	-0,024	0,040
-434,949	242,177	-0,029	0,036
-433,934	-65,798	-0,011	-0,003
-432,919	-200,000	-0,016	-0,118
-431,905	-66,085	0,061	-0,018
-430,890	355,134	0,088	-0,127
-429,876	-129,964	0,052	0,005
-428,861	-122,892	-0,115	-0,013
-427,846	-200,000	-0,009	-0,058
-426,832	5,740	-0,082	-0,044
-425,817	-200,000	-0,017	0,065
-424,803	-120,657	-0,081	0,010
-423,788	800,000	0,015	0,048
-422,773	-200,000	0,048	0,158
-421,759	307,730	0,072	0,099
-420,744	145,551	-0,061	-0,059
-419,730	224,574	0,048	-0,056
-418,715	-60,095	0,036	0,011
-417,701	625,488	0,092	-0,170
-416,686	-86,641	0,122	0,027
-415,671	800,000	-0,009	0,022
-414,657	17,524	0,048	0,028
-413,642	-200,000	-0,017	-0,132
-412,628	-200,000	0,018	0,081
-411,613	-126,997	-0,071	0,008
-410,598	243,774	0,048	0,059
-409,584	127,950	-0,048	0,044
-408,569	-10,690	-0,066	0,032
-407,555	-53,093	0,017	-0,006
-406,540	800,000	-0,016	0,044
-405,525	-200,000	0,036	0,139
-404,511	-72,085	-0,033	-0,009
-403,496	-150,315	0,103	-0,006
-402,482	800,000	0,007	0,020
-401,467	-200,000	0,002	0,050
-400,452	306,719	0,099	0,134
-399,438	183,213	-0,062	-0,066
-398,423	139,192	0,117	-0,112
-397,409	-200,000	-0,023	-0,114
-396,394	180,956	0,034	-0,036
-395,379	-115,581	-0,119	0,016
-394,365	-126,077	0,044	0,005
-393,350	-71,329	0,091	0,025
-392,336	282,390	0,027	-0,035
-391,321	-14,088	-0,103	0,048
-390,306	-63,381	0,088	-0,026
-389,292	-200,000	-0,000	0,050
-388,277	-23,141	-0,137	0,060
-387,263	-57,678	0,045	0,014
-386,248	359,348	-0,019	0,027
-385,233	140,390	-0,054	0,052
-384,219	125,409	0,100	-0,092
-383,204	-24,284	-0,133	-0,057
-382,190	800,000	0,038	-0,077
-381,175	-200,000	0,017	-0,082
-380,160	-146,118	-0,149	0,009
-379,146	-27,478	0,120	0,050
-378,131	44,857	-0,080	0,054
-377,117	-174,203	0,107	0,002
-376,102	800,000	0,028	0,064
-375,088	120,986	-0,024	-0,022
-374,073	-200,000	-0,010	0,035
-373,058	4,397	0,016	-0,008
-372,044	140,708	-0,046	-0,044
-371,029	361,733	-0,108	-0,158
-370,015	45,188	-0,123	-0,082
-369,000	-36,905	-0,114	-0,044
-367,985	222,463	-0,030	0,035
-366,971	577,171	-0,076	-0,136
-365,956	800,000	0,115	0,271
-364,942	-167,075	-0,185	0,005
-363,927	33,647	0,067	0,042
-362,912	-122,499	0,016	-0,002
-361,898	316,358	-0,053	-0,072
-360,883	-200,000	-0,001	-0,061
-359,869	-93,455	-0,147	0,029
-358,854	-124,219	0,039	0,004
-357,839	195,486	-0,052	-0,057
-356,825	-200,000	-0,006	-0,118
-355,810	-32,058	-0,037	0,015
-354,796	-125,066	0,106	0,012
-353,781	-96,134	-0,080	0,015
-352,766	16,811	0,176	0,100
-351,752	38,399	0,065	-0,042
-350,737	352,071	0,050	-0,072
-349,723	-200,000	-0,025	0,086
-348,708	5,653	0,151	0,081
-347,693	-8,501	-0,017	0,008
-346,679	135,384	-0,060	-0,057
-345,664	-156,652	-0,063	0,003
-344,650	108,071	0,073	-0,063
-343,635	79,742	0,128	0,100
-342,620	-167,456	0,047	-0,001
-341,606	-200,000	0,019	0,091
-340,591	424,551	-0,047	0,074
-339,577	274,936	-0,068	-0,087
-338,562	-200,000	0,009	-0,147
-337,548	114,037	-0,073	-0,065
-336,533	-37,630	0,029	-0,011
-335,518	161,843	0,064	-0,065
-334,504	494,630	0,040	-0,066
-333,489	276,430	-0,068	0,087
-332,475	-78,134	0,128	0,032
-331,460	333,469	-0,111	-0,155
-330,445	419,089	-0,008	-0,012
-329,431	-200,000	-0,008	0,088
-328,416	-200,000	0,013	-0,102
-327,402	-200,000	-0,005	-0,062
-326,387	-153,448	-0,104	-0,005
-325,372	111,588	0,077	-0,067
-324,358	186,781	-0,081	-0,088
-323,343	-73,393	-0,066	0,017
-322,329	-107,836	-0,077	-0,012
-321,314	800,000	-0,027	0,072
-320,299	43,704	-0,018	-0,012
-319,285	256,004	0,022	0,027
-318,270	-200,000	0,006	-0,226
-317,256	593,827	-0,030	-0,053
-316,241	2,889	0,098	0,051
-315,226	202,632	0,081	0,091
-314,212	-41,361	0,067	0,025
-313,197	-200,000	-0,002	-0,080
-312,183	199,906	0,036	0,040
-311,168	-200,000	-0,023	-0,107
-310,153	151,185	-0,034	-0,034
-309,139	800,000	0,036	-0,084
-308,124	60,537	0,064	-0,046
-307,110	-45,643	0,091	0,032
-306,095	727,561	0,036	-0,070
-305,080	432,917	-0,027	0,043
-304,066	-115,396	-0,096	-0,013
-303,051	800,000	-0,062	-0,145
-302,037	-71,649	-0,024	-0,006
-301,022	647,573	0,058	0,107
-300,008	88,663	0,036	-0,029
-298,993	-200,000	-0,021	0,087
-297,978	-200,000	0,011	0,042
-296,964	145,270	0,017	0,016
-295,949	-119,061	-0,141	0,018
-294,935	113,956	0,046	-0,040
-293,920	-200,000	0,050	0,161
-292,905	-49,302	-0,030	0,010
-291,891	-200,000	0,014	0,085
-290,876	114,473	0,121	0,107
-289,862	126,213	-0,115	-0,106
-288,847	33,340	0,042	-0,026
-287,832	-140,953	-0,106	0,008
-286,818	-124,226	0,023	0,003
-285,803	33,410	0,126	0,079
-284,789	800,000	0,076	0,163
-283,774	-109,101	0,097	0,015
-282,759	-43,354	-0,088	-0,032
-281,745	27,992	-0,056	-0,034
-280,730	346,501	-0,035	-0,049
-279,716	-200,000	-0,011	-0,048
-278,701	34,963	0,035	0,022
-277,686	-200,000	-0,001	-0,024
-276,672	-200,000	-0,046	0,158
-275,657	64,503	0,130	-0,095
-274,643	23,418	0,046	-0,027
-273,628	296,964	-0,095	-0,126
-272,613	-141,306	0,070	0,005
-271,599	-120,985	-0,057	0,007
-270,584	493,132	-0,092	-0,153
-269,570	-200,000	-0,003	0,045
-268,555	-200,000	-0,020	0,095
-267,540	-82,302	-0,059	-0,014
-266,526	60,190	-0,144	-0,103
-265,511	-200,000	0,006	-0,042
-264,497	-160,485	-0,133	0,005
-263,482	-128,126	-0,113	0,012
-262,467	394,583	-0,043	0,065
-261,453	-200,000	-0,025	0,089
-260,438	144,143	-0,010	-0,010
-259,424	-200,000	0,023	0,121
-258,409	6,456	0,071	-0,038
-257,395	32,933	0,113	0,070
-256,380	-141,811	0,023	-0,002
-255,365	17,752	-0,112	0,064
-254,351	299,214	0,046	-0,061
-253,336	-59,446	-0,230	-0,071
-252,322	1,506	-0,068	-0,035
-251,307	28,459	0,087	-0,053
-250,292	-101,998	0,102	0,018
-249,278	106,491	-0,072	0,062
-248,263	-168,668	0,157	-0,004
-247,249	800,000	0,020	0,058
-246,234	14,372	-0,091	0,051
-245,219	-150,214	0,023	-0,001
-244,205	800,000	-0,012	0,031
-243,190	-48,142	0,033	0,012
-242,176	0,100	0,092	-0,047
-241,161	-74,097	0,097	-0,025
-240,146	65,392	-0,056	-0,041
-239,132	-138,507	-0,111	0,009
-238,117	800,000	-0,097	-0,236
-237,103	-46,554	0,026	-0,009
-236,088	598,345	-0,056	-0,101
-235,073	140,844	-0,037	-0,035
-234,059	271,035	-0,031	0,039
-233,044	-200,000	0,006	0,052
-232,030	80,138	0,136	-0,105
-231,015	800,000	-0,032	-0,080
-230,000	-23,711	-0,073	-0,032
-228,986	559,973	0,066	-0,116
-227,971	-200,000	-0,001	0,101
-226,957	544,009	0,115	0,198
-225,942	800,000	-0,024	0,075
-224,927	238,868	-0,018	-0,022
-223,913	-200,000	-0,008	0,049
-222,898	-200,000	-0,006	-0,078
-221,884	28,984	0,009	-0,006
-220,869	156,763	0,073	0,073
-219,855	-156,558	0,093	0,004
-218,840	44,447	-0,046	-0,031
-217,825	21,764	-0,120	0,071
-216,811	5,510	-0,066	0,035
-215,796	222,492	-0,143	-0,167
-214,782	-32,616	0,070	0,028
-213,767	-81,383	0,044	-0,010
-212,752	800,000	0,036	-0,083
-211,738	-8,277	-0,127	-0,061
-210,723	65,954	-0,042	0,031
-209,709	254,586	0,061	-0,076
-208,694	130,566	0,014	0,013
-207,679	-200,000	-0,003	-0,043
-206,665	-0,909	0,138	0,070
-205,650	180,636	-0,102	0,108
-204,636	65,111	0,015	-0,011
-203,621	675,737	-0,027	-0,051
-202,606	800,000	-0,023	0,055
-201,592	-105,215	-0,018	-0,003
-200,577	31,116	-0,060	0,037
-199,563	-200,000	-0,000	0,032
-198,548	800,000	0,059	0,175
-197,533	712,954	0,104	0,200
-196,519	-200,000	0,038	0,169
-195,504	168,738	-0,029	-0,030
-194,490	-200,000	0,006	0,114
-193,475	-200,000	-0,036	-0,160
-192,460	800,000	0,026	-0,058
-191,446	-200,000	-0,014	0,113
-190,431	48,256	0,094	0,063
-189,417	575,638	0,014	0,024
-188,402	-200,000	-0,013	-0,133
-187,387	-2,068	-0,057	-0,029
-186,373	296,110	-0,093	-0,123
-185,358	-200,000	0,033	-0,196
-184,344	-91,495	0,042	-0,009
-183,329	313,296	0,067	-0,091
-182,315	309,875	0,076	0,103
-181,300	-7,048	0,154	0,075
-180,285	800,000	-0,052	0,121
-179,271	175,833	-0,109	-0,114
-178,256	-200,000	0,021	0,107
-177,242	-200,000	-0,025	0,153
-176,227	-5,282	0,057	0,028
-175,212	800,000	0,053	0,138
-174,198	-181,577	-0,225	-0,003
-173,183	-200,000	0,001	-0,020
-172,169	314,916	0,126	-0,172
-171,154	-44,895	-0,056	-0,020
-170,139	-99,818	0,225	-0,040
-169,125	-181,828	0,009	-0,000
-168,110	310,414	0,050	0,067
-167,096	421,040	0,042	0,064
-166,081	226,414	-0,016	-0,018
-165,066	546,293	-0,037	-0,064
-164,052	221,702	-0,061	-0,070
-163,037	800,000	-0,033	-0,082
-162,023	-200,000	-0,010	0,053
-161,008	-123,925	-0,083	-0,009
-159,993	800,000	0,059	-0,120
-158,979	-200,000	0,000	0,054
-157,964	559,374	-0,042	-0,073
-156,950	63,276	-0,028	0,020
-155,935	-133,972	0,141	-0,012
-154,920	800,000	-0,034	0,098
-153,906	800,000	-0,053	0,112
-152,891	-200,000	-0,004	-0,069
-151,877	-200,000	0,005	-0,059
-150,862	31,672	-0,064	-0,039
-149,847	223,387	-0,093	-0,108
-148,833	246,870	-0,044	0,053
-147,818	-38,586	0,161	-0,061
-146,804	800,000	0,033	-0,082
-145,789	800,000	0,089	0,210
-144,775	-12,493	-0,050	0,023
-143,760	168,640	0,051	-0,053
-142,745	263,747	0,052	-0,065
-141,731	800,000	-0,017	0,053
-140,716	526,989	0,191	-0,325
-139,702	57,647	0,082	-0,058
-138,687	800,000	-0,028	0,062
-137,672	-200,000	-0,039	0,155
-136,658	392,066	0,028	0,042
-135,643	367,378	-0,070	-0,101
-134,629	172,980	-0,130	-0,135
-133,614	13,262	0,160	0,089
-132,599	-13,082	0,139	0,065
-131,585	-200,000	-0,034	0,120
-130,570	64,116	-0,055	0,040
-129,556	82,701	0,078	0,061
-128,541	692,164	-0,008	-0,014
-127,526	-200,000	0,007	-0,112
-126,512	-200,000	-0,010	-0,085
-125,497	400,368	-0,081	0,123
-124,483	229,672	-0,147	0,173
-123,468	180,543	-0,059	0,062
-122,453	-170,996	-0,104	-0,002
-121,439	-162,790	-0,064	-0,002
-120,424	110,890	-0,085	-0,074
-119,410	800,000	0,022	0,054
-118,395	455,760	-0,007	0,011
-117,380	-149,266	0,028	0,002
-116,366	378,539	-0,023	-0,034
-115,351	604,392	-0,050	0,090
-114,337	548,813	-0,035	-0,061
-113,322	423,726	-0,087	-0,136
-112,307	534,719	0,051	0,086
-111,293	132,678	-0,073	0,068
-110,278	-200,000	-0,025	0,122
-109,264	321,041	0,054	0,074
-108,249	800,000	-0,032	-0,080
-107,234	8,173	0,105	0,057
-106,220	-46,668	-0,153	-0,054
-105,205	110,316	-0,007	-0,006
-104,191	-10,177	-0,038	0,018
-103,176	-45,716	-0,082	-0,029
-102,162	66,363	0,117	0,086
-101,147	34,812	-0,068	-0,043
-100,132	-107,380	-0,133	0,021
-99,118	-200,000	-0,030	-0,118
-98,103	-200,000	0,011	-0,105
-97,089	-200,000	0,004	-0,171
-96,074	130,102	0,028	-0,025
-95,059	-69,708	-0,090	0,024
-94,045	184,218	0,072	0,077
-93,030	-200,000	0,006	-0,055
-92,016	303,267	-0,010	-0,013
-91,001	-200,000	-0,005	-0,109
-89,986	-190,868	0,090	-0,001
-88,972	740,800	0,060	0,116
-87,957	-89,695	0,075	0,016
-86,943	-179,800	-0,039	0,001
-85,928	800,000	-0,083	-0,232
-84,913	-131,412	0,066	-0,006
-83,899	-200,000	-0,002	0,026
-82,884	-52,810	-0,076	0,025
-81,870	117,045	0,066	0,058
-80,855	-71,367	-0,079	-0,021
-79,840	800,000	-0,060	-0,166
-78,826	165,935	0,022	-0,023
-77,811	3,425	-0,191	-0,099
-76,797	800,000	-0,008	0,024
-75,782	-86,320	-0,009	0,002
-74,767	-200,000	-0,027	0,176
-73,753	-200,000	0,025	0,116
-72,738	800,000	0,078	0,157
-71,724	115,224	-0,064	0,056
-70,709	191,624	-0,099	-0,108
-69,694	-45,635	-0,090	0,032
-68,680	206,715	-0,108	0,121
-67,665	315,347	0,078	-0,106
-66,651	-200,000	-0,022	-0,085
-65,636	538,360	0,010	-0,018
-64,622	-161,795	0,059	0,002
-63,607	34,488	-0,108	-0,068
-62,592	-145,778	-0,056	0,004
-61,578	800,000	-0,014	0,036
-60,563	-200,000	0,023	0,091
-59,549	-200,000	-0,005	0,062
-58,534	21,337	-1,912	-1,111
-57,519	800,000	-0,387	-0,924
-56,505	-200,000	-1,364	-4,912
-55,490	22,194	0,922	0,539
-54,476	800,000	5,209	12,026
-53,461	-200,000	17,494	282,405
-52,446	800,000	727,049	2208,249
-51,432	531,724	1642,863	2796,730
-50,417	109,747	1633,615	1403,899
-49,403	74,905	1285,999	969,907
-48,388	31,929	1027,125	632,924
-47,373	20,067	989,188	570,482
-46,359	18,432	976,929	558,038
-45,344	15,621	973,145	546,666
-44,330	15,869	971,593	546,582
-43,315	15,404	969,554	543,899
-42,300	15,323	968,760	543,166
-41,286	15,352	967,566	542,570
-40,271	15,309	966,539	541,835
-39,257	15,355	965,723	541,504
-38,242	15,292	964,909	540,823
-37,227	15,320	964,203	540,496
-36,213	15,365	962,988	539,939
-35,198	15,297	962,489	539,419
-34,184	15,355	961,655	539,116
-33,169	15,296	960,457	538,233
-32,154	15,353	959,615	537,922
-31,140	15,375	958,708	537,466
-30,125	15,357	958,130	537,063
-29,111	15,352	957,115	536,453
-28,096	15,394	956,616	536,288
-27,082	15,336	955,881	535,670
-26,067	15,395	954,885	535,279
-25,052	15,366	954,355	534,869
-24,038	15,374	953,657	534,480
-23,023	15,359	953,111	534,105
-22,009	15,347	952,411	533,654
-20,994	15,332	951,897	533,299
-19,979	15,316	951,244	532,860
-18,965	15,311	950,531	532,423
-17,950	15,341	949,841	532,109
-16,936	15,281	949,148	531,508
-15,921	15,331	948,501	531,286
-14,906	15,192	947,805	530,433
-13,892	15,236	947,226	530,226
-12,877	15,184	946,725	529,760
-11,863	15,197	945,990	529,370
-10,848	15,221	945,464	529,131
-9,833	15,311	944,851	529,053
-8,819	15,304	944,454	528,786
-7,804	15,317	943,677	528,372
-6,790	15,236	943,003	527,716
-5,775	15,266	942,633	527,583
-4,760	15,298	941,857	527,231
-3,746	15,263	941,261	526,763
-2,731	15,119	940,301	525,752
-1,717	15,124	939,863	525,501
-0,702	15,086	939,233	525,009
0,313	14,919	938,585	524,911
1,327	18,188	936,455	533,955
2,342	27,230	793,852	476,562
3,356	24,018	458,804	270,501
4,371	-3,093	314,298	156,532
5,386	-6,929	296,201	143,630
6,400	-8,799	290,099	138,805
7,415	-9,210	287,679	137,230
8,429	-9,589	286,263	136,172
9,444	-9,690	285,350	135,627
10,459	-9,524	284,637	135,437
11,473	-9,713	284,168	135,018
12,488	-9,556	283,518	134,849
13,502	-9,611	282,991	134,534
14,517	-9,616	282,618	134,340
15,531	-9,782	282,047	133,896
16,546	-9,803	281,689	133,694
17,561	-9,876	281,301	133,429
18,575	-9,847	281,064	133,332
19,590	-10,014	280,590	132,935
20,604	-9,912	280,246	132,858
21,619	-9,999	279,888	132,594
22,634	-9,737	279,463	132,630
23,648	-9,870	279,235	132,383
24,663	-9,746	278,910	132,336
25,677	-10,039	278,805	131,995
26,692	-9,931	278,590	131,984
27,707	-9,923	278,230	131,809
28,721	-9,855	277,844	131,679
29,736	-10,016	277,681	131,438
30,750	-9,877	277,425	131,436
31,765	-10,061	276,968	131,034
32,780	-9,729	276,821	131,266
33,794	-9,962	276,472	130,869
34,809	-9,990	276,287	130,744
35,823	-10,074	276,080	130,555
36,838	-9,906	275,699	130,521
37,853	-10,038	275,483	130,284
38,867	-9,944	275,223	130,237
39,882	-9,957	275,065	130,139
40,896	-9,969	274,800	129,990
41,911	-10,032	274,601	129,826
42,926	-9,880	274,208	129,770
43,940	-10,007	274,150	129,613
44,955	-10,033	273,864	129,442
45,969	-10,000	273,562	129,318
46,984	-10,275	273,510	129,025
47,999	-10,340	273,243	128,828
49,013	-10,535	273,034	128,536
50,028	-10,410	272,476	128,378
51,042	-10,794	272,461	128,003
52,057	-10,523	272,049	128,050
53,071	-10,516	271,942	127,994
54,086	-10,389	271,684	127,978
55,101	-10,313	271,566	127,982
56,115	-10,272	271,542	127,997
57,130	-9,906	271,398	128,256
58,144	-9,497	270,993	128,431
59,159	-9,453	270,754	128,346
60,174	-9,698	270,769	128,116
61,188	-9,710	270,371	127,905
62,203	-9,774	270,216	127,762
63,217	-9,679	269,844	127,662
64,232	-9,870	269,719	127,416
65,247	-9,714	269,462	127,426
66,261	-9,553	269,145	127,412
67,276	-9,882	268,986	127,025
68,290	-10,089	268,693	126,686
69,305	-9,995	268,564	126,700
70,320	-9,957	268,238	126,569
71,334	-9,782	268,151	126,676
72,349	-9,708	267,969	126,646
73,363	-9,583	267,639	126,593
74,378	-9,734	267,548	126,401
75,393	-9,851	267,382	126,205
76,407	-9,964	267,095	125,956
77,422	-9,690	266,682	125,998
78,436	-9,900	266,900	125,899
79,451	-9,657	266,310	125,829
80,466	-9,872	266,090	125,520
81,480	-9,922	265,851	125,351
82,495	-9,936	265,712	125,262
83,509	-9,927	265,571	125,192
84,524	-9,966	265,309	125,023
85,539	-10,003	265,113	124,886
86,553	-10,098	264,859	124,669
87,568	-9,964	264,614	124,663
88,582	-10,068	264,524	124,516
89,597	-10,032	264,257	124,413
90,611	-9,767	264,167	124,596
91,626	-9,814	264,012	124,470
92,641	-9,866	263,796	124,311
93,655	-9,794	263,606	124,274
94,670	-9,968	263,401	124,011
95,684	-9,880	263,149	123,960
96,699	-9,889	262,913	123,830
97,714	-9,876	262,696	123,728
98,728	-9,985	262,480	123,518
99,743	-10,136	262,296	123,286
100,757	-10,136	261,978	123,125
101,772	-9,996	261,870	123,188
102,787	-9,933	261,756	123,180
103,801	-9,867	261,494	123,104
104,816	-9,873	261,420	123,053
105,830	-9,824	261,166	122,965
106,845	-9,805	260,924	122,857
107,860	-9,759	260,856	122,855
108,874	-9,853	260,604	122,643
109,889	-9,734	260,368	122,626
110,903	-9,801	260,135	122,446
111,918	-9,750	259,871	122,355
112,933	-9,722	259,797	122,334
113,947	-9,740	259,724	122,273
114,962	-9,652	259,495	122,232
115,976	-9,845	259,212	121,918
116,991	-9,876	259,086	121,821
118,006	-9,815	258,880	121,767
119,020	-9,808	258,828	121,737
120,035	-9,702	258,603	121,714
121,049	-9,754	258,481	121,600
122,064	-9,683	258,062	121,453
123,079	-9,806	258,089	121,348
124,093	-9,745	257,852	121,279
125,108	-9,967	257,638	120,974
126,122	-10,224	257,385	120,621
127,137	-10,290	257,035	120,389
128,151	-10,136	256,866	120,433
129,166	-10,009	256,875	120,536
130,181	-10,119	256,554	120,280
131,195	-10,009	256,329	120,259
132,210	-9,793	256,116	120,335
133,224	-9,830	256,055	120,263
134,239	-9,591	255,796	120,338
135,254	-9,616	255,754	120,286
136,268	-9,700	255,557	120,110
137,283	-10,118	255,215	119,578
138,297	-10,021	254,979	119,540
139,312	-10,165	254,553	119,206
140,327	-10,151	254,800	119,323
141,341	-9,642	254,484	119,603
142,356	-9,590	254,304	119,552
143,370	-9,601	254,189	119,477
144,385	-9,574	254,066	119,432
145,400	-9,399	253,776	119,435
146,414	-9,656	253,595	119,119
147,429	-9,494	253,307	119,112
148,443	-9,534	253,201	119,018
149,458	-9,788	253,133	118,758
150,473	-9,621	253,039	118,845
151,487	-9,759	252,824	118,616
152,502	-9,820	252,695	118,493
153,516	-9,540	252,345	118,557
154,531	-9,559	252,312	118,514
155,546	-9,695	251,949	118,218
156,560	-9,574	251,725	118,205
157,575	-9,556	251,516	118,112
158,589	-9,486	251,210	118,016
159,604	-9,423	251,201	118,056
160,619	-9,435	250,955	117,919
161,633	-9,457	250,830	117,832
162,648	-9,654	250,632	117,561
163,662	-9,748	250,572	117,443
164,677	-9,534	250,537	117,597
165,692	-9,601	250,310	117,423
166,706	-9,664	250,171	117,294
167,721	-9,473	249,928	117,332
168,735	-9,560	249,856	117,213
169,750	-9,556	249,707	117,136
170,764	-9,475	249,488	117,091
171,779	-9,423	249,411	117,089
172,794	-9,449	249,229	116,971
173,808	-9,599	248,849	116,657
174,823	-9,861	248,538	116,282
175,837	-10,024	248,340	116,041
176,852	-9,665	248,368	116,344
177,867	-9,417	248,315	116,516
178,881	-9,538	248,159	116,332
179,896	-9,477	247,991	116,294
180,910	-9,345	247,688	116,251
181,925	-9,624	247,644	115,988
182,940	-9,282	247,389	116,143
183,954	-9,389	247,327	116,015
184,969	-9,292	247,226	116,037
185,983	-9,489	246,930	115,725
186,998	-9,416	246,823	115,725
188,013	-9,520	246,631	115,538
189,027	-9,304	246,347	115,573
190,042	-9,272	246,368	115,600
191,056	-9,247	246,099	115,484
192,071	-9,536	246,099	115,234
193,086	-9,339	245,708	115,204
194,100	-9,420	245,572	115,063
195,115	-9,205	245,421	115,159
196,129	-9,208	245,157	115,022
197,144	-9,399	245,013	114,787
198,159	-9,504	244,934	114,654
199,173	-9,460	244,691	114,566
200,188	-9,503	244,512	114,437
201,202	-9,685	244,381	114,216
202,217	-9,961	244,034	113,817
203,232	-10,084	243,793	113,594
204,246	-9,450	243,761	114,088
205,261	-8,756	243,779	114,655
206,275	-9,600	243,476	113,812
207,290	-7,437	244,305	115,963
208,304	-2,283	245,901	120,958
209,319	0,913	246,562	123,906
210,334	1,348	246,633	124,289
211,348	1,361	246,530	124,237
212,363	1,606	246,580	124,453
213,377	1,908	246,382	124,590
214,392	1,793	246,257	124,421
215,407	1,904	245,963	124,353
216,421	1,904	245,835	124,277
217,436	1,857	245,742	124,181
218,450	1,959	245,666	124,215
219,465	1,728	245,264	123,811
220,480	1,765	245,180	123,788
221,494	1,764	245,114	123,742
222,509	1,829	244,993	123,724
223,523	1,686	244,730	123,463
224,538	1,480	244,500	123,168
225,553	1,418	244,321	123,017
226,567	1,710	244,244	123,204
227,582	1,760	244,227	123,225
228,596	1,996	243,871	123,227
229,611	1,714	243,787	122,945
230,626	1,660	243,608	122,799
231,640	1,842	243,342	122,802
232,655	1,807	243,365	122,774
233,669	1,834	243,044	122,623
234,684	1,598	242,998	122,398
235,699	1,920	243,129	122,714
236,713	2,085	242,738	122,639
237,728	1,826	242,517	122,307
238,742	1,833	242,365	122,225
239,757	1,869	242,081	122,100
240,772	1,817	242,010	122,011
241,786	1,574	241,861	121,730
242,801	1,402	241,604	121,451
243,815	1,476	241,358	121,377
244,830	1,422	241,534	121,411
245,844	1,840	241,178	121,557
246,859	1,686	241,082	121,374
247,874	1,745	240,908	121,322
248,888	1,815	240,670	121,248
249,903	1,956	240,608	121,318
250,917	2,062	240,552	121,364
251,932	2,289	240,396	121,456
252,947	1,909	240,197	121,041
253,961	1,487	240,025	120,607
254,976	1,789	239,951	120,800
255,990	2,032	239,833	120,923
257,005	1,594	239,452	120,372
258,020	1,485	239,308	120,202
259,034	1,645	239,262	120,295
260,049	1,844	239,016	120,319
261,063	1,489	238,850	119,943
262,078	1,414	238,783	119,839
263,093	1,940	238,567	120,137
264,107	1,912	238,400	120,020
265,122	1,524	238,301	119,653
266,136	1,799	238,155	119,786
267,151	1,989	238,065	119,880
268,166	1,696	237,859	119,535
269,180	1,346	237,701	119,168
270,195	2,283	237,551	119,822
271,209	2,202	237,459	119,700
272,224	1,784	237,174	119,217
273,239	1,516	237,067	118,941
274,253	1,660	236,876	118,948
275,268	1,731	236,748	118,930
276,282	1,609	236,630	118,764
277,297	1,598	236,436	118,647
278,312	1,836	236,179	118,694
279,326	1,889	236,165	118,718
280,341	1,874	235,985	118,606
281,355	1,590	235,939	118,349
282,370	1,921	235,808	118,532
283,384	2,070	235,534	118,500
284,399	1,596	235,426	118,065
285,414	1,575	235,278	117,964
286,428	1,846	235,024	118,037
287,443	2,068	234,875	118,124
288,457	2,024	234,807	118,046
289,472	2,100	234,737	118,059
290,487	1,800	234,554	117,723
291,501	1,444	234,270	117,294
292,516	1,335	234,021	117,074
293,530	1,336	233,903	117,006
294,545	1,849	233,884	117,383
295,560	1,696	233,919	117,271
296,574	1,386	233,570	116,846
297,589	1,464	233,444	116,834
298,603	2,001	233,283	117,157
299,618	1,951	233,275	117,104
300,633	2,025	232,977	117,001
301,647	2,032	232,984	116,999
302,662	2,268	233,021	117,190
303,676	2,390	232,781	117,153
304,691	2,487	232,542	117,096
305,706	2,211	232,411	116,808
306,720	2,411	232,180	116,835
307,735	2,184	232,093	116,606
308,749	1,823	231,980	116,262
309,764	1,745	231,689	116,046
310,779	1,661	231,503	115,878
311,793	1,556	231,184	115,628
312,808	1,558	231,055	115,554
313,822	1,637	230,890	115,522
314,837	1,467	230,725	115,299
315,852	1,500	230,746	115,325
316,866	1,637	230,734	115,413
317,881	1,870	230,577	115,502
318,895	2,314	230,536	115,809
319,910	2,586	230,412	115,944
320,925	2,163	230,040	115,425
321,939	1,809	229,887	115,069
322,954	1,869	229,930	115,126
323,968	2,120	229,664	115,173
324,983	2,287	229,611	115,263
325,997	2,037	229,440	114,977
327,012	2,089	229,235	114,903
328,027	1,948	228,915	114,627
329,041	2,103	228,883	114,717
330,056	2,342	229,019	114,956
331,070	2,538	228,956	115,062
332,085	2,422	228,800	114,885
333,100	2,360	228,543	114,700
334,114	2,244	228,219	114,440
335,129	2,522	228,207	114,632
336,143	2,156	228,011	114,248
337,158	2,111	227,805	114,101
338,173	2,172	227,753	114,111
339,187	2,039	227,692	113,970
340,202	2,218	227,433	113,965
341,216	2,320	227,326	113,978
342,231	2,134	227,140	113,735
343,246	2,186	226,976	113,681
344,260	2,114	226,895	113,577
345,275	2,310	226,944	113,738
346,289	2,287	226,631	113,553
347,304	2,309	226,475	113,482
348,319	2,516	226,288	113,532
349,333	2,546	225,976	113,388
350,348	2,164	225,884	113,047
351,362	2,209	225,832	113,045
352,377	1,883	225,652	112,702
353,392	2,007	225,578	112,747
354,406	2,226	225,436	112,829
355,421	196,237	1319,189	1396,586
356,435	157,321	1452,439	1396,579
