DTS Sentinel unit serial number:	SN410029Multiplexer serial number:	ORYXHardware model number:	OX2-SRSoftware version number:	ORYX F/W v4,00 Oryx Data Collector v3.7.2.0data status	okinstallation	B5 Nyhavnadifferential loss correction	single-endedforward channel	channel 2reverse channel	N/Adate	2023/12/14time	14:52:13forward acquisition time	300,00reverse acquisition time	0,00gamma	499,1914k internal	0,3157k external	0,3157temperature offset calibration	1,0000default loss term (dB/km)	0,3820temperature slope calibration	1,0000multiplexer offset coefficient	1,0000multiplexer slope coefficient	1,0000fibre end	0,00T internal ref (°C)	7,97T ext. ref 1 (°C)	-8,15T ext. ref 2 (°C)	-8,19length (m)	temperature (°C)	Stokes	anti-Stokes-744,400	-97,367	0,229	-0,044
-743,385	60,471	-0,341	-0,248
-742,371	-1,957	0,230	0,119
-741,356	-61,805	-0,207	-0,063
-740,342	34,245	0,224	0,144
-739,327	-143,901	-0,434	-0,030
-738,312	603,400	0,036	0,067
-737,298	71,106	-0,263	-0,200
-736,283	264,239	0,100	0,128
-735,269	-114,524	-0,414	-0,058
-734,254	800,000	0,062	0,196
-733,239	-81,307	-0,574	-0,139
-732,225	159,415	0,176	0,181
-731,210	800,000	0,008	-0,017
-730,196	-200,000	-0,004	-0,119
-729,181	-200,000	0,000	-0,126
-728,167	122,388	0,033	0,030
-727,152	-128,933	-0,143	-0,015
-726,137	-200,000	-0,001	-0,105
-725,123	209,763	-0,061	0,071
-724,108	-57,772	0,059	-0,019
-723,094	800,000	-0,069	-0,148
-722,079	-59,881	-0,212	-0,066
-721,064	414,699	-0,010	-0,016
-720,050	800,000	0,044	-0,133
-719,035	88,101	0,072	0,059
-718,021	618,067	-0,038	-0,070
-717,006	-60,596	0,025	-0,008
-715,991	800,000	-0,055	-0,135
-714,977	-200,000	0,005	-0,193
-713,962	40,658	-0,142	-0,094
-712,948	-59,073	-0,093	0,029
-711,933	800,000	0,041	-0,096
-710,918	-200,000	0,019	-0,141
-709,904	-114,407	-0,083	-0,012
-708,889	-81,487	-0,008	-0,002
-707,875	306,902	0,068	-0,093
-706,860	244,815	0,116	-0,144
-705,845	-139,936	-0,087	0,007
-704,831	800,000	0,033	0,087
-703,816	150,881	0,059	-0,059
-702,802	-86,476	-0,071	0,016
-701,787	-115,205	-0,226	0,031
-700,772	-101,388	0,177	-0,032
-699,758	-36,259	0,102	0,040
-698,743	362,546	0,073	0,109
-697,729	-200,000	0,016	0,088
-696,714	-79,446	-0,065	0,016
-695,699	-200,000	-0,002	0,037
-694,685	-83,031	-0,209	0,049
-693,670	-90,424	0,045	0,010
-692,656	372,411	-0,069	-0,103
-691,641	-104,516	-0,067	0,011
-690,627	242,193	-0,117	-0,144
-689,612	130,484	-0,103	-0,097
-688,597	-200,000	-0,031	-0,130
-687,583	800,000	-0,032	-0,088
-686,568	-200,000	-0,036	0,122
-685,554	-200,000	0,003	0,037
-684,539	60,720	0,042	-0,030
-683,524	-85,465	-0,096	0,022
-682,510	-200,000	0,005	0,022
-681,495	680,775	-0,036	-0,068
-680,481	4,478	-0,072	-0,039
-679,466	-200,000	-0,039	-0,151
-678,451	612,871	-0,049	-0,091
-677,437	-67,886	0,085	0,024
-676,422	-146,970	-0,073	0,005
-675,408	-90,166	-0,069	-0,015
-674,393	88,688	-0,066	-0,054
-673,378	-40,212	0,103	-0,039
-672,364	368,185	-0,033	-0,048
-671,349	200,115	-0,064	-0,072
-670,335	558,963	-0,092	-0,164
-669,320	-200,000	0,003	-0,022
-668,305	-45,878	0,128	-0,046
-667,291	-50,143	-0,121	-0,042
-666,276	-119,132	0,059	0,007
-665,262	-6,103	-0,101	0,050
-664,247	-69,706	-0,124	0,035
-663,232	-66,982	-0,019	-0,006
-662,218	-21,345	0,057	0,025
-661,203	523,567	-0,040	0,070
-660,189	-40,028	-0,110	-0,042
-659,174	-200,000	0,016	0,063
-658,159	24,296	0,123	-0,075
-657,145	-134,044	0,016	0,001
-656,130	-161,835	-0,106	-0,004
-655,116	110,270	0,029	0,026
-654,101	-19,094	0,095	-0,043
-653,086	163,869	-0,077	0,080
-652,072	-200,000	-0,017	0,073
-651,057	37,063	-0,111	0,072
-650,043	241,210	-0,026	0,033
-649,028	-90,610	-0,103	0,022
-648,014	393,770	-0,074	-0,114
-646,999	-200,000	0,001	-0,029
-645,984	800,000	0,041	0,085
-644,970	-200,000	0,084	0,000
-643,955	-32,232	-0,049	-0,020
-642,941	99,031	-0,112	-0,095
-641,926	60,930	0,047	-0,034
-640,911	-71,713	-0,012	-0,003
-639,897	204,075	0,144	0,165
-638,882	131,980	0,066	0,062
-637,868	333,531	0,046	-0,066
-636,853	-200,000	-0,019	-0,098
-635,838	95,085	0,038	-0,032
-634,824	-200,000	0,005	0,053
-633,809	96,545	-0,072	-0,061
-632,795	-54,253	-0,111	-0,037
-631,780	149,263	0,033	0,033
-630,765	200,416	-0,075	-0,085
-629,751	-19,891	-0,129	-0,058
-628,736	-113,349	-0,108	-0,015
-627,722	-154,524	-0,042	-0,002
-626,707	-200,000	-0,002	0,021
-625,692	-102,015	-0,104	0,018
-624,678	44,876	-0,061	-0,041
-623,663	-200,000	0,035	-0,122
-622,649	800,000	0,024	-0,051
-621,634	-67,546	-0,139	0,040
-620,619	60,196	0,015	-0,011
-619,605	0,752	-0,086	-0,045
-618,590	-17,250	-0,140	-0,064
-617,576	-200,000	-0,001	0,071
-616,561	145,464	0,064	0,063
-615,546	-53,260	-0,099	0,033
-614,532	-200,000	0,019	-0,066
-613,517	54,178	0,025	0,018
-612,503	800,000	0,069	0,213
-611,488	-85,877	-0,168	-0,038
-610,474	700,055	0,032	0,063
-609,459	-95,025	0,109	0,022
-608,444	143,983	-0,060	-0,059
-607,430	800,000	-0,063	-0,152
-606,415	-50,299	0,056	-0,019
-605,401	-147,010	-0,054	0,003
-604,386	-11,955	0,100	0,048
-603,371	-200,000	0,000	0,068
-602,357	-200,000	-0,019	0,064
-601,342	700,754	0,031	0,061
-600,328	-200,000	-0,004	-0,048
-599,313	676,313	-0,029	-0,056
-598,298	-200,000	-0,009	-0,085
-597,284	800,000	0,037	0,081
-596,269	-200,000	-0,008	0,117
-595,255	698,588	-0,128	-0,248
-594,240	98,983	-0,045	-0,038
-593,225	800,000	0,008	0,025
-592,211	-79,698	-0,033	-0,008
-591,196	-200,000	-0,007	0,026
-590,182	-141,542	0,077	-0,006
-589,167	800,000	0,041	0,109
-588,152	-180,962	0,150	-0,002
-587,138	101,875	0,041	-0,035
-586,123	-133,135	-0,093	-0,009
-585,109	-8,698	0,104	-0,051
-584,094	9,429	-0,115	0,064
-583,079	244,800	0,130	-0,160
-582,065	12,904	0,085	-0,048
-581,050	465,233	0,054	0,090
-580,036	24,259	-0,114	0,069
-579,021	-120,374	0,182	-0,022
-578,006	37,413	-0,137	0,089
-576,992	348,144	0,083	-0,120
-575,977	245,055	0,077	-0,095
-574,963	-146,052	0,058	0,004
-573,948	-102,779	-0,051	0,009
-572,934	245,002	0,106	-0,131
-571,919	-120,061	-0,153	0,019
-570,904	51,712	-0,058	0,040
-569,890	-200,000	-0,002	-0,043
-568,875	101,492	-0,010	-0,009
-567,861	-30,567	-0,045	0,019
-566,846	-106,130	0,101	0,016
-565,831	253,151	0,042	0,052
-564,817	-200,000	-0,023	-0,162
-563,802	-200,000	-0,021	-0,097
-562,788	11,575	-0,102	0,057
-561,773	1,265	0,055	-0,029
-560,758	-169,430	0,073	-0,002
-559,744	29,059	0,234	0,145
-558,729	800,000	-0,029	0,092
-557,715	800,000	0,062	-0,151
-556,700	-200,000	0,008	-0,086
-555,685	-32,362	-0,129	-0,053
-554,671	0,517	0,092	0,048
-553,656	-200,000	0,000	0,083
-552,642	6,705	0,157	0,085
-551,627	-87,171	-0,143	-0,032
-550,612	-200,000	-0,003	0,020
-549,598	-200,000	0,014	-0,069
-548,583	20,572	0,075	0,044
-547,569	123,621	-0,066	-0,060
-546,554	28,084	0,088	-0,054
-545,539	195,013	-0,064	0,071
-544,525	-42,696	0,049	0,018
-543,510	-53,111	-0,048	0,016
-542,496	306,444	0,033	0,045
-541,481	38,545	-0,099	-0,065
-540,466	-37,803	0,071	-0,028
-539,452	303,519	0,046	0,062
-538,437	-125,538	0,051	-0,006
-537,423	-200,000	0,001	-0,034
-536,408	363,873	-0,017	0,025
-535,393	276,549	0,013	0,017
-534,379	176,115	-0,077	-0,082
-533,364	-79,535	-0,049	-0,012
-532,350	-183,947	-0,070	-0,001
-531,335	-47,752	0,060	-0,021
-530,321	-200,000	0,019	0,121
-529,306	108,565	-0,116	-0,101
-528,291	-200,000	-0,003	-0,034
-527,277	-90,462	-0,095	0,020
-526,262	70,029	-0,040	0,030
-525,248	127,585	-0,059	-0,055
-524,233	800,000	0,015	0,045
-523,218	109,710	0,119	0,104
-522,204	188,755	-0,052	0,057
-521,189	54,344	0,061	0,043
-520,175	-90,098	-0,117	-0,025
-519,160	-200,000	-0,001	0,007
-518,145	23,699	0,099	0,059
-517,131	527,932	-0,014	-0,025
-516,116	411,057	0,008	-0,012
-515,102	-200,000	0,002	0,024
-514,087	702,748	-0,057	-0,110
-513,072	800,000	0,062	-0,192
-512,058	-69,258	0,037	-0,010
-511,043	-112,434	-0,125	-0,018
-510,029	-200,000	-0,004	-0,099
-509,014	68,318	-0,056	0,042
-507,999	101,452	-0,027	0,023
-506,985	18,084	-0,076	0,044
-505,970	222,713	0,077	-0,090
-504,956	-19,204	-0,139	-0,063
-503,941	-79,534	0,079	0,019
-502,926	188,636	0,063	0,069
-501,912	211,894	-0,052	-0,060
-500,897	460,980	0,019	-0,031
-499,883	-200,000	0,003	0,035
-498,868	466,579	-0,021	-0,035
-497,853	-76,690	-0,038	0,010
-496,839	583,099	-0,037	0,066
-495,824	128,633	0,089	0,082
-494,810	776,205	-0,065	0,131
-493,795	69,709	0,121	0,091
-492,781	684,757	-0,024	0,045
-491,766	-19,827	-0,109	0,049
-490,751	800,000	0,040	0,122
-489,737	-200,000	0,008	0,123
-488,722	46,981	0,145	0,098
-487,708	-200,000	0,011	-0,079
-486,693	800,000	0,038	0,110
-485,678	43,097	-0,091	0,061
-484,664	-48,368	0,022	-0,008
-483,649	800,000	-0,036	-0,080
-482,635	678,902	0,049	-0,094
-481,620	106,846	-0,056	-0,048
-480,605	-96,251	0,068	-0,013
-479,591	-200,000	-0,001	0,044
-478,576	-200,000	-0,020	-0,115
-477,562	-66,857	0,141	-0,040
-476,547	318,243	0,032	0,044
-475,532	245,522	-0,111	0,136
-474,518	256,916	0,024	-0,030
-473,503	76,439	-0,083	-0,064
-472,489	-200,000	-0,034	-0,128
-471,474	-200,000	-0,030	-0,140
-470,459	-200,000	-0,014	-0,078
-469,445	-200,000	0,010	-0,087
-468,430	-200,000	-0,004	-0,169
-467,416	-112,223	0,077	-0,011
-466,401	-200,000	0,010	0,071
-465,386	-47,880	0,043	-0,015
-464,372	800,000	-0,032	0,072
-463,357	41,304	-0,076	0,050
-462,343	-145,519	-0,124	-0,008
-461,328	115,787	-0,118	0,105
-460,313	144,415	-0,129	-0,126
-459,299	-156,038	-0,019	-0,001
-458,284	-200,000	-0,017	-0,081
-457,270	-200,000	-0,002	-0,017
-456,255	-59,963	-0,020	0,006
-455,241	245,693	0,082	-0,100
-454,226	-70,074	0,103	-0,029
-453,211	-44,852	0,062	0,022
-452,197	97,286	-0,003	0,003
-451,182	-150,047	0,164	-0,009
-450,168	89,000	0,052	-0,042
-449,153	-171,740	-0,217	0,005
-448,138	-200,000	-0,004	-0,088
-447,124	55,971	0,103	-0,072
-446,109	-200,000	0,020	-0,134
-445,095	180,485	0,025	0,027
-444,080	208,062	-0,069	0,078
-443,065	-10,381	0,111	-0,054
-442,051	37,637	-0,076	0,049
-441,036	106,573	-0,076	-0,065
-440,022	-68,740	-0,078	0,022
-439,007	-200,000	-0,005	0,070
-437,992	302,782	0,041	0,056
-436,978	404,332	-0,036	0,055
-435,963	88,201	0,068	-0,055
-434,949	290,064	0,068	0,090
-433,934	-200,000	0,028	0,135
-432,919	-71,503	-0,033	-0,009
-431,905	-57,017	0,193	0,062
-430,890	-188,023	0,038	0,000
-429,876	-200,000	-0,005	0,040
-428,861	16,523	-0,045	-0,026
-427,846	-74,525	-0,052	0,013
-426,832	-200,000	0,001	-0,013
-425,817	44,205	-0,131	-0,087
-424,803	800,000	0,051	-0,131
-423,788	-29,715	-0,013	0,005
-422,773	-200,000	0,003	-0,013
-421,759	57,138	0,045	-0,032
-420,744	-56,673	-0,083	-0,026
-419,730	5,974	-0,070	-0,038
-418,715	354,010	-0,023	0,033
-417,701	-200,000	-0,021	-0,096
-416,686	-200,000	-0,006	-0,085
-415,671	-73,463	-0,002	-0,001
-414,657	-200,000	-0,022	-0,097
-413,642	169,999	0,082	-0,086
-412,628	-150,820	0,093	-0,005
-411,613	-132,387	0,061	-0,006
-410,598	-69,052	-0,080	-0,022
-409,584	553,818	0,035	0,062
-408,569	-27,419	0,098	0,041
-407,555	-27,648	-0,031	-0,013
-406,540	404,575	-0,034	-0,053
-405,525	800,000	0,032	-0,079
-404,511	217,727	0,023	-0,026
-403,496	-200,000	-0,016	-0,112
-402,482	32,251	0,117	-0,073
-401,467	-129,527	-0,072	-0,007
-400,452	800,000	-0,020	-0,041
-399,438	256,456	0,043	-0,054
-398,423	-11,293	-0,097	0,046
-397,409	-200,000	-0,033	-0,136
-396,394	800,000	-0,037	-0,092
-395,379	-200,000	0,003	0,023
-394,365	-169,393	-0,026	0,001
-393,350	-63,119	0,096	0,029
-392,336	134,131	0,088	0,083
-391,321	-143,851	-0,102	0,007
-390,306	-108,667	-0,144	-0,022
-389,292	800,000	-0,023	-0,074
-388,277	-200,000	0,012	-0,045
-387,263	535,852	0,050	0,086
-386,248	401,575	0,053	0,082
-385,233	-200,000	0,018	0,104
-384,219	-200,000	-0,019	-0,090
-383,204	-200,000	0,026	0,118
-382,190	-131,919	-0,107	-0,010
-381,175	-97,616	-0,098	-0,018
-380,160	-200,000	-0,006	0,099
-379,146	4,877	0,037	-0,020
-378,131	192,988	0,028	-0,031
-377,117	-42,508	0,065	-0,024
-376,102	138,218	-0,075	-0,072
-375,088	800,000	0,072	-0,154
-374,073	-56,538	-0,070	0,022
-373,058	-25,005	0,089	0,038
-372,044	67,960	0,032	-0,023
-371,029	-200,000	0,000	-0,036
-370,015	-85,237	0,021	-0,005
-369,000	56,408	-0,123	-0,087
-367,985	153,759	-0,056	0,056
-366,971	251,815	0,056	-0,069
-365,956	158,964	0,106	0,107
-364,942	732,106	0,071	0,138
-363,927	296,872	0,099	0,132
-362,912	-60,715	0,103	-0,031
-361,898	800,000	0,014	0,046
-360,883	265,909	-0,068	0,086
-359,869	25,581	-0,089	-0,054
-358,854	158,665	0,102	-0,103
-357,839	-200,000	-0,004	-0,116
-356,825	-200,000	0,010	-0,034
-355,810	-118,843	-0,140	0,018
-354,796	-200,000	0,011	-0,071
-353,781	706,531	-0,020	0,039
-352,766	800,000	0,060	-0,165
-351,752	52,972	0,074	0,051
-350,737	96,556	-0,048	0,040
-349,723	-135,127	0,072	0,006
-348,708	-155,140	-0,086	-0,004
-347,693	90,390	0,103	0,083
-346,679	18,703	-0,115	-0,067
-345,664	-43,437	-0,021	-0,008
-344,650	575,325	-0,022	0,040
-343,635	101,238	0,038	-0,032
-342,620	-200,000	-0,014	0,094
-341,606	800,000	0,087	0,183
-340,591	-200,000	-0,031	-0,155
-339,577	800,000	0,062	-0,145
-338,562	800,000	0,033	-0,094
-337,548	202,124	0,061	-0,068
-336,533	-200,000	-0,003	0,012
-335,518	107,652	0,125	0,108
-334,504	91,172	0,094	0,076
-333,489	800,000	-0,022	-0,050
-332,475	800,000	0,048	0,108
-331,460	800,000	-0,047	-0,127
-330,445	419,231	-0,044	-0,069
-329,431	139,705	-0,041	0,040
-328,416	-200,000	-0,040	0,171
-327,402	602,836	-0,025	-0,045
-326,387	800,000	0,009	0,024
-325,372	-66,920	-0,007	-0,002
-324,358	800,000	-0,035	-0,099
-323,343	-200,000	-0,012	-0,039
-322,329	390,567	0,072	-0,108
-321,314	181,222	0,103	0,110
-320,299	-65,008	0,066	-0,019
-319,285	-8,462	0,055	0,027
-318,270	-52,823	0,035	0,012
-317,256	2,341	0,074	-0,039
-316,241	800,000	-0,043	-0,104
-315,226	-133,769	-0,049	0,004
-314,212	86,058	-0,060	0,048
-313,197	150,016	-0,110	-0,108
-312,183	92,552	0,099	0,081
-311,168	19,842	0,072	-0,042
-310,153	-106,860	-0,061	0,010
-309,139	-200,000	-0,043	0,206
-308,124	-55,218	-0,183	0,059
-307,110	-25,115	-0,052	0,022
-306,095	-200,000	-0,000	0,099
-305,080	-108,843	-0,064	-0,010
-304,066	-58,617	-0,056	0,018
-303,051	9,227	-0,105	0,058
-302,037	179,605	-0,071	-0,075
-301,022	-143,834	0,079	0,005
-300,008	-35,087	0,032	-0,013
-298,993	-200,000	-0,019	0,080
-297,978	800,000	0,054	0,110
-296,964	-3,053	-0,032	0,016
-295,949	14,663	-0,038	0,021
-294,935	-200,000	0,003	-0,103
-293,920	-200,000	-0,007	0,053
-292,905	-200,000	0,007	0,131
-291,891	-17,215	0,107	0,048
-290,876	-55,710	-0,056	0,018
-289,862	142,868	-0,112	0,108
-288,847	800,000	-0,035	0,087
-287,832	7,905	0,048	-0,026
-286,818	152,347	-0,023	-0,023
-285,803	192,948	0,062	0,068
-284,789	-6,906	0,059	0,029
-283,774	-83,841	0,054	0,012
-282,759	118,649	0,035	-0,031
-281,745	-24,717	-0,177	0,076
-280,730	160,420	0,038	-0,038
-279,716	-164,888	0,085	-0,003
-278,701	91,754	-0,055	0,045
-277,686	23,334	-0,019	0,011
-276,672	722,599	-0,059	0,115
-275,657	-200,000	-0,006	0,099
-274,643	800,000	-0,024	-0,064
-273,628	234,843	-0,112	-0,134
-272,613	549,418	-0,078	0,136
-271,599	-176,465	0,159	-0,003
-270,584	800,000	-0,003	-0,011
-269,570	-200,000	0,060	0,203
-268,555	-151,104	0,062	-0,003
-267,540	181,498	-0,077	0,082
-266,526	-12,611	-0,061	0,029
-265,511	125,286	0,047	0,043
-264,497	800,000	0,030	0,088
-263,482	800,000	0,020	0,055
-262,467	31,144	-0,029	0,018
-261,453	10,576	0,141	-0,078
-260,438	-200,000	0,005	0,023
-259,424	161,288	-0,053	0,053
-258,409	110,518	0,101	0,088
-257,395	800,000	-0,013	0,032
-256,380	-152,319	0,095	0,005
-255,365	-200,000	0,003	0,105
-254,351	-163,965	0,069	0,002
-253,336	-200,000	0,013	-0,051
-252,322	293,536	-0,057	0,076
-251,307	-7,783	-0,110	-0,053
-250,292	102,397	0,091	-0,077
-249,278	-72,095	0,196	0,052
-248,263	-138,220	0,152	0,012
-247,249	201,841	0,039	-0,043
-246,234	800,000	0,042	0,095
-245,219	196,231	-0,090	0,099
-244,205	75,990	0,060	-0,046
-243,190	-142,240	-0,041	-0,003
-242,176	800,000	0,046	0,095
-241,161	800,000	0,010	0,029
-240,146	112,578	-0,022	0,020
-239,132	-108,259	0,031	0,005
-238,117	-200,000	0,016	-0,127
-237,103	655,436	0,020	-0,037
-236,088	-200,000	-0,003	-0,024
-235,073	-164,145	0,040	-0,001
-234,059	711,172	0,051	0,098
-233,044	15,887	0,074	0,042
-232,030	-79,817	-0,048	0,011
-231,015	-70,478	-0,083	-0,023
-230,000	216,295	0,047	-0,054
-228,986	694,224	-0,035	-0,066
-227,971	96,560	-0,092	-0,076
-226,957	9,842	0,093	-0,051
-225,942	-111,711	-0,074	-0,011
-224,927	499,896	0,064	0,107
-223,913	-80,971	-0,049	-0,012
-222,898	-200,000	-0,026	-0,138
-221,884	646,522	-0,011	0,020
-220,869	59,574	0,097	0,069
-219,855	-43,540	-0,036	-0,013
-218,840	-200,000	0,013	-0,108
-217,825	-52,617	-0,222	0,074
-216,811	216,184	-0,045	-0,052
-215,796	-121,268	-0,132	0,016
-214,782	133,185	0,057	-0,053
-213,767	78,974	0,101	-0,078
-212,752	132,543	-0,019	0,017
-211,738	420,157	0,065	-0,101
-210,723	-47,473	-0,048	0,017
-209,709	-8,325	-0,015	-0,007
-208,694	426,921	-0,069	-0,108
-207,679	-72,767	0,070	-0,018
-206,665	-10,606	0,120	-0,057
-205,650	156,202	0,070	-0,070
-204,636	568,955	-0,028	-0,049
-203,621	570,824	0,017	0,030
-202,606	126,646	-0,049	0,045
-201,592	7,054	-0,038	-0,020
-200,577	-200,000	-0,020	0,161
-199,563	800,000	-0,048	-0,098
-198,548	-116,261	0,083	0,011
-197,533	745,652	-0,075	0,146
-196,519	220,364	0,009	-0,010
-195,504	270,940	-0,023	-0,030
-194,490	43,577	-0,120	-0,079
-193,475	282,733	0,035	0,045
-192,460	800,000	0,016	0,038
-191,446	17,975	0,033	0,019
-190,431	68,305	0,080	0,059
-189,417	532,717	-0,113	0,194
-188,402	-200,000	0,027	0,093
-187,387	-189,005	-0,066	0,001
-186,373	-106,336	0,097	-0,016
-185,358	1,064	0,056	0,029
-184,344	258,729	0,133	0,166
-183,329	-116,441	0,071	-0,009
-182,315	-200,000	0,023	0,130
-181,300	-200,000	-0,006	0,072
-180,285	-54,448	-0,124	-0,040
-179,271	-200,000	0,023	0,132
-178,256	714,748	0,095	-0,182
-177,242	-93,419	-0,078	-0,016
-176,227	-200,000	0,047	0,186
-175,212	253,505	-0,109	0,135
-174,198	298,349	0,110	0,147
-173,183	-200,000	0,012	-0,117
-172,169	800,000	0,033	-0,090
-171,154	-200,000	0,002	-0,153
-170,139	749,547	-0,035	-0,068
-169,125	800,000	0,054	0,127
-168,110	221,047	0,021	0,024
-167,096	325,223	-0,055	0,076
-166,081	502,901	0,066	0,111
-165,066	188,282	-0,136	-0,147
-164,052	-200,000	0,007	-0,024
-163,037	124,032	-0,124	-0,112
-162,023	53,662	-0,035	0,024
-161,008	-82,132	0,127	-0,030
-159,993	-200,000	0,005	0,033
-158,979	7,206	-0,073	0,039
-157,964	800,000	-0,013	-0,037
-156,950	781,917	-0,082	-0,162
-155,935	45,415	0,095	-0,063
-154,920	293,212	-0,020	0,026
-153,906	800,000	0,057	0,130
-152,891	38,556	-0,060	0,039
-151,877	-29,221	-0,061	-0,025
-150,862	55,353	0,032	0,022
-149,847	-200,000	-0,012	-0,072
-148,833	800,000	-0,036	-0,093
-147,818	-200,000	-0,010	0,078
-146,804	64,491	0,075	0,054
-145,789	43,763	-0,038	0,025
-144,775	-200,000	0,003	0,031
-143,760	-200,000	-0,008	0,080
-142,745	-185,283	0,082	0,001
-141,731	470,221	-0,031	0,051
-140,716	79,392	0,131	-0,101
-139,702	-200,000	-0,011	0,036
-138,687	-42,267	0,040	0,015
-137,672	43,665	0,090	-0,059
-136,658	-28,687	-0,178	0,074
-135,643	-200,000	0,005	-0,096
-134,629	-83,464	0,092	-0,021
-133,614	-200,000	-0,030	0,127
-132,599	-200,000	-0,021	0,091
-131,585	-133,116	0,020	0,002
-130,570	590,287	0,064	0,114
-129,556	42,472	-0,069	-0,045
-128,541	-20,583	0,055	-0,024
-127,526	800,000	0,036	-0,076
-126,512	27,037	0,062	0,037
-125,497	79,458	-0,143	0,110
-124,483	-200,000	0,018	0,105
-123,468	18,942	-0,025	-0,014
-122,453	-31,499	0,114	-0,046
-121,439	800,000	-0,010	0,031
-120,424	302,147	-0,049	-0,066
-119,410	28,935	0,084	-0,051
-118,395	141,017	-0,023	-0,022
-117,380	-200,000	0,001	0,029
-116,366	-22,443	-0,102	0,044
-115,351	-200,000	-0,036	-0,183
-114,337	-200,000	-0,011	-0,086
-113,322	-200,000	-0,008	0,134
-112,307	-200,000	0,017	-0,175
-111,293	-7,425	-0,062	-0,030
-110,278	-200,000	0,001	0,104
-109,264	-200,000	-0,008	-0,092
-108,249	800,000	-0,058	-0,140
-107,234	155,307	0,081	-0,080
-106,220	-75,060	-0,161	0,041
-105,205	-14,231	0,091	-0,042
-104,191	72,408	0,014	-0,011
-103,176	-200,000	0,002	0,061
-102,162	229,282	0,116	-0,136
-101,147	800,000	-0,050	0,121
-100,132	800,000	-0,049	-0,128
-99,118	80,985	0,054	-0,042
-98,103	-185,252	0,092	0,001
-97,089	353,935	-0,109	0,155
-96,074	-200,000	0,039	0,132
-95,059	-45,905	-0,017	0,006
-94,045	800,000	-0,031	-0,066
-93,030	800,000	-0,048	0,100
-92,016	32,895	0,014	0,009
-91,001	19,900	-0,033	0,019
-89,986	-135,521	0,048	-0,004
-88,972	11,739	0,149	0,082
-87,957	800,000	-0,007	0,015
-86,943	-200,000	-0,012	0,099
-85,928	80,315	-0,090	0,070
-84,913	-200,000	-0,004	-0,095
-83,899	-100,524	0,115	-0,020
-82,884	-128,819	0,159	-0,016
-81,870	-200,000	-0,141	0,000
-80,855	-91,749	0,071	0,014
-79,840	800,000	-0,043	0,103
-78,826	800,000	0,048	-0,110
-77,811	370,370	0,076	-0,112
-76,797	376,127	-0,056	0,082
-75,782	-200,000	0,005	0,056
-74,767	651,128	0,071	-0,130
-73,753	-200,000	-0,005	0,072
-72,738	461,674	-0,069	0,111
-71,724	135,903	-0,115	-0,108
-70,709	318,292	0,026	0,035
-69,694	719,773	-0,028	-0,054
-68,680	186,660	-0,015	0,017
-67,665	718,770	0,029	0,056
-66,651	203,843	0,075	0,084
-65,636	-200,000	0,009	-0,065
-64,622	-70,612	-0,102	0,028
-63,607	43,673	0,051	-0,034
-62,592	9,367	-0,117	-0,063
-61,578	68,569	0,098	-0,072
-60,563	-200,000	-0,013	0,072
-59,549	59,003	-0,090	0,064
-58,534	86,244	-2,674	-2,113
-57,519	102,891	0,374	-0,314
-56,505	-200,000	-1,635	-5,599
-55,490	446,095	1,322	2,094
-54,476	800,000	5,097	11,223
-53,461	-200,000	22,110	347,042
-52,446	800,000	760,064	2294,659
-51,432	514,027	1645,376	2765,289
-50,417	97,524	1609,040	1326,064
-49,403	65,390	1266,106	918,197
-48,388	23,048	1017,526	597,652
-47,373	19,373	984,818	566,301
-46,359	12,928	971,757	537,694
-45,344	8,635	968,511	521,817
-44,330	9,135	966,413	522,304
-43,315	8,092	964,927	518,070
-42,300	8,061	963,656	517,265
-41,286	8,019	962,566	516,523
-40,271	7,977	961,922	516,020
-39,257	8,017	960,824	515,540
-38,242	7,978	959,914	514,905
-37,227	7,968	959,208	514,475
-36,213	7,952	958,237	513,883
-35,198	7,980	957,561	513,590
-34,184	8,076	956,493	513,308
-33,169	7,975	955,622	512,491
-32,154	8,071	954,788	512,337
-31,140	7,984	953,990	511,605
-30,125	8,060	953,237	511,427
-29,111	8,043	952,166	510,777
-28,096	8,007	951,911	510,505
-27,082	8,069	951,036	510,213
-26,067	7,963	950,445	509,536
-25,052	8,035	949,499	509,241
-24,038	7,994	948,748	508,686
-23,023	8,004	948,209	508,407
-22,009	7,986	947,559	507,982
-20,994	7,974	947,132	507,695
-19,979	8,005	946,502	507,437
-18,965	8,003	945,621	506,937
-17,950	8,032	944,993	506,672
-16,936	7,948	944,587	506,165
-15,921	7,926	943,803	505,655
-14,906	7,920	943,066	505,220
-13,892	7,897	942,338	504,738
-12,877	7,864	941,857	504,356
-11,863	7,908	941,230	504,140
-10,848	7,899	940,469	503,683
-9,833	7,910	940,372	503,646
-8,819	7,899	939,510	503,131
-7,804	7,919	938,865	502,827
-6,790	7,912	938,249	502,455
-5,775	7,903	937,862	502,201
-4,760	7,925	937,069	501,826
-3,746	7,916	936,507	501,475
-2,731	7,797	935,711	500,653
-1,717	7,776	935,226	500,307
-0,702	7,753	934,556	499,856
0,313	7,615	933,941	499,845
1,327	10,924	931,448	508,899
2,342	19,252	780,184	448,091
3,356	14,225	447,958	249,688
4,371	-11,772	312,262	146,422
5,386	-15,315	294,705	134,599
6,400	-17,349	288,639	129,803
7,415	-17,706	286,200	128,344
8,429	-18,191	284,125	126,929
9,444	-18,396	283,240	126,323
10,459	-18,209	282,577	126,198
11,473	-18,244	282,019	125,904
12,488	-18,155	281,479	125,737
13,502	-18,225	281,119	125,498
14,517	-18,344	280,809	125,234
15,531	-18,201	280,085	125,037
16,546	-18,075	279,685	124,968
17,561	-18,063	279,261	124,778
18,575	-17,994	279,094	124,759
19,590	-18,178	278,790	124,436
20,604	-18,032	278,477	124,424
21,619	-18,154	278,068	124,114
22,634	-18,112	277,672	123,967
23,648	-18,142	277,337	123,777
24,663	-18,138	277,084	123,657
25,677	-18,116	276,926	123,597
26,692	-18,043	276,463	123,448
27,707	-17,994	276,144	123,341
28,721	-18,059	276,100	123,249
29,736	-18,098	275,710	123,027
30,750	-17,948	275,491	123,059
31,765	-18,071	275,300	122,848
32,780	-18,172	275,007	122,611
33,794	-18,028	274,701	122,599
34,809	-17,905	274,359	122,551
35,823	-18,113	274,232	122,288
36,838	-18,146	273,914	122,104
37,853	-18,105	273,688	122,031
38,867	-18,080	273,502	121,960
39,882	-18,240	273,329	121,723
40,896	-18,143	272,877	121,602
41,911	-18,123	272,770	121,561
42,926	-18,000	272,456	121,525
43,940	-18,201	272,387	121,296
44,955	-18,107	271,882	121,148
45,969	-18,149	271,892	121,103
46,984	-18,143	271,651	120,990
47,999	-17,779	271,390	121,201
49,013	-17,995	271,211	120,910
50,028	-17,890	271,121	120,956
51,042	-17,723	270,832	120,971
52,057	-18,033	270,653	120,594
53,071	-18,055	270,350	120,427
54,086	-17,852	269,987	120,442
55,101	-17,833	269,859	120,392
56,115	-18,091	269,647	120,049
57,130	-18,017	269,452	120,020
58,144	-18,117	268,997	119,714
59,159	-18,158	268,875	119,612
60,174	-17,991	268,495	119,586
61,188	-18,084	268,382	119,438
62,203	-17,965	268,099	119,411
63,217	-17,971	268,002	119,352
64,232	-18,029	267,722	119,164
65,247	-17,990	267,435	119,061
66,261	-18,059	267,214	118,889
67,276	-18,050	267,043	118,811
68,290	-18,061	266,721	118,647
69,305	-17,985	266,590	118,647
70,320	-17,795	266,365	118,709
71,334	-17,752	266,019	118,583
72,349	-18,003	265,673	118,190
73,363	-18,084	265,651	118,097
74,378	-18,086	265,401	117,974
75,393	-17,990	265,135	117,932
76,407	-17,988	264,992	117,859
77,422	-17,903	264,774	117,829
78,436	-17,970	264,671	117,712
79,451	-18,076	264,332	117,455
80,466	-18,074	264,064	117,328
81,480	-17,931	263,824	117,338
82,495	-17,990	263,674	117,208
83,509	-17,904	263,476	117,187
84,524	-18,032	263,333	116,999
85,539	-17,870	263,013	116,991
86,553	-17,843	262,783	116,902
87,568	-17,962	262,553	116,683
88,582	-17,911	262,366	116,636
89,597	-18,080	262,216	116,408
90,611	-17,959	262,061	116,437
91,626	-17,743	261,723	116,468
92,641	-17,964	261,512	116,167
93,655	-17,977	261,386	116,089
94,670	-18,037	261,122	115,908
95,684	-18,122	260,979	115,759
96,699	-18,304	260,794	115,505
97,714	-18,117	260,653	115,598
98,728	-17,910	260,381	115,651
99,743	-17,916	260,248	115,576
100,757	-17,962	260,073	115,447
101,772	-17,771	259,641	115,414
102,787	-17,837	259,585	115,320
103,801	-17,932	259,383	115,137
104,816	-17,997	259,096	114,942
105,830	-17,994	258,863	114,831
106,845	-17,916	258,750	114,839
107,860	-17,735	258,383	114,824
108,874	-17,939	258,267	114,584
109,889	-17,988	258,165	114,485
110,903	-17,982	257,879	114,354
111,918	-17,900	257,653	114,315
112,933	-18,030	257,450	114,101
113,947	-17,894	257,294	114,141
114,962	-17,953	257,173	114,025
115,976	-17,870	256,902	113,968
116,991	-18,071	256,901	113,781
118,006	-17,927	256,412	113,680
119,020	-17,896	256,395	113,689
120,035	-17,855	256,153	113,608
121,049	-17,842	256,002	113,541
122,064	-17,927	255,839	113,386
123,079	-17,812	255,479	113,315
124,093	-17,915	255,423	113,191
125,108	-17,801	255,086	113,130
126,122	-17,833	254,922	113,020
127,137	-17,716	254,849	113,078
128,151	-17,559	254,640	113,112
129,166	-17,898	254,463	112,730
130,181	-17,664	254,037	112,733
131,195	-17,833	253,865	112,501
132,210	-17,934	253,720	112,340
133,224	-17,994	253,528	112,193
134,239	-17,910	253,427	112,211
135,254	-17,991	253,183	112,023
136,268	-17,905	252,960	111,988
137,283	-17,810	252,725	111,955
138,297	-17,748	252,683	111,980
139,312	-17,834	252,415	111,778
140,327	-17,773	252,129	111,693
141,341	-17,968	252,056	111,485
142,356	-17,870	251,850	111,467
143,370	-17,914	251,474	111,253
144,385	-17,948	251,450	111,204
145,400	-18,044	251,258	111,027
146,414	-18,131	251,054	110,853
147,429	-17,963	250,876	110,908
148,443	-17,789	250,637	110,940
149,458	-17,827	250,411	110,798
150,473	-17,819	250,317	110,753
151,487	-17,698	250,030	110,718
152,502	-17,733	249,908	110,625
153,516	-17,950	249,682	110,332
154,531	-17,846	249,516	110,336
155,546	-17,924	249,403	110,211
156,560	-17,815	249,312	110,253
157,575	-17,855	248,877	110,017
158,589	-17,802	248,801	110,018
159,604	-17,914	248,553	109,804
160,619	-17,902	248,383	109,729
161,633	-17,794	248,117	109,693
162,648	-17,914	248,031	109,544
163,662	-17,846	247,871	109,521
164,677	-17,733	247,609	109,490
165,692	-17,627	247,311	109,437
166,706	-17,615	247,275	109,421
167,721	-17,805	247,172	109,207
168,735	-17,770	247,125	109,206
169,750	-17,910	246,980	109,016
170,764	-17,843	246,750	108,959
171,779	-17,705	246,463	108,939
172,794	-17,905	246,393	108,731
173,808	-17,821	246,203	108,708
174,823	-17,792	246,014	108,639
175,837	-17,619	245,815	108,685
176,852	-17,890	245,844	108,462
177,867	-17,781	245,567	108,421
178,881	-17,870	245,416	108,271
179,896	-17,869	245,323	108,221
180,910	-17,842	245,051	108,113
181,925	-17,963	244,957	107,962
182,940	-17,940	244,657	107,840
183,954	-17,737	244,459	107,911
184,969	-17,752	244,400	107,863
185,983	-17,851	244,051	107,617
186,998	-17,869	244,091	107,610
188,013	-17,755	243,701	107,523
189,027	-17,733	243,688	107,526
190,042	-17,845	243,424	107,308
191,056	-17,941	243,381	107,200
192,071	-18,075	243,162	106,983
193,086	-17,806	242,903	107,081
194,100	-17,832	242,691	106,957
195,115	-17,846	242,620	106,904
196,129	-17,879	242,447	106,792
197,144	-17,909	242,142	106,624
198,159	-17,705	241,987	106,712
199,173	-17,871	241,850	106,506
200,188	-17,973	241,675	106,337
201,202	-17,883	241,406	106,282
202,217	-17,653	241,375	106,447
203,232	-17,800	241,306	106,287
204,246	-17,915	240,940	106,023
205,261	-17,846	240,877	106,042
206,275	-16,555	241,329	107,281
207,290	-11,546	243,005	112,116
208,304	-5,538	244,867	117,910
209,319	-3,344	245,388	119,957
210,334	-2,515	245,400	120,634
211,348	-1,771	245,530	121,298
212,363	-1,305	245,494	121,653
213,377	-0,697	245,774	122,280
214,392	0,057	245,780	122,893
215,407	0,361	245,764	123,123
216,421	0,602	245,652	123,254
217,436	0,732	245,371	123,209
218,450	0,414	245,144	122,823
219,465	0,553	245,018	122,863
220,480	0,389	245,228	122,823
221,494	0,437	244,929	122,701
222,509	0,285	244,407	122,305
223,523	0,203	244,312	122,179
224,538	0,009	243,971	121,840
225,553	0,091	243,995	121,908
226,567	-0,026	243,919	121,764
227,582	0,103	243,585	121,691
228,596	-0,037	243,469	121,508
229,611	0,137	243,361	121,585
230,626	0,028	243,240	121,425
231,640	0,010	242,875	121,218
232,655	-0,019	242,833	121,162
233,669	-0,028	242,655	121,055
234,684	-0,127	242,374	120,824
235,699	0,122	242,252	120,954
236,713	0,005	242,101	120,773
237,728	-0,176	242,156	120,643
238,742	0,116	241,813	120,698
239,757	-0,060	241,637	120,457
240,772	-0,100	241,526	120,358
241,786	-0,138	241,540	120,325
242,801	-0,124	241,236	120,174
243,815	0,121	241,087	120,286
244,830	-0,081	241,068	120,103
245,844	0,079	240,713	120,044
246,859	0,015	240,533	119,892
247,874	0,119	240,358	119,878
248,888	-0,025	240,225	119,686
249,903	0,177	240,110	119,779
250,917	0,120	240,141	119,737
251,932	0,168	239,811	119,601
252,947	0,097	239,835	119,546
253,961	0,097	239,477	119,357
254,976	0,064	239,318	119,240
255,990	0,301	239,163	119,341
257,005	0,145	239,100	119,175
258,020	0,170	238,969	119,119
259,034	0,038	238,695	118,867
260,049	0,282	238,519	118,962
261,063	0,232	238,375	118,840
262,078	0,143	238,298	118,720
263,093	0,105	238,128	118,595
264,107	0,247	237,965	118,616
265,122	0,219	237,732	118,467
266,136	0,186	237,697	118,413
267,151	-0,008	237,466	118,134
268,166	0,170	237,207	118,136
269,180	0,122	237,225	118,095
270,195	0,101	237,038	117,975
271,209	-0,043	236,892	117,779
272,224	-0,033	236,852	117,757
273,239	-0,065	236,587	117,589
274,253	0,034	236,376	117,551
275,268	0,065	236,137	117,447
276,282	0,059	236,104	117,415
277,297	0,107	235,960	117,370
278,312	0,195	235,842	117,370
279,326	0,041	235,677	117,157
280,341	0,325	235,471	117,267
281,355	0,265	235,321	117,134
282,370	0,406	235,140	117,144
283,384	0,268	235,059	116,985
284,399	0,023	234,867	116,688
285,414	0,133	234,718	116,689
286,428	0,151	234,654	116,661
287,443	0,362	234,335	116,657
288,457	0,209	234,229	116,475
289,472	0,070	234,250	116,366
290,487	0,003	234,040	116,199
291,501	0,202	233,832	116,240
292,516	0,388	233,623	116,271
293,530	0,308	233,508	116,141
294,545	0,229	233,548	116,089
295,560	0,387	233,234	116,045
296,574	0,178	233,191	115,852
297,589	0,158	232,997	115,729
298,603	0,306	232,869	115,770
299,618	0,310	232,653	115,655
300,633	0,268	232,642	115,607
301,647	0,120	232,540	115,432
302,662	0,256	232,371	115,442
303,676	0,261	232,091	115,297
304,691	0,171	231,956	115,151
305,706	0,258	231,767	115,113
306,720	0,121	231,659	114,944
307,735	0,473	231,480	115,115
308,749	0,572	231,382	115,132
309,764	0,472	231,202	114,956
310,779	0,413	231,083	114,841
311,793	0,269	231,065	114,711
312,808	0,259	230,811	114,568
313,822	0,234	230,689	114,477
314,837	0,580	230,438	114,607
315,852	0,446	230,346	114,448
316,866	0,580	230,193	114,465
317,881	0,514	229,936	114,277
318,895	0,398	229,913	114,166
319,910	0,616	229,648	114,190
320,925	0,426	229,542	113,983
321,939	0,484	229,429	113,961
322,954	0,419	229,369	113,872
323,968	0,608	229,071	113,857
324,983	0,428	229,121	113,735
325,997	0,540	228,882	113,691
327,012	0,585	228,749	113,649
328,027	0,379	228,516	113,367
329,041	0,321	228,337	113,225
330,056	0,496	228,295	113,325
331,070	0,622	228,105	113,316
332,085	0,353	227,996	113,050
333,100	0,458	227,915	113,078
334,114	0,382	227,547	112,828
335,129	0,495	227,525	112,892
336,143	0,358	227,435	112,734
337,158	0,710	227,247	112,896
338,173	0,570	227,145	112,730
339,187	0,463	227,051	112,593
340,202	0,650	226,724	112,561
341,216	0,522	226,633	112,410
342,231	0,773	226,461	112,502
343,246	0,833	226,363	112,489
344,260	0,384	226,417	112,169
345,275	0,870	226,130	112,381
346,289	0,729	225,972	112,187
347,304	0,705	225,702	112,024
348,319	0,593	225,743	111,952
349,333	0,458	225,625	111,782
350,348	0,723	225,340	111,829
351,362	0,567	225,250	111,657
352,377	0,747	225,077	111,696
353,392	0,967	224,841	111,732
354,406	0,603	224,884	111,473
355,421	192,436	1310,977	1377,424
356,435	154,143	1443,150	1377,258
