DTS Sentinel unit serial number:	SN410029Multiplexer serial number:	ORYXHardware model number:	OX2-SRSoftware version number:	ORYX F/W v4,00 Oryx Data Collector v3.7.2.0data status	okinstallation	B5 Nyhavnadifferential loss correction	single-endedforward channel	channel 2reverse channel	N/Adate	2023/12/14time	11:57:14forward acquisition time	300,00reverse acquisition time	0,00gamma	499,1914k internal	0,3159k external	0,3159temperature offset calibration	1,0000default loss term (dB/km)	0,3820temperature slope calibration	1,0000multiplexer offset coefficient	1,0000multiplexer slope coefficient	1,0000fibre end	0,00T internal ref (°C)	7,61T ext. ref 1 (°C)	-7,89T ext. ref 2 (°C)	-7,94length (m)	temperature (°C)	Stokes	anti-Stokes-744,400	0,136	0,219	0,115
-743,385	0,316	-0,500	-0,262
-742,371	-25,232	0,117	0,051
-741,356	-90,906	-0,278	-0,058
-740,342	-21,239	0,341	0,153
-739,327	-131,762	-0,554	-0,053
-738,312	361,826	0,133	0,198
-737,298	-17,724	-0,323	-0,149
-736,283	-154,606	0,209	0,010
-735,269	-81,954	-0,427	-0,102
-734,254	-74,939	0,171	-0,045
-733,239	-15,771	-0,643	-0,301
-732,225	61,031	0,297	0,217
-731,210	79,487	-0,057	0,045
-730,196	-18,529	0,092	-0,042
-729,181	199,095	-0,026	0,029
-728,167	-200,000	-0,019	0,072
-727,152	-200,000	0,009	-0,090
-726,137	-41,408	-0,045	0,017
-725,123	263,364	-0,109	0,139
-724,108	800,000	0,020	0,055
-723,094	7,162	-0,049	-0,027
-722,079	125,356	-0,101	-0,094
-721,064	29,313	0,054	0,034
-720,050	-18,844	-0,160	-0,073
-719,035	79,780	-0,085	-0,067
-718,021	-200,000	0,020	-0,121
-717,006	-66,507	-0,153	-0,045
-715,991	-200,000	0,025	-0,084
-714,977	-200,000	-0,032	-0,125
-713,962	666,129	-0,070	-0,134
-712,948	-200,000	-0,019	-0,093
-711,933	219,538	0,083	0,099
-710,918	18,481	-0,104	0,061
-709,904	800,000	-0,066	-0,164
-708,889	-57,875	-0,169	0,054
-707,875	800,000	-0,030	0,069
-706,860	-200,000	-0,016	-0,164
-705,845	159,684	-0,044	0,045
-704,831	-46,543	0,051	0,018
-703,816	-113,650	-0,096	-0,014
-702,802	-6,711	-0,040	-0,020
-701,787	-43,646	-0,050	-0,018
-700,772	-200,000	-0,012	-0,084
-699,758	43,243	0,108	-0,073
-698,743	-200,000	-0,008	0,029
-697,729	-200,000	-0,010	0,037
-696,714	154,016	0,067	-0,068
-695,699	39,468	-0,064	-0,042
-694,685	-200,000	-0,005	0,089
-693,670	46,920	0,044	0,030
-692,656	-104,163	0,027	-0,005
-691,641	4,524	-0,031	0,017
-690,627	-101,249	-0,170	0,030
-689,612	-52,614	-0,036	-0,012
-688,597	-133,273	0,112	0,010
-687,583	-83,682	-0,065	0,015
-686,568	800,000	-0,044	-0,102
-685,554	800,000	0,065	-0,133
-684,539	684,363	0,062	0,119
-683,524	332,140	-0,013	-0,019
-682,510	-200,000	-0,026	0,180
-681,495	-108,130	-0,052	0,008
-680,481	800,000	-0,018	-0,039
-679,466	290,451	-0,091	-0,122
-678,451	-23,699	-0,114	-0,050
-677,437	-120,809	0,056	-0,007
-676,422	-87,626	-0,038	-0,008
-675,408	219,198	0,069	-0,081
-674,393	-34,949	-0,053	-0,021
-673,378	-200,000	0,037	-0,180
-672,364	-200,000	-0,008	0,115
-671,349	-200,000	0,012	-0,078
-670,335	324,306	-0,058	0,081
-669,320	-189,297	0,048	-0,000
-668,305	800,000	-0,020	0,064
-667,291	306,516	0,079	-0,109
-666,276	-33,185	0,021	0,009
-665,262	-169,539	-0,102	-0,003
-664,247	-6,639	-0,153	0,076
-663,232	-54,078	-0,002	0,001
-662,218	-200,000	-0,019	0,152
-661,203	154,198	0,095	-0,096
-660,189	-111,297	-0,148	0,022
-659,174	-200,000	0,008	0,093
-658,159	-158,651	0,144	-0,006
-657,145	-50,193	-0,164	0,057
-656,130	131,792	-0,077	0,073
-655,116	139,861	0,112	0,108
-654,101	31,173	0,087	0,054
-653,086	-200,000	0,016	0,078
-652,072	-14,844	0,046	0,022
-651,057	87,313	0,020	0,016
-650,043	4,266	-0,070	-0,038
-649,028	545,739	-0,013	0,023
-648,014	581,735	0,029	0,053
-646,999	485,462	0,046	-0,077
-645,984	-56,420	-0,109	-0,035
-644,970	-76,471	0,026	0,007
-643,955	800,000	0,044	0,097
-642,941	-0,169	-0,114	0,059
-641,926	110,742	-0,017	0,015
-640,911	167,877	0,077	0,081
-639,897	800,000	0,047	0,103
-638,882	-200,000	-0,010	0,116
-637,868	-101,123	-0,117	-0,021
-636,853	290,437	0,054	-0,072
-635,838	-143,998	-0,169	-0,011
-634,824	-21,016	0,052	-0,023
-633,809	174,123	-0,091	-0,097
-632,795	800,000	0,003	-0,010
-631,780	-200,000	-0,023	0,085
-630,765	-185,274	0,052	0,001
-629,751	-200,000	-0,004	-0,070
-628,736	12,261	-0,110	0,062
-627,722	800,000	-0,049	0,134
-626,707	-200,000	0,025	0,130
-625,692	299,313	0,050	0,067
-624,678	800,000	-0,040	-0,129
-623,663	270,721	-0,036	0,046
-622,649	296,033	0,026	0,036
-621,634	800,000	-0,052	-0,168
-620,619	-100,156	-0,112	-0,020
-619,605	625,993	0,068	-0,126
-618,590	129,241	-0,079	-0,074
-617,576	-92,924	-0,113	-0,023
-616,561	-131,268	-0,131	-0,013
-615,546	240,781	-0,028	-0,034
-614,532	-128,526	0,046	-0,005
-613,517	-200,000	0,033	-0,168
-612,503	392,795	-0,030	-0,046
-611,488	800,000	-0,049	0,104
-610,474	-30,275	-0,224	0,093
-609,459	4,829	-0,103	-0,055
-608,444	662,267	0,066	-0,126
-607,430	-200,000	-0,023	-0,085
-606,415	-200,000	0,032	-0,121
-605,401	-128,894	0,138	-0,014
-604,386	-49,269	0,167	0,058
-603,371	800,000	-0,013	-0,035
-602,357	-200,000	0,005	-0,120
-601,342	167,353	-0,061	-0,064
-600,328	-200,000	-0,048	-0,158
-599,313	-50,441	-0,116	0,040
-598,298	-152,652	0,197	-0,010
-597,284	311,169	-0,054	-0,075
-596,269	-200,000	-0,010	-0,061
-595,255	49,294	-0,064	0,044
-594,240	-112,115	-0,134	-0,020
-593,225	77,844	0,026	0,020
-592,211	-91,864	-0,045	-0,009
-591,196	800,000	0,032	-0,070
-590,182	-32,447	0,106	-0,043
-589,167	-106,152	-0,107	0,017
-588,152	-84,701	0,041	-0,009
-587,138	109,305	0,030	-0,026
-586,123	493,250	-0,055	-0,093
-585,109	209,773	0,126	-0,145
-584,094	-58,563	-0,167	0,053
-583,079	18,501	-0,048	0,028
-582,065	-163,699	0,121	-0,004
-581,050	46,827	0,148	-0,100
-580,036	-68,956	0,054	-0,015
-579,021	800,000	0,081	-0,165
-578,006	186,623	-0,093	-0,101
-576,992	452,329	-0,023	0,038
-575,977	-131,280	0,124	-0,012
-574,963	-39,020	0,106	-0,041
-573,948	207,265	0,019	0,022
-572,934	-200,000	-0,036	0,142
-571,919	-69,039	-0,151	-0,042
-570,904	-100,140	-0,040	0,007
-569,890	-200,000	0,000	0,005
-568,875	256,364	0,067	-0,084
-567,861	403,320	-0,068	-0,105
-566,846	248,200	0,044	-0,055
-565,831	238,640	-0,033	0,040
-564,817	76,600	-0,110	0,085
-563,802	227,379	-0,002	0,003
-562,788	800,000	0,067	-0,142
-561,773	800,000	0,022	-0,057
-560,758	-48,005	-0,159	0,056
-559,744	-67,410	-0,056	0,016
-558,729	-120,929	-0,027	0,003
-557,715	800,000	-0,032	0,069
-556,700	-200,000	0,019	0,097
-555,685	800,000	-0,034	-0,070
-554,671	38,953	-0,076	-0,050
-553,656	-200,000	0,005	0,151
-552,642	-200,000	0,007	0,088
-551,627	125,903	-0,041	0,038
-550,612	-173,968	0,106	0,002
-549,598	25,022	-0,071	0,043
-548,583	-52,405	-0,075	-0,025
-547,569	110,047	0,020	-0,017
-546,554	-68,047	0,072	0,020
-545,539	219,877	0,030	0,035
-544,525	-200,000	-0,005	0,154
-543,510	397,848	0,014	-0,022
-542,496	43,462	0,081	-0,054
-541,481	583,549	-0,028	-0,051
-540,466	-200,000	-0,035	-0,123
-539,452	-55,786	-0,138	-0,045
-538,437	800,000	0,028	0,071
-537,423	-200,000	0,019	0,143
-536,408	-200,000	0,036	0,137
-535,393	80,065	0,065	-0,051
-534,379	-106,965	-0,041	0,007
-533,364	800,000	0,008	0,025
-532,350	800,000	-0,055	0,150
-531,335	-4,437	0,037	0,019
-530,321	-97,172	0,069	-0,013
-529,306	-40,012	-0,112	-0,043
-528,291	118,294	-0,103	-0,093
-527,277	299,837	-0,042	-0,057
-526,262	293,190	-0,011	-0,015
-525,248	70,127	-0,039	-0,029
-524,233	77,091	0,080	-0,062
-523,218	800,000	0,059	0,138
-522,204	-3,272	-0,114	0,058
-521,189	800,000	0,052	0,116
-520,175	226,047	-0,082	-0,097
-519,160	201,891	-0,108	-0,122
-518,145	800,000	-0,034	0,078
-517,131	-74,325	0,144	-0,038
-516,116	136,845	-0,046	-0,043
-515,102	-200,000	0,016	-0,073
-514,087	306,180	0,135	-0,184
-513,072	84,658	0,072	-0,057
-512,058	156,322	-0,048	-0,049
-511,043	-95,459	0,153	-0,030
-510,029	-200,000	-0,022	0,101
-509,014	-77,158	-0,056	0,014
-507,999	767,671	-0,019	-0,038
-506,985	-50,026	-0,103	0,035
-505,970	800,000	-0,091	-0,193
-504,956	187,962	-0,030	-0,033
-503,941	18,672	0,108	-0,063
-502,926	-14,375	-0,013	0,006
-501,912	-178,966	0,070	-0,001
-500,897	104,186	0,056	0,048
-499,883	-80,477	0,122	0,030
-498,868	-147,249	-0,191	0,012
-497,853	-200,000	-0,014	-0,068
-496,839	-200,000	0,010	-0,038
-495,824	-71,854	0,038	-0,010
-494,810	70,070	0,060	0,045
-493,795	-105,922	-0,038	0,006
-492,781	223,826	-0,051	-0,060
-491,766	-200,000	0,015	-0,081
-490,751	142,979	-0,091	0,089
-489,737	26,854	-0,123	0,075
-488,722	-57,811	-0,026	-0,008
-487,708	223,940	0,068	0,081
-486,693	-200,000	0,022	0,106
-485,678	-109,868	-0,108	-0,016
-484,664	275,308	0,054	0,070
-483,649	800,000	0,031	-0,063
-482,635	-122,673	-0,065	0,008
-481,620	15,722	-0,065	0,037
-480,605	421,992	-0,061	0,096
-479,591	131,717	0,072	-0,068
-478,576	79,317	-0,061	-0,048
-477,562	800,000	0,050	-0,113
-476,547	800,000	-0,012	-0,029
-475,532	283,552	-0,043	0,056
-474,518	-60,303	0,068	-0,021
-473,503	-66,675	0,125	0,036
-472,489	508,128	0,074	-0,126
-471,474	72,510	-0,047	-0,036
-470,459	-200,000	0,001	-0,055
-469,445	-75,626	0,004	-0,001
-468,430	667,431	0,012	-0,022
-467,416	-63,273	0,109	-0,033
-466,401	525,497	-0,061	0,105
-465,386	-200,000	-0,049	0,174
-464,372	-200,000	-0,001	0,100
-463,357	-27,743	0,078	-0,033
-462,343	-200,000	0,011	-0,145
-461,328	36,661	0,034	0,022
-460,313	158,384	-0,075	0,076
-459,299	800,000	-0,027	0,069
-458,284	538,747	0,116	0,202
-457,270	86,447	-0,064	0,051
-456,255	-188,170	0,087	0,001
-455,241	-200,000	-0,007	0,130
-454,226	296,648	-0,040	0,054
-453,211	256,582	-0,034	-0,042
-452,197	-72,319	0,031	-0,008
-451,182	-1,023	-0,065	0,033
-450,168	-28,618	0,057	0,024
-449,153	-40,916	-0,064	-0,024
-448,138	160,559	-0,085	-0,087
-447,124	-200,000	0,032	-0,116
-446,109	-200,000	-0,016	-0,085
-445,095	64,044	0,107	-0,078
-444,080	687,540	0,025	0,047
-443,065	130,338	0,086	0,080
-442,051	7,165	-0,097	-0,053
-441,036	134,837	-0,054	-0,051
-440,022	-11,764	-0,072	-0,034
-439,007	-200,000	-0,035	-0,173
-437,992	167,892	0,150	0,156
-436,978	285,956	0,093	0,122
-435,963	-46,173	-0,043	0,015
-434,949	-38,228	-0,092	-0,035
-433,934	-200,000	0,004	-0,102
-432,919	-88,876	-0,103	-0,022
-431,905	-200,000	0,000	-0,049
-430,890	-200,000	0,022	0,101
-429,876	-38,573	-0,067	-0,025
-428,861	-56,551	-0,082	0,026
-427,846	88,738	0,028	0,023
-426,832	-57,222	-0,024	0,008
-425,817	507,139	-0,041	-0,070
-424,803	800,000	0,096	-0,196
-423,788	-91,433	-0,088	-0,018
-422,773	-101,645	-0,102	0,018
-421,759	800,000	-0,024	-0,068
-420,744	114,458	0,019	-0,017
-419,730	105,185	-0,078	0,067
-418,715	-200,000	0,018	-0,176
-417,701	800,000	0,017	-0,049
-416,686	800,000	0,017	0,041
-415,671	-166,471	-0,006	-0,000
-414,657	110,623	0,030	0,026
-413,642	-200,000	-0,015	-0,126
-412,628	-147,837	0,140	0,008
-411,613	331,427	-0,075	-0,106
-410,598	221,109	0,096	-0,112
-409,584	18,995	0,123	0,071
-408,569	800,000	0,047	0,123
-407,555	-52,282	0,103	-0,035
-406,540	168,252	-0,053	0,055
-405,525	46,088	0,099	0,066
-404,511	800,000	0,069	-0,143
-403,496	-23,988	0,046	0,020
-402,482	77,335	0,062	-0,048
-401,467	289,852	0,065	0,086
-400,452	-200,000	0,004	0,021
-399,438	168,413	-0,060	0,062
-398,423	-131,062	-0,039	-0,004
-397,409	-200,000	0,013	-0,059
-396,394	-25,850	0,052	0,022
-395,379	800,000	-0,020	-0,049
-394,365	-72,724	0,039	0,010
-393,350	-120,805	0,051	-0,006
-392,336	438,473	-0,040	-0,063
-391,321	244,435	-0,055	0,068
-390,306	50,587	0,011	0,007
-389,292	62,102	0,082	-0,059
-388,277	82,799	-0,048	0,038
-387,263	-200,000	-0,003	0,138
-386,248	-76,408	-0,070	0,018
-385,233	565,715	-0,020	0,036
-384,219	212,092	-0,087	-0,100
-383,204	-26,084	-0,166	0,071
-382,190	-47,051	-0,139	-0,049
-381,175	290,741	0,085	0,113
-380,160	-154,140	0,015	0,001
-379,146	207,035	-0,082	0,093
-378,131	20,958	0,163	-0,096
-377,117	-200,000	-0,006	0,035
-376,102	800,000	0,020	0,050
-375,088	120,016	-0,057	0,052
-374,073	-166,445	-0,190	-0,006
-373,058	-200,000	-0,002	0,031
-372,044	-5,675	0,037	-0,018
-371,029	-200,000	-0,012	-0,041
-370,015	-200,000	0,004	0,059
-369,000	308,000	0,095	0,129
-367,985	111,749	-0,041	0,036
-366,971	-0,030	-0,117	-0,060
-365,956	135,750	0,024	-0,023
-364,942	-200,000	0,000	0,013
-363,927	-200,000	-0,009	0,062
-362,912	-6,742	-0,038	-0,019
-361,898	-200,000	-0,007	0,071
-360,883	75,342	-0,009	-0,007
-359,869	-96,550	-0,143	0,027
-358,854	-200,000	0,006	-0,046
-357,839	164,398	0,112	0,115
-356,825	-3,950	0,162	0,081
-355,810	137,322	-0,043	-0,041
-354,796	-53,314	-0,157	-0,052
-353,781	800,000	0,036	0,097
-352,766	-15,083	0,045	-0,021
-351,752	-2,022	0,063	0,032
-350,737	-21,625	-0,071	-0,031
-349,723	128,744	-0,084	0,078
-348,708	800,000	0,046	-0,095
-347,693	272,401	0,119	0,153
-346,679	-200,000	-0,012	-0,204
-345,664	-142,287	-0,128	0,009
-344,650	-200,000	0,007	-0,072
-343,635	800,000	-0,035	-0,088
-342,620	45,388	0,117	0,078
-341,606	290,956	0,015	-0,019
-340,591	-7,127	0,049	-0,024
-339,577	-54,752	-0,059	-0,019
-338,562	800,000	0,046	0,102
-337,548	-86,723	0,042	0,009
-336,533	218,911	-0,066	-0,077
-335,518	-102,507	-0,038	-0,007
-334,504	7,560	0,039	0,021
-333,489	-200,000	-0,007	0,148
-332,475	112,689	0,023	0,020
-331,460	-16,599	0,050	-0,023
-330,445	-200,000	-0,006	0,021
-329,431	-41,629	0,094	-0,035
-328,416	-61,627	-0,040	-0,012
-327,402	18,585	-0,062	0,036
-326,387	-200,000	0,017	-0,064
-325,372	800,000	-0,031	0,065
-324,358	-163,698	-0,219	-0,007
-323,343	627,240	0,035	-0,065
-322,329	-200,000	-0,017	-0,173
-321,314	94,477	0,086	-0,070
-320,299	-65,328	-0,099	0,029
-319,285	24,358	-0,026	0,015
-318,270	12,031	-0,102	0,057
-317,256	-31,869	0,102	0,041
-316,241	-35,778	0,067	-0,026
-315,226	-200,000	0,016	-0,193
-314,212	596,833	-0,057	0,103
-313,197	382,889	-0,005	0,008
-312,183	-126,866	-0,088	-0,009
-311,168	-85,144	0,092	0,021
-310,153	-200,000	-0,014	-0,090
-309,139	13,597	-0,058	0,033
-308,124	108,536	0,141	0,122
-307,110	-200,000	0,009	0,088
-306,095	-118,078	0,171	0,022
-305,080	-200,000	-0,047	0,205
-304,066	99,186	-0,113	-0,095
-303,051	6,108	0,106	-0,057
-302,037	-119,695	-0,067	0,008
-301,022	207,586	0,058	-0,066
-300,008	-2,033	0,085	0,043
-298,993	800,000	-0,043	0,100
-297,978	-174,744	0,034	0,001
-296,964	74,163	-0,067	-0,051
-295,949	38,332	-0,083	-0,054
-294,935	-200,000	-0,012	0,042
-293,920	106,297	-0,055	-0,047
-292,905	-200,000	0,015	0,089
-291,891	-200,000	0,021	0,071
-290,876	800,000	-0,092	0,202
-289,862	-200,000	0,005	0,028
-288,847	-200,000	0,012	-0,213
-287,832	-88,855	-0,068	-0,014
-286,818	-200,000	0,026	0,125
-285,803	-200,000	0,025	0,198
-284,789	417,349	-0,034	-0,053
-283,774	800,000	-0,023	-0,067
-282,759	-87,945	-0,147	0,032
-281,745	-200,000	-0,009	-0,077
-280,730	-200,000	-0,008	-0,082
-279,716	-200,000	-0,025	0,088
-278,701	-138,404	0,183	-0,014
-277,686	-156,060	0,187	-0,008
-276,672	-200,000	-0,002	0,057
-275,657	98,479	0,024	-0,020
-274,643	-200,000	-0,001	0,039
-273,628	507,464	-0,038	-0,064
-272,613	333,422	-0,068	-0,095
-271,599	-200,000	0,030	0,199
-270,584	-200,000	-0,029	0,122
-269,570	-102,203	0,084	-0,015
-268,555	281,992	0,063	0,082
-267,540	-78,791	-0,209	0,051
-266,526	800,000	-0,040	-0,107
-265,511	296,138	-0,035	-0,047
-264,497	742,597	0,113	0,220
-263,482	-110,635	0,086	0,013
-262,467	412,852	0,027	-0,042
-261,453	83,346	0,074	-0,059
-260,438	147,728	-0,140	-0,137
-259,424	800,000	-0,057	-0,117
-258,409	-200,000	0,040	-0,178
-257,395	-200,000	0,003	-0,037
-256,380	273,622	0,032	-0,041
-255,365	-200,000	-0,017	-0,076
-254,351	526,438	0,025	0,043
-253,336	-200,000	-0,002	-0,060
-252,322	14,826	0,070	-0,040
-251,307	-86,144	0,172	-0,038
-250,292	120,894	0,028	-0,025
-249,278	241,238	0,013	0,016
-248,263	129,573	0,064	0,059
-247,249	-20,592	0,112	0,049
-246,234	-130,805	-0,014	-0,001
-245,219	37,900	0,120	-0,077
-244,205	-26,017	0,141	-0,060
-243,190	800,000	0,017	-0,038
-242,176	800,000	-0,060	0,181
-241,161	658,814	-0,058	0,109
-240,146	69,856	0,067	-0,050
-239,132	170,633	0,146	-0,151
-238,117	-67,457	-0,005	-0,001
-237,103	693,263	0,031	0,059
-236,088	-42,749	0,051	-0,019
-235,073	-108,829	0,087	-0,013
-234,059	-200,000	-0,022	0,099
-233,044	-54,750	0,175	0,057
-232,030	-200,000	0,027	-0,170
-231,015	-200,000	-0,004	-0,022
-230,000	-200,000	-0,019	-0,147
-228,986	73,488	0,076	0,058
-227,971	499,773	0,049	-0,082
-226,957	-200,000	-0,002	0,050
-225,942	-200,000	0,014	0,099
-224,927	-200,000	0,000	-0,001
-223,913	194,399	0,090	-0,098
-222,898	-200,000	-0,024	-0,101
-221,884	-33,758	-0,052	-0,021
-220,869	-200,000	-0,021	0,076
-219,855	-200,000	-0,003	0,125
-218,840	14,268	0,050	-0,028
-217,825	129,241	0,032	-0,029
-216,811	46,156	0,022	0,015
-215,796	-29,109	0,103	0,042
-214,782	-72,904	-0,044	0,012
-213,767	203,164	-0,050	0,055
-212,752	11,596	0,071	0,039
-211,738	703,726	0,049	0,094
-210,723	10,762	0,057	0,032
-209,709	-134,059	-0,055	0,005
-208,694	-148,628	0,141	0,008
-207,679	67,289	-0,013	0,010
-206,665	-200,000	-0,004	-0,052
-205,650	-75,575	-0,029	-0,007
-204,636	-2,211	-0,030	0,015
-203,621	397,846	0,076	0,115
-202,606	-200,000	0,001	0,053
-201,592	251,871	-0,043	0,054
-200,577	-154,649	0,068	-0,003
-199,563	-30,149	0,018	0,008
-198,548	-59,897	-0,015	0,005
-197,533	-54,079	0,027	-0,009
-196,519	-64,692	0,028	0,008
-195,504	800,000	-0,027	-0,085
-194,490	-200,000	-0,003	-0,074
-193,475	91,716	-0,110	0,089
-192,460	-86,266	0,086	-0,019
-191,446	65,095	0,114	0,083
-190,431	26,557	0,041	0,025
-189,417	-72,700	0,083	0,022
-188,402	-9,460	0,025	0,012
-187,387	-138,766	-0,041	0,003
-186,373	-10,978	-0,129	-0,061
-185,358	-200,000	0,011	-0,044
-184,344	-200,000	0,003	0,064
-183,329	-200,000	0,015	0,146
-182,315	112,792	0,085	0,074
-181,300	355,400	-0,054	-0,077
-180,285	-58,313	-0,118	-0,037
-179,271	-34,496	-0,022	-0,009
-178,256	5,585	-0,090	0,048
-177,242	-117,931	0,088	0,011
-176,227	172,934	-0,039	0,041
-175,212	-200,000	0,001	0,016
-174,198	166,751	0,075	0,077
-173,183	44,255	0,068	0,045
-172,169	-82,943	0,053	0,012
-171,154	-200,000	-0,002	-0,011
-170,139	-28,339	-0,073	-0,030
-169,125	148,464	0,057	0,056
-168,110	-60,006	0,122	0,037
-167,096	89,188	0,021	-0,017
-166,081	104,657	-0,047	0,040
-165,066	-200,000	-0,006	-0,180
-164,052	-200,000	-0,002	-0,024
-163,037	9,670	-0,104	0,057
-162,023	-115,159	0,124	0,017
-161,008	117,555	0,089	0,079
-159,993	-164,334	-0,048	0,002
-158,979	800,000	-0,020	0,060
-157,964	-32,896	-0,074	-0,030
-156,950	231,514	0,085	0,100
-155,935	-200,000	-0,006	0,051
-154,920	-120,712	-0,166	0,020
-153,906	-200,000	-0,047	0,159
-152,891	-116,655	-0,079	-0,010
-151,877	800,000	-0,029	0,067
-150,862	-146,623	-0,069	-0,004
-149,847	800,000	-0,051	-0,120
-148,833	-118,691	0,009	0,001
-147,818	39,483	0,116	0,075
-146,804	-200,000	0,019	0,128
-145,789	-58,630	0,095	0,030
-144,775	-51,339	0,112	-0,037
-143,760	285,483	-0,095	-0,124
-142,745	800,000	-0,029	0,058
-141,731	-22,217	0,106	-0,046
-140,716	-46,793	-0,130	0,046
-139,702	-5,738	0,029	-0,014
-138,687	-47,644	-0,115	-0,040
-137,672	-0,977	-0,032	-0,016
-136,658	539,553	-0,061	-0,105
-135,643	-24,344	0,080	0,034
-134,629	170,457	-0,069	0,071
-133,614	-200,000	-0,002	0,123
-132,599	768,506	-0,052	0,102
-131,585	800,000	-0,049	0,146
-130,570	-134,212	-0,017	0,001
-129,556	200,688	-0,045	-0,050
-128,541	-81,943	0,143	-0,033
-127,526	67,612	-0,032	0,023
-126,512	-200,000	-0,001	0,022
-125,497	-91,290	0,038	0,008
-124,483	-200,000	-0,054	0,275
-123,468	138,713	0,024	-0,023
-122,453	34,125	-0,020	0,013
-121,439	-185,772	0,095	0,001
-120,424	489,750	-0,026	-0,043
-119,410	150,466	0,076	0,074
-118,395	-186,948	-0,107	0,001
-117,380	-200,000	0,008	0,084
-116,366	-16,437	-0,037	0,017
-115,351	723,640	-0,037	-0,071
-114,337	-134,881	-0,027	0,002
-113,322	570,348	-0,056	0,098
-112,307	438,515	0,021	-0,034
-111,293	-200,000	-0,013	0,125
-110,278	38,184	-0,097	-0,062
-109,264	-200,000	0,006	0,057
-108,249	-113,920	-0,133	0,018
-107,234	55,477	0,120	-0,083
-106,220	-129,054	-0,073	0,007
-105,205	455,941	0,033	-0,053
-104,191	96,953	-0,108	-0,089
-103,176	800,000	0,020	-0,062
-102,162	-33,915	0,035	0,014
-101,147	-50,382	-0,105	-0,035
-100,132	-123,551	-0,071	-0,008
-99,118	309,546	0,048	0,064
-98,103	-200,000	0,031	0,102
-97,089	-6,536	0,069	0,034
-96,074	-200,000	0,013	0,103
-95,059	138,923	0,022	-0,021
-94,045	410,937	-0,037	-0,057
-93,030	-2,678	-0,090	0,045
-92,016	-98,307	0,072	-0,013
-91,001	153,960	-0,069	-0,068
-89,986	-172,072	0,031	0,001
-88,972	416,581	-0,054	0,083
-87,957	-200,000	-0,008	0,136
-86,943	125,294	0,102	0,093
-85,928	-200,000	-0,018	-0,059
-84,913	-89,619	-0,099	-0,021
-83,899	-37,948	0,118	0,045
-82,884	-66,158	0,092	-0,026
-81,870	741,889	0,040	-0,077
-80,855	800,000	-0,062	0,146
-79,840	356,354	-0,052	0,074
-78,826	69,511	0,060	0,045
-77,811	447,415	-0,080	-0,127
-76,797	-62,827	-0,032	0,010
-75,782	41,141	-0,097	0,063
-74,767	186,738	0,038	-0,040
-73,753	800,000	0,011	0,022
-72,738	110,156	0,134	0,116
-71,724	-200,000	0,001	0,034
-70,709	-193,874	0,024	0,000
-69,694	-200,000	0,073	-0,235
-68,680	-161,501	0,099	0,004
-67,665	-200,000	0,034	0,115
-66,651	-200,000	-0,013	0,174
-65,636	-123,869	-0,094	0,011
-64,622	124,155	-0,075	-0,068
-63,607	800,000	0,030	-0,061
-62,592	-20,785	-0,092	-0,040
-61,578	-37,516	0,165	-0,063
-60,563	-107,653	-0,023	-0,004
-59,549	148,700	-0,030	-0,029
-58,534	80,625	-2,733	-2,112
-57,519	-27,963	0,520	-0,215
-56,505	-200,000	-1,718	-5,519
-55,490	630,135	1,170	2,133
-54,476	800,000	5,088	11,206
-53,461	-200,000	22,665	348,680
-52,446	800,000	762,961	2283,924
-51,432	507,094	1645,679	2748,942
-50,417	95,595	1605,985	1313,626
-49,403	63,816	1263,183	909,352
-48,388	22,404	1015,482	593,982
-47,373	19,326	983,176	564,931
-46,359	12,565	970,175	535,375
-45,344	8,327	966,860	519,672
-44,330	8,747	964,854	519,944
-43,315	7,737	963,132	515,700
-42,300	7,699	962,015	514,961
-41,286	7,681	961,088	514,385
-40,271	7,716	959,850	513,814
-39,257	7,627	959,321	513,222
-38,242	7,626	958,281	512,642
-37,227	7,672	957,553	512,381
-36,213	7,656	956,528	511,760
-35,198	7,611	955,797	511,204
-34,184	7,657	955,162	510,992
-33,169	7,674	954,070	510,444
-32,154	7,684	953,270	510,027
-31,140	7,708	952,448	509,645
-30,125	7,666	951,696	509,085
-29,111	7,687	950,819	508,665
-28,096	7,717	950,228	508,426
-27,082	7,706	949,573	508,020
-26,067	7,612	948,979	507,377
-25,052	7,565	948,150	506,765
-24,038	7,617	947,218	506,412
-23,023	7,627	946,606	506,098
-22,009	7,628	945,962	505,736
-20,994	7,600	945,510	505,384
-19,979	7,666	944,820	505,209
-18,965	7,626	944,103	504,677
-17,950	7,599	943,629	504,317
-16,936	7,576	942,938	503,855
-15,921	7,600	942,311	503,575
-14,906	7,474	941,467	502,703
-13,892	7,520	941,034	502,599
-12,877	7,570	940,303	502,346
-11,863	7,509	939,812	501,870
-10,848	7,572	939,009	501,623
-9,833	7,609	938,719	501,566
-8,819	7,578	938,099	501,116
-7,804	7,556	937,190	500,542
-6,790	7,566	936,801	500,343
-5,775	7,608	936,453	500,273
-4,760	7,609	935,611	499,805
-3,746	7,551	935,236	499,400
-2,731	7,418	934,340	498,483
-1,717	7,386	933,781	498,065
-0,702	7,370	933,056	497,606
0,313	7,202	932,577	497,572
1,327	10,615	930,231	507,019
2,342	19,175	778,142	446,505
3,356	14,339	446,726	249,054
4,371	-11,457	312,154	146,639
5,386	-14,732	294,468	135,014
6,400	-17,052	288,534	129,987
7,415	-17,429	285,774	128,363
8,429	-18,308	283,996	126,697
9,444	-18,229	282,798	126,228
10,459	-18,263	282,468	126,036
11,473	-18,380	281,767	125,599
12,488	-18,216	281,318	125,546
13,502	-18,434	280,823	125,104
14,517	-18,163	280,290	125,116
15,531	-18,444	279,779	124,607
16,546	-18,394	279,389	124,470
17,561	-18,318	278,937	124,331
18,575	-18,187	278,739	124,356
19,590	-18,288	278,306	124,056
20,604	-18,428	278,138	123,836
21,619	-18,569	277,804	123,542
22,634	-18,369	277,383	123,534
23,648	-18,500	276,983	123,221
24,663	-18,433	276,797	123,190
25,677	-18,458	276,573	123,056
26,692	-18,376	276,330	123,014
27,707	-18,255	276,141	123,034
28,721	-18,261	275,690	122,816
29,736	-18,518	275,381	122,425
30,750	-18,603	275,171	122,241
31,765	-18,492	274,915	122,220
32,780	-18,308	274,646	122,264
33,794	-18,228	274,395	122,215
34,809	-18,271	273,962	121,972
35,823	-18,410	273,780	121,750
36,838	-18,370	273,498	121,650
37,853	-18,364	273,370	121,589
38,867	-18,508	273,327	121,424
39,882	-18,330	272,879	121,380
40,896	-18,375	272,563	121,187
41,911	-18,216	272,218	121,171
42,926	-18,500	272,268	120,918
43,940	-18,401	271,853	120,815
44,955	-18,457	271,694	120,682
45,969	-18,467	271,485	120,569
46,984	-18,511	271,355	120,459
47,999	-18,439	271,249	120,468
49,013	-18,297	270,806	120,391
50,028	-18,372	270,562	120,204
51,042	-18,149	270,241	120,256
52,057	-18,333	270,130	120,026
53,071	-18,194	270,019	120,094
54,086	-18,278	269,623	119,830
55,101	-18,308	269,494	119,734
56,115	-18,210	269,194	119,681
57,130	-18,115	268,945	119,646
58,144	-18,364	268,597	119,253
59,159	-18,310	268,477	119,238
60,174	-18,349	268,318	119,121
61,188	-18,222	268,083	119,123
62,203	-18,209	267,881	119,034
63,217	-18,201	267,474	118,850
64,232	-18,308	267,362	118,692
65,247	-18,313	267,058	118,542
66,261	-18,382	266,890	118,393
67,276	-18,395	266,732	118,301
68,290	-18,290	266,452	118,262
69,305	-18,313	266,262	118,146
70,320	-18,099	265,990	118,210
71,334	-18,158	265,756	118,042
72,349	-18,252	265,463	117,816
73,363	-18,190	265,307	117,792
74,378	-18,202	264,990	117,630
75,393	-18,103	264,748	117,601
76,407	-18,311	264,782	117,418
77,422	-18,376	264,401	117,180
78,436	-18,271	264,192	117,172
79,451	-18,239	263,925	117,071
80,466	-18,179	263,603	116,972
81,480	-18,391	263,508	116,729
82,495	-18,275	263,261	116,713
83,509	-18,358	263,070	116,544
84,524	-18,196	262,834	116,574
85,539	-18,196	262,565	116,445
86,553	-18,253	262,514	116,361
87,568	-18,173	262,219	116,291
88,582	-18,249	261,970	116,102
89,597	-18,178	261,825	116,091
90,611	-18,258	261,633	115,924
91,626	-18,281	261,453	115,814
92,641	-18,361	261,254	115,643
93,655	-18,230	260,963	115,620
94,670	-18,495	260,857	115,328
95,684	-18,371	260,545	115,290
96,699	-18,277	260,358	115,280
97,714	-18,409	260,217	115,091
98,728	-18,384	259,995	115,004
99,743	-18,300	259,792	114,979
100,757	-18,319	259,584	114,859
101,772	-18,220	259,281	114,803
102,787	-18,353	259,245	114,660
103,801	-18,341	258,920	114,516
104,816	-18,163	258,667	114,550
105,830	-18,136	258,512	114,495
106,845	-18,144	258,303	114,385
107,860	-18,072	258,059	114,330
108,874	-18,205	257,924	114,143
109,889	-18,393	257,797	113,913
110,903	-18,231	257,634	113,973
111,918	-18,149	257,202	113,843
112,933	-18,338	257,148	113,643
113,947	-18,161	256,991	113,718
114,962	-18,157	256,664	113,567
115,976	-18,082	256,457	113,530
116,991	-18,067	256,394	113,506
118,006	-18,225	256,083	113,220
119,020	-18,217	255,994	113,178
120,035	-18,315	255,830	113,010
121,049	-18,062	255,510	113,079
122,064	-18,227	255,517	112,929
123,079	-18,143	255,186	112,844
124,093	-18,166	255,080	112,768
125,108	-18,272	254,737	112,515
126,122	-18,116	254,522	112,544
127,137	-18,188	254,493	112,459
128,151	-18,105	254,371	112,466
129,166	-18,147	254,020	112,265
130,181	-18,216	253,690	112,050
131,195	-18,105	253,434	112,023
132,210	-18,332	253,429	111,815
133,224	-18,198	253,212	111,825
134,239	-18,197	253,094	111,764
135,254	-18,152	252,736	111,634
136,268	-18,101	252,580	111,598
137,283	-18,167	252,529	111,509
138,297	-18,187	252,123	111,303
139,312	-18,139	252,007	111,283
140,327	-18,088	251,871	111,257
141,341	-18,105	251,665	111,141
142,356	-18,036	251,486	111,111
143,370	-18,045	251,205	110,969
144,385	-18,034	251,047	110,899
145,400	-18,182	250,877	110,689
146,414	-18,112	250,605	110,618
147,429	-18,223	250,434	110,439
148,443	-18,002	250,231	110,526
149,458	-18,226	250,173	110,301
150,473	-17,995	249,901	110,367
151,487	-17,921	249,705	110,333
152,502	-18,026	249,560	110,170
153,516	-18,102	249,300	109,981
154,531	-17,962	249,248	110,067
155,546	-18,167	249,063	109,802
156,560	-18,169	248,894	109,717
157,575	-17,918	248,530	109,757
158,589	-17,964	248,327	109,620
159,604	-17,992	248,240	109,548
160,619	-18,044	247,979	109,379
161,633	-18,045	247,784	109,282
162,648	-17,960	247,759	109,333
163,662	-18,247	247,540	108,987
164,677	-18,139	247,616	109,101
165,692	-18,196	247,304	108,906
166,706	-18,127	247,104	108,865
167,721	-18,205	246,808	108,660
168,735	-18,100	246,781	108,726
169,750	-18,065	246,681	108,702
170,764	-18,000	246,538	108,683
171,779	-18,060	246,309	108,523
172,794	-17,950	246,150	108,534
173,808	-18,132	245,928	108,276
174,823	-18,087	245,700	108,203
175,837	-17,958	245,503	108,213
176,852	-17,987	245,433	108,149
177,867	-18,075	245,343	108,027
178,881	-18,095	245,112	107,898
179,896	-18,070	244,983	107,853
180,910	-18,072	244,819	107,770
181,925	-17,995	244,595	107,726
182,940	-17,957	244,279	107,608
183,954	-18,062	244,066	107,418
184,969	-18,085	244,013	107,366
185,983	-17,822	243,817	107,486
186,998	-18,116	243,758	107,209
188,013	-17,975	243,567	107,232
189,027	-17,729	243,067	107,204
190,042	-18,020	243,174	107,002
191,056	-17,920	242,940	106,972
192,071	-18,014	242,693	106,777
193,086	-18,024	242,601	106,718
194,100	-17,861	242,431	106,767
195,115	-17,924	242,131	106,574
196,129	-18,103	242,059	106,387
197,144	-18,192	242,015	106,286
198,159	-17,848	241,611	106,379
199,173	-17,995	241,502	106,201
200,188	-17,922	241,387	106,201
201,202	-18,178	241,286	105,939
202,217	-18,024	240,944	105,904
203,232	-18,112	240,707	105,720
204,246	-17,860	240,630	105,881
205,261	-17,649	240,342	105,915
206,275	-15,897	241,098	107,662
207,290	-10,540	243,051	112,906
208,304	-4,717	244,721	118,457
209,319	-2,994	245,055	120,023
210,334	-2,302	245,207	120,655
211,348	-1,438	245,410	121,455
212,363	-0,834	245,661	122,064
213,377	-0,158	245,554	122,554
214,392	0,371	245,499	122,951
215,407	0,749	245,597	123,299
216,421	0,534	245,315	122,970
217,436	0,771	245,065	123,028
218,450	0,704	245,187	123,023
219,465	0,830	244,901	122,972
220,480	0,952	244,705	122,962
221,494	0,726	244,657	122,743
222,509	0,624	244,271	122,455
223,523	0,296	244,155	122,118
224,538	0,310	243,991	122,037
225,553	0,153	243,794	121,799
226,567	0,266	243,545	121,756
227,582	0,318	243,436	121,734
228,596	0,149	243,411	121,572
229,611	0,253	243,079	121,480
230,626	0,262	242,949	121,411
231,640	0,140	242,820	121,237
232,655	0,206	242,641	121,191
233,669	0,149	242,486	121,056
234,684	0,160	242,248	120,935
235,699	0,385	242,083	121,024
236,713	0,339	241,840	120,855
237,728	0,236	241,859	120,770
238,742	0,157	241,650	120,592
239,757	0,234	241,614	120,625
240,772	0,337	241,144	120,462
241,786	0,163	241,151	120,315
242,801	0,153	241,065	120,254
243,815	0,280	240,967	120,296
244,830	0,167	240,784	120,103
245,844	0,398	240,447	120,109
246,859	0,243	240,380	119,941
247,874	0,275	240,329	119,931
248,888	0,146	240,008	119,657
249,903	0,285	239,888	119,697
250,917	0,323	239,821	119,683
251,932	0,364	239,731	119,660
252,947	0,192	239,647	119,471
253,961	0,188	239,391	119,330
254,976	0,164	239,142	119,176
255,990	0,373	239,054	119,287
257,005	0,129	238,933	119,022
258,020	0,188	238,772	118,978
259,034	0,238	238,640	118,942
260,049	0,412	238,363	118,930
261,063	0,098	238,163	118,572
262,078	0,433	238,013	118,752
263,093	0,200	237,982	118,541
264,107	0,360	237,889	118,611
265,122	0,208	237,632	118,352
266,136	0,405	237,587	118,475
267,151	0,236	237,404	118,239
268,166	0,439	237,125	118,250
269,180	0,199	236,994	117,984
270,195	0,146	236,891	117,881
271,209	0,318	236,690	117,906
272,224	0,246	236,683	117,835
273,239	0,139	236,275	117,538
274,253	0,296	236,192	117,609
275,268	0,446	236,035	117,639
276,282	0,207	235,847	117,347
277,297	0,132	235,726	117,218
278,312	0,199	235,695	117,244
279,326	0,271	235,541	117,213
280,341	0,439	235,413	117,271
281,355	0,144	235,356	117,002
282,370	0,421	235,071	117,066
283,384	0,117	234,907	116,736
284,399	0,266	234,738	116,758
285,414	0,544	234,575	116,883
286,428	0,429	234,369	116,680
287,443	0,222	234,308	116,479
288,457	0,380	234,079	116,477
289,472	0,209	234,012	116,300
290,487	0,562	233,715	116,417
291,501	0,302	233,715	116,204
292,516	0,544	233,522	116,286
293,530	0,401	233,304	116,056
294,545	0,388	233,354	116,060
295,560	0,334	233,019	115,842
296,574	0,482	232,990	115,931
297,589	0,233	232,938	115,702
298,603	0,362	232,659	115,653
299,618	0,525	232,393	115,636
300,633	0,394	232,410	115,534
301,647	0,392	232,285	115,459
302,662	0,605	232,090	115,517
303,676	0,580	231,937	115,410
304,691	0,385	231,822	115,193
305,706	0,433	231,628	115,123
306,720	0,477	231,488	115,077
307,735	0,706	231,353	115,176
308,749	0,625	231,241	115,048
309,764	0,626	230,964	114,900
310,779	0,446	230,965	114,753
311,793	0,542	230,695	114,682
312,808	0,410	230,509	114,478
313,822	0,603	230,379	114,551
314,837	0,332	230,384	114,336
315,852	0,706	230,183	114,511
316,866	0,589	230,001	114,321
317,881	0,641	229,921	114,311
318,895	0,547	229,670	114,104
319,910	0,578	229,609	114,088
320,925	0,657	229,317	113,993
321,939	0,571	229,244	113,880
322,954	0,504	229,222	113,809
323,968	0,727	228,959	113,837
324,983	0,882	228,878	113,904
325,997	0,755	228,739	113,729
327,012	0,688	228,552	113,574
328,027	0,828	228,259	113,524
329,041	0,756	228,217	113,440
330,056	0,448	228,321	113,249
331,070	0,520	228,131	113,198
332,085	0,197	228,046	112,903
333,100	0,641	227,769	113,090
334,114	0,661	227,477	112,950
335,129	0,765	227,205	112,883
336,143	0,660	227,194	112,788
337,158	0,850	227,021	112,835
338,173	0,695	227,041	112,719
339,187	0,789	226,941	112,729
340,202	0,809	226,613	112,571
341,216	0,564	226,652	112,397
342,231	0,603	226,420	112,301
343,246	0,815	226,184	112,332
344,260	0,720	226,135	112,227
345,275	0,726	226,002	112,156
346,289	0,727	225,840	112,066
347,304	1,011	225,733	112,214
348,319	0,837	225,598	112,007
349,333	0,675	225,348	111,753
350,348	0,748	225,287	111,767
351,362	0,889	225,098	111,769
352,377	0,786	224,941	111,603
353,392	0,811	225,065	111,674
354,406	0,937	224,701	111,576
355,421	191,448	1311,191	1373,853
356,435	153,302	1443,410	1373,680
