DTS Sentinel unit serial number:	SN410029Multiplexer serial number:	ORYXHardware model number:	OX2-SRSoftware version number:	ORYX F/W v4,00 Oryx Data Collector v3.7.2.0data status	okinstallation	B5 Nyhavnadifferential loss correction	single-endedforward channel	channel 2reverse channel	N/Adate	2023/12/13time	10:42:13forward acquisition time	300,00reverse acquisition time	0,00gamma	499,1914k internal	0,3160k external	0,3160temperature offset calibration	1,0000default loss term (dB/km)	0,3820temperature slope calibration	1,0000multiplexer offset coefficient	1,0000multiplexer slope coefficient	1,0000fibre end	0,00T internal ref (°C)	13,66T ext. ref 1 (°C)	-2,65T ext. ref 2 (°C)	-2,95length (m)	temperature (°C)	Stokes	anti-Stokes-744,400	629,487	0,057	0,107
-743,385	-169,847	-0,266	-0,007
-742,371	447,835	0,090	0,147
-741,356	-96,329	-0,340	-0,066
-740,342	-146,484	0,227	0,014
-739,327	360,148	-0,103	-0,152
-738,312	800,000	0,053	-0,166
-737,298	-179,275	-0,292	0,005
-736,283	13,904	0,135	-0,077
-735,269	-130,991	-0,294	-0,028
-734,254	-200,000	-0,000	0,066
-733,239	26,398	-0,558	-0,343
-732,225	-40,667	0,139	0,053
-731,210	-200,000	0,013	0,070
-730,196	-99,321	-0,098	0,018
-729,181	463,143	-0,072	-0,119
-728,167	-114,074	-0,092	0,013
-727,152	800,000	-0,020	-0,063
-726,137	62,701	0,096	0,070
-725,123	502,327	0,057	-0,097
-724,108	-200,000	0,044	-0,159
-723,094	-114,858	-0,133	0,018
-722,079	34,648	-0,054	-0,035
-721,064	36,308	-0,052	0,034
-720,050	-106,436	0,114	-0,019
-719,035	18,313	-0,165	-0,097
-718,021	125,751	0,057	0,053
-717,006	-6,331	-0,143	-0,072
-715,991	31,492	-0,105	-0,066
-714,977	335,433	-0,053	-0,076
-713,962	71,720	-0,052	0,039
-712,948	-27,999	0,063	-0,027
-711,933	800,000	-0,064	-0,161
-710,918	800,000	0,013	0,031
-709,904	-200,000	0,001	0,007
-708,889	-67,005	-0,130	-0,037
-707,875	-107,072	0,077	-0,012
-706,860	-155,753	0,089	-0,004
-705,845	800,000	-0,021	-0,060
-704,831	565,308	0,083	-0,148
-703,816	38,346	-0,107	0,070
-702,802	800,000	0,056	-0,167
-701,787	-4,703	-0,101	-0,051
-700,772	-156,766	-0,080	0,004
-699,758	-2,637	-0,032	-0,017
-698,743	-38,765	0,010	-0,004
-697,729	21,544	-0,084	0,050
-696,714	230,321	0,086	0,104
-695,699	-76,310	-0,171	-0,044
-694,685	202,255	-0,164	-0,187
-693,670	61,833	0,148	-0,108
-692,656	-200,000	0,035	-0,131
-691,641	23,157	-0,033	0,020
-690,627	-41,005	0,135	0,051
-689,612	800,000	-0,018	-0,057
-688,597	-200,000	0,043	-0,179
-687,583	180,461	-0,172	-0,186
-686,568	-35,463	-0,019	-0,008
-685,554	482,825	0,044	-0,073
-684,539	-200,000	-0,061	0,233
-683,524	39,057	0,044	-0,029
-682,510	115,862	-0,098	0,089
-681,495	460,445	-0,024	-0,039
-680,481	-110,842	0,082	0,012
-679,466	83,047	-0,028	-0,022
-678,451	800,000	-0,021	0,044
-677,437	-111,397	-0,049	-0,007
-676,422	213,575	0,099	0,115
-675,408	458,152	-0,075	0,123
-674,393	460,962	-0,105	-0,173
-673,378	15,505	-0,074	0,043
-672,364	-146,835	-0,015	-0,001
-671,349	253,641	-0,016	0,020
-670,335	-200,000	-0,031	0,123
-669,320	124,954	0,111	-0,103
-668,305	-200,000	-0,014	0,111
-667,291	-181,373	-0,104	0,001
-666,276	-200,000	0,013	-0,060
-665,262	19,286	-0,092	-0,054
-664,247	22,300	0,055	0,033
-663,232	659,409	0,036	-0,069
-662,218	-63,539	0,119	0,036
-661,203	-200,000	0,020	0,089
-660,189	251,473	-0,066	0,082
-659,174	81,819	-0,154	0,123
-658,159	800,000	0,016	-0,044
-657,145	-16,493	-0,089	0,041
-656,130	372,905	-0,045	0,068
-655,116	-70,107	-0,076	-0,021
-654,101	-192,175	0,144	0,001
-653,086	800,000	-0,043	0,087
-652,072	123,997	0,047	0,043
-651,057	-200,000	-0,014	-0,070
-650,043	-188,233	-0,096	0,001
-649,028	-200,000	-0,002	0,054
-648,014	-51,821	0,086	0,029
-646,999	-134,402	-0,118	0,010
-645,984	-11,937	0,141	-0,068
-644,970	-200,000	-0,006	-0,217
-643,955	37,909	-0,092	-0,060
-642,941	33,972	-0,108	-0,069
-641,926	-28,534	-0,104	0,044
-640,911	537,968	-0,044	0,076
-639,897	-200,000	-0,007	0,036
-638,882	141,156	-0,051	-0,049
-637,868	-200,000	-0,003	0,025
-636,853	53,145	-0,092	-0,065
-635,838	-200,000	0,017	-0,075
-634,824	-200,000	0,004	-0,022
-633,809	-200,000	0,039	0,150
-632,795	512,100	-0,049	-0,084
-631,780	800,000	-0,035	-0,111
-630,765	-152,174	0,053	0,003
-629,751	60,030	-0,108	-0,078
-628,736	-124,844	-0,135	0,015
-627,722	-24,794	0,127	0,055
-626,707	-84,093	-0,016	-0,004
-625,692	143,671	0,049	-0,048
-624,678	750,402	-0,043	0,085
-623,663	88,680	0,098	0,080
-622,649	-26,232	-0,074	-0,032
-621,634	249,314	-0,039	-0,049
-620,619	553,154	-0,073	0,130
-619,605	407,002	-0,082	0,127
-618,590	800,000	0,018	0,040
-617,576	-200,000	-0,009	-0,044
-616,561	-200,000	0,012	0,057
-615,546	49,524	-0,081	-0,055
-614,532	-135,195	0,103	-0,009
-613,517	800,000	0,006	0,013
-612,503	187,949	-0,017	-0,019
-611,488	26,839	-0,104	-0,064
-610,474	197,002	0,052	0,059
-609,459	800,000	-0,039	0,080
-608,444	21,880	-0,140	-0,084
-607,430	800,000	0,015	-0,034
-606,415	30,460	0,118	-0,074
-605,401	444,233	0,048	0,077
-604,386	-27,622	-0,042	0,018
-603,371	-200,000	-0,006	0,091
-602,357	800,000	0,035	-0,095
-601,342	397,968	-0,001	-0,002
-600,328	142,255	-0,034	-0,033
-599,313	-109,055	-0,127	0,020
-598,298	8,267	-0,038	-0,021
-597,284	107,084	0,112	0,098
-596,269	495,832	-0,011	0,018
-595,255	800,000	-0,019	0,059
-594,240	304,464	0,059	0,081
-593,225	29,294	-0,114	-0,071
-592,211	-156,096	-0,099	0,004
-591,196	16,408	0,054	0,031
-590,182	-103,353	0,036	0,006
-589,167	-71,258	-0,043	0,012
-588,152	10,115	0,137	-0,076
-587,138	-40,627	-0,095	-0,036
-586,123	-41,468	0,062	-0,023
-585,109	-200,000	-0,057	-0,204
-584,094	-115,859	-0,056	0,008
-583,079	319,562	0,084	0,117
-582,065	-110,741	0,247	0,037
-581,050	381,765	0,064	-0,097
-580,036	-200,000	-0,013	0,088
-579,021	-20,654	0,105	-0,047
-578,006	-170,637	-0,072	0,002
-576,992	-76,493	0,034	-0,009
-575,977	82,751	0,079	-0,062
-574,963	220,200	-0,045	0,052
-573,948	-114,753	-0,087	-0,012
-572,934	290,311	0,110	-0,146
-571,919	-200,000	0,009	-0,031
-570,904	800,000	-0,062	-0,142
-569,890	17,865	-0,124	-0,072
-568,875	-42,039	0,135	0,050
-567,861	6,659	-0,044	-0,024
-566,846	-200,000	-0,007	0,120
-565,831	637,739	0,073	0,137
-564,817	408,271	0,011	0,018
-563,802	-128,889	-0,105	-0,011
-562,788	-66,833	-0,053	-0,015
-561,773	800,000	-0,033	-0,076
-560,758	-200,000	0,010	0,146
-559,744	16,745	-0,020	0,011
-558,729	622,226	0,039	-0,072
-557,715	253,836	-0,097	-0,122
-556,700	800,000	-0,016	0,048
-555,685	31,173	-0,105	0,066
-554,671	-200,000	0,006	0,091
-553,656	61,970	-0,104	0,076
-552,642	562,198	-0,086	0,152
-551,627	54,903	0,079	0,056
-550,612	236,222	-0,082	-0,100
-549,598	93,734	0,057	0,047
-548,583	-95,554	-0,098	-0,019
-547,569	800,000	-0,029	0,082
-546,554	-50,280	0,055	-0,019
-545,539	-10,234	0,093	0,045
-544,525	-132,114	0,067	0,006
-543,510	-200,000	-0,000	0,026
-542,496	-9,469	-0,020	-0,010
-541,481	40,351	-0,038	0,025
-540,466	58,328	0,184	-0,132
-539,452	2,416	0,169	0,089
-538,437	800,000	0,071	0,147
-537,423	-53,277	0,053	0,018
-536,408	25,969	-0,080	-0,049
-535,393	274,830	0,116	-0,151
-534,379	588,569	-0,034	0,062
-533,364	-153,804	-0,146	0,007
-532,350	567,621	0,034	-0,060
-531,335	162,601	-0,093	0,096
-530,321	-16,685	0,068	0,031
-529,306	-94,508	0,028	-0,006
-528,291	-200,000	0,021	-0,078
-527,277	-200,000	0,010	-0,127
-526,262	504,363	-0,023	0,039
-525,248	-65,624	0,127	0,037
-524,233	-46,805	0,037	-0,013
-523,218	145,814	0,007	-0,007
-522,204	800,000	-0,066	0,163
-521,189	82,297	-0,037	-0,029
-520,175	-62,453	0,053	-0,016
-519,160	-46,271	0,101	-0,036
-518,145	10,354	-0,069	-0,038
-517,131	206,912	0,123	-0,141
-516,116	800,000	-0,014	-0,031
-515,102	-200,000	0,008	0,079
-514,087	-68,951	-0,012	-0,003
-513,072	230,173	-0,021	0,025
-512,058	168,061	-0,016	-0,017
-511,043	321,639	0,039	-0,054
-510,029	-200,000	-0,045	0,168
-509,014	37,127	0,027	0,017
-507,999	-129,908	-0,052	-0,005
-506,985	-55,634	0,048	-0,016
-505,970	-27,160	0,084	0,036
-504,956	436,456	0,050	-0,080
-503,941	53,631	-0,064	-0,044
-502,926	-48,767	0,117	-0,041
-501,912	-200,000	0,034	-0,119
-500,897	53,160	0,031	-0,022
-499,883	-140,429	0,053	0,004
-498,868	800,000	-0,056	0,174
-497,853	-200,000	-0,007	-0,063
-496,839	351,483	-0,034	-0,050
-495,824	-200,000	0,001	0,018
-494,810	91,298	-0,029	0,024
-493,795	-18,025	-0,077	0,035
-492,781	800,000	0,018	0,039
-491,766	5,411	-0,161	0,086
-490,751	-200,000	0,004	0,102
-489,737	-200,000	0,007	-0,102
-488,722	-144,370	0,038	0,003
-487,708	50,249	-0,018	0,012
-486,693	-200,000	-0,003	0,049
-485,678	-9,531	0,015	-0,007
-484,664	261,077	-0,034	0,042
-483,649	-200,000	0,006	-0,053
-482,635	-72,643	-0,052	0,014
-481,620	-16,018	0,196	0,091
-480,605	134,891	-0,051	-0,048
-479,591	151,894	0,043	-0,043
-478,576	188,359	-0,068	0,074
-477,562	187,235	-0,061	0,067
-476,547	154,832	-0,057	0,058
-475,532	3,309	-0,084	0,044
-474,518	-200,000	0,006	0,064
-473,503	800,000	0,063	-0,167
-472,489	10,406	-0,145	0,081
-471,474	-15,240	-0,082	0,038
-470,459	217,019	0,062	-0,072
-469,445	303,703	-0,166	-0,224
-468,430	17,076	0,123	-0,071
-467,416	-114,822	0,056	-0,008
-466,401	136,864	-0,088	-0,083
-465,386	98,052	0,072	-0,060
-464,372	-192,977	-0,043	0,000
-463,357	268,739	-0,027	-0,035
-462,343	800,000	-0,037	-0,080
-461,328	387,173	-0,036	-0,054
-460,313	18,694	0,180	0,104
-459,299	126,694	0,036	0,034
-458,284	-200,000	0,025	0,108
-457,270	98,990	-0,136	0,114
-456,255	743,039	-0,023	-0,046
-455,241	-67,967	-0,043	-0,012
-454,226	-42,800	0,218	-0,080
-453,211	-43,428	0,125	0,046
-452,197	277,534	0,034	0,044
-451,182	34,809	0,037	0,024
-450,168	-20,521	0,117	0,052
-449,153	28,673	-0,131	-0,081
-448,138	-200,000	-0,024	-0,181
-447,124	800,000	0,071	-0,182
-446,109	-200,000	-0,002	-0,070
-445,095	-200,000	0,009	0,115
-444,080	-200,000	-0,023	0,119
-443,065	429,114	-0,085	0,134
-442,051	-134,086	-0,064	0,006
-441,036	800,000	-0,023	-0,052
-440,022	174,336	-0,114	-0,120
-439,007	227,025	-0,091	0,107
-437,992	800,000	0,003	-0,010
-436,978	-119,597	0,154	-0,019
-435,963	800,000	-0,038	0,118
-434,949	-78,196	0,038	-0,009
-433,934	-200,000	-0,010	-0,132
-432,919	-200,000	0,021	-0,071
-431,905	800,000	-0,026	-0,053
-430,890	800,000	0,026	0,073
-429,876	350,849	0,089	-0,128
-428,861	572,317	0,063	-0,112
-427,846	800,000	-0,068	-0,189
-426,832	-28,347	0,036	-0,015
-425,817	-200,000	-0,016	-0,117
-424,803	-29,332	0,106	0,044
-423,788	-53,370	0,003	0,001
-422,773	-200,000	-0,010	0,142
-421,759	-200,000	0,023	0,113
-420,744	-74,386	-0,090	0,023
-419,730	250,789	0,074	-0,092
-418,715	24,408	-0,148	-0,089
-417,701	159,606	-0,101	0,102
-416,686	358,400	-0,056	-0,082
-415,671	800,000	-0,030	0,090
-414,657	-200,000	0,017	-0,068
-413,642	145,175	0,075	-0,073
-412,628	217,437	0,044	-0,051
-411,613	800,000	-0,037	-0,101
-410,598	-200,000	0,033	-0,131
-409,584	-200,000	-0,034	-0,148
-408,569	424,201	0,021	-0,033
-407,555	-200,000	0,004	0,029
-406,540	71,948	0,027	-0,020
-405,525	-200,000	-0,026	0,107
-404,511	299,288	-0,075	-0,100
-403,496	-200,000	0,037	-0,160
-402,482	800,000	-0,020	0,061
-401,467	-200,000	-0,001	0,030
-400,452	224,647	0,066	0,078
-399,438	-200,000	-0,012	0,216
-398,423	-200,000	0,009	0,053
-397,409	800,000	0,031	-0,068
-396,394	-200,000	-0,014	-0,177
-395,379	-200,000	-0,018	0,142
-394,365	-200,000	0,019	0,071
-393,350	285,313	0,031	-0,041
-392,336	-108,032	0,128	0,020
-391,321	-200,000	0,012	-0,041
-390,306	398,649	-0,052	-0,080
-389,292	106,940	-0,019	0,017
-388,277	800,000	0,045	0,113
-387,263	186,607	0,059	0,064
-386,248	127,117	-0,063	-0,058
-385,233	24,090	-0,167	0,100
-384,219	33,059	0,038	-0,024
-383,204	-39,094	-0,056	-0,021
-382,190	468,149	-0,074	-0,121
-381,175	-199,636	0,043	-0,000
-380,160	108,236	0,103	-0,089
-379,146	800,000	0,046	0,106
-378,131	-134,973	0,085	-0,007
-377,117	327,955	-0,037	0,052
-376,102	800,000	-0,029	-0,076
-375,088	800,000	-0,048	-0,136
-374,073	784,773	0,017	0,035
-373,058	-200,000	-0,012	0,062
-372,044	-185,964	0,185	-0,002
-371,029	473,972	0,042	0,070
-370,015	-93,324	-0,216	-0,043
-369,000	-71,353	0,013	-0,004
-367,985	-200,000	0,002	-0,026
-366,971	436,455	-0,089	0,141
-365,956	800,000	0,049	0,100
-364,942	-144,090	-0,070	0,005
-363,927	581,905	-0,036	-0,064
-362,912	210,162	0,048	-0,055
-361,898	-155,255	-0,156	-0,007
-360,883	-200,000	0,021	0,079
-359,869	-200,000	0,000	0,088
-358,854	-59,814	0,065	-0,020
-357,839	800,000	0,041	0,105
-356,825	-200,000	0,031	-0,103
-355,810	-98,998	-0,064	0,012
-354,796	504,937	-0,043	-0,072
-353,781	48,542	-0,104	-0,071
-352,766	-200,000	0,012	-0,047
-351,752	93,515	0,020	-0,016
-350,737	-200,000	-0,001	0,074
-349,723	252,644	0,109	0,135
-348,708	-4,862	-0,063	0,032
-347,693	379,925	-0,055	-0,083
-346,679	6,083	-0,042	0,023
-345,664	-200,000	0,009	-0,241
-344,650	51,727	-0,160	0,110
-343,635	-139,970	-0,034	-0,003
-342,620	507,100	-0,036	0,060
-341,606	248,298	-0,051	-0,063
-340,591	-200,000	-0,014	0,075
-339,577	-77,039	-0,113	-0,028
-338,562	63,222	-0,070	-0,051
-337,548	-200,000	0,002	-0,026
-336,533	36,348	-0,088	-0,056
-335,518	310,212	0,053	0,073
-334,504	480,378	-0,082	0,135
-333,489	-200,000	-0,007	-0,075
-332,475	726,135	0,032	-0,062
-331,460	-53,075	0,133	0,044
-330,445	-200,000	-0,032	0,178
-329,431	-27,613	-0,101	0,042
-328,416	-121,933	0,069	0,008
-327,402	56,487	-0,015	-0,011
-326,387	-200,000	0,011	-0,105
-325,372	-17,054	0,035	0,016
-324,358	125,581	-0,085	-0,077
-323,343	-99,764	-0,047	-0,009
-322,329	-148,697	0,031	-0,002
-321,314	800,000	0,021	0,053
-320,299	-172,596	0,104	0,002
-319,285	92,445	-0,110	-0,090
-318,270	29,821	0,030	0,019
-317,256	157,598	0,080	-0,080
-316,241	332,609	-0,050	-0,071
-315,226	-200,000	0,013	-0,077
-314,212	-200,000	-0,000	-0,048
-313,197	212,210	-0,024	0,028
-312,183	800,000	-0,038	0,115
-311,168	800,000	-0,056	-0,114
-310,153	-200,000	0,002	0,119
-309,139	117,747	0,057	0,051
-308,124	800,000	-0,015	0,041
-307,110	-71,607	0,105	-0,028
-306,095	206,888	0,124	-0,140
-305,080	-141,743	0,116	-0,008
-304,066	407,627	-0,052	-0,080
-303,051	-108,262	0,066	0,010
-302,037	-87,940	-0,121	-0,026
-301,022	-65,313	0,039	0,011
-300,008	-200,000	0,022	0,085
-298,993	126,319	0,027	-0,025
-297,978	-74,134	-0,164	0,043
-296,964	74,300	-0,074	-0,056
-295,949	181,534	0,022	-0,024
-294,935	233,362	0,032	-0,039
-293,920	166,415	-0,034	-0,035
-292,905	800,000	-0,008	-0,024
-291,891	800,000	-0,041	0,103
-290,876	-200,000	0,019	0,102
-289,862	-200,000	-0,010	-0,061
-288,847	132,489	-0,032	0,030
-287,832	91,266	0,038	-0,031
-286,818	6,762	0,218	0,117
-285,803	264,046	0,032	-0,040
-284,789	281,782	-0,028	0,037
-283,774	-200,000	0,010	0,148
-282,759	18,336	-0,126	-0,073
-281,745	345,158	0,046	-0,065
-280,730	-122,626	0,082	0,010
-279,716	-200,000	-0,008	-0,035
-278,701	502,291	0,045	0,076
-277,686	-103,571	0,149	-0,025
-276,672	736,258	0,056	0,109
-275,657	-94,481	0,162	-0,032
-274,643	-172,832	-0,117	-0,003
-273,628	139,226	-0,068	0,065
-272,613	122,987	-0,066	-0,060
-271,599	-200,000	-0,020	0,158
-270,584	-106,984	0,141	-0,022
-269,570	-200,000	-0,007	0,088
-268,555	316,977	-0,057	-0,078
-267,540	-20,194	0,117	-0,052
-266,526	800,000	0,043	-0,107
-265,511	-200,000	0,021	-0,143
-264,497	80,466	-0,147	0,114
-263,482	520,709	0,065	0,110
-262,467	-131,939	-0,082	-0,008
-261,453	404,341	0,026	-0,040
-260,438	425,520	-0,022	-0,034
-259,424	161,618	-0,029	-0,029
-258,409	0,584	-0,049	-0,025
-257,395	-12,123	0,075	-0,036
-256,380	102,742	-0,022	0,018
-255,365	528,352	0,032	0,054
-254,351	-127,648	0,109	0,011
-253,336	-200,000	0,005	-0,077
-252,322	-68,454	-0,122	0,034
-251,307	59,748	0,107	0,077
-250,292	-200,000	-0,003	0,078
-249,278	446,621	0,021	-0,034
-248,263	23,019	0,068	-0,040
-247,249	463,761	0,050	0,081
-246,234	800,000	-0,026	-0,083
-245,219	114,243	0,097	-0,085
-244,205	675,442	-0,093	-0,174
-243,190	800,000	-0,068	0,169
-242,176	-200,000	-0,002	-0,022
-241,161	-51,620	0,054	-0,018
-240,146	-129,136	0,108	-0,011
-239,132	-80,345	-0,128	0,031
-238,117	32,804	-0,095	-0,059
-237,103	-129,502	-0,132	0,013
-236,088	576,100	0,037	-0,065
-235,073	-200,000	0,008	-0,072
-234,059	800,000	-0,040	0,125
-233,044	-53,761	0,127	0,042
-232,030	800,000	0,034	0,096
-231,015	26,377	-0,097	-0,058
-230,000	-200,000	-0,009	-0,063
-228,986	-200,000	-0,008	0,066
-227,971	109,389	0,185	0,160
-226,957	-200,000	-0,006	0,035
-225,942	2,268	0,035	0,018
-224,927	800,000	0,020	-0,044
-223,913	17,282	-0,164	-0,094
-222,898	-200,000	-0,011	-0,057
-221,884	301,627	-0,085	-0,113
-220,869	-79,554	-0,090	-0,022
-219,855	-114,847	0,127	-0,017
-218,840	71,595	0,044	-0,033
-217,825	142,448	-0,065	-0,063
-216,811	-200,000	-0,012	-0,090
-215,796	-115,620	-0,094	0,013
-214,782	220,104	0,052	-0,061
-213,767	-200,000	-0,025	0,138
-212,752	49,579	0,170	0,115
-211,738	800,000	-0,030	0,072
-210,723	56,148	-0,038	-0,027
-209,709	-119,948	-0,055	0,007
-208,694	-55,693	0,035	0,011
-207,679	-155,491	-0,033	-0,002
-206,665	-41,051	0,056	-0,021
-205,650	103,091	0,076	0,064
-204,636	53,441	-0,071	0,049
-203,621	-106,244	0,034	0,005
-202,606	39,373	-0,022	0,014
-201,592	543,186	0,033	-0,058
-200,577	-200,000	-0,043	-0,179
-199,563	-200,000	-0,008	0,087
-198,548	61,710	-0,040	0,028
-197,533	-200,000	0,017	0,144
-196,519	79,660	0,019	0,015
-195,504	-200,000	0,011	-0,042
-194,490	374,516	0,081	-0,119
-193,475	-120,745	0,034	-0,004
-192,460	103,899	-0,034	0,028
-191,446	-200,000	0,025	0,117
-190,431	10,155	-0,075	-0,041
-189,417	-9,652	0,073	0,035
-188,402	-200,000	0,020	-0,123
-187,387	228,150	-0,030	0,035
-186,373	-67,620	-0,086	-0,024
-185,358	425,453	0,061	-0,095
-184,344	28,527	0,078	-0,047
-183,329	-44,628	0,068	-0,024
-182,315	800,000	0,015	0,041
-181,300	800,000	-0,056	0,149
-180,285	102,216	0,138	0,116
-179,271	-71,056	-0,148	0,040
-178,256	125,738	0,005	-0,005
-177,242	-200,000	0,013	0,050
-176,227	57,912	0,108	0,076
-175,212	79,497	-0,074	0,057
-174,198	161,013	0,126	-0,126
-173,183	-200,000	-0,024	0,145
-172,169	-170,350	-0,046	-0,001
-171,154	-63,466	0,047	0,014
-170,139	16,517	0,063	0,035
-169,125	-200,000	-0,026	0,113
-168,110	-24,502	-0,081	0,035
-167,096	-200,000	-0,006	0,037
-166,081	-200,000	-0,009	-0,033
-165,066	227,845	0,052	0,061
-164,052	-52,323	0,108	0,036
-163,037	156,483	0,125	0,124
-162,023	-200,000	-0,005	0,103
-161,008	79,077	0,078	0,060
-159,993	194,520	-0,046	0,050
-158,979	578,642	0,044	-0,078
-157,964	800,000	-0,033	-0,084
-156,950	-200,000	0,002	-0,025
-155,935	-200,000	0,012	0,043
-154,920	16,256	-0,019	0,011
-153,906	286,614	0,025	-0,032
-152,891	583,353	0,040	0,071
-151,877	-6,674	0,123	-0,060
-150,862	-6,623	-0,182	-0,089
-149,847	-200,000	0,000	0,083
-148,833	-200,000	0,027	-0,089
-147,818	88,416	0,101	-0,080
-146,804	715,463	-0,034	-0,065
-145,789	800,000	-0,047	-0,104
-144,775	-200,000	-0,005	0,090
-143,760	83,494	-0,040	-0,032
-142,745	-44,940	0,121	-0,043
-141,731	421,573	0,049	-0,076
-140,716	218,468	0,067	0,077
-139,702	-121,227	0,101	-0,012
-138,687	-69,653	-0,039	-0,011
-137,672	-200,000	-0,014	-0,131
-136,658	117,288	0,071	0,063
-135,643	800,000	0,043	-0,106
-134,629	65,735	-0,137	0,100
-133,614	-87,888	0,053	0,011
-132,599	299,389	0,073	0,097
-131,585	-15,710	0,047	-0,022
-130,570	-45,870	-0,028	0,010
-129,556	246,711	-0,041	-0,050
-128,541	406,559	0,032	-0,048
-127,526	-59,962	-0,080	0,025
-126,512	-40,610	0,123	-0,046
-125,497	469,287	0,052	-0,084
-124,483	800,000	0,044	0,136
-123,468	47,672	-0,035	-0,023
-122,453	201,757	-0,082	-0,091
-121,439	507,664	-0,034	0,057
-120,424	-142,334	0,151	-0,011
-119,410	-18,548	0,065	-0,029
-118,395	430,518	-0,026	0,040
-117,380	777,569	0,041	0,082
-116,366	-24,349	0,075	-0,032
-115,351	-118,514	0,013	-0,002
-114,337	100,143	-0,049	-0,041
-113,322	560,923	-0,069	0,121
-112,307	19,154	0,046	-0,026
-111,293	-100,836	-0,042	-0,007
-110,278	309,737	-0,063	-0,085
-109,264	-13,300	-0,118	0,055
-108,249	-200,000	-0,121	-0,000
-107,234	92,930	-0,031	0,025
-106,220	-75,663	0,021	-0,005
-105,205	132,762	0,118	-0,110
-104,191	106,584	0,113	0,096
-103,176	800,000	0,061	0,171
-102,162	-34,736	0,166	-0,065
-101,147	800,000	0,016	0,045
-100,132	-62,744	-0,081	0,024
-99,118	-200,000	-0,016	-0,187
-98,103	333,263	-0,065	-0,091
-97,089	-200,000	0,024	0,102
-96,074	25,380	-0,026	-0,016
-95,059	-200,000	0,003	-0,012
-94,045	800,000	0,049	-0,119
-93,030	45,644	0,042	0,028
-92,016	200,452	0,069	0,076
-91,001	45,601	0,083	-0,055
-89,986	800,000	-0,053	-0,106
-88,972	-6,036	0,044	0,021
-87,957	-80,489	-0,019	0,004
-86,943	193,996	0,034	0,037
-85,928	800,000	-0,064	-0,170
-84,913	32,433	-0,042	-0,026
-83,899	268,134	-0,060	-0,075
-82,884	283,576	-0,027	-0,035
-81,870	490,563	0,060	0,098
-80,855	251,072	-0,038	-0,046
-79,840	116,631	-0,097	-0,085
-78,826	-153,604	0,036	-0,002
-77,811	-120,393	-0,074	-0,009
-76,797	-28,922	0,113	-0,046
-75,782	178,541	0,042	0,044
-74,767	-200,000	0,031	0,100
-73,753	-125,484	0,179	0,019
-72,738	-115,001	-0,099	-0,013
-71,724	-200,000	0,009	-0,143
-70,709	800,000	-0,071	-0,147
-69,694	-103,777	-0,106	0,018
-68,680	-143,021	0,186	0,013
-67,665	-82,202	-0,078	-0,018
-66,651	-152,038	0,127	0,007
-65,636	91,396	0,105	0,085
-64,622	-200,000	0,006	-0,022
-63,607	800,000	0,004	0,011
-62,592	135,892	-0,052	-0,049
-61,578	-200,000	0,002	0,090
-60,563	353,175	0,017	0,024
-59,549	-164,724	-0,105	-0,003
-58,534	16,206	-2,108	-1,189
-57,519	800,000	-0,361	-0,772
-56,505	-200,000	-1,322	-5,157
-55,490	136,372	0,774	0,724
-54,476	800,000	5,258	11,861
-53,461	-200,000	18,870	317,597
-52,446	800,000	741,317	2334,464
-51,432	558,258	1657,375	2878,214
-50,417	111,102	1641,200	1417,102
-49,403	75,401	1291,173	975,929
-48,388	30,242	1031,652	630,038
-47,373	19,907	994,370	573,014
-46,359	17,344	982,124	557,492
-45,344	14,041	978,176	544,363
-44,330	14,363	976,539	544,490
-43,315	13,699	974,672	541,246
-42,300	13,670	973,717	540,602
-41,286	13,685	972,724	540,077
-40,271	13,683	971,715	539,490
-39,257	13,693	970,791	538,986
-38,242	13,664	970,007	538,436
-37,227	13,707	969,068	538,034
-36,213	13,665	968,195	537,391
-35,198	13,626	967,276	536,732
-34,184	13,676	966,698	536,554
-33,169	13,638	965,578	535,788
-32,154	13,595	964,649	535,110
-31,140	13,731	963,556	534,924
-30,125	13,737	963,072	534,653
-29,111	13,691	962,132	533,961
-28,096	13,654	961,628	533,540
-27,082	13,712	960,760	533,225
-26,067	13,704	960,048	532,784
-25,052	13,699	959,292	532,325
-24,038	13,707	958,627	531,962
-23,023	13,683	958,057	531,547
-22,009	13,706	957,331	531,198
-20,994	13,708	956,655	530,808
-19,979	13,717	956,112	530,513
-18,965	13,699	955,382	530,031
-17,950	13,712	954,933	529,802
-16,936	13,644	954,221	529,166
-15,921	13,575	953,891	528,742
-14,906	13,591	952,870	528,205
-13,892	13,607	952,230	527,882
-12,877	13,608	951,479	527,447
-11,863	13,577	950,763	526,931
-10,848	13,603	950,184	526,673
-9,833	13,676	949,888	526,720
-8,819	13,639	949,089	526,138
-7,804	13,602	948,499	525,673
-6,790	13,545	947,981	525,182
-5,775	13,673	947,345	525,217
-4,760	13,615	946,796	524,707
-3,746	13,604	946,185	524,314
-2,731	13,431	945,443	523,331
-1,717	13,401	944,864	522,894
-0,702	13,469	943,945	522,581
0,313	13,208	943,346	522,208
1,327	16,531	941,199	531,497
2,342	25,664	795,900	473,712
3,356	21,942	460,483	268,336
4,371	-4,804	317,456	156,273
5,386	-8,645	299,207	143,351
6,400	-10,530	293,295	138,616
7,415	-10,750	290,699	137,158
8,429	-11,346	289,132	135,818
9,444	-11,389	288,176	135,314
10,459	-11,243	287,576	135,164
11,473	-11,314	287,031	134,825
12,488	-11,210	286,466	134,650
13,502	-11,539	286,077	134,133
14,517	-11,177	285,581	134,242
15,531	-11,237	284,973	133,886
16,546	-11,337	284,568	133,587
17,561	-11,302	284,202	133,437
18,575	-11,383	283,926	133,216
19,590	-11,476	283,549	132,938
20,604	-11,370	283,284	132,904
21,619	-11,352	282,942	132,749
22,634	-11,251	282,410	132,586
23,648	-11,346	282,236	132,400
24,663	-11,368	281,919	132,219
25,677	-11,395	281,579	132,021
26,692	-11,388	281,485	131,972
27,707	-11,503	281,101	131,670
28,721	-11,300	280,727	131,678
29,736	-11,420	280,475	131,433
30,750	-11,492	280,451	131,342
31,765	-11,482	280,011	131,133
32,780	-11,433	279,762	131,051
33,794	-11,446	279,582	130,944
34,809	-11,414	279,270	130,816
35,823	-11,498	278,880	130,541
36,838	-11,395	278,758	130,571
37,853	-11,369	278,573	130,497
38,867	-11,474	278,410	130,309
39,882	-11,503	278,081	130,116
40,896	-11,564	277,718	129,877
41,911	-11,522	277,469	129,788
42,926	-11,660	277,302	129,568
43,940	-11,560	276,973	129,498
44,955	-11,394	276,777	129,552
45,969	-11,463	276,517	129,352
46,984	-11,733	276,360	129,014
47,999	-11,898	275,909	128,636
49,013	-11,818	275,622	128,566
50,028	-12,035	275,506	128,296
51,042	-12,073	275,155	128,086
52,057	-12,077	274,951	127,976
53,071	-11,967	274,750	127,974
54,086	-12,056	274,592	127,806
55,101	-11,831	274,389	127,910
56,115	-11,551	274,086	128,019
57,130	-11,325	273,963	128,161
58,144	-11,313	273,966	128,163
59,159	-11,158	273,684	128,163
60,174	-11,331	273,558	127,932
61,188	-11,268	273,244	127,832
62,203	-11,332	272,988	127,641
63,217	-11,222	272,794	127,642
64,232	-11,273	272,548	127,468
65,247	-11,435	272,413	127,243
66,261	-11,296	272,009	127,172
67,276	-11,523	271,890	126,895
68,290	-11,780	271,409	126,422
69,305	-11,824	271,351	126,343
70,320	-11,478	271,089	126,529
71,334	-11,323	270,954	126,597
72,349	-11,294	270,709	126,498
73,363	-11,241	270,442	126,411
74,378	-11,222	270,183	126,296
75,393	-11,264	270,079	126,198
76,407	-11,259	269,799	126,060
77,422	-11,351	269,631	125,886
78,436	-11,194	269,395	125,909
79,451	-11,288	269,141	125,692
80,466	-11,436	268,987	125,474
81,480	-11,498	268,656	125,251
82,495	-11,366	268,260	125,176
83,509	-11,485	268,299	125,075
84,524	-11,602	268,163	124,893
85,539	-11,529	267,919	124,835
86,553	-11,504	267,604	124,699
87,568	-11,657	267,508	124,505
88,582	-11,587	267,160	124,395
89,597	-11,534	266,930	124,325
90,611	-11,383	266,871	124,423
91,626	-11,349	266,797	124,409
92,641	-11,397	266,620	124,272
93,655	-11,388	266,236	124,090
94,670	-11,487	265,983	123,872
95,684	-11,362	265,908	123,939
96,699	-11,417	265,620	123,743
97,714	-11,459	265,473	123,626
98,728	-11,623	265,160	123,322
99,743	-11,666	264,779	123,096
100,757	-11,507	264,723	123,201
101,772	-11,757	264,766	122,985
102,787	-11,522	264,378	123,005
103,801	-11,370	264,247	123,069
104,816	-11,421	263,961	122,879
105,830	-11,246	264,052	123,068
106,845	-11,270	263,733	122,886
107,860	-11,263	263,389	122,721
108,874	-11,188	263,231	122,704
109,889	-11,388	263,102	122,455
110,903	-11,343	262,908	122,394
111,918	-11,403	262,693	122,229
112,933	-11,425	262,465	122,092
113,947	-11,174	262,196	122,180
114,962	-11,340	262,027	121,943
115,976	-11,219	261,862	121,962
116,991	-11,291	261,598	121,764
118,006	-11,414	261,496	121,597
119,020	-11,431	261,460	121,554
120,035	-11,386	261,286	121,503
121,049	-11,454	261,080	121,336
122,064	-11,270	260,852	121,381
123,079	-11,398	260,595	121,138
124,093	-11,298	260,250	121,055
125,108	-11,477	260,171	120,850
126,122	-11,812	260,019	120,473
127,137	-11,791	259,500	120,241
128,151	-11,767	259,550	120,275
129,166	-11,819	259,414	120,155
130,181	-11,571	259,174	120,250
131,195	-11,646	258,883	120,039
132,210	-11,334	258,753	120,241
133,224	-11,244	258,570	120,224
134,239	-11,097	258,240	120,188
135,254	-11,267	258,252	120,035
136,268	-11,434	258,082	119,800
137,283	-11,691	257,646	119,362
138,297	-11,796	257,494	119,189
139,312	-11,684	257,273	119,174
140,327	-11,546	257,266	119,281
141,341	-11,227	257,009	119,428
142,356	-11,291	257,039	119,376
143,370	-11,290	256,681	119,199
144,385	-10,950	256,600	119,446
145,400	-11,133	256,448	119,206
146,414	-11,088	256,079	119,063
147,429	-11,017	256,061	119,105
148,443	-11,168	255,912	118,895
149,458	-11,435	255,909	118,652
150,473	-11,083	255,483	118,748
151,487	-11,269	255,174	118,433
152,502	-11,182	255,162	118,492
153,516	-11,066	254,814	118,420
154,531	-11,257	254,678	118,181
155,546	-11,180	254,399	118,108
156,560	-11,181	254,193	118,000
157,575	-11,184	253,997	117,897
158,589	-10,989	253,911	118,013
159,604	-11,214	253,758	117,739
160,619	-11,057	253,430	117,711
161,633	-11,217	253,369	117,535
162,648	-11,138	253,181	117,504
163,662	-11,036	253,061	117,525
164,677	-11,096	252,982	117,428
165,692	-11,020	252,739	117,369
166,706	-11,186	252,719	117,208
167,721	-11,051	252,357	117,144
168,735	-11,134	252,356	117,063
169,750	-11,166	252,178	116,943
170,764	-11,035	251,982	116,952
171,779	-10,924	251,844	116,973
172,794	-11,049	251,740	116,808
173,808	-11,133	251,386	116,561
174,823	-11,457	251,064	116,127
175,837	-11,340	250,815	116,101
176,852	-11,192	251,022	116,312
177,867	-11,008	250,682	116,299
178,881	-11,145	250,554	116,113
179,896	-11,013	250,283	116,089
180,910	-11,084	250,215	115,987
181,925	-11,028	249,971	115,911
182,940	-10,950	249,753	115,865
183,954	-11,017	249,683	115,766
184,969	-11,078	249,488	115,614
185,983	-11,210	249,479	115,489
186,998	-10,928	249,019	115,502
188,013	-10,967	248,954	115,429
189,027	-10,976	248,788	115,334
190,042	-11,071	248,689	115,198
191,056	-10,938	248,527	115,225
192,071	-11,035	248,318	115,037
193,086	-11,162	248,143	114,839
194,100	-11,172	248,068	114,785
195,115	-11,037	247,735	114,734
196,129	-11,040	247,520	114,621
197,144	-11,068	247,373	114,519
198,159	-10,985	247,072	114,439
199,173	-10,984	246,993	114,393
200,188	-11,047	246,702	114,196
201,202	-11,107	246,578	114,079
202,217	-11,433	246,189	113,619
203,232	-11,718	246,137	113,349
204,246	-11,084	246,118	113,854
205,261	-10,501	245,930	114,240
206,275	-11,346	245,636	113,395
207,290	-6,115	247,677	118,678
208,304	1,535	250,212	126,288
209,319	4,155	250,945	128,840
210,334	4,682	250,949	129,271
211,348	5,035	250,789	129,472
212,363	5,189	250,639	129,512
213,377	5,420	250,533	129,639
214,392	5,170	250,300	129,298
215,407	5,063	250,210	129,151
216,421	4,996	249,939	128,944
217,436	5,055	249,870	128,946
218,450	5,127	249,964	129,043
219,465	5,100	249,526	128,782
220,480	4,785	249,264	128,374
221,494	4,936	249,123	128,415
222,509	4,919	248,898	128,274
223,523	4,924	248,693	128,161
224,538	4,266	248,484	127,498
225,553	4,339	248,502	127,556
226,567	4,798	248,326	127,834
227,582	4,782	248,110	127,698
228,596	4,657	247,925	127,488
229,611	4,401	247,806	127,205
230,626	4,427	247,567	127,092
231,640	4,366	247,416	126,953
232,655	4,600	247,433	127,142
233,669	4,504	246,990	126,826
234,684	4,218	246,777	126,469
235,699	4,669	246,932	126,908
236,713	4,868	246,745	126,964
237,728	4,595	246,432	126,568
238,742	4,490	246,110	126,306
239,757	4,295	245,962	126,058
240,772	4,267	245,931	126,009
241,786	4,302	245,999	126,061
242,801	4,195	245,597	125,756
243,815	4,418	245,435	125,844
244,830	4,744	245,319	126,039
245,844	4,861	245,180	126,052
246,859	4,636	244,892	125,709
247,874	4,456	244,791	125,500
248,888	4,572	244,633	125,502
249,903	4,644	244,598	125,531
250,917	4,744	244,363	125,481
251,932	4,703	244,385	125,448
252,947	4,783	244,017	125,312
253,961	4,431	243,970	124,992
254,976	4,594	243,726	124,987
255,990	4,690	243,578	124,978
257,005	4,354	243,417	124,613
258,020	4,289	243,188	124,433
259,034	4,363	243,065	124,418
260,049	4,701	242,917	124,603
261,063	4,441	242,641	124,242
262,078	4,243	242,694	124,098
263,093	4,675	242,467	124,318
264,107	4,646	242,453	124,276
265,122	4,470	242,146	123,967
266,136	4,485	242,151	123,971
267,151	4,933	241,942	124,212
268,166	4,391	241,612	123,597
269,180	4,278	241,514	123,445
270,195	5,033	241,408	123,984
271,209	5,142	241,426	124,070
272,224	4,517	241,073	123,378
273,239	4,179	240,690	122,901
274,253	4,094	240,777	122,867
275,268	4,500	240,592	123,086
276,282	4,483	240,372	122,948
277,297	4,172	240,274	122,639
278,312	4,357	240,092	122,683
279,326	4,656	239,904	122,813
280,341	4,606	239,820	122,720
281,355	4,432	239,689	122,504
282,370	4,755	239,580	122,694
283,384	4,357	239,530	122,342
284,399	4,405	239,151	122,175
285,414	4,340	238,945	122,007
286,428	4,311	238,936	121,969
287,443	4,468	238,706	121,964
288,457	4,660	238,763	122,135
289,472	4,718	238,649	122,111
290,487	4,559	238,305	121,799
291,501	4,441	238,037	121,559
292,516	4,337	237,850	121,370
293,530	4,086	237,805	121,139
294,545	4,514	237,683	121,402
295,560	4,495	237,549	121,308
296,574	4,272	237,291	120,990
297,589	4,450	237,191	121,068
298,603	4,749	237,179	121,286
299,618	4,795	237,073	121,257
300,633	4,631	236,841	120,999
301,647	4,532	236,888	120,935
302,662	4,943	236,664	121,131
303,676	4,896	236,425	120,961
304,691	4,760	236,293	120,777
305,706	4,944	236,219	120,871
306,720	4,891	236,064	120,740
307,735	4,837	235,750	120,527
308,749	4,648	235,587	120,286
309,764	4,267	235,475	119,921
310,779	4,285	235,204	119,787
311,793	4,136	234,970	119,541
312,808	4,135	234,840	119,463
313,822	4,184	234,662	119,400
314,837	3,949	234,513	119,132
315,852	4,322	234,620	119,464
316,866	4,911	234,551	119,875
317,881	4,981	234,422	119,853
318,895	4,871	234,310	119,699
319,910	5,021	234,137	119,716
320,925	4,532	233,759	119,135
321,939	4,326	233,579	118,874
322,954	4,476	233,622	119,001
323,968	4,402	233,396	118,818
324,983	4,606	233,177	118,853
325,997	4,862	233,183	119,042
327,012	4,654	233,148	118,854
328,027	4,700	232,722	118,661
329,041	4,932	232,798	118,868
330,056	5,151	232,801	119,027
331,070	5,435	232,572	119,117
332,085	5,115	232,208	118,674
333,100	4,595	232,176	118,250
334,114	4,821	231,865	118,254
335,129	4,747	231,879	118,194
336,143	4,931	231,650	118,207
337,158	4,620	231,613	117,940
338,173	4,423	231,400	117,671
339,187	4,643	231,121	117,686
340,202	4,664	231,038	117,650
341,216	4,557	230,903	117,489
342,231	4,528	230,686	117,346
343,246	4,608	230,588	117,346
344,260	4,545	230,548	117,267
345,275	4,988	230,363	117,499
346,289	4,903	230,242	117,362
347,304	4,756	230,105	117,171
348,319	4,963	229,933	117,229
349,333	4,805	229,705	116,983
350,348	4,669	229,454	116,743
351,362	4,705	229,472	116,768
352,377	4,500	229,245	116,488
353,392	4,541	228,989	116,378
354,406	4,285	228,892	116,125
355,421	196,102	1317,228	1394,268
356,435	157,325	1449,781	1394,220
