DTS Sentinel unit serial number:	SN410029Multiplexer serial number:	ORYXHardware model number:	OX2-SRSoftware version number:	ORYX F/W v4,00 Oryx Data Collector v3.7.2.0data status	okinstallation	B5 Nyhavnadifferential loss correction	single-endedforward channel	channel 2reverse channel	N/Adate	2023/12/14time	15:22:13forward acquisition time	300,00reverse acquisition time	0,00gamma	499,1914k internal	0,3157k external	0,3157temperature offset calibration	1,0000default loss term (dB/km)	0,3820temperature slope calibration	1,0000multiplexer offset coefficient	1,0000multiplexer slope coefficient	1,0000fibre end	0,00T internal ref (°C)	7,90T ext. ref 1 (°C)	-8,27T ext. ref 2 (°C)	-8,30length (m)	temperature (°C)	Stokes	anti-Stokes-744,400	-156,857	0,169	0,008
-743,385	-160,236	-0,372	0,015
-742,371	176,079	0,202	0,216
-741,356	-107,154	-0,326	-0,053
-740,342	-78,123	0,092	-0,023
-739,327	-72,760	-0,341	-0,092
-738,312	-59,881	0,237	-0,074
-737,298	-81,503	-0,434	-0,104
-736,283	-200,000	-0,002	0,011
-735,269	-180,788	-0,463	0,007
-734,254	-83,758	0,237	0,055
-733,239	17,444	-0,482	-0,281
-732,225	15,751	0,250	0,145
-731,210	48,087	-0,075	0,052
-730,196	-53,911	-0,111	-0,037
-729,181	-51,678	-0,088	-0,030
-728,167	-200,000	0,005	0,073
-727,152	-200,000	-0,003	-0,037
-726,137	800,000	-0,030	0,066
-725,123	-127,127	-0,207	0,022
-724,108	325,193	-0,088	-0,125
-723,094	-67,071	-0,179	-0,052
-722,079	-42,503	-0,177	0,066
-721,064	800,000	-0,015	0,044
-720,050	318,083	0,047	-0,066
-719,035	800,000	-0,007	0,022
-718,021	122,169	-0,090	0,083
-717,006	800,000	-0,022	-0,058
-715,991	-200,000	-0,033	-0,238
-714,977	192,356	-0,093	-0,103
-713,962	701,823	-0,086	-0,168
-712,948	800,000	0,029	0,063
-711,933	452,757	-0,022	-0,036
-710,918	-89,459	-0,133	-0,029
-709,904	183,676	0,145	0,158
-708,889	-200,000	0,038	-0,231
-707,875	-200,000	-0,019	-0,120
-706,860	52,167	-0,090	0,063
-705,845	-61,895	0,092	-0,028
-704,831	-86,520	-0,105	-0,023
-703,816	44,602	-0,105	-0,071
-702,802	14,029	-0,103	-0,059
-701,787	208,800	-0,042	-0,049
-700,772	29,137	-0,077	-0,048
-699,758	49,713	-0,014	0,009
-698,743	723,727	-0,072	0,141
-697,729	41,557	0,087	0,058
-696,714	800,000	0,052	0,129
-695,699	350,605	0,033	-0,049
-694,685	26,030	-0,107	-0,066
-693,670	117,492	-0,112	-0,101
-692,656	42,380	-0,047	0,032
-691,641	-200,000	-0,010	0,086
-690,627	-28,292	-0,074	-0,031
-689,612	68,427	-0,115	0,087
-688,597	90,123	-0,030	-0,025
-687,583	96,337	-0,134	-0,113
-686,568	-11,530	-0,159	-0,077
-685,554	-200,000	-0,013	-0,161
-684,539	151,231	0,175	0,175
-683,524	128,917	-0,009	0,008
-682,510	-200,000	-0,007	0,027
-681,495	-128,804	-0,103	-0,011
-680,481	-113,217	0,035	0,005
-679,466	-57,743	-0,053	0,017
-678,451	148,895	0,033	-0,032
-677,437	-200,000	-0,004	-0,140
-676,422	86,812	0,035	-0,028
-675,408	-200,000	-0,027	-0,094
-674,393	133,531	0,054	-0,052
-673,378	800,000	-0,047	-0,126
-672,364	86,203	-0,168	-0,136
-671,349	-200,000	0,003	0,036
-670,335	224,441	0,046	-0,054
-669,320	-70,538	0,136	0,038
-668,305	-188,966	0,115	-0,001
-667,291	22,451	0,053	-0,032
-666,276	-200,000	-0,001	-0,050
-665,262	-200,000	0,009	-0,076
-664,247	98,314	-0,078	-0,066
-663,232	58,577	-0,082	-0,059
-662,218	800,000	0,020	-0,058
-661,203	103,288	0,067	0,058
-660,189	-177,910	-0,099	0,002
-659,174	-200,000	-0,035	0,142
-658,159	560,175	-0,066	-0,118
-657,145	-200,000	-0,044	-0,184
-656,130	-67,526	-0,120	0,034
-655,116	133,481	0,055	0,052
-654,101	800,000	0,017	0,043
-653,086	1,904	-0,127	0,067
-652,072	-56,833	0,096	-0,031
-651,057	47,065	-0,059	0,040
-650,043	74,369	0,028	-0,021
-649,028	-200,000	-0,009	0,127
-648,014	-200,000	0,007	0,096
-646,999	86,560	-0,117	0,095
-645,984	66,699	-0,071	0,053
-644,970	-150,994	-0,007	-0,000
-643,955	18,573	0,069	-0,040
-642,941	-200,000	-0,017	-0,087
-641,926	-200,000	-0,003	-0,065
-640,911	-101,577	0,013	0,002
-639,897	-152,096	0,027	-0,001
-638,882	279,898	-0,133	-0,174
-637,868	203,894	-0,016	0,018
-636,853	67,621	-0,118	-0,088
-635,838	205,996	0,117	-0,134
-634,824	-200,000	0,017	-0,129
-633,809	-200,000	-0,004	-0,015
-632,795	-200,000	-0,003	-0,102
-631,780	154,405	-0,043	0,043
-630,765	-163,497	-0,093	-0,003
-629,751	-200,000	-0,005	0,033
-628,736	-200,000	-0,027	0,127
-627,722	192,764	0,023	-0,026
-626,707	-200,000	0,019	0,106
-625,692	800,000	0,023	-0,069
-624,678	152,903	0,074	-0,074
-623,663	800,000	-0,043	-0,108
-622,649	-200,000	0,032	-0,172
-621,634	-22,402	-0,115	-0,051
-620,619	-84,955	0,150	-0,034
-619,605	676,964	0,009	-0,018
-618,590	145,973	-0,029	-0,028
-617,576	351,067	0,004	-0,006
-616,561	-115,593	-0,164	-0,022
-615,546	-118,162	0,044	-0,006
-614,532	5,235	-0,051	0,027
-613,517	-97,294	-0,174	-0,033
-612,503	-1,474	0,030	0,015
-611,488	-125,049	-0,084	-0,009
-610,474	-200,000	0,018	0,154
-609,459	675,954	0,017	0,033
-608,444	426,131	0,022	0,035
-607,430	-200,000	-0,031	-0,127
-606,415	552,001	0,036	-0,064
-605,401	282,526	0,068	0,089
-604,386	45,350	0,110	-0,074
-603,371	-84,737	0,100	-0,023
-602,357	-200,000	0,037	0,133
-601,342	132,504	0,038	0,036
-600,328	-200,000	0,017	-0,160
-599,313	800,000	0,019	-0,045
-598,298	-11,176	0,078	-0,038
-597,284	93,312	0,139	0,115
-596,269	163,403	0,044	0,046
-595,255	800,000	0,019	-0,046
-594,240	800,000	0,006	-0,018
-593,225	-34,217	0,053	0,021
-592,211	464,624	-0,017	-0,028
-591,196	57,465	0,099	0,071
-590,182	96,377	-0,051	0,043
-589,167	-200,000	0,001	0,079
-588,152	656,929	-0,006	-0,011
-587,138	-200,000	0,007	-0,030
-586,123	-200,000	-0,002	-0,054
-585,109	-154,484	-0,056	0,003
-584,094	520,950	0,054	0,093
-583,079	-100,534	-0,153	-0,027
-582,065	-50,749	0,061	0,021
-581,050	-200,000	0,008	-0,030
-580,036	-54,378	0,093	0,031
-579,021	598,076	0,001	0,002
-578,006	-89,982	-0,136	-0,029
-576,992	349,247	0,010	-0,015
-575,977	-98,463	-0,131	-0,024
-574,963	215,857	-0,017	-0,020
-573,948	-200,000	0,017	0,072
-572,934	572,543	-0,049	0,088
-571,919	-200,000	0,015	-0,090
-570,904	-151,924	-0,197	-0,010
-569,890	-3,914	0,031	0,016
-568,875	358,910	-0,052	-0,076
-567,861	-200,000	0,002	0,068
-566,846	-200,000	0,024	0,103
-565,831	321,676	-0,089	-0,125
-564,817	272,568	0,015	0,020
-563,802	180,100	-0,123	-0,132
-562,788	67,593	-0,048	-0,036
-561,773	743,140	0,053	-0,105
-560,758	-86,345	-0,075	-0,017
-559,744	381,956	0,041	0,061
-558,729	-200,000	-0,022	0,105
-557,715	-200,000	0,002	-0,022
-556,700	-200,000	0,009	-0,098
-555,685	-27,447	-0,094	0,040
-554,671	45,391	-0,083	0,056
-553,656	208,980	-0,023	-0,026
-552,642	-29,647	-0,060	-0,025
-551,627	-200,000	-0,021	-0,084
-550,612	-200,000	-0,016	-0,128
-549,598	25,905	-0,090	-0,055
-548,583	151,233	-0,082	0,081
-547,569	-200,000	0,030	-0,143
-546,554	46,654	0,087	0,059
-545,539	294,970	-0,031	-0,041
-544,525	800,000	0,085	0,201
-543,510	-53,757	-0,072	0,024
-542,496	149,623	-0,096	-0,095
-541,481	-200,000	0,041	-0,209
-540,466	-200,000	0,005	-0,025
-539,452	-200,000	-0,006	0,057
-538,437	-81,186	0,124	-0,030
-537,423	69,465	0,101	0,076
-536,408	800,000	-0,017	-0,040
-535,393	-65,280	-0,050	0,015
-534,379	-107,545	-0,179	-0,028
-533,364	27,329	0,104	-0,064
-532,350	-8,839	-0,014	-0,007
-531,335	-147,726	-0,028	0,002
-530,321	583,674	0,027	0,049
-529,306	-124,384	-0,038	0,004
-528,291	67,005	-0,013	0,010
-527,277	49,068	-0,138	-0,095
-526,262	-200,000	0,003	0,011
-525,248	494,876	-0,073	-0,122
-524,233	-200,000	0,006	-0,088
-523,218	67,041	0,051	-0,038
-522,204	-87,506	0,006	-0,001
-521,189	-61,971	-0,077	-0,023
-520,175	212,420	-0,052	-0,060
-519,160	800,000	0,007	-0,021
-518,145	238,741	0,069	-0,084
-517,131	87,991	0,023	-0,019
-516,116	112,890	-0,065	-0,058
-515,102	269,108	-0,095	-0,122
-514,087	154,878	-0,018	-0,018
-513,072	-142,330	-0,078	-0,006
-512,058	73,820	-0,017	-0,013
-511,043	19,727	-0,081	-0,048
-510,029	412,107	0,033	-0,052
-509,014	800,000	0,057	-0,146
-507,999	800,000	0,022	-0,055
-506,985	216,771	-0,118	0,137
-505,970	52,467	-0,097	-0,067
-504,956	377,454	0,041	-0,061
-503,941	440,201	-0,063	-0,100
-502,926	-142,808	0,029	0,002
-501,912	-66,062	0,122	0,035
-500,897	20,331	-0,031	-0,018
-499,883	425,815	-0,067	0,105
-498,868	-200,000	0,006	-0,227
-497,853	-200,000	-0,048	-0,192
-496,839	50,229	-0,105	0,073
-495,824	-11,797	0,055	0,026
-494,810	-113,239	0,080	-0,011
-493,795	453,899	0,087	0,141
-492,781	77,974	-0,048	0,037
-491,766	-167,243	-0,089	0,003
-490,751	145,588	-0,035	0,034
-489,737	800,000	0,009	0,028
-488,722	395,326	-0,055	-0,084
-487,708	-101,364	0,066	-0,012
-486,693	-80,716	-0,073	-0,018
-485,678	800,000	-0,061	0,130
-484,664	-72,207	-0,017	0,005
-483,649	800,000	-0,042	-0,087
-482,635	800,000	-0,069	0,147
-481,620	-170,113	0,067	0,002
-480,605	-79,586	0,077	-0,019
-479,591	-102,686	0,015	-0,003
-478,576	293,582	0,068	-0,090
-477,562	417,616	0,023	0,036
-476,547	254,826	-0,123	-0,153
-475,532	3,078	0,067	0,036
-474,518	-200,000	0,006	0,053
-473,503	-163,254	0,139	-0,005
-472,489	79,514	-0,105	0,082
-471,474	-200,000	-0,019	-0,098
-470,459	73,567	-0,070	0,054
-469,445	170,595	-0,068	-0,071
-468,430	673,605	0,037	-0,070
-467,416	800,000	-0,013	0,035
-466,401	150,081	0,043	0,043
-465,386	5,553	-0,042	-0,023
-464,372	360,351	-0,034	0,050
-463,357	127,107	-0,091	-0,084
-462,343	95,589	-0,022	-0,018
-461,328	122,717	0,028	-0,025
-460,313	282,227	0,067	0,088
-459,299	800,000	0,011	-0,023
-458,284	-61,994	-0,149	0,045
-457,270	-164,827	0,176	-0,006
-456,255	-200,000	-0,013	-0,111
-455,241	325,851	0,065	-0,091
-454,226	404,899	0,034	-0,052
-453,211	24,326	0,114	0,068
-452,197	-30,235	-0,049	-0,020
-451,182	72,184	-0,039	0,029
-450,168	-3,725	0,134	0,067
-449,153	-76,754	-0,094	0,024
-448,138	-73,046	0,152	0,040
-447,124	46,847	-0,070	0,047
-446,109	302,792	0,073	-0,098
-445,095	800,000	0,037	-0,080
-444,080	-60,632	0,024	0,008
-443,065	26,241	0,059	-0,036
-442,051	32,683	0,165	-0,103
-441,036	800,000	-0,052	-0,114
-440,022	800,000	-0,017	-0,048
-439,007	376,474	-0,064	0,096
-437,992	193,849	0,030	0,033
-436,978	48,641	-0,014	-0,010
-435,963	262,830	0,116	0,147
-434,949	367,239	-0,054	-0,080
-433,934	-117,025	0,085	-0,011
-432,919	-50,544	-0,092	0,031
-431,905	535,498	0,088	-0,153
-430,890	61,627	-0,022	0,016
-429,876	-112,974	0,107	0,015
-428,861	-70,375	-0,143	0,039
-427,846	-200,000	0,014	0,103
-426,832	608,312	-0,088	-0,160
-425,817	-200,000	0,011	0,087
-424,803	67,756	0,055	-0,041
-423,788	-71,047	-0,107	-0,029
-422,773	-15,000	0,020	0,009
-421,759	-136,319	-0,063	0,005
-420,744	-37,167	-0,098	0,038
-419,730	480,840	0,062	-0,103
-418,715	-57,853	-0,114	-0,036
-417,701	-37,626	0,043	-0,017
-416,686	-185,126	-0,125	0,001
-415,671	-142,661	-0,144	-0,010
-414,657	54,211	0,068	-0,048
-413,642	-74,048	0,131	-0,034
-412,628	-200,000	0,022	0,074
-411,613	201,873	-0,048	0,054
-410,598	800,000	0,060	-0,127
-409,584	-200,000	0,035	0,139
-408,569	217,237	0,046	0,053
-407,555	800,000	0,068	0,145
-406,540	-197,362	0,127	-0,001
-405,525	-200,000	-0,019	0,098
-404,511	104,493	0,016	0,013
-403,496	209,819	-0,146	-0,167
-402,482	-200,000	0,057	0,191
-401,467	-200,000	0,011	0,107
-400,452	800,000	0,043	0,103
-399,438	279,507	-0,033	0,043
-398,423	240,519	0,065	-0,080
-397,409	73,712	0,076	-0,058
-396,394	382,779	-0,033	-0,049
-395,379	-18,319	0,061	0,028
-394,365	-89,537	0,079	0,017
-393,350	-200,000	-0,001	-0,081
-392,336	-200,000	-0,025	-0,098
-391,321	-8,093	0,152	-0,074
-390,306	359,490	-0,027	-0,039
-389,292	800,000	-0,030	-0,075
-388,277	12,989	0,017	-0,009
-387,263	-200,000	0,018	0,115
-386,248	273,619	-0,019	0,024
-385,233	23,236	0,029	0,017
-384,219	800,000	-0,034	0,107
-383,204	800,000	-0,010	-0,021
-382,190	561,052	0,086	0,151
-381,175	-99,583	-0,091	0,016
-380,160	415,652	-0,028	-0,043
-379,146	-86,641	-0,032	0,007
-378,131	-126,486	0,115	-0,012
-377,117	800,000	0,038	0,091
-376,102	152,423	-0,018	-0,018
-375,088	59,430	0,128	0,092
-374,073	-200,000	-0,007	0,049
-373,058	136,660	0,085	-0,081
-372,044	-200,000	0,008	0,100
-371,029	-72,947	0,062	0,016
-370,015	-75,106	-0,097	0,025
-369,000	-200,000	0,000	-0,037
-367,985	44,847	-0,070	-0,047
-366,971	-68,063	-0,179	-0,050
-365,956	419,001	-0,020	-0,032
-364,942	-200,000	-0,028	0,167
-363,927	125,974	0,051	0,047
-362,912	162,359	0,089	0,090
-361,898	-200,000	0,019	0,118
-360,883	161,343	-0,059	0,060
-359,869	800,000	0,065	0,137
-358,854	125,906	0,013	-0,012
-357,839	277,418	-0,075	0,097
-356,825	800,000	-0,034	0,091
-355,810	69,114	0,166	-0,124
-354,796	-180,297	-0,025	-0,000
-353,781	376,043	0,054	-0,080
-352,766	16,530	-0,050	-0,028
-351,752	191,671	0,129	0,141
-350,737	364,573	-0,052	0,077
-349,723	718,605	-0,085	0,166
-348,708	22,403	0,051	0,030
-347,693	-4,372	-0,009	-0,004
-346,679	800,000	-0,073	-0,160
-345,664	800,000	0,038	-0,105
-344,650	140,633	0,030	-0,028
-343,635	-80,051	0,090	-0,022
-342,620	315,934	-0,081	0,112
-341,606	-200,000	0,013	0,058
-340,591	-98,897	-0,006	-0,001
-339,577	186,910	0,044	-0,047
-338,562	-200,000	-0,016	0,109
-337,548	63,643	-0,129	-0,094
-336,533	-200,000	0,023	0,167
-335,518	-121,540	0,171	-0,020
-334,504	653,037	-0,057	0,107
-333,489	135,741	0,049	0,046
-332,475	-103,233	-0,134	-0,023
-331,460	-125,233	-0,092	0,010
-330,445	-200,000	-0,032	-0,134
-329,431	-54,870	-0,077	0,025
-328,416	-181,573	0,146	0,002
-327,402	-200,000	-0,029	0,199
-326,387	448,256	-0,068	-0,109
-325,372	-114,862	0,018	0,002
-324,358	90,089	0,103	0,084
-323,343	-200,000	0,005	-0,056
-322,329	96,443	0,035	0,029
-321,314	-200,000	-0,011	0,096
-320,299	285,031	0,055	0,072
-319,285	-200,000	-0,031	0,231
-318,270	188,131	0,051	-0,055
-317,256	94,230	0,055	-0,045
-316,241	-108,387	0,071	0,011
-315,226	-17,166	0,075	0,034
-314,212	800,000	-0,023	-0,052
-313,197	-200,000	-0,032	0,134
-312,183	800,000	-0,029	0,081
-311,168	-200,000	0,052	-0,179
-310,153	164,784	0,008	-0,009
-309,139	106,618	0,076	0,066
-308,124	321,263	0,026	0,036
-307,110	-16,167	0,114	-0,053
-306,095	-200,000	-0,003	0,135
-305,080	-200,000	-0,009	0,101
-304,066	-94,658	0,062	-0,012
-303,051	-200,000	-0,021	-0,118
-302,037	-200,000	0,001	0,006
-301,022	285,211	0,074	-0,096
-300,008	13,106	0,039	0,022
-298,993	389,932	0,079	0,119
-297,978	-65,500	-0,031	-0,009
-296,964	-200,000	0,018	0,118
-295,949	800,000	0,023	-0,049
-294,935	-32,159	0,012	-0,005
-293,920	26,632	0,019	-0,011
-292,905	90,344	0,170	0,137
-291,891	800,000	-0,086	-0,185
-290,876	285,653	-0,039	0,051
-289,862	128,148	0,036	0,033
-288,847	-66,542	0,066	0,019
-287,832	-96,553	-0,123	0,023
-286,818	70,339	0,050	-0,038
-285,803	235,199	0,055	0,065
-284,789	31,144	0,095	-0,059
-283,774	147,216	-0,061	0,059
-282,759	11,812	-0,109	0,060
-281,745	-200,000	-0,030	0,108
-280,730	-200,000	0,001	-0,076
-279,716	-200,000	0,001	0,021
-278,701	-140,156	0,067	-0,005
-277,686	-71,473	0,088	-0,024
-276,672	56,101	0,102	-0,072
-275,657	800,000	0,028	0,084
-274,643	800,000	-0,034	-0,070
-273,628	-200,000	-0,026	-0,143
-272,613	177,985	0,031	-0,033
-271,599	-121,479	0,078	-0,009
-270,584	-75,177	0,092	-0,024
-269,570	70,040	0,139	-0,104
-268,555	-147,337	-0,101	0,006
-267,540	326,671	0,081	0,113
-266,526	483,148	0,071	-0,118
-265,511	-200,000	-0,001	0,070
-264,497	-15,592	-0,019	-0,009
-263,482	-91,496	0,164	-0,034
-262,467	-200,000	-0,039	0,000
-261,453	-5,778	0,069	-0,034
-260,438	-114,947	0,037	-0,005
-259,424	60,148	-0,054	0,039
-258,409	147,636	0,020	-0,019
-257,395	-200,000	0,017	-0,110
-256,380	800,000	0,017	0,044
-255,365	-200,000	-0,002	0,123
-254,351	-113,016	-0,182	0,026
-253,336	-200,000	-0,022	0,095
-252,322	332,623	-0,031	0,044
-251,307	-200,000	-0,003	0,023
-250,292	-200,000	0,040	-0,147
-249,278	800,000	0,035	0,100
-248,263	146,122	-0,110	0,107
-247,249	800,000	-0,027	0,064
-246,234	102,043	0,194	0,164
-245,219	509,356	0,037	0,063
-244,205	-200,000	-0,054	-0,194
-243,190	-200,000	0,012	0,049
-242,176	-22,921	-0,069	0,030
-241,161	153,659	-0,013	-0,013
-240,146	51,964	0,057	0,039
-239,132	65,937	-0,034	-0,025
-238,117	82,962	-0,107	0,084
-237,103	-44,902	0,119	-0,043
-236,088	106,709	-0,038	-0,033
-235,073	-34,961	0,214	-0,084
-234,059	204,103	-0,079	0,088
-233,044	-18,963	0,114	0,051
-232,030	201,496	-0,086	-0,096
-231,015	182,734	-0,134	-0,143
-230,000	-105,530	0,126	0,020
-228,986	-144,470	-0,114	-0,007
-227,971	-200,000	-0,004	-0,026
-226,957	77,383	0,110	0,084
-225,942	-200,000	0,016	0,071
-224,927	-95,111	-0,175	0,034
-223,913	-91,243	0,085	0,017
-222,898	-200,000	0,006	-0,074
-221,884	289,048	-0,087	-0,115
-220,869	119,836	0,042	-0,037
-219,855	93,473	-0,078	-0,063
-218,840	389,543	-0,022	0,033
-217,825	800,000	0,036	0,089
-216,811	-101,084	-0,079	-0,014
-215,796	-57,859	-0,212	-0,067
-214,782	800,000	-0,001	0,002
-213,767	800,000	-0,028	0,057
-212,752	-185,141	-0,053	-0,001
-211,738	-200,000	-0,039	0,197
-210,723	-200,000	0,021	0,120
-209,709	-200,000	-0,025	0,092
-208,694	301,799	-0,024	-0,032
-207,679	31,235	-0,036	0,022
-206,665	-118,455	-0,132	-0,017
-205,650	-105,812	0,053	-0,009
-204,636	-118,858	0,192	0,024
-203,621	-162,386	0,082	0,003
-202,606	328,711	-0,117	0,163
-201,592	275,635	-0,071	-0,091
-200,577	94,568	-0,096	-0,078
-199,563	153,865	0,016	-0,016
-198,548	-39,990	0,088	-0,033
-197,533	66,634	0,039	0,028
-196,519	-200,000	0,012	0,075
-195,504	-84,902	0,121	-0,027
-194,490	800,000	0,007	-0,022
-193,475	-96,117	-0,167	0,032
-192,460	-200,000	-0,019	0,084
-191,446	800,000	0,016	0,044
-190,431	16,333	0,079	-0,045
-189,417	-5,249	-0,171	-0,085
-188,402	800,000	0,031	0,097
-187,387	-200,000	-0,002	0,034
-186,373	-200,000	0,004	-0,030
-185,358	-162,166	0,054	0,002
-184,344	166,783	0,022	-0,022
-183,329	-200,000	0,003	-0,029
-182,315	193,899	-0,059	0,064
-181,300	800,000	0,035	0,111
-180,285	27,172	-0,053	0,032
-179,271	28,771	-0,052	-0,032
-178,256	349,472	0,016	0,023
-177,242	160,882	0,046	-0,047
-176,227	352,495	0,026	0,037
-175,212	-200,000	-0,014	-0,080
-174,198	238,150	-0,038	-0,045
-173,183	262,963	0,096	-0,121
-172,169	-200,000	-0,032	-0,160
-171,154	-120,800	0,045	-0,005
-170,139	-93,835	0,077	-0,015
-169,125	-54,971	-0,045	0,015
-168,110	-200,000	0,020	0,109
-167,096	4,474	0,022	0,011
-166,081	-200,000	0,013	0,047
-165,066	162,070	-0,117	-0,118
-164,052	208,114	-0,049	0,055
-163,037	-80,441	-0,034	0,008
-162,023	-95,770	0,053	-0,010
-161,008	216,733	-0,108	0,125
-159,993	584,023	-0,036	0,064
-158,979	800,000	0,030	-0,059
-157,964	-200,000	-0,054	-0,225
-156,950	176,682	-0,022	-0,023
-155,935	456,602	0,096	0,155
-154,920	49,466	0,101	-0,068
-153,906	110,522	-0,096	0,083
-152,891	-57,957	0,081	-0,025
-151,877	233,866	-0,062	-0,074
-150,862	550,430	-0,065	-0,114
-149,847	-49,443	-0,084	0,029
-148,833	800,000	0,052	0,106
-147,818	214,049	0,086	0,098
-146,804	-113,205	0,074	-0,010
-145,789	-133,986	-0,133	0,012
-144,775	-158,980	0,064	0,003
-143,760	-84,438	-0,099	0,022
-142,745	-31,036	-0,085	0,035
-141,731	800,000	0,016	-0,048
-140,716	250,789	0,108	-0,133
-139,702	101,074	-0,025	-0,021
-138,687	-168,754	-0,032	0,001
-137,672	-200,000	0,050	-0,221
-136,658	523,664	-0,069	-0,118
-135,643	-27,466	0,076	-0,032
-134,629	-200,000	-0,032	0,125
-133,614	-109,029	0,113	0,017
-132,599	93,322	0,110	-0,090
-131,585	800,000	0,035	0,108
-130,570	-200,000	-0,027	-0,116
-129,556	287,097	0,067	-0,088
-128,541	33,762	-0,026	-0,016
-127,526	800,000	0,053	-0,111
-126,512	72,684	0,070	0,053
-125,497	-117,283	-0,092	-0,012
-124,483	707,104	-0,080	0,153
-123,468	109,905	-0,107	-0,092
-122,453	64,190	-0,091	-0,066
-121,439	800,000	0,009	-0,025
-120,424	-19,400	0,107	-0,048
-119,410	-200,000	-0,002	-0,025
-118,395	800,000	-0,054	0,116
-117,380	-200,000	-0,002	-0,038
-116,366	800,000	-0,018	0,054
-115,351	-200,000	-0,021	-0,092
-114,337	78,649	-0,102	-0,079
-113,322	-200,000	-0,015	0,049
-112,307	-200,000	-0,025	0,139
-111,293	-200,000	-0,012	0,188
-110,278	-140,583	0,053	0,004
-109,264	-200,000	-0,026	-0,111
-108,249	221,481	0,015	-0,017
-107,234	45,583	0,098	0,065
-106,220	280,038	-0,118	-0,152
-105,205	16,317	0,024	-0,014
-104,191	257,997	0,009	0,011
-103,176	800,000	0,022	0,045
-102,162	-44,818	0,060	-0,021
-101,147	-200,000	-0,002	-0,113
-100,132	800,000	0,025	-0,051
-99,118	781,940	-0,023	-0,045
-98,103	300,940	-0,024	-0,032
-97,089	-36,111	0,124	-0,048
-96,074	353,398	0,036	0,052
-95,059	-60,457	-0,082	-0,025
-94,045	-136,780	0,070	0,006
-93,030	232,762	0,023	-0,028
-92,016	-74,798	-0,086	0,022
-91,001	82,241	-0,113	-0,088
-89,986	-200,000	0,004	0,023
-88,972	-200,000	0,020	0,116
-87,957	-200,000	0,036	-0,145
-86,943	23,438	0,026	-0,015
-85,928	-57,112	-0,141	-0,044
-84,913	-200,000	0,004	0,013
-83,899	-200,000	-0,013	-0,077
-82,884	-17,852	0,121	0,054
-81,870	313,290	0,064	0,087
-80,855	628,042	-0,052	0,094
-79,840	388,534	-0,037	0,055
-78,826	-200,000	-0,020	0,099
-77,811	5,967	0,064	0,034
-76,797	-108,429	-0,091	0,014
-75,782	98,193	0,115	-0,095
-74,767	62,856	-0,083	0,059
-73,753	225,447	0,028	0,032
-72,738	-141,695	-0,127	-0,009
-71,724	-200,000	0,001	-0,019
-70,709	-159,138	0,094	0,004
-69,694	36,811	0,060	0,038
-68,680	-11,340	0,087	-0,041
-67,665	73,654	-0,058	-0,044
-66,651	-157,206	0,067	0,003
-65,636	-200,000	0,005	-0,088
-64,622	800,000	0,062	-0,125
-63,607	-200,000	-0,144	0,000
-62,592	9,846	-0,143	0,078
-61,578	-171,218	0,045	0,001
-60,563	136,476	0,029	0,027
-59,549	51,837	-0,084	0,058
-58,534	93,071	-2,569	-2,084
-57,519	24,169	0,568	-0,336
-56,505	-200,000	-1,657	-5,484
-55,490	495,932	1,263	2,093
-54,476	800,000	5,203	11,129
-53,461	-200,000	22,189	346,747
-52,446	800,000	759,985	2291,644
-51,432	512,715	1645,155	2762,273
-50,417	96,930	1608,448	1322,849
-49,403	64,734	1265,268	915,060
-48,388	22,913	1017,092	596,999
-47,373	19,412	984,471	566,288
-46,359	12,832	971,671	537,387
-45,344	8,515	968,278	521,352
-44,330	9,057	966,120	521,944
-43,315	8,028	964,323	517,589
-42,300	7,949	963,559	516,901
-41,286	7,942	962,502	516,291
-40,271	7,956	961,513	515,785
-39,257	7,997	960,318	515,256
-38,242	7,944	959,415	514,580
-37,227	7,876	958,976	514,103
-36,213	7,917	958,043	513,716
-35,198	7,919	957,171	513,234
-34,184	7,987	956,380	513,010
-33,169	7,965	955,401	512,393
-32,154	7,992	954,463	511,957
-31,140	7,973	953,642	511,435
-30,125	7,994	952,981	511,129
-29,111	7,939	952,148	510,484
-28,096	7,952	951,593	510,209
-27,082	7,968	950,762	509,793
-26,067	7,894	950,200	509,233
-25,052	7,888	949,266	508,694
-24,038	7,899	948,600	508,353
-23,023	7,908	947,791	507,926
-22,009	7,861	947,448	507,572
-20,994	7,849	946,728	507,129
-19,979	7,938	946,079	507,047
-18,965	7,914	945,308	506,534
-17,950	7,914	944,879	506,287
-16,936	7,927	944,145	505,913
-15,921	7,910	943,424	505,452
-14,906	7,812	942,752	504,762
-13,892	7,851	942,179	504,558
-12,877	7,742	941,554	503,854
-11,863	7,772	940,797	503,526
-10,848	7,833	940,403	503,488
-9,833	7,881	940,056	503,438
-8,819	7,862	939,330	502,967
-7,804	7,843	938,586	502,488
-6,790	7,857	938,116	502,261
-5,775	7,863	937,458	501,909
-4,760	7,843	936,942	501,548
-3,746	7,862	936,163	501,170
-2,731	7,669	935,596	500,236
-1,717	7,647	934,937	499,796
-0,702	7,645	934,569	499,574
0,313	7,537	933,707	499,524
1,327	10,954	931,431	509,036
2,342	19,702	779,435	448,883
3,356	14,669	447,909	250,357
4,371	-11,499	312,405	146,797
5,386	-15,304	295,024	134,769
6,400	-17,349	288,965	129,962
7,415	-17,562	286,195	128,495
8,429	-18,426	284,567	126,910
9,444	-18,418	283,533	126,445
10,459	-18,341	282,980	126,262
11,473	-18,381	282,371	125,940
12,488	-18,131	281,792	125,913
13,502	-18,269	281,267	125,533
14,517	-18,212	280,983	125,451
15,531	-18,222	280,493	125,211
16,546	-18,359	280,253	124,961
17,561	-18,317	279,585	124,692
18,575	-18,174	279,348	124,712
19,590	-18,067	278,913	124,610
20,604	-18,058	278,627	124,479
21,619	-18,251	278,394	124,181
22,634	-18,140	277,984	124,091
23,648	-18,072	277,654	123,998
24,663	-18,164	277,376	123,775
25,677	-18,203	277,231	123,663
26,692	-18,036	276,874	123,650
27,707	-18,167	276,546	123,369
28,721	-18,081	276,405	123,377
29,736	-18,113	276,121	123,208
30,750	-18,088	275,864	123,107
31,765	-18,202	275,529	122,838
32,780	-18,157	275,380	122,804
33,794	-18,042	274,994	122,728
34,809	-18,039	274,686	122,583
35,823	-18,046	274,634	122,543
36,838	-18,001	274,305	122,427
37,853	-18,004	273,967	122,262
38,867	-18,102	273,703	122,042
39,882	-18,066	273,492	121,971
40,896	-18,117	273,193	121,778
41,911	-17,979	273,056	121,836
42,926	-18,184	272,735	121,490
43,940	-18,146	272,450	121,388
44,955	-17,973	272,176	121,417
45,969	-18,126	272,278	121,309
46,984	-17,989	271,882	121,248
47,999	-18,107	271,690	121,043
49,013	-17,937	271,385	121,053
50,028	-18,076	271,290	120,871
51,042	-17,939	271,004	120,860
52,057	-17,915	270,853	120,804
53,071	-17,996	270,701	120,650
54,086	-17,924	270,412	120,578
55,101	-18,063	270,133	120,314
56,115	-18,156	269,862	120,097
57,130	-17,968	269,543	120,117
58,144	-18,216	269,444	119,835
59,159	-18,121	268,981	119,705
60,174	-18,189	268,882	119,588
61,188	-18,168	268,887	119,599
62,203	-18,222	268,424	119,332
63,217	-17,872	268,309	119,592
64,232	-18,227	268,083	119,156
65,247	-18,058	267,744	119,148
66,261	-18,052	267,481	119,026
67,276	-18,184	267,269	118,801
68,290	-18,031	267,133	118,869
69,305	-18,039	266,978	118,782
70,320	-18,011	266,710	118,678
71,334	-18,057	266,493	118,529
72,349	-18,158	266,071	118,239
73,363	-17,870	265,722	118,334
74,378	-17,930	265,581	118,207
75,393	-18,009	265,410	118,049
76,407	-18,095	265,229	117,880
77,422	-17,921	264,940	117,898
78,436	-18,198	264,812	117,581
79,451	-17,881	264,487	117,711
80,466	-17,923	264,325	117,591
81,480	-17,981	264,116	117,435
82,495	-18,206	263,996	117,169
83,509	-17,834	263,653	117,341
84,524	-17,824	263,550	117,294
85,539	-17,972	263,323	117,049
86,553	-17,867	263,137	117,050
87,568	-17,869	262,896	116,931
88,582	-18,002	262,715	116,721
89,597	-18,097	262,432	116,500
90,611	-18,237	262,354	116,330
91,626	-18,003	262,149	116,437
92,641	-18,048	261,769	116,218
93,655	-18,068	261,638	116,131
94,670	-18,161	261,448	115,954
95,684	-17,959	261,278	116,048
96,699	-18,128	260,951	115,743
97,714	-18,131	260,835	115,678
98,728	-18,136	260,684	115,596
99,743	-17,938	260,417	115,644
100,757	-17,925	260,125	115,514
101,772	-17,948	260,003	115,430
102,787	-18,074	259,749	115,195
103,801	-17,963	259,554	115,197
104,816	-17,937	259,334	115,111
105,830	-18,028	259,228	114,975
106,845	-18,086	259,075	114,845
107,860	-17,939	258,693	114,795
108,874	-18,004	258,539	114,659
109,889	-17,934	258,301	114,605
110,903	-17,958	258,208	114,532
111,918	-17,894	257,878	114,431
112,933	-17,913	257,743	114,345
113,947	-17,908	257,622	114,285
114,962	-17,927	257,305	114,118
115,976	-17,947	257,207	114,047
116,991	-18,104	257,047	113,829
118,006	-17,940	256,950	113,919
119,020	-17,913	256,686	113,815
120,035	-17,966	256,508	113,679
121,049	-17,786	256,133	113,660
122,064	-17,845	255,973	113,528
123,079	-18,231	255,998	113,193
124,093	-18,137	255,666	113,118
125,108	-18,027	255,470	113,116
126,122	-17,940	255,307	113,109
127,137	-17,788	255,071	113,126
128,151	-17,821	254,819	112,975
129,166	-17,788	254,778	112,977
130,181	-17,931	254,448	112,696
131,195	-17,887	254,143	112,589
132,210	-17,802	254,019	112,597
133,224	-18,102	253,929	112,289
134,239	-17,870	253,592	112,330
135,254	-17,929	253,340	112,157
136,268	-17,910	253,248	112,123
137,283	-17,939	252,980	111,970
138,297	-17,874	252,844	111,955
139,312	-17,736	252,537	111,927
140,327	-17,953	252,582	111,752
141,341	-17,915	252,214	111,611
142,356	-17,918	252,124	111,559
143,370	-17,902	251,781	111,410
144,385	-18,001	251,706	111,283
145,400	-18,009	251,259	111,069
146,414	-17,993	251,198	111,046
147,429	-18,107	251,092	110,891
148,443	-18,049	250,908	110,849
149,458	-18,098	250,654	110,686
150,473	-18,041	250,661	110,727
151,487	-17,919	250,499	110,750
152,502	-17,877	250,256	110,668
153,516	-17,891	250,005	110,535
154,531	-17,946	249,784	110,381
155,546	-17,851	249,665	110,400
156,560	-17,728	249,308	110,335
157,575	-17,971	249,333	110,131
158,589	-17,710	248,915	110,157
159,604	-17,969	248,822	109,888
160,619	-17,924	248,689	109,857
161,633	-17,985	248,525	109,724
162,648	-18,004	248,365	109,627
163,662	-17,814	248,148	109,681
164,677	-17,726	248,021	109,689
165,692	-17,734	247,774	109,563
166,706	-17,991	247,673	109,294
167,721	-17,749	247,412	109,371
168,735	-17,939	247,341	109,171
169,750	-17,960	247,219	109,089
170,764	-17,724	246,918	109,145
171,779	-17,992	246,890	108,899
172,794	-17,793	246,740	108,989
173,808	-17,755	246,465	108,889
174,823	-17,686	246,340	108,882
175,837	-17,959	246,227	108,595
176,852	-17,788	245,904	108,585
177,867	-18,071	245,829	108,307
178,881	-17,877	245,629	108,371
179,896	-17,982	245,364	108,156
180,910	-17,850	245,307	108,231
181,925	-17,998	245,092	108,004
182,940	-17,879	244,972	108,040
183,954	-17,765	244,697	108,004
184,969	-17,793	244,522	107,893
185,983	-17,760	244,335	107,829
186,998	-17,849	244,260	107,712
188,013	-17,953	244,033	107,517
189,027	-17,942	243,983	107,494
190,042	-17,897	243,640	107,370
191,056	-17,931	243,629	107,328
192,071	-17,758	243,343	107,335
193,086	-17,907	243,132	107,110
194,100	-17,893	243,062	107,081
195,115	-17,828	242,766	106,994
196,129	-18,077	242,664	106,736
197,144	-17,965	242,419	106,710
198,159	-17,731	242,262	106,823
199,173	-18,073	242,237	106,523
200,188	-18,045	241,924	106,399
201,202	-17,951	241,729	106,380
202,217	-17,658	241,564	106,537
203,232	-17,632	241,324	106,442
204,246	-17,955	241,337	106,176
205,261	-18,009	241,089	106,013
206,275	-16,105	241,446	107,711
207,290	-11,366	243,247	112,387
208,304	-5,498	245,168	118,100
209,319	-3,353	245,606	120,067
210,334	-2,466	245,713	120,840
211,348	-1,813	245,659	121,340
212,363	-1,395	245,855	121,769
213,377	-0,745	245,800	122,266
214,392	-0,092	245,986	122,886
215,407	0,230	246,012	123,152
216,421	0,430	245,872	123,235
217,436	0,621	245,549	123,220
218,450	0,599	245,387	123,109
219,465	0,560	245,359	123,052
220,480	0,688	245,142	123,037
221,494	0,545	244,899	122,787
222,509	0,459	244,665	122,589
223,523	0,213	244,582	122,335
224,538	0,172	244,453	122,227
225,553	0,067	244,193	121,999
226,567	-0,000	243,948	121,811
227,582	0,089	243,952	121,875
228,596	0,174	243,855	121,885
229,611	0,159	243,629	121,749
230,626	0,147	243,546	121,687
231,640	0,105	243,129	121,434
232,655	0,041	243,043	121,328
233,669	0,055	242,996	121,305
234,684	0,032	242,782	121,169
235,699	0,155	242,455	121,094
236,713	0,092	242,448	121,029
237,728	0,037	242,269	120,884
238,742	-0,136	242,104	120,651
239,757	0,352	241,911	120,938
240,772	0,122	241,698	120,636
241,786	-0,055	241,766	120,516
242,801	0,082	241,453	120,459
243,815	0,009	241,393	120,361
244,830	0,061	241,175	120,283
245,844	-0,088	240,992	120,061
246,859	0,059	240,785	120,065
247,874	0,115	240,664	120,039
248,888	-0,050	240,660	119,894
249,903	0,095	240,477	119,909
250,917	0,125	240,407	119,887
251,932	0,320	240,079	119,869
252,947	0,200	239,856	119,651
253,961	0,207	239,785	119,610
254,976	0,070	239,731	119,463
255,990	0,171	239,346	119,341
257,005	0,090	239,247	119,217
258,020	0,253	239,122	119,273
259,034	0,253	238,923	119,164
260,049	0,240	238,824	119,093
261,063	0,181	238,651	118,949
262,078	-0,024	238,604	118,752
263,093	0,192	238,415	118,819
264,107	0,209	238,121	118,676
265,122	-0,224	238,123	118,323
266,136	0,215	237,966	118,582
267,151	0,097	237,654	118,323
268,166	0,098	237,591	118,282
269,180	0,018	237,471	118,148
270,195	0,199	237,300	118,195
271,209	0,137	237,107	118,040
272,224	0,215	236,897	117,986
273,239	-0,054	236,903	117,767
274,253	0,272	236,658	117,891
275,268	-0,114	236,675	117,585
276,282	0,161	236,434	117,671
277,297	0,088	236,164	117,469
278,312	0,075	235,911	117,322
279,326	-0,013	236,062	117,318
280,341	-0,035	235,977	117,248
281,355	0,309	235,532	117,286
282,370	0,367	235,429	117,270
283,384	0,303	235,262	117,126
284,399	0,126	235,064	116,879
285,414	-0,036	235,042	116,731
286,428	0,064	234,987	116,771
287,443	0,181	234,787	116,752
288,457	0,537	234,558	116,906
289,472	0,170	234,529	116,595
290,487	0,345	234,317	116,615
291,501	0,213	234,048	116,369
292,516	0,174	234,093	116,350
293,530	0,349	233,838	116,349
294,545	0,383	233,714	116,303
295,560	0,323	233,586	116,183
296,574	0,274	233,469	116,076
297,589	0,298	233,289	115,995
298,603	0,216	233,052	115,803
299,618	0,418	232,964	115,905
300,633	0,326	232,870	115,777
301,647	0,241	232,730	115,632
302,662	0,471	232,523	115,696
303,676	0,512	232,351	115,632
304,691	0,564	232,214	115,593
305,706	0,412	232,068	115,393
306,720	0,573	231,855	115,401
307,735	0,387	231,868	115,253
308,749	0,426	231,663	115,171
309,764	0,541	231,523	115,180
310,779	0,530	231,474	115,137
311,793	0,576	231,156	115,003
312,808	0,322	231,081	114,761
313,822	0,569	230,780	114,791
314,837	0,460	230,835	114,725
315,852	0,370	230,652	114,555
316,866	0,317	230,661	114,508
317,881	0,615	230,274	114,533
318,895	0,400	230,099	114,272
319,910	0,265	230,056	114,137
320,925	0,577	229,821	114,248
321,939	0,294	229,898	114,061
322,954	0,456	229,629	114,041
323,968	0,628	229,553	114,123
324,983	0,470	229,398	113,916
325,997	0,468	229,269	113,840
327,012	0,424	228,972	113,649
328,027	0,374	228,849	113,540
329,041	0,460	228,772	113,557
330,056	0,310	228,630	113,363
331,070	0,598	228,431	113,471
332,085	0,612	228,153	113,334
333,100	0,531	228,146	113,259
334,114	0,384	228,010	113,071
335,129	0,300	227,747	112,867
336,143	0,514	227,699	112,995
337,158	0,651	227,714	113,095
338,173	0,416	227,552	112,828
339,187	0,595	227,227	112,791
340,202	0,462	227,118	112,627
341,216	0,687	226,918	112,687
342,231	0,638	226,868	112,615
343,246	0,613	226,763	112,534
344,260	0,612	226,638	112,461
345,275	0,632	226,619	112,457
346,289	0,843	226,222	112,407
347,304	0,807	226,025	112,273
348,319	0,801	226,023	112,257
349,333	0,823	225,838	112,171
350,348	0,782	225,701	112,063
351,362	0,847	225,543	112,023
352,377	0,715	225,429	111,858
353,392	0,827	225,237	111,836
354,406	0,683	225,172	111,687
355,421	192,239	1312,550	1378,592
356,435	153,978	1444,875	1378,424
