DTS Sentinel unit serial number:	SN410029Multiplexer serial number:	ORYXHardware model number:	OX2-SRSoftware version number:	ORYX F/W v4,00 Oryx Data Collector v3.7.2.0data status	okinstallation	B5 Nyhavnadifferential loss correction	single-endedforward channel	channel 2reverse channel	N/Adate	2023/12/12time	08:42:13forward acquisition time	300,00reverse acquisition time	0,00gamma	499,1914k internal	0,3158k external	0,3158temperature offset calibration	1,0000default loss term (dB/km)	0,3820temperature slope calibration	1,0000multiplexer offset coefficient	1,0000multiplexer slope coefficient	1,0000fibre end	0,00T internal ref (°C)	15,06T ext. ref 1 (°C)	-1,29T ext. ref 2 (°C)	-1,59length (m)	temperature (°C)	Stokes	anti-Stokes-744,400	170,396	-0,011	-0,011
-743,385	-141,046	-0,285	0,021
-742,371	-30,698	0,059	-0,025
-741,356	-82,069	-0,301	0,072
-740,342	-149,833	0,037	-0,002
-739,327	-60,332	-0,231	0,072
-738,312	32,199	0,122	0,078
-737,298	-200,000	-0,387	0,001
-736,283	-200,000	0,004	0,117
-735,269	-148,475	-0,279	0,017
-734,254	15,268	0,186	-0,107
-733,239	-22,423	-0,489	-0,217
-732,225	-200,000	0,002	0,044
-731,210	203,103	-0,006	0,007
-730,196	173,007	-0,089	0,094
-729,181	-200,000	0,041	0,000
-728,167	-52,634	-0,122	-0,041
-727,152	453,279	0,069	-0,113
-726,137	-200,000	-0,059	-0,000
-725,123	-17,183	-0,094	-0,044
-724,108	-131,375	-0,161	0,015
-723,094	-200,000	-0,021	-0,123
-722,079	271,771	-0,086	-0,111
-721,064	157,302	-0,024	-0,024
-720,050	68,726	0,044	0,034
-719,035	-71,904	-0,142	0,039
-718,021	-200,000	-0,015	0,076
-717,006	57,894	-0,077	-0,055
-715,991	106,925	0,025	-0,022
-714,977	-5,872	-0,069	0,035
-713,962	-200,000	0,003	0,045
-712,948	-200,000	-0,019	0,087
-711,933	39,147	-0,083	0,055
-710,918	-39,439	-0,100	-0,038
-709,904	432,505	-0,073	0,117
-708,889	783,115	-0,038	-0,077
-707,875	104,828	-0,051	-0,044
-706,860	118,992	0,078	-0,071
-705,845	-119,417	0,047	-0,006
-704,831	-134,550	0,092	0,008
-703,816	-161,303	-0,016	0,001
-702,802	592,909	-0,041	-0,076
-701,787	382,301	-0,115	-0,175
-700,772	-54,006	-0,075	0,025
-699,758	305,393	0,061	0,083
-698,743	339,552	0,041	0,059
-697,729	-200,000	0,008	-0,047
-696,714	800,000	0,029	-0,068
-695,699	30,594	-0,059	0,037
-694,685	81,320	-0,039	0,031
-693,670	-200,000	-0,017	-0,084
-692,656	-200,000	-0,024	-0,114
-691,641	-200,000	-0,003	-0,058
-690,627	566,387	0,034	0,061
-689,612	127,964	0,079	-0,073
-688,597	-131,167	0,064	0,006
-687,583	-40,785	-0,179	-0,068
-686,568	800,000	-0,042	-0,120
-685,554	800,000	-0,031	-0,079
-684,539	167,625	0,080	-0,084
-683,524	-200,000	0,007	0,031
-682,510	36,185	-0,052	0,033
-681,495	-175,139	0,041	-0,001
-680,481	-142,879	-0,055	0,004
-679,466	-200,000	-0,017	-0,080
-678,451	139,915	0,030	-0,029
-677,437	-200,000	-0,026	0,186
-676,422	132,952	-0,077	-0,073
-675,408	32,986	-0,088	0,056
-674,393	-5,616	-0,067	0,033
-673,378	263,039	-0,062	0,079
-672,364	26,383	-0,021	-0,013
-671,349	60,519	-0,052	-0,038
-670,335	-200,000	-0,014	-0,067
-669,320	200,099	-0,043	-0,048
-668,305	520,066	0,009	-0,015
-667,291	132,783	-0,043	0,041
-666,276	-0,188	-0,182	-0,095
-665,262	-200,000	-0,009	-0,124
-664,247	249,400	-0,075	0,093
-663,232	-148,198	-0,061	0,004
-662,218	152,577	0,036	-0,036
-661,203	248,679	-0,043	0,054
-660,189	-200,000	0,002	-0,032
-659,174	200,661	-0,049	0,055
-658,159	800,000	-0,008	-0,022
-657,145	-9,141	-0,152	-0,074
-656,130	-190,531	-0,092	0,001
-655,116	-29,277	-0,086	0,036
-654,101	704,634	-0,005	0,010
-653,086	-72,772	0,048	-0,013
-652,072	293,192	-0,004	-0,005
-651,057	-70,053	-0,114	-0,032
-650,043	-75,404	-0,098	-0,026
-649,028	-200,000	-0,008	-0,081
-648,014	108,560	-0,051	0,045
-646,999	-22,986	0,146	0,065
-645,984	-113,921	-0,119	-0,017
-644,970	-85,636	-0,145	0,033
-643,955	91,509	-0,050	-0,042
-642,941	-145,350	-0,138	0,009
-641,926	-200,000	0,001	-0,134
-640,911	-200,000	0,053	0,182
-639,897	5,732	-0,140	0,076
-638,882	-200,000	-0,007	0,089
-637,868	787,629	0,003	-0,005
-636,853	708,955	-0,098	-0,191
-635,838	-29,164	0,119	-0,050
-634,824	116,298	0,042	0,037
-633,809	-35,255	-0,016	-0,007
-632,795	71,169	0,097	0,074
-631,780	-0,218	-0,005	0,003
-630,765	-200,000	-0,015	-0,077
-629,751	126,016	0,161	-0,150
-628,736	-115,623	-0,252	0,034
-627,722	636,999	0,052	-0,097
-626,707	-35,067	-0,142	-0,057
-625,692	800,000	-0,038	0,118
-624,678	-92,577	0,106	0,022
-623,663	327,651	-0,048	-0,068
-622,649	577,384	-0,037	-0,066
-621,634	-200,000	0,011	-0,095
-620,619	30,147	-0,079	-0,050
-619,605	10,433	-0,064	-0,036
-618,590	159,948	0,119	0,121
-617,576	-72,169	0,063	-0,017
-616,561	800,000	0,022	0,049
-615,546	105,612	0,068	-0,059
-614,532	97,929	-0,020	-0,017
-613,517	-200,000	0,028	-0,152
-612,503	-148,982	0,098	-0,006
-611,488	-57,317	-0,008	-0,002
-610,474	-200,000	0,033	0,136
-609,459	-200,000	-0,008	-0,153
-608,444	-33,357	-0,021	0,009
-607,430	-200,000	-0,018	-0,145
-606,415	123,442	0,049	-0,045
-605,401	800,000	-0,053	0,112
-604,386	6,765	-0,143	0,078
-603,371	79,455	0,077	-0,061
-602,357	234,229	0,072	-0,087
-601,342	41,175	-0,122	-0,080
-600,328	-200,000	0,008	0,038
-599,313	0,332	0,122	-0,064
-598,298	37,757	0,038	0,025
-597,284	-12,685	0,109	0,052
-596,269	230,735	0,054	-0,065
-595,255	231,044	-0,050	-0,060
-594,240	122,808	-0,070	0,064
-593,225	-200,000	-0,010	-0,043
-592,211	-108,490	0,130	0,020
-591,196	-200,000	0,010	-0,190
-590,182	425,723	-0,062	-0,098
-589,167	-22,587	-0,052	0,023
-588,152	-200,000	0,001	0,083
-587,138	-76,585	0,035	-0,009
-586,123	-200,000	0,024	0,088
-585,109	800,000	-0,034	0,096
-584,094	-68,898	0,053	0,015
-583,079	-200,000	0,001	0,039
-582,065	-96,712	0,137	0,026
-581,050	76,975	0,022	0,017
-580,036	167,043	-0,073	-0,076
-579,021	-14,429	-0,048	0,023
-578,006	-200,000	0,020	-0,130
-576,992	-102,005	-0,126	0,022
-575,977	-110,109	0,100	-0,015
-574,963	-200,000	-0,010	0,034
-573,948	-200,000	0,014	0,059
-572,934	7,431	-0,073	-0,040
-571,919	800,000	-0,050	-0,136
-570,904	37,088	-0,054	-0,035
-569,890	-200,000	-0,004	0,044
-568,875	261,702	-0,024	0,030
-567,861	-200,000	-0,021	0,151
-566,846	800,000	-0,019	-0,050
-565,831	-70,262	0,073	-0,020
-564,817	800,000	-0,032	-0,071
-563,802	-14,614	-0,059	0,027
-562,788	-200,000	0,024	-0,082
-561,773	-200,000	0,005	0,127
-560,758	-130,975	0,058	0,006
-559,744	-200,000	0,022	0,151
-558,729	-200,000	0,018	0,085
-557,715	0,253	-0,053	-0,027
-556,700	330,116	-0,066	-0,093
-555,685	-200,000	0,021	0,077
-554,671	800,000	0,034	-0,087
-553,656	191,436	-0,014	-0,016
-552,642	-111,577	0,069	0,010
-551,627	165,409	-0,036	-0,037
-550,612	800,000	-0,020	0,050
-549,598	400,867	0,059	-0,092
-548,583	394,478	-0,116	-0,178
-547,569	-85,526	-0,159	-0,036
-546,554	80,015	0,108	0,085
-545,539	-94,084	-0,063	0,013
-544,525	52,710	-0,012	0,008
-543,510	-13,705	-0,139	0,065
-542,496	579,875	0,038	0,069
-541,481	-86,816	-0,090	0,020
-540,466	-120,404	0,111	0,014
-539,452	-32,007	0,050	-0,020
-538,437	-140,928	-0,090	-0,007
-537,423	-99,190	-0,143	-0,026
-536,408	82,100	-0,049	0,039
-535,393	148,714	0,075	-0,074
-534,379	231,168	-0,176	-0,211
-533,364	91,083	-0,057	-0,047
-532,350	-200,000	0,007	0,163
-531,335	137,399	-0,127	0,121
-530,321	800,000	0,007	0,015
-529,306	95,181	0,057	0,048
-528,291	3,499	-0,047	0,025
-527,277	51,376	-0,067	-0,047
-526,262	-169,466	-0,117	-0,003
-525,248	-96,149	0,160	-0,031
-524,233	-200,000	0,007	-0,033
-523,218	110,641	0,054	-0,048
-522,204	55,970	-0,140	0,099
-521,189	-163,182	-0,064	0,002
-520,175	800,000	-0,053	0,139
-519,160	45,276	-0,039	0,026
-518,145	45,852	0,101	0,068
-517,131	-23,007	-0,018	0,008
-516,116	175,846	-0,106	0,113
-515,102	-120,177	0,071	-0,009
-514,087	122,675	-0,114	-0,104
-513,072	-140,501	-0,079	-0,006
-512,058	89,649	0,082	-0,067
-511,043	-200,000	-0,010	-0,048
-510,029	-145,365	0,144	0,009
-509,014	-85,007	-0,058	-0,013
-507,999	-200,000	0,060	-0,207
-506,985	92,873	0,074	-0,061
-505,970	800,000	-0,063	-0,160
-504,956	800,000	0,033	-0,101
-503,941	52,104	-0,109	0,075
-502,926	75,895	0,028	0,022
-501,912	148,887	0,149	0,147
-500,897	-118,680	0,085	-0,011
-499,883	800,000	-0,014	-0,035
-498,868	292,159	-0,044	-0,059
-497,853	-32,023	0,110	-0,045
-496,839	800,000	-0,011	0,031
-495,824	139,536	0,049	0,047
-494,810	-200,000	0,003	-0,018
-493,795	-26,351	0,049	-0,021
-492,781	-200,000	-0,043	-0,157
-491,766	249,030	0,036	0,045
-490,751	800,000	-0,053	-0,132
-489,737	343,693	-0,038	-0,054
-488,722	139,293	-0,158	0,152
-487,708	-48,818	0,062	-0,021
-486,693	231,302	0,037	-0,045
-485,678	-140,219	0,108	0,008
-484,664	66,047	-0,023	-0,017
-483,649	800,000	0,017	-0,049
-482,635	28,907	0,029	0,018
-481,620	73,596	0,121	0,092
-480,605	-139,856	0,093	0,007
-479,591	78,405	0,049	0,038
-478,576	644,178	-0,048	-0,090
-477,562	26,149	0,074	-0,045
-476,547	103,908	-0,052	0,044
-475,532	71,992	0,017	0,013
-474,518	-43,874	0,181	-0,066
-473,503	83,560	0,067	0,053
-472,489	800,000	0,016	-0,042
-471,474	10,163	0,167	0,092
-470,459	-41,524	-0,089	0,033
-469,445	800,000	-0,036	-0,104
-468,430	-14,707	0,051	0,024
-467,416	800,000	0,059	-0,139
-466,401	483,472	0,023	-0,039
-465,386	-115,517	-0,140	-0,019
-464,372	152,188	-0,060	0,060
-463,357	-113,357	0,077	0,011
-462,343	266,771	0,029	-0,037
-461,328	800,000	-0,065	0,186
-460,313	-98,460	-0,042	0,008
-459,299	212,677	-0,139	0,160
-458,284	-200,000	0,004	-0,014
-457,270	-137,112	0,010	-0,001
-456,255	-200,000	-0,006	0,022
-455,241	12,913	0,114	-0,064
-454,226	-117,589	-0,083	-0,011
-453,211	-200,000	0,001	0,039
-452,197	30,392	0,087	-0,054
-451,182	130,525	0,098	0,092
-450,168	637,426	0,066	0,123
-449,153	519,267	0,057	-0,097
-448,138	278,561	-0,098	0,127
-447,124	-137,554	0,061	-0,005
-446,109	240,510	-0,090	0,110
-445,095	59,802	0,037	0,027
-444,080	-34,147	0,127	-0,051
-443,065	-149,305	-0,103	-0,006
-442,051	264,488	-0,045	-0,058
-441,036	-142,249	0,080	0,006
-440,022	800,000	0,021	0,050
-439,007	-200,000	0,007	0,062
-437,992	3,228	-0,061	-0,032
-436,978	-200,000	-0,018	0,115
-435,963	-125,984	-0,034	0,004
-434,949	-71,328	-0,056	-0,015
-433,934	-200,000	-0,023	-0,098
-432,919	6,301	0,096	0,052
-431,905	-200,000	-0,004	0,041
-430,890	7,176	-0,057	0,031
-429,876	-200,000	0,021	0,133
-428,861	20,481	-0,111	0,065
-427,846	460,596	-0,081	-0,132
-426,832	800,000	-0,012	0,036
-425,817	-200,000	0,002	0,029
-424,803	500,645	-0,056	0,095
-423,788	-124,122	0,253	0,029
-422,773	-200,000	-0,008	0,091
-421,759	111,615	0,064	-0,056
-420,744	-106,411	0,112	-0,018
-419,730	-116,837	-0,045	0,006
-418,715	525,316	-0,060	0,103
-417,701	185,377	-0,081	-0,088
-416,686	529,422	0,055	-0,095
-415,671	-200,000	0,032	0,103
-414,657	-74,525	-0,071	0,018
-413,642	-97,352	-0,068	0,013
-412,628	313,133	0,045	-0,062
-411,613	800,000	-0,036	-0,084
-410,598	-200,000	-0,006	0,101
-409,584	535,025	0,063	0,110
-408,569	-200,000	-0,003	0,172
-407,555	-200,000	-0,004	-0,014
-406,540	-197,710	-0,137	-0,001
-405,525	-200,000	-0,013	0,047
-404,511	-200,000	-0,016	0,195
-403,496	-174,323	-0,092	-0,002
-402,482	38,872	0,075	-0,049
-401,467	210,778	0,039	0,045
-400,452	-114,969	0,093	0,013
-399,438	441,432	-0,042	-0,068
-398,423	-200,000	-0,139	0,000
-397,409	29,235	0,041	0,025
-396,394	-122,476	-0,086	0,010
-395,379	800,000	0,031	-0,097
-394,365	-200,000	-0,008	-0,130
-393,350	-85,722	0,237	0,053
-392,336	-133,334	-0,095	0,009
-391,321	-62,741	-0,066	-0,020
-390,306	11,611	-0,060	0,033
-389,292	182,602	0,080	-0,085
-388,277	-200,000	0,001	-0,008
-387,263	-112,225	-0,080	-0,012
-386,248	200,445	0,043	-0,048
-385,233	622,890	-0,021	0,038
-384,219	231,181	0,044	-0,052
-383,204	800,000	0,003	0,006
-382,190	800,000	0,024	-0,073
-381,175	41,709	0,121	0,080
-380,160	-13,119	0,070	0,033
-379,146	-200,000	-0,014	0,100
-378,131	191,036	0,102	-0,112
-377,117	20,993	-0,068	0,040
-376,102	-47,361	0,056	-0,020
-375,088	367,864	-0,055	-0,081
-374,073	-131,430	-0,015	-0,001
-373,058	126,503	0,071	-0,065
-372,044	-13,601	0,012	0,006
-371,029	146,350	0,057	0,056
-370,015	-16,050	-0,102	-0,047
-369,000	-200,000	-0,001	0,009
-367,985	466,356	-0,048	-0,079
-366,971	-200,000	0,011	-0,090
-365,956	-122,390	0,114	0,013
-364,942	800,000	-0,016	0,034
-363,927	-123,836	-0,026	0,003
-362,912	-200,000	0,026	-0,084
-361,898	119,019	-0,046	0,041
-360,883	409,341	-0,028	0,043
-359,869	117,396	-0,163	-0,146
-358,854	-18,117	0,096	0,044
-357,839	-30,090	-0,083	-0,034
-356,825	800,000	-0,027	0,063
-355,810	-200,000	0,025	0,093
-354,796	-25,631	0,115	-0,049
-353,781	765,549	0,034	-0,067
-352,766	800,000	-0,112	-0,234
-351,752	-74,636	0,162	-0,042
-350,737	800,000	0,056	0,132
-349,723	800,000	0,024	-0,071
-348,708	32,006	0,082	0,051
-347,693	267,822	-0,094	-0,120
-346,679	177,748	0,090	-0,095
-345,664	800,000	-0,007	-0,022
-344,650	-116,481	0,128	-0,017
-343,635	800,000	-0,038	0,104
-342,620	-29,623	-0,077	-0,032
-341,606	103,226	-0,076	0,064
-340,591	232,894	-0,054	0,065
-339,577	-45,453	-0,025	-0,009
-338,562	800,000	0,036	0,088
-337,548	-200,000	-0,019	0,069
-336,533	-200,000	-0,002	0,079
-335,518	236,397	0,077	0,093
-334,504	60,272	-0,025	-0,018
-333,489	800,000	-0,013	-0,030
-332,475	220,442	-0,087	-0,101
-331,460	-21,532	-0,139	-0,061
-330,445	368,507	0,050	0,073
-329,431	-90,667	0,012	-0,003
-328,416	800,000	-0,017	-0,052
-327,402	800,000	-0,025	0,061
-326,387	205,208	0,035	0,039
-325,372	-27,207	0,095	0,040
-324,358	-200,000	-0,012	-0,101
-323,343	-89,834	0,012	0,003
-322,329	46,246	0,027	-0,018
-321,314	15,971	-0,124	0,071
-320,299	-200,000	0,005	0,034
-319,285	-48,068	0,077	-0,027
-318,270	-200,000	-0,051	-0,167
-317,256	-200,000	0,018	0,101
-316,241	-72,684	-0,056	-0,015
-315,226	-47,246	0,079	-0,028
-314,212	-200,000	-0,066	0,216
-313,197	-42,390	0,066	0,024
-312,183	490,704	0,029	0,048
-311,168	-77,190	0,090	-0,023
-310,153	-27,927	-0,107	-0,045
-309,139	101,587	-0,118	-0,100
-308,124	356,226	0,047	-0,068
-307,110	-65,370	-0,106	0,031
-306,095	26,262	-0,026	0,016
-305,080	-168,791	-0,058	-0,002
-304,066	-84,619	0,075	0,017
-303,051	-200,000	0,026	-0,142
-302,037	-49,409	-0,246	-0,084
-301,022	73,007	-0,040	-0,030
-300,008	-135,218	0,129	0,011
-298,993	-23,063	0,088	0,038
-297,978	-200,000	-0,005	0,027
-296,964	361,164	0,023	0,034
-295,949	165,387	-0,086	0,088
-294,935	-200,000	-0,012	-0,039
-293,920	202,582	-0,019	0,021
-292,905	369,144	0,011	-0,016
-291,891	-120,153	0,106	0,013
-290,876	9,632	-0,075	0,041
-289,862	5,961	-0,190	0,101
-288,847	244,351	0,015	-0,018
-287,832	-88,866	-0,059	-0,013
-286,818	-149,468	0,171	0,010
-285,803	-96,864	0,066	0,012
-284,789	116,472	0,046	0,041
-283,774	158,467	0,063	-0,063
-282,759	31,378	0,070	0,043
-281,745	15,876	-0,118	-0,067
-280,730	562,559	0,078	0,137
-279,716	65,583	-0,071	0,052
-278,701	-200,000	-0,011	0,063
-277,686	-200,000	-0,031	-0,145
-276,672	29,817	0,052	0,032
-275,657	-38,220	0,057	0,022
-274,643	3,125	-0,009	0,005
-273,628	800,000	0,073	-0,194
-272,613	564,758	-0,067	-0,118
-271,599	-48,926	0,085	-0,029
-270,584	89,507	0,097	-0,078
-269,570	-33,791	0,078	0,031
-268,555	-40,414	-0,107	0,040
-267,540	-200,000	-0,007	0,117
-266,526	800,000	0,020	-0,043
-265,511	-200,000	0,012	-0,073
-264,497	-10,122	-0,087	0,042
-263,482	-11,436	-0,078	0,037
-262,467	800,000	0,047	0,133
-261,453	-91,289	0,149	0,031
-260,438	-200,000	-0,002	0,020
-259,424	800,000	0,047	-0,100
-258,409	-200,000	0,006	-0,085
-257,395	-200,000	0,030	-0,105
-256,380	800,000	0,063	0,141
-255,365	178,988	0,050	-0,053
-254,351	-200,000	-0,029	0,176
-253,336	-71,053	-0,057	0,015
-252,322	-200,000	-0,051	-0,233
-251,307	-200,000	0,002	-0,143
-250,292	-200,000	-0,016	0,107
-249,278	56,094	0,032	0,022
-248,263	-200,000	0,026	0,095
-247,249	800,000	0,017	-0,045
-246,234	125,901	0,057	0,052
-245,219	800,000	0,029	-0,083
-244,205	32,848	-0,078	0,048
-243,190	566,885	-0,049	0,087
-242,176	-200,000	0,014	0,097
-241,161	175,339	0,069	0,073
-240,146	459,870	-0,060	0,097
-239,132	585,556	0,026	0,047
-238,117	101,912	-0,052	0,044
-237,103	25,522	-0,070	0,042
-236,088	233,207	0,082	0,097
-235,073	7,778	-0,125	0,067
-234,059	-200,000	-0,004	0,193
-233,044	-83,617	0,167	0,038
-232,030	53,224	0,109	-0,075
-231,015	-20,884	-0,146	-0,064
-230,000	800,000	0,037	-0,100
-228,986	800,000	0,023	0,047
-227,971	-64,144	0,065	0,019
-226,957	-200,000	0,030	0,171
-225,942	800,000	0,016	-0,039
-224,927	800,000	-0,054	0,125
-223,913	800,000	0,044	-0,101
-222,898	-200,000	-0,001	-0,059
-221,884	-99,416	0,049	-0,009
-220,869	800,000	-0,013	0,029
-219,855	322,164	0,062	0,086
-218,840	137,125	0,017	-0,016
-217,825	49,283	0,065	-0,044
-216,811	800,000	-0,031	-0,094
-215,796	-60,384	0,085	0,026
-214,782	204,162	0,046	-0,052
-213,767	-139,360	-0,100	-0,008
-212,752	7,358	0,054	-0,029
-211,738	-139,108	0,022	-0,002
-210,723	800,000	-0,037	-0,075
-209,709	185,412	0,057	-0,061
-208,694	-120,569	-0,170	0,021
-207,679	-200,000	-0,024	0,079
-206,665	-150,545	0,090	0,005
-205,650	-200,000	-0,013	0,100
-204,636	-200,000	0,002	-0,053
-203,621	90,323	0,071	-0,057
-202,606	239,756	-0,037	-0,044
-201,592	800,000	-0,031	-0,077
-200,577	-10,619	0,023	-0,011
-199,563	493,619	-0,059	0,099
-198,548	800,000	-0,048	0,122
-197,533	800,000	0,042	0,129
-196,519	800,000	-0,058	0,137
-195,504	14,015	0,032	0,018
-194,490	-62,547	-0,094	0,028
-193,475	-137,339	-0,105	-0,008
-192,460	519,913	0,040	0,068
-191,446	-90,258	-0,087	0,018
-190,431	35,089	-0,083	-0,053
-189,417	800,000	-0,058	0,179
-188,402	333,751	0,018	0,025
-187,387	251,602	-0,039	0,048
-186,373	488,188	0,058	0,095
-185,358	80,644	-0,074	0,058
-184,344	244,098	0,058	0,070
-183,329	238,212	0,042	-0,050
-182,315	-52,966	0,092	-0,030
-181,300	800,000	0,032	-0,082
-180,285	236,867	-0,088	-0,105
-179,271	-200,000	0,000	0,052
-178,256	-200,000	0,000	-0,048
-177,242	34,342	0,126	0,079
-176,227	179,548	0,031	0,033
-175,212	-200,000	0,028	0,095
-174,198	800,000	0,018	-0,036
-173,183	124,252	-0,106	-0,096
-172,169	29,752	-0,087	-0,054
-171,154	-200,000	0,010	0,037
-170,139	-200,000	-0,022	-0,108
-169,125	-200,000	-0,012	-0,107
-168,110	-158,337	0,164	0,007
-167,096	24,726	-0,129	-0,077
-166,081	655,852	0,048	0,088
-165,066	-200,000	-0,060	-0,209
-164,052	-83,686	0,097	-0,022
-163,037	-200,000	0,032	-0,130
-162,023	-200,000	0,013	-0,043
-161,008	560,440	0,028	-0,048
-159,993	-200,000	0,002	-0,043
-158,979	160,193	-0,047	-0,047
-157,964	-75,158	0,090	-0,023
-156,950	306,334	0,104	0,140
-155,935	67,744	0,082	0,060
-154,920	85,786	-0,176	-0,139
-153,906	-200,000	-0,020	0,070
-152,891	800,000	-0,052	-0,123
-151,877	-28,636	0,045	0,019
-150,862	-200,000	-0,020	0,108
-149,847	800,000	-0,054	-0,170
-148,833	-200,000	0,018	-0,088
-147,818	-200,000	0,004	0,043
-146,804	605,234	0,040	-0,072
-145,789	526,676	0,043	-0,073
-144,775	176,119	-0,052	-0,054
-143,760	-52,529	-0,066	-0,022
-142,745	-21,822	-0,160	-0,070
-141,731	155,407	0,063	-0,062
-140,716	-108,069	0,107	0,016
-139,702	175,352	-0,011	-0,012
-138,687	800,000	-0,026	0,054
-137,672	-43,580	-0,056	0,020
-136,658	800,000	0,105	0,259
-135,643	-108,130	0,101	-0,016
-134,629	-44,227	-0,040	-0,014
-133,614	360,834	0,097	0,140
-132,599	-200,000	0,013	0,167
-131,585	-11,783	0,144	0,068
-130,570	94,614	-0,085	-0,069
-129,556	191,007	0,077	0,084
-128,541	-177,994	-0,061	-0,001
-127,526	-64,349	-0,052	-0,015
-126,512	261,172	-0,057	0,071
-125,497	-1,962	0,061	0,031
-124,483	-96,691	0,019	-0,004
-123,468	800,000	-0,047	-0,128
-122,453	153,726	0,028	-0,028
-121,439	-135,618	0,056	-0,005
-120,424	-200,000	0,008	-0,089
-119,410	800,000	0,011	0,027
-118,395	483,678	-0,031	0,051
-117,380	91,438	0,052	-0,042
-116,366	513,838	-0,057	0,096
-115,351	800,000	0,011	0,030
-114,337	800,000	-0,012	-0,030
-113,322	-132,894	-0,027	-0,002
-112,307	-12,641	-0,235	0,110
-111,293	480,600	0,116	0,190
-110,278	275,725	0,056	0,072
-109,264	-109,070	0,089	0,014
-108,249	212,824	-0,061	0,069
-107,234	286,859	0,036	-0,047
-106,220	4,189	-0,106	0,056
-105,205	170,732	-0,051	-0,052
-104,191	124,384	0,075	0,068
-103,176	142,947	0,136	0,130
-102,162	800,000	-0,026	0,059
-101,147	33,375	0,024	0,015
-100,132	-74,449	0,030	0,008
-99,118	22,861	-0,100	0,059
-98,103	289,262	-0,074	-0,097
-97,089	-200,000	-0,023	-0,083
-96,074	800,000	-0,026	-0,055
-95,059	-186,245	-0,069	0,001
-94,045	800,000	0,025	0,059
-93,030	-167,823	0,021	-0,001
-92,016	281,238	0,097	-0,125
-91,001	125,744	-0,081	0,074
-89,986	72,650	0,113	0,085
-88,972	-99,856	0,074	-0,013
-87,957	489,444	-0,026	0,042
-86,943	157,306	-0,072	0,072
-85,928	253,808	-0,021	0,026
-84,913	-200,000	-0,002	-0,017
-83,899	17,188	-0,104	-0,059
-82,884	-40,156	0,157	0,059
-81,870	516,145	0,096	0,162
-80,855	-200,000	0,013	0,076
-79,840	158,654	0,088	0,088
-78,826	183,418	-0,046	0,049
-77,811	-200,000	0,025	-0,170
-76,797	-129,126	-0,069	-0,007
-75,782	-74,932	0,088	0,023
-74,767	-187,967	-0,090	0,001
-73,753	82,932	-0,058	0,046
-72,738	-144,970	-0,096	0,006
-71,724	-200,000	0,032	0,141
-70,709	121,560	-0,121	-0,108
-69,694	135,243	0,076	0,071
-68,680	286,292	-0,024	0,031
-67,665	-56,778	-0,022	-0,007
-66,651	19,441	0,058	0,034
-65,636	-200,000	-0,013	0,312
-64,622	800,000	-0,034	0,108
-63,607	533,175	-0,082	-0,139
-62,592	113,366	0,100	0,087
-61,578	-200,000	-0,016	0,059
-60,563	-96,619	0,079	-0,015
-59,549	610,525	-0,029	0,052
-58,534	10,647	-1,940	-1,059
-57,519	-200,000	-0,255	-0,894
-56,505	-200,000	-1,266	-5,077
-55,490	18,799	0,829	0,475
-54,476	800,000	5,338	12,271
-53,461	-200,000	17,760	287,215
-52,446	800,000	729,140	2227,805
-51,432	537,515	1645,100	2815,840
-50,417	109,661	1635,321	1406,386
-49,403	75,675	1286,988	974,723
-48,388	31,814	1027,359	633,325
-47,373	20,150	989,128	571,303
-46,359	18,271	976,934	558,079
-45,344	15,450	972,802	546,472
-44,330	15,604	971,404	546,167
-43,315	15,095	969,545	543,441
-42,300	15,058	968,538	542,733
-41,286	15,055	967,491	542,114
-40,271	15,081	966,517	541,631
-39,257	15,140	965,490	541,227
-38,242	15,121	964,711	540,707
-37,227	15,137	963,910	540,289
-36,213	15,085	962,877	539,519
-35,198	15,030	962,184	538,932
-34,184	15,107	961,355	538,695
-33,169	15,062	960,375	537,978
-32,154	15,119	959,360	537,572
-31,140	15,125	958,538	537,111
-30,125	15,119	957,873	536,696
-29,111	15,081	957,300	536,234
-28,096	15,110	956,304	535,746
-27,082	15,135	955,647	535,436
-26,067	15,050	955,039	534,802
-25,052	15,115	953,987	534,403
-24,038	15,072	953,656	534,056
-23,023	15,054	953,045	533,637
-22,009	15,124	952,186	533,359
-20,994	15,155	951,666	533,144
-19,979	15,029	951,059	532,379
-18,965	15,041	950,405	532,030
-17,950	15,085	949,921	531,879
-16,936	15,058	949,100	531,314
-15,921	15,039	948,488	530,888
-14,906	14,995	947,733	530,304
-13,892	15,022	946,972	529,942
-12,877	14,998	946,314	529,478
-11,863	15,013	945,683	529,153
-10,848	14,959	945,369	528,784
-9,833	15,117	944,697	528,887
-8,819	15,011	944,166	528,233
-7,804	15,007	943,464	527,806
-6,790	14,946	943,038	527,353
-5,775	15,010	942,288	527,117
-4,760	14,986	941,748	526,720
-3,746	15,025	940,941	526,370
-2,731	14,887	940,257	525,529
-1,717	14,795	939,713	524,914
-0,702	14,835	939,177	524,721
0,313	14,628	938,492	524,475
1,327	17,992	936,159	533,714
2,342	27,105	793,017	476,217
3,356	23,716	458,249	269,986
4,371	-3,482	314,293	156,272
5,386	-7,455	296,038	143,164
6,400	-9,652	290,241	138,167
7,415	-9,980	287,610	136,579
8,429	-10,269	286,217	135,622
9,444	-10,131	285,387	135,352
10,459	-10,129	284,588	134,963
11,473	-10,114	283,994	134,684
12,488	-10,019	283,462	134,511
13,502	-10,229	283,010	134,081
14,517	-10,148	282,533	133,923
15,531	-10,042	281,970	133,746
16,546	-10,055	281,774	133,628
17,561	-10,189	281,443	133,330
18,575	-9,901	281,070	133,418
19,590	-10,121	280,689	133,015
20,604	-10,099	280,444	132,908
21,619	-10,120	279,849	132,594
22,634	-10,068	279,505	132,469
23,648	-10,110	279,236	132,290
24,663	-10,020	278,949	132,227
25,677	-10,178	278,811	132,000
26,692	-10,119	278,482	131,889
27,707	-10,123	278,244	131,760
28,721	-10,148	278,012	131,614
29,736	-10,145	277,768	131,490
30,750	-10,324	277,525	131,194
31,765	-10,260	277,237	131,107
32,780	-10,019	277,005	131,213
33,794	-10,007	276,724	131,080
34,809	-10,100	276,388	130,821
35,823	-10,143	276,144	130,654
36,838	-10,075	275,863	130,572
37,853	-10,253	275,686	130,310
38,867	-10,140	275,333	130,238
39,882	-10,308	275,286	130,046
40,896	-10,207	274,967	129,979
41,911	-10,173	274,624	129,836
42,926	-10,204	274,344	129,663
43,940	-10,260	274,069	129,470
44,955	-10,238	273,881	129,389
45,969	-10,346	273,640	129,163
46,984	-10,459	273,483	128,973
47,999	-10,512	273,173	128,766
49,013	-10,638	272,851	128,485
50,028	-10,649	272,633	128,361
51,042	-10,713	272,305	128,135
52,057	-10,896	272,104	127,859
53,071	-10,875	272,122	127,877
54,086	-10,731	271,800	127,847
55,101	-10,613	271,643	127,871
56,115	-10,299	271,371	128,022
57,130	-10,192	271,191	128,025
58,144	-10,216	271,130	127,963
59,159	-10,035	270,881	128,000
60,174	-9,944	270,541	127,912
61,188	-10,154	270,398	127,639
62,203	-10,251	270,333	127,509
63,217	-10,137	270,020	127,454
64,232	-9,942	269,585	127,416
65,247	-9,963	269,457	127,325
66,261	-10,078	269,403	127,183
67,276	-10,275	268,961	126,782
68,290	-10,557	268,749	126,413
69,305	-10,460	268,606	126,423
70,320	-10,433	268,358	126,320
71,334	-10,239	268,259	126,439
72,349	-10,015	268,019	126,519
73,363	-10,067	267,694	126,306
74,378	-10,215	267,570	126,103
75,393	-10,028	267,502	126,230
76,407	-10,116	267,221	126,005
77,422	-10,057	266,862	125,879
78,436	-10,157	266,622	125,664
79,451	-10,203	266,452	125,531
80,466	-10,079	266,231	125,528
81,480	-10,235	265,948	125,242
82,495	-10,296	265,845	125,127
83,509	-10,230	265,612	125,066
84,524	-10,305	265,335	124,857
85,539	-10,293	264,981	124,690
86,553	-10,245	264,805	124,639
87,568	-10,442	264,762	124,430
88,582	-10,298	264,645	124,494
89,597	-10,209	264,293	124,397
90,611	-10,052	264,052	124,413
91,626	-10,061	264,009	124,374
92,641	-9,996	263,754	124,301
93,655	-10,163	263,595	124,066
94,670	-9,973	263,225	124,050
95,684	-10,047	263,042	123,886
96,699	-10,072	262,937	123,803
97,714	-10,079	262,739	123,693
98,728	-10,228	262,571	123,470
99,743	-10,212	262,280	123,336
100,757	-10,364	262,019	123,068
101,772	-10,237	261,792	123,063
102,787	-9,935	261,569	123,216
103,801	-10,284	261,723	122,967
104,816	-10,055	261,345	122,981
105,830	-9,938	261,209	123,010
106,845	-10,214	260,991	122,652
107,860	-10,123	260,947	122,701
108,874	-10,158	260,606	122,499
109,889	-10,088	260,261	122,387
110,903	-10,109	260,177	122,318
111,918	-10,224	259,964	122,106
112,933	-10,218	259,783	122,016
113,947	-10,082	259,698	122,084
114,962	-10,149	259,495	121,919
115,976	-9,994	259,229	121,920
116,991	-10,144	259,005	121,672
118,006	-10,135	258,868	121,604
119,020	-10,080	258,803	121,611
120,035	-9,963	258,586	121,601
121,049	-10,058	258,392	121,416
122,064	-10,262	258,243	121,156
123,079	-9,944	257,935	121,279
124,093	-10,266	257,729	120,890
125,108	-10,322	257,498	120,722
126,122	-10,396	257,207	120,510
127,137	-10,476	257,014	120,340
128,151	-10,395	256,933	120,362
129,166	-10,186	256,707	120,427
130,181	-10,337	256,517	120,195
131,195	-10,545	256,337	119,920
132,210	-10,205	256,212	120,146
133,224	-10,140	256,026	120,104
134,239	-10,130	255,853	120,021
135,254	-10,078	255,508	119,893
136,268	-10,248	255,339	119,656
137,283	-10,503	255,119	119,322
138,297	-10,449	254,816	119,217
139,312	-10,434	254,723	119,176
140,327	-10,305	254,653	119,244
141,341	-10,003	254,429	119,388
142,356	-9,840	254,231	119,424
143,370	-9,871	254,085	119,319
144,385	-9,767	253,956	119,336
145,400	-9,879	253,890	119,199
146,414	-9,811	253,537	119,080
147,429	-9,943	253,353	118,870
148,443	-9,888	253,256	118,861
149,458	-9,807	253,132	118,862
150,473	-9,912	252,790	118,601
151,487	-9,979	252,542	118,417
152,502	-9,897	252,522	118,467
153,516	-9,758	252,241	118,443
154,531	-9,947	252,190	118,248
155,546	-10,057	251,929	118,021
156,560	-10,041	251,820	117,973
157,575	-9,850	251,493	117,971
158,589	-9,867	251,356	117,882
159,604	-9,920	251,181	117,745
160,619	-9,888	250,919	117,638
161,633	-9,887	250,902	117,621
162,648	-9,944	250,662	117,449
163,662	-9,894	250,597	117,451
164,677	-9,940	250,516	117,364
165,692	-9,950	250,217	117,204
166,706	-9,874	250,011	117,162
167,721	-9,934	249,854	117,027
168,735	-9,878	249,765	117,023
169,750	-9,836	249,609	116,974
170,764	-9,707	249,432	116,989
171,779	-9,810	249,350	116,854
172,794	-9,765	249,062	116,746
173,808	-9,796	248,791	116,583
174,823	-10,110	248,678	116,256
175,837	-10,336	248,432	115,941
176,852	-9,909	248,284	116,220
177,867	-10,036	248,350	116,133
178,881	-10,093	248,207	116,009
179,896	-9,924	248,013	116,049
180,910	-9,818	247,742	116,000
181,925	-9,695	247,465	115,963
182,940	-9,824	247,400	115,814
183,954	-9,892	247,206	115,657
184,969	-9,760	247,052	115,685
185,983	-9,715	246,943	115,660
186,998	-9,636	246,657	115,582
188,013	-9,843	246,581	115,364
189,027	-9,971	246,466	115,194
190,042	-9,875	246,087	115,086
191,056	-9,751	246,017	115,145
192,071	-9,766	245,808	115,025
193,086	-9,692	245,763	115,055
194,100	-9,778	245,399	114,804
195,115	-9,824	245,259	114,690
196,129	-9,639	244,942	114,683
197,144	-10,004	244,970	114,385
198,159	-9,963	244,698	114,282
199,173	-9,804	244,429	114,277
200,188	-9,892	244,371	114,167
201,202	-10,166	244,046	113,780
202,217	-10,521	243,847	113,386
203,232	-10,443	243,595	113,323
204,246	-9,937	243,624	113,740
205,261	-9,676	243,495	113,885
206,275	-10,552	243,046	112,948
207,290	-6,925	244,648	116,665
208,304	0,409	246,825	123,760
209,319	3,358	247,610	126,583
210,334	3,904	247,643	127,039
211,348	4,031	247,617	127,119
212,363	4,211	247,399	127,144
213,377	4,622	247,287	127,415
214,392	4,228	247,200	127,033
215,407	4,253	247,015	126,948
216,421	4,162	246,723	126,712
217,436	4,220	246,839	126,808
218,450	4,495	246,460	126,828
219,465	4,314	246,231	126,550
220,480	3,897	246,009	126,083
221,494	3,968	245,845	126,046
222,509	3,985	245,754	126,002
223,523	3,831	245,705	125,839
224,538	3,571	245,317	125,417
225,553	3,733	245,110	125,432
226,567	3,873	244,960	125,458
227,582	3,984	244,834	125,473
228,596	3,952	244,713	125,373
229,611	3,595	244,621	125,025
230,626	3,508	244,387	124,823
231,640	3,700	244,190	124,868
232,655	3,800	244,140	124,912
233,669	3,752	243,855	124,716
234,684	3,532	243,703	124,448
235,699	3,927	243,707	124,760
236,713	4,158	243,512	124,836
237,728	3,841	243,175	124,396
238,742	3,627	242,956	124,100
239,757	3,549	242,954	124,025
240,772	3,766	242,677	124,047
241,786	3,777	242,782	124,099
242,801	3,536	242,418	123,707
243,815	3,369	242,455	123,580
244,830	3,739	242,197	123,736
245,844	3,839	242,010	123,710
246,859	3,831	241,776	123,573
247,874	3,663	241,683	123,380
248,888	3,723	241,484	123,315
249,903	3,873	241,287	123,324
250,917	3,864	241,374	123,350
251,932	4,007	241,170	123,349
252,947	4,135	240,875	123,290
253,961	3,738	240,791	122,918
254,976	3,894	240,594	122,932
255,990	3,981	240,577	122,982
257,005	3,693	240,297	122,597
258,020	3,426	240,027	122,236
259,034	3,815	239,928	122,485
260,049	3,583	239,965	122,308
261,063	3,848	239,557	122,299
262,078	3,599	239,500	122,062
263,093	3,776	239,439	122,160
264,107	3,713	239,414	122,086
265,122	3,565	239,100	121,798
266,136	3,942	239,041	122,056
267,151	4,202	238,872	122,165
268,166	3,877	238,553	121,734
269,180	3,628	238,376	121,436
270,195	4,186	238,228	121,791
271,209	4,301	238,270	121,892
272,224	3,809	237,946	121,328
273,239	3,409	237,724	120,887
274,253	3,441	237,625	120,852
275,268	3,778	237,587	121,087
276,282	3,859	237,433	121,062
277,297	3,579	237,111	120,666
278,312	3,751	237,000	120,735
279,326	3,796	236,851	120,683
280,341	3,751	236,740	120,581
281,355	3,878	236,536	120,565
282,370	3,984	236,584	120,662
283,384	3,646	236,399	120,292
284,399	3,554	236,162	120,089
285,414	3,682	235,806	119,997
286,428	3,653	235,787	119,954
287,443	3,673	235,800	119,966
288,457	3,809	235,710	120,016
289,472	3,923	235,494	119,983
290,487	3,803	235,367	119,815
291,501	3,438	235,043	119,355
292,516	3,444	234,969	119,311
293,530	3,334	234,841	119,150
294,545	3,707	234,758	119,387
295,560	3,742	234,486	119,266
296,574	3,588	234,243	119,012
297,589	3,726	234,243	119,108
298,603	3,777	234,183	119,107
299,618	3,821	234,042	119,059
300,633	3,873	233,803	118,967
301,647	3,736	233,743	118,820
302,662	4,132	233,652	119,069
303,676	4,209	233,415	118,997
304,691	4,013	233,256	118,754
305,706	4,260	233,087	118,847
306,720	4,188	232,967	118,720
307,735	4,049	232,865	118,551
308,749	3,665	232,675	118,148
309,764	3,743	232,499	118,108
310,779	3,486	232,350	117,824
311,793	3,394	232,054	117,593
312,808	3,613	231,954	117,700
313,822	3,357	231,636	117,332
314,837	3,569	231,703	117,518
315,852	3,655	231,399	117,419
316,866	3,739	231,472	117,510
317,881	4,161	231,407	117,789
318,895	3,935	231,262	117,532
319,910	3,706	231,134	117,282
320,925	3,862	230,808	117,225
321,939	3,482	230,543	116,791
322,954	3,597	230,598	116,895
323,968	3,822	230,429	116,971
324,983	3,743	230,280	116,824
325,997	4,021	230,169	116,969
327,012	3,909	229,985	116,780
328,027	3,476	229,699	116,296
329,041	3,749	229,720	116,503
330,056	4,546	229,717	117,095
331,070	4,524	229,686	117,052
332,085	4,216	229,321	116,623
333,100	3,968	229,092	116,309
334,114	4,116	228,924	116,325
335,129	4,041	228,846	116,219
336,143	4,416	228,724	116,429
337,158	4,060	228,748	116,162
338,173	3,940	228,479	115,925
339,187	3,864	228,257	115,744
340,202	3,875	228,286	115,757
341,216	4,087	227,929	115,726
342,231	3,925	227,693	115,473
343,246	3,943	227,566	115,413
344,260	4,099	227,572	115,523
345,275	4,084	227,395	115,411
346,289	4,320	227,386	115,573
347,304	4,420	227,212	115,549
348,319	4,121	227,003	115,208
349,333	3,972	226,945	115,058
350,348	3,835	226,762	114,852
351,362	3,913	226,659	114,848
352,377	3,781	226,365	114,590
353,392	3,624	226,285	114,423
354,406	3,522	226,092	114,239
355,421	195,964	1322,087	1400,214
356,435	157,096	1455,607	1400,201
