DTS Sentinel unit serial number:	SN410029Multiplexer serial number:	ORYXHardware model number:	OX2-SRSoftware version number:	ORYX F/W v4,00 Oryx Data Collector v3.7.2.0data status	okinstallation	B5 Nyhavnadifferential loss correction	single-endedforward channel	channel 2reverse channel	N/Adate	2023/12/11time	14:37:13forward acquisition time	300,00reverse acquisition time	0,00gamma	499,1914k internal	0,3167k external	0,3167temperature offset calibration	1,0000default loss term (dB/km)	0,3820temperature slope calibration	1,0000multiplexer offset coefficient	1,0000multiplexer slope coefficient	1,0000fibre end	0,00T internal ref (°C)	12,63T ext. ref 1 (°C)	-1,86T ext. ref 2 (°C)	-1,88length (m)	temperature (°C)	Stokes	anti-Stokes-744,400	579,416	-0,044	-0,079
-743,385	-88,268	-0,350	0,076
-742,371	106,431	0,112	0,098
-741,356	-64,361	-0,278	0,082
-740,342	800,000	-0,013	-0,038
-739,327	-131,129	-0,250	-0,024
-738,312	63,511	0,040	0,029
-737,298	-67,002	-0,263	-0,076
-736,283	147,505	0,130	0,129
-735,269	-130,083	-0,318	0,031
-734,254	800,000	0,041	-0,097
-733,239	-78,800	-0,482	-0,120
-732,225	76,276	0,182	0,141
-731,210	800,000	0,034	-0,092
-730,196	-200,000	-0,017	-0,166
-729,181	-71,213	-0,061	0,017
-728,167	800,000	0,040	0,085
-727,152	-200,000	0,000	-0,167
-726,137	800,000	0,041	-0,105
-725,123	800,000	-0,011	-0,024
-724,108	-200,000	-0,046	-0,152
-723,094	800,000	-0,058	-0,167
-722,079	226,056	-0,096	-0,114
-721,064	-28,240	-0,012	-0,005
-720,050	244,206	-0,105	-0,130
-719,035	-200,000	-0,011	0,061
-718,021	-74,761	0,134	-0,035
-717,006	104,874	-0,008	-0,007
-715,991	-200,000	-0,027	-0,150
-714,977	-200,000	-0,046	-0,162
-713,962	800,000	-0,044	-0,090
-712,948	444,752	0,043	0,070
-711,933	-23,574	-0,058	0,025
-710,918	800,000	-0,019	0,053
-709,904	-52,469	-0,127	-0,043
-708,889	-46,850	-0,102	0,036
-707,875	264,361	-0,079	-0,101
-706,860	-32,995	-0,068	0,027
-705,845	235,940	-0,040	0,048
-704,831	-61,943	-0,020	0,006
-703,816	149,694	-0,058	-0,058
-702,802	-78,338	-0,166	0,042
-701,787	-200,000	-0,031	-0,163
-700,772	-148,278	-0,106	0,006
-699,758	264,137	-0,031	0,039
-698,743	800,000	0,051	0,128
-697,729	-200,000	0,028	0,091
-696,714	-200,000	-0,001	0,019
-695,699	303,146	0,026	-0,035
-694,685	800,000	-0,040	-0,087
-693,670	707,768	0,074	-0,145
-692,656	-200,000	-0,012	-0,041
-691,641	614,353	0,028	-0,052
-690,627	149,052	0,024	0,024
-689,612	-46,457	-0,054	0,019
-688,597	71,549	-0,129	-0,098
-687,583	-89,543	-0,060	0,013
-686,568	-129,569	0,080	0,008
-685,554	-113,315	-0,045	-0,006
-684,539	-133,261	-0,063	0,006
-683,524	109,646	0,061	-0,053
-682,510	800,000	-0,020	0,047
-681,495	-55,106	0,048	0,016
-680,481	-200,000	0,003	-0,071
-679,466	-19,485	-0,114	-0,052
-678,451	-78,615	0,105	0,026
-677,437	-200,000	0,010	0,078
-676,422	42,058	-0,118	-0,078
-675,408	-96,853	0,093	-0,018
-674,393	147,692	-0,052	-0,051
-673,378	-129,930	-0,080	-0,008
-672,364	-131,980	0,036	-0,003
-671,349	-16,477	-0,109	-0,051
-670,335	58,293	-0,073	-0,052
-669,320	75,690	0,065	-0,051
-668,305	-162,400	-0,065	-0,002
-667,291	-154,179	-0,141	0,007
-666,276	-200,000	0,024	-0,118
-665,262	-44,602	0,157	-0,057
-664,247	-62,829	0,146	0,044
-663,232	-200,000	0,005	-0,027
-662,218	21,317	0,108	0,064
-661,203	-200,000	0,021	0,146
-660,189	22,913	-0,083	0,050
-659,174	61,490	0,056	-0,040
-658,159	127,004	0,061	-0,056
-657,145	64,388	-0,096	-0,070
-656,130	126,240	-0,067	-0,062
-655,116	800,000	0,043	0,088
-654,101	558,488	0,026	-0,046
-653,086	171,308	-0,095	0,100
-652,072	-200,000	0,015	-0,051
-651,057	-169,577	-0,106	0,003
-650,043	442,016	0,030	-0,049
-649,028	-51,455	0,112	-0,038
-648,014	-200,000	-0,014	0,087
-646,999	324,868	-0,051	0,072
-645,984	480,962	0,029	0,049
-644,970	543,388	0,124	-0,217
-643,955	-200,000	0,022	-0,130
-642,941	800,000	0,050	-0,117
-641,926	800,000	0,044	0,125
-640,911	800,000	0,009	0,026
-639,897	109,828	0,048	0,042
-638,882	800,000	-0,044	0,103
-637,868	388,229	-0,065	0,098
-636,853	2,117	-0,039	0,021
-635,838	800,000	-0,014	0,043
-634,824	800,000	-0,011	0,022
-633,809	-93,644	0,126	-0,025
-632,795	4,365	-0,049	0,026
-631,780	72,367	-0,091	0,070
-630,765	32,819	-0,068	-0,043
-629,751	156,968	-0,050	0,050
-628,736	88,488	-0,043	-0,035
-627,722	37,081	-0,049	-0,032
-626,707	114,529	0,045	-0,040
-625,692	-200,000	-0,019	0,093
-624,678	97,742	0,077	-0,065
-623,663	80,980	0,053	0,041
-622,649	-91,941	0,094	-0,019
-621,634	66,382	0,069	0,052
-620,619	557,951	-0,020	-0,036
-619,605	-200,000	0,013	0,063
-618,590	-200,000	-0,013	0,050
-617,576	-69,673	-0,075	0,021
-616,561	356,711	0,124	-0,181
-615,546	-200,000	-0,048	-0,156
-614,532	-53,903	-0,104	0,034
-613,517	92,267	0,040	-0,033
-612,503	-200,000	-0,006	0,028
-611,488	800,000	0,067	-0,138
-610,474	-200,000	0,009	-0,087
-609,459	-119,899	-0,078	0,010
-608,444	365,696	-0,054	0,080
-607,430	248,145	-0,032	0,040
-606,415	453,365	-0,090	-0,146
-605,401	526,252	0,028	0,048
-604,386	800,000	-0,035	0,080
-603,371	800,000	-0,034	-0,091
-602,357	-114,750	0,137	0,019
-601,342	-200,000	-0,003	-0,082
-600,328	24,351	0,108	0,065
-599,313	-14,376	-0,095	0,045
-598,298	179,063	-0,111	0,118
-597,284	800,000	-0,064	-0,146
-596,269	-200,000	0,043	0,224
-595,255	-200,000	0,000	0,115
-594,240	99,308	0,046	0,039
-593,225	289,453	-0,041	-0,054
-592,211	-23,327	-0,181	-0,079
-591,196	-13,367	0,070	0,033
-590,182	-200,000	0,024	0,088
-589,167	800,000	-0,009	0,022
-588,152	29,727	-0,051	0,032
-587,138	-102,491	-0,058	0,010
-586,123	92,747	-0,122	-0,101
-585,109	-100,833	0,038	-0,007
-584,094	800,000	-0,036	0,083
-583,079	145,812	-0,098	0,096
-582,065	-117,128	0,215	-0,028
-581,050	800,000	0,017	-0,039
-580,036	800,000	-0,005	0,013
-579,021	42,457	-0,046	-0,031
-578,006	-200,000	-0,008	-0,153
-576,992	-1,668	0,072	0,037
-575,977	-108,962	0,072	0,011
-574,963	800,000	-0,017	0,046
-573,948	-83,363	-0,101	-0,023
-572,934	-200,000	0,014	-0,112
-571,919	72,328	0,031	-0,023
-570,904	12,844	0,028	-0,016
-569,890	102,306	0,030	0,026
-568,875	-200,000	0,009	0,069
-567,861	-200,000	-0,013	-0,087
-566,846	-23,426	-0,090	0,039
-565,831	94,323	0,051	-0,042
-564,817	800,000	0,006	0,014
-563,802	-200,000	-0,011	-0,058
-562,788	241,649	-0,057	0,070
-561,773	800,000	-0,011	0,034
-560,758	-52,425	0,135	-0,045
-559,744	-200,000	-0,040	0,196
-558,729	311,397	0,034	0,046
-557,715	-200,000	-0,010	0,060
-556,700	-0,117	-0,112	-0,058
-555,685	-94,734	-0,109	-0,021
-554,671	-200,000	0,015	-0,076
-553,656	-200,000	0,041	0,154
-552,642	155,795	-0,030	0,030
-551,627	5,498	-0,037	0,020
-550,612	800,000	-0,015	-0,043
-549,598	124,440	0,070	-0,064
-548,583	136,723	-0,070	-0,067
-547,569	800,000	0,034	-0,072
-546,554	-69,869	0,070	-0,019
-545,539	-82,892	-0,047	-0,011
-544,525	-17,527	0,028	-0,013
-543,510	-200,000	-0,022	0,086
-542,496	2,129	-0,150	-0,079
-541,481	-124,297	0,035	-0,004
-540,466	-200,000	0,023	0,078
-539,452	-200,000	0,046	0,150
-538,437	-171,925	0,067	-0,002
-537,423	269,150	0,037	0,048
-536,408	441,672	-0,072	0,116
-535,393	-200,000	0,002	0,082
-534,379	-50,991	0,132	0,045
-533,364	-125,103	-0,085	0,009
-532,350	159,451	0,045	0,046
-531,335	-141,501	0,155	-0,011
-530,321	800,000	-0,045	0,142
-529,306	800,000	0,017	0,035
-528,291	-39,112	0,028	0,011
-527,277	-200,000	-0,004	-0,030
-526,262	89,537	-0,066	-0,054
-525,248	241,796	-0,107	0,131
-524,233	392,659	0,068	0,103
-523,218	-186,057	-0,034	-0,000
-522,204	-17,677	0,012	0,006
-521,189	-200,000	-0,016	-0,053
-520,175	-200,000	-0,025	-0,160
-519,160	439,150	-0,068	-0,108
-518,145	92,196	-0,148	-0,121
-517,131	-26,318	0,069	0,029
-516,116	88,990	0,084	0,068
-515,102	22,148	-0,052	-0,031
-514,087	-200,000	-0,008	-0,109
-513,072	-48,593	-0,065	-0,023
-512,058	-60,099	-0,022	0,007
-511,043	-72,240	-0,073	0,020
-510,029	16,187	-0,025	-0,014
-509,014	-200,000	0,008	0,052
-507,999	800,000	0,042	0,114
-506,985	-125,242	-0,060	-0,007
-505,970	522,314	-0,084	-0,144
-504,956	-174,851	0,088	-0,002
-503,941	460,531	0,058	0,095
-502,926	800,000	0,007	0,022
-501,912	424,522	-0,036	0,057
-500,897	103,651	0,171	0,146
-499,883	-200,000	-0,000	-0,223
-498,868	70,727	-0,025	-0,019
-497,853	-200,000	0,009	-0,039
-496,839	48,778	-0,067	-0,045
-495,824	-10,270	0,020	0,010
-494,810	-24,493	0,074	-0,032
-493,795	372,261	-0,035	-0,051
-492,781	-134,859	-0,172	-0,015
-491,766	112,109	-0,157	0,138
-490,751	280,119	0,042	0,055
-489,737	-88,782	0,093	0,020
-488,722	-119,508	-0,080	-0,010
-487,708	-59,238	0,218	-0,068
-486,693	-200,000	-0,003	0,046
-485,678	641,962	0,043	0,080
-484,664	-98,348	-0,038	-0,007
-483,649	89,142	0,106	-0,086
-482,635	8,569	0,128	-0,070
-481,620	237,142	-0,035	-0,042
-480,605	-20,013	0,151	0,067
-479,591	-200,000	0,004	0,042
-478,576	-105,092	0,055	0,009
-477,562	39,541	-0,066	0,043
-476,547	-84,226	-0,076	-0,017
-475,532	-200,000	0,002	-0,008
-474,518	-200,000	0,019	-0,118
-473,503	-139,366	-0,104	-0,008
-472,489	800,000	0,008	0,025
-471,474	263,296	-0,068	-0,086
-470,459	-66,574	-0,115	-0,033
-469,445	-172,565	0,118	0,003
-468,430	-114,419	-0,115	-0,016
-467,416	-200,000	0,052	0,181
-466,401	58,344	-0,084	-0,060
-465,386	800,000	0,042	0,086
-464,372	-30,567	-0,081	0,033
-463,357	190,012	-0,061	0,067
-462,343	-29,670	-0,116	-0,048
-461,328	485,267	0,052	-0,087
-460,313	10,808	-0,025	0,014
-459,299	26,637	0,068	0,041
-458,284	-63,398	0,109	0,032
-457,270	-5,911	-0,013	-0,007
-456,255	308,313	-0,109	-0,149
-455,241	58,548	-0,077	-0,055
-454,226	61,117	0,087	-0,062
-453,211	-200,000	0,032	0,128
-452,197	800,000	-0,031	0,086
-451,182	-81,492	0,147	-0,035
-450,168	800,000	-0,037	0,095
-449,153	119,043	0,032	-0,028
-448,138	-200,000	0,007	-0,114
-447,124	800,000	0,009	-0,019
-446,109	20,893	0,131	0,077
-445,095	-200,000	-0,005	-0,110
-444,080	-71,006	0,069	0,019
-443,065	-2,927	-0,134	0,068
-442,051	442,218	0,044	-0,071
-441,036	129,763	-0,169	-0,157
-440,022	717,477	-0,014	0,027
-439,007	397,834	-0,045	-0,069
-437,992	-200,000	0,012	-0,087
-436,978	356,886	-0,039	0,056
-435,963	88,720	0,058	-0,047
-434,949	312,354	0,040	-0,055
-433,934	-200,000	-0,020	-0,107
-432,919	517,275	-0,038	0,064
-431,905	282,824	-0,069	-0,090
-430,890	800,000	0,030	0,088
-429,876	-200,000	-0,005	0,086
-428,861	-177,525	0,052	-0,001
-427,846	-124,944	-0,096	0,011
-426,832	197,253	0,040	-0,044
-425,817	-79,967	-0,030	0,007
-424,803	142,412	0,065	0,063
-423,788	-200,000	0,028	0,126
-422,773	-200,000	0,002	-0,088
-421,759	456,168	0,042	0,067
-420,744	582,955	0,038	-0,068
-419,730	-200,000	-0,013	-0,062
-418,715	351,964	-0,091	-0,132
-417,701	-200,000	0,028	-0,105
-416,686	23,334	-0,020	-0,012
-415,671	-118,031	0,099	-0,013
-414,657	-200,000	0,034	0,177
-413,642	38,174	-0,104	0,067
-412,628	27,396	-0,083	-0,051
-411,613	800,000	0,039	-0,120
-410,598	86,754	-0,032	-0,026
-409,584	-30,151	0,103	-0,042
-408,569	236,553	-0,082	0,098
-407,555	32,599	0,099	-0,062
-406,540	800,000	0,030	0,068
-405,525	-200,000	0,084	0,000
-404,511	800,000	0,026	-0,066
-403,496	223,029	0,075	0,088
-402,482	175,980	-0,087	0,092
-401,467	-20,265	0,047	-0,021
-400,452	800,000	-0,034	0,093
-399,438	800,000	-0,062	0,164
-398,423	-28,514	-0,076	0,032
-397,409	191,013	0,056	-0,061
-396,394	415,248	-0,072	-0,111
-395,379	-200,000	0,026	-0,099
-394,365	-200,000	-0,042	0,154
-393,350	-17,560	-0,069	-0,031
-392,336	-200,000	0,004	0,073
-391,321	-200,000	0,003	-0,071
-390,306	50,937	-0,092	-0,063
-389,292	714,326	-0,034	0,066
-388,277	-110,826	-0,054	0,008
-387,263	-200,000	0,005	0,072
-386,248	-200,000	-0,005	-0,071
-385,233	800,000	0,042	0,113
-384,219	122,313	0,050	-0,045
-383,204	473,475	-0,018	-0,029
-382,190	-13,421	0,022	0,010
-381,175	-200,000	-0,006	0,101
-380,160	-200,000	-0,019	0,000
-379,146	-200,000	-0,031	0,238
-378,131	476,573	0,018	0,029
-377,117	50,474	-0,075	0,051
-376,102	-200,000	-0,028	0,140
-375,088	-200,000	0,005	0,076
-374,073	86,890	-0,032	0,026
-373,058	-131,147	0,132	-0,013
-372,044	2,789	0,068	0,035
-371,029	153,481	0,037	0,037
-370,015	-40,675	-0,052	-0,019
-369,000	260,700	-0,033	0,041
-367,985	-200,000	0,045	0,149
-366,971	800,000	-0,029	-0,070
-365,956	-200,000	-0,017	-0,072
-364,942	800,000	0,061	0,193
-363,927	-128,919	0,157	-0,016
-362,912	-104,232	-0,050	0,008
-361,898	-200,000	0,003	0,066
-360,883	-200,000	0,012	-0,090
-359,869	-56,246	-0,104	0,033
-358,854	15,677	0,050	-0,029
-357,839	369,110	0,069	-0,101
-356,825	-91,323	-0,087	-0,018
-355,810	-200,000	0,024	0,079
-354,796	309,501	0,046	0,062
-353,781	800,000	-0,072	-0,171
-352,766	800,000	0,034	-0,108
-351,752	-22,435	-0,030	0,013
-350,737	-200,000	-0,007	-0,135
-349,723	141,873	-0,087	0,084
-348,708	43,939	0,065	0,043
-347,693	-177,868	-0,017	0,000
-346,679	118,374	-0,122	-0,109
-345,664	171,628	-0,074	-0,077
-344,650	260,198	0,033	-0,041
-343,635	-200,000	-0,002	-0,075
-342,620	-200,000	-0,018	-0,096
-341,606	-39,659	0,074	0,028
-340,591	281,623	0,036	0,046
-339,577	-103,174	0,047	-0,008
-338,562	204,718	-0,028	-0,032
-337,548	-200,000	0,012	0,052
-336,533	138,667	0,093	0,088
-335,518	-200,000	-0,001	0,072
-334,504	294,295	-0,020	-0,026
-333,489	14,705	-0,079	0,044
-332,475	21,109	0,119	-0,070
-331,460	146,697	-0,088	0,086
-330,445	800,000	0,002	0,005
-329,431	-56,624	0,054	0,017
-328,416	-200,000	0,012	0,069
-327,402	260,690	0,148	0,185
-326,387	131,524	-0,076	0,070
-325,372	-179,193	-0,093	0,001
-324,358	295,414	0,096	0,128
-323,343	-200,000	-0,025	0,112
-322,329	-99,824	-0,082	-0,015
-321,314	800,000	-0,042	0,106
-320,299	-58,380	0,160	0,050
-319,285	-200,000	-0,028	-0,108
-318,270	-18,185	-0,038	0,017
-317,256	-111,928	0,146	0,021
-316,241	-37,022	-0,057	-0,022
-315,226	-153,256	0,060	-0,003
-314,212	800,000	0,063	0,145
-313,197	-118,256	0,103	0,013
-312,183	108,496	0,096	0,083
-311,168	-66,231	-0,082	-0,023
-310,153	624,526	-0,063	0,115
-309,139	363,670	0,064	-0,093
-308,124	38,864	-0,019	-0,012
-307,110	119,442	-0,038	-0,034
-306,095	-200,000	-0,003	0,020
-305,080	-57,602	0,106	0,033
-304,066	-94,985	-0,053	-0,010
-303,051	387,556	-0,075	-0,113
-302,037	-200,000	0,008	0,035
-301,022	800,000	-0,037	-0,094
-300,008	367,741	-0,028	0,042
-298,993	306,576	-0,032	0,043
-297,978	-200,000	-0,023	0,077
-296,964	-135,278	0,150	0,013
-295,949	-19,286	-0,081	0,036
-294,935	-148,269	-0,121	0,007
-293,920	800,000	-0,005	-0,014
-292,905	-168,830	0,083	-0,002
-291,891	-153,987	-0,095	0,005
-290,876	767,896	0,053	0,105
-289,862	800,000	-0,053	-0,124
-288,847	-200,000	-0,016	-0,050
-287,832	800,000	-0,035	-0,098
-286,818	-197,404	0,015	0,000
-285,803	-127,062	0,062	-0,007
-284,789	-85,081	0,059	0,013
-283,774	800,000	0,041	0,120
-282,759	212,731	-0,041	0,047
-281,745	-200,000	0,011	-0,064
-280,730	-200,000	-0,007	-0,046
-279,716	-200,000	-0,054	-0,178
-278,701	-29,764	-0,127	-0,052
-277,686	114,198	-0,106	0,093
-276,672	-200,000	-0,001	0,091
-275,657	800,000	-0,074	0,228
-274,643	-97,786	-0,024	-0,004
-273,628	121,043	0,085	-0,076
-272,613	-32,252	0,065	0,026
-271,599	-61,646	-0,031	-0,009
-270,584	800,000	-0,040	0,094
-269,570	800,000	0,028	0,081
-268,555	94,418	0,045	-0,037
-267,540	-178,317	-0,054	-0,001
-266,526	800,000	0,026	-0,056
-265,511	247,957	0,043	0,053
-264,497	-84,055	0,138	0,031
-263,482	-200,000	-0,018	0,089
-262,467	96,687	-0,041	-0,034
-261,453	-200,000	-0,016	0,054
-260,438	302,343	0,069	-0,092
-259,424	249,481	-0,066	0,081
-258,409	38,723	-0,065	-0,042
-257,395	-48,643	0,076	0,026
-256,380	349,955	0,077	0,111
-255,365	-101,272	0,098	-0,017
-254,351	-200,000	0,016	0,071
-253,336	215,708	-0,101	0,116
-252,322	800,000	0,017	-0,037
-251,307	-200,000	0,037	-0,128
-250,292	111,214	0,037	0,033
-249,278	83,591	0,040	-0,031
-248,263	-200,000	0,026	0,199
-247,249	313,775	-0,043	-0,058
-246,234	-200,000	-0,012	-0,063
-245,219	452,973	-0,063	-0,101
-244,205	-200,000	0,006	0,057
-243,190	-120,084	0,105	-0,013
-242,176	283,952	-0,043	0,056
-241,161	30,843	0,058	0,036
-240,146	-155,147	0,127	-0,006
-239,132	12,675	-0,156	-0,087
-238,117	-200,000	0,005	-0,071
-237,103	-200,000	-0,011	-0,050
-236,088	-89,992	-0,046	-0,010
-235,073	194,621	0,072	-0,079
-234,059	280,438	0,091	-0,118
-233,044	-72,211	-0,006	-0,002
-232,030	-77,683	-0,131	-0,032
-231,015	-128,295	-0,093	-0,009
-230,000	746,604	-0,080	-0,157
-228,986	-200,000	0,022	-0,076
-227,971	22,752	-0,084	0,049
-226,957	324,891	-0,061	0,084
-225,942	9,173	-0,036	0,019
-224,927	512,735	-0,036	-0,061
-223,913	337,006	0,051	-0,071
-222,898	-200,000	-0,006	-0,137
-221,884	-110,046	0,020	0,003
-220,869	-89,837	0,059	-0,012
-219,855	-157,210	0,062	0,003
-218,840	800,000	-0,053	-0,118
-217,825	800,000	0,012	0,029
-216,811	-55,131	0,055	0,018
-215,796	260,909	0,026	0,032
-214,782	-38,596	-0,017	0,006
-213,767	-200,000	-0,007	-0,025
-212,752	-200,000	-0,013	0,083
-211,738	372,390	0,017	-0,026
-210,723	-178,016	0,124	-0,002
-209,709	83,205	0,076	0,059
-208,694	1,301	0,011	0,006
-207,679	800,000	-0,014	-0,040
-206,665	297,148	0,105	0,139
-205,650	723,320	0,027	0,052
-204,636	329,908	-0,104	-0,144
-203,621	800,000	-0,072	0,157
-202,606	800,000	0,054	-0,136
-201,592	-25,421	-0,111	0,047
-200,577	-150,590	0,091	0,005
-199,563	800,000	0,057	-0,131
-198,548	248,024	0,088	0,107
-197,533	-42,381	0,042	-0,015
-196,519	12,242	0,160	-0,088
-195,504	114,569	0,107	0,094
-194,490	-100,443	-0,073	-0,013
-193,475	-200,000	0,028	-0,114
-192,460	220,607	-0,060	0,070
-191,446	-107,907	0,041	-0,006
-190,431	-104,942	0,032	0,005
-189,417	-200,000	0,002	-0,027
-188,402	-200,000	-0,003	-0,148
-187,387	-200,000	-0,027	-0,232
-186,373	-200,000	-0,008	-0,027
-185,358	83,219	0,070	-0,055
-184,344	-44,617	-0,076	-0,027
-183,329	75,192	0,156	0,118
-182,315	-195,923	-0,016	0,000
-181,300	800,000	-0,074	-0,172
-180,285	56,546	-0,133	-0,093
-179,271	800,000	-0,008	-0,024
-178,256	133,166	-0,108	-0,100
-177,242	800,000	0,064	-0,136
-176,227	172,861	0,106	-0,110
-175,212	-109,707	0,171	-0,026
-174,198	-153,786	-0,036	-0,002
-173,183	515,295	-0,064	-0,107
-172,169	800,000	0,033	-0,068
-171,154	800,000	-0,053	-0,159
-170,139	-71,640	0,094	0,025
-169,125	800,000	0,048	0,097
-168,110	-116,301	0,128	-0,017
-167,096	-91,194	-0,114	-0,023
-166,081	153,911	-0,081	-0,080
-165,066	104,392	-0,103	-0,087
-164,052	-200,000	-0,013	0,118
-163,037	-200,000	0,009	-0,097
-162,023	153,944	-0,054	0,054
-161,008	800,000	-0,027	-0,077
-159,993	198,060	-0,040	0,044
-158,979	-38,999	0,082	-0,031
-157,964	29,431	-0,034	-0,021
-156,950	257,972	0,041	0,051
-155,935	800,000	0,022	-0,064
-154,920	33,622	-0,098	-0,061
-153,906	-50,432	-0,102	-0,034
-152,891	29,585	0,090	0,055
-151,877	69,986	-0,105	-0,078
-150,862	800,000	-0,033	0,068
-149,847	800,000	0,019	-0,045
-148,833	800,000	-0,018	0,055
-147,818	5,180	0,138	0,073
-146,804	800,000	-0,057	0,156
-145,789	800,000	0,053	0,166
-144,775	-45,652	-0,061	0,022
-143,760	208,064	-0,053	0,060
-142,745	800,000	0,062	-0,174
-141,731	608,471	0,032	-0,058
-140,716	-42,644	0,127	0,046
-139,702	441,832	-0,033	-0,052
-138,687	-121,407	-0,095	-0,011
-137,672	105,384	-0,033	0,028
-136,658	57,153	-0,030	-0,021
-135,643	-51,941	-0,088	0,029
-134,629	-24,301	0,030	0,013
-133,614	5,206	0,076	-0,040
-132,599	-200,000	-0,011	0,046
-131,585	159,528	-0,029	0,029
-130,570	414,223	-0,052	0,079
-129,556	57,536	-0,069	-0,048
-128,541	800,000	0,042	-0,092
-127,526	755,741	0,103	-0,201
-126,512	3,137	-0,021	-0,011
-125,497	-200,000	-0,013	-0,117
-124,483	-73,333	-0,089	0,023
-123,468	-11,161	0,131	0,062
-122,453	156,540	-0,081	-0,080
-121,439	800,000	-0,018	0,056
-120,424	-94,625	0,078	-0,015
-119,410	800,000	-0,039	0,101
-118,395	800,000	-0,025	0,076
-117,380	-59,184	0,043	0,013
-116,366	171,093	-0,087	0,089
-115,351	-200,000	-0,000	0,010
-114,337	-200,000	-0,048	-0,237
-113,322	800,000	0,060	-0,129
-112,307	-96,129	0,129	-0,024
-111,293	-97,359	-0,056	-0,010
-110,278	-200,000	-0,035	-0,198
-109,264	-50,743	-0,086	0,029
-108,249	728,116	-0,068	-0,131
-107,234	169,555	0,022	-0,022
-106,220	-161,639	0,086	0,003
-105,205	-23,549	0,075	0,032
-104,191	103,935	-0,016	-0,014
-103,176	-200,000	-0,005	0,085
-102,162	229,968	-0,027	0,032
-101,147	-73,357	0,102	0,027
-100,132	120,911	-0,073	0,065
-99,118	-200,000	0,012	0,085
-98,103	-71,111	0,098	0,026
-97,089	195,475	0,027	0,029
-96,074	-128,601	0,085	-0,008
-95,059	301,130	-0,052	-0,069
-94,045	-109,758	-0,121	-0,018
-93,030	-200,000	-0,008	-0,117
-92,016	524,302	-0,074	-0,125
-91,001	800,000	0,056	0,136
-89,986	86,018	0,021	0,017
-88,972	-49,020	-0,085	0,029
-87,957	-200,000	-0,003	-0,015
-86,943	-74,366	-0,117	-0,030
-85,928	-24,374	0,063	0,027
-84,913	158,110	-0,075	0,074
-83,899	-200,000	-0,019	-0,061
-82,884	-200,000	0,006	0,051
-81,870	-200,000	0,023	-0,143
-80,855	-200,000	-0,034	0,151
-79,840	-200,000	0,009	0,114
-78,826	-200,000	-0,026	-0,119
-77,811	-130,908	-0,058	-0,005
-76,797	87,397	-0,063	0,050
-75,782	800,000	0,046	0,114
-74,767	77,720	-0,030	-0,023
-73,753	95,372	0,087	0,071
-72,738	355,830	0,054	0,077
-71,724	-200,000	-0,026	-0,197
-70,709	-102,957	0,112	0,019
-69,694	-57,591	-0,077	-0,024
-68,680	-141,765	0,219	0,016
-67,665	-200,000	0,015	0,083
-66,651	344,847	-0,088	0,123
-65,636	-200,000	-0,013	-0,084
-64,622	-80,820	0,082	-0,019
-63,607	-38,904	0,054	-0,020
-62,592	80,698	0,080	-0,062
-61,578	-200,000	0,013	-0,097
-60,563	99,059	0,180	0,148
-59,549	-91,252	-0,151	-0,031
-58,534	35,673	-2,255	-1,415
-57,519	-200,000	-0,120	-0,745
-56,505	-200,000	-1,460	-5,158
-55,490	77,835	0,926	0,705
-54,476	800,000	5,375	12,316
-53,461	-200,000	19,309	324,734
-52,446	800,000	748,261	2321,925
-51,432	544,142	1659,840	2846,942
-50,417	113,801	1639,932	1425,986
-49,403	79,699	1288,574	989,085
-48,388	30,667	1028,399	628,215
-47,373	19,589	991,032	568,873
-46,359	16,493	978,919	551,748
-45,344	13,083	975,646	538,705
-44,330	13,448	973,777	538,848
-43,315	12,717	971,974	535,440
-42,300	12,639	970,989	534,620
-41,286	12,716	969,846	534,222
-40,271	12,641	969,131	533,560
-39,257	12,664	968,009	532,998
-38,242	12,667	967,136	532,504
-37,227	12,725	966,449	532,294
-36,213	12,601	965,537	531,367
-35,198	12,609	964,553	530,831
-34,184	12,691	963,668	530,589
-33,169	12,626	962,791	529,873
-32,154	12,693	961,868	529,562
-31,140	12,619	960,961	528,803
-30,125	12,682	960,380	528,666
-29,111	12,660	959,435	528,055
-28,096	12,631	958,839	527,611
-27,082	12,676	958,041	527,295
-26,067	12,716	957,236	526,961
-25,052	12,669	956,615	526,448
-24,038	12,648	955,871	525,949
-23,023	12,633	955,454	525,650
-22,009	12,753	954,589	525,540
-20,994	12,680	954,090	525,008
-19,979	12,681	953,436	524,633
-18,965	12,670	952,807	524,231
-17,950	12,682	952,251	523,943
-16,936	12,634	951,475	523,340
-15,921	12,605	950,914	522,919
-14,906	12,603	950,158	522,474
-13,892	12,526	949,709	521,963
-12,877	12,503	948,968	521,461
-11,863	12,514	948,215	521,060
-10,848	12,531	947,873	520,905
-9,833	12,711	947,125	521,047
-8,819	12,623	946,476	520,390
-7,804	12,586	945,814	519,888
-6,790	12,587	945,214	519,542
-5,775	12,621	944,861	519,433
-4,760	12,562	944,202	518,863
-3,746	12,579	943,511	518,517
-2,731	12,418	942,818	517,607
-1,717	12,412	942,273	517,266
-0,702	12,384	941,538	516,754
0,313	12,261	940,837	516,762
1,327	15,726	938,727	526,485
2,342	25,044	793,315	469,575
3,356	21,431	459,141	266,226
4,371	-5,267	317,471	155,462
5,386	-9,250	299,593	142,625
6,400	-10,833	293,338	138,050
7,415	-10,989	290,802	136,690
8,429	-11,109	289,502	135,948
9,444	-11,376	288,438	135,173
10,459	-11,314	287,849	134,946
11,473	-11,254	287,195	134,687
12,488	-11,419	286,432	134,155
13,502	-11,765	286,025	133,615
14,517	-11,531	285,591	133,628
15,531	-11,568	285,332	133,459
16,546	-11,343	284,701	133,371
17,561	-11,402	284,492	133,204
18,575	-11,213	284,038	133,162
19,590	-11,405	283,692	132,802
20,604	-11,303	283,564	132,829
21,619	-11,363	283,128	132,556
22,634	-11,293	282,650	132,387
23,648	-11,267	282,260	132,218
24,663	-11,391	282,130	132,026
25,677	-11,368	281,916	131,936
26,692	-11,356	281,587	131,782
27,707	-11,330	281,449	131,730
28,721	-11,236	280,901	131,552
29,736	-11,237	280,692	131,441
30,750	-11,242	280,466	131,319
31,765	-11,456	280,248	131,001
32,780	-11,219	279,990	131,095
33,794	-11,242	279,671	130,913
34,809	-11,152	279,396	130,858
35,823	-11,270	279,071	130,582
36,838	-11,531	278,871	130,228
37,853	-11,505	278,737	130,179
38,867	-11,449	278,456	130,089
39,882	-11,418	278,360	130,062
40,896	-11,288	277,910	129,963
41,911	-11,337	277,615	129,768
42,926	-11,411	277,621	129,688
43,940	-11,326	277,207	129,563
44,955	-11,375	276,949	129,386
45,969	-11,505	276,659	129,116
46,984	-11,524	276,502	129,013
47,999	-11,585	276,290	128,846
49,013	-11,469	276,021	128,817
50,028	-11,646	275,908	128,587
51,042	-11,635	275,477	128,385
52,057	-11,767	275,378	128,204
53,071	-11,724	275,048	128,079
54,086	-11,646	274,878	128,061
55,101	-11,724	274,718	127,903
56,115	-11,678	274,496	127,831
57,130	-11,427	274,220	127,924
58,144	-11,423	273,929	127,781
59,159	-11,463	273,600	127,580
60,174	-11,471	273,635	127,576
61,188	-11,265	273,269	127,586
62,203	-11,390	273,065	127,363
63,217	-11,377	272,910	127,292
64,232	-11,325	272,743	127,251
65,247	-11,469	272,292	126,896
66,261	-11,481	272,156	126,810
67,276	-11,495	271,865	126,650
68,290	-11,497	271,575	126,502
69,305	-11,700	271,336	126,192
70,320	-11,504	271,124	126,263
71,334	-11,492	271,040	126,224
72,349	-11,401	270,921	126,241
73,363	-11,409	270,519	126,035
74,378	-11,389	270,209	125,898
75,393	-11,373	270,186	125,890
76,407	-11,297	269,924	125,827
77,422	-11,520	269,613	125,466
78,436	-11,378	269,412	125,491
79,451	-11,575	269,182	125,193
80,466	-11,329	268,912	125,281
81,480	-11,518	268,776	125,034
82,495	-11,589	268,522	124,840
83,509	-11,575	268,295	124,736
84,524	-11,553	268,181	124,692
85,539	-11,723	268,077	124,477
86,553	-11,598	267,766	124,436
87,568	-11,556	267,573	124,374
88,582	-11,835	267,312	123,988
89,597	-11,405	266,990	124,216
90,611	-11,517	267,088	124,150
91,626	-11,560	266,848	123,989
92,641	-11,591	266,770	123,913
93,655	-11,485	266,500	123,872
94,670	-11,451	266,025	123,671
95,684	-11,583	265,923	123,494
96,699	-11,469	265,718	123,490
97,714	-11,516	265,574	123,369
98,728	-11,525	265,344	123,244
99,743	-11,558	265,114	123,096
100,757	-11,636	264,869	122,902
101,772	-11,758	264,757	122,729
102,787	-11,749	264,409	122,565
103,801	-11,566	264,356	122,693
104,816	-11,529	264,066	122,581
105,830	-11,587	263,961	122,469
106,845	-11,655	263,735	122,293
107,860	-11,653	263,556	122,201
108,874	-11,643	263,241	122,053
109,889	-11,668	263,054	121,933
110,903	-11,706	262,889	121,812
111,918	-11,654	262,554	121,692
112,933	-11,587	262,441	121,688
113,947	-11,532	262,255	121,640
114,962	-11,558	261,943	121,461
115,976	-11,507	262,025	121,534
116,991	-11,551	261,810	121,385
118,006	-11,361	261,598	121,443
119,020	-11,545	261,421	121,188
120,035	-11,489	261,287	121,164
121,049	-11,308	261,022	121,191
122,064	-11,475	260,750	120,906
123,079	-11,682	260,638	120,661
124,093	-11,776	260,523	120,514
125,108	-11,745	260,169	120,367
126,122	-11,537	259,846	120,390
127,137	-11,521	259,744	120,345
128,151	-11,717	259,515	120,057
129,166	-11,930	259,438	119,824
130,181	-11,614	259,162	119,962
131,195	-11,686	258,910	119,772
132,210	-11,645	258,769	119,732
133,224	-11,594	258,571	119,675
134,239	-11,487	258,191	119,580
135,254	-11,510	258,096	119,506
136,268	-11,649	257,905	119,286
137,283	-11,569	257,710	119,255
138,297	-11,528	257,547	119,205
139,312	-11,679	257,260	118,930
140,327	-11,584	257,262	119,003
141,341	-11,462	257,218	119,077
142,356	-11,441	256,903	118,939
143,370	-11,470	256,592	118,759
144,385	-11,320	256,573	118,870
145,400	-11,270	256,349	118,799
146,414	-11,148	256,156	118,804
147,429	-11,471	255,912	118,402
148,443	-11,607	255,796	118,220
149,458	-11,427	255,538	118,245
150,473	-11,423	255,442	118,194
151,487	-11,309	255,102	118,124
152,502	-11,293	255,150	118,150
153,516	-11,411	255,048	117,990
154,531	-11,297	254,618	117,879
155,546	-11,323	254,316	117,706
156,560	-11,330	254,191	117,632
157,575	-11,556	254,023	117,350
158,589	-11,525	253,782	117,255
159,604	-11,351	253,694	117,352
160,619	-11,026	253,626	117,588
161,633	-11,022	253,564	117,552
162,648	-11,166	253,337	117,314
163,662	-11,314	252,905	116,978
164,677	-11,360	252,801	116,879
165,692	-11,395	252,633	116,762
166,706	-11,226	252,588	116,874
167,721	-11,078	252,336	116,873
168,735	-11,212	252,431	116,792
169,750	-11,396	252,112	116,478
170,764	-11,329	251,985	116,466
171,779	-11,211	251,514	116,338
172,794	-11,254	251,529	116,299
173,808	-11,393	251,369	116,097
174,823	-11,594	251,058	115,773
175,837	-11,730	250,844	115,549
176,852	-11,562	250,952	115,730
177,867	-11,447	250,628	115,667
178,881	-11,440	250,482	115,596
179,896	-11,491	250,199	115,412
180,910	-11,177	250,059	115,600
181,925	-11,287	249,991	115,466
182,940	-11,337	249,684	115,272
183,954	-11,572	249,541	114,999
184,969	-11,297	249,633	115,262
185,983	-11,015	249,320	115,343
186,998	-11,059	249,329	115,301
188,013	-11,269	249,051	114,986
189,027	-11,242	248,816	114,890
190,042	-11,405	248,562	114,626
191,056	-11,569	248,400	114,404
192,071	-11,668	248,174	114,207
193,086	-11,482	247,813	114,186
194,100	-11,467	247,737	114,153
195,115	-11,112	247,619	114,384
196,129	-11,062	247,483	114,352
197,144	-11,164	247,165	114,110
198,159	-11,435	247,128	113,858
199,173	-11,462	246,936	113,737
200,188	-11,844	246,723	113,313
201,202	-11,768	246,361	113,199
202,217	-11,878	246,219	113,033
203,232	-11,947	246,041	112,884
204,246	-11,905	245,737	112,769
205,261	-11,670	245,583	112,882
206,275	-11,944	245,476	112,597
207,290	-11,131	245,773	113,393
208,304	-7,145	247,013	117,256
209,319	-4,048	247,958	120,264
210,334	-2,798	248,175	121,395
211,348	-1,936	248,293	122,156
212,363	-1,328	248,164	122,585
213,377	-1,053	248,242	122,842
214,392	-0,794	248,293	123,070
215,407	-0,333	248,337	123,463
216,421	-0,527	248,127	123,187
217,436	-0,445	247,791	123,076
218,450	-0,610	247,726	122,897
219,465	-0,649	247,444	122,715
220,480	-0,695	247,322	122,605
221,494	-0,606	247,198	122,606
222,509	-0,663	246,866	122,383
223,523	-0,542	246,792	122,435
224,538	-0,442	246,493	122,358
225,553	-0,670	246,360	122,094
226,567	-0,611	246,172	122,038
227,582	-0,493	246,041	122,060
228,596	-0,711	245,933	121,816
229,611	-0,959	245,789	121,530
230,626	-0,805	245,572	121,539
231,640	-0,875	245,566	121,467
232,655	-0,795	245,218	121,350
233,669	-0,709	245,108	121,354
234,684	-1,022	244,999	121,035
235,699	-0,887	244,814	121,043
236,713	-0,792	244,561	120,983
237,728	-0,691	244,534	121,042
238,742	-0,792	244,287	120,827
239,757	-0,723	244,102	120,780
240,772	-0,899	244,065	120,608
241,786	-0,754	243,802	120,585
242,801	-0,822	243,631	120,435
243,815	-0,626	243,446	120,491
244,830	-0,342	243,224	120,601
245,844	-0,866	243,100	120,105
246,859	-0,691	242,885	120,129
247,874	-0,902	242,930	119,971
248,888	-0,833	242,543	119,824
249,903	-0,662	242,655	120,006
250,917	-0,933	242,297	119,601
251,932	-0,871	242,158	119,572
252,947	-0,829	242,040	119,536
253,961	-0,617	241,726	119,541
254,976	-0,699	241,636	119,420
255,990	-0,794	241,469	119,250
257,005	-0,891	241,375	119,116
258,020	-0,767	241,216	119,126
259,034	-0,786	241,055	119,020
260,049	-0,800	240,873	118,909
261,063	-0,772	240,718	118,844
262,078	-0,735	240,662	118,835
263,093	-0,675	240,434	118,760
264,107	-0,776	240,283	118,594
265,122	-0,745	240,266	118,600
266,136	-0,750	239,960	118,435
267,151	-0,884	239,812	118,244
268,166	-0,690	239,604	118,285
269,180	-0,609	239,369	118,223
270,195	-0,714	239,405	118,147
271,209	-0,886	239,258	117,927
272,224	-0,642	239,170	118,066
273,239	-0,672	238,783	117,842
274,253	-0,586	238,739	117,878
275,268	-0,727	238,587	117,680
276,282	-0,780	238,441	117,556
277,297	-0,866	238,308	117,413
278,312	-0,756	238,223	117,447
279,326	-0,583	237,923	117,424
280,341	-0,448	237,876	117,498
281,355	-0,505	237,687	117,349
282,370	-0,555	237,484	117,198
283,384	-0,712	237,369	117,008
284,399	-0,700	237,390	117,018
285,414	-0,612	237,137	116,952
286,428	-0,599	236,908	116,838
287,443	-0,506	236,928	116,911
288,457	-0,564	236,624	116,705
289,472	-0,480	236,474	116,686
290,487	-0,476	236,350	116,618
291,501	-0,526	236,102	116,446
292,516	-0,653	236,112	116,341
293,530	-0,610	235,949	116,284
294,545	-0,393	235,611	116,276
295,560	-0,636	235,695	116,118
296,574	-0,441	235,565	116,195
297,589	-0,562	235,264	115,943
298,603	-0,539	235,256	115,946
299,618	-0,496	235,013	115,849
300,633	-0,483	234,913	115,800
301,647	-0,320	234,657	115,790
302,662	-0,291	234,640	115,793
303,676	-0,516	234,477	115,528
304,691	-0,358	234,273	115,540
305,706	-0,459	234,130	115,381
306,720	-0,488	234,034	115,301
307,735	-0,283	233,698	115,284
308,749	-0,441	233,777	115,190
309,764	-0,065	233,538	115,352
310,779	-0,206	233,379	115,155
311,793	-0,283	233,308	115,050
312,808	-0,372	233,206	114,921
313,822	-0,257	232,965	114,880
314,837	-0,096	232,682	114,855
315,852	-0,337	232,583	114,610
316,866	-0,304	232,633	114,650
317,881	-0,315	232,426	114,529
318,895	-0,026	232,253	114,656
319,910	-0,095	232,026	114,480
320,925	-0,320	231,947	114,259
321,939	-0,182	231,825	114,294
322,954	-0,030	231,731	114,354
323,968	-0,077	231,504	114,196
324,983	-0,132	231,404	114,094
325,997	-0,183	231,256	113,972
327,012	-0,058	231,022	113,942
328,027	-0,087	230,749	113,775
329,041	-0,106	230,756	113,754
330,056	-0,164	230,639	113,642
331,070	-0,141	230,412	113,538
332,085	0,104	230,272	113,645
333,100	-0,088	230,197	113,452
334,114	-0,109	230,089	113,372
335,129	-0,064	229,971	113,338
336,143	0,067	229,813	113,350
337,158	-0,038	229,608	113,159
338,173	-0,070	229,477	113,060
339,187	0,212	229,340	113,195
340,202	0,153	229,206	113,074
341,216	0,051	229,055	112,913
342,231	0,083	229,026	112,913
343,246	-0,093	228,914	112,715
344,260	0,169	228,582	112,739
345,275	0,255	228,507	112,756
346,289	-0,109	228,503	112,470
347,304	0,071	228,128	112,411
348,319	0,280	227,937	112,464
349,333	0,178	227,891	112,355
350,348	-0,014	227,861	112,185
351,362	0,098	227,675	112,168
352,377	0,093	227,570	112,102
353,392	0,262	227,346	112,109
354,406	0,122	227,297	111,970
355,421	196,142	1318,046	1392,415
356,435	157,303	1450,884	1392,357
