DTS Sentinel unit serial number:	SN410029Multiplexer serial number:	ORYXHardware model number:	OX2-SRSoftware version number:	ORYX F/W v4,00 Oryx Data Collector v3.7.2.0data status	okinstallation	B5 Nyhavnadifferential loss correction	single-endedforward channel	channel 2reverse channel	N/Adate	2023/12/14time	17:22:13forward acquisition time	300,00reverse acquisition time	0,00gamma	499,1914k internal	0,3157k external	0,3157temperature offset calibration	1,0000default loss term (dB/km)	0,3820temperature slope calibration	1,0000multiplexer offset coefficient	1,0000multiplexer slope coefficient	1,0000fibre end	0,00T internal ref (°C)	8,20T ext. ref 1 (°C)	-7,21T ext. ref 2 (°C)	-7,25length (m)	temperature (°C)	Stokes	anti-Stokes-744,400	-14,384	0,199	0,094
-743,385	-105,236	-0,357	-0,059
-742,371	-189,002	0,191	0,002
-741,356	-141,738	-0,304	-0,022
-740,342	103,992	0,127	0,110
-739,327	-185,391	-0,258	0,003
-738,312	181,779	0,074	0,081
-737,298	-99,675	-0,327	-0,060
-736,283	-122,118	0,157	-0,019
-735,269	-120,373	-0,413	-0,051
-734,254	550,740	0,125	0,222
-733,239	13,809	-0,540	-0,309
-732,225	-82,022	0,320	0,076
-731,210	333,895	0,112	0,160
-730,196	-200,000	-0,023	0,177
-729,181	129,731	0,040	-0,038
-728,167	-200,000	0,005	-0,069
-727,152	318,565	-0,048	-0,067
-726,137	42,515	-0,061	-0,041
-725,123	75,233	0,145	0,113
-724,108	-128,070	-0,076	-0,008
-723,094	216,065	-0,030	-0,035
-722,079	79,756	-0,046	-0,037
-721,064	651,706	0,016	-0,030
-720,050	-200,000	0,009	0,134
-719,035	800,000	-0,031	0,087
-718,021	265,840	-0,065	0,083
-717,006	59,774	0,044	-0,032
-715,991	-175,178	-0,131	0,003
-714,977	-180,457	-0,135	-0,002
-713,962	-95,423	-0,108	-0,021
-712,948	496,006	-0,049	-0,084
-711,933	116,831	-0,054	0,049
-710,918	124,307	0,067	0,062
-709,904	800,000	-0,041	-0,120
-708,889	67,107	-0,119	0,089
-707,875	28,768	0,041	0,026
-706,860	501,407	-0,018	0,031
-705,845	-200,000	0,044	0,198
-704,831	-200,000	-0,014	0,155
-703,816	-200,000	0,010	-0,081
-702,802	-58,894	0,100	-0,031
-701,787	-114,730	-0,097	-0,013
-700,772	-200,000	0,009	-0,175
-699,758	-200,000	-0,003	0,042
-698,743	-86,547	0,077	-0,017
-697,729	-200,000	-0,001	0,122
-696,714	-36,966	0,096	-0,038
-695,699	-200,000	-0,000	0,064
-694,685	-75,417	0,022	0,006
-693,670	111,640	0,098	0,087
-692,656	-113,433	-0,081	0,012
-691,641	-66,169	0,134	-0,039
-690,627	102,255	-0,045	0,039
-689,612	-88,814	-0,067	0,015
-688,597	-148,121	-0,098	-0,006
-687,583	496,354	-0,080	-0,136
-686,568	90,150	-0,067	0,055
-685,554	-17,996	-0,075	-0,035
-684,539	138,952	-0,035	0,034
-683,524	270,125	0,073	0,095
-682,510	82,947	0,034	-0,027
-681,495	71,986	-0,111	-0,085
-680,481	-105,454	-0,234	-0,039
-679,466	-200,000	0,008	-0,083
-678,451	552,231	0,069	-0,123
-677,437	15,975	0,105	0,061
-676,422	-200,000	-0,034	0,196
-675,408	275,052	0,087	0,113
-674,393	-200,000	-0,032	-0,118
-673,378	-200,000	-0,039	-0,131
-672,364	-200,000	-0,009	-0,043
-671,349	27,800	-0,105	0,065
-670,335	179,120	-0,036	0,038
-669,320	-111,529	-0,121	-0,018
-668,305	616,105	0,036	0,066
-667,291	124,683	0,061	-0,056
-666,276	394,552	0,040	-0,061
-665,262	-124,199	-0,042	-0,005
-664,247	800,000	-0,051	-0,119
-663,232	30,327	0,033	-0,021
-662,218	800,000	0,045	-0,093
-661,203	800,000	0,035	0,098
-660,189	533,396	0,017	-0,029
-659,174	-200,000	-0,016	-0,081
-658,159	-200,000	-0,025	-0,103
-657,145	573,360	-0,070	-0,126
-656,130	29,503	-0,102	-0,064
-655,116	-200,000	0,002	-0,052
-654,101	-10,358	-0,055	-0,027
-653,086	80,618	-0,083	0,066
-652,072	531,794	0,099	0,172
-651,057	-200,000	-0,025	-0,108
-650,043	197,371	-0,022	0,025
-649,028	272,814	-0,073	0,094
-648,014	49,877	0,073	0,051
-646,999	-13,407	-0,081	0,038
-645,984	-173,444	0,073	-0,002
-644,970	271,514	-0,056	0,072
-643,955	-200,000	0,011	-0,079
-642,941	-200,000	0,028	-0,130
-641,926	-49,460	-0,111	0,039
-640,911	165,546	0,040	0,042
-639,897	413,782	-0,035	0,054
-638,882	-200,000	0,017	0,088
-637,868	40,759	-0,072	0,047
-636,853	-0,731	-0,080	-0,042
-635,838	84,149	-0,039	-0,031
-634,824	222,109	-0,036	0,043
-633,809	-200,000	0,022	0,081
-632,795	-154,231	-0,066	-0,003
-631,780	-114,828	0,139	-0,019
-630,765	-58,478	-0,049	0,016
-629,751	-72,223	-0,054	0,015
-628,736	696,949	0,040	0,077
-627,722	-200,000	-0,017	-0,104
-626,707	62,560	-0,025	-0,019
-625,692	800,000	-0,050	0,113
-624,678	800,000	0,015	0,043
-623,663	800,000	-0,049	0,122
-622,649	-200,000	0,001	0,049
-621,634	602,083	-0,028	0,051
-620,619	763,652	0,025	-0,049
-619,605	-200,000	-0,010	0,116
-618,590	781,783	0,052	0,105
-617,576	196,503	-0,111	-0,124
-616,561	-200,000	0,011	0,172
-615,546	17,906	0,117	0,068
-614,532	-121,698	0,037	-0,004
-613,517	-100,578	-0,081	-0,015
-612,503	-200,000	-0,011	-0,050
-611,488	515,526	0,051	-0,088
-610,474	800,000	0,026	-0,053
-609,459	29,098	-0,171	0,106
-608,444	275,942	-0,090	-0,118
-607,430	262,726	0,089	-0,114
-606,415	-200,000	0,016	-0,168
-605,401	256,894	-0,049	0,062
-604,386	324,212	-0,018	0,026
-603,371	159,521	-0,052	0,053
-602,357	321,875	0,042	0,058
-601,342	28,154	0,060	-0,037
-600,328	271,924	-0,022	0,028
-599,313	-53,578	0,041	-0,014
-598,298	129,556	0,045	0,043
-597,284	-76,701	0,057	-0,015
-596,269	-87,569	0,047	-0,010
-595,255	-200,000	0,006	0,124
-594,240	361,089	0,009	0,013
-593,225	56,870	-0,040	0,029
-592,211	55,102	-0,094	-0,066
-591,196	-200,000	-0,022	-0,074
-590,182	-69,176	0,088	0,025
-589,167	-200,000	-0,008	-0,048
-588,152	99,478	0,034	0,029
-587,138	-200,000	-0,003	-0,168
-586,123	40,074	-0,035	0,023
-585,109	-84,480	0,072	-0,016
-584,094	-200,000	0,039	0,164
-583,079	800,000	-0,012	0,035
-582,065	800,000	-0,028	0,089
-581,050	-200,000	-0,032	-0,132
-580,036	-181,365	0,167	-0,002
-579,021	486,495	0,035	0,058
-578,006	-110,646	-0,234	-0,035
-576,992	-92,906	-0,126	-0,026
-575,977	137,285	-0,092	0,088
-574,963	-117,015	0,106	0,014
-573,948	115,853	0,076	-0,068
-572,934	-79,503	-0,078	0,019
-571,919	-62,188	0,024	0,007
-570,904	-200,000	0,003	-0,072
-569,890	483,951	0,019	-0,032
-568,875	472,909	-0,003	-0,005
-567,861	-200,000	0,102	0,000
-566,846	588,031	-0,041	-0,075
-565,831	-128,547	-0,054	0,006
-564,817	17,322	0,080	-0,046
-563,802	64,320	-0,059	-0,043
-562,788	-200,000	-0,002	0,147
-561,773	-83,217	0,158	-0,037
-560,758	124,451	-0,022	-0,021
-559,744	53,672	0,083	0,059
-558,729	-52,738	0,046	-0,015
-557,715	129,868	0,138	-0,129
-556,700	-122,769	-0,083	-0,010
-555,685	-156,663	-0,071	0,003
-554,671	340,283	0,028	0,041
-553,656	7,891	0,144	-0,079
-552,642	105,137	0,059	0,051
-551,627	-200,000	-0,012	-0,045
-550,612	-46,133	-0,096	0,034
-549,598	-81,728	0,129	-0,031
-548,583	-200,000	0,029	-0,101
-547,569	11,614	-0,078	-0,043
-546,554	72,068	0,066	-0,050
-545,539	743,137	-0,014	-0,028
-544,525	-129,427	0,063	0,006
-543,510	-24,473	-0,079	-0,034
-542,496	-38,766	-0,029	-0,011
-541,481	143,058	-0,033	0,032
-540,466	-132,987	-0,006	-0,001
-539,452	-32,221	0,081	-0,033
-538,437	71,328	0,112	-0,085
-537,423	-66,165	-0,032	0,009
-536,408	800,000	-0,011	0,024
-535,393	110,712	-0,054	0,048
-534,379	542,056	-0,066	-0,115
-533,364	43,988	0,144	-0,096
-532,350	150,043	-0,034	-0,034
-531,335	218,376	0,063	0,073
-530,321	-200,000	0,010	0,059
-529,306	800,000	-0,037	-0,085
-528,291	-143,395	-0,081	-0,006
-527,277	-23,263	0,105	-0,046
-526,262	81,978	0,048	-0,038
-525,248	-26,179	-0,044	0,019
-524,233	-200,000	-0,022	0,071
-523,218	147,440	-0,059	0,058
-522,204	5,226	0,114	0,061
-521,189	-200,000	0,001	-0,027
-520,175	40,713	-0,070	-0,046
-519,160	221,737	0,030	0,035
-518,145	258,401	0,051	-0,065
-517,131	-47,438	-0,106	0,037
-516,116	228,873	0,052	0,062
-515,102	240,795	-0,115	0,140
-514,087	-115,972	-0,118	-0,016
-513,072	31,773	0,010	0,006
-512,058	-104,119	-0,022	-0,004
-511,043	57,137	0,027	0,019
-510,029	59,306	-0,094	-0,067
-509,014	231,049	0,071	-0,085
-507,999	-200,000	0,009	-0,119
-506,985	110,745	0,074	-0,065
-505,970	36,170	-0,056	-0,036
-504,956	13,481	-0,037	0,021
-503,941	-95,347	0,128	-0,025
-502,926	-41,845	0,122	-0,046
-501,912	-66,134	-0,038	-0,011
-500,897	162,430	-0,080	0,082
-499,883	800,000	-0,020	-0,041
-498,868	-200,000	-0,009	-0,060
-497,853	-153,608	-0,041	-0,002
-496,839	-83,733	0,088	0,020
-495,824	57,237	0,032	-0,023
-494,810	-200,000	0,028	-0,201
-493,795	40,559	0,015	0,010
-492,781	211,576	-0,106	-0,122
-491,766	-157,574	0,039	0,002
-490,751	162,629	-0,042	0,043
-489,737	-82,340	0,068	-0,016
-488,722	-58,630	-0,064	-0,020
-487,708	800,000	0,016	-0,045
-486,693	18,197	0,088	0,051
-485,678	8,309	0,039	0,021
-484,664	-84,556	0,045	0,010
-483,649	800,000	0,023	-0,070
-482,635	96,707	-0,105	0,088
-481,620	-65,177	0,139	0,041
-480,605	-54,286	0,149	-0,049
-479,591	84,928	-0,128	0,103
-478,576	12,892	0,133	-0,075
-477,562	160,474	-0,120	0,123
-476,547	-200,000	-0,002	-0,074
-475,532	-157,242	0,053	0,002
-474,518	304,208	-0,030	0,041
-473,503	661,914	0,032	0,060
-472,489	-51,966	-0,142	0,048
-471,474	800,000	0,015	0,038
-470,459	-200,000	0,029	-0,140
-469,445	168,377	-0,066	0,068
-468,430	34,286	-0,063	0,040
-467,416	507,406	0,046	0,079
-466,401	-0,712	0,073	0,037
-465,386	735,418	-0,042	-0,083
-464,372	800,000	-0,011	0,028
-463,357	27,723	-0,093	0,057
-462,343	-200,000	-0,001	0,030
-461,328	-200,000	-0,000	0,045
-460,313	171,547	-0,059	-0,062
-459,299	206,668	0,059	-0,067
-458,284	-117,888	-0,034	0,004
-457,270	-24,274	-0,011	0,005
-456,255	701,463	0,058	0,112
-455,241	-48,854	0,087	0,030
-454,226	800,000	0,027	0,070
-453,211	800,000	0,040	0,104
-452,197	-36,545	0,114	0,045
-451,182	-200,000	-0,022	-0,120
-450,168	-79,262	0,134	0,033
-449,153	193,840	-0,030	-0,034
-448,138	-13,396	-0,061	-0,029
-447,124	144,509	0,114	-0,111
-446,109	137,333	0,175	-0,167
-445,095	800,000	0,012	-0,036
-444,080	75,003	-0,122	0,094
-443,065	-33,048	0,093	-0,037
-442,051	58,991	0,077	-0,055
-441,036	800,000	0,017	0,040
-440,022	-200,000	-0,041	-0,137
-439,007	599,101	0,057	0,103
-437,992	159,501	-0,093	0,095
-436,978	-85,040	-0,116	-0,026
-435,963	800,000	0,011	-0,023
-434,949	800,000	0,038	0,093
-433,934	74,673	-0,194	-0,148
-432,919	-200,000	0,004	-0,138
-431,905	-24,338	-0,073	-0,032
-430,890	58,026	0,144	0,102
-429,876	-200,000	-0,045	0,215
-428,861	-122,016	0,125	0,015
-427,846	184,235	0,052	-0,056
-426,832	-200,000	-0,031	-0,113
-425,817	800,000	0,064	-0,164
-424,803	3,286	0,039	-0,020
-423,788	-200,000	0,021	0,165
-422,773	800,000	0,046	-0,096
-421,759	-147,817	-0,095	-0,006
-420,744	800,000	0,026	-0,072
-419,730	-67,269	-0,035	-0,010
-418,715	-200,000	-0,012	-0,081
-417,701	78,302	0,095	-0,074
-416,686	800,000	0,044	0,125
-415,671	-12,188	0,130	0,062
-414,657	-200,000	0,006	0,083
-413,642	102,164	-0,089	0,075
-412,628	-82,156	0,106	0,025
-411,613	121,393	-0,127	-0,115
-410,598	-200,000	0,061	-0,202
-409,584	79,743	-0,151	0,118
-408,569	435,726	0,033	-0,053
-407,555	-137,574	0,069	-0,006
-406,540	351,820	-0,038	-0,056
-405,525	58,283	-0,117	-0,083
-404,511	-43,657	-0,076	-0,028
-403,496	-115,735	-0,075	-0,010
-402,482	51,464	0,084	0,058
-401,467	-200,000	-0,005	0,049
-400,452	216,100	0,061	-0,071
-399,438	76,750	0,109	0,084
-398,423	9,773	-0,111	0,061
-397,409	112,622	-0,064	-0,056
-396,394	600,556	0,051	-0,092
-395,379	77,114	-0,065	-0,050
-394,365	-200,000	0,008	-0,054
-393,350	-57,447	-0,030	-0,009
-392,336	139,238	0,046	-0,044
-391,321	55,987	-0,051	-0,036
-390,306	800,000	-0,049	-0,107
-389,292	233,330	-0,038	-0,046
-388,277	280,212	0,037	-0,048
-387,263	-200,000	0,043	-0,171
-386,248	359,115	-0,070	-0,102
-385,233	160,810	-0,019	0,019
-384,219	-200,000	0,019	0,062
-383,204	-95,976	0,106	-0,020
-382,190	-97,241	-0,163	-0,031
-381,175	36,970	0,067	-0,043
-380,160	-200,000	0,007	0,069
-379,146	54,265	-0,150	0,105
-378,131	385,550	0,056	0,084
-377,117	48,774	0,128	0,087
-376,102	5,065	-0,057	-0,030
-375,088	-130,256	-0,048	0,005
-374,073	800,000	0,037	-0,107
-373,058	133,334	-0,091	-0,085
-372,044	800,000	0,077	0,180
-371,029	-200,000	-0,014	0,143
-370,015	142,385	-0,029	-0,028
-369,000	-52,211	0,097	-0,033
-367,985	19,956	0,053	-0,031
-366,971	-60,202	0,112	-0,034
-365,956	-200,000	0,013	0,072
-364,942	-22,522	0,089	0,039
-363,927	43,578	-0,032	-0,022
-362,912	-11,310	0,079	0,038
-361,898	800,000	0,051	-0,112
-360,883	-200,000	0,005	-0,113
-359,869	-131,406	-0,103	0,010
-358,854	-200,000	0,020	-0,088
-357,839	-186,175	0,192	0,002
-356,825	-200,000	-0,011	0,059
-355,810	738,726	0,043	0,085
-354,796	55,363	-0,017	-0,012
-353,781	800,000	-0,007	-0,021
-352,766	33,381	-0,127	-0,080
-351,752	769,117	0,018	-0,037
-350,737	762,065	-0,022	-0,043
-349,723	84,035	-0,118	0,094
-348,708	-200,000	-0,007	0,057
-347,693	-38,873	-0,103	-0,039
-346,679	120,451	-0,085	0,077
-345,664	135,382	-0,052	0,049
-344,650	800,000	-0,019	0,047
-343,635	-166,118	0,058	0,002
-342,620	800,000	0,058	0,116
-341,606	-17,410	-0,074	0,034
-340,591	-200,000	-0,005	-0,032
-339,577	21,650	0,102	-0,060
-338,562	534,854	0,019	0,032
-337,548	-200,000	0,011	0,056
-336,533	798,200	0,049	0,098
-335,518	800,000	0,059	0,128
-334,504	-200,000	-0,006	0,044
-333,489	-200,000	-0,014	-0,118
-332,475	-35,596	0,136	-0,053
-331,460	-106,352	-0,165	-0,027
-330,445	29,322	0,104	0,064
-329,431	-200,000	-0,006	0,020
-328,416	-135,699	0,124	-0,011
-327,402	28,702	0,072	-0,044
-326,387	59,980	-0,148	-0,106
-325,372	-21,450	0,179	-0,079
-324,358	162,693	-0,138	-0,141
-323,343	-138,677	0,005	-0,000
-322,329	-97,452	-0,072	-0,013
-321,314	-200,000	-0,012	0,117
-320,299	16,596	-0,044	0,025
-319,285	86,839	0,037	0,030
-318,270	-151,448	-0,044	-0,002
-317,256	-200,000	0,028	-0,127
-316,241	234,748	-0,068	0,081
-315,226	-93,314	0,110	-0,022
-314,212	99,126	-0,023	0,020
-313,197	-200,000	-0,016	-0,123
-312,183	-200,000	-0,004	0,060
-311,168	258,951	-0,053	-0,066
-310,153	136,301	0,124	-0,117
-309,139	47,302	-0,048	0,032
-308,124	-200,000	-0,003	-0,016
-307,110	800,000	0,064	0,158
-306,095	-200,000	-0,003	-0,025
-305,080	-64,667	-0,037	0,011
-304,066	-156,299	-0,130	-0,006
-303,051	-200,000	-0,019	0,112
-302,037	517,781	0,025	-0,043
-301,022	-127,758	-0,081	-0,008
-300,008	212,476	0,115	0,132
-298,993	213,950	-0,064	-0,073
-297,978	30,966	0,084	-0,052
-296,964	58,242	-0,060	0,042
-295,949	-200,000	-0,035	0,151
-294,935	-49,473	-0,039	0,013
-293,920	101,869	0,055	-0,047
-292,905	476,708	0,032	-0,053
-291,891	-200,000	0,004	0,103
-290,876	274,646	-0,037	-0,048
-289,862	-200,000	-0,013	-0,059
-288,847	-61,853	-0,066	-0,020
-287,832	800,000	-0,020	-0,062
-286,818	-200,000	0,018	0,070
-285,803	35,850	-0,069	0,044
-284,789	162,075	-0,073	-0,074
-283,774	-200,000	0,009	0,169
-282,759	-104,230	-0,111	-0,018
-281,745	56,169	-0,077	-0,054
-280,730	-101,554	-0,197	-0,034
-279,716	60,038	-0,042	-0,030
-278,701	26,000	0,037	0,022
-277,686	-46,496	0,092	-0,033
-276,672	-200,000	-0,003	0,026
-275,657	93,856	0,058	0,048
-274,643	-185,980	-0,066	0,001
-273,628	-143,400	-0,134	-0,009
-272,613	235,341	0,071	0,085
-271,599	-20,331	-0,078	0,034
-270,584	800,000	-0,038	0,112
-269,570	408,060	0,010	0,015
-268,555	405,663	0,006	-0,009
-267,540	-200,000	-0,006	-0,040
-266,526	-177,515	0,054	-0,001
-265,511	253,753	0,013	-0,016
-264,497	-200,000	0,010	0,188
-263,482	518,210	0,073	-0,125
-262,467	-200,000	0,032	0,107
-261,453	-31,258	-0,064	-0,026
-260,438	-200,000	-0,016	0,090
-259,424	37,136	-0,013	0,008
-258,409	-105,671	-0,149	0,024
-257,395	-200,000	0,017	-0,088
-256,380	795,836	-0,013	0,027
-255,365	-200,000	0,013	0,082
-254,351	-143,051	-0,050	-0,003
-253,336	-200,000	0,008	-0,056
-252,322	270,643	-0,037	0,048
-251,307	-85,001	0,046	-0,010
-250,292	-99,894	-0,023	-0,004
-249,278	115,826	0,045	0,040
-248,263	459,224	0,053	0,085
-247,249	354,402	0,076	0,110
-246,234	31,690	-0,086	-0,053
-245,219	-48,137	-0,059	-0,020
-244,205	-198,533	0,182	-0,001
-243,190	125,830	-0,038	0,034
-242,176	800,000	-0,003	-0,009
-241,161	-200,000	-0,019	-0,062
-240,146	-106,140	-0,048	-0,008
-239,132	507,610	0,048	0,081
-238,117	-200,000	0,031	0,103
-237,103	800,000	-0,049	-0,115
-236,088	481,741	-0,042	-0,069
-235,073	-200,000	-0,012	0,042
-234,059	106,817	0,058	0,049
-233,044	23,787	0,058	0,034
-232,030	-200,000	0,000	-0,002
-231,015	-7,152	-0,080	0,039
-230,000	535,870	0,078	-0,135
-228,986	-200,000	0,001	0,066
-227,971	-174,303	0,167	-0,003
-226,957	80,511	0,095	0,074
-225,942	-200,000	-0,006	0,074
-224,927	-22,911	0,007	-0,003
-223,913	639,376	-0,056	-0,103
-222,898	110,483	0,040	0,034
-221,884	-42,454	-0,080	0,029
-220,869	-10,464	-0,072	0,035
-219,855	196,056	-0,050	0,055
-218,840	-146,721	-0,085	0,005
-217,825	194,942	0,007	-0,008
-216,811	-200,000	-0,020	0,163
-215,796	-200,000	0,016	-0,110
-214,782	-200,000	0,007	-0,071
-213,767	800,000	-0,031	-0,092
-212,752	-200,000	0,015	-0,087
-211,738	90,143	0,086	-0,070
-210,723	-178,068	-0,114	-0,002
-209,709	221,859	-0,084	-0,097
-208,694	-42,059	-0,106	-0,039
-207,679	800,000	-0,016	-0,049
-206,665	-121,664	0,092	-0,011
-205,650	21,911	0,126	0,074
-204,636	-200,000	0,023	0,079
-203,621	102,212	0,018	-0,015
-202,606	516,323	-0,124	-0,210
-201,592	276,474	-0,071	-0,091
-200,577	191,991	0,112	-0,122
-199,563	-166,298	0,077	0,002
-198,548	-200,000	0,019	-0,081
-197,533	-11,759	-0,006	0,003
-196,519	530,037	-0,030	-0,051
-195,504	-111,208	-0,087	0,013
-194,490	81,469	0,071	-0,055
-193,475	-49,656	-0,168	0,057
-192,460	-200,000	0,021	-0,147
-191,446	-186,188	0,102	-0,001
-190,431	24,775	0,127	0,076
-189,417	-109,041	-0,150	0,023
-188,402	-197,154	0,163	-0,001
-187,387	-104,509	-0,079	-0,013
-186,373	1,946	-0,080	-0,041
-185,358	90,734	-0,157	-0,127
-184,344	-200,000	0,028	0,130
-183,329	800,000	0,017	0,053
-182,315	-200,000	-0,020	-0,106
-181,300	-101,958	-0,114	0,020
-180,285	-200,000	0,004	0,027
-179,271	462,718	0,019	0,031
-178,256	-85,021	-0,151	0,034
-177,242	800,000	0,053	0,141
-176,227	25,225	0,118	0,070
-175,212	-200,000	0,010	0,236
-174,198	433,930	-0,177	0,278
-173,183	800,000	-0,028	-0,078
-172,169	64,189	0,029	-0,021
-171,154	-200,000	0,020	0,143
-170,139	32,108	0,034	-0,021
-169,125	113,482	0,075	-0,066
-168,110	-53,304	-0,036	0,012
-167,096	-137,962	0,116	0,009
-166,081	-200,000	0,001	0,046
-165,066	-170,939	0,133	-0,003
-164,052	-200,000	-0,007	0,103
-163,037	-200,000	-0,014	0,107
-162,023	-74,025	0,127	0,033
-161,008	439,544	0,055	0,087
-159,993	-200,000	-0,010	0,048
-158,979	-122,131	-0,130	0,015
-157,964	-200,000	-0,028	-0,218
-156,950	-141,082	0,111	-0,008
-155,935	-132,462	-0,125	0,011
-154,920	107,624	0,044	-0,038
-153,906	12,972	0,096	-0,053
-152,891	-118,877	-0,056	0,007
-151,877	474,158	-0,025	-0,041
-150,862	307,538	-0,091	0,123
-149,847	800,000	-0,028	-0,069
-148,833	44,279	0,182	0,120
-147,818	800,000	-0,011	0,032
-146,804	800,000	0,017	0,034
-145,789	207,077	0,052	0,059
-144,775	192,544	-0,047	0,051
-143,760	800,000	0,013	0,031
-142,745	800,000	-0,039	-0,085
-141,731	800,000	-0,029	-0,075
-140,716	-200,000	-0,002	-0,025
-139,702	612,821	0,100	0,181
-138,687	-200,000	-0,016	0,076
-137,672	144,822	-0,103	0,099
-136,658	31,430	0,124	0,077
-135,643	-82,713	-0,049	-0,011
-134,629	-200,000	-0,005	-0,069
-133,614	800,000	0,028	0,084
-132,599	800,000	0,020	-0,042
-131,585	-93,876	0,070	-0,014
-130,570	-5,505	-0,073	0,036
-129,556	-200,000	-0,001	0,058
-128,541	-23,975	0,148	-0,064
-127,526	24,898	0,074	0,044
-126,512	-170,874	0,052	-0,001
-125,497	800,000	0,013	-0,037
-124,483	-200,000	0,017	0,132
-123,468	673,340	-0,059	0,110
-122,453	-200,000	0,013	-0,061
-121,439	112,318	0,112	-0,098
-120,424	175,957	-0,070	-0,073
-119,410	26,224	0,115	0,069
-118,395	45,660	0,064	-0,042
-117,380	103,969	-0,027	-0,023
-116,366	-32,323	-0,063	-0,025
-115,351	-200,000	0,006	-0,042
-114,337	166,377	0,051	-0,052
-113,322	-19,253	-0,043	-0,019
-112,307	245,828	0,062	-0,075
-111,293	139,439	0,066	0,063
-110,278	-200,000	-0,005	-0,073
-109,264	35,241	0,104	0,065
-108,249	136,457	-0,044	0,041
-107,234	-200,000	0,002	-0,018
-106,220	236,587	-0,055	0,066
-105,205	-200,000	0,002	-0,106
-104,191	125,657	0,044	0,040
-103,176	87,198	-0,107	0,085
-102,162	-92,742	0,032	-0,006
-101,147	79,790	-0,018	-0,014
-100,132	-200,000	0,008	-0,141
-99,118	-81,964	0,117	-0,027
-98,103	-84,284	0,158	-0,036
-97,089	146,332	0,026	0,026
-96,074	-200,000	0,015	-0,049
-95,059	435,939	-0,068	0,107
-94,045	196,585	-0,064	0,070
-93,030	-103,965	-0,142	0,024
-92,016	183,603	0,029	0,031
-91,001	-113,971	-0,116	-0,016
-89,986	582,013	-0,049	0,087
-88,972	50,853	0,137	0,093
-87,957	175,233	-0,075	-0,079
-86,943	-143,174	0,102	0,007
-85,928	45,023	0,051	0,033
-84,913	-21,780	-0,090	0,039
-83,899	-54,453	0,060	-0,019
-82,884	-18,593	-0,077	-0,034
-81,870	665,068	0,096	0,178
-80,855	-200,000	0,013	0,143
-79,840	-75,088	0,087	-0,022
-78,826	800,000	-0,014	-0,030
-77,811	-200,000	-0,026	-0,118
-76,797	-95,314	0,019	0,004
-75,782	39,962	0,021	-0,013
-74,767	-150,127	0,075	0,004
-73,753	794,734	-0,049	0,097
-72,738	310,420	0,052	-0,070
-71,724	-164,142	-0,085	-0,003
-70,709	-200,000	0,009	0,086
-69,694	360,862	-0,026	-0,038
-68,680	-200,000	0,001	-0,040
-67,665	-19,713	-0,116	-0,051
-66,651	800,000	0,044	0,117
-65,636	454,524	-0,023	0,036
-64,622	192,739	-0,034	0,037
-63,607	600,114	-0,050	-0,089
-62,592	-66,793	-0,053	0,015
-61,578	800,000	0,064	0,129
-60,563	46,379	-0,073	0,048
-59,549	-200,000	-0,015	0,122
-58,534	90,769	-2,538	-2,041
-57,519	34,412	0,439	-0,274
-56,505	-200,000	-1,584	-5,593
-55,490	485,335	1,198	1,966
-54,476	800,000	5,200	11,250
-53,461	-200,000	22,006	346,005
-52,446	800,000	761,114	2304,666
-51,432	516,239	1649,583	2777,698
-50,417	100,716	1613,791	1345,558
-49,403	69,552	1269,871	937,703
-48,388	24,168	1019,763	602,871
-47,373	19,058	986,359	566,226
-46,359	13,000	973,457	538,951
-45,344	8,858	970,275	523,580
-44,330	9,274	968,129	523,762
-43,315	8,273	966,502	519,587
-42,300	8,239	965,193	518,748
-41,286	8,243	964,187	518,203
-40,271	8,196	963,329	517,567
-39,257	8,235	962,330	517,137
-38,242	8,226	961,414	516,595
-37,227	8,229	960,640	516,167
-36,213	8,258	959,903	515,846
-35,198	8,214	959,027	515,210
-34,184	8,235	958,228	514,830
-33,169	8,243	957,225	514,297
-32,154	8,268	956,527	513,981
-31,140	8,190	955,702	513,265
-30,125	8,324	954,856	513,225
-29,111	8,253	953,954	512,491
-28,096	8,282	953,297	512,210
-27,082	8,247	952,446	511,619
-26,067	8,179	951,884	511,077
-25,052	8,225	951,063	510,766
-24,038	8,203	950,289	510,260
-23,023	8,193	949,651	509,862
-22,009	8,193	949,257	509,634
-20,994	8,255	948,462	509,384
-19,979	8,278	947,831	509,100
-18,965	8,203	947,305	508,555
-17,950	8,222	946,829	508,341
-16,936	8,196	945,859	507,716
-15,921	8,203	945,379	507,461
-14,906	8,174	944,550	506,904
-13,892	8,180	943,919	506,565
-12,877	8,071	943,496	505,968
-11,863	8,097	942,915	505,719
-10,848	8,108	942,197	505,349
-9,833	8,244	941,635	505,462
-8,819	8,187	940,946	504,891
-7,804	8,129	940,194	504,283
-6,790	8,110	939,858	504,021
-5,775	8,192	939,249	503,936
-4,760	8,174	938,408	503,406
-3,746	8,119	938,119	503,057
-2,731	8,025	937,425	502,367
-1,717	7,985	936,733	501,849
-0,702	7,990	936,020	501,464
0,313	7,794	935,523	501,334
1,327	11,269	933,150	510,990
2,342	20,043	781,687	451,094
3,356	15,423	448,632	251,910
4,371	-10,808	312,385	147,533
5,386	-14,553	294,923	135,488
6,400	-16,702	288,832	130,549
7,415	-16,961	286,003	129,005
8,429	-17,737	284,036	127,350
9,444	-17,917	283,315	126,841
10,459	-17,868	282,579	126,548
11,473	-17,964	282,042	126,203
12,488	-17,714	281,532	126,205
13,502	-17,754	281,050	125,939
14,517	-17,782	280,587	125,693
15,531	-17,874	280,126	125,387
16,546	-17,944	279,649	125,096
17,561	-17,969	279,299	124,904
18,575	-17,810	279,108	124,960
19,590	-17,986	278,653	124,576
20,604	-17,776	278,392	124,649
21,619	-17,993	278,056	124,281
22,634	-17,981	277,614	124,083
23,648	-17,922	277,156	123,923
24,663	-17,657	276,991	124,091
25,677	-17,867	276,927	123,852
26,692	-17,902	276,508	123,620
27,707	-18,078	276,196	123,303
28,721	-17,872	275,945	123,375
29,736	-17,855	275,743	123,289
30,750	-17,987	275,554	123,069
31,765	-17,922	275,145	122,937
32,780	-17,917	275,166	122,940
33,794	-17,815	274,624	122,782
34,809	-17,920	274,276	122,518
35,823	-18,013	274,160	122,367
36,838	-17,786	273,948	122,475
37,853	-17,808	273,612	122,293
38,867	-17,765	273,467	122,257
39,882	-18,015	273,312	121,944
40,896	-17,740	273,002	122,052
41,911	-17,897	272,699	121,758
42,926	-17,809	272,301	121,652
43,940	-17,898	272,186	121,507
44,955	-17,889	272,030	121,435
45,969	-17,661	271,777	121,522
46,984	-17,705	271,641	121,410
47,999	-17,750	271,563	121,322
49,013	-17,829	271,159	121,058
50,028	-17,593	270,882	121,142
51,042	-17,682	270,673	120,956
52,057	-17,639	270,490	120,903
53,071	-17,714	270,318	120,746
54,086	-17,732	269,931	120,546
55,101	-17,701	269,824	120,516
56,115	-17,813	269,568	120,287
57,130	-17,786	269,321	120,191
58,144	-17,838	269,005	119,991
59,159	-17,843	268,772	119,873
60,174	-17,890	268,638	119,759
61,188	-17,837	268,304	119,649
62,203	-17,832	268,153	119,574
63,217	-17,947	268,117	119,442
64,232	-17,808	267,649	119,350
65,247	-17,766	267,391	119,264
66,261	-17,881	267,151	119,040
67,276	-18,025	267,007	118,835
68,290	-17,587	266,759	119,113
69,305	-17,778	266,472	118,800
70,320	-17,737	266,276	118,740
71,334	-17,906	266,081	118,488
72,349	-17,678	265,682	118,507
73,363	-17,711	265,643	118,449
74,378	-17,652	265,430	118,397
75,393	-17,805	265,090	118,096
76,407	-17,759	264,985	118,080
77,422	-17,752	264,754	117,973
78,436	-17,535	264,349	117,978
79,451	-17,854	264,313	117,664
80,466	-17,566	264,035	117,789
81,480	-17,707	263,815	117,553
82,495	-17,734	263,550	117,400
83,509	-17,870	263,441	117,220
84,524	-17,944	263,413	117,130
85,539	-17,534	263,055	117,328
86,553	-17,773	262,850	117,011
87,568	-17,685	262,635	116,985
88,582	-17,590	262,355	116,934
89,597	-17,505	262,151	116,909
90,611	-17,836	261,919	116,500
91,626	-17,483	261,707	116,709
92,641	-17,694	261,532	116,433
93,655	-17,656	261,401	116,399
94,670	-17,686	261,066	116,212
95,684	-17,760	260,932	116,076
96,699	-17,706	260,736	116,027
97,714	-17,628	260,407	115,940
98,728	-17,651	260,308	115,865
99,743	-17,506	260,073	115,877
100,757	-17,616	259,872	115,681
101,772	-17,795	259,759	115,462
102,787	-17,779	259,472	115,338
103,801	-17,756	259,221	115,236
104,816	-17,596	259,146	115,334
105,830	-17,769	258,979	115,097
106,845	-17,631	258,662	115,068
107,860	-17,787	258,488	114,843
108,874	-17,613	258,311	114,906
109,889	-17,524	257,961	114,818
110,903	-17,595	257,766	114,660
111,918	-17,713	257,789	114,556
112,933	-17,722	257,445	114,385
113,947	-17,677	257,270	114,336
114,962	-17,723	257,094	114,208
115,976	-17,737	256,990	114,139
116,991	-17,736	256,694	113,998
118,006	-17,764	256,544	113,897
119,020	-17,719	256,428	113,874
120,035	-17,759	256,265	113,757
121,049	-17,540	255,968	113,806
122,064	-17,554	255,860	113,735
123,079	-17,662	255,554	113,495
124,093	-17,649	255,364	113,412
125,108	-17,646	255,053	113,267
126,122	-17,523	255,011	113,344
127,137	-17,512	255,016	113,346
128,151	-17,469	254,612	113,193
129,166	-17,567	254,541	113,067
130,181	-17,572	254,113	112,862
131,195	-17,652	254,082	112,770
132,210	-17,542	253,834	112,745
133,224	-17,662	253,642	112,546
134,239	-17,656	253,425	112,444
135,254	-17,529	253,230	112,457
136,268	-17,687	253,128	112,266
137,283	-17,572	252,806	112,212
138,297	-17,485	252,517	112,148
139,312	-17,697	252,507	111,952
140,327	-17,616	252,334	111,935
141,341	-17,672	251,833	111,655
142,356	-17,481	251,829	111,806
143,370	-17,588	251,683	111,640
144,385	-17,557	251,474	111,564
145,400	-17,695	251,237	111,331
146,414	-17,715	250,944	111,174
147,429	-17,701	250,765	111,097
148,443	-17,675	250,630	111,050
149,458	-17,582	250,560	111,088
150,473	-17,567	250,423	111,030
151,487	-17,722	250,137	110,762
152,502	-17,516	249,862	110,804
153,516	-17,486	249,698	110,747
154,531	-17,623	249,490	110,530
155,546	-17,375	249,405	110,691
156,560	-17,496	249,127	110,456
157,575	-17,573	249,087	110,363
158,589	-17,573	248,695	110,180
159,604	-17,410	248,526	110,232
160,619	-17,588	248,433	110,031
161,633	-17,743	248,293	109,830
162,648	-17,684	248,116	109,791
163,662	-17,571	247,950	109,802
164,677	-17,397	247,865	109,901
165,692	-17,515	247,519	109,639
166,706	-17,634	247,435	109,493
167,721	-17,632	247,252	109,404
168,735	-17,529	247,310	109,506
169,750	-17,518	246,928	109,336
170,764	-17,468	246,826	109,322
171,779	-17,675	246,609	109,044
172,794	-17,554	246,542	109,106
173,808	-17,511	246,356	109,049
174,823	-17,523	246,134	108,931
175,837	-17,516	245,865	108,808
176,852	-17,551	245,830	108,754
177,867	-17,629	245,548	108,555
178,881	-17,418	245,532	108,713
179,896	-17,481	245,155	108,484
180,910	-17,644	245,208	108,363
181,925	-17,400	244,908	108,422
182,940	-17,465	244,735	108,283
183,954	-17,646	244,637	108,081
184,969	-17,398	244,236	108,098
185,983	-17,454	244,059	107,964
186,998	-17,547	244,087	107,890
188,013	-17,436	243,789	107,840
189,027	-17,790	243,662	107,483
190,042	-17,601	243,537	107,574
191,056	-17,630	243,262	107,419
192,071	-17,460	243,191	107,518
193,086	-17,498	243,021	107,401
194,100	-17,425	242,806	107,356
195,115	-17,435	242,634	107,263
196,129	-17,490	242,467	107,135
197,144	-17,490	242,189	107,002
198,159	-17,371	241,962	106,990
199,173	-17,371	241,861	106,935
200,188	-17,661	241,749	106,640
201,202	-17,398	241,519	106,743
202,217	-17,304	241,329	106,726
203,232	-17,452	241,161	106,522
204,246	-17,192	240,943	106,627
205,261	-17,409	240,914	106,429
206,275	-15,776	241,368	107,948
207,290	-11,437	242,861	112,155
208,304	-5,707	244,699	117,707
209,319	-2,904	245,212	120,250
210,334	-2,432	245,479	120,758
211,348	-1,817	245,553	121,289
212,363	-1,025	245,446	121,877
213,377	-0,653	245,543	122,219
214,392	-0,061	245,661	122,754
215,407	0,376	245,519	123,031
216,421	0,347	245,418	122,945
217,436	0,413	245,276	122,917
218,450	0,495	245,228	122,949
219,465	0,538	244,977	122,848
220,480	0,491	244,814	122,716
221,494	0,611	244,682	122,738
222,509	0,295	244,473	122,364
223,523	0,219	244,214	122,161
224,538	0,102	244,055	121,976
225,553	0,090	243,852	121,853
226,567	0,101	243,663	121,757
227,582	0,077	243,669	121,730
228,596	0,109	243,574	121,698
229,611	0,436	243,241	121,786
230,626	0,081	243,082	121,407
231,640	0,160	242,857	121,348
232,655	0,047	242,733	121,183
233,669	0,072	242,425	121,039
234,684	0,097	242,340	121,006
235,699	0,079	242,366	120,994
236,713	0,092	242,213	120,917
237,728	0,121	242,067	120,857
238,742	0,103	241,827	120,711
239,757	0,232	241,426	120,605
240,772	0,183	241,452	120,567
241,786	0,010	241,248	120,315
242,801	-0,012	241,215	120,271
243,815	-0,029	241,107	120,192
244,830	-0,237	240,873	119,898
245,844	0,069	240,623	120,008
246,859	0,046	240,541	119,938
247,874	0,057	240,502	119,917
248,888	0,056	240,257	119,784
249,903	0,114	240,046	119,714
250,917	0,029	239,972	119,599
251,932	-0,003	239,909	119,531
252,947	0,212	239,697	119,587
253,961	0,148	239,366	119,359
254,976	-0,041	239,366	119,198
255,990	0,035	239,189	119,160
257,005	0,058	239,013	119,080
258,020	-0,007	238,727	118,875
259,034	0,263	238,600	119,016
260,049	-0,098	238,637	118,737
261,063	0,003	238,490	118,733
262,078	-0,157	238,291	118,496
263,093	-0,034	238,056	118,466
264,107	-0,093	238,043	118,402
265,122	0,035	237,748	118,347
266,136	0,122	237,731	118,397
267,151	0,133	237,404	118,232
268,166	0,424	237,194	118,347
269,180	0,146	237,168	118,103
270,195	0,040	236,978	117,915
271,209	0,248	236,732	117,946
272,224	0,458	236,660	118,065
273,239	0,011	236,481	117,613
274,253	0,168	236,244	117,609
275,268	0,128	236,137	117,513
276,282	0,138	236,028	117,457
277,297	0,149	235,885	117,383
278,312	0,249	235,801	117,409
279,326	0,173	235,563	117,221
280,341	0,155	235,405	117,117
281,355	0,339	235,316	117,207
282,370	0,329	235,126	117,094
283,384	0,144	235,102	116,927
284,399	0,157	234,850	116,801
285,414	0,027	234,837	116,683
286,428	0,077	234,623	116,605
287,443	0,131	234,472	116,562
288,457	0,080	234,275	116,414
289,472	0,304	234,047	116,465
290,487	0,126	233,953	116,269
291,501	0,126	233,817	116,191
292,516	0,194	233,704	116,177
293,530	0,177	233,495	116,050
294,545	0,143	233,475	116,003
295,560	0,157	233,342	115,938
296,574	0,399	233,108	115,998
297,589	0,170	233,001	115,758
298,603	0,399	232,848	115,848
299,618	0,241	232,607	115,596
300,633	0,463	232,530	115,719
301,647	0,360	232,364	115,547
302,662	0,518	232,218	115,585
303,676	0,559	232,246	115,620
304,691	0,314	231,993	115,296
305,706	0,335	231,711	115,161
306,720	0,606	231,661	115,334
307,735	0,366	231,501	115,060
308,749	0,551	231,370	115,127
309,764	0,373	231,287	114,939
310,779	0,309	231,120	114,796
311,793	0,115	231,107	114,631
312,808	0,501	230,815	114,772
313,822	0,569	230,595	114,704
314,837	0,359	230,539	114,506
315,852	0,542	230,389	114,560
316,866	0,483	230,256	114,439
317,881	0,654	230,014	114,439
318,895	0,635	229,918	114,366
319,910	0,511	229,836	114,221
320,925	0,428	229,663	114,062
321,939	0,432	229,449	113,948
322,954	0,597	229,350	114,014
323,968	0,557	229,126	113,862
324,983	0,598	229,054	113,847
325,997	0,362	228,842	113,553
327,012	0,552	228,879	113,705
328,027	0,382	228,461	113,359
329,041	0,548	228,487	113,487
330,056	0,248	228,352	113,183
331,070	0,659	228,119	113,368
332,085	0,465	228,065	113,184
333,100	0,488	227,811	113,066
334,114	0,433	227,663	112,941
335,129	0,479	227,479	112,874
336,143	0,451	227,327	112,768
337,158	0,576	227,306	112,841
338,173	0,740	227,041	112,823
339,187	0,687	226,989	112,747
340,202	0,767	226,802	112,704
341,216	1,001	226,573	112,756
342,231	0,603	226,504	112,413
343,246	0,594	226,411	112,350
344,260	0,659	226,183	112,275
345,275	0,592	226,210	112,229
346,289	0,672	226,058	112,203
347,304	0,845	225,915	112,252
348,319	0,773	225,661	112,062
349,333	0,685	225,501	111,906
350,348	0,506	225,362	111,694
351,362	0,786	225,179	111,802
352,377	0,658	225,249	111,732
353,392	0,781	225,065	111,722
354,406	0,738	224,886	111,591
355,421	191,974	1311,384	1376,585
356,435	153,752	1443,608	1376,425
