DTS Sentinel unit serial number:	SN410029Multiplexer serial number:	ORYXHardware model number:	OX2-SRSoftware version number:	ORYX F/W v4,00 Oryx Data Collector v3.7.2.0data status	okinstallation	B5 Nyhavnadifferential loss correction	single-endedforward channel	channel 2reverse channel	N/Adate	2023/12/12time	10:32:13forward acquisition time	300,00reverse acquisition time	0,00gamma	499,1914k internal	0,3158k external	0,3158temperature offset calibration	1,0000default loss term (dB/km)	0,3820temperature slope calibration	1,0000multiplexer offset coefficient	1,0000multiplexer slope coefficient	1,0000fibre end	0,00T internal ref (°C)	15,00T ext. ref 1 (°C)	-1,34T ext. ref 2 (°C)	-1,62length (m)	temperature (°C)	Stokes	anti-Stokes-744,400	-82,657	0,103	-0,024
-743,385	-124,034	-0,208	-0,024
-742,371	-200,000	0,019	-0,082
-741,356	-65,527	-0,253	0,074
-740,342	174,283	0,071	-0,076
-739,327	-31,431	-0,198	0,082
-738,312	244,508	0,032	0,040
-737,298	18,306	-0,237	-0,139
-736,283	604,038	-0,053	-0,098
-735,269	-21,615	-0,176	0,079
-734,254	-51,956	0,115	0,039
-733,239	-22,428	-0,452	-0,201
-732,225	-97,091	0,214	0,041
-731,210	800,000	-0,045	0,101
-730,196	76,515	0,092	-0,072
-729,181	134,682	-0,106	-0,101
-728,167	3,339	-0,066	-0,036
-727,152	543,160	0,038	-0,067
-726,137	-80,174	-0,071	-0,017
-725,123	343,340	-0,031	-0,044
-724,108	73,740	-0,051	-0,040
-723,094	-200,000	-0,022	-0,114
-722,079	-200,000	0,015	-0,210
-721,064	-28,707	0,064	-0,027
-720,050	800,000	-0,018	0,046
-719,035	-200,000	0,028	-0,112
-718,021	800,000	-0,056	0,126
-717,006	800,000	0,079	-0,198
-715,991	-200,000	-0,013	-0,182
-714,977	58,301	-0,170	-0,122
-713,962	800,000	-0,020	0,045
-712,948	-87,394	-0,039	0,009
-711,933	26,908	0,134	-0,082
-710,918	6,787	-0,043	-0,024
-709,904	-200,000	-0,001	-0,054
-708,889	-200,000	0,005	-0,139
-707,875	200,041	0,035	0,040
-706,860	-186,401	-0,042	-0,000
-705,845	-200,000	-0,033	-0,113
-704,831	-200,000	-0,000	-0,023
-703,816	323,181	-0,051	0,072
-702,802	800,000	-0,044	-0,131
-701,787	-200,000	0,035	-0,115
-700,772	178,801	0,116	-0,125
-699,758	-200,000	0,019	-0,121
-698,743	-162,444	-0,085	-0,003
-697,729	-54,383	-0,030	0,010
-696,714	-200,000	-0,004	0,062
-695,699	235,694	-0,102	-0,125
-694,685	60,193	-0,097	0,071
-693,670	192,999	-0,111	-0,124
-692,656	133,396	-0,073	-0,069
-691,641	148,423	-0,037	-0,037
-690,627	68,204	-0,024	0,018
-689,612	-141,520	-0,068	-0,005
-688,597	180,438	-0,045	-0,048
-687,583	-200,000	0,005	-0,051
-686,568	-200,000	0,014	-0,067
-685,554	-2,337	0,193	-0,099
-684,539	-200,000	0,009	0,106
-683,524	31,201	-0,048	0,030
-682,510	-200,000	0,007	0,025
-681,495	0,710	0,076	-0,040
-680,481	0,717	0,150	-0,079
-679,466	-75,082	-0,140	0,037
-678,451	-23,184	-0,088	-0,039
-677,437	132,756	0,145	-0,138
-676,422	436,046	-0,089	0,143
-675,408	-117,339	-0,059	-0,008
-674,393	99,377	-0,113	0,096
-673,378	87,315	-0,008	-0,007
-672,364	436,559	0,041	-0,067
-671,349	69,868	-0,014	-0,010
-670,335	120,678	0,043	-0,039
-669,320	-71,659	0,022	0,006
-668,305	-3,419	-0,035	0,018
-667,291	97,133	0,036	-0,030
-666,276	375,861	0,024	0,036
-665,262	-49,263	-0,031	-0,011
-664,247	607,271	-0,071	0,130
-663,232	-200,000	0,000	-0,016
-662,218	-200,000	0,004	0,071
-661,203	-115,543	-0,179	-0,024
-660,189	-25,351	0,109	-0,047
-659,174	-200,000	-0,004	-0,101
-658,159	-122,309	0,045	0,005
-657,145	172,674	-0,050	-0,052
-656,130	800,000	-0,020	-0,059
-655,116	-41,512	0,086	-0,032
-654,101	26,744	0,066	0,041
-653,086	-200,000	-0,023	-0,118
-652,072	-97,465	-0,196	0,037
-651,057	-42,060	-0,118	-0,044
-650,043	-0,904	-0,113	0,059
-649,028	150,249	-0,029	0,029
-648,014	47,109	0,062	0,043
-646,999	467,488	-0,048	0,080
-645,984	-200,000	0,005	0,055
-644,970	-200,000	0,015	-0,083
-643,955	-71,982	-0,059	0,016
-642,941	722,688	-0,072	-0,141
-641,926	-106,109	0,136	0,022
-640,911	-41,807	0,042	-0,016
-639,897	-11,336	0,046	-0,022
-638,882	777,223	0,031	-0,063
-637,868	-148,492	-0,013	0,001
-636,853	-138,303	-0,032	-0,003
-635,838	745,826	-0,047	-0,094
-634,824	800,000	0,036	-0,082
-633,809	82,979	0,090	-0,072
-632,795	-200,000	0,018	0,090
-631,780	90,721	0,037	0,030
-630,765	-200,000	-0,010	0,109
-629,751	-181,828	0,063	-0,001
-628,736	-83,910	-0,058	0,013
-627,722	800,000	0,012	-0,032
-626,707	228,551	-0,043	-0,051
-625,692	324,570	0,034	-0,048
-624,678	-45,830	-0,078	-0,028
-623,663	-62,294	0,145	0,044
-622,649	800,000	-0,049	-0,104
-621,634	74,088	0,129	-0,099
-620,619	172,143	-0,089	-0,094
-619,605	-200,000	-0,034	-0,114
-618,590	252,336	-0,126	-0,158
-617,576	-58,086	0,027	-0,009
-616,561	-36,091	0,104	-0,041
-615,546	-135,218	0,058	0,005
-614,532	16,849	-0,144	-0,084
-613,517	800,000	-0,033	-0,072
-612,503	50,090	-0,047	-0,032
-611,488	800,000	-0,013	0,034
-610,474	-200,000	-0,002	-0,087
-609,459	-126,129	0,083	-0,009
-608,444	-200,000	-0,006	0,077
-607,430	138,507	-0,031	-0,030
-606,415	800,000	0,044	-0,115
-605,401	-144,718	0,063	0,004
-604,386	-200,000	-0,003	-0,043
-603,371	-74,373	-0,065	0,017
-602,357	208,484	0,063	0,072
-601,342	-16,224	-0,192	-0,089
-600,328	-133,263	0,129	0,012
-599,313	-200,000	0,007	0,036
-598,298	249,223	-0,066	-0,082
-597,284	800,000	-0,024	0,058
-596,269	-170,923	0,089	0,002
-595,255	-200,000	-0,007	0,038
-594,240	800,000	0,020	-0,050
-593,225	263,721	-0,057	-0,073
-592,211	112,678	-0,025	0,022
-591,196	108,723	0,054	0,047
-590,182	95,623	-0,073	0,061
-589,167	220,314	0,042	0,049
-588,152	-55,504	0,061	0,020
-587,138	48,142	-0,043	-0,029
-586,123	185,979	0,083	-0,090
-585,109	353,796	0,031	0,045
-584,094	-47,336	-0,172	-0,061
-583,079	-132,367	-0,030	-0,003
-582,065	270,691	0,085	-0,110
-581,050	151,205	-0,024	0,024
-580,036	-143,005	0,094	-0,007
-579,021	-200,000	-0,020	-0,133
-578,006	-53,260	-0,034	0,011
-576,992	800,000	-0,015	0,048
-575,977	215,942	0,056	0,065
-574,963	-200,000	0,016	0,064
-573,948	201,863	0,086	-0,097
-572,934	22,736	-0,114	0,068
-571,919	-93,703	-0,123	-0,025
-570,904	-59,890	-0,214	-0,067
-569,890	-74,152	0,114	0,030
-568,875	-45,709	0,068	0,025
-567,861	800,000	-0,038	-0,087
-566,846	-200,000	0,015	0,123
-565,831	800,000	0,013	0,027
-564,817	773,385	-0,067	-0,135
-563,802	777,611	-0,049	0,098
-562,788	-52,550	-0,090	-0,030
-561,773	253,652	-0,046	-0,058
-560,758	-200,000	0,005	0,109
-559,744	-4,568	-0,021	0,011
-558,729	800,000	-0,044	0,099
-557,715	230,041	-0,063	-0,075
-556,700	-200,000	0,006	-0,181
-555,685	-200,000	-0,003	-0,116
-554,671	-90,194	-0,106	0,022
-553,656	87,452	0,058	0,047
-552,642	105,753	0,056	-0,048
-551,627	-83,506	-0,175	-0,041
-550,612	66,570	0,069	-0,051
-549,598	1,630	-0,092	-0,048
-548,583	198,021	-0,021	-0,024
-547,569	57,352	0,095	-0,068
-546,554	69,980	0,051	-0,039
-545,539	-150,342	0,128	-0,007
-544,525	41,042	-0,115	-0,076
-543,510	43,462	0,145	0,096
-542,496	-75,877	-0,092	0,024
-541,481	173,394	0,109	-0,116
-540,466	285,995	0,115	0,152
-539,452	105,532	-0,027	0,023
-538,437	-200,000	-0,004	0,163
-537,423	-136,147	-0,114	0,010
-536,408	258,587	-0,091	-0,115
-535,393	460,043	0,063	0,102
-534,379	717,717	0,015	0,029
-533,364	756,570	-0,050	0,100
-532,350	800,000	-0,027	0,068
-531,335	48,711	0,083	-0,057
-530,321	-200,000	-0,001	0,071
-529,306	262,038	-0,037	0,047
-528,291	800,000	-0,046	-0,124
-527,277	-17,495	0,037	0,017
-526,262	-195,023	-0,080	-0,000
-525,248	-149,432	0,114	0,006
-524,233	-42,914	0,068	-0,025
-523,218	-102,532	-0,111	0,019
-522,204	45,346	-0,093	-0,063
-521,189	800,000	0,018	-0,044
-520,175	-200,000	-0,000	-0,009
-519,160	-64,831	0,057	0,017
-518,145	142,178	0,045	0,043
-517,131	-200,000	0,002	-0,015
-516,116	20,999	0,132	0,078
-515,102	-129,866	-0,066	0,006
-514,087	-200,000	-0,023	0,113
-513,072	-200,000	-0,005	-0,078
-512,058	13,730	0,011	-0,006
-511,043	-200,000	0,015	-0,093
-510,029	82,193	-0,050	-0,039
-509,014	335,103	-0,040	0,056
-507,999	245,044	0,030	0,037
-506,985	-24,386	-0,021	0,009
-505,970	66,509	-0,114	-0,084
-504,956	800,000	-0,028	-0,066
-503,941	580,936	0,034	-0,060
-502,926	800,000	0,016	0,033
-501,912	164,233	-0,049	0,050
-500,897	-200,000	-0,017	0,140
-499,883	-123,216	-0,070	0,008
-498,868	-29,231	-0,117	-0,049
-497,853	-35,872	-0,058	-0,023
-496,839	-200,000	0,020	0,153
-495,824	800,000	-0,024	-0,063
-494,810	-200,000	0,048	0,182
-493,795	-77,768	-0,144	-0,036
-492,781	29,767	0,099	-0,061
-491,766	120,461	-0,118	-0,107
-490,751	-200,000	-0,019	-0,102
-489,737	-130,702	-0,043	0,004
-488,722	800,000	0,038	-0,104
-487,708	-138,981	-0,076	-0,006
-486,693	800,000	-0,022	0,054
-485,678	631,173	-0,049	0,090
-484,664	42,795	-0,076	-0,050
-483,649	91,741	0,108	0,089
-482,635	-85,386	-0,131	-0,029
-481,620	263,853	0,030	0,038
-480,605	405,526	-0,106	0,164
-479,591	800,000	-0,034	0,098
-478,576	-112,718	0,053	0,008
-477,562	75,752	0,110	-0,085
-476,547	-25,744	-0,101	-0,043
-475,532	-45,026	-0,126	0,046
-474,518	-200,000	0,006	0,159
-473,503	36,231	0,077	-0,050
-472,489	-200,000	0,014	-0,048
-471,474	47,266	-0,100	0,068
-470,459	229,921	-0,067	-0,080
-469,445	800,000	-0,034	0,077
-468,430	-119,653	0,019	-0,002
-467,416	-88,434	-0,070	0,015
-466,401	111,935	-0,076	0,067
-465,386	119,990	0,179	-0,162
-464,372	54,524	0,046	0,033
-463,357	-14,036	-0,083	0,039
-462,343	-200,000	0,010	0,098
-461,328	800,000	0,034	0,073
-460,313	-106,666	-0,131	0,021
-459,299	-200,000	0,013	0,075
-458,284	172,015	0,046	0,049
-457,270	-26,610	0,065	0,028
-456,255	800,000	-0,039	-0,081
-455,241	150,009	-0,046	-0,046
-454,226	-64,832	-0,205	0,060
-453,211	800,000	-0,009	0,024
-452,197	238,384	0,044	0,053
-451,182	-30,597	-0,069	0,028
-450,168	-178,936	-0,113	-0,002
-449,153	54,641	0,123	-0,087
-448,138	19,801	-0,102	0,060
-447,124	53,448	0,098	-0,069
-446,109	-56,517	-0,120	-0,038
-445,095	403,942	-0,072	0,111
-444,080	20,737	-0,071	-0,042
-443,065	37,316	0,079	-0,051
-442,051	-146,460	0,094	0,006
-441,036	22,336	-0,105	0,063
-440,022	-200,000	0,003	-0,043
-439,007	6,033	0,065	0,035
-437,992	-64,404	0,073	-0,021
-436,978	-200,000	0,026	-0,093
-435,963	-181,592	-0,033	0,000
-434,949	68,393	-0,237	0,177
-433,934	149,709	-0,035	-0,035
-432,919	-101,313	0,068	-0,012
-431,905	702,110	0,026	0,049
-430,890	32,379	-0,079	0,050
-429,876	434,991	-0,023	0,037
-428,861	800,000	0,015	-0,037
-427,846	-5,061	-0,127	-0,063
-426,832	26,548	-0,135	-0,082
-425,817	89,938	-0,013	0,010
-424,803	-200,000	-0,010	-0,048
-423,788	490,382	0,053	-0,089
-422,773	203,758	-0,102	0,115
-421,759	11,990	-0,116	0,064
-420,744	-22,885	-0,157	0,069
-419,730	-7,065	0,077	0,038
-418,715	-71,896	-0,026	-0,007
-417,701	-26,395	-0,041	0,017
-416,686	243,908	0,076	-0,092
-415,671	-200,000	-0,014	-0,171
-414,657	166,192	-0,032	0,033
-413,642	-16,371	0,077	-0,036
-412,628	-66,433	-0,143	-0,041
-411,613	-107,760	-0,152	-0,024
-410,598	-200,000	-0,024	-0,105
-409,584	800,000	-0,009	0,017
-408,569	-17,204	0,049	0,023
-407,555	-200,000	0,000	0,004
-406,540	-200,000	0,010	-0,079
-405,525	328,082	0,048	0,067
-404,511	800,000	0,046	0,115
-403,496	-200,000	0,021	0,102
-402,482	188,212	0,077	-0,084
-401,467	-142,101	0,023	0,002
-400,452	77,330	-0,050	0,038
-399,438	800,000	0,027	0,073
-398,423	-18,873	-0,059	0,027
-397,409	70,941	0,078	-0,059
-396,394	-200,000	0,018	-0,168
-395,379	800,000	0,056	0,173
-394,365	323,682	0,069	0,095
-393,350	-200,000	0,006	0,064
-392,336	103,884	0,111	-0,095
-391,321	312,550	0,030	-0,041
-390,306	800,000	0,028	0,080
-389,292	-200,000	-0,017	-0,112
-388,277	-200,000	0,024	-0,127
-387,263	800,000	-0,032	-0,077
-386,248	291,343	0,017	0,023
-385,233	-200,000	-0,022	0,147
-384,219	800,000	0,024	-0,074
-383,204	22,504	0,105	-0,062
-382,190	-200,000	-0,002	-0,086
-381,175	255,313	0,057	-0,071
-380,160	800,000	0,030	0,084
-379,146	-131,099	-0,119	0,011
-378,131	-200,000	-0,017	0,243
-377,117	146,962	0,060	-0,059
-376,102	-200,000	0,007	-0,081
-375,088	-129,885	-0,181	-0,018
-374,073	50,703	0,061	-0,042
-373,058	-200,000	-0,010	0,189
-372,044	-200,000	0,015	0,123
-371,029	-200,000	0,008	-0,100
-370,015	-3,787	-0,067	0,034
-369,000	-139,863	0,062	-0,005
-367,985	800,000	0,028	-0,074
-366,971	331,606	0,043	-0,061
-365,956	-68,525	0,025	0,007
-364,942	51,526	0,043	-0,030
-363,927	72,184	0,065	-0,049
-362,912	799,201	0,020	-0,041
-361,898	800,000	0,025	-0,054
-360,883	-17,886	0,079	0,036
-359,869	800,000	0,051	-0,128
-358,854	348,359	-0,018	0,026
-357,839	-25,608	0,089	0,038
-356,825	-200,000	-0,008	0,162
-355,810	-44,959	-0,177	-0,064
-354,796	360,582	-0,061	-0,089
-353,781	96,146	0,054	0,045
-352,766	-170,251	0,077	-0,002
-351,752	-121,509	-0,099	0,012
-350,737	-152,693	0,107	0,005
-349,723	154,217	0,114	0,114
-348,708	133,232	-0,017	0,016
-347,693	800,000	0,018	0,046
-346,679	118,750	-0,137	-0,123
-345,664	-32,487	0,161	-0,065
-344,650	159,149	-0,036	0,037
-343,635	565,902	0,026	-0,046
-342,620	-116,725	-0,037	0,005
-341,606	-51,395	0,130	-0,044
-340,591	-157,068	0,057	-0,002
-339,577	25,756	-0,147	-0,089
-338,562	-200,000	0,002	0,027
-337,548	106,870	0,112	0,096
-336,533	338,081	0,070	-0,100
-335,518	-131,741	0,128	-0,012
-334,504	800,000	0,023	-0,051
-333,489	24,103	0,143	0,086
-332,475	315,335	-0,052	-0,071
-331,460	111,101	0,197	-0,172
-330,445	120,005	0,008	-0,007
-329,431	-158,982	0,069	0,003
-328,416	-128,816	-0,167	-0,017
-327,402	-200,000	-0,017	-0,061
-326,387	8,720	-0,037	-0,020
-325,372	-200,000	-0,006	-0,068
-324,358	155,615	-0,004	-0,004
-323,343	182,627	-0,037	0,040
-322,329	-138,448	0,115	-0,009
-321,314	-200,000	-0,016	0,098
-320,299	-200,000	0,019	0,158
-319,285	540,002	0,096	-0,166
-318,270	10,194	0,034	-0,019
-317,256	-200,000	-0,014	-0,096
-316,241	800,000	0,057	0,129
-315,226	800,000	-0,039	0,099
-314,212	-78,827	0,028	-0,007
-313,197	-124,930	0,112	-0,012
-312,183	395,750	-0,061	0,093
-311,168	255,438	-0,055	0,069
-310,153	98,814	-0,065	-0,055
-309,139	75,123	-0,025	-0,019
-308,124	-95,572	0,081	0,016
-307,110	35,604	-0,101	0,064
-306,095	-80,984	0,086	0,020
-305,080	-200,000	0,001	0,092
-304,066	-57,307	0,077	-0,024
-303,051	800,000	0,076	-0,172
-302,037	245,731	-0,095	-0,116
-301,022	93,561	-0,009	-0,008
-300,008	206,723	-0,042	-0,048
-298,993	-5,457	0,067	0,033
-297,978	41,574	0,060	-0,040
-296,964	174,218	-0,055	-0,058
-295,949	149,963	-0,070	-0,069
-294,935	330,587	-0,024	-0,034
-293,920	395,350	-0,027	0,041
-292,905	-164,119	0,161	-0,005
-291,891	127,079	0,019	0,017
-290,876	161,386	0,043	-0,044
-289,862	47,052	0,073	-0,049
-288,847	800,000	-0,011	-0,029
-287,832	800,000	-0,016	0,045
-286,818	61,640	-0,072	-0,052
-285,803	186,195	-0,024	0,026
-284,789	-200,000	0,059	0,197
-283,774	-200,000	-0,037	0,128
-282,759	-200,000	0,012	0,083
-281,745	-200,000	0,004	-0,135
-280,730	-200,000	-0,015	-0,131
-279,716	-30,368	0,064	-0,026
-278,701	22,585	0,080	0,047
-277,686	-131,387	0,203	0,019
-276,672	-6,947	0,073	0,036
-275,657	-117,938	0,145	0,019
-274,643	-38,581	-0,054	-0,021
-273,628	-200,000	0,006	-0,075
-272,613	-112,125	-0,092	0,013
-271,599	-200,000	0,018	0,074
-270,584	-38,938	-0,078	0,030
-269,570	800,000	0,030	0,086
-268,555	35,850	-0,033	-0,021
-267,540	779,790	0,040	0,079
-266,526	110,333	-0,047	-0,041
-265,511	800,000	0,020	0,041
-264,497	-200,000	-0,018	-0,218
-263,482	200,171	0,083	0,093
-262,467	152,256	-0,032	-0,032
-261,453	-200,000	0,008	0,111
-260,438	279,681	0,034	0,044
-259,424	94,810	-0,100	-0,083
-258,409	377,484	0,042	0,062
-257,395	800,000	0,068	0,143
-256,380	-10,529	-0,096	0,046
-255,365	47,797	0,077	-0,052
-254,351	364,127	-0,022	0,032
-253,336	-109,382	-0,154	0,023
-252,322	-200,000	0,001	-0,064
-251,307	800,000	-0,054	-0,117
-250,292	126,238	0,120	-0,110
-249,278	174,075	0,165	0,173
-248,263	800,000	-0,071	0,207
-247,249	-200,000	0,019	0,130
-246,234	44,074	0,138	0,091
-245,219	222,268	0,060	0,070
-244,205	87,364	-0,075	-0,060
-243,190	-67,068	0,052	-0,015
-242,176	-172,314	0,110	-0,002
-241,161	-200,000	0,006	0,062
-240,146	301,062	-0,068	0,090
-239,132	-136,531	-0,009	0,001
-238,117	159,769	0,038	0,038
-237,103	-200,000	0,031	-0,160
-236,088	800,000	-0,023	-0,073
-235,073	-28,586	-0,062	-0,026
-234,059	1,459	0,043	-0,022
-233,044	800,000	-0,056	-0,151
-232,030	-33,944	-0,089	0,035
-231,015	-112,461	-0,136	0,019
-230,000	-62,198	0,069	-0,021
-228,986	-118,468	-0,094	-0,012
-227,971	-73,838	-0,082	-0,021
-226,957	669,313	0,025	0,047
-225,942	-200,000	0,032	0,154
-224,927	-147,826	-0,045	-0,003
-223,913	319,104	0,054	-0,074
-222,898	250,016	-0,047	-0,058
-221,884	800,000	-0,041	0,119
-220,869	-39,190	0,109	-0,041
-219,855	407,977	0,016	-0,025
-218,840	-200,000	-0,010	0,076
-217,825	-200,000	0,003	0,048
-216,811	800,000	0,009	-0,027
-215,796	800,000	0,033	-0,083
-214,782	76,184	0,036	0,027
-213,767	800,000	0,013	-0,032
-212,752	-169,303	0,140	-0,004
-211,738	52,233	-0,062	-0,043
-210,723	-200,000	0,006	0,094
-209,709	-200,000	0,013	-0,167
-208,694	8,683	0,044	0,024
-207,679	-200,000	-0,034	0,129
-206,665	-103,429	-0,080	0,013
-205,650	79,830	0,070	0,054
-204,636	138,749	0,074	-0,070
-203,621	172,377	-0,004	0,004
-202,606	-17,098	-0,013	0,006
-201,592	800,000	0,025	-0,070
-200,577	-200,000	0,014	0,064
-199,563	-200,000	0,005	0,091
-198,548	-200,000	0,023	-0,085
-197,533	800,000	0,007	-0,020
-196,519	-50,459	-0,045	0,015
-195,504	-200,000	-0,010	-0,052
-194,490	-62,552	-0,127	0,038
-193,475	2,546	-0,050	0,026
-192,460	-118,457	0,130	-0,016
-191,446	-200,000	0,023	0,120
-190,431	61,306	0,047	0,033
-189,417	-91,740	-0,069	0,014
-188,402	117,154	0,039	-0,035
-187,387	-200,000	-0,019	-0,097
-186,373	-30,141	-0,139	0,057
-185,358	-200,000	0,013	-0,078
-184,344	-124,133	0,122	0,014
-183,329	-72,986	0,072	0,019
-182,315	-50,942	-0,089	-0,030
-181,300	-200,000	-0,018	0,088
-180,285	677,092	-0,062	0,117
-179,271	-66,695	0,076	0,021
-178,256	-44,111	0,190	0,068
-177,242	-200,000	-0,000	-0,048
-176,227	45,317	0,078	0,052
-175,212	221,455	-0,048	0,056
-174,198	3,151	0,079	0,041
-173,183	34,674	-0,132	-0,083
-172,169	-200,000	-0,022	0,145
-171,154	-129,620	0,089	0,009
-170,139	171,864	-0,045	0,047
-169,125	170,542	-0,089	0,092
-168,110	-200,000	0,000	0,041
-167,096	-88,493	0,030	-0,006
-166,081	800,000	0,028	0,063
-165,066	12,901	-0,020	0,011
-164,052	120,944	0,112	-0,101
-163,037	800,000	-0,027	-0,060
-162,023	-99,682	-0,066	0,012
-161,008	25,922	0,051	0,031
-159,993	30,975	0,121	-0,075
-158,979	105,806	-0,082	0,070
-157,964	53,815	-0,079	0,055
-156,950	800,000	0,041	0,102
-155,935	-12,684	-0,019	-0,009
-154,920	155,689	0,038	0,038
-153,906	159,108	0,078	-0,078
-152,891	-200,000	0,002	0,055
-151,877	8,283	0,053	0,029
-150,862	-200,000	-0,004	-0,081
-149,847	800,000	-0,043	-0,118
-148,833	-200,000	0,008	-0,077
-147,818	-200,000	-0,011	0,088
-146,804	43,783	0,046	0,030
-145,789	-80,503	0,059	0,014
-144,775	229,336	-0,068	-0,081
-143,760	-200,000	-0,001	0,063
-142,745	800,000	0,034	0,086
-141,731	88,583	0,076	-0,061
-140,716	-42,428	-0,046	0,017
-139,702	265,457	0,005	-0,006
-138,687	-70,142	0,106	0,029
-137,672	173,874	-0,081	0,084
-136,658	127,925	-0,095	0,087
-135,643	-148,947	-0,085	-0,005
-134,629	800,000	0,019	-0,040
-133,614	-62,502	0,150	-0,045
-132,599	-200,000	0,004	-0,029
-131,585	152,801	0,049	0,048
-130,570	-43,496	-0,029	0,010
-129,556	319,582	0,049	0,068
-128,541	-200,000	0,038	-0,127
-127,526	-200,000	0,018	-0,068
-126,512	-200,000	0,014	0,056
-125,497	-168,860	0,109	-0,003
-124,483	-39,139	-0,102	0,039
-123,468	29,042	-0,082	0,050
-122,453	800,000	0,012	0,029
-121,439	118,903	0,115	0,102
-120,424	10,898	0,115	-0,063
-119,410	32,654	-0,072	0,045
-118,395	163,481	-0,064	0,065
-117,380	-200,000	0,015	0,093
-116,366	139,065	0,075	0,071
-115,351	800,000	0,028	0,061
-114,337	271,076	0,058	0,073
-113,322	37,324	0,055	-0,035
-112,307	567,039	-0,035	0,062
-111,293	177,651	0,085	0,090
-110,278	-99,184	0,040	0,007
-109,264	-106,891	0,147	0,023
-108,249	-170,109	-0,078	0,002
-107,234	-200,000	0,017	-0,062
-106,220	-35,385	-0,012	0,005
-105,205	780,347	0,053	-0,105
-104,191	57,662	-0,138	-0,097
-103,176	105,849	0,090	0,076
-102,162	-98,732	0,074	-0,013
-101,147	-30,802	-0,109	-0,044
-100,132	38,255	-0,081	-0,052
-99,118	800,000	0,011	-0,030
-98,103	-200,000	0,024	0,083
-97,089	680,037	0,047	0,088
-96,074	-200,000	0,001	0,067
-95,059	391,117	0,036	0,054
-94,045	-200,000	0,003	0,028
-93,030	146,049	-0,095	-0,091
-92,016	-200,000	0,013	0,054
-91,001	-21,201	0,025	-0,011
-89,986	-18,098	0,130	0,058
-88,972	-189,195	-0,106	0,001
-87,957	58,553	0,193	0,136
-86,943	-135,607	-0,173	0,015
-85,928	48,922	0,071	0,048
-84,913	265,904	-0,078	-0,098
-83,899	72,952	-0,103	0,078
-82,884	174,487	-0,049	-0,051
-81,870	499,402	0,074	0,124
-80,855	800,000	-0,047	0,106
-79,840	800,000	-0,008	0,019
-78,826	326,591	-0,052	0,072
-77,811	-200,000	-0,006	-0,188
-76,797	319,614	-0,056	0,077
-75,782	469,512	0,052	0,085
-74,767	-200,000	0,003	-0,100
-73,753	-200,000	-0,016	-0,092
-72,738	-73,394	0,070	-0,018
-71,724	-66,179	0,072	-0,021
-70,709	99,231	-0,071	0,059
-69,694	-122,429	-0,069	0,008
-68,680	-185,355	0,032	0,000
-67,665	118,813	-0,078	-0,069
-66,651	-200,000	-0,001	0,050
-65,636	163,393	-0,089	0,090
-64,622	800,000	-0,038	-0,120
-63,607	-113,227	-0,122	0,017
-62,592	34,296	-0,141	-0,088
-61,578	244,733	0,089	-0,108
-60,563	-177,591	-0,083	0,001
-59,549	-132,438	-0,130	0,012
-58,534	5,469	-2,026	-1,070
-57,519	-200,000	-0,230	-0,779
-56,505	-200,000	-1,455	-5,096
-55,490	38,151	0,745	0,475
-54,476	800,000	5,437	12,180
-53,461	-200,000	17,745	288,524
-52,446	800,000	729,012	2231,318
-51,432	538,145	1645,194	2817,065
-50,417	109,564	1635,410	1405,855
-49,403	75,298	1287,325	973,373
-48,388	31,717	1027,145	632,797
-47,373	20,130	988,918	571,060
-46,359	18,276	976,753	557,938
-45,344	15,303	972,757	545,909
-44,330	15,582	971,284	545,975
-43,315	15,070	969,485	543,271
-42,300	15,059	968,186	542,485
-41,286	15,018	967,326	541,846
-40,271	14,993	966,309	541,176
-39,257	15,033	965,380	540,763
-38,242	15,027	964,468	540,213
-37,227	15,015	963,604	539,667
-36,213	15,012	962,888	539,234
-35,198	14,983	961,979	538,611
-34,184	15,045	961,213	538,362
-33,169	14,965	960,242	537,535
-32,154	15,106	959,201	537,388
-31,140	15,006	958,374	536,580
-30,125	14,998	957,809	536,217
-29,111	15,039	956,803	535,765
-28,096	15,024	956,372	535,455
-27,082	15,054	955,534	535,059
-26,067	15,052	954,617	534,520
-25,052	15,041	954,004	534,118
-24,038	15,077	953,333	533,837
-23,023	15,071	952,647	533,413
-22,009	15,009	951,999	532,831
-20,994	15,058	951,389	532,625
-19,979	15,075	950,733	532,289
-18,965	15,038	950,162	531,833
-17,950	15,020	949,555	531,414
-16,936	15,036	948,873	531,063
-15,921	14,999	948,207	530,551
-14,906	14,970	947,473	530,026
-13,892	14,936	946,853	529,550
-12,877	14,915	946,163	529,075
-11,863	14,878	945,689	528,673
-10,848	14,951	945,026	528,511
-9,833	14,945	944,664	528,268
-8,819	14,971	943,983	527,951
-7,804	14,929	943,538	527,547
-6,790	14,896	942,901	527,067
-5,775	14,987	942,169	526,924
-4,760	14,939	941,574	526,419
-3,746	14,902	940,793	525,844
-2,731	14,769	940,145	525,041
-1,717	14,741	939,562	524,607
-0,702	14,755	938,927	524,276
0,313	14,565	938,212	524,066
1,327	17,804	936,055	533,011
2,342	26,714	792,565	474,867
3,356	23,370	457,599	269,048
4,371	-3,457	313,495	155,886
5,386	-7,689	295,488	142,647
6,400	-9,561	289,434	137,859
7,415	-9,885	286,848	136,297
8,429	-10,191	285,341	135,270
9,444	-10,488	284,525	134,582
10,459	-10,228	283,821	134,489
11,473	-10,417	283,321	134,058
12,488	-10,289	282,800	133,923
13,502	-10,184	282,216	133,736
14,517	-10,192	281,768	133,504
15,531	-10,157	281,362	133,333
16,546	-10,317	280,971	132,982
17,561	-10,251	280,478	132,800
18,575	-10,043	280,133	132,824
19,590	-10,249	279,724	132,421
20,604	-10,195	279,682	132,442
21,619	-10,168	279,128	132,194
22,634	-10,145	278,697	132,000
23,648	-10,290	278,599	131,803
24,663	-10,342	278,275	131,588
25,677	-10,298	278,177	131,573
26,692	-10,361	277,706	131,278
27,707	-10,324	277,567	131,236
28,721	-10,342	277,086	130,979
29,736	-10,286	276,860	130,914
30,750	-10,341	276,575	130,716
31,765	-10,306	276,185	130,552
32,780	-10,240	276,135	130,579
33,794	-10,164	275,791	130,476
34,809	-10,123	275,555	130,392
35,823	-10,071	275,218	130,269
36,838	-10,203	275,111	130,084
37,853	-10,515	274,980	129,717
38,867	-10,268	274,598	129,757
39,882	-10,435	274,507	129,546
40,896	-10,350	274,133	129,437
41,911	-10,401	273,876	129,256
42,926	-10,303	273,702	129,255
43,940	-10,411	273,551	129,071
44,955	-10,356	273,219	128,954
45,969	-10,481	273,050	128,746
46,984	-10,646	272,822	128,474
47,999	-10,715	272,466	128,231
49,013	-10,720	272,139	128,060
50,028	-10,808	271,843	127,829
51,042	-10,994	271,652	127,555
52,057	-11,067	271,371	127,344
53,071	-10,901	271,069	127,344
54,086	-10,815	271,109	127,431
55,101	-10,644	270,862	127,461
56,115	-10,668	270,854	127,424
57,130	-10,255	270,437	127,597
58,144	-10,012	270,336	127,763
59,159	-10,186	270,143	127,499
60,174	-10,306	269,914	127,270
61,188	-10,022	269,655	127,397
62,203	-10,056	269,487	127,275
63,217	-10,261	269,407	127,038
64,232	-10,059	269,070	127,053
65,247	-10,087	268,802	126,889
66,261	-10,185	268,516	126,654
67,276	-10,293	268,270	126,427
68,290	-10,450	268,071	126,179
69,305	-10,541	267,690	125,906
70,320	-10,392	267,480	125,931
71,334	-10,303	267,402	125,965
72,349	-10,033	267,221	126,113
73,363	-10,019	266,982	126,002
74,378	-10,137	266,836	125,815
75,393	-10,326	266,642	125,540
76,407	-10,216	266,379	125,506
77,422	-10,252	266,177	125,367
78,436	-10,318	266,019	125,221
79,451	-10,097	265,774	125,295
80,466	-10,047	265,466	125,183
81,480	-10,430	265,036	124,624
82,495	-10,267	265,040	124,762
83,509	-10,302	264,788	124,601
84,524	-10,278	264,647	124,545
85,539	-10,453	264,303	124,214
86,553	-10,370	263,929	124,102
87,568	-10,331	263,943	124,132
88,582	-10,370	263,802	124,020
89,597	-10,434	263,477	123,799
90,611	-10,188	263,493	124,016
91,626	-10,091	263,226	123,966
92,641	-10,061	263,083	123,914
93,655	-10,403	262,815	123,472
94,670	-10,264	262,573	123,470
95,684	-10,323	262,407	123,330
96,699	-10,101	262,225	123,430
97,714	-10,212	262,095	123,259
98,728	-10,225	261,753	123,076
99,743	-10,513	261,505	122,692
100,757	-10,507	261,530	122,699
101,772	-10,251	261,088	122,707
102,787	-10,277	260,958	122,613
103,801	-10,256	260,755	122,525
104,816	-10,415	260,702	122,348
105,830	-10,044	260,584	122,610
106,845	-10,270	260,283	122,258
107,860	-10,386	259,983	122,003
108,874	-10,234	259,794	122,038
109,889	-10,227	259,725	122,000
110,903	-10,194	259,432	121,882
111,918	-10,152	259,121	121,761
112,933	-10,118	259,042	121,743
113,947	-10,122	258,932	121,677
114,962	-10,310	258,722	121,402
115,976	-10,185	258,339	121,322
116,991	-10,156	258,119	121,233
118,006	-10,270	258,162	121,142
119,020	-10,201	258,025	121,127
120,035	-10,218	258,025	121,102
121,049	-10,309	257,771	120,893
122,064	-10,314	257,601	120,798
123,079	-10,226	257,323	120,733
124,093	-10,150	256,943	120,610
125,108	-10,289	256,760	120,393
126,122	-10,517	256,405	120,017
127,137	-10,547	256,367	119,963
128,151	-10,471	256,107	119,897
129,166	-10,296	256,064	120,017
130,181	-10,329	255,790	119,850
131,195	-10,397	255,582	119,683
132,210	-10,252	255,387	119,706
133,224	-10,265	255,467	119,721
134,239	-10,255	255,156	119,574
135,254	-10,140	254,859	119,523
136,268	-10,197	254,605	119,344
137,283	-10,278	254,385	119,161
138,297	-10,510	254,330	118,925
139,312	-10,392	253,918	118,823
140,327	-10,320	253,925	118,878
141,341	-10,165	253,819	118,950
142,356	-10,172	253,791	118,921
143,370	-10,274	253,552	118,711
144,385	-10,028	253,396	118,838
145,400	-9,963	253,144	118,765
146,414	-9,939	252,881	118,651
147,429	-10,208	252,855	118,398
148,443	-10,001	252,586	118,438
149,458	-9,958	252,452	118,402
150,473	-9,791	252,227	118,428
151,487	-10,104	252,000	118,044
152,502	-10,002	251,753	118,005
153,516	-9,944	251,667	118,003
154,531	-9,989	251,362	117,812
155,546	-10,167	251,352	117,646
156,560	-10,028	251,006	117,591
157,575	-10,118	250,961	117,483
158,589	-9,906	250,630	117,497
159,604	-9,863	250,578	117,499
160,619	-10,170	250,276	117,087
161,633	-10,106	250,321	117,151
162,648	-10,002	249,999	117,079
163,662	-9,863	249,844	117,112
164,677	-9,886	249,713	117,021
165,692	-9,786	249,536	117,012
166,706	-9,977	249,464	116,807
167,721	-10,018	249,256	116,665
168,735	-10,005	249,055	116,571
169,750	-10,016	248,917	116,487
170,764	-9,968	248,802	116,463
171,779	-9,874	248,620	116,446
172,794	-9,889	248,435	116,337
173,808	-9,894	248,166	116,196
174,823	-10,258	247,873	115,744
175,837	-10,521	247,733	115,449
176,852	-10,129	247,621	115,714
177,867	-9,948	247,493	115,795
178,881	-9,666	247,290	115,924
179,896	-9,911	247,266	115,699
180,910	-9,925	246,938	115,523
181,925	-10,017	246,907	115,422
182,940	-9,955	246,664	115,349
183,954	-9,976	246,597	115,290
184,969	-9,890	246,385	115,252
185,983	-10,030	246,246	115,061
186,998	-10,019	246,035	114,961
188,013	-9,941	245,799	114,905
189,027	-9,961	245,777	114,869
190,042	-9,866	245,472	114,794
191,056	-9,906	245,463	114,747
192,071	-9,898	245,186	114,613
193,086	-9,989	244,981	114,432
194,100	-9,934	244,878	114,419
195,115	-10,103	244,760	114,215
196,129	-9,945	244,520	114,223
197,144	-10,087	244,220	113,956
198,159	-9,915	244,021	113,993
199,173	-9,998	243,857	113,839
200,188	-9,896	243,633	113,808
201,202	-10,121	243,449	113,527
202,217	-10,511	243,215	113,089
203,232	-10,469	242,928	112,979
204,246	-10,035	243,055	113,384
205,261	-9,471	242,919	113,771
206,275	-9,770	242,520	113,330
207,290	-5,280	244,625	117,993
208,304	1,808	246,693	124,835
209,319	3,889	247,067	126,730
210,334	4,272	247,137	127,071
211,348	4,298	246,848	126,931
212,363	4,214	246,795	126,824
213,377	4,355	246,614	126,836
214,392	4,217	246,488	126,646
215,407	4,125	246,347	126,487
216,421	4,293	246,268	126,573
217,436	4,270	246,070	126,441
218,450	4,285	245,881	126,345
219,465	3,881	245,681	125,900
220,480	3,834	245,433	125,723
221,494	3,796	245,413	125,670
222,509	3,930	245,139	125,628
223,523	4,008	244,860	125,538
224,538	3,834	244,787	125,347
225,553	3,784	244,622	125,211
226,567	3,704	244,452	125,048
227,582	4,083	244,259	125,246
228,596	3,750	244,155	124,911
229,611	3,648	243,995	124,735
230,626	3,575	243,822	124,576
231,640	3,601	243,604	124,475
232,655	3,818	243,423	124,547
233,669	3,685	243,370	124,401
234,684	3,649	243,085	124,215
235,699	3,973	242,944	124,395
236,713	3,955	242,930	124,361
237,728	3,698	242,702	124,025
238,742	3,797	242,474	123,978
239,757	3,657	242,507	123,872
240,772	3,919	242,225	123,928
241,786	3,665	242,127	123,661
242,801	3,700	242,002	123,615
243,815	3,666	241,834	123,491
244,830	3,888	241,581	123,529
245,844	3,990	241,371	123,492
246,859	3,601	241,254	123,109
247,874	3,895	241,166	123,289
248,888	3,767	241,003	123,092
249,903	3,812	240,893	123,060
250,917	3,968	240,718	123,086
251,932	3,721	240,745	122,891
252,947	3,968	240,247	122,823
253,961	3,749	240,171	122,598
254,976	3,677	239,946	122,415
255,990	3,693	239,925	122,406
257,005	3,623	239,803	122,277
258,020	3,649	239,550	122,158
259,034	3,617	239,419	122,055
260,049	3,713	239,321	122,070
261,063	3,929	238,972	122,053
262,078	3,739	238,919	121,864
263,093	3,829	238,781	121,854
264,107	3,994	238,559	121,861
265,122	3,853	238,423	121,669
266,136	3,939	238,369	121,699
267,151	3,832	238,290	121,562
268,166	3,747	238,000	121,337
269,180	3,869	237,893	121,368
270,195	3,972	237,774	121,378
271,209	4,081	237,592	121,359
272,224	3,804	237,454	121,060
273,239	3,728	237,238	120,879
274,253	3,722	237,155	120,822
275,268	3,822	236,883	120,751
276,282	3,658	236,882	120,610
277,297	3,753	236,524	120,492
278,312	3,577	236,465	120,313
279,326	3,742	236,377	120,387
280,341	3,741	236,340	120,356
281,355	3,708	236,151	120,224
282,370	3,841	235,826	120,151
283,384	3,673	235,724	119,958
284,399	3,661	235,526	119,837
285,414	3,640	235,464	119,778
286,428	3,581	235,392	119,685
287,443	3,753	235,152	119,686
288,457	3,817	234,995	119,645
289,472	3,787	234,899	119,563
290,487	3,771	234,564	119,369
291,501	3,505	234,559	119,149
292,516	3,509	234,395	119,058
293,530	3,443	234,254	118,925
294,545	3,900	234,277	119,281
295,560	3,862	234,041	119,121
296,574	3,831	233,710	118,918
297,589	3,991	233,703	119,027
298,603	4,020	233,682	119,028
299,618	3,935	233,345	118,780
300,633	3,905	233,337	118,742
301,647	4,038	233,262	118,796
302,662	4,147	233,018	118,745
303,676	4,114	232,828	118,613
304,691	3,623	232,894	118,257
305,706	4,059	232,544	118,404
306,720	4,038	232,389	118,299
307,735	3,869	232,220	118,073
308,749	3,964	231,941	117,993
309,764	3,683	231,868	117,730
310,779	3,563	231,676	117,529
311,793	3,670	231,504	117,514
312,808	3,577	231,371	117,365
313,822	3,588	231,301	117,327
314,837	3,617	231,052	117,213
315,852	3,581	231,127	117,213
316,866	3,936	231,041	117,430
317,881	4,009	230,875	117,391
318,895	3,956	230,598	117,199
319,910	4,068	230,452	117,199
320,925	3,866	230,252	116,934
321,939	3,972	230,178	116,967
322,954	4,103	230,090	117,010
323,968	3,998	230,026	116,888
324,983	3,900	229,762	116,669
325,997	4,028	229,469	116,607
327,012	3,666	229,453	116,314
328,027	3,960	229,379	116,489
329,041	4,493	229,150	116,765
330,056	4,384	229,127	116,660
331,070	4,355	228,895	116,511
332,085	4,160	228,673	116,240
333,100	3,876	228,514	115,934
334,114	3,919	228,414	115,906
335,129	4,140	228,279	115,993
336,143	4,062	228,293	115,932
337,158	4,211	227,958	115,863
338,173	3,981	227,837	115,618
339,187	4,029	227,629	115,538
340,202	4,117	227,538	115,547
341,216	3,855	227,337	115,239
342,231	3,761	227,189	115,084
343,246	3,758	227,028	114,989
344,260	3,851	226,915	114,991
345,275	3,758	226,857	114,882
346,289	3,757	226,601	114,742
347,304	3,834	226,482	114,729
348,319	3,495	226,268	114,357
349,333	3,551	226,065	114,286
350,348	3,401	225,989	114,126
351,362	3,096	225,843	113,815
352,377	3,165	225,537	113,702
353,392	3,048	225,365	113,517
354,406	2,763	225,259	113,243
355,421	194,527	1321,249	1394,620
356,435	155,868	1454,771	1394,618
