DTS Sentinel unit serial number:	SN410029Multiplexer serial number:	ORYXHardware model number:	OX2-SRSoftware version number:	ORYX F/W v4,00 Oryx Data Collector v3.7.2.0data status	okinstallation	B5 Nyhavnadifferential loss correction	single-endedforward channel	channel 2reverse channel	N/Adate	2023/12/13time	22:17:13forward acquisition time	300,00reverse acquisition time	0,00gamma	499,1914k internal	0,3154k external	0,3154temperature offset calibration	1,0000default loss term (dB/km)	0,3820temperature slope calibration	1,0000multiplexer offset coefficient	1,0000multiplexer slope coefficient	1,0000fibre end	0,00T internal ref (°C)	9,48T ext. ref 1 (°C)	-7,17T ext. ref 2 (°C)	-7,20length (m)	temperature (°C)	Stokes	anti-Stokes-744,400	-108,571	0,045	0,007
-743,385	-53,751	-0,285	-0,096
-742,371	23,243	0,110	0,066
-741,356	-113,636	-0,355	-0,051
-740,342	-159,881	0,119	0,005
-739,327	-99,691	-0,371	-0,068
-738,312	165,383	0,136	0,142
-737,298	96,113	-0,245	-0,207
-736,283	51,424	0,128	0,090
-735,269	-153,796	-0,237	0,012
-734,254	800,000	0,098	0,227
-733,239	-50,757	-0,603	-0,208
-732,225	266,403	0,138	0,178
-731,210	-31,378	-0,056	-0,023
-730,196	73,551	0,035	-0,027
-729,181	-129,718	-0,117	0,012
-728,167	-18,635	0,019	-0,009
-727,152	87,704	0,029	0,023
-726,137	-200,000	0,008	-0,087
-725,123	104,909	0,060	0,052
-724,108	424,234	0,039	-0,062
-723,094	-200,000	-0,002	0,026
-722,079	370,666	0,011	0,016
-721,064	140,087	-0,110	0,107
-720,050	-100,963	-0,110	-0,020
-719,035	-200,000	-0,001	0,079
-718,021	-200,000	0,009	0,144
-717,006	209,830	-0,136	-0,157
-715,991	53,721	-0,115	-0,082
-714,977	59,628	0,074	-0,054
-713,962	-7,838	-0,039	0,019
-712,948	589,463	0,063	0,114
-711,933	121,703	0,055	-0,051
-710,918	-200,000	0,010	-0,107
-709,904	259,405	0,009	0,012
-708,889	800,000	-0,025	-0,074
-707,875	303,881	-0,087	-0,119
-706,860	-8,575	0,060	0,030
-705,845	-200,000	-0,001	-0,020
-704,831	278,796	-0,027	0,036
-703,816	-39,041	0,127	-0,049
-702,802	-95,298	0,100	-0,020
-701,787	-200,000	0,014	-0,078
-700,772	-12,982	-0,032	-0,015
-699,758	137,900	0,053	0,051
-698,743	-135,139	-0,102	0,009
-697,729	-62,629	-0,155	0,047
-696,714	-200,000	-0,012	0,060
-695,699	-44,560	-0,092	-0,034
-694,685	-200,000	-0,001	0,011
-693,670	-80,795	-0,095	0,023
-692,656	45,593	-0,016	0,011
-691,641	241,571	-0,020	0,024
-690,627	31,583	0,080	0,051
-689,612	-200,000	-0,002	0,024
-688,597	187,380	-0,054	0,060
-687,583	88,812	0,087	-0,071
-686,568	122,905	-0,068	-0,063
-685,554	-135,820	-0,039	0,003
-684,539	-140,882	0,091	-0,007
-683,524	136,078	-0,050	0,048
-682,510	-200,000	-0,011	-0,080
-681,495	-17,641	-0,117	-0,054
-680,481	-140,676	-0,044	-0,003
-679,466	-55,936	-0,146	-0,048
-678,451	-149,982	-0,073	0,004
-677,437	800,000	-0,034	0,093
-676,422	-136,641	0,068	-0,006
-675,408	-37,681	0,087	-0,034
-674,393	-139,143	-0,040	0,003
-673,378	-200,000	0,017	-0,104
-672,364	420,278	0,034	-0,054
-671,349	84,131	0,028	0,022
-670,335	-200,000	0,037	-0,138
-669,320	-200,000	0,004	-0,030
-668,305	-200,000	0,006	-0,041
-667,291	181,627	-0,064	-0,069
-666,276	-200,000	-0,002	-0,016
-665,262	-25,744	0,014	-0,006
-664,247	-200,000	0,010	0,094
-663,232	141,083	-0,068	0,066
-662,218	275,931	0,048	-0,063
-661,203	551,458	-0,055	-0,097
-660,189	-200,000	-0,022	-0,173
-659,174	291,727	-0,081	-0,108
-658,159	429,316	0,022	-0,035
-657,145	-42,487	-0,043	-0,016
-656,130	-121,252	-0,023	0,003
-655,116	-6,326	-0,023	-0,012
-654,101	-103,114	-0,068	-0,012
-653,086	-118,000	-0,188	-0,024
-652,072	-118,498	-0,101	0,013
-651,057	271,444	-0,062	-0,080
-650,043	-3,109	-0,118	-0,060
-649,028	-129,090	0,057	-0,006
-648,014	72,847	-0,030	0,023
-646,999	722,881	0,059	0,117
-645,984	5,990	-0,133	0,072
-644,970	-120,766	-0,037	-0,005
-643,955	800,000	0,008	-0,021
-642,941	800,000	-0,015	-0,039
-641,926	5,089	0,039	0,021
-640,911	-134,417	0,120	0,011
-639,897	328,638	-0,072	-0,102
-638,882	24,188	0,106	0,064
-637,868	-79,644	-0,027	0,007
-636,853	38,023	-0,112	-0,073
-635,838	-108,884	0,048	-0,008
-634,824	-200,000	0,018	0,142
-633,809	338,860	0,062	-0,089
-632,795	149,326	0,077	-0,077
-631,780	-18,044	0,136	-0,062
-630,765	-200,000	0,004	0,024
-629,751	186,581	-0,062	-0,068
-628,736	-4,572	-0,048	-0,024
-627,722	800,000	0,073	-0,200
-626,707	19,326	-0,073	0,043
-625,692	-200,000	-0,007	0,046
-624,678	408,824	-0,018	-0,028
-623,663	452,046	-0,024	0,040
-622,649	-11,368	0,104	0,050
-621,634	-32,924	-0,224	-0,091
-620,619	-200,000	-0,004	0,142
-619,605	-200,000	-0,010	0,033
-618,590	488,532	-0,023	0,039
-617,576	223,278	-0,022	0,026
-616,561	722,824	-0,040	0,078
-615,546	205,322	0,073	-0,084
-614,532	-195,558	0,109	-0,001
-613,517	113,622	-0,105	-0,094
-612,503	-63,814	-0,056	-0,017
-611,488	-200,000	-0,026	0,087
-610,474	-200,000	-0,003	-0,051
-609,459	13,910	0,063	-0,036
-608,444	298,246	-0,077	0,104
-607,430	800,000	0,018	0,043
-606,415	-200,000	0,019	-0,244
-605,401	521,969	0,047	-0,082
-604,386	194,621	0,069	0,077
-603,371	-200,000	-0,020	0,113
-602,357	396,686	0,023	0,035
-601,342	309,547	-0,088	-0,120
-600,328	-65,380	-0,087	0,026
-599,313	457,767	-0,026	-0,042
-598,298	-200,000	-0,002	0,010
-597,284	97,059	0,030	0,025
-596,269	-200,000	0,014	0,105
-595,255	103,366	-0,078	0,067
-594,240	-200,000	0,020	-0,084
-593,225	-97,164	-0,110	-0,021
-592,211	68,949	0,068	-0,051
-591,196	-200,000	0,039	-0,165
-590,182	-91,435	0,161	0,033
-589,167	54,396	0,031	0,022
-588,152	126,163	0,091	0,084
-587,138	800,000	-0,011	0,030
-586,123	95,870	0,031	0,026
-585,109	-200,000	0,023	-0,180
-584,094	-109,077	-0,108	0,017
-583,079	-58,456	0,066	-0,021
-582,065	-141,676	0,274	-0,020
-581,050	800,000	-0,103	-0,215
-580,036	-132,181	-0,184	0,017
-579,021	800,000	0,006	-0,014
-578,006	170,972	0,012	-0,012
-576,992	-200,000	-0,033	-0,152
-575,977	-200,000	-0,007	0,044
-574,963	800,000	0,062	0,128
-573,948	139,626	0,034	0,033
-572,934	91,858	0,005	-0,004
-571,919	-200,000	0,031	-0,201
-570,904	636,642	0,009	-0,016
-569,890	-10,107	-0,120	0,058
-568,875	-52,122	0,039	-0,013
-567,861	-200,000	0,002	0,114
-566,846	287,903	0,094	0,125
-565,831	67,897	-0,074	0,056
-564,817	-165,570	-0,131	-0,004
-563,802	-200,000	-0,008	0,094
-562,788	-200,000	0,028	-0,127
-561,773	530,870	-0,023	0,040
-560,758	-33,680	-0,047	0,019
-559,744	-108,165	0,088	-0,014
-558,729	2,638	-0,183	-0,097
-557,715	800,000	0,059	-0,174
-556,700	-95,791	-0,187	-0,036
-555,685	-200,000	-0,022	-0,099
-554,671	69,259	0,142	0,107
-553,656	487,676	-0,040	0,067
-552,642	800,000	-0,041	0,124
-551,627	-200,000	-0,115	0,000
-550,612	-129,147	-0,140	-0,014
-549,598	315,595	0,016	0,022
-548,583	364,847	0,055	-0,081
-547,569	-200,000	0,008	0,083
-546,554	14,366	0,052	-0,029
-545,539	-200,000	0,042	0,172
-544,525	-200,000	0,012	0,052
-543,510	299,081	-0,060	-0,080
-542,496	374,649	-0,019	-0,028
-541,481	5,711	-0,105	-0,056
-540,466	-16,964	0,056	-0,026
-539,452	-95,414	0,120	-0,023
-538,437	800,000	-0,019	-0,043
-537,423	-79,064	-0,022	-0,005
-536,408	-200,000	0,008	-0,049
-535,393	-200,000	-0,015	-0,136
-534,379	112,422	0,055	-0,049
-533,364	-200,000	0,016	-0,076
-532,350	49,488	0,056	-0,039
-531,335	-200,000	0,019	0,127
-530,321	-138,917	-0,029	-0,002
-529,306	-200,000	0,023	-0,130
-528,291	800,000	0,037	-0,100
-527,277	403,910	0,116	-0,180
-526,262	81,115	-0,126	-0,100
-525,248	-110,710	0,121	-0,018
-524,233	800,000	0,011	0,034
-523,218	528,927	-0,061	0,105
-522,204	-200,000	-0,002	-0,104
-521,189	-12,933	-0,126	-0,060
-520,175	-60,263	-0,056	-0,017
-519,160	-114,688	0,046	0,006
-518,145	276,938	0,091	-0,119
-517,131	-132,485	-0,135	-0,013
-516,116	-200,000	0,002	-0,040
-515,102	164,824	-0,019	-0,019
-514,087	95,603	0,096	0,080
-513,072	-120,361	-0,102	-0,013
-512,058	431,017	-0,065	-0,103
-511,043	-106,751	-0,027	0,004
-510,029	800,000	0,015	0,046
-509,014	223,122	-0,061	0,072
-507,999	539,261	-0,061	-0,106
-506,985	58,007	-0,085	-0,060
-505,970	449,556	0,058	-0,093
-504,956	150,428	-0,087	-0,086
-503,941	-200,000	0,003	0,137
-502,926	162,090	0,056	0,058
-501,912	390,643	-0,049	-0,074
-500,897	188,547	0,007	0,008
-499,883	-84,806	-0,044	0,010
-498,868	-144,172	-0,049	-0,003
-497,853	-125,633	0,051	-0,006
-496,839	205,374	-0,046	-0,052
-495,824	153,609	0,181	0,181
-494,810	4,878	-0,026	-0,014
-493,795	-92,748	-0,063	0,013
-492,781	-93,147	0,017	0,003
-491,766	-200,000	0,005	0,128
-490,751	800,000	-0,012	0,035
-489,737	-160,012	0,141	0,006
-488,722	-4,831	0,079	-0,039
-487,708	-95,889	-0,131	-0,025
-486,693	774,699	0,021	0,043
-485,678	-6,265	-0,061	-0,030
-484,664	800,000	-0,006	0,017
-483,649	-200,000	-0,003	-0,167
-482,635	-200,000	0,006	0,023
-481,620	183,997	0,095	0,102
-480,605	464,447	0,073	0,119
-479,591	21,448	0,015	-0,009
-478,576	439,214	-0,035	-0,056
-477,562	223,427	-0,078	0,092
-476,547	-200,000	0,028	0,136
-475,532	56,932	-0,049	-0,035
-474,518	358,589	0,049	0,071
-473,503	525,027	-0,052	0,090
-472,489	94,420	0,069	0,058
-471,474	2,358	-0,060	0,031
-470,459	-157,519	-0,160	0,007
-469,445	-156,617	-0,118	-0,005
-468,430	102,529	0,109	-0,093
-467,416	-200,000	-0,006	0,071
-466,401	-200,000	-0,019	-0,067
-465,386	196,371	0,118	0,132
-464,372	-145,374	-0,154	-0,010
-463,357	487,743	0,038	-0,064
-462,343	-6,626	-0,057	-0,028
-461,328	-52,659	0,051	-0,017
-460,313	254,219	0,013	0,017
-459,299	-73,689	0,057	-0,015
-458,284	-200,000	0,010	-0,067
-457,270	68,130	-0,081	0,061
-456,255	-25,686	-0,081	-0,035
-455,241	-200,000	-0,002	0,045
-454,226	-155,998	0,092	0,004
-453,211	-72,969	0,020	-0,005
-452,197	-200,000	0,010	-0,065
-451,182	-104,476	0,117	0,019
-450,168	47,706	-0,149	0,101
-449,153	-200,000	-0,015	0,126
-448,138	800,000	0,047	-0,109
-447,124	-104,749	0,026	0,004
-446,109	151,288	-0,054	-0,054
-445,095	-27,684	0,082	0,034
-444,080	800,000	0,069	0,184
-443,065	-87,270	-0,082	0,018
-442,051	-50,066	0,029	-0,010
-441,036	379,116	-0,069	0,103
-440,022	800,000	-0,045	-0,101
-439,007	-9,955	0,079	-0,038
-437,992	290,292	0,050	0,066
-436,978	-53,920	0,052	0,017
-435,963	95,539	-0,109	0,090
-434,949	75,390	-0,066	0,051
-433,934	800,000	0,022	-0,065
-432,919	65,789	0,180	0,133
-431,905	193,482	0,021	0,023
-430,890	-47,327	0,052	-0,018
-429,876	800,000	-0,031	0,064
-428,861	253,157	0,052	0,064
-427,846	-151,312	-0,061	-0,003
-426,832	-125,415	-0,204	-0,022
-425,817	800,000	-0,019	-0,050
-424,803	-12,835	-0,107	-0,050
-423,788	-179,188	0,124	-0,002
-422,773	-5,173	0,058	-0,029
-421,759	5,368	0,037	0,020
-420,744	396,216	-0,058	0,089
-419,730	-200,000	-0,029	-0,118
-418,715	254,317	-0,065	-0,081
-417,701	-88,586	0,074	0,016
-416,686	-125,428	0,153	-0,017
-415,671	678,588	-0,028	0,054
-414,657	-1,259	-0,127	-0,065
-413,642	-200,000	-0,016	0,143
-412,628	-56,104	-0,045	-0,015
-411,613	-101,615	-0,156	-0,027
-410,598	44,876	0,152	0,102
-409,584	-17,226	0,082	0,038
-408,569	64,027	0,014	0,010
-407,555	-200,000	-0,002	0,100
-406,540	-200,000	-0,017	0,057
-405,525	187,659	-0,097	-0,106
-404,511	340,668	-0,071	-0,101
-403,496	800,000	-0,036	-0,087
-402,482	-1,868	0,012	0,006
-401,467	137,486	0,050	0,048
-400,452	-54,704	0,016	-0,005
-399,438	117,035	0,063	0,057
-398,423	-45,234	0,092	-0,033
-397,409	242,271	-0,073	0,089
-396,394	199,149	-0,097	-0,109
-395,379	-9,026	0,075	0,037
-394,365	800,000	0,041	-0,116
-393,350	10,008	-0,046	-0,026
-392,336	-17,079	0,151	0,069
-391,321	30,793	0,092	0,058
-390,306	165,019	-0,101	-0,104
-389,292	-150,105	-0,131	-0,007
-388,277	192,178	0,090	0,099
-387,263	-7,720	-0,200	0,098
-386,248	-38,410	0,076	-0,029
-385,233	-10,776	-0,071	-0,034
-384,219	156,874	0,037	0,037
-383,204	18,944	0,043	-0,025
-382,190	495,501	0,066	-0,111
-381,175	103,382	-0,067	0,057
-380,160	145,017	0,102	0,099
-379,146	-151,227	0,182	-0,010
-378,131	713,657	-0,066	0,129
-377,117	-200,000	0,002	0,101
-376,102	795,125	0,022	-0,045
-375,088	-116,961	0,045	0,006
-374,073	-23,394	0,101	0,044
-373,058	-200,000	-0,002	-0,035
-372,044	503,673	-0,052	-0,088
-371,029	-200,000	0,031	-0,214
-370,015	493,612	-0,013	0,021
-369,000	-77,496	0,101	-0,025
-367,985	-200,000	-0,011	0,102
-366,971	-200,000	-0,004	0,058
-365,956	-200,000	0,029	0,177
-364,942	800,000	0,035	-0,095
-363,927	98,239	-0,062	0,052
-362,912	800,000	-0,021	0,060
-361,898	-49,932	-0,133	0,045
-360,883	762,337	-0,047	-0,093
-359,869	225,140	0,088	0,103
-358,854	-21,993	0,021	-0,009
-357,839	-200,000	-0,019	-0,081
-356,825	800,000	0,019	0,047
-355,810	5,365	0,040	0,021
-354,796	-71,448	0,076	-0,020
-353,781	-200,000	0,020	-0,145
-352,766	800,000	0,031	-0,086
-351,752	81,416	0,135	0,106
-350,737	31,438	0,093	-0,058
-349,723	219,219	0,124	0,145
-348,708	800,000	-0,019	0,052
-347,693	93,353	0,084	-0,069
-346,679	658,615	0,045	-0,084
-345,664	43,846	-0,111	0,074
-344,650	397,123	-0,028	0,043
-343,635	800,000	0,064	0,137
-342,620	475,837	-0,043	0,071
-341,606	190,932	-0,092	-0,100
-340,591	-106,946	-0,120	-0,019
-339,577	800,000	-0,042	0,093
-338,562	4,308	-0,104	-0,055
-337,548	-200,000	0,004	-0,029
-336,533	60,420	0,147	0,106
-335,518	128,369	-0,047	0,044
-334,504	11,283	0,166	0,092
-333,489	-18,806	0,152	-0,069
-332,475	800,000	-0,029	0,080
-331,460	-200,000	0,013	0,062
-330,445	-200,000	0,041	-0,151
-329,431	16,568	0,115	-0,066
-328,416	-177,148	-0,087	-0,002
-327,402	304,388	-0,049	0,066
-326,387	-133,068	0,045	0,004
-325,372	800,000	-0,029	-0,068
-324,358	230,077	0,062	-0,073
-323,343	-113,056	-0,021	0,003
-322,329	800,000	-0,034	-0,098
-321,314	-28,855	0,107	0,044
-320,299	800,000	-0,012	0,026
-319,285	-200,000	-0,022	-0,097
-318,270	-200,000	-0,027	-0,107
-317,256	-125,255	-0,032	-0,004
-316,241	269,720	0,061	0,078
-315,226	-8,815	-0,073	-0,035
-314,212	-65,458	0,051	0,015
-313,197	800,000	0,051	0,157
-312,183	-200,000	-0,030	-0,100
-311,168	-25,143	0,119	-0,051
-310,153	800,000	0,087	-0,261
-309,139	186,191	-0,107	0,116
-308,124	-40,982	0,155	0,058
-307,110	-200,000	0,022	-0,110
-306,095	-42,954	0,041	0,015
-305,080	36,254	-0,060	-0,038
-304,066	552,290	0,046	0,081
-303,051	800,000	-0,010	0,032
-302,037	62,683	0,026	-0,019
-301,022	85,135	-0,071	-0,056
-300,008	-200,000	0,019	-0,089
-298,993	-200,000	-0,003	-0,063
-297,978	671,606	-0,042	0,079
-296,964	34,036	-0,037	-0,024
-295,949	328,642	-0,071	-0,099
-294,935	-200,000	0,003	-0,031
-293,920	-111,623	-0,099	0,014
-292,905	-78,369	0,094	0,023
-291,891	-200,000	0,000	0,042
-290,876	-200,000	-0,006	-0,052
-289,862	800,000	0,009	-0,027
-288,847	-169,636	-0,100	-0,003
-287,832	196,785	-0,187	-0,207
-286,818	611,178	0,043	0,077
-285,803	-42,817	0,044	-0,016
-284,789	226,101	-0,035	0,042
-283,774	20,701	-0,003	-0,002
-282,759	-200,000	-0,001	-0,032
-281,745	599,268	-0,015	-0,027
-280,730	-200,000	0,005	0,022
-279,716	-200,000	0,003	0,012
-278,701	-76,877	-0,091	-0,023
-277,686	-200,000	-0,001	0,119
-276,672	-114,176	-0,072	0,010
-275,657	33,763	0,021	0,013
-274,643	800,000	0,034	0,080
-273,628	16,189	-0,080	-0,046
-272,613	197,144	-0,046	-0,051
-271,599	460,970	-0,044	-0,072
-270,584	256,152	0,044	-0,055
-269,570	74,044	0,083	0,063
-268,555	-200,000	-0,014	-0,075
-267,540	239,583	-0,014	-0,017
-266,526	195,104	-0,085	-0,094
-265,511	800,000	-0,045	-0,105
-264,497	-200,000	0,009	-0,060
-263,482	-200,000	0,014	0,065
-262,467	800,000	-0,013	0,029
-261,453	-200,000	-0,009	0,148
-260,438	85,439	-0,029	-0,023
-259,424	-200,000	0,002	-0,010
-258,409	-32,395	0,156	0,063
-257,395	403,398	0,054	-0,083
-256,380	19,924	0,170	0,099
-255,365	591,705	0,065	0,118
-254,351	-88,523	-0,086	0,018
-253,336	-90,577	-0,077	0,016
-252,322	254,694	0,065	0,081
-251,307	-152,699	-0,172	0,009
-250,292	-45,116	0,196	0,070
-249,278	-79,000	0,050	0,012
-248,263	800,000	0,079	0,162
-247,249	158,298	-0,050	0,051
-246,234	-129,411	-0,208	-0,021
-245,219	-47,416	-0,184	0,065
-244,205	15,485	0,109	-0,062
-243,190	-162,740	-0,046	0,002
-242,176	-165,809	0,162	-0,005
-241,161	-49,929	-0,044	0,015
-240,146	510,048	0,031	0,053
-239,132	-200,000	-0,008	-0,113
-238,117	-119,639	-0,198	-0,024
-237,103	253,590	0,015	0,019
-236,088	-200,000	-0,003	0,080
-235,073	447,644	0,054	0,086
-234,059	-200,000	0,011	0,116
-233,044	30,771	0,077	-0,048
-232,030	-189,234	-0,075	-0,001
-231,015	-200,000	0,031	0,111
-230,000	-58,109	-0,140	-0,044
-228,986	56,360	0,131	-0,092
-227,971	-200,000	0,016	0,051
-226,957	386,225	-0,023	-0,034
-225,942	235,424	-0,122	-0,146
-224,927	-200,000	-0,020	-0,147
-223,913	-132,615	-0,135	-0,012
-222,898	-47,399	0,023	0,008
-221,884	-133,374	-0,125	0,011
-220,869	33,590	-0,054	-0,034
-219,855	-160,120	0,079	0,003
-218,840	416,231	0,048	0,074
-217,825	800,000	0,018	0,056
-216,811	-200,000	-0,004	-0,014
-215,796	100,762	0,042	-0,035
-214,782	-200,000	0,007	-0,080
-213,767	800,000	0,095	0,191
-212,752	-200,000	-0,012	0,167
-211,738	-200,000	0,013	0,077
-210,723	-200,000	-0,018	0,088
-209,709	118,867	-0,082	0,073
-208,694	-2,809	0,030	0,015
-207,679	800,000	-0,027	-0,079
-206,665	-32,444	0,092	0,037
-205,650	20,921	0,107	-0,062
-204,636	800,000	0,049	0,107
-203,621	800,000	0,025	0,055
-202,606	-35,387	0,066	-0,026
-201,592	-74,014	0,008	-0,002
-200,577	561,059	0,054	-0,095
-199,563	-98,062	0,131	-0,024
-198,548	-200,000	-0,003	-0,037
-197,533	-24,355	-0,066	-0,028
-196,519	153,471	0,088	-0,087
-195,504	308,591	-0,039	-0,053
-194,490	-38,964	-0,058	-0,022
-193,475	-112,087	-0,129	0,018
-192,460	-200,000	0,006	0,085
-191,446	-200,000	0,004	-0,113
-190,431	-86,668	0,125	0,028
-189,417	-82,387	-0,094	-0,022
-188,402	124,208	-0,102	-0,093
-187,387	592,555	-0,071	-0,128
-186,373	800,000	0,040	-0,121
-185,358	161,116	0,030	-0,030
-184,344	524,362	-0,105	-0,179
-183,329	37,340	0,082	-0,052
-182,315	-93,711	0,069	-0,014
-181,300	156,951	0,066	0,066
-180,285	439,219	-0,085	-0,134
-179,271	-200,000	0,009	-0,032
-178,256	-58,859	-0,128	0,040
-177,242	-200,000	-0,023	0,198
-176,227	-55,441	0,063	0,020
-175,212	352,960	0,081	0,116
-174,198	704,172	0,039	-0,075
-173,183	32,091	-0,114	-0,071
-172,169	800,000	-0,035	0,084
-171,154	269,157	0,039	-0,050
-170,139	0,721	-0,095	0,049
-169,125	800,000	0,076	0,157
-168,110	-200,000	-0,002	0,094
-167,096	-105,029	0,062	0,010
-166,081	468,654	-0,029	0,047
-165,066	247,832	-0,041	0,051
-164,052	-110,625	0,094	-0,014
-163,037	-94,649	0,054	-0,011
-162,023	-200,000	-0,009	0,029
-161,008	-200,000	-0,023	-0,081
-159,993	800,000	0,054	0,142
-158,979	-101,531	-0,144	0,025
-157,964	-116,142	0,056	-0,007
-156,950	566,361	-0,027	-0,048
-155,935	800,000	-0,041	-0,090
-154,920	-103,735	0,041	0,007
-153,906	16,392	-0,099	0,056
-152,891	609,077	0,060	0,108
-151,877	-200,000	-0,004	-0,016
-150,862	96,858	-0,084	0,069
-149,847	-200,000	0,041	0,179
-148,833	-114,879	0,032	0,004
-147,818	-53,959	0,101	0,033
-146,804	81,111	-0,105	0,082
-145,789	-180,872	0,066	0,001
-144,775	-86,380	-0,105	-0,023
-143,760	479,333	-0,048	0,079
-142,745	49,627	0,130	0,088
-141,731	-83,761	-0,079	0,018
-140,716	-117,317	-0,108	-0,014
-139,702	272,390	-0,092	0,117
-138,687	-106,305	0,118	0,019
-137,672	-200,000	-0,002	-0,044
-136,658	-70,740	-0,110	0,030
-135,643	800,000	0,013	0,031
-134,629	-200,000	-0,013	0,057
-133,614	235,096	0,068	0,081
-132,599	296,831	0,158	0,209
-131,585	-7,402	0,051	-0,025
-130,570	-200,000	-0,006	0,020
-129,556	-200,000	-0,052	0,173
-128,541	-200,000	-0,028	-0,134
-127,526	-151,407	0,061	0,003
-126,512	184,612	0,070	-0,075
-125,497	470,115	0,046	0,075
-124,483	800,000	-0,045	-0,093
-123,468	-200,000	0,009	-0,084
-122,453	-200,000	0,010	-0,057
-121,439	800,000	0,039	0,101
-120,424	800,000	-0,050	-0,152
-119,410	-200,000	0,010	0,188
-118,395	498,880	-0,045	0,076
-117,380	137,692	0,003	0,003
-116,366	-200,000	0,001	0,054
-115,351	642,724	-0,096	-0,176
-114,337	108,327	0,098	0,084
-113,322	80,382	0,050	0,039
-112,307	-121,146	-0,184	-0,022
-111,293	800,000	-0,022	-0,050
-110,278	-66,499	0,065	-0,019
-109,264	-200,000	-0,016	0,086
-108,249	165,509	0,059	0,060
-107,234	-200,000	0,019	0,063
-106,220	-60,130	-0,201	0,061
-105,205	116,655	0,112	0,099
-104,191	95,705	-0,092	-0,075
-103,176	800,000	0,045	0,137
-102,162	800,000	-0,012	0,030
-101,147	539,206	0,035	-0,059
-100,132	-200,000	0,017	0,149
-99,118	219,532	-0,095	-0,109
-98,103	170,209	0,050	0,052
-97,089	-200,000	-0,007	-0,085
-96,074	-200,000	-0,010	-0,035
-95,059	148,104	0,075	0,072
-94,045	-200,000	0,004	-0,045
-93,030	11,258	-0,100	-0,055
-92,016	-92,210	-0,184	-0,037
-91,001	-200,000	-0,002	0,035
-89,986	-200,000	-0,003	-0,077
-88,972	419,684	0,045	0,070
-87,957	-62,320	0,124	0,037
-86,943	800,000	0,014	-0,034
-85,928	367,877	0,053	0,077
-84,913	-130,549	0,117	0,011
-83,899	622,309	-0,056	-0,102
-82,884	-200,000	0,012	0,135
-81,870	-33,207	0,100	-0,040
-80,855	-69,246	0,092	0,025
-79,840	59,586	0,076	-0,054
-78,826	505,039	0,029	-0,049
-77,811	102,072	-0,101	-0,085
-76,797	800,000	-0,022	0,055
-75,782	-120,864	-0,150	-0,018
-74,767	-60,832	0,045	0,013
-73,753	-87,555	-0,079	-0,017
-72,738	335,069	-0,032	0,045
-71,724	-101,736	-0,143	-0,025
-70,709	381,581	0,028	0,042
-69,694	-37,679	0,105	0,040
-68,680	-200,000	-0,007	-0,040
-67,665	119,993	-0,038	-0,034
-66,651	-200,000	-0,000	0,141
-65,636	-68,614	-0,110	-0,031
-64,622	-112,973	-0,153	0,021
-63,607	-12,582	-0,155	-0,073
-62,592	718,547	0,057	0,109
-61,578	-200,000	-0,002	0,023
-60,563	-200,000	-0,007	-0,059
-59,549	800,000	-0,040	0,081
-58,534	76,189	-2,352	-1,787
-57,519	88,006	0,385	-0,307
-56,505	-200,000	-1,611	-5,280
-55,490	351,001	1,032	1,471
-54,476	800,000	5,299	11,776
-53,461	-200,000	21,328	337,617
-52,446	800,000	762,584	2306,812
-51,432	516,025	1661,266	2799,021
-50,417	106,125	1627,347	1383,999
-49,403	76,178	1279,769	972,228
-48,388	26,712	1025,296	615,305
-47,373	19,213	990,456	569,527
-46,359	13,974	978,169	545,188
-45,344	10,118	974,788	530,574
-44,330	10,567	972,697	530,894
-43,315	9,585	970,966	526,700
-42,300	9,490	969,617	525,635
-41,286	9,540	968,608	525,231
-40,271	9,470	967,927	524,611
-39,257	9,466	966,934	524,040
-38,242	9,482	966,002	523,565
-37,227	9,470	965,136	523,037
-36,213	9,500	964,362	522,696
-35,198	9,443	963,609	522,079
-34,184	9,553	962,594	521,868
-33,169	9,479	961,783	521,165
-32,154	9,495	961,112	520,834
-31,140	9,517	960,034	520,302
-30,125	9,564	959,232	519,997
-29,111	9,540	958,388	519,444
-28,096	9,542	957,902	519,163
-27,082	9,557	957,128	518,774
-26,067	9,521	956,383	518,231
-25,052	9,519	955,480	517,715
-24,038	9,503	955,033	517,403
-23,023	9,525	954,139	516,969
-22,009	9,529	953,935	516,849
-20,994	9,498	953,217	516,339
-19,979	9,553	952,666	516,198
-18,965	9,500	951,982	515,637
-17,950	9,546	951,260	515,373
-16,936	9,447	950,797	514,784
-15,921	9,482	949,935	514,409
-14,906	9,429	949,171	513,805
-13,892	9,449	948,585	513,530
-12,877	9,412	948,016	513,084
-11,863	9,398	947,394	512,683
-10,848	9,450	946,641	512,419
-9,833	9,480	946,258	512,287
-8,819	9,418	945,716	511,775
-7,804	9,449	944,677	511,292
-6,790	9,438	944,303	511,035
-5,775	9,468	943,666	510,766
-4,760	9,502	943,013	510,501
-3,746	9,482	942,289	510,026
-2,731	9,266	941,812	509,058
-1,717	9,314	941,134	508,825
-0,702	9,282	940,676	508,454
0,313	9,128	939,852	508,287
1,327	12,574	937,856	518,094
2,342	21,459	786,508	457,952
3,356	16,514	452,073	255,697
4,371	-10,561	313,725	148,544
5,386	-14,403	295,896	136,191
6,400	-16,343	289,808	131,448
7,415	-16,488	287,496	130,244
8,429	-16,875	285,513	128,955
9,444	-17,129	284,708	128,332
10,459	-16,730	284,071	128,422
11,473	-16,840	283,381	127,992
12,488	-16,727	282,979	127,909
13,502	-16,790	282,428	127,588
14,517	-16,830	282,089	127,383
15,531	-16,643	281,641	127,351
16,546	-16,627	281,378	127,236
17,561	-16,608	280,958	127,053
18,575	-16,445	280,709	127,086
19,590	-16,502	280,312	126,840
20,604	-16,325	279,997	126,856
21,619	-16,522	279,739	126,539
22,634	-16,409	279,275	126,426
23,648	-16,558	278,950	126,125
24,663	-16,344	278,634	126,175
25,677	-16,505	278,519	125,959
26,692	-16,445	278,125	125,826
27,707	-16,391	277,835	125,735
28,721	-16,596	277,811	125,518
29,736	-16,487	277,306	125,382
30,750	-16,384	277,112	125,381
31,765	-16,469	276,760	125,131
32,780	-16,343	276,586	125,159
33,794	-16,543	276,334	124,846
34,809	-16,320	275,920	124,858
35,823	-16,381	275,912	124,786
36,838	-16,545	275,689	124,518
37,853	-16,454	275,383	124,454
38,867	-16,383	274,859	124,274
39,882	-16,446	274,759	124,158
40,896	-16,327	274,535	124,158
41,911	-16,436	274,376	123,972
42,926	-16,451	274,083	123,815
43,940	-16,518	273,898	123,658
44,955	-16,271	273,635	123,759
45,969	-16,283	273,308	123,589
46,984	-16,264	273,403	123,639
47,999	-16,357	273,030	123,372
49,013	-16,270	272,929	123,397
50,028	-16,433	272,640	123,103
51,042	-16,251	272,320	123,117
52,057	-16,325	272,035	122,909
53,071	-16,392	271,916	122,781
54,086	-16,365	271,700	122,698
55,101	-16,154	271,389	122,742
56,115	-16,494	271,181	122,323
57,130	-16,326	270,895	122,338
58,144	-16,424	270,573	122,091
59,159	-16,440	270,207	121,900
60,174	-16,439	270,148	121,864
61,188	-16,644	270,061	121,624
62,203	-16,421	269,906	121,749
63,217	-16,349	269,503	121,623
64,232	-16,464	269,233	121,385
65,247	-16,432	269,055	121,322
66,261	-16,369	268,737	121,226
67,276	-16,377	268,633	121,161
68,290	-16,452	268,455	121,001
69,305	-16,398	268,239	120,943
70,320	-16,443	268,033	120,798
71,334	-16,311	267,677	120,748
72,349	-16,272	267,471	120,679
73,363	-16,469	267,283	120,404
74,378	-16,466	266,920	120,233
75,393	-16,339	266,741	120,256
76,407	-16,310	266,591	120,205
77,422	-16,352	266,442	120,088
78,436	-16,478	266,211	119,860
79,451	-16,412	265,826	119,735
80,466	-16,362	265,768	119,744
81,480	-16,185	265,464	119,756
82,495	-16,234	265,173	119,570
83,509	-16,341	265,050	119,407
84,524	-16,407	264,822	119,234
85,539	-16,317	264,672	119,238
86,553	-16,234	264,462	119,207
87,568	-16,222	264,245	119,109
88,582	-16,278	264,094	118,980
89,597	-16,429	263,882	118,738
90,611	-16,590	263,547	118,433
91,626	-16,341	263,493	118,621
92,641	-16,248	263,035	118,487
93,655	-16,366	262,962	118,338
94,670	-16,580	262,898	118,107
95,684	-16,412	262,532	118,082
96,699	-16,307	262,272	118,049
97,714	-16,240	262,010	117,981
98,728	-16,396	261,914	117,787
99,743	-16,234	261,733	117,840
100,757	-16,383	261,537	117,609
101,772	-16,210	261,366	117,675
102,787	-16,484	261,044	117,276
103,801	-16,403	260,872	117,261
104,816	-16,544	260,700	117,048
105,830	-16,615	260,656	116,954
106,845	-16,351	260,182	116,965
107,860	-16,304	260,140	116,977
108,874	-16,366	259,830	116,772
109,889	-16,293	259,664	116,752
110,903	-16,384	259,402	116,544
111,918	-16,459	259,185	116,370
112,933	-16,338	259,084	116,420
113,947	-16,360	258,990	116,348
114,962	-16,272	258,513	116,201
115,976	-16,346	258,413	116,081
116,991	-16,379	258,280	115,981
118,006	-16,499	258,038	115,758
119,020	-16,220	257,864	115,913
120,035	-16,591	257,941	115,613
121,049	-16,402	257,591	115,611
122,064	-16,373	257,290	115,492
123,079	-16,465	257,154	115,339
124,093	-16,533	257,124	115,256
125,108	-16,189	256,654	115,335
126,122	-16,328	256,686	115,218
127,137	-16,151	256,435	115,249
128,151	-16,232	256,236	115,079
129,166	-16,255	256,035	114,959
130,181	-16,181	255,693	114,859
131,195	-16,434	255,569	114,574
132,210	-16,127	255,292	114,705
133,224	-16,489	255,165	114,324
134,239	-16,351	254,963	114,343
135,254	-16,575	254,758	114,047
136,268	-16,273	254,494	114,179
137,283	-16,181	254,292	114,158
138,297	-16,283	254,148	113,995
139,312	-16,317	253,822	113,810
140,327	-16,315	253,543	113,676
141,341	-16,473	253,551	113,534
142,356	-16,503	253,391	113,426
143,370	-16,602	253,143	113,219
144,385	-16,450	252,928	113,244
145,400	-16,366	252,859	113,275
146,414	-16,249	252,443	113,179
147,429	-16,374	252,437	113,059
148,443	-16,432	252,187	112,888
149,458	-16,254	252,004	112,948
150,473	-16,309	251,712	112,760
151,487	-16,433	251,574	112,583
152,502	-16,166	251,238	112,649
153,516	-16,229	251,100	112,524
154,531	-16,182	250,957	112,489
155,546	-16,338	250,827	112,289
156,560	-16,275	250,604	112,232
157,575	-16,237	250,435	112,178
158,589	-16,280	250,188	112,021
159,604	-16,248	250,123	112,009
160,619	-16,310	249,828	111,815
161,633	-16,258	249,751	111,815
162,648	-16,320	249,642	111,704
163,662	-16,310	249,411	111,598
164,677	-16,462	249,278	111,401
165,692	-16,182	249,053	111,526
166,706	-16,224	248,854	111,392
167,721	-16,163	248,779	111,400
168,735	-16,380	248,642	111,146
169,750	-16,415	248,407	111,001
170,764	-16,271	248,329	111,078
171,779	-16,393	248,048	110,840
172,794	-16,436	247,899	110,727
173,808	-16,072	247,522	110,854
174,823	-16,239	247,539	110,711
175,837	-16,200	247,294	110,625
176,852	-16,423	247,169	110,372
177,867	-16,445	247,201	110,358
178,881	-16,389	246,821	110,226
179,896	-16,539	246,695	110,035
180,910	-16,259	246,455	110,151
181,925	-16,394	246,239	109,932
182,940	-16,335	246,158	109,936
183,954	-16,354	245,938	109,812
184,969	-16,426	245,870	109,711
185,983	-16,237	245,633	109,753
186,998	-16,283	245,443	109,620
188,013	-16,325	245,327	109,524
189,027	-16,400	245,082	109,343
190,042	-16,575	244,977	109,141
191,056	-16,321	244,688	109,213
192,071	-16,473	244,563	109,021
193,086	-16,424	244,283	108,927
194,100	-16,374	244,087	108,872
195,115	-16,273	243,883	108,854
196,129	-16,235	243,664	108,778
197,144	-16,292	243,583	108,686
198,159	-16,275	243,284	108,556
199,173	-16,290	243,146	108,472
200,188	-16,545	242,970	108,175
201,202	-16,447	242,857	108,196
202,217	-16,293	242,611	108,202
203,232	-16,227	242,547	108,218
204,246	-16,392	242,073	107,863
205,261	-17,124	241,741	107,108
206,275	-16,208	242,134	108,020
207,290	-11,528	243,717	112,562
208,304	-4,401	245,997	119,501
209,319	-1,165	246,893	122,605
210,334	-0,101	247,236	123,646
211,348	0,700	247,452	124,406
212,363	1,448	247,430	125,003
213,377	1,452	247,452	125,007
214,392	1,851	247,288	125,243
215,407	2,186	247,194	125,461
216,421	2,147	247,159	125,399
217,436	2,233	246,950	125,353
218,450	2,339	246,637	125,270
219,465	2,121	246,435	124,977
220,480	2,104	246,399	124,934
221,494	1,990	246,111	124,683
222,509	1,451	245,893	124,118
223,523	1,175	245,581	123,723
224,538	1,043	245,416	123,521
225,553	1,096	245,193	123,441
226,567	1,236	245,051	123,474
227,582	1,350	244,838	123,448
228,596	1,042	244,777	123,155
229,611	1,156	244,646	123,171
230,626	1,116	244,390	122,998
231,640	1,084	244,255	122,893
232,655	1,167	244,075	122,859
233,669	1,052	243,956	122,695
234,684	1,188	243,700	122,666
235,699	1,095	243,467	122,462
236,713	1,226	243,453	122,550
237,728	1,323	243,175	122,478
238,742	1,179	243,146	122,336
239,757	1,325	242,889	122,314
240,772	1,138	242,814	122,113
241,786	1,318	242,536	122,109
242,801	0,988	242,584	121,855
243,815	1,208	242,201	121,829
244,830	1,282	242,104	121,829
245,844	1,186	241,934	121,656
246,859	1,126	241,863	121,561
247,874	1,229	241,607	121,505
248,888	1,250	241,619	121,516
249,903	1,178	241,423	121,349
250,917	1,372	241,297	121,431
251,932	1,315	241,157	121,304
252,947	1,189	240,959	121,092
253,961	1,081	240,804	120,917
254,976	1,260	240,583	120,939
255,990	1,264	240,438	120,859
257,005	1,187	240,272	120,702
258,020	1,128	240,209	120,613
259,034	1,140	239,824	120,418
260,049	1,091	239,771	120,342
261,063	1,213	239,524	120,304
262,078	1,285	239,469	120,323
263,093	1,190	239,405	120,204
264,107	1,094	239,310	120,070
265,122	1,196	238,980	119,975
266,136	1,242	238,889	119,955
267,151	1,303	238,750	119,922
268,166	1,063	238,691	119,692
269,180	1,102	238,286	119,509
270,195	1,295	238,211	119,614
271,209	1,406	238,009	119,590
272,224	1,137	237,977	119,350
273,239	1,051	237,753	119,159
274,253	1,108	237,686	119,159
275,268	1,071	237,492	119,023
276,282	1,224	237,133	118,953
277,297	1,134	237,167	118,888
278,312	1,167	236,980	118,811
279,326	1,149	236,917	118,754
280,341	0,936	236,853	118,543
281,355	1,210	236,604	118,623
282,370	1,152	236,361	118,446
283,384	1,349	236,261	118,540
284,399	1,300	235,980	118,350
285,414	1,226	235,931	118,256
286,428	1,059	235,814	118,056
287,443	1,180	235,680	118,073
288,457	1,193	235,578	118,022
289,472	1,372	235,336	118,031
290,487	1,169	235,240	117,813
291,501	1,322	234,888	117,746
292,516	1,304	234,768	117,661
293,530	1,077	234,851	117,515
294,545	1,168	234,645	117,472
295,560	1,225	234,443	117,405
296,574	1,188	234,205	117,247
297,589	1,434	234,069	117,359
298,603	1,404	233,958	117,270
299,618	1,334	233,836	117,143
300,633	1,262	233,784	117,051
301,647	1,331	233,600	117,003
302,662	1,626	233,473	117,157
303,676	1,532	233,447	117,061
304,691	1,495	233,144	116,869
305,706	1,348	232,917	116,632
306,720	1,274	232,984	116,598
307,735	1,581	232,720	116,692
308,749	1,419	232,432	116,413
309,764	1,233	232,426	116,256
310,779	1,421	232,199	116,277
311,793	1,311	232,018	116,091
312,808	1,447	231,826	116,089
313,822	1,591	231,720	116,137
314,837	1,461	231,565	115,948
315,852	1,345	231,484	115,809
316,866	1,385	231,361	115,767
317,881	1,537	231,185	115,786
318,895	1,551	231,040	115,713
319,910	1,245	230,988	115,442
320,925	1,293	230,890	115,420
321,939	1,438	230,558	115,355
322,954	1,321	230,511	115,232
323,968	1,374	230,417	115,215
324,983	1,469	230,247	115,192
325,997	1,388	230,156	115,074
327,012	1,321	229,877	114,874
328,027	1,244	229,720	114,726
329,041	1,392	229,434	114,685
330,056	1,326	229,464	114,640
331,070	1,562	229,246	114,700
332,085	1,476	229,150	114,577
333,100	1,479	228,842	114,415
334,114	1,454	228,696	114,313
335,129	1,368	228,513	114,146
336,143	1,473	228,548	114,233
337,158	1,346	228,421	114,063
338,173	1,422	228,239	114,019
339,187	1,641	228,088	114,099
340,202	1,476	228,138	113,989
341,216	1,298	227,928	113,740
342,231	1,487	227,592	113,704
343,246	1,402	227,594	113,632
344,260	1,570	227,349	113,625
345,275	1,505	227,367	113,575
346,289	1,335	227,073	113,290
347,304	1,639	226,982	113,463
348,319	1,628	226,781	113,344
349,333	1,415	226,652	113,110
350,348	1,374	226,578	113,032
351,362	1,422	226,328	112,934
352,377	1,499	226,197	112,916
353,392	1,579	226,066	112,900
354,406	1,481	225,897	112,733
355,421	193,236	1313,259	1383,615
356,435	154,839	1445,618	1383,493
