DTS Sentinel unit serial number:	SN410029Multiplexer serial number:	ORYXHardware model number:	OX2-SRSoftware version number:	ORYX F/W v4,00 Oryx Data Collector v3.7.2.0data status	okinstallation	B5 Nyhavnadifferential loss correction	single-endedforward channel	channel 2reverse channel	N/Adate	2023/12/11time	15:02:13forward acquisition time	300,00reverse acquisition time	0,00gamma	499,1914k internal	0,3167k external	0,3167temperature offset calibration	1,0000default loss term (dB/km)	0,3820temperature slope calibration	1,0000multiplexer offset coefficient	1,0000multiplexer slope coefficient	1,0000fibre end	0,00T internal ref (°C)	13,05T ext. ref 1 (°C)	-1,94T ext. ref 2 (°C)	-1,93length (m)	temperature (°C)	Stokes	anti-Stokes-744,400	117,184	0,068	-0,062
-743,385	-150,724	-0,323	0,018
-742,371	2,024	0,155	0,082
-741,356	-48,397	-0,292	0,103
-740,342	800,000	0,037	0,107
-739,327	-36,936	-0,285	0,112
-738,312	-116,254	-0,019	0,003
-737,298	-13,204	-0,352	-0,168
-736,283	100,885	-0,031	0,027
-735,269	-93,882	-0,241	0,048
-734,254	-27,817	0,089	-0,038
-733,239	-60,726	-0,574	-0,177
-732,225	-13,640	0,151	0,072
-731,210	-200,000	0,013	0,069
-730,196	-56,426	-0,107	0,035
-729,181	800,000	0,035	0,102
-728,167	800,000	-0,045	-0,100
-727,152	534,263	-0,050	-0,087
-726,137	-200,000	0,021	-0,143
-725,123	23,709	-0,130	-0,078
-724,108	800,000	-0,065	-0,139
-723,094	435,290	-0,051	-0,082
-722,079	372,479	-0,093	-0,139
-721,064	800,000	0,041	-0,104
-720,050	800,000	0,022	-0,050
-719,035	-200,000	-0,010	-0,040
-718,021	280,943	-0,115	-0,151
-717,006	98,500	0,014	0,012
-715,991	-200,000	-0,002	-0,105
-714,977	-65,657	0,089	0,026
-713,962	81,270	-0,151	-0,119
-712,948	-68,074	0,075	0,021
-711,933	-64,818	-0,076	-0,022
-710,918	81,916	0,003	0,003
-709,904	-200,000	0,043	-0,166
-708,889	-27,130	-0,128	-0,055
-707,875	-147,946	-0,009	0,001
-706,860	-200,000	-0,044	0,159
-705,845	800,000	0,037	0,110
-704,831	800,000	0,011	-0,032
-703,816	-44,642	-0,061	0,022
-702,802	-117,188	0,153	0,020
-701,787	90,849	-0,154	-0,127
-700,772	-200,000	0,027	-0,182
-699,758	227,614	0,083	-0,100
-698,743	-200,000	-0,043	0,000
-697,729	142,120	0,032	0,032
-696,714	437,437	-0,139	-0,223
-695,699	-69,380	-0,130	-0,036
-694,685	210,950	-0,079	-0,092
-693,670	428,659	-0,014	0,022
-692,656	-89,497	0,037	-0,008
-691,641	80,044	0,076	-0,060
-690,627	643,582	0,066	0,123
-689,612	8,654	-0,043	-0,024
-688,597	40,827	-0,071	0,047
-687,583	-115,389	-0,059	-0,008
-686,568	360,726	0,102	-0,150
-685,554	-200,000	-0,004	-0,074
-684,539	275,028	-0,036	0,046
-683,524	127,441	-0,069	-0,065
-682,510	-200,000	0,019	0,094
-681,495	213,634	-0,046	-0,054
-680,481	-200,000	-0,017	0,088
-679,466	-30,533	-0,056	-0,023
-678,451	-33,393	-0,047	-0,019
-677,437	424,299	-0,104	-0,165
-676,422	140,260	0,077	0,075
-675,408	-200,000	0,041	-0,135
-674,393	287,219	-0,108	0,144
-673,378	800,000	0,019	-0,061
-672,364	-127,585	-0,066	-0,007
-671,349	136,838	0,041	0,039
-670,335	226,924	-0,044	0,053
-669,320	279,867	-0,037	0,048
-668,305	-200,000	0,002	0,107
-667,291	-101,091	-0,114	-0,020
-666,276	800,000	0,026	0,074
-665,262	800,000	-0,074	-0,152
-664,247	148,710	-0,060	-0,059
-663,232	304,364	-0,076	-0,104
-662,218	-200,000	-0,009	-0,036
-661,203	-200,000	0,038	0,207
-660,189	-200,000	-0,006	-0,062
-659,174	-200,000	-0,011	-0,042
-658,159	-133,106	-0,107	-0,010
-657,145	-51,458	-0,127	-0,043
-656,130	189,507	-0,124	0,137
-655,116	-145,922	-0,069	0,004
-654,101	-200,000	0,005	0,019
-653,086	232,607	-0,052	-0,063
-652,072	9,981	-0,104	-0,058
-651,057	196,084	-0,046	-0,052
-650,043	-200,000	-0,011	-0,066
-649,028	19,393	-0,049	0,029
-648,014	38,223	0,174	0,113
-646,999	300,528	0,060	-0,082
-645,984	-166,166	-0,141	-0,004
-644,970	-91,680	-0,132	0,027
-643,955	800,000	0,023	-0,071
-642,941	-58,028	-0,128	-0,041
-641,926	-200,000	-0,046	0,175
-640,911	203,148	0,056	0,063
-639,897	800,000	0,108	-0,225
-638,882	800,000	0,017	0,041
-637,868	-62,212	-0,065	-0,020
-636,853	561,925	0,014	0,026
-635,838	-17,489	-0,128	0,059
-634,824	5,635	0,048	0,026
-633,809	385,356	-0,123	0,187
-632,795	800,000	-0,047	0,125
-631,780	-89,070	0,101	-0,022
-630,765	148,698	0,030	-0,030
-629,751	73,942	0,040	-0,031
-628,736	150,051	0,030	-0,030
-627,722	-19,511	0,146	0,066
-626,707	-89,244	0,083	0,018
-625,692	-200,000	-0,047	0,165
-624,678	-200,000	-0,005	-0,090
-623,663	-47,467	-0,070	0,025
-622,649	-200,000	0,008	-0,052
-621,634	-164,180	0,097	-0,003
-620,619	-87,014	-0,013	0,003
-619,605	-200,000	-0,002	0,083
-618,590	-200,000	0,013	-0,055
-617,576	-24,888	-0,158	0,068
-616,561	235,664	0,103	0,125
-615,546	-200,000	-0,035	-0,117
-614,532	-11,715	0,085	-0,041
-613,517	14,927	-0,087	-0,049
-612,503	-76,916	0,096	-0,024
-611,488	-75,596	0,091	-0,024
-610,474	800,000	-0,011	-0,028
-609,459	156,488	-0,032	-0,032
-608,444	80,501	-0,014	-0,011
-607,430	-200,000	0,003	-0,063
-606,415	-200,000	-0,013	-0,089
-605,401	226,044	0,018	-0,021
-604,386	-115,739	-0,023	0,003
-603,371	434,614	0,021	0,034
-602,357	339,773	0,077	0,110
-601,342	-55,163	0,086	-0,028
-600,328	50,568	-0,076	-0,053
-599,313	800,000	-0,063	-0,174
-598,298	-161,638	0,071	-0,003
-597,284	-80,617	0,079	-0,019
-596,269	800,000	0,043	-0,123
-595,255	-200,000	0,034	-0,207
-594,240	800,000	0,032	-0,086
-593,225	-200,000	-0,035	0,119
-592,211	-200,000	0,000	-0,039
-591,196	-200,000	0,023	0,163
-590,182	78,217	0,054	-0,042
-589,167	418,197	0,087	0,137
-588,152	-15,867	0,016	0,007
-587,138	88,302	-0,152	-0,123
-586,123	161,044	-0,213	-0,217
-585,109	604,348	-0,105	-0,191
-584,094	-200,000	0,004	-0,022
-583,079	-108,481	0,028	0,004
-582,065	-66,065	-0,076	-0,022
-581,050	-200,000	-0,010	0,063
-580,036	626,669	0,042	0,078
-579,021	-200,000	-0,027	0,121
-578,006	-78,332	-0,066	0,016
-576,992	223,476	-0,023	-0,028
-575,977	-200,000	0,017	0,147
-574,963	-200,000	-0,036	0,126
-573,948	2,800	-0,172	-0,091
-572,934	308,366	-0,041	0,056
-571,919	-31,365	-0,128	-0,052
-570,904	1,510	-0,100	-0,052
-569,890	546,255	-0,123	-0,215
-568,875	-26,793	0,187	0,079
-567,861	156,741	-0,045	0,045
-566,846	146,970	0,037	0,036
-565,831	-154,117	-0,100	0,005
-564,817	40,330	0,059	-0,039
-563,802	-64,513	-0,177	-0,052
-562,788	800,000	-0,023	-0,063
-561,773	-200,000	-0,002	-0,143
-560,758	-200,000	-0,014	0,051
-559,744	-200,000	-0,002	0,118
-558,729	-200,000	-0,003	0,136
-557,715	69,890	-0,050	-0,037
-556,700	-171,309	-0,089	-0,002
-555,685	-35,562	0,076	-0,030
-554,671	452,377	0,066	-0,107
-553,656	-155,736	0,047	-0,002
-552,642	-156,678	0,138	-0,006
-551,627	439,535	-0,026	0,041
-550,612	575,102	-0,040	0,072
-549,598	573,596	-0,036	-0,063
-548,583	-134,224	0,036	0,003
-547,569	294,350	-0,039	0,052
-546,554	88,797	0,073	0,059
-545,539	135,002	0,050	0,047
-544,525	-200,000	0,010	-0,128
-543,510	-200,000	-0,029	-0,165
-542,496	70,993	-0,106	-0,080
-541,481	-67,575	-0,110	-0,031
-540,466	-165,932	0,157	0,005
-539,452	-200,000	0,002	0,089
-538,437	-200,000	-0,012	0,131
-537,423	344,264	-0,054	0,077
-536,408	163,742	0,036	0,037
-535,393	-6,026	0,032	0,016
-534,379	-38,597	0,029	-0,011
-533,364	-200,000	-0,005	0,017
-532,350	-145,149	-0,130	-0,008
-531,335	13,538	0,053	-0,030
-530,321	800,000	0,020	0,044
-529,306	-200,000	0,017	-0,136
-528,291	-19,384	0,060	0,027
-527,277	427,733	0,055	0,087
-526,262	234,192	-0,029	0,035
-525,248	-48,808	-0,229	0,080
-524,233	255,343	0,106	0,133
-523,218	-200,000	0,018	-0,120
-522,204	800,000	-0,033	-0,073
-521,189	724,985	-0,052	0,101
-520,175	800,000	0,017	-0,045
-519,160	40,153	0,084	-0,055
-518,145	-144,803	0,042	0,003
-517,131	800,000	0,034	0,080
-516,116	90,018	0,050	0,041
-515,102	532,354	-0,014	-0,025
-514,087	-200,000	-0,035	0,119
-513,072	59,618	-0,047	-0,034
-512,058	-5,282	-0,096	0,048
-511,043	105,870	0,033	-0,028
-510,029	615,212	-0,033	0,061
-509,014	87,812	-0,030	-0,024
-507,999	146,665	0,051	-0,050
-506,985	150,339	0,009	0,009
-505,970	340,861	0,073	-0,103
-504,956	163,836	0,038	-0,039
-503,941	-200,000	-0,018	-0,082
-502,926	97,149	0,075	0,062
-501,912	246,195	0,035	0,043
-500,897	-82,045	0,216	0,051
-499,883	-83,409	0,153	-0,035
-498,868	-38,882	-0,085	-0,033
-497,853	800,000	-0,040	-0,100
-496,839	396,880	0,077	-0,118
-495,824	-123,637	0,046	-0,005
-494,810	800,000	0,025	-0,075
-493,795	427,637	-0,068	0,108
-492,781	92,973	-0,067	0,055
-491,766	800,000	0,032	-0,100
-490,751	-27,978	-0,023	0,010
-489,737	6,363	0,147	-0,079
-488,722	471,616	0,099	0,163
-487,708	402,551	0,017	-0,026
-486,693	-200,000	0,013	0,076
-485,678	-200,000	0,024	0,109
-484,664	64,526	-0,060	-0,044
-483,649	800,000	-0,051	-0,131
-482,635	800,000	0,088	-0,188
-481,620	103,100	0,049	0,042
-480,605	-200,000	0,004	0,118
-479,591	-179,053	0,241	-0,004
-478,576	717,049	-0,044	0,085
-477,562	12,779	-0,121	0,068
-476,547	57,715	-0,047	0,034
-475,532	-43,217	0,160	0,059
-474,518	-45,149	0,142	-0,051
-473,503	-200,000	-0,004	0,025
-472,489	388,284	0,051	0,077
-471,474	527,080	-0,067	-0,115
-470,459	569,598	-0,028	0,050
-469,445	800,000	0,018	-0,045
-468,430	-153,684	-0,162	-0,008
-467,416	-14,351	-0,068	-0,032
-466,401	219,290	-0,023	-0,027
-465,386	-200,000	-0,021	0,195
-464,372	322,250	0,044	0,061
-463,357	7,025	-0,082	-0,044
-462,343	38,684	0,017	0,011
-461,328	110,720	0,079	-0,069
-460,313	-200,000	-0,006	0,061
-459,299	316,298	0,068	0,094
-458,284	-100,948	0,100	0,018
-457,270	-135,654	-0,103	0,009
-456,255	69,981	-0,051	0,038
-455,241	-46,168	-0,073	0,026
-454,226	-84,275	-0,190	0,043
-453,211	-200,000	0,024	0,107
-452,197	309,479	0,083	0,113
-451,182	-147,600	0,048	-0,003
-450,168	762,219	0,062	0,123
-449,153	-200,000	-0,001	0,015
-448,138	800,000	-0,046	-0,116
-447,124	69,357	0,024	-0,018
-446,109	-200,000	-0,014	-0,054
-445,095	-200,000	-0,025	-0,156
-444,080	-200,000	0,002	-0,031
-443,065	-200,000	-0,036	0,167
-442,051	-7,992	-0,042	0,020
-441,036	800,000	0,007	-0,015
-440,022	-200,000	0,000	0,028
-439,007	-200,000	-0,001	0,094
-437,992	-46,616	-0,045	-0,016
-436,978	-200,000	-0,010	0,073
-435,963	-48,818	0,148	-0,051
-434,949	800,000	-0,077	0,180
-433,934	-118,519	0,157	0,020
-432,919	63,252	-0,049	-0,035
-431,905	-19,283	-0,064	-0,029
-430,890	-200,000	0,000	-0,040
-429,876	11,814	0,051	-0,028
-428,861	-200,000	0,006	0,040
-427,846	-200,000	-0,033	0,122
-426,832	614,918	0,038	-0,070
-425,817	763,661	-0,052	-0,103
-424,803	-52,852	-0,163	-0,054
-423,788	-200,000	-0,003	0,126
-422,773	99,977	-0,095	0,080
-421,759	430,631	0,063	-0,099
-420,744	-34,947	-0,089	-0,035
-419,730	198,424	0,032	-0,036
-418,715	-200,000	-0,014	0,100
-417,701	-200,000	0,001	-0,075
-416,686	162,521	0,070	-0,071
-415,671	-200,000	0,030	0,110
-414,657	-189,373	-0,060	-0,001
-413,642	-200,000	-0,008	-0,061
-412,628	-200,000	0,007	-0,046
-411,613	-68,552	-0,037	-0,010
-410,598	-63,055	-0,109	0,032
-409,584	137,531	0,034	-0,033
-408,569	-77,229	-0,079	-0,020
-407,555	-200,000	0,013	-0,057
-406,540	800,000	0,034	-0,077
-405,525	800,000	-0,034	-0,102
-404,511	493,258	-0,012	0,021
-403,496	59,669	-0,141	0,100
-402,482	19,210	-0,139	0,081
-401,467	-114,386	0,019	-0,003
-400,452	336,366	-0,123	-0,174
-399,438	111,382	-0,041	0,036
-398,423	289,716	0,017	0,022
-397,409	-7,481	0,074	0,036
-396,394	-200,000	-0,005	-0,071
-395,379	-48,612	0,052	0,018
-394,365	252,889	0,053	0,066
-393,350	140,958	0,037	0,035
-392,336	-112,718	0,099	0,014
-391,321	800,000	0,023	-0,071
-390,306	374,073	-0,110	0,163
-389,292	-200,000	-0,011	-0,117
-388,277	-27,309	-0,025	-0,010
-387,263	165,863	0,037	-0,038
-386,248	550,201	0,045	-0,079
-385,233	-48,188	0,131	-0,045
-384,219	-100,308	0,119	-0,021
-383,204	14,210	-0,087	0,049
-382,190	-200,000	-0,010	-0,129
-381,175	-72,000	0,103	-0,028
-380,160	130,296	0,075	-0,070
-379,146	-39,920	-0,095	0,036
-378,131	84,642	-0,108	0,085
-377,117	800,000	0,039	0,082
-376,102	-82,836	0,062	-0,014
-375,088	-200,000	-0,008	-0,043
-374,073	-200,000	0,057	-0,196
-373,058	27,278	0,075	0,046
-372,044	-200,000	-0,012	0,207
-371,029	2,905	-0,022	0,011
-370,015	128,230	-0,086	0,080
-369,000	-200,000	-0,002	-0,054
-367,985	-200,000	0,010	-0,130
-366,971	800,000	0,037	0,111
-365,956	-200,000	-0,027	0,100
-364,942	103,846	0,081	-0,069
-363,927	117,687	0,033	-0,029
-362,912	-200,000	0,017	-0,085
-361,898	-130,785	0,079	0,008
-360,883	86,441	0,076	-0,060
-359,869	-200,000	0,009	0,064
-358,854	298,825	0,064	-0,086
-357,839	471,951	0,051	0,083
-356,825	443,649	0,009	-0,015
-355,810	61,995	0,022	-0,016
-354,796	342,924	-0,019	-0,027
-353,781	99,429	-0,078	-0,066
-352,766	-52,533	-0,061	-0,020
-351,752	-118,172	-0,055	-0,007
-350,737	200,890	-0,092	0,102
-349,723	-17,133	-0,002	0,001
-348,708	-96,591	0,081	0,015
-347,693	-200,000	-0,029	-0,184
-346,679	800,000	0,035	0,077
-345,664	-200,000	0,003	-0,080
-344,650	334,978	-0,011	0,015
-343,635	-200,000	0,006	0,056
-342,620	-156,621	0,105	0,005
-341,606	-138,221	0,140	0,011
-340,591	310,340	0,060	0,082
-339,577	-200,000	-0,015	0,152
-338,562	12,396	0,070	-0,039
-337,548	-200,000	0,025	-0,152
-336,533	800,000	0,058	-0,180
-335,518	396,455	-0,032	-0,049
-334,504	448,519	0,037	0,059
-333,489	800,000	0,040	-0,097
-332,475	-21,304	0,031	0,014
-331,460	-128,902	0,099	-0,010
-330,445	-200,000	0,008	-0,053
-329,431	334,031	-0,028	0,039
-328,416	126,349	0,082	-0,075
-327,402	493,512	-0,048	0,080
-326,387	123,003	-0,062	0,056
-325,372	800,000	0,036	-0,075
-324,358	-200,000	0,005	0,081
-323,343	-38,860	-0,091	0,034
-322,329	112,852	0,063	0,056
-321,314	416,463	0,061	0,095
-320,299	262,157	-0,026	0,033
-319,285	219,253	-0,097	0,113
-318,270	253,212	0,043	0,053
-317,256	429,022	-0,050	-0,078
-316,241	-26,658	0,058	0,025
-315,226	165,939	0,058	0,060
-314,212	252,191	-0,059	-0,073
-313,197	80,759	-0,081	0,063
-312,183	68,267	0,145	0,107
-311,168	-200,000	-0,028	-0,092
-310,153	800,000	-0,012	-0,029
-309,139	800,000	-0,044	-0,107
-308,124	41,499	0,084	0,055
-307,110	6,292	0,044	0,024
-306,095	297,857	-0,075	0,099
-305,080	263,265	0,048	-0,061
-304,066	-139,768	-0,107	-0,008
-303,051	-84,413	-0,061	0,014
-302,037	-200,000	0,014	-0,146
-301,022	477,368	0,060	0,099
-300,008	209,079	0,056	0,064
-298,993	-23,834	0,138	0,059
-297,978	-91,886	0,036	0,007
-296,964	435,109	-0,041	0,065
-295,949	-24,403	0,042	-0,018
-294,935	107,062	0,105	0,090
-293,920	252,112	0,050	-0,061
-292,905	-3,273	0,112	0,056
-291,891	278,509	-0,054	0,070
-290,876	406,787	0,029	-0,044
-289,862	-115,436	-0,148	0,020
-288,847	207,457	-0,094	-0,106
-287,832	112,627	0,052	-0,046
-286,818	537,676	0,073	0,126
-285,803	-200,000	-0,007	0,178
-284,789	87,150	0,069	-0,055
-283,774	-200,000	-0,015	0,122
-282,759	-200,000	0,048	0,000
-281,745	-126,186	-0,080	0,009
-280,730	-3,444	-0,256	-0,128
-279,716	-200,000	-0,043	-0,191
-278,701	74,844	-0,077	-0,059
-277,686	50,767	0,035	0,024
-276,672	-200,000	0,001	0,037
-275,657	522,428	-0,030	0,051
-274,643	-99,556	0,027	-0,005
-273,628	-200,000	0,022	-0,129
-272,613	800,000	-0,026	-0,076
-271,599	-200,000	0,017	-0,145
-270,584	778,770	0,070	0,139
-269,570	-200,000	-0,019	0,069
-268,555	-200,000	0,022	0,086
-267,540	-73,132	-0,139	-0,036
-266,526	379,468	-0,036	-0,053
-265,511	-128,657	0,102	0,010
-264,497	14,256	-0,102	0,057
-263,482	18,389	0,152	0,087
-262,467	-106,284	0,027	0,004
-261,453	-200,000	0,020	0,097
-260,438	398,649	-0,041	-0,063
-259,424	-200,000	0,008	-0,112
-258,409	168,629	-0,070	0,072
-257,395	-4,484	-0,085	0,042
-256,380	389,181	-0,066	-0,099
-255,365	45,458	0,049	0,032
-254,351	-200,000	-0,031	-0,102
-253,336	-200,000	-0,024	-0,135
-252,322	-200,000	-0,008	-0,065
-251,307	128,484	-0,037	0,034
-250,292	-98,090	-0,028	0,005
-249,278	159,279	0,122	-0,122
-248,263	-200,000	0,026	0,111
-247,249	800,000	-0,025	0,079
-246,234	562,826	-0,070	-0,123
-245,219	534,786	-0,108	-0,186
-244,205	-26,884	0,088	-0,037
-243,190	-200,000	-0,017	0,096
-242,176	-200,000	0,023	-0,118
-241,161	-200,000	-0,018	0,071
-240,146	12,334	-0,074	0,041
-239,132	719,407	0,024	-0,046
-238,117	-91,374	-0,150	0,031
-237,103	-200,000	-0,004	-0,144
-236,088	-200,000	-0,001	-0,046
-235,073	-27,588	0,135	0,056
-234,059	-200,000	-0,022	0,152
-233,044	20,936	-0,044	-0,026
-232,030	468,307	-0,093	-0,152
-231,015	-109,652	0,154	-0,023
-230,000	-106,544	0,093	-0,015
-228,986	23,375	-0,048	0,028
-227,971	-54,156	0,122	0,040
-226,957	-200,000	0,009	-0,048
-225,942	800,000	-0,031	0,097
-224,927	-200,000	0,021	0,099
-223,913	-88,551	0,006	0,001
-222,898	112,065	-0,026	0,023
-221,884	714,436	0,001	0,001
-220,869	800,000	-0,100	0,203
-219,855	73,565	0,040	-0,030
-218,840	-200,000	0,009	0,077
-217,825	335,034	0,057	-0,080
-216,811	100,063	-0,046	0,039
-215,796	71,006	-0,067	-0,050
-214,782	-15,049	0,027	-0,012
-213,767	800,000	-0,034	0,071
-212,752	774,592	-0,026	0,052
-211,738	-200,000	-0,001	-0,005
-210,723	-200,000	0,000	0,005
-209,709	116,806	-0,107	-0,094
-208,694	-33,578	-0,106	-0,042
-207,679	-200,000	0,004	0,020
-206,665	218,971	0,046	-0,053
-205,650	-200,000	-0,021	-0,105
-204,636	119,859	0,052	-0,046
-203,621	263,445	-0,134	-0,168
-202,606	152,753	-0,070	0,068
-201,592	113,228	-0,035	-0,030
-200,577	94,308	-0,165	-0,135
-199,563	-99,450	0,020	-0,004
-198,548	-99,544	0,207	0,037
-197,533	693,827	-0,062	0,118
-196,519	800,000	-0,029	0,089
-195,504	-137,002	-0,055	-0,004
-194,490	800,000	-0,039	0,079
-193,475	95,299	-0,068	-0,056
-192,460	-56,337	-0,074	0,024
-191,446	14,771	0,039	-0,022
-190,431	-100,201	-0,032	-0,006
-189,417	67,700	0,135	0,099
-188,402	-200,000	0,030	0,204
-187,387	-200,000	0,007	-0,040
-186,373	150,439	-0,087	-0,085
-185,358	-53,839	0,156	-0,051
-184,344	579,177	-0,053	0,093
-183,329	-147,257	0,099	0,006
-182,315	-200,000	-0,026	0,098
-181,300	-200,000	-0,009	0,116
-180,285	119,374	-0,165	0,147
-179,271	-23,314	-0,117	0,050
-178,256	-200,000	-0,008	-0,109
-177,242	119,666	-0,048	-0,043
-176,227	85,903	0,062	0,049
-175,212	-95,507	0,115	0,022
-174,198	11,876	0,072	0,040
-173,183	21,562	0,050	-0,029
-172,169	16,845	-0,131	-0,074
-171,154	-200,000	0,036	-0,117
-170,139	452,533	0,050	-0,080
-169,125	-58,246	-0,064	0,020
-168,110	-147,930	0,079	-0,005
-167,096	42,260	0,082	0,054
-166,081	-3,460	-0,076	-0,038
-165,066	-71,453	0,120	0,032
-164,052	28,033	-0,060	0,036
-163,037	-53,653	0,106	0,034
-162,023	143,609	0,038	0,036
-161,008	-200,000	0,008	-0,122
-159,993	266,736	-0,014	-0,017
-158,979	-135,496	-0,066	-0,006
-157,964	-6,542	-0,129	-0,063
-156,950	-200,000	-0,040	-0,151
-155,935	23,735	0,046	-0,027
-154,920	99,452	0,058	-0,048
-153,906	30,643	-0,012	-0,008
-152,891	85,960	0,036	0,028
-151,877	-200,000	-0,008	-0,040
-150,862	8,213	-0,151	0,081
-149,847	1,684	0,059	0,030
-148,833	800,000	-0,071	-0,195
-147,818	-200,000	-0,034	-0,199
-146,804	800,000	0,030	-0,081
-145,789	194,586	0,080	-0,087
-144,775	-200,000	-0,013	-0,083
-143,760	310,167	0,076	-0,102
-142,745	-200,000	-0,031	-0,129
-141,731	-200,000	-0,014	-0,051
-140,716	104,501	0,082	-0,070
-139,702	800,000	-0,026	0,074
-138,687	460,988	-0,025	0,041
-137,672	8,588	0,121	0,065
-136,658	742,802	-0,037	0,072
-135,643	800,000	-0,024	-0,069
-134,629	-200,000	-0,032	-0,120
-133,614	-12,467	-0,066	0,031
-132,599	35,254	-0,106	0,067
-131,585	800,000	0,048	0,106
-130,570	-200,000	0,011	-0,055
-129,556	-104,787	-0,034	-0,006
-128,541	-200,000	0,013	-0,108
-127,526	800,000	0,028	-0,086
-126,512	-8,872	-0,055	-0,027
-125,497	-77,228	-0,131	-0,032
-124,483	38,719	-0,027	-0,017
-123,468	-65,945	0,127	0,036
-122,453	-101,705	-0,167	-0,029
-121,439	-200,000	-0,027	0,096
-120,424	203,515	0,075	-0,083
-119,410	-32,668	-0,035	0,014
-118,395	285,470	-0,042	-0,054
-117,380	520,116	-0,016	0,026
-116,366	-112,058	-0,054	0,008
-115,351	800,000	-0,029	0,059
-114,337	800,000	0,020	-0,045
-113,322	21,165	0,064	-0,037
-112,307	-196,161	0,120	0,001
-111,293	-68,070	0,013	-0,004
-110,278	-51,569	0,086	0,029
-109,264	-200,000	-0,004	-0,037
-108,249	800,000	-0,022	-0,067
-107,234	495,618	-0,072	-0,120
-106,220	800,000	-0,020	0,056
-105,205	-200,000	0,008	0,071
-104,191	800,000	0,084	0,206
-103,176	430,118	0,044	0,069
-102,162	381,056	-0,027	0,040
-101,147	278,535	0,027	-0,035
-100,132	275,094	-0,084	-0,107
-99,118	91,828	-0,051	-0,041
-98,103	80,980	0,139	0,107
-97,089	-200,000	0,001	0,097
-96,074	-125,505	0,187	0,020
-95,059	-161,318	0,095	-0,003
-94,045	667,786	-0,023	-0,043
-93,030	-200,000	0,030	-0,188
-92,016	-20,245	-0,049	-0,021
-91,001	800,000	-0,016	0,042
-89,986	14,411	-0,046	-0,025
-88,972	-25,953	0,082	-0,034
-87,957	-19,422	0,172	0,076
-86,943	73,632	-0,118	-0,088
-85,928	122,838	-0,107	-0,096
-84,913	-200,000	0,002	-0,012
-83,899	-23,335	0,070	-0,030
-82,884	-114,657	0,093	0,013
-81,870	153,969	0,082	0,081
-80,855	-123,107	0,065	0,007
-79,840	126,280	0,082	0,074
-78,826	514,592	-0,020	0,033
-77,811	291,455	0,081	-0,106
-76,797	141,600	-0,026	-0,024
-75,782	-123,870	0,022	0,002
-74,767	800,000	-0,023	0,068
-73,753	249,983	-0,031	-0,038
-72,738	-200,000	-0,006	-0,071
-71,724	-200,000	-0,012	-0,119
-70,709	-200,000	-0,012	-0,103
-69,694	127,905	-0,067	0,061
-68,680	-200,000	-0,004	0,046
-67,665	-76,879	0,104	0,026
-66,651	186,176	0,044	-0,047
-65,636	-56,683	0,038	-0,012
-64,622	-200,000	0,020	0,064
-63,607	-200,000	0,014	-0,099
-62,592	-116,134	-0,105	-0,014
-61,578	-106,756	-0,049	0,008
-60,563	256,923	-0,142	0,175
-59,549	-138,232	-0,111	0,009
-58,534	32,429	-2,068	-1,276
-57,519	-200,000	-0,040	-0,608
-56,505	-200,000	-1,409	-5,148
-55,490	78,948	0,805	0,616
-54,476	800,000	5,459	12,310
-53,461	-200,000	18,930	323,367
-52,446	800,000	744,126	2331,581
-51,432	553,176	1656,688	2860,543
-50,417	113,178	1639,170	1422,345
-49,403	78,103	1289,224	983,232
-48,388	30,582	1030,118	628,972
-47,373	19,610	992,664	569,871
-46,359	16,809	980,627	553,743
-45,344	13,501	976,982	540,812
-44,330	13,833	975,208	540,897
-43,315	13,168	973,307	537,644
-42,300	13,017	972,389	536,622
-41,286	13,063	971,439	536,227
-40,271	13,067	970,602	535,755
-39,257	13,096	969,401	535,165
-38,242	13,109	968,502	534,690
-37,227	13,044	967,714	534,024
-36,213	13,002	966,954	533,447
-35,198	13,031	965,950	532,965
-34,184	13,048	965,383	532,687
-33,169	13,059	964,347	532,128
-32,154	13,155	963,241	531,810
-31,140	13,053	962,695	531,157
-30,125	13,114	961,860	530,870
-29,111	13,056	960,956	530,164
-28,096	13,088	960,251	529,859
-27,082	13,144	959,595	529,657
-26,067	13,079	958,760	528,965
-25,052	13,086	958,072	528,588
-24,038	13,075	957,414	528,166
-23,023	13,037	956,812	527,692
-22,009	13,088	956,200	527,496
-20,994	13,120	955,443	527,162
-19,979	13,115	954,919	526,834
-18,965	13,047	954,311	526,261
-17,950	13,077	953,733	526,016
-16,936	13,045	953,104	525,547
-15,921	13,058	952,322	525,135
-14,906	12,985	951,840	524,616
-13,892	12,985	950,922	524,091
-12,877	12,978	950,304	523,705
-11,863	12,944	949,800	523,297
-10,848	12,937	949,271	522,964
-9,833	13,035	948,840	523,019
-8,819	13,061	947,817	522,516
-7,804	13,036	947,288	522,124
-6,790	12,946	946,868	521,586
-5,775	13,008	946,300	521,448
-4,760	13,034	945,649	521,152
-3,746	13,032	944,949	520,738
-2,731	12,823	944,401	519,756
-1,717	12,799	943,863	519,360
-0,702	12,840	943,089	519,043
0,313	12,597	942,556	518,766
1,327	15,991	940,120	528,099
2,342	25,172	793,496	470,016
3,356	21,502	457,085	265,139
4,371	-5,428	314,953	154,054
5,386	-9,308	296,780	141,226
6,400	-11,022	290,923	136,725
7,415	-11,307	288,448	135,269
8,429	-11,630	286,820	134,177
9,444	-11,535	285,980	133,864
10,459	-11,416	285,302	133,652
11,473	-11,670	284,801	133,158
12,488	-11,511	284,085	132,966
13,502	-11,766	283,660	132,508
14,517	-11,603	283,212	132,444
15,531	-11,719	282,893	132,171
16,546	-11,540	282,479	132,139
17,561	-11,607	282,061	131,866
18,575	-11,298	281,695	131,981
19,590	-11,402	281,310	131,689
20,604	-11,496	281,140	131,508
21,619	-11,558	280,714	131,237
22,634	-11,477	280,532	131,218
23,648	-11,586	280,194	130,944
24,663	-11,430	279,778	130,886
25,677	-11,559	279,601	130,669
26,692	-11,448	279,423	130,680
27,707	-11,478	278,998	130,441
28,721	-11,435	278,766	130,362
29,736	-11,547	278,358	130,054
30,750	-11,478	278,216	130,041
31,765	-11,536	277,956	129,853
32,780	-11,336	277,733	129,926
33,794	-11,505	277,470	129,632
34,809	-11,541	277,140	129,432
35,823	-11,481	276,949	129,388
36,838	-11,686	276,728	129,080
37,853	-11,568	276,415	129,034
38,867	-11,426	276,172	129,042
39,882	-11,517	276,081	128,903
40,896	-11,602	275,781	128,672
41,911	-11,665	275,406	128,426
42,926	-11,609	275,221	128,380
43,940	-11,676	274,966	128,188
44,955	-11,499	274,690	128,213
45,969	-11,472	274,526	128,150
46,984	-11,564	274,436	128,011
47,999	-11,600	274,125	127,820
49,013	-11,678	273,856	127,611
50,028	-11,683	273,593	127,472
51,042	-11,757	273,405	127,305
52,057	-11,654	273,044	127,221
53,071	-11,759	272,975	127,080
54,086	-11,770	272,718	126,938
55,101	-11,738	272,604	126,903
56,115	-11,568	272,235	126,879
57,130	-11,525	271,982	126,789
58,144	-11,657	271,808	126,575
59,159	-11,607	271,516	126,474
60,174	-11,577	271,290	126,384
61,188	-11,587	270,985	126,222
62,203	-11,643	270,860	126,101
63,217	-11,380	270,664	126,240
64,232	-11,449	270,408	126,047
65,247	-11,772	270,265	125,672
66,261	-11,468	269,917	125,778
67,276	-11,498	269,816	125,691
68,290	-11,635	269,463	125,391
69,305	-11,768	269,318	125,190
70,320	-11,793	269,163	125,084
71,334	-11,436	268,838	125,248
72,349	-11,645	268,648	124,957
73,363	-11,565	268,298	124,857
74,378	-11,523	268,158	124,818
75,393	-11,695	267,900	124,531
76,407	-11,436	267,825	124,720
77,422	-11,438	267,485	124,549
78,436	-11,730	267,201	124,141
79,451	-11,625	267,105	124,181
80,466	-11,630	266,741	123,995
81,480	-11,661	266,715	123,944
82,495	-11,639	266,487	123,847
83,509	-11,652	266,263	123,720
84,524	-11,571	266,030	123,674
85,539	-11,499	265,857	123,648
86,553	-11,558	265,557	123,444
87,568	-11,439	265,431	123,482
88,582	-11,694	265,306	123,183
89,597	-11,652	265,001	123,068
90,611	-11,606	264,896	123,050
91,626	-11,752	264,696	122,815
92,641	-11,505	264,353	122,866
93,655	-11,614	264,249	122,709
94,670	-11,448	263,925	122,696
95,684	-11,739	263,818	122,375
96,699	-11,776	263,680	122,267
97,714	-11,735	263,301	122,117
98,728	-11,681	263,278	122,144
99,743	-11,717	262,942	121,945
100,757	-11,502	262,605	121,969
101,772	-11,718	262,486	121,711
102,787	-11,593	262,255	121,704
103,801	-11,682	262,118	121,550
104,816	-11,487	261,929	121,625
105,830	-11,374	261,733	121,623
106,845	-11,697	261,613	121,271
107,860	-11,546	261,323	121,259
108,874	-11,602	261,013	121,055
109,889	-11,670	260,838	120,903
110,903	-11,623	260,764	120,899
111,918	-11,536	260,367	120,781
112,933	-11,644	260,315	120,651
113,947	-11,464	260,098	120,698
114,962	-11,534	259,823	120,498
115,976	-11,842	259,928	120,265
116,991	-11,725	259,653	120,230
118,006	-11,533	259,256	120,204
119,020	-11,561	259,258	120,169
120,035	-11,596	259,019	120,017
121,049	-11,574	258,915	119,978
122,064	-11,762	258,668	119,688
123,079	-11,742	258,467	119,602
124,093	-11,714	258,274	119,526
125,108	-11,879	258,237	119,355
126,122	-11,605	257,918	119,435
127,137	-11,746	257,589	119,150
128,151	-11,529	257,492	119,283
129,166	-11,628	257,241	119,071
130,181	-11,570	257,128	119,057
131,195	-11,669	256,888	118,850
132,210	-11,531	256,526	118,791
133,224	-11,524	256,491	118,771
134,239	-11,666	256,288	118,543
135,254	-11,734	256,224	118,445
136,268	-11,605	255,900	118,395
137,283	-11,917	255,867	118,100
138,297	-11,655	255,562	118,174
139,312	-11,869	255,292	117,855
140,327	-11,858	255,064	117,748
141,341	-11,416	255,039	118,107
142,356	-11,382	254,750	117,992
143,370	-11,473	254,701	117,881
144,385	-11,461	254,304	117,697
145,400	-11,261	254,255	117,835
146,414	-11,379	254,031	117,619
147,429	-11,674	253,833	117,265
148,443	-11,551	253,621	117,261
149,458	-11,536	253,447	117,183
150,473	-11,490	253,320	117,154
151,487	-11,337	252,900	117,079
152,502	-11,233	252,835	117,128
153,516	-11,379	252,686	116,924
154,531	-11,506	252,604	116,767
155,546	-11,574	252,440	116,622
156,560	-11,586	252,120	116,454
157,575	-11,725	251,985	116,264
158,589	-11,811	251,889	116,136
159,604	-11,352	251,727	116,441
160,619	-11,270	251,638	116,458
161,633	-11,275	251,479	116,370
162,648	-11,189	251,172	116,291
163,662	-11,556	250,984	115,883
164,677	-11,494	250,717	115,802
165,692	-11,604	250,625	115,656
166,706	-11,390	250,470	115,754
167,721	-11,204	250,357	115,848
168,735	-11,241	250,214	115,741
169,750	-11,421	250,028	115,493
170,764	-11,454	249,779	115,340
171,779	-11,428	249,621	115,279
172,794	-11,515	249,564	115,169
173,808	-11,642	249,263	114,914
174,823	-11,759	248,994	114,681
175,837	-11,460	248,899	114,878
176,852	-11,475	248,673	114,751
177,867	-11,427	248,517	114,709
178,881	-11,401	248,301	114,621
179,896	-11,554	248,197	114,434
180,910	-11,439	248,093	114,472
181,925	-11,483	248,042	114,401
182,940	-11,406	247,716	114,305
183,954	-11,595	247,555	114,063
184,969	-11,249	247,387	114,263
185,983	-11,228	247,387	114,270
186,998	-11,276	247,091	114,084
188,013	-11,301	246,924	113,975
189,027	-11,156	246,705	113,985
190,042	-11,441	246,568	113,675
191,056	-11,449	246,290	113,531
192,071	-11,646	245,972	113,211
193,086	-11,687	245,837	113,105
194,100	-11,745	245,759	113,011
195,115	-11,453	245,694	113,212
196,129	-11,404	245,590	113,195
197,144	-11,492	245,203	112,934
198,159	-11,475	245,021	112,853
199,173	-11,559	244,921	112,729
200,188	-11,653	244,600	112,493
201,202	-11,866	244,496	112,260
202,217	-11,864	244,277	112,151
203,232	-11,445	243,889	112,306
204,246	-11,800	244,060	112,084
205,261	-11,471	243,948	112,292
206,275	-12,073	243,429	111,552
207,290	-11,166	243,828	112,467
208,304	-6,604	245,197	116,837
209,319	-3,747	245,939	119,531
210,334	-2,556	246,198	120,625
211,348	-1,776	246,217	121,266
212,363	-1,509	246,407	121,568
213,377	-0,884	246,207	121,972
214,392	-0,537	246,200	122,242
215,407	-0,579	246,182	122,188
216,421	-0,366	245,964	122,243
217,436	-0,596	245,763	121,944
218,450	-0,659	245,573	121,788
219,465	-0,591	245,419	121,756
220,480	-0,541	245,259	121,706
221,494	-0,591	245,190	121,620
222,509	-0,724	244,998	121,406
223,523	-0,743	244,830	121,297
224,538	-0,573	244,560	121,290
225,553	-0,722	244,410	121,084
226,567	-0,918	244,256	120,837
227,582	-0,559	244,009	120,996
228,596	-0,863	243,919	120,693
229,611	-0,744	243,814	120,727
230,626	-0,870	243,665	120,541
231,640	-0,653	243,451	120,600
232,655	-0,886	243,278	120,314
233,669	-0,829	243,133	120,278
234,684	-0,848	242,938	120,156
235,699	-0,831	242,780	120,081
236,713	-0,950	242,596	119,883
237,728	-0,688	242,508	120,040
238,742	-0,766	242,261	119,845
239,757	-0,781	242,171	119,777
240,772	-0,885	242,025	119,610
241,786	-0,889	241,833	119,501
242,801	-0,916	241,616	119,362
243,815	-0,715	241,483	119,447
244,830	-0,766	241,407	119,358
245,844	-0,575	241,118	119,358
246,859	-0,635	241,035	119,258
247,874	-0,885	240,779	118,920
248,888	-0,782	240,619	118,913
249,903	-1,007	240,546	118,686
250,917	-0,783	240,303	118,735
251,932	-0,648	240,170	118,767
252,947	-0,810	240,090	118,587
253,961	-0,843	239,935	118,473
254,976	-0,797	239,748	118,407
255,990	-0,729	239,639	118,398
257,005	-0,973	239,434	118,091
258,020	-0,797	239,363	118,186
259,034	-0,852	239,194	118,047
260,049	-0,695	238,978	118,055
261,063	-0,675	238,821	117,983
262,078	-0,678	238,566	117,844
263,093	-0,820	238,469	117,673
264,107	-0,688	238,328	117,698
265,122	-0,793	238,282	117,581
266,136	-0,820	238,064	117,442
267,151	-0,740	237,882	117,405
268,166	-0,706	237,596	117,281
269,180	-0,676	237,491	117,241
270,195	-0,722	237,416	117,158
271,209	-0,648	237,306	117,151
272,224	-0,648	237,104	117,041
273,239	-0,541	237,038	117,082
274,253	-0,620	236,738	116,862
275,268	-0,747	236,570	116,668
276,282	-0,810	236,571	116,610
277,297	-0,691	236,274	116,546
278,312	-0,641	236,313	116,594
279,326	-0,488	236,039	116,568
280,341	-0,758	235,940	116,297
281,355	-0,628	235,831	116,336
282,370	-0,654	235,678	116,229
283,384	-0,689	235,492	116,099
284,399	-0,604	235,241	116,031
285,414	-0,454	235,077	116,057
286,428	-0,535	235,071	115,981
287,443	-0,597	234,951	115,863
288,457	-0,781	234,823	115,646
289,472	-0,521	234,487	115,673
290,487	-0,778	234,501	115,470
291,501	-0,647	234,228	115,427
292,516	-0,515	234,050	115,431
293,530	-0,411	233,774	115,365
294,545	-0,677	233,936	115,228
295,560	-0,568	233,614	115,144
296,574	-0,412	233,432	115,165
297,589	-0,385	233,306	115,113
298,603	-0,561	233,129	114,879
299,618	-0,643	232,982	114,733
300,633	-0,568	232,945	114,762
301,647	-0,473	232,896	114,802
302,662	-0,430	232,668	114,712
303,676	-0,488	232,513	114,581
304,691	-0,472	232,313	114,484
305,706	-0,462	232,187	114,420
306,720	-0,587	232,053	114,248
307,735	-0,402	231,997	114,352
308,749	-0,491	231,889	114,221
309,764	-0,433	231,684	114,154
310,779	-0,511	231,452	113,969
311,793	-0,522	231,369	113,910
312,808	-0,435	231,081	113,824
313,822	-0,479	231,097	113,789
314,837	-0,379	230,898	113,757
315,852	-0,204	230,689	113,777
316,866	-0,332	230,614	113,632
317,881	-0,307	230,467	113,568
318,895	-0,233	230,238	113,502
319,910	-0,252	230,085	113,402
320,925	-0,598	229,912	113,044
321,939	-0,422	229,879	113,151
322,954	-0,252	229,765	113,214
323,968	-0,162	229,572	113,177
324,983	-0,174	229,400	113,073
325,997	-0,309	229,286	112,905
327,012	-0,190	229,146	112,916
328,027	-0,075	228,940	112,891
329,041	-0,152	228,934	112,820
330,056	-0,372	228,737	112,546
331,070	0,017	228,515	112,721
332,085	-0,125	228,466	112,579
333,100	-0,129	228,314	112,491
334,114	-0,266	228,216	112,330
335,129	-0,172	227,892	112,231
336,143	-0,249	227,847	112,141
337,158	-0,178	227,703	112,114
338,173	-0,161	227,619	112,075
339,187	-0,185	227,469	111,974
340,202	-0,199	227,350	111,894
341,216	0,082	227,114	111,978
342,231	0,135	226,905	111,905
343,246	-0,169	226,937	111,683
344,260	-0,235	226,731	111,522
345,275	-0,071	226,615	111,578
346,289	0,048	226,363	111,533
347,304	-0,155	226,337	111,359
348,319	-0,154	226,007	111,187
349,333	-0,179	226,039	111,174
350,348	-0,128	225,868	111,118
351,362	0,006	225,740	111,145
352,377	-0,158	225,445	110,868
353,392	-0,010	225,415	110,953
354,406	0,183	225,311	111,036
355,421	196,649	1319,248	1395,272
356,435	157,661	1452,490	1395,226
