DTS Sentinel unit serial number:	SN410029Multiplexer serial number:	ORYXHardware model number:	OX2-SRSoftware version number:	ORYX F/W v4,00 Oryx Data Collector v3.7.2.0data status	okinstallation	B5 Nyhavnadifferential loss correction	single-endedforward channel	channel 2reverse channel	N/Adate	2023/12/14time	17:32:13forward acquisition time	300,00reverse acquisition time	0,00gamma	499,1914k internal	0,3157k external	0,3157temperature offset calibration	1,0000default loss term (dB/km)	0,3820temperature slope calibration	1,0000multiplexer offset coefficient	1,0000multiplexer slope coefficient	1,0000fibre end	0,00T internal ref (°C)	8,25T ext. ref 1 (°C)	-7,20T ext. ref 2 (°C)	-7,26length (m)	temperature (°C)	Stokes	anti-Stokes-744,400	68,432	0,158	0,119
-743,385	-110,756	-0,307	-0,046
-742,371	129,943	0,172	0,163
-741,356	-92,889	-0,318	-0,065
-740,342	800,000	0,106	0,224
-739,327	-116,284	-0,303	-0,041
-738,312	800,000	0,059	0,123
-737,298	-145,163	-0,422	-0,028
-736,283	-54,753	0,067	-0,022
-735,269	-68,564	-0,291	-0,082
-734,254	-97,561	0,248	0,047
-733,239	6,353	-0,469	-0,256
-732,225	144,829	0,144	0,142
-731,210	30,523	-0,123	0,077
-730,196	-125,809	-0,096	0,011
-729,181	119,221	0,014	-0,013
-728,167	-138,203	-0,129	0,010
-727,152	-81,699	-0,062	-0,015
-726,137	14,351	-0,060	-0,034
-725,123	-200,000	-0,015	-0,111
-724,108	-12,291	-0,158	-0,076
-723,094	-75,817	-0,175	0,045
-722,079	-69,235	-0,168	0,047
-721,064	-200,000	-0,008	0,041
-720,050	37,678	-0,088	-0,058
-719,035	-150,435	-0,048	0,003
-718,021	130,874	-0,108	0,102
-717,006	-137,788	-0,127	-0,010
-715,991	456,157	0,044	-0,072
-714,977	-133,621	-0,188	-0,017
-713,962	3,587	-0,133	-0,071
-712,948	-56,599	-0,107	-0,035
-711,933	800,000	0,013	0,028
-710,918	800,000	-0,055	-0,159
-709,904	800,000	-0,013	-0,039
-708,889	-85,874	-0,140	-0,032
-707,875	-33,671	-0,138	0,056
-706,860	-200,000	0,034	0,139
-705,845	-10,330	0,068	-0,033
-704,831	12,743	-0,095	0,054
-703,816	-194,228	-0,104	-0,001
-702,802	-79,919	-0,109	-0,027
-701,787	24,377	-0,079	0,048
-700,772	146,931	-0,053	0,053
-699,758	84,101	0,013	0,011
-698,743	-158,967	0,057	0,002
-697,729	45,352	0,106	-0,072
-696,714	-31,039	-0,087	-0,036
-695,699	-115,466	-0,166	0,023
-694,685	-200,000	-0,011	0,085
-693,670	-200,000	-0,010	-0,044
-692,656	-200,000	-0,007	-0,046
-691,641	800,000	0,025	0,052
-690,627	285,293	-0,044	0,058
-689,612	-200,000	0,014	0,050
-688,597	800,000	0,030	-0,067
-687,583	800,000	-0,025	-0,052
-686,568	110,591	-0,078	-0,069
-685,554	-200,000	0,015	-0,113
-684,539	-28,741	-0,111	-0,047
-683,524	-32,739	-0,078	-0,032
-682,510	-200,000	0,003	-0,077
-681,495	94,826	-0,054	-0,045
-680,481	-200,000	0,054	-0,180
-679,466	63,748	-0,093	-0,069
-678,451	800,000	0,013	-0,034
-677,437	288,744	-0,051	-0,068
-676,422	800,000	-0,024	0,070
-675,408	715,026	0,058	-0,113
-674,393	800,000	0,019	-0,055
-673,378	-89,121	-0,116	-0,025
-672,364	165,119	-0,053	-0,055
-671,349	91,454	-0,025	-0,021
-670,335	146,954	0,055	0,054
-669,320	-8,888	-0,019	0,009
-668,305	184,070	-0,023	0,025
-667,291	-118,715	0,038	0,005
-666,276	-98,505	-0,119	-0,022
-665,262	-200,000	0,015	0,084
-664,247	-200,000	0,008	-0,066
-663,232	104,280	-0,135	-0,117
-662,218	-51,336	-0,110	-0,038
-661,203	-200,000	-0,006	-0,127
-660,189	-111,612	-0,166	-0,024
-659,174	227,993	-0,078	0,094
-658,159	-105,762	-0,124	-0,020
-657,145	800,000	0,003	0,007
-656,130	167,520	0,054	-0,056
-655,116	-133,843	-0,048	0,004
-654,101	22,258	-0,071	0,042
-653,086	-200,000	-0,008	-0,044
-652,072	-125,634	-0,052	-0,006
-651,057	690,354	0,033	-0,064
-650,043	-53,708	-0,058	-0,019
-649,028	-1,986	0,077	-0,040
-648,014	338,570	0,069	-0,099
-646,999	89,724	0,060	0,049
-645,984	214,155	0,084	0,098
-644,970	800,000	0,020	0,058
-643,955	-66,523	-0,084	0,024
-642,941	305,279	0,042	0,057
-641,926	185,707	-0,098	0,107
-640,911	13,574	0,155	0,088
-639,897	-94,408	0,084	0,017
-638,882	-200,000	-0,047	0,169
-637,868	-71,573	-0,090	0,024
-636,853	31,870	-0,041	-0,026
-635,838	12,234	-0,047	0,027
-634,824	-50,777	0,078	0,027
-633,809	-160,700	-0,024	0,001
-632,795	91,350	-0,051	0,042
-631,780	-52,536	-0,030	-0,010
-630,765	558,648	-0,053	0,094
-629,751	11,863	-0,093	-0,052
-628,736	-200,000	0,003	-0,032
-627,722	575,745	-0,016	-0,029
-626,707	-200,000	0,016	-0,132
-625,692	-66,998	0,073	-0,021
-624,678	203,973	-0,063	0,072
-623,663	241,378	-0,043	-0,053
-622,649	-200,000	-0,030	-0,118
-621,634	800,000	0,010	-0,026
-620,619	178,242	-0,036	-0,038
-619,605	-26,505	0,002	0,001
-618,590	-200,000	0,020	-0,112
-617,576	190,295	0,024	0,026
-616,561	391,055	-0,067	-0,102
-615,546	-168,663	-0,042	0,001
-614,532	175,912	0,038	-0,041
-613,517	352,675	-0,070	0,103
-612,503	315,271	-0,028	0,039
-611,488	269,980	0,026	-0,034
-610,474	108,027	-0,040	0,035
-609,459	800,000	-0,083	-0,183
-608,444	-200,000	-0,015	0,056
-607,430	800,000	-0,018	-0,042
-606,415	-50,019	-0,023	-0,008
-605,401	800,000	0,040	0,088
-604,386	-104,719	0,057	-0,010
-603,371	-200,000	0,001	0,026
-602,357	800,000	-0,013	0,033
-601,342	144,564	-0,063	-0,062
-600,328	702,138	-0,035	-0,067
-599,313	1,549	-0,062	0,033
-598,298	-124,336	0,125	-0,014
-597,284	172,223	0,013	0,014
-596,269	-29,625	0,159	0,066
-595,255	152,053	0,098	-0,098
-594,240	81,314	-0,136	0,108
-593,225	-104,576	-0,102	-0,017
-592,211	321,689	0,056	-0,078
-591,196	340,888	0,035	-0,050
-590,182	-118,479	0,068	-0,009
-589,167	800,000	-0,053	-0,140
-588,152	-200,000	-0,013	-0,138
-587,138	-37,329	-0,167	0,065
-586,123	-105,725	0,112	0,018
-585,109	52,928	-0,150	-0,105
-584,094	-200,000	-0,030	-0,130
-583,079	12,515	0,148	-0,083
-582,065	-44,392	-0,026	-0,010
-581,050	-87,256	0,162	-0,036
-580,036	800,000	0,022	-0,056
-579,021	580,695	-0,038	-0,068
-578,006	119,181	-0,120	-0,109
-576,992	341,712	0,083	-0,119
-575,977	-74,148	-0,074	-0,020
-574,963	370,159	0,075	0,111
-573,948	800,000	0,032	0,073
-572,934	-200,000	-0,005	-0,089
-571,919	-200,000	-0,005	0,048
-570,904	170,022	-0,072	-0,076
-569,890	472,917	0,055	0,091
-568,875	381,916	-0,056	-0,084
-567,861	323,496	0,115	0,161
-566,846	800,000	0,037	0,102
-565,831	-200,000	0,002	-0,081
-564,817	-200,000	-0,019	0,097
-563,802	133,442	-0,162	0,154
-562,788	154,031	-0,030	0,030
-561,773	-164,318	-0,086	0,003
-560,758	140,248	0,082	0,079
-559,744	-82,837	0,087	-0,020
-558,729	109,492	0,049	0,043
-557,715	800,000	0,026	0,057
-556,700	-68,760	-0,099	0,028
-555,685	-107,237	-0,082	0,013
-554,671	189,962	-0,061	0,067
-553,656	80,000	-0,067	0,053
-552,642	-200,000	0,010	0,126
-551,627	388,432	0,035	-0,054
-550,612	800,000	0,028	0,078
-549,598	425,693	-0,078	-0,124
-548,583	-141,274	-0,183	-0,013
-547,569	-124,709	0,083	-0,009
-546,554	54,935	0,060	0,042
-545,539	-200,000	-0,035	-0,147
-544,525	-69,059	0,169	-0,047
-543,510	-200,000	0,017	-0,074
-542,496	5,135	-0,170	0,092
-541,481	800,000	-0,028	-0,072
-540,466	-19,888	0,114	0,051
-539,452	165,479	-0,066	0,069
-538,437	-24,282	0,097	0,042
-537,423	-128,532	-0,103	-0,011
-536,408	-200,000	0,002	-0,128
-535,393	-135,253	-0,073	0,006
-534,379	550,029	-0,029	-0,052
-533,364	-19,692	-0,045	0,020
-532,350	387,484	-0,082	-0,124
-531,335	799,697	-0,023	-0,047
-530,321	-129,874	-0,071	-0,007
-529,306	424,079	0,040	0,063
-528,291	2,079	-0,051	-0,027
-527,277	422,749	0,017	-0,027
-526,262	8,163	-0,077	0,042
-525,248	106,771	0,063	0,054
-524,233	-18,103	0,125	-0,057
-523,218	-200,000	0,000	0,032
-522,204	-98,584	-0,114	0,021
-521,189	-57,366	-0,105	0,033
-520,175	-91,338	-0,028	-0,006
-519,160	-71,932	-0,017	-0,005
-518,145	40,847	0,074	-0,049
-517,131	-200,000	-0,024	0,100
-516,116	800,000	0,031	0,080
-515,102	-34,454	-0,149	-0,060
-514,087	10,693	-0,026	-0,014
-513,072	-200,000	0,010	-0,115
-512,058	417,433	0,029	-0,045
-511,043	179,153	0,061	-0,065
-510,029	382,330	0,070	0,105
-509,014	103,780	-0,024	0,021
-507,999	-135,739	-0,068	-0,006
-506,985	551,270	-0,047	-0,082
-505,970	-200,000	-0,016	0,131
-504,956	-21,436	0,101	-0,045
-503,941	799,644	0,071	-0,144
-502,926	-102,626	0,138	0,024
-501,912	459,174	0,051	0,083
-500,897	-23,242	0,077	-0,034
-499,883	58,758	0,108	0,077
-498,868	-200,000	0,004	-0,040
-497,853	-149,879	-0,062	-0,004
-496,839	131,382	-0,037	-0,035
-495,824	800,000	-0,020	-0,051
-494,810	-3,975	-0,028	-0,014
-493,795	800,000	-0,024	-0,067
-492,781	-46,962	-0,099	-0,035
-491,766	-200,000	-0,008	-0,109
-490,751	100,763	-0,066	-0,056
-489,737	-123,675	-0,100	0,011
-488,722	-27,477	0,190	0,080
-487,708	-157,267	-0,106	-0,005
-486,693	800,000	-0,022	0,066
-485,678	42,767	0,041	0,027
-484,664	-200,000	-0,030	-0,162
-483,649	-35,120	0,099	0,039
-482,635	481,655	-0,050	-0,084
-481,620	-111,142	0,090	0,013
-480,605	-32,869	-0,085	0,034
-479,591	-200,000	0,001	-0,129
-478,576	-122,854	-0,070	0,008
-477,562	8,418	0,098	-0,054
-476,547	-152,540	0,041	-0,002
-475,532	-25,039	0,194	-0,083
-474,518	41,561	0,021	0,014
-473,503	361,263	-0,019	0,027
-472,489	800,000	0,081	0,190
-471,474	-140,387	0,119	-0,009
-470,459	800,000	0,065	-0,186
-469,445	-106,362	-0,105	-0,017
-468,430	42,334	0,086	0,057
-467,416	800,000	-0,015	0,038
-466,401	-48,509	-0,037	-0,013
-465,386	272,942	-0,029	-0,038
-464,372	466,463	-0,035	0,058
-463,357	800,000	-0,051	0,125
-462,343	-200,000	0,023	-0,097
-461,328	-172,154	0,129	0,003
-460,313	800,000	-0,008	-0,021
-459,299	-200,000	0,009	0,036
-458,284	-9,615	0,109	0,053
-457,270	-101,274	-0,072	0,013
-456,255	189,702	0,060	0,066
-455,241	-200,000	-0,009	-0,051
-454,226	141,747	0,028	-0,027
-453,211	800,000	-0,060	-0,138
-452,197	27,542	-0,110	0,068
-451,182	-7,132	0,090	-0,044
-450,168	-200,000	-0,046	-0,151
-449,153	800,000	-0,028	-0,071
-448,138	-200,000	-0,006	-0,096
-447,124	776,445	-0,070	0,140
-446,109	204,240	0,052	0,059
-445,095	-58,109	-0,075	-0,024
-444,080	-114,834	0,068	-0,009
-443,065	-200,000	0,011	-0,047
-442,051	32,116	-0,098	0,061
-441,036	-118,696	-0,085	0,011
-440,022	-57,618	-0,065	0,021
-439,007	-20,703	0,128	0,057
-437,992	-42,602	0,049	-0,018
-436,978	800,000	0,036	0,115
-435,963	800,000	-0,022	-0,046
-434,949	-16,520	0,125	0,057
-433,934	-200,000	-0,002	-0,007
-432,919	-200,000	-0,144	0,000
-431,905	35,153	-0,067	-0,042
-430,890	-74,812	0,248	0,064
-429,876	777,783	0,039	0,077
-428,861	128,588	0,065	0,061
-427,846	-153,845	0,030	-0,001
-426,832	-200,000	-0,002	0,060
-425,817	262,649	-0,091	-0,115
-424,803	800,000	0,037	-0,088
-423,788	-18,043	0,054	-0,025
-422,773	800,000	-0,025	-0,071
-421,759	-29,592	0,061	0,025
-420,744	-61,670	-0,080	-0,024
-419,730	99,314	-0,107	-0,090
-418,715	800,000	-0,037	-0,112
-417,701	-93,357	0,104	0,021
-416,686	800,000	-0,035	0,092
-415,671	238,425	0,086	-0,105
-414,657	-151,204	0,055	-0,003
-413,642	800,000	0,039	0,110
-412,628	-4,248	-0,047	0,023
-411,613	-200,000	0,011	-0,149
-410,598	-200,000	-0,031	-0,189
-409,584	-200,000	-0,005	-0,168
-408,569	644,739	-0,036	-0,067
-407,555	98,514	0,110	0,092
-406,540	-86,473	0,104	0,023
-405,525	200,448	0,094	0,105
-404,511	-12,834	0,039	0,018
-403,496	200,060	0,036	-0,040
-402,482	-99,575	0,030	-0,005
-401,467	-200,000	0,009	0,202
-400,452	621,258	-0,050	0,092
-399,438	-11,481	-0,032	-0,015
-398,423	175,096	-0,093	0,098
-397,409	27,822	-0,119	0,073
-396,394	-149,710	-0,047	-0,003
-395,379	29,224	0,108	-0,067
-394,365	128,705	0,087	0,080
-393,350	800,000	0,032	0,066
-392,336	166,671	-0,088	0,091
-391,321	75,076	-0,055	-0,042
-390,306	-200,000	-0,016	-0,115
-389,292	-200,000	-0,021	0,094
-388,277	11,043	0,059	0,033
-387,263	23,682	-0,103	-0,062
-386,248	-200,000	0,005	0,016
-385,233	62,529	0,114	-0,083
-384,219	-200,000	0,015	-0,081
-383,204	-200,000	0,001	0,061
-382,190	-200,000	-0,002	0,085
-381,175	-140,650	0,095	0,007
-380,160	-100,440	0,088	0,016
-379,146	66,436	-0,052	-0,038
-378,131	-200,000	-0,020	-0,117
-377,117	-28,994	0,099	0,041
-376,102	-200,000	0,001	0,015
-375,088	13,180	0,008	-0,004
-374,073	-200,000	0,004	-0,042
-373,058	-200,000	0,043	-0,191
-372,044	-200,000	0,013	0,137
-371,029	-200,000	0,007	0,078
-370,015	75,432	-0,074	0,057
-369,000	800,000	-0,021	-0,063
-367,985	-13,154	-0,157	-0,074
-366,971	-200,000	0,016	-0,075
-365,956	-26,656	0,057	-0,024
-364,942	800,000	0,030	0,085
-363,927	48,042	-0,058	0,039
-362,912	180,430	0,079	0,084
-361,898	93,624	-0,051	-0,042
-360,883	452,552	-0,059	-0,094
-359,869	-108,315	0,144	0,022
-358,854	-200,000	-0,008	0,193
-357,839	-42,552	0,142	-0,052
-356,825	34,972	0,090	0,057
-355,810	800,000	0,029	0,074
-354,796	488,948	-0,054	-0,090
-353,781	800,000	0,015	-0,044
-352,766	57,450	-0,028	0,020
-351,752	661,164	0,048	0,089
-350,737	320,468	0,024	0,034
-349,723	101,355	0,050	-0,042
-348,708	297,705	-0,071	0,095
-347,693	24,583	-0,088	-0,053
-346,679	-42,409	-0,178	-0,066
-345,664	-28,444	-0,108	-0,045
-344,650	800,000	-0,022	0,045
-343,635	-1,845	0,048	-0,025
-342,620	-200,000	0,009	0,078
-341,606	266,670	-0,038	-0,049
-340,591	-37,486	-0,116	-0,045
-339,577	446,880	0,073	0,117
-338,562	-167,065	0,073	-0,002
-337,548	720,612	-0,037	0,072
-336,533	-92,424	0,079	0,016
-335,518	33,702	0,124	0,078
-334,504	285,554	0,081	0,106
-333,489	-143,480	-0,053	-0,004
-332,475	35,936	-0,092	0,059
-331,460	64,149	-0,044	-0,032
-330,445	-38,767	0,036	-0,014
-329,431	67,591	0,032	0,024
-328,416	-200,000	-0,030	0,122
-327,402	800,000	-0,038	-0,116
-326,387	140,365	-0,154	-0,148
-325,372	348,486	-0,022	-0,031
-324,358	-7,440	-0,084	-0,041
-323,343	-3,315	0,166	0,084
-322,329	800,000	-0,029	0,079
-321,314	800,000	-0,027	0,055
-320,299	46,151	0,032	-0,021
-319,285	-134,872	-0,112	-0,010
-318,270	-71,181	-0,079	0,021
-317,256	800,000	-0,041	-0,119
-316,241	-47,162	-0,156	0,055
-315,226	-38,384	0,149	0,057
-314,212	-200,000	-0,006	-0,072
-313,197	-81,742	0,032	0,008
-312,183	28,684	-0,039	-0,024
-311,168	766,792	0,007	-0,014
-310,153	32,293	-0,063	-0,039
-309,139	186,138	0,044	0,048
-308,124	203,204	0,077	0,086
-307,110	-66,828	0,053	0,015
-306,095	-200,000	-0,029	0,144
-305,080	-62,888	0,040	0,012
-304,066	163,157	0,053	-0,054
-303,051	-200,000	0,009	-0,106
-302,037	800,000	-0,051	-0,109
-301,022	800,000	-0,008	0,024
-300,008	151,190	0,062	-0,061
-298,993	-89,288	0,052	0,011
-297,978	-200,000	0,003	0,083
-296,964	438,486	-0,009	-0,014
-295,949	701,028	-0,032	0,060
-294,935	-89,684	-0,117	-0,025
-293,920	800,000	0,008	-0,027
-292,905	652,226	0,035	0,065
-291,891	-89,628	0,161	0,034
-290,876	44,774	-0,165	0,110
-289,862	307,542	-0,046	-0,062
-288,847	6,204	0,088	-0,047
-287,832	-145,231	0,155	-0,010
-286,818	-37,275	0,039	0,015
-285,803	716,451	0,031	-0,060
-284,789	-120,570	0,077	0,009
-283,774	-5,893	-0,063	0,031
-282,759	8,630	0,041	-0,022
-281,745	-200,000	-0,019	-0,063
-280,730	-115,370	0,095	-0,013
-279,716	800,000	0,022	-0,044
-278,701	5,534	0,101	0,054
-277,686	175,936	0,065	0,068
-276,672	65,362	-0,070	-0,051
-275,657	800,000	0,038	-0,077
-274,643	-73,123	-0,109	0,029
-273,628	11,139	-0,035	-0,019
-272,613	-56,277	0,022	-0,007
-271,599	800,000	0,004	0,009
-270,584	800,000	-0,045	-0,103
-269,570	-107,268	-0,038	-0,006
-268,555	-130,314	0,130	-0,013
-267,540	417,782	0,033	-0,051
-266,526	-38,477	0,072	0,028
-265,511	16,714	0,081	-0,046
-264,497	145,462	0,069	-0,067
-263,482	-200,000	0,005	0,021
-262,467	-50,161	-0,036	0,012
-261,453	-41,862	-0,059	0,022
-260,438	95,470	-0,067	-0,055
-259,424	-21,263	-0,084	-0,037
-258,409	-200,000	0,034	0,109
-257,395	800,000	0,047	-0,095
-256,380	-125,159	0,131	0,014
-255,365	-91,302	0,040	0,008
-254,351	-102,226	-0,068	0,012
-253,336	208,616	-0,091	-0,104
-252,322	800,000	-0,030	0,077
-251,307	7,680	-0,086	-0,046
-250,292	-200,000	0,062	0,263
-249,278	-200,000	-0,006	-0,031
-248,263	-84,505	0,120	0,027
-247,249	-200,000	-0,021	0,085
-246,234	24,444	0,072	-0,043
-245,219	31,894	-0,065	-0,040
-244,205	800,000	-0,053	-0,126
-243,190	-200,000	-0,001	0,076
-242,176	-76,949	-0,032	0,008
-241,161	-121,835	0,086	0,010
-240,146	-69,541	-0,043	-0,012
-239,132	-200,000	-0,002	0,189
-238,117	-73,365	-0,024	0,006
-237,103	-200,000	0,003	0,073
-236,088	-28,612	-0,015	0,006
-235,073	-200,000	0,014	0,109
-234,059	-141,435	-0,076	-0,005
-233,044	-16,683	0,127	-0,058
-232,030	-200,000	0,023	0,178
-231,015	-50,641	-0,089	-0,030
-230,000	-200,000	-0,020	-0,108
-228,986	-132,273	0,151	0,014
-227,971	-69,822	-0,080	-0,022
-226,957	-137,630	0,128	0,010
-225,942	800,000	-0,017	0,051
-224,927	123,811	-0,067	0,061
-223,913	-200,000	0,023	-0,121
-222,898	-59,466	0,093	0,029
-221,884	-200,000	0,006	-0,031
-220,869	228,291	0,099	0,117
-219,855	408,882	0,070	0,107
-218,840	-138,934	-0,064	-0,005
-217,825	-200,000	-0,010	-0,039
-216,811	800,000	0,019	-0,049
-215,796	-25,809	0,121	0,051
-214,782	648,795	-0,020	-0,038
-213,767	14,244	-0,068	-0,038
-212,752	-168,734	0,058	0,002
-211,738	-200,000	-0,028	0,120
-210,723	12,934	-0,089	-0,049
-209,709	-85,092	-0,152	0,034
-208,694	436,033	0,039	-0,062
-207,679	-93,717	-0,155	-0,031
-206,665	-94,215	-0,037	0,007
-205,650	-200,000	0,010	-0,050
-204,636	-200,000	-0,003	-0,104
-203,621	800,000	-0,032	-0,076
-202,606	-0,659	-0,140	0,071
-201,592	-200,000	-0,001	-0,054
-200,577	-200,000	0,001	0,051
-199,563	129,829	-0,031	-0,028
-198,548	-87,345	0,173	0,038
-197,533	-77,453	-0,123	0,031
-196,519	238,236	0,056	0,067
-195,504	800,000	0,046	-0,092
-194,490	-93,727	-0,095	0,019
-193,475	-200,000	0,001	-0,031
-192,460	800,000	-0,051	-0,151
-191,446	800,000	0,035	0,100
-190,431	154,566	-0,095	-0,094
-189,417	-74,268	0,070	-0,018
-188,402	636,034	0,053	0,098
-187,387	-27,287	0,121	0,051
-186,373	-49,362	-0,128	-0,044
-185,358	43,183	0,009	0,006
-184,344	422,700	0,032	-0,050
-183,329	34,638	0,089	-0,056
-182,315	-200,000	0,010	0,039
-181,300	-200,000	0,010	-0,093
-180,285	491,154	0,055	-0,091
-179,271	-200,000	-0,012	-0,071
-178,256	4,070	0,034	0,018
-177,242	160,678	0,065	0,065
-176,227	-200,000	-0,013	0,125
-175,212	-11,464	-0,016	-0,008
-174,198	-87,367	-0,103	0,022
-173,183	-200,000	0,026	0,088
-172,169	-200,000	0,011	0,084
-171,154	24,095	-0,079	-0,047
-170,139	22,085	-0,075	-0,044
-169,125	-46,246	0,090	0,032
-168,110	-155,767	-0,080	0,004
-167,096	800,000	-0,026	-0,062
-166,081	-166,610	-0,108	0,003
-165,066	-50,030	-0,063	0,022
-164,052	62,596	0,094	0,068
-163,037	-200,000	-0,014	-0,102
-162,023	663,479	0,069	0,128
-161,008	1,088	-0,045	0,023
-159,993	790,618	-0,049	0,098
-158,979	-200,000	0,015	0,092
-157,964	-200,000	-0,002	-0,046
-156,950	-52,556	-0,090	0,030
-155,935	-200,000	0,016	0,095
-154,920	-0,197	-0,176	0,090
-153,906	40,501	0,073	-0,048
-152,891	-119,861	-0,111	0,014
-151,877	287,894	0,026	0,035
-150,862	-131,924	-0,044	0,004
-149,847	800,000	-0,030	0,062
-148,833	-0,218	-0,079	-0,040
-147,818	11,315	0,095	-0,052
-146,804	-87,329	0,107	0,023
-145,789	-91,657	-0,067	0,014
-144,775	-122,220	-0,041	-0,005
-143,760	83,789	0,085	-0,067
-142,745	219,373	0,032	-0,037
-141,731	156,997	0,085	0,084
-140,716	181,876	0,071	0,076
-139,702	395,613	0,056	-0,085
-138,687	333,028	0,037	-0,052
-137,672	-62,436	-0,189	-0,056
-136,658	17,353	-0,028	-0,016
-135,643	325,833	-0,038	-0,052
-134,629	-3,019	0,066	0,033
-133,614	-200,000	-0,003	0,084
-132,599	-200,000	0,030	0,105
-131,585	28,393	0,002	-0,001
-130,570	286,598	-0,036	-0,047
-129,556	254,811	-0,033	-0,041
-128,541	548,335	-0,017	-0,030
-127,526	-62,483	-0,076	-0,023
-126,512	800,000	-0,018	0,040
-125,497	679,012	0,033	0,062
-124,483	238,774	0,041	-0,049
-123,468	7,006	0,019	0,010
-122,453	-200,000	-0,001	0,018
-121,439	-149,236	-0,116	-0,007
-120,424	52,213	0,027	0,018
-119,410	-123,734	-0,068	-0,008
-118,395	-89,759	0,104	0,022
-117,380	-22,836	0,071	-0,031
-116,366	255,825	-0,061	0,076
-115,351	800,000	-0,009	0,019
-114,337	409,272	-0,044	-0,068
-113,322	-104,344	-0,064	0,011
-112,307	-37,603	0,097	-0,037
-111,293	-200,000	-0,015	0,181
-110,278	-126,721	0,135	0,014
-109,264	800,000	0,023	0,054
-108,249	-81,890	0,018	0,004
-107,234	39,770	0,060	0,038
-106,220	-83,763	-0,068	-0,015
-105,205	218,317	0,092	-0,106
-104,191	23,086	0,161	0,095
-103,176	800,000	-0,050	0,121
-102,162	800,000	-0,053	0,107
-101,147	436,553	-0,069	-0,108
-100,132	-124,044	0,084	-0,009
-99,118	151,173	-0,042	-0,042
-98,103	-4,929	-0,095	-0,047
-97,089	34,374	0,046	0,029
-96,074	-200,000	0,052	0,202
-95,059	-35,668	-0,148	0,058
-94,045	-36,025	0,088	-0,034
-93,030	197,558	0,069	-0,076
-92,016	-67,635	-0,084	0,024
-91,001	58,900	-0,060	-0,042
-89,986	148,876	-0,046	-0,044
-88,972	-200,000	-0,011	0,085
-87,957	664,367	-0,036	0,067
-86,943	-200,000	0,014	0,075
-85,928	-27,539	-0,085	0,035
-84,913	800,000	-0,052	0,159
-83,899	631,941	0,025	-0,045
-82,884	52,599	0,126	-0,086
-81,870	124,650	-0,105	-0,095
-80,855	800,000	0,030	0,072
-79,840	-61,675	-0,115	0,034
-78,826	24,171	0,052	0,031
-77,811	-134,854	-0,067	-0,006
-76,797	1,396	-0,092	-0,047
-75,782	-68,538	0,051	-0,014
-74,767	-200,000	-0,007	0,036
-73,753	96,981	-0,016	0,013
-72,738	24,960	0,033	0,020
-71,724	-20,023	-0,063	-0,028
-70,709	157,901	-0,062	-0,061
-69,694	-200,000	-0,037	-0,135
-68,680	-34,864	0,098	-0,038
-67,665	108,189	0,078	0,067
-66,651	106,454	0,088	-0,075
-65,636	800,000	0,032	0,085
-64,622	-7,062	0,068	-0,033
-63,607	93,419	-0,030	-0,024
-62,592	800,000	0,022	-0,069
-61,578	19,482	0,054	0,031
-60,563	-102,445	0,023	-0,004
-59,549	-121,256	-0,082	-0,010
-58,534	78,521	-2,618	-2,007
-57,519	73,450	0,472	-0,355
-56,505	-200,000	-1,715	-5,482
-55,490	707,811	1,055	2,011
-54,476	800,000	5,166	11,195
-53,461	-200,000	22,109	346,039
-52,446	800,000	761,346	2305,595
-51,432	516,441	1650,315	2779,246
-50,417	101,265	1614,058	1348,354
-49,403	70,290	1270,135	940,792
-48,388	24,355	1019,926	603,573
-47,373	19,015	986,588	566,188
-46,359	13,043	973,745	539,225
-45,344	8,948	970,537	523,992
-44,330	9,407	968,231	524,230
-43,315	8,397	966,684	520,064
-42,300	8,294	965,599	519,122
-41,286	8,332	964,504	518,637
-40,271	8,282	963,528	517,931
-39,257	8,273	962,483	517,319
-38,242	8,269	961,610	516,813
-37,227	8,308	960,941	516,563
-36,213	8,264	960,056	515,923
-35,198	8,270	959,214	515,470
-34,184	8,319	958,561	515,257
-33,169	8,283	957,545	514,573
-32,154	8,302	956,670	514,146
-31,140	8,313	955,661	513,617
-30,125	8,378	954,882	513,389
-29,111	8,347	954,130	512,865
-28,096	8,356	953,434	512,498
-27,082	8,315	952,948	512,083
-26,067	8,287	952,190	511,567
-25,052	8,278	951,257	511,015
-24,038	8,250	950,617	510,562
-23,023	8,245	949,947	510,166
-22,009	8,266	949,657	510,056
-20,994	8,298	948,768	509,661
-19,979	8,234	948,088	509,071
-18,965	8,317	947,384	508,940
-17,950	8,227	947,052	508,453
-16,936	8,257	946,323	508,136
-15,921	8,233	945,421	507,556
-14,906	8,149	944,757	506,910
-13,892	8,173	944,151	506,642
-12,877	8,172	943,555	506,298
-11,863	8,135	942,966	505,843
-10,848	8,202	942,481	505,779
-9,833	8,292	941,886	505,724
-8,819	8,223	941,230	505,132
-7,804	8,149	940,683	504,584
-6,790	8,131	940,089	504,188
-5,775	8,239	939,534	504,215
-4,760	8,220	938,929	503,809
-3,746	8,172	938,292	503,294
-2,731	8,078	937,559	502,583
-1,717	8,001	937,028	502,035
-0,702	8,081	936,117	501,779
0,313	7,864	935,637	501,593
1,327	11,315	933,420	511,258
2,342	20,055	781,809	451,175
3,356	15,257	449,317	252,033
4,371	-10,765	312,928	147,829
5,386	-14,464	295,487	135,832
6,400	-16,460	289,252	130,973
7,415	-17,025	286,613	129,212
8,429	-17,775	284,738	127,621
9,444	-17,869	283,820	127,107
10,459	-17,757	283,178	126,917
11,473	-17,677	282,469	126,666
12,488	-17,769	282,089	126,395
13,502	-18,056	281,711	125,937
14,517	-17,924	281,128	125,793
15,531	-17,883	280,661	125,612
16,546	-17,892	280,317	125,438
17,561	-17,760	279,896	125,365
18,575	-17,912	279,599	125,075
19,590	-17,938	279,217	124,868
20,604	-17,589	278,848	125,026
21,619	-17,859	278,546	124,622
22,634	-17,885	278,175	124,419
23,648	-17,949	277,899	124,224
24,663	-17,865	277,795	124,246
25,677	-17,880	277,381	124,036
26,692	-17,852	277,213	123,976
27,707	-17,684	276,676	123,885
28,721	-17,780	276,447	123,680
29,736	-17,984	276,306	123,412
30,750	-17,874	276,010	123,373
31,765	-17,807	275,643	123,261
32,780	-17,780	275,570	123,244
33,794	-17,744	275,162	123,085
34,809	-17,726	274,973	123,006
35,823	-17,675	274,618	122,884
36,838	-17,880	274,475	122,617
37,853	-17,957	274,342	122,473
38,867	-17,839	274,125	122,477
39,882	-17,916	273,697	122,203
40,896	-17,870	273,571	122,178
41,911	-17,799	273,288	122,107
42,926	-17,777	273,188	122,072
43,940	-17,818	272,696	121,803
44,955	-17,883	272,525	121,655
45,969	-17,791	272,298	121,628
46,984	-17,651	272,261	121,732
47,999	-17,723	272,080	121,573
49,013	-17,600	271,803	121,553
50,028	-17,669	271,559	121,368
51,042	-17,503	271,316	121,403
52,057	-17,709	271,110	121,110
53,071	-17,503	270,778	121,141
54,086	-17,589	270,618	120,978
55,101	-17,699	270,506	120,816
56,115	-17,669	270,058	120,633
57,130	-17,752	269,826	120,443
58,144	-17,591	269,389	120,384
59,159	-17,686	269,320	120,256
60,174	-17,764	269,098	120,075
61,188	-17,817	268,921	119,936
62,203	-17,716	268,710	119,923
63,217	-17,555	268,365	119,907
64,232	-17,699	268,218	119,698
65,247	-17,770	268,008	119,529
66,261	-17,726	267,803	119,467
67,276	-17,676	267,523	119,378
68,290	-17,719	267,358	119,254
69,305	-17,644	267,090	119,192
70,320	-17,665	266,830	119,046
71,334	-17,793	266,748	118,882
72,349	-17,797	266,423	118,723
73,363	-17,796	266,175	118,603
74,378	-17,692	265,928	118,577
75,393	-17,546	265,643	118,572
76,407	-17,705	265,614	118,404
77,422	-17,859	265,414	118,165
78,436	-17,729	265,034	118,103
79,451	-17,697	264,915	118,068
80,466	-17,650	264,585	117,953
81,480	-17,619	264,377	117,878
82,495	-17,836	264,231	117,607
83,509	-17,707	263,923	117,575
84,524	-17,641	263,753	117,548
85,539	-17,677	263,539	117,409
86,553	-17,515	263,264	117,422
87,568	-17,666	263,168	117,233
88,582	-17,580	262,994	117,222
89,597	-17,455	262,606	117,151
90,611	-17,661	262,515	116,915
91,626	-17,494	262,208	116,918
92,641	-17,622	262,136	116,761
93,655	-17,659	261,884	116,605
94,670	-17,494	261,693	116,657
95,684	-17,676	261,545	116,419
96,699	-17,800	261,347	116,210
97,714	-17,611	261,180	116,293
98,728	-17,660	260,875	116,103
99,743	-17,498	260,708	116,162
100,757	-17,563	260,390	115,952
101,772	-17,548	260,277	115,905
102,787	-17,674	260,023	115,671
103,801	-17,434	259,833	115,787
104,816	-17,709	259,778	115,509
105,830	-17,614	259,502	115,461
106,845	-17,630	259,251	115,325
107,860	-17,669	259,028	115,181
108,874	-17,736	258,733	114,980
109,889	-17,729	258,515	114,879
110,903	-17,641	258,400	114,895
111,918	-17,702	258,270	114,774
112,933	-17,694	257,941	114,624
113,947	-17,599	257,716	114,598
114,962	-17,510	257,691	114,654
115,976	-17,683	257,427	114,375
116,991	-17,532	257,154	114,375
118,006	-17,581	256,905	114,212
119,020	-17,599	256,754	114,118
120,035	-17,612	256,763	114,101
121,049	-17,655	256,474	113,924
122,064	-17,533	256,192	113,896
123,079	-17,432	256,022	113,898
124,093	-17,649	255,904	113,646
125,108	-17,619	255,557	113,508
126,122	-17,506	255,465	113,556
127,137	-17,627	255,310	113,372
128,151	-17,359	254,967	113,441
129,166	-17,564	254,837	113,196
130,181	-17,429	254,737	113,258
131,195	-17,496	254,360	113,023
132,210	-17,614	254,415	112,935
133,224	-17,629	254,040	112,746
134,239	-17,477	253,798	112,759
135,254	-17,855	253,669	112,367
136,268	-17,510	253,465	112,563
137,283	-17,420	253,312	112,562
138,297	-17,620	253,201	112,331
139,312	-17,649	252,885	112,156
140,327	-17,508	252,703	112,186
141,341	-17,566	252,641	112,099
142,356	-17,400	252,301	112,080
143,370	-17,705	252,217	111,772
144,385	-17,556	251,851	111,726
145,400	-17,498	251,654	111,679
146,414	-17,407	251,477	111,668
147,429	-17,559	251,376	111,483
148,443	-17,531	251,179	111,410
149,458	-17,596	251,078	111,300
150,473	-17,510	250,939	111,301
151,487	-17,626	250,724	111,098
152,502	-17,412	250,512	111,176
153,516	-17,399	250,178	111,028
154,531	-17,549	250,030	110,826
155,546	-17,466	249,834	110,800
156,560	-17,517	249,863	110,759
157,575	-17,512	249,477	110,582
158,589	-17,520	249,287	110,481
159,604	-17,554	249,173	110,392
160,619	-17,640	248,996	110,232
161,633	-17,644	248,712	110,093
162,648	-17,586	248,719	110,135
163,662	-17,516	248,448	110,064
164,677	-17,458	248,382	110,074
165,692	-17,448	248,219	110,000
166,706	-17,603	248,125	109,818
167,721	-17,405	247,652	109,766
168,735	-17,541	247,687	109,657
169,750	-17,396	247,506	109,689
170,764	-17,580	247,367	109,463
171,779	-17,452	247,253	109,510
172,794	-17,608	247,057	109,283
173,808	-17,595	246,761	109,153
174,823	-17,473	246,660	109,201
175,837	-17,565	246,422	109,009
176,852	-17,274	246,301	109,188
177,867	-17,435	246,065	108,940
178,881	-17,442	246,015	108,902
179,896	-17,442	245,750	108,775
180,910	-17,530	245,596	108,624
181,925	-17,427	245,456	108,638
182,940	-17,538	245,252	108,446
183,954	-17,638	245,091	108,282
184,969	-17,476	244,962	108,349
185,983	-17,372	244,723	108,320
186,998	-17,392	244,589	108,235
188,013	-17,450	244,402	108,094
189,027	-17,346	244,019	108,001
190,042	-17,384	243,900	107,908
191,056	-17,668	243,994	107,705
192,071	-17,334	243,685	107,835
193,086	-17,308	243,615	107,815
194,100	-17,325	243,305	107,654
195,115	-17,236	243,042	107,601
196,129	-17,400	242,796	107,348
197,144	-17,622	242,826	107,170
198,159	-17,497	242,574	107,151
199,173	-17,634	242,397	106,951
200,188	-17,205	242,225	107,217
201,202	-17,278	242,121	107,102
202,217	-17,207	241,950	107,074
203,232	-17,210	241,655	106,932
204,246	-17,399	241,566	106,729
205,261	-17,268	241,458	106,779
206,275	-15,677	241,827	108,230
207,290	-11,414	243,366	112,402
208,304	-5,860	245,306	117,868
209,319	-2,847	245,769	120,564
210,334	-2,282	245,922	121,093
211,348	-1,569	246,077	121,747
212,363	-1,231	245,961	121,957
213,377	-0,598	246,110	122,541
214,392	-0,006	246,122	123,024
215,407	0,344	246,157	123,318
216,421	0,497	245,949	123,328
217,436	0,620	245,709	123,299
218,450	0,576	245,674	123,233
219,465	0,624	245,527	123,188
220,480	0,409	245,515	122,995
221,494	0,510	245,223	122,920
222,509	0,610	244,954	122,856
223,523	0,180	244,865	122,449
224,538	0,162	244,481	122,231
225,553	0,091	244,490	122,167
226,567	0,177	244,273	122,118
227,582	0,199	244,158	122,067
228,596	-0,025	244,061	121,825
229,611	0,124	243,724	121,767
230,626	0,181	243,541	121,712
231,640	0,042	243,419	121,527
232,655	-0,065	243,287	121,363
233,669	0,127	243,058	121,394
234,684	-0,013	242,891	121,187
235,699	0,134	242,864	121,281
236,713	0,204	242,709	121,250
237,728	0,152	242,548	121,116
238,742	0,150	242,403	121,032
239,757	0,106	242,161	120,864
240,772	-0,077	241,968	120,609
241,786	0,139	241,832	120,705
242,801	-0,017	241,682	120,494
243,815	0,052	241,444	120,420
244,830	-0,033	241,499	120,368
245,844	0,045	241,223	120,283
246,859	0,002	240,967	120,110
247,874	0,163	240,851	120,171
248,888	0,001	240,737	119,973
249,903	0,198	240,471	119,987
250,917	0,232	240,499	120,018
251,932	0,136	240,444	119,903
252,947	0,258	240,142	119,839
253,961	0,149	239,919	119,630
254,976	0,244	239,827	119,649
255,990	0,092	239,685	119,446
257,005	0,105	239,619	119,414
258,020	0,335	239,286	119,420
259,034	0,107	239,238	119,204
260,049	0,075	238,961	119,030
261,063	0,163	238,913	119,065
262,078	0,115	238,608	118,864
263,093	0,115	238,514	118,807
264,107	0,127	238,399	118,749
265,122	0,058	238,259	118,614
266,136	0,038	238,226	118,571
267,151	0,261	237,888	118,568
268,166	0,146	237,929	118,488
269,180	-0,045	237,762	118,242
270,195	0,254	237,489	118,333
271,209	0,195	237,337	118,199
272,224	0,198	237,235	118,141
273,239	0,143	237,106	118,022
274,253	0,178	236,872	117,923
275,268	0,083	236,791	117,797
276,282	0,089	236,582	117,688
277,297	0,111	236,365	117,586
278,312	0,166	236,237	117,556
279,326	0,152	236,320	117,575
280,341	0,028	236,017	117,317
281,355	0,169	235,873	117,345
282,370	0,212	235,657	117,261
283,384	0,198	235,527	117,175
284,399	0,173	235,392	117,078
285,414	0,177	235,372	117,060
286,428	0,151	235,151	116,920
287,443	-0,045	234,983	116,673
288,457	0,133	234,864	116,743
289,472	0,213	234,708	116,717
290,487	0,251	234,486	116,625
291,501	0,184	234,282	116,462
292,516	0,228	234,143	116,416
293,530	0,441	234,098	116,549
294,545	0,426	233,905	116,431
295,560	0,205	233,861	116,227
296,574	0,296	233,657	116,186
297,589	0,287	233,405	116,043
298,603	0,435	233,234	116,062
299,618	0,461	233,097	116,004
300,633	0,472	233,016	115,962
301,647	0,511	232,948	115,948
302,662	0,536	232,739	115,853
303,676	0,100	232,574	115,424
304,691	0,470	232,371	115,598
305,706	0,391	232,379	115,531
306,720	0,433	232,060	115,395
307,735	0,529	232,097	115,476
308,749	0,686	231,855	115,466
309,764	0,470	231,741	115,233
310,779	0,589	231,465	115,177
311,793	0,389	231,443	115,002
312,808	0,342	231,221	114,846
313,822	0,560	231,147	114,966
314,837	0,374	231,024	114,752
315,852	0,499	230,887	114,769
316,866	0,602	230,591	114,691
317,881	0,541	230,537	114,607
318,895	0,542	230,375	114,517
319,910	0,493	230,180	114,372
320,925	0,389	230,145	114,265
321,939	0,556	230,054	114,337
322,954	0,514	229,777	114,157
323,968	0,482	229,734	114,102
324,983	0,547	229,457	114,004
325,997	0,571	229,332	113,950
327,012	0,576	229,147	113,852
328,027	0,512	228,983	113,711
329,041	0,446	228,850	113,585
330,056	0,552	228,790	113,625
331,070	0,671	228,715	113,667
332,085	0,303	228,492	113,268
333,100	0,674	228,298	113,443
334,114	0,472	228,348	113,305
335,129	0,734	227,925	113,282
336,143	0,628	227,913	113,187
337,158	0,574	227,711	113,035
338,173	0,608	227,636	113,014
339,187	0,753	227,557	113,073
340,202	0,670	227,414	112,930
341,216	0,589	227,255	112,780
342,231	0,714	227,004	112,739
343,246	0,810	226,936	112,767
344,260	0,864	226,688	112,674
345,275	0,721	226,611	112,519
346,289	0,781	226,557	112,527
347,304	0,813	226,408	112,467
348,319	0,573	226,286	112,217
349,333	0,622	226,082	112,143
350,348	0,541	226,041	112,051
351,362	0,859	225,770	112,145
352,377	0,641	225,734	111,954
353,392	0,892	225,584	112,057
354,406	0,987	225,301	111,977
355,421	192,405	1311,121	1377,613
356,435	154,132	1443,268	1377,464
