DTS Sentinel unit serial number:	SN410029Multiplexer serial number:	ORYXHardware model number:	OX2-SRSoftware version number:	ORYX F/W v4,00 Oryx Data Collector v3.7.2.0data status	okinstallation	B5 Nyhavnadifferential loss correction	single-endedforward channel	channel 2reverse channel	N/Adate	2023/12/13time	07:52:14forward acquisition time	300,00reverse acquisition time	0,00gamma	499,1914k internal	0,3160k external	0,3160temperature offset calibration	1,0000default loss term (dB/km)	0,3820temperature slope calibration	1,0000multiplexer offset coefficient	1,0000multiplexer slope coefficient	1,0000fibre end	0,00T internal ref (°C)	13,66T ext. ref 1 (°C)	-2,77T ext. ref 2 (°C)	-3,08length (m)	temperature (°C)	Stokes	anti-Stokes-744,400	-118,440	0,178	-0,023
-743,385	-7,704	-0,341	0,169
-742,371	800,000	0,043	0,110
-741,356	22,768	-0,187	-0,113
-740,342	-10,224	0,210	0,103
-739,327	-24,029	-0,236	-0,103
-738,312	-112,082	0,179	-0,026
-737,298	-101,291	-0,306	-0,054
-736,283	-200,000	-0,002	0,016
-735,269	-109,886	-0,302	0,046
-734,254	135,664	0,035	0,034
-733,239	-60,238	-0,493	-0,154
-732,225	-154,994	0,269	0,013
-731,210	28,640	-0,117	-0,073
-730,196	37,103	0,064	-0,042
-729,181	154,582	-0,115	0,116
-728,167	245,993	0,122	0,152
-727,152	233,312	0,102	-0,124
-726,137	17,841	-0,108	-0,063
-725,123	164,147	-0,144	0,150
-724,108	122,579	-0,127	-0,117
-723,094	101,398	-0,090	-0,077
-722,079	-29,334	-0,103	-0,043
-721,064	42,259	-0,119	-0,079
-720,050	227,636	0,065	0,078
-719,035	242,866	-0,004	-0,005
-718,021	-48,208	-0,063	0,022
-717,006	800,000	-0,062	-0,197
-715,991	281,231	-0,149	-0,197
-714,977	-200,000	-0,002	-0,078
-713,962	382,740	0,087	-0,133
-712,948	162,660	-0,041	0,043
-711,933	40,563	-0,128	-0,085
-710,918	-200,000	0,011	0,039
-709,904	-39,202	-0,093	-0,036
-708,889	-92,442	-0,074	0,015
-707,875	23,052	0,025	0,015
-706,860	236,307	-0,118	-0,144
-705,845	-124,773	0,146	-0,016
-704,831	9,455	-0,061	-0,034
-703,816	231,062	-0,100	0,120
-702,802	-34,434	-0,120	0,048
-701,787	800,000	-0,054	-0,117
-700,772	-123,067	0,070	-0,008
-699,758	-200,000	-0,032	-0,126
-698,743	41,348	0,085	0,057
-697,729	284,641	0,018	-0,024
-696,714	800,000	0,006	-0,018
-695,699	-10,836	-0,036	0,017
-694,685	-77,985	-0,177	0,045
-693,670	28,887	0,033	0,021
-692,656	-6,828	0,096	-0,048
-691,641	-59,389	-0,055	0,017
-690,627	24,880	-0,061	-0,037
-689,612	-88,773	-0,076	-0,016
-688,597	-18,641	0,069	-0,031
-687,583	72,413	-0,021	-0,016
-686,568	-107,989	0,091	0,014
-685,554	341,197	-0,037	-0,054
-684,539	127,146	0,073	0,069
-683,524	-200,000	0,008	-0,037
-682,510	800,000	-0,052	-0,143
-681,495	148,856	-0,068	-0,067
-680,481	-192,134	-0,119	-0,001
-679,466	87,100	-0,085	-0,069
-678,451	773,570	0,030	-0,061
-677,437	-200,000	0,003	-0,022
-676,422	378,667	0,033	-0,049
-675,408	53,189	0,056	0,040
-674,393	-72,686	0,085	-0,023
-673,378	-200,000	-0,017	-0,141
-672,364	165,636	0,128	-0,133
-671,349	42,430	-0,058	-0,039
-670,335	9,672	0,058	0,032
-669,320	-191,657	0,116	-0,001
-668,305	3,501	0,103	0,055
-667,291	-200,000	0,050	0,170
-666,276	-200,000	0,009	-0,061
-665,262	-171,953	-0,040	-0,001
-664,247	-200,000	0,008	-0,134
-663,232	-200,000	-0,006	-0,116
-662,218	-51,108	0,131	0,045
-661,203	128,589	-0,062	-0,058
-660,189	248,403	0,128	-0,160
-659,174	-200,000	-0,012	-0,108
-658,159	-165,502	0,101	0,003
-657,145	122,970	-0,117	-0,108
-656,130	202,295	0,022	-0,025
-655,116	-200,000	0,036	0,154
-654,101	29,702	0,126	0,078
-653,086	713,137	0,012	-0,023
-652,072	800,000	-0,039	-0,081
-651,057	43,231	-0,186	-0,124
-650,043	-62,949	-0,075	0,023
-649,028	-200,000	0,017	-0,065
-648,014	-200,000	0,002	0,030
-646,999	-61,369	0,084	0,026
-645,984	552,617	0,038	0,067
-644,970	96,320	-0,061	-0,051
-643,955	-200,000	0,002	0,059
-642,941	72,260	-0,053	-0,040
-641,926	455,335	0,070	-0,115
-640,911	-200,000	0,003	0,018
-639,897	249,828	-0,043	-0,053
-638,882	-75,886	0,016	-0,004
-637,868	800,000	-0,031	-0,093
-636,853	-103,199	0,025	-0,004
-635,838	-128,527	-0,121	0,012
-634,824	800,000	-0,055	-0,116
-633,809	800,000	-0,065	-0,144
-632,795	-124,166	0,073	-0,008
-631,780	12,074	0,076	0,043
-630,765	164,492	-0,074	0,077
-629,751	47,617	-0,049	-0,033
-628,736	331,712	-0,045	-0,065
-627,722	644,602	0,010	-0,019
-626,707	167,731	-0,045	-0,047
-625,692	-45,624	-0,061	-0,022
-624,678	-200,000	-0,001	-0,018
-623,663	272,094	0,033	-0,042
-622,649	800,000	-0,013	0,029
-621,634	615,750	-0,067	-0,124
-620,619	-113,123	0,072	0,010
-619,605	-67,305	0,103	0,029
-618,590	-102,691	0,091	0,016
-617,576	329,271	0,066	0,093
-616,561	-200,000	0,016	0,068
-615,546	47,308	-0,079	0,054
-614,532	800,000	-0,040	-0,094
-613,517	47,554	-0,062	0,042
-612,503	-92,884	0,023	0,005
-611,488	-65,803	-0,027	0,008
-610,474	-4,369	0,062	0,032
-609,459	-200,000	0,004	0,120
-608,444	800,000	-0,027	-0,082
-607,430	-5,870	0,096	-0,048
-606,415	-22,980	-0,083	-0,036
-605,401	-64,135	-0,049	-0,014
-604,386	209,570	0,034	0,039
-603,371	103,865	0,074	0,064
-602,357	800,000	-0,045	0,115
-601,342	-73,705	0,069	-0,018
-600,328	800,000	-0,040	0,113
-599,313	-23,592	-0,082	0,036
-598,298	215,139	0,043	0,050
-597,284	-2,515	0,031	0,016
-596,269	-200,000	0,012	0,074
-595,255	-20,911	0,071	0,032
-594,240	-143,182	-0,156	0,011
-593,225	158,990	-0,138	-0,140
-592,211	88,757	-0,089	0,072
-591,196	91,265	-0,062	0,051
-590,182	-200,000	-0,014	-0,192
-589,167	-200,000	0,021	-0,081
-588,152	10,583	0,073	0,041
-587,138	-39,199	0,048	0,018
-586,123	-33,374	-0,108	-0,044
-585,109	-65,266	-0,048	-0,014
-584,094	-2,462	-0,045	0,023
-583,079	146,567	-0,062	-0,061
-582,065	-92,011	0,065	-0,013
-581,050	92,877	0,040	-0,033
-580,036	-83,222	0,054	-0,013
-579,021	103,167	-0,087	-0,074
-578,006	-72,953	-0,092	0,025
-576,992	-106,367	0,103	0,017
-575,977	83,565	-0,109	0,087
-574,963	203,694	0,071	-0,080
-573,948	-200,000	0,016	-0,077
-572,934	205,851	0,036	0,041
-571,919	800,000	-0,050	0,108
-570,904	-200,000	0,000	0,037
-569,890	470,023	0,077	0,128
-568,875	-6,228	0,082	-0,041
-567,861	173,446	0,093	0,098
-566,846	335,267	-0,074	0,105
-565,831	-121,845	-0,099	0,012
-564,817	74,744	-0,049	-0,038
-563,802	61,421	0,107	-0,077
-562,788	244,227	-0,100	-0,123
-561,773	-107,707	-0,118	-0,019
-560,758	159,119	0,031	0,032
-559,744	90,671	-0,059	-0,049
-558,729	9,858	0,083	0,046
-557,715	800,000	-0,014	0,042
-556,700	38,691	-0,097	0,063
-555,685	-200,000	-0,038	-0,187
-554,671	-47,226	0,076	-0,027
-553,656	-143,749	0,137	0,009
-552,642	100,818	0,062	0,053
-551,627	800,000	-0,036	0,073
-550,612	800,000	0,020	0,059
-549,598	64,128	0,042	-0,031
-548,583	124,978	-0,035	-0,032
-547,569	800,000	-0,031	0,078
-546,554	-200,000	0,031	0,198
-545,539	90,435	-0,051	0,042
-544,525	349,424	-0,127	0,184
-543,510	755,380	0,015	-0,030
-542,496	-60,427	-0,039	0,012
-541,481	67,335	-0,038	0,029
-540,466	-12,195	0,228	-0,109
-539,452	-200,000	0,004	0,029
-538,437	-47,760	0,109	-0,038
-537,423	-200,000	0,009	0,107
-536,408	-200,000	0,004	-0,129
-535,393	800,000	0,013	0,032
-534,379	-100,476	-0,038	-0,007
-533,364	24,247	-0,044	-0,026
-532,350	25,928	-0,035	-0,021
-531,335	-106,008	-0,141	-0,023
-530,321	-5,278	0,098	-0,049
-529,306	-14,889	0,042	0,020
-528,291	229,821	-0,036	-0,043
-527,277	241,288	0,028	-0,034
-526,262	-150,985	-0,116	0,006
-525,248	-200,000	0,007	-0,090
-524,233	216,812	0,058	0,067
-523,218	382,434	-0,045	0,068
-522,204	152,762	-0,020	0,020
-521,189	800,000	-0,046	-0,146
-520,175	-33,301	-0,132	-0,053
-519,160	-200,000	-0,006	0,031
-518,145	144,497	-0,094	-0,092
-517,131	89,574	0,074	0,060
-516,116	-200,000	-0,045	0,221
-515,102	800,000	-0,063	0,131
-514,087	578,895	0,026	0,046
-513,072	5,770	-0,089	0,048
-512,058	96,086	0,004	0,003
-511,043	540,379	-0,029	0,050
-510,029	-150,628	0,032	0,002
-509,014	-99,676	-0,100	-0,018
-507,999	-200,000	0,018	0,078
-506,985	-144,037	0,068	-0,005
-505,970	158,273	-0,088	-0,089
-504,956	800,000	-0,014	0,042
-503,941	67,238	0,120	-0,089
-502,926	4,331	0,093	-0,050
-501,912	-126,471	0,080	0,009
-500,897	10,196	0,053	0,029
-499,883	142,246	-0,070	-0,068
-498,868	385,487	0,027	-0,041
-497,853	-73,589	-0,211	0,056
-496,839	-72,930	0,184	0,049
-495,824	59,186	-0,070	0,050
-494,810	800,000	-0,033	0,069
-493,795	-28,029	0,054	0,023
-492,781	800,000	0,069	-0,148
-491,766	-65,182	0,027	-0,008
-490,751	262,587	-0,136	-0,172
-489,737	-200,000	-0,038	-0,142
-488,722	800,000	0,008	0,021
-487,708	-200,000	0,016	0,078
-486,693	-77,810	-0,096	-0,024
-485,678	800,000	-0,021	0,049
-484,664	121,328	-0,022	-0,020
-483,649	140,568	-0,060	0,058
-482,635	15,780	-0,079	0,045
-481,620	-186,039	0,067	0,001
-480,605	325,318	-0,065	-0,091
-479,591	301,931	0,020	0,027
-478,576	-200,000	0,009	-0,063
-477,562	173,420	-0,100	-0,105
-476,547	116,496	-0,032	-0,029
-475,532	-200,000	0,006	-0,029
-474,518	-168,693	-0,003	0,000
-473,503	-72,301	0,063	0,017
-472,489	-25,454	-0,074	0,032
-471,474	800,000	0,054	-0,119
-470,459	-54,900	-0,063	-0,020
-469,445	800,000	-0,047	-0,101
-468,430	226,772	-0,106	-0,125
-467,416	-200,000	0,000	-0,104
-466,401	57,017	0,081	0,058
-465,386	481,321	-0,067	-0,112
-464,372	-65,472	0,115	0,033
-463,357	-200,000	0,012	0,050
-462,343	-104,221	-0,174	-0,029
-461,328	-200,000	-0,012	0,045
-460,313	38,244	0,112	-0,073
-459,299	-56,010	-0,077	0,025
-458,284	451,574	-0,042	-0,068
-457,270	-137,799	-0,073	-0,006
-456,255	-112,957	-0,146	0,021
-455,241	800,000	-0,067	-0,158
-454,226	-200,000	0,001	-0,113
-453,211	395,881	0,064	0,098
-452,197	39,434	-0,095	-0,062
-451,182	800,000	0,029	0,069
-450,168	800,000	0,030	-0,076
-449,153	800,000	0,013	-0,038
-448,138	29,425	0,064	0,040
-447,124	-108,112	-0,081	0,013
-446,109	-200,000	-0,003	0,035
-445,095	-200,000	-0,007	0,065
-444,080	-200,000	0,030	0,120
-443,065	-171,506	-0,039	-0,001
-442,051	68,439	-0,032	0,024
-441,036	-58,437	-0,025	0,008
-440,022	55,289	-0,031	0,022
-439,007	800,000	0,067	-0,140
-437,992	800,000	-0,016	0,036
-436,978	-200,000	-0,011	0,174
-435,963	390,808	0,101	-0,154
-434,949	8,014	-0,119	0,065
-433,934	800,000	0,029	-0,074
-432,919	800,000	-0,062	-0,191
-431,905	25,056	0,058	-0,035
-430,890	-45,452	0,116	-0,042
-429,876	800,000	0,032	-0,099
-428,861	-200,000	-0,011	0,079
-427,846	-136,488	0,038	-0,003
-426,832	800,000	-0,020	-0,050
-425,817	800,000	0,039	0,090
-424,803	-47,157	0,043	-0,015
-423,788	28,922	0,043	-0,027
-422,773	-200,000	-0,009	0,042
-421,759	62,109	-0,042	-0,030
-420,744	294,632	0,040	0,054
-419,730	30,231	-0,041	-0,025
-418,715	2,843	0,059	-0,031
-417,701	155,157	-0,032	-0,032
-416,686	173,270	0,107	0,112
-415,671	104,458	0,168	-0,144
-414,657	-200,000	0,029	0,095
-413,642	251,753	-0,014	0,017
-412,628	62,430	-0,107	-0,077
-411,613	162,376	-0,013	-0,013
-410,598	115,459	0,042	-0,038
-409,584	162,413	-0,084	0,086
-408,569	-133,693	-0,140	0,013
-407,555	120,127	0,045	-0,041
-406,540	-200,000	0,009	0,036
-405,525	-109,771	-0,026	-0,004
-404,511	800,000	0,041	0,108
-403,496	-52,380	0,090	-0,030
-402,482	417,793	0,027	0,042
-401,467	-105,058	-0,041	-0,007
-400,452	-200,000	0,001	0,064
-399,438	-26,091	-0,071	0,030
-398,423	86,011	-0,016	0,013
-397,409	-70,935	-0,072	0,020
-396,394	105,832	0,072	-0,062
-395,379	107,873	0,072	0,062
-394,365	-83,166	0,054	-0,012
-393,350	800,000	0,021	-0,051
-392,336	577,087	-0,037	0,066
-391,321	74,630	-0,053	-0,040
-390,306	359,729	-0,057	0,082
-389,292	134,376	0,063	0,059
-388,277	612,224	-0,072	-0,131
-387,263	-200,000	0,012	-0,092
-386,248	-200,000	-0,002	-0,055
-385,233	17,334	-0,070	-0,040
-384,219	-200,000	0,002	0,109
-383,204	-166,915	0,094	0,003
-382,190	263,408	0,069	-0,088
-381,175	76,381	0,090	-0,069
-380,160	-200,000	-0,009	0,064
-379,146	-200,000	0,001	0,022
-378,131	265,106	-0,031	0,040
-377,117	21,442	-0,011	-0,006
-376,102	-121,578	-0,125	0,015
-375,088	-200,000	0,010	-0,097
-374,073	-32,185	0,110	-0,045
-373,058	800,000	-0,015	-0,039
-372,044	249,348	0,040	0,049
-371,029	-200,000	0,025	0,123
-370,015	77,671	-0,030	-0,023
-369,000	-200,000	-0,027	0,109
-367,985	363,405	-0,044	-0,064
-366,971	326,453	0,049	-0,068
-365,956	-200,000	0,019	-0,067
-364,942	-5,148	-0,114	-0,057
-363,927	800,000	-0,025	-0,053
-362,912	163,811	-0,058	0,060
-361,898	-69,647	-0,157	-0,043
-360,883	-78,854	0,120	-0,030
-359,869	77,226	-0,055	0,043
-358,854	118,556	0,062	0,055
-357,839	52,351	-0,018	-0,012
-356,825	-166,470	-0,107	0,003
-355,810	-200,000	0,000	0,115
-354,796	-18,516	-0,066	-0,030
-353,781	295,823	-0,012	0,016
-352,766	-21,598	0,160	-0,070
-351,752	-200,000	0,019	-0,173
-350,737	100,327	0,064	0,054
-349,723	154,488	0,064	0,063
-348,708	-124,567	0,058	-0,006
-347,693	-98,153	0,166	-0,031
-346,679	364,902	-0,050	0,074
-345,664	83,556	0,057	-0,045
-344,650	182,490	0,032	-0,034
-343,635	-200,000	-0,039	0,168
-342,620	-200,000	0,011	-0,075
-341,606	384,268	0,040	0,060
-340,591	-82,747	-0,043	0,010
-339,577	-126,312	-0,098	0,011
-338,562	132,964	-0,096	-0,090
-337,548	309,150	0,058	-0,078
-336,533	231,732	-0,031	0,036
-335,518	-102,032	0,065	0,011
-334,504	-6,064	0,057	-0,028
-333,489	-121,837	-0,160	0,019
-332,475	-200,000	0,011	0,104
-331,460	-72,900	0,164	-0,043
-330,445	-200,000	-0,007	-0,082
-329,431	189,492	-0,072	-0,079
-328,416	800,000	-0,017	-0,052
-327,402	-171,448	0,043	0,001
-326,387	800,000	0,016	0,035
-325,372	186,469	0,047	-0,051
-324,358	-200,000	0,000	-0,109
-323,343	-137,016	-0,042	-0,003
-322,329	242,538	0,118	0,144
-321,314	-200,000	0,016	0,111
-320,299	-5,378	0,134	0,067
-319,285	-13,374	-0,063	0,029
-318,270	4,477	0,109	-0,058
-317,256	-200,000	0,025	-0,092
-316,241	-200,000	0,025	-0,141
-315,226	103,932	0,062	0,053
-314,212	-13,358	0,073	0,034
-313,197	-200,000	0,004	0,029
-312,183	408,005	0,082	0,127
-311,168	781,304	0,058	0,115
-310,153	-64,080	-0,075	-0,022
-309,139	-200,000	-0,005	-0,133
-308,124	-0,850	0,017	-0,008
-307,110	6,609	-0,015	0,008
-306,095	-200,000	0,008	0,078
-305,080	-160,383	0,179	0,007
-304,066	-39,665	-0,168	-0,063
-303,051	-141,439	-0,093	-0,007
-302,037	800,000	0,011	-0,027
-301,022	437,328	-0,031	-0,049
-300,008	800,000	-0,040	0,114
-298,993	-36,256	-0,063	0,024
-297,978	-99,794	0,153	-0,027
-296,964	1,317	-0,074	-0,038
-295,949	-200,000	-0,024	-0,159
-294,935	39,591	0,048	-0,031
-293,920	-73,196	-0,092	0,024
-292,905	-107,237	0,080	0,013
-291,891	30,707	-0,098	0,060
-290,876	-34,947	0,165	-0,065
-289,862	800,000	0,018	-0,052
-288,847	214,695	-0,071	-0,082
-287,832	-1,396	-0,075	0,038
-286,818	-200,000	-0,019	0,073
-285,803	-56,562	0,034	-0,011
-284,789	-105,862	0,027	0,004
-283,774	120,543	-0,109	0,098
-282,759	-200,000	0,017	-0,068
-281,745	384,830	-0,074	-0,111
-280,730	549,723	0,052	-0,090
-279,716	-136,502	-0,091	-0,008
-278,701	-135,801	0,138	-0,012
-277,686	46,977	-0,062	0,042
-276,672	249,539	0,089	0,109
-275,657	-23,990	-0,099	0,042
-274,643	-200,000	0,032	0,103
-273,628	620,573	0,058	-0,106
-272,613	-148,034	-0,107	-0,006
-271,599	-200,000	0,012	0,038
-270,584	-67,693	0,085	-0,024
-269,570	1,549	0,070	-0,036
-268,555	184,363	-0,019	-0,021
-267,540	71,464	0,092	0,069
-266,526	36,145	-0,081	0,052
-265,511	800,000	-0,072	-0,206
-264,497	191,145	0,052	0,057
-263,482	-200,000	-0,022	0,148
-262,467	-12,051	0,022	0,010
-261,453	352,212	0,059	-0,085
-260,438	311,488	0,021	-0,029
-259,424	244,621	-0,076	0,093
-258,409	29,599	-0,075	-0,046
-257,395	-24,339	0,096	-0,041
-256,380	-106,105	0,149	-0,024
-255,365	800,000	-0,046	0,112
-254,351	-65,189	-0,102	-0,030
-253,336	503,246	0,007	0,012
-252,322	-23,969	0,044	0,019
-251,307	800,000	-0,042	0,109
-250,292	2,849	-0,060	0,031
-249,278	122,612	0,104	0,094
-248,263	-200,000	-0,025	0,110
-247,249	324,674	-0,028	0,039
-246,234	-99,708	-0,148	0,027
-245,219	-200,000	0,001	0,093
-244,205	-200,000	0,003	0,096
-243,190	487,745	-0,050	0,084
-242,176	800,000	0,015	-0,035
-241,161	-165,700	0,101	-0,003
-240,146	-112,427	0,079	0,011
-239,132	-35,725	0,113	-0,044
-238,117	800,000	-0,012	-0,034
-237,103	-10,267	-0,158	-0,076
-236,088	605,903	0,056	-0,100
-235,073	-200,000	-0,002	0,086
-234,059	-126,258	-0,057	0,006
-233,044	-119,389	0,214	0,026
-232,030	-200,000	0,001	0,028
-231,015	-69,549	-0,110	0,030
-230,000	-25,670	0,059	0,025
-228,986	-109,559	0,121	0,018
-227,971	220,704	0,049	0,056
-226,957	800,000	0,052	0,143
-225,942	-102,080	-0,044	-0,008
-224,927	-80,510	0,102	-0,024
-223,913	-200,000	-0,022	0,172
-222,898	-11,750	0,015	-0,007
-221,884	-151,141	-0,058	-0,003
-220,869	450,658	0,007	0,011
-219,855	-200,000	0,044	0,182
-218,840	-200,000	-0,007	0,145
-217,825	-103,891	0,105	0,018
-216,811	-4,381	-0,124	-0,062
-215,796	-39,781	-0,140	0,052
-214,782	800,000	-0,018	-0,050
-213,767	-200,000	0,018	-0,063
-212,752	-9,888	0,092	0,044
-211,738	-200,000	-0,048	-0,000
-210,723	-200,000	0,020	0,063
-209,709	513,786	0,048	-0,081
-208,694	800,000	-0,010	0,031
-207,679	-200,000	-0,040	-0,149
-206,665	-200,000	-0,021	0,110
-205,650	800,000	0,049	0,135
-204,636	-200,000	-0,005	0,042
-203,621	242,961	-0,074	-0,089
-202,606	350,696	0,096	-0,137
-201,592	800,000	0,031	-0,071
-200,577	-200,000	-0,015	-0,144
-199,563	360,403	0,028	0,041
-198,548	-2,154	-0,087	0,044
-197,533	-200,000	0,005	0,020
-196,519	111,287	0,167	0,145
-195,504	-73,086	0,015	-0,004
-194,490	-200,000	0,005	0,020
-193,475	-139,563	-0,076	0,006
-192,460	-110,445	-0,098	-0,015
-191,446	193,975	0,048	0,052
-190,431	368,446	-0,050	0,073
-189,417	-200,000	-0,015	-0,070
-188,402	-72,075	0,051	-0,013
-187,387	-200,000	0,020	-0,074
-186,373	-7,016	0,029	-0,014
-185,358	193,155	-0,038	-0,041
-184,344	800,000	-0,026	-0,075
-183,329	-172,814	0,121	-0,003
-182,315	800,000	-0,034	-0,080
-181,300	215,316	0,060	-0,068
-180,285	98,447	-0,080	0,066
-179,271	347,983	-0,094	-0,134
-178,256	-173,378	0,195	-0,004
-177,242	735,287	0,054	0,104
-176,227	-126,197	0,071	-0,008
-175,212	122,905	0,081	-0,073
-174,198	800,000	-0,022	0,054
-173,183	-118,032	-0,046	0,006
-172,169	-200,000	0,016	-0,057
-171,154	-52,972	-0,022	0,007
-170,139	800,000	0,041	0,107
-169,125	800,000	0,033	-0,075
-168,110	-58,382	0,162	0,050
-167,096	-200,000	-0,035	0,138
-166,081	35,250	0,047	0,030
-165,066	-77,017	0,009	-0,002
-164,052	-200,000	0,003	-0,080
-163,037	-93,828	0,122	-0,024
-162,023	88,330	0,025	-0,020
-161,008	159,571	0,141	0,142
-159,993	16,752	-0,032	-0,018
-158,979	800,000	-0,044	0,128
-157,964	98,747	-0,068	-0,056
-156,950	-64,506	-0,125	-0,036
-155,935	-100,013	-0,043	0,008
-154,920	-58,022	0,029	-0,009
-153,906	-47,421	0,041	-0,014
-152,891	-58,866	-0,065	-0,020
-151,877	800,000	0,013	-0,035
-150,862	-27,041	0,030	-0,012
-149,847	800,000	-0,012	0,036
-148,833	-0,837	0,135	0,069
-147,818	105,597	0,119	0,101
-146,804	-103,111	0,096	-0,016
-145,789	59,571	0,111	-0,079
-144,775	335,386	-0,049	-0,068
-143,760	99,154	-0,112	-0,093
-142,745	-77,692	-0,045	0,011
-141,731	382,148	0,061	-0,091
-140,716	-128,811	0,065	-0,007
-139,702	603,934	0,049	0,088
-138,687	52,093	-0,051	-0,035
-137,672	-200,000	0,020	0,192
-136,658	-166,971	-0,170	0,005
-135,643	633,217	-0,042	-0,077
-134,629	-187,163	0,028	0,000
-133,614	345,075	0,058	0,082
-132,599	-200,000	0,021	0,179
-131,585	288,818	0,076	0,100
-130,570	-136,450	-0,166	0,014
-129,556	-114,831	0,114	0,015
-128,541	-156,798	-0,153	0,007
-127,526	-200,000	0,002	-0,094
-126,512	-71,301	0,051	-0,014
-125,497	-50,235	0,030	-0,010
-124,483	65,873	0,085	0,062
-123,468	-200,000	-0,032	-0,128
-122,453	-200,000	0,058	0,215
-121,439	692,942	0,008	0,016
-120,424	67,546	0,040	-0,030
-119,410	279,489	-0,077	0,099
-118,395	800,000	0,037	0,110
-117,380	-101,986	0,200	-0,034
-116,366	683,472	-0,072	-0,136
-115,351	6,967	-0,069	0,037
-114,337	-113,444	-0,086	0,012
-113,322	-200,000	-0,007	0,021
-112,307	148,221	0,062	-0,060
-111,293	-104,139	-0,023	-0,004
-110,278	428,209	-0,055	0,086
-109,264	800,000	0,062	-0,124
-108,249	18,287	0,054	0,031
-107,234	-200,000	-0,017	0,072
-106,220	-103,828	0,033	0,006
-105,205	-200,000	-0,003	0,054
-104,191	58,453	0,064	0,045
-103,176	-200,000	-0,010	0,069
-102,162	119,019	0,030	0,027
-101,147	-200,000	0,013	-0,063
-100,132	-42,278	0,068	-0,025
-99,118	-200,000	0,010	-0,080
-98,103	-200,000	0,024	-0,101
-97,089	-200,000	-0,001	0,037
-96,074	-38,566	0,100	0,038
-95,059	465,538	0,041	0,066
-94,045	126,924	0,049	0,045
-93,030	800,000	-0,043	0,116
-92,016	-94,592	-0,048	-0,009
-91,001	81,331	-0,075	-0,058
-89,986	-200,000	0,007	0,093
-88,972	-200,000	0,000	0,066
-87,957	742,795	0,020	-0,039
-86,943	80,553	0,047	-0,036
-85,928	17,206	-0,107	-0,061
-84,913	66,680	-0,114	-0,084
-83,899	-131,780	-0,132	0,012
-82,884	-200,000	0,005	0,035
-81,870	-90,331	0,049	0,010
-80,855	-200,000	0,019	0,212
-79,840	800,000	-0,027	-0,066
-78,826	800,000	-0,038	-0,108
-77,811	157,370	-0,021	-0,020
-76,797	115,150	-0,080	-0,070
-75,782	696,123	0,043	-0,081
-74,767	-51,828	0,058	-0,019
-73,753	386,237	-0,095	-0,141
-72,738	-36,985	-0,062	-0,024
-71,724	-200,000	-0,006	0,093
-70,709	800,000	-0,006	0,015
-69,694	-200,000	0,020	0,108
-68,680	800,000	0,025	0,053
-67,665	-69,012	0,132	-0,036
-66,651	348,253	-0,064	0,090
-65,636	-5,275	-0,104	-0,051
-64,622	-200,000	-0,010	0,074
-63,607	-193,259	-0,096	0,001
-62,592	800,000	0,061	0,142
-61,578	800,000	-0,062	-0,189
-60,563	-87,072	0,093	-0,020
-59,549	754,461	-0,014	0,028
-58,534	28,047	-2,071	-1,250
-57,519	-200,000	-0,204	-0,840
-56,505	-200,000	-1,387	-5,043
-55,490	107,037	0,780	0,664
-54,476	800,000	5,411	12,090
-53,461	-200,000	18,703	317,985
-52,446	800,000	741,701	2335,111
-51,432	558,702	1657,360	2879,491
-50,417	111,008	1641,147	1416,792
-49,403	75,392	1291,106	975,971
-48,388	30,261	1031,574	630,140
-47,373	19,896	994,373	573,054
-46,359	17,412	981,865	557,644
-45,344	13,977	978,340	544,315
-44,330	14,388	976,468	544,604
-43,315	13,725	974,726	541,435
-42,300	13,685	973,531	540,618
-41,286	13,679	972,659	540,092
-40,271	13,652	971,767	539,486
-39,257	13,705	970,719	539,057
-38,242	13,693	969,941	538,564
-37,227	13,678	969,013	537,978
-36,213	13,664	968,265	537,498
-35,198	13,672	967,212	536,916
-34,184	13,628	966,536	536,376
-33,169	13,602	965,715	535,818
-32,154	13,705	964,672	535,552
-31,140	13,725	963,535	534,961
-30,125	13,698	963,049	534,586
-29,111	13,739	962,124	534,184
-28,096	13,694	961,518	533,678
-27,082	13,689	960,859	533,276
-26,067	13,766	960,120	533,095
-25,052	13,716	959,414	532,518
-24,038	13,732	958,614	532,107
-23,023	13,646	958,050	531,495
-22,009	13,689	957,442	531,275
-20,994	13,705	956,716	530,901
-19,979	13,709	956,151	530,579
-18,965	13,671	955,559	530,108
-17,950	13,730	954,865	529,893
-16,936	13,701	954,239	529,429
-15,921	13,614	953,663	528,811
-14,906	13,580	952,873	528,242
-13,892	13,582	952,211	527,860
-12,877	13,593	951,670	527,575
-11,863	13,528	950,852	526,893
-10,848	13,551	950,367	526,678
-9,833	13,674	949,743	526,701
-8,819	13,654	949,050	526,232
-7,804	13,589	948,563	525,734
-6,790	13,588	947,837	525,310
-5,775	13,660	947,375	525,262
-4,760	13,676	946,717	524,926
-3,746	13,577	946,259	524,337
-2,731	13,430	945,498	523,427
-1,717	13,414	944,908	523,029
-0,702	13,430	944,274	522,707
0,313	13,198	943,631	522,405
1,327	16,532	940,996	531,455
2,342	25,567	795,897	473,515
3,356	21,947	460,280	268,260
4,371	-5,008	317,299	155,995
5,386	-8,929	299,275	143,112
6,400	-10,807	293,162	138,294
7,415	-11,190	290,775	136,775
8,429	-11,450	289,062	135,699
9,444	-11,457	288,064	135,212
10,459	-11,390	287,616	135,055
11,473	-11,484	286,777	134,557
12,488	-11,540	286,455	134,339
13,502	-11,586	286,095	134,113
14,517	-11,413	285,496	133,990
15,531	-11,435	284,970	133,709
16,546	-11,429	284,576	133,518
17,561	-11,425	284,261	133,363
18,575	-11,269	283,810	133,291
19,590	-11,350	283,476	133,043
20,604	-11,353	283,242	132,919
21,619	-11,475	282,834	132,598
22,634	-11,315	282,435	132,553
23,648	-11,348	282,198	132,398
24,663	-11,495	281,945	132,126
25,677	-11,575	281,694	131,920
26,692	-11,443	281,429	131,910
27,707	-11,307	281,060	131,856
28,721	-11,365	280,871	131,700
29,736	-11,472	280,498	131,411
30,750	-11,454	280,223	131,288
31,765	-11,615	280,086	131,058
32,780	-11,334	279,866	131,212
33,794	-11,400	279,556	130,992
34,809	-11,424	279,376	130,873
35,823	-11,515	279,038	130,616
36,838	-11,549	278,870	130,493
37,853	-11,562	278,447	130,272
38,867	-11,439	278,237	130,279
39,882	-11,506	278,123	130,151
40,896	-11,572	277,855	129,951
41,911	-11,436	277,601	129,949
42,926	-11,573	277,373	129,701
43,940	-11,446	277,156	129,708
44,955	-11,580	276,962	129,479
45,969	-11,649	276,590	129,228
46,984	-11,737	276,316	129,006
47,999	-11,834	276,210	128,854
49,013	-11,977	275,787	128,510
50,028	-12,209	275,520	128,157
51,042	-12,058	275,218	128,146
52,057	-12,208	275,009	127,897
53,071	-12,159	274,753	127,812
54,086	-12,036	274,487	127,792
55,101	-11,815	274,411	127,952
56,115	-11,670	274,354	128,049
57,130	-11,514	274,278	128,149
58,144	-11,387	273,878	128,069
59,159	-11,325	273,662	128,014
60,174	-11,294	273,472	127,943
61,188	-11,326	273,212	127,781
62,203	-11,287	272,934	127,675
63,217	-11,341	272,821	127,561
64,232	-11,307	272,435	127,401
65,247	-11,412	272,268	127,213
66,261	-11,470	272,120	127,079
67,276	-11,455	271,809	126,936
68,290	-11,661	271,746	126,705
69,305	-11,924	271,409	126,294
70,320	-11,698	271,078	126,337
71,334	-11,584	270,962	126,377
72,349	-11,393	270,826	126,478
73,363	-11,243	270,577	126,489
74,378	-11,297	270,445	126,366
75,393	-11,349	270,130	126,160
76,407	-11,488	270,141	126,026
77,422	-11,360	269,687	125,920
78,436	-11,427	269,428	125,726
79,451	-11,269	269,258	125,781
80,466	-11,314	268,886	125,554
81,480	-11,511	268,763	125,306
82,495	-11,461	268,481	125,210
83,509	-11,461	268,463	125,190
84,524	-11,537	268,130	124,954
85,539	-11,712	267,777	124,619
86,553	-11,808	267,693	124,482
87,568	-11,634	267,364	124,475
88,582	-11,795	267,371	124,321
89,597	-11,648	267,065	124,301
90,611	-11,385	266,818	124,414
91,626	-11,382	266,820	124,406
92,641	-11,342	266,422	124,246
93,655	-11,454	266,292	124,073
94,670	-11,459	266,095	123,965
95,684	-11,487	266,042	123,904
96,699	-11,444	265,670	123,759
97,714	-11,422	265,371	123,629
98,728	-11,546	265,170	123,412
99,743	-11,592	265,006	123,284
100,757	-11,770	264,750	122,993
101,772	-11,539	264,491	123,070
102,787	-11,442	264,353	123,081
103,801	-11,424	264,274	123,050
104,816	-11,597	264,109	122,807
105,830	-11,334	263,896	122,932
106,845	-11,421	263,689	122,747
107,860	-11,539	263,557	122,569
108,874	-11,351	263,130	122,527
109,889	-11,260	263,014	122,543
110,903	-11,558	262,772	122,154
111,918	-11,491	262,745	122,191
112,933	-11,416	262,556	122,159
113,947	-11,487	262,344	121,986
114,962	-11,477	262,169	121,902
115,976	-11,361	261,892	121,866
116,991	-11,341	261,665	121,767
118,006	-11,481	261,499	121,555
119,020	-11,559	261,391	121,425
120,035	-11,407	261,372	121,540
121,049	-11,368	261,162	121,466
122,064	-11,187	260,803	121,448
123,079	-11,329	260,732	121,279
124,093	-11,489	260,402	120,973
125,108	-11,874	260,298	120,575
126,122	-11,804	259,936	120,458
127,137	-11,883	259,687	120,262
128,151	-11,870	259,591	120,219
129,166	-11,552	259,291	120,348
130,181	-11,549	259,061	120,233
131,195	-11,619	258,921	120,096
132,210	-11,507	258,822	120,138
133,224	-11,562	258,689	120,016
134,239	-11,383	258,465	120,059
135,254	-11,354	258,211	119,956
136,268	-11,296	258,069	119,929
137,283	-11,652	257,652	119,415
138,297	-11,748	257,311	119,163
139,312	-11,877	257,382	119,072
140,327	-11,506	257,353	119,371
141,341	-11,177	257,040	119,501
142,356	-11,233	257,021	119,433
143,370	-11,215	256,673	119,277
144,385	-11,137	256,502	119,254
145,400	-11,145	256,358	119,169
146,414	-11,338	256,265	118,949
147,429	-11,274	256,097	118,916
148,443	-11,046	255,683	118,909
149,458	-11,238	255,736	118,758
150,473	-11,163	255,248	118,586
151,487	-11,274	255,278	118,493
152,502	-11,212	255,047	118,429
153,516	-11,190	254,807	118,326
154,531	-11,390	254,793	118,136
155,546	-11,378	254,648	118,068
156,560	-11,210	254,281	118,032
157,575	-11,321	254,124	117,853
158,589	-11,287	253,856	117,748
159,604	-11,371	253,729	117,607
160,619	-11,220	253,435	117,589
161,633	-11,256	253,371	117,518
162,648	-11,350	253,156	117,327
163,662	-11,082	252,955	117,453
164,677	-11,103	252,850	117,375
165,692	-11,302	252,954	117,244
166,706	-11,295	252,700	117,122
167,721	-11,255	252,368	116,991
168,735	-11,206	252,184	116,937
169,750	-11,236	252,064	116,845
170,764	-11,365	252,123	116,753
171,779	-11,126	251,826	116,807
172,794	-11,068	251,581	116,733
173,808	-11,128	251,340	116,560
174,823	-11,434	251,182	116,217
175,837	-11,829	250,901	115,742
176,852	-11,377	250,882	116,106
177,867	-11,308	250,737	116,087
178,881	-11,159	250,654	116,164
179,896	-11,166	250,391	116,025
180,910	-11,071	250,111	115,965
181,925	-11,105	249,846	115,804
182,940	-11,168	249,839	115,737
183,954	-11,294	249,633	115,526
184,969	-11,203	249,579	115,567
185,983	-11,243	249,497	115,485
186,998	-11,121	249,243	115,459
188,013	-11,203	248,951	115,245
189,027	-11,004	248,742	115,305
190,042	-11,082	248,691	115,205
191,056	-11,281	248,563	114,969
192,071	-11,175	248,277	114,915
193,086	-11,143	248,128	114,863
194,100	-11,262	247,924	114,659
195,115	-11,197	247,856	114,671
196,129	-11,094	247,649	114,651
197,144	-11,147	247,331	114,449
198,159	-11,256	247,242	114,308
199,173	-11,154	246,904	114,225
200,188	-11,194	246,769	114,120
201,202	-11,369	246,588	113,881
202,217	-11,881	246,330	113,327
203,232	-11,820	246,176	113,297
204,246	-11,295	246,110	113,691
205,261	-10,846	245,845	113,930
206,275	-11,663	245,621	113,141
207,290	-7,973	247,255	116,950
208,304	0,320	249,906	125,136
209,319	4,402	251,118	129,152
210,334	4,759	250,962	129,359
211,348	5,040	250,823	129,511
212,363	5,253	250,820	129,676
213,377	5,582	250,549	129,799
214,392	5,022	250,500	129,295
215,407	5,116	250,136	129,174
216,421	5,019	250,045	129,035
217,436	5,159	249,877	129,053
218,450	5,363	249,834	129,188
219,465	4,805	249,571	128,578
220,480	4,672	249,387	128,361
221,494	4,797	249,152	128,332
222,509	4,584	249,164	128,150
223,523	4,596	248,875	128,001
224,538	4,442	248,505	127,671
225,553	4,667	248,529	127,858
226,567	4,682	248,202	127,691
227,582	4,719	248,104	127,660
228,596	4,683	248,010	127,570
229,611	4,342	247,786	127,162
230,626	4,318	247,541	127,006
231,640	4,374	247,297	126,915
232,655	4,389	247,225	126,879
233,669	4,514	247,000	126,855
234,684	4,220	246,891	126,547
235,699	4,361	246,907	126,659
236,713	4,796	246,726	126,912
237,728	4,384	246,547	126,471
238,742	4,434	246,199	126,322
239,757	4,326	245,995	126,118
240,772	4,333	245,860	126,043
241,786	4,519	245,856	126,182
242,801	4,274	245,730	125,905
243,815	4,379	245,413	125,818
244,830	4,484	245,381	125,876
245,844	4,705	245,139	125,920
246,859	4,445	245,111	125,683
247,874	4,220	244,864	125,362
248,888	4,330	244,582	125,296
249,903	4,544	244,583	125,459
250,917	4,592	244,494	125,441
251,932	4,440	244,477	125,298
252,947	4,599	244,148	125,247
253,961	4,502	243,859	125,009
254,976	4,774	243,671	125,122
255,990	4,725	243,594	125,031
257,005	4,369	243,478	124,673
258,020	4,288	243,206	124,457
259,034	4,401	243,073	124,469
260,049	4,515	243,047	124,536
261,063	4,370	242,781	124,272
262,078	4,365	242,533	124,131
263,093	4,600	242,664	124,375
264,107	4,506	242,433	124,170
265,122	4,351	242,182	123,906
266,136	4,897	242,054	124,268
267,151	4,775	241,887	124,073
268,166	4,331	241,824	123,674
269,180	4,676	241,463	123,754
270,195	4,995	241,460	123,997
271,209	5,015	241,518	124,032
272,224	4,719	241,153	123,597
273,239	4,110	240,855	122,947
274,253	4,287	240,704	123,000
275,268	4,491	240,727	123,164
276,282	4,661	240,459	123,151
277,297	4,363	240,253	122,798
278,312	4,088	240,219	122,550
279,326	4,343	240,060	122,660
280,341	4,524	239,917	122,721
281,355	4,443	239,730	122,549
282,370	4,616	239,681	122,651
283,384	4,414	239,483	122,379
284,399	4,283	239,083	122,060
285,414	4,092	239,141	121,928
286,428	4,193	239,032	121,941
287,443	4,258	238,804	121,864
288,457	4,716	238,561	122,091
289,472	4,870	238,565	122,205
290,487	4,501	238,480	121,859
291,501	4,319	238,070	121,495
292,516	4,013	237,906	121,160
293,530	4,142	237,781	121,187
294,545	4,523	237,806	121,489
295,560	4,523	237,610	121,377
296,574	4,137	237,530	121,023
297,589	4,281	237,263	120,988
298,603	4,878	237,211	121,419
299,618	4,613	237,118	121,154
300,633	4,857	236,947	121,246
301,647	4,795	236,851	121,138
302,662	5,065	236,718	121,270
303,676	4,828	236,647	121,038
304,691	4,707	236,391	120,801
305,706	4,764	236,388	120,833
306,720	4,815	236,116	120,724
307,735	4,725	235,960	120,563
308,749	4,500	235,773	120,281
309,764	4,490	235,484	120,115
310,779	4,154	235,371	119,785
311,793	4,164	235,086	119,638
312,808	4,131	235,065	119,591
313,822	4,085	234,824	119,422
314,837	3,961	234,745	119,275
315,852	4,036	234,418	119,156
316,866	4,120	234,473	119,239
317,881	4,412	234,388	119,411
318,895	4,872	234,300	119,711
319,910	4,820	234,177	119,597
320,925	4,660	233,872	119,307
321,939	4,192	233,658	118,826
322,954	4,499	233,682	119,065
323,968	4,673	233,500	119,095
324,983	4,470	233,307	118,830
325,997	4,886	233,292	119,132
327,012	4,681	233,122	118,877
328,027	4,521	233,007	118,685
329,041	4,664	232,865	118,712
330,056	5,151	232,793	119,038
331,070	5,100	232,741	118,962
332,085	4,880	232,387	118,602
333,100	4,757	232,126	118,364
334,114	4,593	232,061	118,195
335,129	4,733	231,924	118,221
336,143	4,998	231,757	118,328
337,158	4,829	231,595	118,106
338,173	4,697	231,515	117,954
339,187	4,263	231,365	117,537
340,202	4,656	231,143	117,712
341,216	4,573	230,984	117,558
342,231	4,722	230,765	117,549
343,246	4,413	230,678	117,259
344,260	4,552	230,598	117,314
345,275	4,834	230,462	117,448
346,289	4,824	230,480	117,439
347,304	5,106	230,128	117,463
348,319	4,730	230,047	117,126
349,333	4,852	229,798	117,082
350,348	4,326	229,616	116,581
351,362	4,592	229,664	116,796
352,377	4,365	229,377	116,468
353,392	4,287	229,064	116,240
354,406	4,364	229,157	116,335
355,421	197,316	1316,528	1397,542
356,435	158,360	1448,964	1397,500
