DTS Sentinel unit serial number:	SN410029Multiplexer serial number:	ORYXHardware model number:	OX2-SRSoftware version number:	ORYX F/W v4,00 Oryx Data Collector v3.7.2.0data status	okinstallation	B5 Nyhavnadifferential loss correction	single-endedforward channel	channel 2reverse channel	N/Adate	2023/12/12time	21:57:13forward acquisition time	300,00reverse acquisition time	0,00gamma	499,1914k internal	0,3158k external	0,3158temperature offset calibration	1,0000default loss term (dB/km)	0,3820temperature slope calibration	1,0000multiplexer offset coefficient	1,0000multiplexer slope coefficient	1,0000fibre end	0,00T internal ref (°C)	14,77T ext. ref 1 (°C)	-1,85T ext. ref 2 (°C)	-2,15length (m)	temperature (°C)	Stokes	anti-Stokes-744,400	-95,561	0,126	-0,025
-743,385	-138,648	-0,214	0,017
-742,371	-92,135	0,051	0,011
-741,356	488,467	-0,097	-0,164
-740,342	-147,451	0,070	-0,004
-739,327	-177,172	-0,190	0,003
-738,312	-73,746	0,126	-0,034
-737,298	-140,574	-0,282	-0,021
-736,283	91,972	0,151	-0,125
-735,269	-49,390	-0,210	0,073
-734,254	-14,444	0,161	0,076
-733,239	-127,690	-0,431	-0,045
-732,225	180,913	0,159	0,173
-731,210	-200,000	-0,020	0,129
-730,196	394,029	-0,069	0,106
-729,181	109,402	-0,128	0,113
-728,167	32,451	0,079	0,050
-727,152	-133,276	0,077	-0,007
-726,137	630,267	-0,054	-0,101
-725,123	-200,000	-0,015	0,050
-724,108	-83,527	0,196	-0,046
-723,094	-200,000	0,008	-0,072
-722,079	-131,763	-0,122	-0,012
-721,064	-200,000	0,036	0,137
-720,050	400,811	0,021	0,032
-719,035	89,529	-0,023	-0,019
-718,021	-25,195	-0,062	-0,027
-717,006	-200,000	0,008	0,065
-715,991	343,196	-0,089	-0,129
-714,977	423,603	-0,063	-0,099
-713,962	-200,000	-0,003	-0,195
-712,948	202,307	-0,070	-0,080
-711,933	236,483	-0,053	-0,064
-710,918	-200,000	-0,043	0,140
-709,904	-47,222	0,096	-0,034
-708,889	238,600	-0,063	0,078
-707,875	-35,641	-0,131	0,052
-706,860	-9,204	0,006	-0,003
-705,845	55,216	0,023	0,016
-704,831	-200,000	-0,021	0,094
-703,816	-154,452	-0,121	-0,006
-702,802	496,531	0,055	-0,093
-701,787	-200,000	0,013	-0,049
-700,772	-137,358	0,037	-0,003
-699,758	10,655	0,099	-0,056
-698,743	-200,000	0,020	-0,085
-697,729	-95,588	0,031	0,006
-696,714	-200,000	0,012	0,095
-695,699	37,484	0,117	-0,076
-694,685	-200,000	-0,009	-0,130
-693,670	-200,000	-0,013	-0,115
-692,656	-200,000	0,020	-0,100
-691,641	-161,674	0,028	0,001
-690,627	466,712	0,069	0,115
-689,612	-200,000	0,013	-0,058
-688,597	2,748	-0,083	0,044
-687,583	-15,075	-0,139	-0,065
-686,568	-200,000	-0,005	-0,089
-685,554	-17,925	-0,054	-0,025
-684,539	414,730	0,053	0,084
-683,524	-115,302	0,087	-0,012
-682,510	191,545	0,050	-0,055
-681,495	22,498	-0,013	-0,008
-680,481	99,212	-0,075	-0,064
-679,466	-144,730	-0,041	0,003
-678,451	169,159	-0,128	0,134
-677,437	388,163	0,055	-0,084
-676,422	2,933	0,094	0,050
-675,408	800,000	-0,010	-0,030
-674,393	102,900	-0,039	0,034
-673,378	258,855	0,062	-0,079
-672,364	15,390	-0,200	-0,115
-671,349	-200,000	0,001	0,040
-670,335	236,737	0,033	0,040
-669,320	800,000	0,024	-0,060
-668,305	62,505	-0,146	0,107
-667,291	800,000	0,039	-0,116
-666,276	33,082	-0,069	-0,044
-665,262	800,000	-0,034	-0,106
-664,247	-22,184	-0,088	-0,039
-663,232	147,561	-0,072	-0,072
-662,218	-77,882	-0,128	0,032
-661,203	51,260	-0,090	0,063
-660,189	-200,000	0,005	0,149
-659,174	248,398	-0,046	-0,057
-658,159	234,632	-0,147	-0,178
-657,145	-200,000	-0,007	-0,100
-656,130	53,576	0,089	-0,063
-655,116	-200,000	0,034	-0,154
-654,101	228,876	-0,026	0,031
-653,086	-200,000	0,019	0,062
-652,072	-200,000	-0,002	-0,120
-651,057	-200,000	-0,001	0,025
-650,043	-34,194	-0,093	-0,037
-649,028	82,322	0,082	0,065
-648,014	-115,587	-0,033	-0,004
-646,999	-45,952	-0,017	-0,006
-645,984	265,841	-0,105	0,135
-644,970	-95,021	-0,035	0,007
-643,955	162,022	-0,126	-0,130
-642,941	29,463	-0,054	0,033
-641,926	-29,893	0,145	0,060
-640,911	181,669	0,041	0,045
-639,897	-44,794	-0,096	0,035
-638,882	800,000	-0,040	0,089
-637,868	429,370	-0,021	0,033
-636,853	-200,000	-0,014	0,145
-635,838	-31,398	0,051	-0,021
-634,824	199,346	0,056	-0,064
-633,809	-200,000	0,009	-0,052
-632,795	800,000	-0,044	-0,103
-631,780	-200,000	-0,006	-0,050
-630,765	-98,019	-0,129	-0,024
-629,751	-200,000	0,003	-0,081
-628,736	800,000	-0,069	-0,146
-627,722	-103,037	0,057	-0,010
-626,707	800,000	-0,035	0,097
-625,692	-200,000	0,027	0,137
-624,678	-70,451	0,059	0,016
-623,663	125,073	-0,048	0,044
-622,649	65,417	-0,024	-0,018
-621,634	72,826	0,033	-0,025
-620,619	-35,081	-0,064	-0,025
-619,605	-30,823	-0,020	0,008
-618,590	608,124	0,015	0,028
-617,576	37,722	-0,044	0,029
-616,561	-14,365	-0,055	-0,026
-615,546	-98,696	-0,098	0,018
-614,532	-200,000	-0,038	-0,196
-613,517	-149,186	-0,070	0,004
-612,503	800,000	0,028	-0,068
-611,488	-27,948	0,031	0,013
-610,474	402,795	0,043	0,066
-609,459	800,000	-0,063	-0,167
-608,444	-84,173	-0,096	-0,022
-607,430	-4,163	-0,062	-0,031
-606,415	-11,438	-0,195	-0,094
-605,401	391,089	-0,075	0,114
-604,386	-200,000	0,010	0,045
-603,371	1,467	0,181	-0,095
-602,357	541,056	0,048	-0,084
-601,342	-179,547	0,059	-0,001
-600,328	-200,000	-0,004	-0,059
-599,313	299,587	-0,052	0,071
-598,298	800,000	-0,017	-0,037
-597,284	-200,000	0,018	0,092
-596,269	-166,689	0,103	0,003
-595,255	365,976	-0,041	-0,061
-594,240	-60,488	-0,100	0,031
-593,225	-56,255	-0,109	0,035
-592,211	91,802	0,094	0,078
-591,196	-200,000	0,002	0,040
-590,182	-70,427	0,179	-0,049
-589,167	-200,000	0,008	0,059
-588,152	-200,000	-0,003	0,041
-587,138	-16,028	-0,163	-0,076
-586,123	-200,000	0,002	-0,035
-585,109	-144,365	0,147	-0,010
-584,094	52,628	0,045	-0,031
-583,079	-42,153	-0,098	-0,036
-582,065	487,988	-0,025	-0,042
-581,050	62,139	-0,081	-0,059
-580,036	800,000	0,045	-0,134
-579,021	128,062	-0,078	-0,073
-578,006	129,631	-0,067	-0,063
-576,992	-200,000	0,004	0,187
-575,977	128,328	0,059	0,055
-574,963	-200,000	-0,001	0,055
-573,948	-44,273	0,099	-0,036
-572,934	337,845	-0,061	-0,087
-571,919	-28,046	-0,164	-0,069
-570,904	203,979	-0,145	-0,165
-569,890	-200,000	0,003	0,077
-568,875	800,000	-0,063	0,145
-567,861	800,000	0,061	0,128
-566,846	-122,389	0,144	0,017
-565,831	-31,562	-0,059	-0,024
-564,817	-110,612	0,221	-0,033
-563,802	102,985	-0,072	-0,062
-562,788	-118,465	0,041	-0,005
-561,773	-86,008	-0,137	0,031
-560,758	-13,075	0,036	-0,017
-559,744	122,553	-0,022	0,020
-558,729	-101,581	-0,069	0,012
-557,715	-200,000	-0,005	0,069
-556,700	-200,000	0,006	-0,071
-555,685	41,698	-0,114	-0,075
-554,671	-67,941	-0,071	0,020
-553,656	-200,000	-0,012	0,081
-552,642	-27,405	0,094	0,040
-551,627	-57,532	0,027	0,009
-550,612	-78,136	0,120	0,030
-549,598	411,149	0,021	-0,033
-548,583	154,544	-0,071	-0,071
-547,569	102,564	0,113	0,097
-546,554	95,289	0,033	0,028
-545,539	-200,000	-0,032	0,162
-544,525	406,250	0,042	-0,064
-543,510	-31,840	-0,114	0,047
-542,496	800,000	0,026	-0,060
-541,481	800,000	-0,075	-0,237
-540,466	800,000	-0,022	-0,056
-539,452	-197,052	0,036	-0,000
-538,437	262,007	0,105	-0,134
-537,423	-111,807	-0,051	0,008
-536,408	32,062	-0,119	-0,075
-535,393	109,136	0,061	-0,053
-534,379	-37,848	0,193	-0,075
-533,364	-102,944	-0,114	0,020
-532,350	-200,000	0,007	0,057
-531,335	-200,000	0,011	0,144
-530,321	-200,000	0,000	0,019
-529,306	253,153	-0,097	0,122
-528,291	800,000	0,049	0,106
-527,277	-59,125	-0,101	0,032
-526,262	800,000	-0,029	-0,064
-525,248	-60,082	0,075	0,023
-524,233	246,786	-0,092	0,114
-523,218	-92,701	0,084	-0,017
-522,204	119,073	-0,075	0,067
-521,189	-200,000	-0,007	0,027
-520,175	32,918	-0,147	0,093
-519,160	64,998	-0,088	-0,065
-518,145	-151,984	0,028	0,001
-517,131	-111,948	-0,046	-0,007
-516,116	-200,000	0,016	-0,083
-515,102	-96,926	0,178	0,034
-514,087	800,000	0,061	-0,126
-513,072	-179,735	-0,045	0,001
-512,058	241,415	0,110	-0,134
-511,043	612,965	-0,054	-0,100
-510,029	2,635	-0,018	0,009
-509,014	-106,503	0,125	0,020
-507,999	-2,613	-0,158	-0,081
-506,985	-58,132	0,008	-0,002
-505,970	-153,935	0,061	0,003
-504,956	800,000	0,021	-0,054
-503,941	52,328	0,044	-0,031
-502,926	189,124	0,048	-0,053
-501,912	800,000	0,010	0,024
-500,897	-32,572	-0,039	0,016
-499,883	187,313	0,036	0,040
-498,868	-36,641	0,071	-0,028
-497,853	-200,000	-0,016	-0,108
-496,839	-6,624	0,177	0,088
-495,824	-160,054	0,126	-0,005
-494,810	-200,000	-0,006	0,035
-493,795	800,000	-0,018	0,046
-492,781	123,896	0,011	0,010
-491,766	-95,771	-0,126	-0,024
-490,751	609,255	-0,064	-0,117
-489,737	-200,000	-0,012	-0,077
-488,722	-200,000	0,004	0,096
-487,708	-151,678	0,125	-0,007
-486,693	-78,220	-0,143	0,036
-485,678	-200,000	0,023	0,100
-484,664	-31,050	-0,056	0,023
-483,649	-13,077	-0,203	-0,096
-482,635	-25,516	-0,052	-0,023
-481,620	546,727	-0,038	0,066
-480,605	-200,000	0,025	0,139
-479,591	106,034	0,082	0,071
-478,576	69,605	-0,080	0,060
-477,562	-200,000	0,006	-0,055
-476,547	-200,000	-0,004	-0,130
-475,532	-200,000	0,024	-0,111
-474,518	108,185	0,079	0,069
-473,503	-157,079	0,051	0,002
-472,489	-137,764	0,030	-0,002
-471,474	213,607	-0,099	-0,114
-470,459	-200,000	0,016	0,085
-469,445	-71,942	-0,040	-0,011
-468,430	-175,276	-0,113	0,002
-467,416	-200,000	0,024	0,084
-466,401	800,000	0,012	-0,034
-465,386	5,951	-0,047	0,025
-464,372	48,595	0,023	0,016
-463,357	-69,476	-0,169	-0,047
-462,343	362,729	0,023	-0,034
-461,328	-81,263	-0,034	-0,008
-460,313	-200,000	-0,014	0,087
-459,299	-24,813	0,134	-0,058
-458,284	-200,000	0,054	0,193
-457,270	308,920	0,014	-0,019
-456,255	-200,000	-0,018	-0,057
-455,241	-200,000	-0,003	-0,040
-454,226	-132,844	-0,143	-0,013
-453,211	367,928	0,031	-0,046
-452,197	-167,135	-0,043	0,001
-451,182	-114,114	0,130	-0,018
-450,168	-148,676	-0,129	-0,008
-449,153	532,960	-0,080	0,138
-448,138	642,545	-0,050	-0,093
-447,124	-200,000	-0,007	-0,034
-446,109	-78,497	0,102	-0,025
-445,095	-101,113	0,118	0,021
-444,080	240,744	-0,067	-0,082
-443,065	800,000	-0,045	-0,132
-442,051	-200,000	0,012	-0,105
-441,036	160,083	-0,123	-0,125
-440,022	87,169	0,062	-0,050
-439,007	-21,107	0,058	-0,026
-437,992	-65,257	-0,011	-0,003
-436,978	800,000	-0,051	-0,129
-435,963	-200,000	-0,003	0,071
-434,949	-200,000	0,016	0,095
-433,934	158,094	-0,047	0,048
-432,919	36,424	-0,135	-0,086
-431,905	-130,860	-0,093	-0,009
-430,890	800,000	0,034	-0,097
-429,876	-92,748	0,087	0,018
-428,861	98,888	0,006	-0,005
-427,846	247,056	0,026	-0,032
-426,832	-51,267	0,081	0,027
-425,817	-200,000	0,024	-0,105
-424,803	-188,245	0,030	0,000
-423,788	-56,098	0,035	-0,011
-422,773	-117,000	0,103	0,014
-421,759	-135,016	0,118	-0,010
-420,744	-100,427	-0,066	-0,012
-419,730	51,658	-0,086	-0,060
-418,715	-200,000	-0,014	-0,048
-417,701	10,225	0,119	-0,066
-416,686	56,051	0,075	-0,053
-415,671	-168,234	-0,096	-0,003
-414,657	800,000	0,093	0,197
-413,642	365,131	0,112	0,165
-412,628	800,000	0,016	0,047
-411,613	734,144	0,037	-0,073
-410,598	800,000	-0,058	-0,136
-409,584	-200,000	0,026	0,161
-408,569	-6,194	0,046	-0,023
-407,555	48,343	0,071	0,048
-406,540	-50,723	-0,179	0,061
-405,525	60,254	0,069	0,049
-404,511	452,328	0,062	-0,101
-403,496	45,472	-0,036	0,024
-402,482	-132,313	0,036	0,003
-401,467	-99,436	0,145	-0,026
-400,452	-67,090	-0,075	0,021
-399,438	800,000	0,044	-0,094
-398,423	800,000	-0,024	0,066
-397,409	172,630	0,030	0,031
-396,394	738,778	-0,034	0,066
-395,379	-100,284	0,131	-0,023
-394,365	800,000	-0,053	0,145
-393,350	175,650	0,037	0,040
-392,336	-200,000	-0,016	0,150
-391,321	800,000	0,013	0,042
-390,306	117,044	-0,101	-0,090
-389,292	-23,451	-0,087	-0,038
-388,277	660,227	-0,009	-0,018
-387,263	800,000	0,019	0,053
-386,248	-200,000	0,032	0,151
-385,233	57,605	0,079	-0,056
-384,219	-59,939	-0,136	-0,042
-383,204	-200,000	0,028	-0,125
-382,190	-200,000	0,010	0,103
-381,175	-132,059	-0,014	0,001
-380,160	-23,490	-0,113	-0,049
-379,146	-200,000	-0,009	0,074
-378,131	-200,000	0,018	0,074
-377,117	-200,000	0,006	-0,042
-376,102	90,600	0,112	0,091
-375,088	-151,710	0,100	-0,005
-374,073	-200,000	-0,010	-0,034
-373,058	256,262	-0,009	-0,012
-372,044	92,879	0,073	0,060
-371,029	-130,895	0,157	0,015
-370,015	-93,796	0,045	0,009
-369,000	174,937	0,035	0,037
-367,985	800,000	-0,016	0,038
-366,971	31,637	-0,100	-0,062
-365,956	-200,000	0,000	0,062
-364,942	-200,000	0,020	-0,095
-363,927	16,345	0,067	0,038
-362,912	800,000	0,005	0,015
-361,898	62,452	-0,055	-0,040
-360,883	-200,000	-0,025	-0,102
-359,869	38,155	0,063	-0,041
-358,854	-200,000	0,017	0,136
-357,839	-55,872	0,187	0,060
-356,825	-200,000	0,019	0,139
-355,810	134,653	0,071	0,067
-354,796	720,097	-0,048	0,094
-353,781	-200,000	0,030	0,101
-352,766	-200,000	0,049	-0,166
-351,752	424,589	-0,072	-0,113
-350,737	800,000	0,049	-0,111
-349,723	-200,000	-0,008	0,197
-348,708	21,463	0,127	-0,075
-347,693	185,147	0,017	0,019
-346,679	-103,457	-0,044	0,008
-345,664	180,714	0,067	0,071
-344,650	800,000	-0,083	0,185
-343,635	-85,697	0,117	-0,026
-342,620	14,833	0,108	0,061
-341,606	85,723	-0,098	-0,078
-340,591	-161,605	-0,058	-0,002
-339,577	458,356	0,057	0,093
-338,562	-21,212	-0,122	-0,054
-337,548	31,118	0,132	-0,082
-336,533	82,861	-0,079	-0,062
-335,518	8,463	0,144	-0,078
-334,504	288,156	0,060	0,078
-333,489	57,423	-0,072	-0,051
-332,475	-173,301	0,077	0,002
-331,460	-44,832	0,042	0,015
-330,445	376,907	-0,044	-0,066
-329,431	-200,000	0,020	-0,118
-328,416	179,412	0,075	0,079
-327,402	-200,000	-0,004	0,022
-326,387	-200,000	0,009	-0,075
-325,372	-200,000	-0,011	0,053
-324,358	-11,406	-0,108	-0,051
-323,343	800,000	-0,060	-0,184
-322,329	-57,270	-0,151	-0,048
-321,314	-69,093	0,158	0,044
-320,299	800,000	-0,020	0,047
-319,285	-68,717	0,075	-0,021
-318,270	-175,174	-0,135	-0,003
-317,256	596,747	-0,019	-0,034
-316,241	-200,000	0,007	0,113
-315,226	53,745	0,064	-0,044
-314,212	-200,000	-0,014	0,095
-313,197	18,639	0,061	0,035
-312,183	25,450	-0,167	0,101
-311,168	207,397	0,037	0,042
-310,153	-37,091	-0,038	0,015
-309,139	-200,000	0,003	-0,028
-308,124	40,892	0,132	-0,086
-307,110	-72,390	-0,095	0,025
-306,095	178,597	-0,017	-0,019
-305,080	201,820	-0,066	-0,074
-304,066	-126,323	-0,056	-0,006
-303,051	-71,512	-0,174	-0,047
-302,037	-200,000	0,016	-0,102
-301,022	-200,000	-0,001	-0,028
-300,008	800,000	-0,033	0,095
-298,993	-200,000	0,021	0,130
-297,978	800,000	-0,023	-0,067
-296,964	11,081	0,168	-0,093
-295,949	800,000	0,030	-0,071
-294,935	277,467	-0,024	0,030
-293,920	54,622	0,096	0,067
-292,905	78,428	-0,133	0,103
-291,891	-92,188	0,059	-0,012
-290,876	205,043	-0,021	-0,024
-289,862	-200,000	-0,044	0,000
-288,847	-49,253	0,032	0,011
-287,832	-83,941	0,048	-0,011
-286,818	-200,000	-0,064	-0,208
-285,803	-78,786	0,106	0,026
-284,789	265,533	-0,086	0,108
-283,774	-51,009	-0,069	-0,023
-282,759	43,795	0,049	-0,032
-281,745	-29,308	-0,030	0,012
-280,730	-187,615	0,064	0,001
-279,716	-37,124	0,067	-0,026
-278,701	800,000	-0,013	-0,027
-277,686	800,000	-0,060	-0,141
-276,672	-200,000	-0,014	0,068
-275,657	17,438	-0,045	0,026
-274,643	444,349	-0,010	0,016
-273,628	-200,000	-0,001	-0,034
-272,613	240,950	0,140	-0,170
-271,599	800,000	-0,032	0,088
-270,584	335,053	0,077	0,109
-269,570	260,700	-0,011	0,014
-268,555	-90,489	0,110	0,023
-267,540	-192,540	-0,025	-0,000
-266,526	48,944	0,095	0,065
-265,511	-200,000	-0,022	0,103
-264,497	-24,439	0,025	-0,011
-263,482	-16,633	0,105	0,048
-262,467	-200,000	0,013	0,090
-261,453	-200,000	0,010	-0,059
-260,438	-24,572	0,048	0,020
-259,424	42,871	-0,059	-0,039
-258,409	72,984	-0,102	-0,077
-257,395	28,123	-0,064	0,039
-256,380	165,438	0,165	0,169
-255,365	485,683	0,061	0,101
-254,351	800,000	-0,020	-0,050
-253,336	800,000	-0,049	-0,107
-252,322	497,780	-0,007	0,012
-251,307	-62,250	0,097	0,029
-250,292	207,477	0,029	0,032
-249,278	-200,000	-0,001	-0,022
-248,263	-132,285	0,087	-0,008
-247,249	800,000	-0,054	0,129
-246,234	-200,000	-0,013	0,043
-245,219	336,510	-0,067	-0,095
-244,205	-200,000	0,011	-0,097
-243,190	-200,000	0,023	-0,144
-242,176	-196,460	0,035	0,000
-241,161	-66,606	0,071	-0,020
-240,146	-200,000	0,013	-0,043
-239,132	-19,068	-0,060	0,027
-238,117	-200,000	-0,018	0,184
-237,103	800,000	0,024	-0,061
-236,088	-167,011	-0,297	0,009
-235,073	172,118	0,096	-0,099
-234,059	77,738	-0,045	-0,035
-233,044	-97,695	0,138	0,026
-232,030	50,181	0,060	0,041
-231,015	800,000	-0,028	0,089
-230,000	-200,000	0,016	-0,086
-228,986	272,670	0,058	0,074
-227,971	800,000	-0,027	0,073
-226,957	-200,000	0,073	0,245
-225,942	58,773	0,082	0,058
-224,927	19,133	0,086	-0,050
-223,913	-54,614	-0,125	-0,041
-222,898	-38,292	-0,150	-0,057
-221,884	800,000	-0,006	-0,015
-220,869	197,236	0,085	-0,094
-219,855	-194,567	0,067	-0,000
-218,840	-200,000	0,033	0,121
-217,825	-6,319	-0,066	0,032
-216,811	13,380	0,019	0,011
-215,796	800,000	0,032	-0,101
-214,782	-84,840	-0,152	-0,034
-213,767	-200,000	-0,009	0,136
-212,752	59,718	0,052	-0,037
-211,738	-200,000	-0,008	-0,090
-210,723	-200,000	-0,031	0,132
-209,709	-200,000	-0,083	-0,000
-208,694	-200,000	0,007	0,026
-207,679	-107,348	0,039	0,006
-206,665	-15,079	0,115	0,053
-205,650	-200,000	0,011	0,037
-204,636	-200,000	-0,010	0,190
-203,621	282,784	-0,039	0,051
-202,606	-62,038	-0,098	-0,029
-201,592	591,522	-0,045	0,080
-200,577	163,071	-0,064	0,065
-199,563	29,667	0,044	-0,027
-198,548	-200,000	0,024	-0,093
-197,533	800,000	0,006	0,015
-196,519	-45,321	-0,056	-0,020
-195,504	-51,956	-0,098	-0,033
-194,490	-103,799	-0,126	-0,021
-193,475	-124,251	-0,043	-0,005
-192,460	-200,000	0,014	-0,081
-191,446	13,194	-0,036	0,020
-190,431	3,803	-0,090	0,047
-189,417	-200,000	-0,024	-0,096
-188,402	47,923	-0,199	-0,134
-187,387	608,849	0,033	-0,060
-186,373	-100,183	0,217	0,038
-185,358	800,000	-0,033	0,103
-184,344	87,441	0,057	0,045
-183,329	197,293	0,041	0,045
-182,315	-104,253	-0,133	0,022
-181,300	-2,692	0,017	-0,009
-180,285	-200,000	-0,017	-0,060
-179,271	2,750	-0,159	-0,083
-178,256	-120,288	0,117	-0,014
-177,242	-57,350	0,095	-0,030
-176,227	120,824	0,044	0,039
-175,212	-200,000	0,041	0,209
-174,198	206,431	0,066	-0,074
-173,183	337,690	-0,073	-0,103
-172,169	312,906	-0,133	-0,180
-171,154	129,956	0,080	0,074
-170,139	-200,000	0,021	0,161
-169,125	-200,000	0,018	0,101
-168,110	-49,987	0,167	0,057
-167,096	-22,903	-0,027	-0,011
-166,081	-200,000	-0,007	-0,077
-165,066	-40,912	0,088	0,033
-164,052	287,038	-0,020	0,027
-163,037	234,447	-0,107	0,127
-162,023	492,214	0,082	0,136
-161,008	-200,000	0,003	-0,085
-159,993	78,252	0,040	0,031
-158,979	-83,638	-0,106	-0,024
-157,964	412,851	0,064	-0,099
-156,950	-152,406	-0,101	-0,005
-155,935	-200,000	-0,046	-0,177
-154,920	9,738	0,135	-0,074
-153,906	97,928	0,095	-0,079
-152,891	-200,000	-0,003	0,061
-151,877	-0,142	-0,040	0,020
-150,862	800,000	-0,073	-0,146
-149,847	-146,185	-0,053	0,003
-148,833	164,219	-0,128	-0,130
-147,818	-128,298	0,114	-0,012
-146,804	-62,407	-0,080	0,024
-145,789	-28,804	-0,067	-0,028
-144,775	-172,658	0,100	-0,002
-143,760	-200,000	0,010	0,061
-142,745	-200,000	-0,019	-0,138
-141,731	306,063	-0,065	-0,087
-140,716	159,862	0,127	-0,127
-139,702	25,845	-0,018	0,011
-138,687	800,000	0,031	0,092
-137,672	-200,000	-0,017	-0,072
-136,658	615,155	-0,025	-0,045
-135,643	-4,196	-0,114	0,057
-134,629	-200,000	0,025	-0,091
-133,614	-200,000	-0,013	-0,103
-132,599	800,000	0,083	0,168
-131,585	143,556	-0,041	0,039
-130,570	-200,000	-0,012	0,131
-129,556	-102,438	-0,118	-0,020
-128,541	-200,000	0,000	-0,151
-127,526	-200,000	-0,021	0,154
-126,512	735,900	-0,059	-0,115
-125,497	-200,000	0,183	-0,000
-124,483	-200,000	-0,001	0,088
-123,468	114,671	0,046	0,041
-122,453	-66,250	-0,153	-0,044
-121,439	-200,000	-0,019	0,066
-120,424	138,596	0,050	-0,047
-119,410	-53,726	0,130	0,043
-118,395	-142,693	0,082	0,006
-117,380	-157,823	0,066	-0,003
-116,366	-200,000	-0,005	-0,190
-115,351	-36,243	-0,011	0,004
-114,337	247,556	0,029	-0,036
-113,322	152,703	-0,081	0,079
-112,307	571,984	0,028	-0,049
-111,293	129,482	0,072	0,066
-110,278	299,943	-0,019	-0,025
-109,264	-116,166	0,076	-0,010
-108,249	-200,000	-0,029	-0,152
-107,234	-200,000	-0,037	-0,181
-106,220	260,345	-0,071	-0,088
-105,205	-118,779	-0,123	0,015
-104,191	-176,177	0,079	0,001
-103,176	700,427	0,087	0,165
-102,162	1,702	0,037	0,019
-101,147	800,000	0,051	0,128
-100,132	-155,518	-0,067	-0,003
-99,118	183,961	-0,106	-0,113
-98,103	27,544	0,065	-0,039
-97,089	-200,000	0,002	-0,021
-96,074	512,362	-0,045	-0,075
-95,059	800,000	-0,020	0,046
-94,045	800,000	0,047	0,100
-93,030	487,909	0,091	-0,149
-92,016	-107,293	-0,093	0,015
-91,001	-200,000	0,010	0,071
-89,986	733,142	0,041	0,078
-88,972	-200,000	0,008	0,186
-87,957	800,000	-0,017	0,034
-86,943	-17,069	0,123	0,056
-85,928	-200,000	0,049	-0,199
-84,913	112,926	0,037	0,032
-83,899	16,084	-0,085	-0,048
-82,884	279,404	-0,057	-0,073
-81,870	92,806	0,105	0,085
-80,855	-137,730	-0,031	0,002
-79,840	309,748	-0,055	0,074
-78,826	95,387	-0,148	0,121
-77,811	382,259	0,031	-0,046
-76,797	28,355	0,074	-0,045
-75,782	195,317	-0,053	0,058
-74,767	-54,066	0,074	-0,024
-73,753	11,711	-0,061	0,034
-72,738	308,576	0,029	0,039
-71,724	128,933	-0,120	-0,110
-70,709	-20,143	-0,189	-0,084
-69,694	-200,000	0,027	-0,125
-68,680	-57,544	0,139	-0,044
-67,665	-200,000	0,019	-0,099
-66,651	-89,207	-0,049	-0,010
-65,636	-71,513	0,121	0,032
-64,622	-200,000	-0,024	-0,201
-63,607	1,550	-0,058	-0,030
-62,592	357,730	0,010	-0,014
-61,578	-47,459	0,080	-0,028
-60,563	800,000	-0,017	0,044
-59,549	-200,000	0,015	0,122
-58,534	14,975	-2,037	-1,142
-57,519	-200,000	-0,169	-0,895
-56,505	-200,000	-1,389	-4,936
-55,490	54,462	0,891	0,615
-54,476	800,000	5,307	12,088
-53,461	-200,000	17,843	294,207
-52,446	800,000	731,063	2249,568
-51,432	540,549	1647,930	2826,730
-50,417	109,121	1636,946	1404,973
-49,403	74,372	1287,551	969,783
-48,388	31,225	1027,803	631,496
-47,373	20,097	989,589	571,305
-46,359	18,199	977,279	557,955
-45,344	15,106	973,241	545,508
-44,330	15,383	971,586	545,463
-43,315	14,852	969,829	542,720
-42,300	14,820	968,688	541,956
-41,286	14,766	967,848	541,290
-40,271	14,855	966,727	540,930
-39,257	14,793	965,960	540,279
-38,242	14,770	965,021	539,657
-37,227	14,778	964,390	539,310
-36,213	14,802	963,233	538,718
-35,198	14,746	962,629	538,176
-34,184	14,860	961,748	538,034
-33,169	14,827	960,682	537,306
-32,154	14,846	959,764	536,836
-31,140	14,825	958,863	536,241
-30,125	14,800	958,338	535,846
-29,111	14,828	957,464	535,427
-28,096	14,797	956,698	534,876
-27,082	14,815	956,095	534,575
-26,067	14,811	955,225	534,054
-25,052	14,796	954,515	533,588
-24,038	14,770	953,843	533,109
-23,023	14,770	953,259	532,761
-22,009	14,810	952,653	532,529
-20,994	14,837	951,765	532,099
-19,979	14,872	951,352	531,959
-18,965	14,853	950,545	531,427
-17,950	14,869	949,832	531,056
-16,936	14,697	949,310	530,194
-15,921	14,764	948,821	530,113
-14,906	14,669	947,948	529,303
-13,892	14,713	947,269	529,044
-12,877	14,691	946,679	528,622
-11,863	14,687	946,008	528,214
-10,848	14,752	945,478	528,105
-9,833	14,733	945,018	527,765
-8,819	14,764	944,541	527,576
-7,804	14,778	943,750	527,160
-6,790	14,639	943,290	526,439
-5,775	14,741	942,587	526,350
-4,760	14,675	942,035	525,811
-3,746	14,685	941,521	525,534
-2,731	14,619	940,647	524,817
-1,717	14,570	940,025	524,294
-0,702	14,540	939,457	523,863
0,313	14,310	938,757	523,536
1,327	17,445	936,609	532,168
2,342	26,212	793,271	473,938
3,356	22,625	459,135	268,794
4,371	-4,109	315,759	156,301
5,386	-7,903	297,549	143,417
6,400	-9,976	291,339	138,345
7,415	-10,499	289,232	136,815
8,429	-10,675	287,849	135,974
9,444	-10,726	286,728	135,383
10,459	-10,579	286,074	135,206
11,473	-10,576	285,368	134,863
12,488	-10,490	284,936	134,730
13,502	-10,655	284,502	134,353
14,517	-10,547	284,022	134,219
15,531	-10,615	283,582	133,933
16,546	-10,529	283,231	133,839
17,561	-10,395	282,755	133,731
18,575	-10,362	282,337	133,554
19,590	-10,535	282,246	133,332
20,604	-10,412	281,818	133,236
21,619	-10,702	281,512	132,801
22,634	-10,608	281,072	132,672
23,648	-10,662	280,847	132,502
24,663	-10,606	280,506	132,383
25,677	-10,605	280,234	132,244
26,692	-10,290	279,928	132,389
27,707	-10,391	279,757	132,200
28,721	-10,613	279,519	131,864
29,736	-10,646	279,183	131,661
30,750	-10,567	278,983	131,631
31,765	-10,296	278,539	131,668
32,780	-10,515	278,426	131,395
33,794	-10,466	278,154	131,300
34,809	-10,689	277,841	130,930
35,823	-10,458	277,512	130,982
36,838	-10,722	277,490	130,709
37,853	-10,560	277,023	130,631
38,867	-10,451	276,997	130,711
39,882	-10,428	276,540	130,505
40,896	-10,520	276,431	130,355
41,911	-10,558	276,162	130,180
42,926	-10,466	275,890	130,127
43,940	-10,706	275,717	129,809
44,955	-10,637	275,545	129,781
45,969	-10,629	275,272	129,648
46,984	-10,887	274,995	129,264
47,999	-10,975	274,735	129,047
49,013	-10,992	274,434	128,880
50,028	-10,984	274,132	128,733
51,042	-11,224	273,942	128,408
52,057	-11,137	273,722	128,375
53,071	-11,295	273,671	128,192
54,086	-11,085	273,358	128,230
55,101	-11,043	273,160	128,165
56,115	-10,730	272,820	128,285
57,130	-10,487	272,823	128,500
58,144	-10,312	272,562	128,529
59,159	-10,370	272,382	128,378
60,174	-10,557	272,164	128,092
61,188	-10,571	271,912	127,948
62,203	-10,467	271,649	127,909
63,217	-10,489	271,447	127,782
64,232	-10,269	271,093	127,807
65,247	-10,357	271,055	127,697
66,261	-10,408	270,791	127,514
67,276	-10,518	270,494	127,261
68,290	-10,714	270,296	126,977
69,305	-10,830	270,013	126,725
70,320	-10,804	269,898	126,684
71,334	-10,544	269,625	126,784
72,349	-10,442	269,418	126,768
73,363	-10,381	269,197	126,709
74,378	-10,573	269,091	126,472
75,393	-10,589	268,796	126,307
76,407	-10,468	268,624	126,326
77,422	-10,569	268,458	126,144
78,436	-10,336	268,161	126,206
79,451	-10,260	267,924	126,152
80,466	-10,403	267,570	125,845
81,480	-10,757	267,484	125,471
82,495	-10,605	267,184	125,457
83,509	-10,302	266,971	125,621
84,524	-10,703	266,904	125,214
85,539	-10,518	266,645	125,249
86,553	-10,447	266,270	125,127
87,568	-10,603	266,161	124,923
88,582	-10,674	266,013	124,778
89,597	-10,574	265,741	124,729
90,611	-10,783	265,733	124,526
91,626	-10,486	265,383	124,619
92,641	-10,430	265,319	124,628
93,655	-10,493	265,041	124,429
94,670	-10,655	264,847	124,182
95,684	-10,503	264,642	124,211
96,699	-10,491	264,451	124,121
97,714	-10,559	264,135	123,901
98,728	-10,823	263,996	123,588
99,743	-10,719	263,841	123,597
100,757	-10,631	263,512	123,511
101,772	-10,643	263,489	123,479
102,787	-10,754	263,179	123,222
103,801	-10,525	262,942	123,305
104,816	-10,499	262,813	123,257
105,830	-10,414	262,717	123,277
106,845	-10,455	262,553	123,152
107,860	-10,455	262,219	122,985
108,874	-10,375	261,956	122,921
109,889	-10,541	261,793	122,687
110,903	-10,465	261,607	122,656
111,918	-10,511	261,478	122,544
112,933	-10,611	261,278	122,351
113,947	-10,420	261,146	122,447
114,962	-10,461	260,857	122,264
115,976	-10,527	260,711	122,126
116,991	-10,450	260,427	122,051
118,006	-10,472	260,348	121,983
119,020	-10,506	260,326	121,932
120,035	-10,378	259,981	121,873
121,049	-10,566	259,913	121,664
122,064	-10,555	259,677	121,553
123,079	-10,598	259,430	121,388
124,093	-10,436	259,117	121,373
125,108	-10,579	258,853	121,114
126,122	-10,763	258,686	120,862
127,137	-10,760	258,439	120,739
128,151	-10,905	258,514	120,637
129,166	-10,701	258,175	120,646
130,181	-10,641	257,765	120,497
131,195	-10,813	257,791	120,348
132,210	-10,516	257,621	120,517
133,224	-10,478	257,342	120,409
134,239	-10,506	257,229	120,320
135,254	-10,515	256,986	120,188
136,268	-10,484	256,908	120,168
137,283	-10,801	256,684	119,777
138,297	-10,990	256,463	119,499
139,312	-10,815	256,112	119,477
140,327	-10,442	256,093	119,781
141,341	-10,358	255,894	119,749
142,356	-10,306	255,812	119,745
143,370	-10,472	255,573	119,479
144,385	-10,275	255,532	119,620
145,400	-10,471	255,198	119,284
146,414	-10,282	255,059	119,371
147,429	-10,342	254,934	119,250
148,443	-10,354	254,723	119,131
149,458	-10,200	254,629	119,208
150,473	-10,179	254,356	119,087
151,487	-10,421	254,273	118,830
152,502	-10,367	253,985	118,731
153,516	-10,283	253,828	118,720
154,531	-10,310	253,693	118,623
155,546	-10,389	253,449	118,430
156,560	-10,432	253,300	118,313
157,575	-10,578	253,006	118,041
158,589	-10,459	252,788	118,030
159,604	-10,412	252,795	118,062
160,619	-10,240	252,506	118,064
161,633	-10,212	252,271	117,968
162,648	-10,441	252,194	117,726
163,662	-10,213	252,059	117,847
164,677	-10,267	251,773	117,657
165,692	-10,117	251,614	117,699
166,706	-10,297	251,418	117,444
167,721	-10,263	251,218	117,369
168,735	-10,335	251,264	117,319
169,750	-10,360	251,043	117,184
170,764	-10,233	250,890	117,210
171,779	-10,303	250,779	117,088
172,794	-10,063	250,489	117,145
173,808	-10,318	250,317	116,839
174,823	-10,859	250,170	116,304
175,837	-10,926	249,871	116,098
176,852	-10,588	249,786	116,332
177,867	-10,241	249,761	116,603
178,881	-10,230	249,587	116,520
179,896	-10,332	249,501	116,384
180,910	-10,271	249,159	116,266
181,925	-10,343	248,886	116,067
182,940	-10,158	248,734	116,141
183,954	-10,347	248,600	115,910
184,969	-10,374	248,465	115,814
185,983	-10,282	248,288	115,798
186,998	-10,046	248,006	115,854
188,013	-10,116	248,024	115,793
189,027	-10,395	247,792	115,441
190,042	-10,357	247,543	115,347
191,056	-10,394	247,365	115,223
192,071	-10,250	247,230	115,270
193,086	-10,272	247,000	115,134
194,100	-10,224	246,804	115,072
195,115	-10,287	246,686	114,954
196,129	-10,138	246,381	114,926
197,144	-10,376	246,295	114,678
198,159	-10,225	245,949	114,632
199,173	-10,422	245,935	114,452
200,188	-10,182	245,757	114,557
201,202	-10,426	245,519	114,234
202,217	-10,875	245,192	113,702
203,232	-10,961	245,098	113,577
204,246	-10,608	245,023	113,823
205,261	-10,284	244,906	114,026
206,275	-11,285	244,421	112,966
207,290	-6,896	246,207	117,414
208,304	0,687	248,749	124,936
209,319	4,114	249,488	128,152
210,334	4,217	249,428	128,196
211,348	4,618	249,248	128,425
212,363	5,000	249,124	128,667
213,377	5,021	249,123	128,672
214,392	4,852	248,983	128,448
215,407	4,919	248,824	128,410
216,421	4,747	248,550	128,115
217,436	4,961	248,492	128,251
218,450	5,257	248,267	128,368
219,465	4,791	248,003	127,835
220,480	4,522	247,944	127,571
221,494	4,653	247,594	127,487
222,509	4,463	247,485	127,263
223,523	4,482	247,368	127,208
224,538	4,118	247,186	126,803
225,553	4,380	246,966	126,894
226,567	4,340	246,819	126,775
227,582	4,516	246,656	126,824
228,596	4,586	246,504	126,792
229,611	4,278	246,245	126,395
230,626	4,062	246,063	126,114
231,640	3,974	246,047	126,022
232,655	4,292	245,740	126,114
233,669	4,132	245,593	125,897
234,684	4,172	245,384	125,810
235,699	4,511	245,360	126,064
236,713	4,584	245,238	126,049
237,728	4,275	245,035	125,682
238,742	4,199	244,702	125,438
239,757	4,068	244,656	125,297
240,772	4,206	244,503	125,319
241,786	4,202	244,453	125,279
242,801	3,857	244,268	124,893
243,815	4,219	243,944	125,010
244,830	4,349	243,893	125,078
245,844	4,321	243,840	125,017
246,859	4,182	243,554	124,747
247,874	4,323	243,262	124,700
248,888	4,251	243,297	124,648
249,903	4,482	243,109	124,727
250,917	4,502	243,015	124,684
251,932	4,613	242,797	124,650
252,947	4,623	242,680	124,587
253,961	4,210	242,453	124,127
254,976	4,371	242,371	124,204
255,990	4,456	242,235	124,192
257,005	4,297	241,928	123,896
258,020	4,050	241,731	123,586
259,034	4,355	241,764	123,837
260,049	4,244	241,614	123,659
261,063	4,133	241,383	123,441
262,078	4,143	241,228	123,358
263,093	4,476	241,104	123,550
264,107	4,456	241,079	123,511
265,122	4,161	240,834	123,139
266,136	4,416	240,735	123,281
267,151	4,526	240,655	123,317
268,166	4,277	240,363	122,958
269,180	4,053	240,006	122,585
270,195	4,601	240,143	123,081
271,209	4,829	240,074	123,217
272,224	4,508	239,655	122,735
273,239	4,148	239,441	122,328
274,253	4,137	239,244	122,209
275,268	4,198	239,216	122,232
276,282	4,462	238,962	122,300
277,297	4,181	238,898	122,034
278,312	4,097	238,801	121,907
279,326	4,220	238,645	121,914
280,341	4,286	238,543	121,903
281,355	4,281	238,355	121,792
282,370	4,202	238,364	121,723
283,384	4,043	238,182	121,494
284,399	4,024	237,785	121,265
285,414	3,949	237,781	121,194
286,428	4,043	237,643	121,186
287,443	4,176	237,435	121,174
288,457	4,356	237,301	121,237
289,472	4,440	237,176	121,228
290,487	4,277	236,930	120,963
291,501	3,966	236,769	120,627
292,516	3,945	236,633	120,530
293,530	3,805	236,578	120,382
294,545	4,362	236,437	120,735
295,560	4,501	236,268	120,747
296,574	3,987	236,044	120,220
297,589	4,103	235,903	120,228
298,603	4,357	235,919	120,424
299,618	4,463	235,744	120,407
300,633	4,366	235,598	120,245
301,647	4,459	235,434	120,224
302,662	4,578	235,470	120,324
303,676	4,627	235,307	120,268
304,691	4,364	235,033	119,913
305,706	4,560	234,891	119,982
306,720	4,629	234,745	119,950
307,735	4,431	234,595	119,709
308,749	4,453	234,323	119,577
309,764	4,109	234,044	119,158
310,779	3,982	233,807	118,928
311,793	3,997	233,778	118,915
312,808	4,015	233,571	118,812
313,822	3,757	233,424	118,528
314,837	3,839	233,180	118,456
315,852	4,017	233,134	118,560
316,866	4,530	233,193	118,974
317,881	4,631	233,015	118,951
318,895	4,466	232,887	118,748
319,910	4,614	232,693	118,752
320,925	4,173	232,366	118,236
321,939	3,812	232,234	117,882
322,954	4,442	232,320	118,398
323,968	4,593	232,166	118,425
324,983	4,266	232,075	118,118
325,997	4,740	231,830	118,345
327,012	4,496	231,640	118,051
328,027	4,438	231,441	117,894
329,041	4,678	231,386	118,040
330,056	5,095	231,397	118,353
331,070	4,955	231,385	118,229
332,085	4,585	230,941	117,710
333,100	4,253	230,871	117,411
334,114	4,495	230,639	117,467
335,129	4,494	230,673	117,473
336,143	4,770	230,464	117,566
337,158	4,639	230,196	117,319
338,173	4,532	229,990	117,122
339,187	4,198	229,984	116,855
340,202	4,526	229,757	116,978
341,216	4,405	229,645	116,819
342,231	4,276	229,473	116,624
343,246	4,353	229,324	116,596
344,260	4,379	229,225	116,555
345,275	4,613	229,110	116,662
346,289	4,639	229,084	116,658
347,304	4,588	228,869	116,500
348,319	4,607	228,775	116,456
349,333	4,302	228,558	116,105
350,348	4,277	228,200	115,895
351,362	4,273	228,082	115,821
352,377	3,846	227,878	115,387
353,392	3,702	227,839	115,249
354,406	4,014	227,837	115,472
355,421	195,148	1321,644	1396,936
356,435	156,467	1454,891	1396,920
