DTS Sentinel unit serial number:	SN410029Multiplexer serial number:	ORYXHardware model number:	OX2-SRSoftware version number:	ORYX F/W v4,00 Oryx Data Collector v3.7.2.0data status	okinstallation	B5 Nyhavnadifferential loss correction	single-endedforward channel	channel 2reverse channel	N/Adate	2023/12/13time	22:52:14forward acquisition time	300,00reverse acquisition time	0,00gamma	499,1914k internal	0,3154k external	0,3154temperature offset calibration	1,0000default loss term (dB/km)	0,3820temperature slope calibration	1,0000multiplexer offset coefficient	1,0000multiplexer slope coefficient	1,0000fibre end	0,00T internal ref (°C)	9,15T ext. ref 1 (°C)	-7,50T ext. ref 2 (°C)	-7,51length (m)	temperature (°C)	Stokes	anti-Stokes-744,400	150,791	0,042	0,042
-743,385	-62,825	-0,224	0,068
-742,371	-122,044	0,223	0,027
-741,356	-26,759	-0,305	-0,131
-740,342	226,982	0,143	0,172
-739,327	-21,867	-0,385	-0,172
-738,312	-142,110	0,142	0,010
-737,298	-174,899	-0,329	-0,007
-736,283	86,261	0,072	0,058
-735,269	-81,787	-0,190	0,045
-734,254	56,757	0,031	0,022
-733,239	-34,010	-0,499	-0,202
-732,225	120,114	0,230	0,211
-731,210	-200,000	0,017	0,105
-730,196	79,567	-0,084	-0,066
-729,181	-200,000	-0,012	0,047
-728,167	-200,000	-0,002	-0,011
-727,152	-69,632	-0,108	-0,030
-726,137	800,000	-0,060	-0,190
-725,123	-200,000	-0,030	-0,104
-724,108	-116,552	-0,057	-0,008
-723,094	-50,475	-0,132	-0,046
-722,079	307,620	-0,123	-0,169
-721,064	210,704	-0,085	-0,099
-720,050	-21,867	0,059	-0,026
-719,035	16,390	-0,106	-0,061
-718,021	111,084	-0,068	0,061
-717,006	-127,211	0,041	-0,004
-715,991	60,288	-0,160	-0,116
-714,977	-102,908	0,121	-0,021
-713,962	-200,000	-0,025	-0,111
-712,948	800,000	0,023	-0,056
-711,933	800,000	0,027	-0,080
-710,918	7,737	-0,022	-0,012
-709,904	-71,781	-0,097	0,026
-708,889	-66,809	-0,169	-0,049
-707,875	365,923	-0,130	-0,193
-706,860	-114,411	0,131	-0,018
-705,845	-139,454	0,088	-0,007
-704,831	800,000	-0,028	-0,071
-703,816	-200,000	0,042	-0,140
-702,802	-200,000	-0,013	0,049
-701,787	800,000	0,054	-0,150
-700,772	740,336	-0,099	-0,197
-699,758	367,352	-0,040	-0,060
-698,743	159,959	-0,017	0,018
-697,729	215,785	0,062	0,073
-696,714	634,938	0,055	0,104
-695,699	256,914	-0,056	-0,071
-694,685	-129,131	-0,178	0,018
-693,670	230,055	-0,063	-0,075
-692,656	800,000	-0,074	-0,199
-691,641	-125,795	0,038	0,004
-690,627	-62,514	0,037	0,011
-689,612	-200,000	0,023	-0,097
-688,597	-200,000	-0,031	0,125
-687,583	-76,052	-0,145	0,037
-686,568	592,004	0,028	-0,051
-685,554	125,329	0,067	-0,062
-684,539	-200,000	0,024	0,116
-683,524	163,030	-0,072	-0,075
-682,510	182,809	-0,108	-0,118
-681,495	44,167	-0,134	-0,091
-680,481	-70,044	-0,005	-0,001
-679,466	49,748	-0,098	-0,068
-678,451	-72,528	0,064	-0,017
-677,437	38,810	0,120	-0,079
-676,422	-32,176	0,109	0,045
-675,408	-200,000	-0,006	-0,085
-674,393	-14,234	-0,097	-0,046
-673,378	99,668	-0,048	0,041
-672,364	-46,459	-0,094	0,034
-671,349	-125,718	0,020	0,002
-670,335	38,487	0,076	-0,050
-669,320	-53,339	0,074	0,025
-668,305	63,580	-0,117	-0,086
-667,291	240,585	-0,099	-0,122
-666,276	148,834	-0,016	0,016
-665,262	-67,225	-0,069	-0,020
-664,247	4,658	0,052	-0,028
-663,232	-96,444	-0,123	0,024
-662,218	-161,170	0,113	0,004
-661,203	774,502	-0,059	0,120
-660,189	-28,385	0,067	-0,028
-659,174	55,845	-0,118	-0,084
-658,159	400,573	-0,066	-0,102
-657,145	490,870	-0,126	-0,213
-656,130	51,234	-0,054	0,038
-655,116	26,004	-0,023	0,014
-654,101	-185,948	0,038	-0,000
-653,086	-116,754	0,044	0,006
-652,072	43,527	0,066	0,044
-651,057	10,564	-0,086	-0,048
-650,043	85,864	-0,069	0,055
-649,028	-108,072	-0,116	0,018
-648,014	-131,420	-0,121	-0,012
-646,999	-66,201	0,152	-0,044
-645,984	347,451	-0,022	0,032
-644,970	-28,758	-0,036	-0,015
-643,955	776,996	-0,078	-0,157
-642,941	670,624	-0,072	-0,138
-641,926	98,781	0,043	-0,036
-640,911	93,174	0,081	-0,067
-639,897	800,000	0,061	0,165
-638,882	38,174	0,042	0,028
-637,868	3,165	0,091	-0,048
-636,853	-32,288	0,093	-0,038
-635,838	-16,266	-0,073	-0,034
-634,824	-146,481	-0,088	-0,006
-633,809	668,729	-0,019	0,036
-632,795	-102,782	0,071	-0,012
-631,780	-22,114	0,196	0,087
-630,765	-61,737	-0,099	-0,030
-629,751	-64,020	0,024	0,007
-628,736	-39,325	-0,139	-0,053
-627,722	-152,952	-0,108	-0,005
-626,707	-6,153	0,131	0,066
-625,692	-200,000	0,009	0,093
-624,678	-200,000	0,024	-0,142
-623,663	499,820	0,096	0,164
-622,649	-127,342	-0,127	0,013
-621,634	159,881	0,010	0,010
-620,619	-64,236	-0,074	-0,022
-619,605	-200,000	-0,001	-0,086
-618,590	-135,814	0,080	-0,007
-617,576	260,828	0,058	-0,073
-616,561	62,787	-0,043	0,032
-615,546	32,338	0,027	-0,017
-614,532	-101,543	-0,087	0,015
-613,517	-200,000	0,007	-0,110
-612,503	6,958	0,021	0,011
-611,488	-21,623	-0,059	0,026
-610,474	-46,864	0,085	0,030
-609,459	455,988	-0,040	0,066
-608,444	773,960	-0,024	-0,048
-607,430	-200,000	-0,002	-0,047
-606,415	-200,000	-0,003	0,016
-605,401	593,161	0,030	-0,055
-604,386	-200,000	0,024	-0,086
-603,371	-200,000	-0,027	0,112
-602,357	800,000	-0,053	0,142
-601,342	384,873	-0,018	0,027
-600,328	9,139	-0,103	-0,057
-599,313	231,084	-0,103	-0,124
-598,298	208,067	-0,045	0,052
-597,284	250,277	0,061	-0,076
-596,269	-162,099	-0,147	-0,005
-595,255	-200,000	0,005	0,039
-594,240	-87,704	-0,142	0,031
-593,225	198,230	-0,054	-0,061
-592,211	-200,000	-0,021	-0,098
-591,196	800,000	-0,022	0,051
-590,182	800,000	-0,037	-0,098
-589,167	-200,000	-0,019	0,167
-588,152	74,283	0,060	0,046
-587,138	-137,410	-0,054	-0,004
-586,123	429,719	-0,102	-0,162
-585,109	-24,282	0,074	0,032
-584,094	-200,000	0,018	-0,128
-583,079	-3,276	0,106	0,054
-582,065	85,417	-0,081	-0,065
-581,050	277,960	-0,073	-0,095
-580,036	-141,779	-0,014	-0,001
-579,021	301,693	-0,073	-0,100
-578,006	161,403	-0,022	-0,023
-576,992	525,951	-0,051	-0,089
-575,977	502,677	0,053	0,090
-574,963	40,511	-0,020	0,013
-573,948	71,097	-0,048	-0,037
-572,934	215,847	0,116	0,136
-571,919	800,000	-0,045	-0,109
-570,904	-200,000	0,013	-0,230
-569,890	341,785	-0,043	0,062
-568,875	-108,294	0,052	0,008
-567,861	49,540	0,088	0,061
-566,846	458,802	0,070	0,114
-565,831	-200,000	0,010	0,109
-564,817	155,331	-0,027	0,027
-563,802	-200,000	0,011	-0,155
-562,788	-77,508	-0,060	0,015
-561,773	-120,705	0,108	0,013
-560,758	74,717	0,111	-0,085
-559,744	131,268	-0,055	0,052
-558,729	800,000	-0,050	-0,121
-557,715	-76,879	-0,076	-0,019
-556,700	-200,000	-0,027	0,130
-555,685	-196,832	-0,143	-0,001
-554,671	461,790	0,071	-0,116
-553,656	189,307	-0,120	-0,132
-552,642	737,568	0,078	0,155
-551,627	33,885	0,055	0,035
-550,612	-72,101	-0,023	0,006
-549,598	130,164	-0,090	-0,084
-548,583	-55,707	-0,045	-0,015
-547,569	-200,000	-0,018	0,085
-546,554	186,962	0,054	-0,059
-545,539	-42,728	0,176	0,065
-544,525	800,000	0,032	0,091
-543,510	247,792	0,068	-0,085
-542,496	29,848	0,061	-0,038
-541,481	800,000	0,006	-0,018
-540,466	694,113	-0,028	0,055
-539,452	-200,000	-0,023	-0,074
-538,437	12,462	0,155	0,087
-537,423	313,384	0,035	0,048
-536,408	-106,059	-0,093	-0,015
-535,393	-200,000	-0,007	0,030
-534,379	-83,801	-0,084	-0,020
-533,364	493,487	-0,073	0,123
-532,350	800,000	0,025	-0,063
-531,335	-200,000	-0,001	-0,036
-530,321	152,008	0,085	0,085
-529,306	77,443	0,089	-0,069
-528,291	471,315	-0,016	-0,026
-527,277	-49,346	-0,049	-0,017
-526,262	-200,000	-0,010	-0,175
-525,248	42,186	-0,102	0,067
-524,233	101,291	0,136	0,116
-523,218	-128,601	-0,085	0,009
-522,204	62,078	0,124	-0,090
-521,189	10,288	-0,026	-0,014
-520,175	5,715	-0,086	-0,046
-519,160	-101,884	0,186	-0,033
-518,145	-64,378	0,081	-0,024
-517,131	800,000	-0,049	0,151
-516,116	-200,000	0,029	0,129
-515,102	-200,000	0,007	0,035
-514,087	-200,000	0,008	0,093
-513,072	-200,000	0,012	-0,056
-512,058	-128,634	-0,121	0,012
-511,043	327,261	0,028	0,040
-510,029	800,000	-0,019	-0,052
-509,014	324,110	-0,007	-0,010
-507,999	-200,000	0,002	-0,089
-506,985	-200,000	-0,004	0,141
-505,970	6,835	0,023	-0,013
-504,956	-37,596	-0,057	0,022
-503,941	353,703	0,049	0,071
-502,926	642,685	-0,038	0,070
-501,912	494,693	-0,045	0,077
-500,897	90,045	0,086	0,070
-499,883	316,504	0,058	-0,080
-498,868	423,893	-0,098	-0,155
-497,853	308,709	-0,010	-0,014
-496,839	800,000	-0,019	0,047
-495,824	-140,229	-0,069	0,005
-494,810	-200,000	-0,007	0,060
-493,795	684,364	-0,032	-0,062
-492,781	-15,307	0,016	-0,007
-491,766	-29,497	-0,057	0,024
-490,751	-200,000	0,004	-0,021
-489,737	566,949	-0,060	0,108
-488,722	273,044	0,107	-0,138
-487,708	161,586	-0,029	0,030
-486,693	134,320	0,068	-0,065
-485,678	-139,599	-0,065	0,005
-484,664	-200,000	0,028	-0,255
-483,649	-133,575	-0,093	-0,008
-482,635	135,016	-0,070	0,067
-481,620	-142,730	0,164	-0,012
-480,605	80,545	0,037	0,029
-479,591	-16,075	0,099	0,046
-478,576	-200,000	-0,017	-0,104
-477,562	429,159	-0,101	-0,160
-476,547	800,000	-0,064	0,149
-475,532	-200,000	-0,012	-0,055
-474,518	211,255	-0,081	-0,093
-473,503	800,000	0,073	-0,221
-472,489	-32,365	0,168	-0,068
-471,474	-124,756	-0,084	0,009
-470,459	-200,000	-0,017	-0,078
-469,445	-160,963	-0,084	0,003
-468,430	532,165	0,037	-0,064
-467,416	444,607	-0,068	-0,110
-466,401	-54,681	0,102	0,033
-465,386	-200,000	-0,011	0,117
-464,372	-4,501	-0,053	-0,026
-463,357	-124,034	-0,097	-0,011
-462,343	174,097	-0,053	0,055
-461,328	151,970	-0,101	0,101
-460,313	88,935	0,053	0,043
-459,299	41,377	-0,031	-0,020
-458,284	252,204	0,049	0,062
-457,270	-200,000	0,002	0,035
-456,255	-52,863	-0,116	-0,039
-455,241	-59,768	0,109	-0,034
-454,226	157,463	0,029	-0,029
-453,211	-103,782	0,039	0,007
-452,197	16,969	0,087	-0,050
-451,182	-51,506	-0,117	0,040
-450,168	533,860	0,066	-0,114
-449,153	161,338	-0,043	0,043
-448,138	301,689	0,052	-0,070
-447,124	-200,000	-0,012	-0,040
-446,109	-22,741	0,150	0,066
-445,095	800,000	0,023	0,054
-444,080	800,000	0,016	0,037
-443,065	-55,187	-0,125	0,041
-442,051	-200,000	0,012	-0,042
-441,036	358,227	-0,039	0,057
-440,022	353,371	-0,049	-0,071
-439,007	-94,296	0,098	0,019
-437,992	91,898	0,062	0,051
-436,978	28,382	-0,085	-0,052
-435,963	-200,000	-0,003	0,053
-434,949	47,714	-0,030	-0,020
-433,934	-200,000	0,011	0,039
-432,919	800,000	0,047	0,128
-431,905	-61,631	0,095	-0,029
-430,890	12,035	0,078	0,044
-429,876	201,875	0,082	0,093
-428,861	-71,319	0,071	-0,019
-427,846	141,847	-0,019	0,018
-426,832	800,000	0,044	-0,101
-425,817	-154,330	-0,031	0,001
-424,803	-76,563	0,120	0,030
-423,788	-117,554	0,082	-0,011
-422,773	411,803	0,112	0,174
-421,759	-200,000	-0,032	0,219
-420,744	495,461	-0,100	0,168
-419,730	-200,000	0,007	0,051
-418,715	-150,821	-0,175	0,010
-417,701	83,852	-0,029	-0,023
-416,686	-130,855	-0,118	0,011
-415,671	-67,813	0,091	-0,026
-414,657	228,590	-0,048	0,057
-413,642	121,911	-0,055	-0,050
-412,628	178,419	-0,041	-0,044
-411,613	800,000	0,034	-0,092
-410,598	662,548	0,026	-0,049
-409,584	292,468	0,051	0,068
-408,569	800,000	0,029	0,087
-407,555	-200,000	0,002	0,049
-406,540	97,719	-0,058	-0,049
-405,525	129,044	-0,041	0,038
-404,511	800,000	-0,027	0,054
-403,496	-200,000	-0,015	-0,091
-402,482	66,230	0,063	-0,046
-401,467	110,849	0,066	0,058
-400,452	-148,415	0,035	0,002
-399,438	100,690	0,079	-0,066
-398,423	21,158	-0,078	0,046
-397,409	-200,000	0,008	-0,158
-396,394	-200,000	-0,014	-0,101
-395,379	-11,297	0,050	0,024
-394,365	189,765	0,052	-0,056
-393,350	-101,623	-0,082	0,014
-392,336	106,517	0,095	0,082
-391,321	269,657	-0,038	0,048
-390,306	233,421	-0,104	0,125
-389,292	573,700	-0,056	0,100
-388,277	3,339	0,054	0,029
-387,263	-66,992	0,125	0,036
-386,248	134,401	-0,044	0,041
-385,233	-80,482	0,086	0,021
-384,219	-200,000	-0,037	-0,136
-383,204	800,000	-0,054	-0,162
-382,190	800,000	-0,037	0,116
-381,175	100,452	0,110	0,093
-380,160	-136,161	-0,086	-0,007
-379,146	792,893	0,068	0,138
-378,131	-52,599	-0,084	0,028
-377,117	-23,714	-0,081	0,035
-376,102	109,970	-0,177	-0,154
-375,088	800,000	0,034	-0,091
-374,073	57,841	-0,154	-0,109
-373,058	-200,000	0,000	-0,019
-372,044	110,295	0,071	0,062
-371,029	-101,593	-0,070	0,012
-370,015	800,000	-0,026	-0,069
-369,000	-136,077	-0,136	-0,011
-367,985	90,826	0,039	-0,032
-366,971	545,300	0,036	0,063
-365,956	-200,000	-0,007	0,097
-364,942	800,000	0,034	0,104
-363,927	-200,000	0,053	0,182
-362,912	-159,312	0,105	0,004
-361,898	30,168	0,125	0,077
-360,883	-104,566	-0,060	-0,010
-359,869	178,405	0,132	-0,140
-358,854	-200,000	-0,013	0,132
-357,839	-33,117	0,074	0,030
-356,825	-2,447	-0,070	0,035
-355,810	23,078	-0,025	0,015
-354,796	-64,326	-0,093	-0,027
-353,781	-110,715	0,203	-0,030
-352,766	800,000	-0,042	0,106
-351,752	23,354	0,119	0,071
-350,737	-200,000	0,037	0,186
-349,723	71,565	-0,067	0,050
-348,708	-200,000	0,001	0,026
-347,693	-66,785	-0,058	-0,016
-346,679	125,185	-0,072	-0,066
-345,664	-200,000	-0,005	-0,046
-344,650	-43,412	-0,013	0,005
-343,635	-51,133	0,098	0,033
-342,620	-113,463	-0,067	0,009
-341,606	163,815	-0,002	0,002
-340,591	-200,000	-0,006	0,102
-339,577	800,000	0,061	-0,184
-338,562	2,662	-0,109	-0,057
-337,548	20,180	0,029	0,017
-336,533	-200,000	0,016	0,196
-335,518	-94,965	0,098	0,019
-334,504	800,000	-0,035	0,081
-333,489	9,507	0,076	0,042
-332,475	-122,701	-0,040	-0,005
-331,460	-157,583	-0,074	0,003
-330,445	-169,912	0,136	-0,003
-329,431	132,217	-0,057	-0,054
-328,416	800,000	-0,023	0,060
-327,402	-192,478	0,078	-0,001
-326,387	-115,394	-0,127	0,017
-325,372	-56,097	0,084	-0,027
-324,358	248,053	-0,103	-0,127
-323,343	-88,138	0,104	0,022
-322,329	60,456	0,040	0,029
-321,314	-125,929	0,077	-0,008
-320,299	94,194	-0,043	-0,036
-319,285	83,521	0,073	0,057
-318,270	-200,000	0,014	-0,081
-317,256	-37,676	0,050	-0,019
-316,241	245,703	-0,142	-0,173
-315,226	-200,000	0,007	-0,026
-314,212	194,665	-0,122	-0,134
-313,197	-63,390	0,101	-0,030
-312,183	-148,310	0,142	-0,008
-311,168	-124,010	-0,148	-0,017
-310,153	161,293	0,076	-0,077
-309,139	96,778	-0,054	-0,045
-308,124	210,936	0,052	0,059
-307,110	-200,000	-0,018	-0,091
-306,095	-108,948	0,070	-0,011
-305,080	800,000	0,061	0,134
-304,066	4,264	-0,147	0,078
-303,051	-200,000	-0,047	-0,183
-302,037	800,000	0,029	-0,072
-301,022	721,490	-0,030	-0,058
-300,008	-100,527	0,264	0,047
-298,993	164,961	0,109	0,112
-297,978	148,152	-0,005	0,005
-296,964	-79,285	-0,026	-0,006
-295,949	-172,826	-0,074	-0,002
-294,935	51,991	-0,051	0,035
-293,920	-200,000	0,005	-0,043
-292,905	800,000	0,016	-0,039
-291,891	-82,220	-0,061	0,014
-290,876	77,465	0,052	0,040
-289,862	-200,000	0,004	-0,024
-288,847	102,525	-0,091	0,077
-287,832	334,739	-0,034	-0,048
-286,818	69,499	0,117	0,087
-285,803	-200,000	0,008	0,093
-284,789	83,187	0,080	0,063
-283,774	5,278	0,141	-0,075
-282,759	-52,381	-0,196	-0,065
-281,745	-135,033	-0,041	0,004
-280,730	800,000	-0,039	-0,112
-279,716	109,730	0,091	-0,079
-278,701	-111,882	-0,037	0,005
-277,686	12,125	-0,059	0,033
-276,672	-200,000	-0,015	0,160
-275,657	45,681	0,056	-0,038
-274,643	-117,091	-0,129	-0,017
-273,628	-200,000	0,004	0,029
-272,613	-66,486	0,089	0,025
-271,599	119,229	0,122	0,110
-270,584	-200,000	0,008	-0,065
-269,570	-200,000	-0,015	-0,097
-268,555	-146,240	-0,084	-0,005
-267,540	-200,000	0,039	-0,162
-266,526	-70,704	0,026	-0,007
-265,511	-38,438	-0,136	-0,052
-264,497	-200,000	-0,029	-0,159
-263,482	54,351	-0,058	0,040
-262,467	-44,015	-0,110	-0,040
-261,453	-200,000	-0,003	-0,017
-260,438	-200,000	0,019	-0,075
-259,424	355,371	-0,063	-0,091
-258,409	132,759	-0,055	-0,051
-257,395	646,465	-0,028	0,052
-256,380	800,000	-0,036	0,095
-255,365	800,000	0,041	-0,108
-254,351	576,574	0,017	0,031
-253,336	262,293	-0,063	0,079
-252,322	-200,000	0,005	0,037
-251,307	-200,000	-0,001	-0,041
-250,292	193,282	-0,020	-0,022
-249,278	41,349	-0,047	0,031
-248,263	-200,000	0,004	0,055
-247,249	462,133	0,072	-0,116
-246,234	-112,778	-0,055	-0,008
-245,219	150,176	-0,018	0,018
-244,205	-4,583	-0,099	0,049
-243,190	471,830	-0,029	0,047
-242,176	583,998	-0,033	-0,059
-241,161	-200,000	-0,009	0,086
-240,146	-79,714	-0,053	-0,013
-239,132	57,622	-0,113	0,080
-238,117	529,845	-0,036	-0,061
-237,103	-148,496	-0,128	-0,007
-236,088	800,000	-0,055	-0,119
-235,073	-121,780	0,107	0,013
-234,059	226,672	0,072	-0,085
-233,044	332,403	0,057	0,080
-232,030	800,000	0,041	-0,099
-231,015	-123,310	-0,145	0,017
-230,000	2,986	-0,035	-0,019
-228,986	328,165	-0,023	-0,032
-227,971	-200,000	0,010	-0,037
-226,957	-200,000	-0,004	0,035
-225,942	-70,333	0,192	0,052
-224,927	800,000	0,021	-0,054
-223,913	107,260	0,066	-0,057
-222,898	-200,000	-0,078	-0,000
-221,884	119,641	-0,049	0,044
-220,869	-200,000	-0,008	-0,052
-219,855	407,600	0,078	0,119
-218,840	-200,000	0,002	0,013
-217,825	-153,527	-0,009	0,000
-216,811	131,234	-0,007	-0,006
-215,796	149,565	0,050	-0,049
-214,782	26,755	0,057	-0,034
-213,767	-200,000	0,011	-0,116
-212,752	277,173	0,165	0,213
-211,738	548,437	0,018	0,032
-210,723	446,633	-0,026	-0,041
-209,709	511,854	-0,034	-0,058
-208,694	-37,347	0,079	0,030
-207,679	-200,000	-0,046	-0,153
-206,665	-44,032	-0,067	-0,024
-205,650	-28,797	0,030	0,012
-204,636	-200,000	0,015	0,128
-203,621	179,416	0,047	-0,050
-202,606	-141,347	-0,044	-0,003
-201,592	-200,000	0,004	-0,020
-200,577	21,298	0,054	-0,031
-199,563	200,960	-0,072	0,080
-198,548	-200,000	-0,001	-0,011
-197,533	-200,000	0,041	-0,161
-196,519	355,109	-0,045	-0,064
-195,504	317,337	-0,048	0,065
-194,490	-122,314	0,094	-0,011
-193,475	-84,638	-0,024	-0,005
-192,460	-200,000	0,006	0,081
-191,446	722,076	-0,075	0,144
-190,431	313,956	0,035	0,047
-189,417	-24,934	-0,088	0,038
-188,402	-8,515	0,018	0,009
-187,387	208,578	-0,020	-0,022
-186,373	800,000	-0,038	-0,078
-185,358	39,615	0,050	0,033
-184,344	1,341	0,088	0,046
-183,329	800,000	0,015	0,046
-182,315	-200,000	0,006	0,068
-181,300	14,467	-0,049	-0,028
-180,285	35,421	0,122	-0,077
-179,271	-112,313	-0,122	0,018
-178,256	421,221	0,014	0,022
-177,242	-120,840	0,020	-0,002
-176,227	54,138	0,078	-0,054
-175,212	800,000	0,024	0,059
-174,198	271,709	0,031	-0,039
-173,183	289,338	0,010	-0,013
-172,169	295,009	0,084	-0,111
-171,154	-6,110	-0,091	0,045
-170,139	386,188	-0,044	0,066
-169,125	800,000	0,057	0,138
-168,110	-200,000	0,030	0,147
-167,096	304,158	0,076	0,103
-166,081	259,322	0,060	0,074
-165,066	-101,402	0,034	0,006
-164,052	-189,635	0,091	0,001
-163,037	-0,907	0,185	-0,094
-162,023	-200,000	0,009	0,078
-161,008	151,338	0,043	0,042
-159,993	28,845	-0,129	0,078
-158,979	-200,000	0,005	-0,081
-157,964	-60,041	0,140	0,043
-156,950	154,924	-0,002	-0,002
-155,935	-68,895	-0,055	0,015
-154,920	18,781	-0,060	-0,035
-153,906	-200,000	0,021	0,073
-152,891	-200,000	-0,001	0,039
-151,877	196,893	0,084	-0,093
-150,862	800,000	0,023	-0,071
-149,847	36,540	-0,094	0,060
-148,833	-200,000	0,018	0,140
-147,818	33,354	0,032	0,020
-146,804	472,266	0,034	0,055
-145,789	800,000	0,024	-0,049
-144,775	-159,178	-0,147	0,006
-143,760	800,000	-0,051	0,148
-142,745	-33,667	0,069	0,027
-141,731	-107,523	0,106	0,017
-140,716	-54,281	0,051	0,017
-139,702	-122,622	0,132	0,015
-138,687	-76,954	0,058	0,015
-137,672	798,940	-0,059	-0,118
-136,658	-135,308	-0,136	0,012
-135,643	-200,000	-0,019	-0,094
-134,629	42,075	-0,093	0,061
-133,614	-17,572	0,127	0,057
-132,599	-107,458	0,029	-0,005
-131,585	437,956	0,060	-0,095
-130,570	-168,917	-0,048	-0,001
-129,556	82,057	0,067	0,052
-128,541	683,768	-0,092	-0,173
-127,526	-49,559	-0,086	-0,029
-126,512	-183,238	-0,024	-0,000
-125,497	-110,380	-0,135	0,020
-124,483	-200,000	-0,025	0,128
-123,468	-39,850	-0,115	-0,043
-122,453	-55,516	-0,059	-0,019
-121,439	-20,186	0,073	-0,032
-120,424	800,000	-0,028	-0,071
-119,410	100,274	0,083	0,069
-118,395	800,000	-0,008	-0,022
-117,380	66,912	-0,015	0,011
-116,366	-1,428	-0,122	0,062
-115,351	800,000	-0,016	0,043
-114,337	21,215	-0,160	-0,093
-113,322	280,435	0,038	-0,049
-112,307	-106,951	-0,146	0,023
-111,293	-70,692	0,055	0,015
-110,278	689,971	0,003	-0,007
-109,264	800,000	-0,018	0,057
-108,249	-200,000	-0,015	-0,071
-107,234	242,502	-0,052	-0,063
-106,220	268,663	-0,050	-0,063
-105,205	-200,000	-0,012	0,141
-104,191	-199,676	-0,037	0,000
-103,176	-6,908	-0,056	0,027
-102,162	624,736	0,082	0,150
-101,147	83,638	-0,114	0,089
-100,132	-47,179	-0,149	-0,052
-99,118	-200,000	-0,023	-0,104
-98,103	-150,644	-0,084	0,005
-97,089	-200,000	-0,012	0,086
-96,074	800,000	-0,012	0,027
-95,059	151,420	0,014	0,013
-94,045	135,111	-0,039	-0,036
-93,030	-142,305	-0,055	0,004
-92,016	79,938	0,051	0,039
-91,001	217,455	-0,041	-0,047
-89,986	-96,581	0,171	0,032
-88,972	347,825	0,032	0,045
-87,957	-39,347	0,073	-0,027
-86,943	-200,000	0,023	0,140
-85,928	0,948	-0,049	-0,025
-84,913	-200,000	0,006	-0,154
-83,899	673,751	-0,036	-0,068
-82,884	-118,346	-0,018	-0,002
-81,870	800,000	0,006	-0,014
-80,855	-200,000	0,001	0,067
-79,840	800,000	-0,032	0,076
-78,826	654,868	-0,067	-0,124
-77,811	800,000	0,055	-0,114
-76,797	-76,707	0,114	-0,029
-75,782	-94,739	-0,079	-0,015
-74,767	-200,000	0,031	-0,139
-73,753	290,149	-0,035	-0,046
-72,738	-151,779	0,087	0,005
-71,724	-42,859	0,078	-0,028
-70,709	800,000	-0,016	0,033
-69,694	-200,000	-0,005	0,065
-68,680	-58,378	0,107	-0,033
-67,665	-88,752	0,011	-0,002
-66,651	476,973	0,119	0,194
-65,636	371,574	0,016	0,023
-64,622	5,400	-0,139	0,074
-63,607	-134,420	0,062	-0,005
-62,592	-200,000	-0,017	-0,139
-61,578	205,449	0,058	-0,065
-60,563	66,132	0,059	0,043
-59,549	-131,013	0,085	0,008
-58,534	91,354	-2,543	-2,051
-57,519	302,568	0,332	-0,443
-56,505	-200,000	-1,600	-5,374
-55,490	456,364	0,953	1,526
-54,476	800,000	5,278	11,702
-53,461	-200,000	21,609	337,658
-52,446	800,000	760,793	2298,102
-51,432	514,654	1656,571	2788,129
-50,417	105,352	1622,538	1376,250
-49,403	75,583	1277,089	967,858
-48,388	26,305	1023,859	613,074
-47,373	19,284	989,888	569,457
-46,359	13,842	976,967	544,099
-45,344	9,847	973,772	529,147
-44,330	10,346	971,729	529,657
-43,315	9,227	970,062	525,049
-42,300	9,211	968,875	524,334
-41,286	9,188	967,658	523,579
-40,271	9,208	966,688	523,100
-39,257	9,174	966,139	522,668
-38,242	9,147	965,078	521,988
-37,227	9,132	964,385	521,541
-36,213	9,106	963,607	521,015
-35,198	9,243	962,618	520,908
-34,184	9,279	961,788	520,555
-33,169	9,188	961,011	519,817
-32,154	9,190	960,115	519,320
-31,140	9,191	959,136	518,772
-30,125	9,230	958,410	518,486
-29,111	9,233	957,660	518,068
-28,096	9,226	956,992	517,664
-27,082	9,239	956,465	517,400
-26,067	9,186	955,690	516,790
-25,052	9,153	954,704	516,128
-24,038	9,175	954,077	515,840
-23,023	9,091	953,599	515,289
-22,009	9,190	952,912	515,219
-20,994	9,174	952,311	514,820
-19,979	9,188	951,766	514,550
-18,965	9,193	950,999	514,131
-17,950	9,237	950,313	513,882
-16,936	9,086	949,781	513,090
-15,921	9,135	949,023	512,815
-14,906	9,115	948,349	512,368
-13,892	9,069	947,569	511,779
-12,877	9,084	946,977	511,486
-11,863	9,091	946,416	511,185
-10,848	9,119	945,688	510,861
-9,833	9,186	945,084	510,729
-8,819	9,122	944,649	510,270
-7,804	9,108	943,906	509,804
-6,790	9,041	943,646	509,428
-5,775	9,032	943,164	509,119
-4,760	9,096	942,359	508,868
-3,746	9,047	941,656	508,311
-2,731	8,930	941,054	507,595
-1,717	8,937	940,362	507,225
-0,702	8,966	939,535	506,849
0,313	8,751	938,873	506,573
1,327	12,379	936,798	516,909
2,342	21,212	785,673	456,832
3,356	16,456	451,419	255,246
4,371	-10,525	313,634	148,546
5,386	-14,415	295,956	136,211
6,400	-16,687	290,121	131,251
7,415	-16,455	287,173	130,135
8,429	-17,126	285,545	128,727
9,444	-17,091	284,629	128,337
10,459	-16,930	284,072	128,231
11,473	-17,160	283,387	127,688
12,488	-16,924	282,868	127,671
13,502	-17,059	282,437	127,335
14,517	-16,884	282,149	127,363
15,531	-16,778	281,546	127,181
16,546	-16,747	281,381	127,125
17,561	-16,879	280,828	126,738
18,575	-16,711	280,654	126,809
19,590	-16,724	280,053	126,514
20,604	-16,560	279,987	126,630
21,619	-16,617	279,578	126,379
22,634	-16,539	279,160	126,253
23,648	-16,796	279,038	125,942
24,663	-16,724	278,678	125,837
25,677	-16,745	278,326	125,646
26,692	-16,581	278,067	125,675
27,707	-16,721	277,893	125,452
28,721	-16,535	277,412	125,400
29,736	-16,713	277,223	125,135
30,750	-16,748	277,097	125,033
31,765	-16,758	276,704	124,835
32,780	-16,824	276,567	124,699
33,794	-16,634	276,257	124,728
34,809	-16,570	276,036	124,678
35,823	-16,552	275,638	124,505
36,838	-16,742	275,449	124,228
37,853	-16,644	275,121	124,162
38,867	-16,600	275,004	124,139
39,882	-16,654	274,760	123,967
40,896	-16,781	274,572	123,752
41,911	-16,547	274,299	123,837
42,926	-16,678	274,040	123,586
43,940	-16,645	273,601	123,408
44,955	-16,640	273,640	123,420
45,969	-16,710	273,383	123,228
46,984	-16,723	273,211	123,127
47,999	-16,671	272,932	123,039
49,013	-16,564	272,832	123,083
50,028	-16,615	272,489	122,869
51,042	-16,518	272,224	122,829
52,057	-16,629	272,230	122,718
53,071	-16,552	271,861	122,611
54,086	-16,690	271,705	122,402
55,101	-16,546	271,308	122,346
56,115	-16,564	271,279	122,306
57,130	-16,639	270,815	122,016
58,144	-16,678	270,541	121,845
59,159	-16,759	270,348	121,673
60,174	-16,768	270,002	121,498
61,188	-16,679	269,895	121,521
62,203	-16,790	269,661	121,302
63,217	-16,720	269,383	121,231
64,232	-16,653	269,208	121,203
65,247	-16,650	268,996	121,099
66,261	-16,922	268,808	120,755
67,276	-16,585	268,314	120,831
68,290	-16,656	268,475	120,828
69,305	-16,650	268,098	120,653
70,320	-16,697	267,887	120,503
71,334	-16,647	267,508	120,368
72,349	-16,733	267,303	120,187
73,363	-16,811	267,172	120,046
74,378	-16,792	266,947	119,952
75,393	-16,561	266,546	119,971
76,407	-16,773	266,647	119,813
77,422	-16,593	266,224	119,776
78,436	-16,696	266,016	119,578
79,451	-16,747	265,761	119,406
80,466	-16,739	265,560	119,312
81,480	-16,667	265,136	119,176
82,495	-16,621	265,151	119,214
83,509	-16,672	265,028	119,102
84,524	-16,650	264,847	119,030
85,539	-16,483	264,646	119,080
86,553	-16,676	264,312	118,745
87,568	-16,620	264,068	118,675
88,582	-16,712	263,861	118,489
89,597	-16,626	263,694	118,481
90,611	-16,413	263,430	118,542
91,626	-16,463	263,272	118,416
92,641	-16,614	263,170	118,224
93,655	-16,643	262,931	118,080
94,670	-16,456	262,568	118,074
95,684	-16,617	262,428	117,857
96,699	-16,521	262,039	117,757
97,714	-16,584	262,118	117,726
98,728	-16,548	261,842	117,623
99,743	-16,549	261,689	117,544
100,757	-16,663	261,609	117,396
101,772	-16,610	261,215	117,255
102,787	-16,519	260,998	117,228
103,801	-16,637	260,830	117,038
104,816	-16,637	260,534	116,894
105,830	-16,631	260,453	116,852
106,845	-16,665	260,189	116,694
107,860	-16,578	260,014	116,682
108,874	-16,714	259,905	116,502
109,889	-16,723	259,497	116,301
110,903	-16,746	259,382	116,219
111,918	-16,629	259,151	116,208
112,933	-16,601	259,033	116,169
113,947	-16,571	258,897	116,125
114,962	-16,630	258,513	115,890
115,976	-16,556	258,365	115,878
116,991	-16,493	258,109	115,809
118,006	-16,724	257,931	115,515
119,020	-16,647	257,749	115,492
120,035	-16,745	257,846	115,438
121,049	-16,574	257,516	115,431
122,064	-16,527	257,227	115,332
123,079	-16,697	257,177	115,151
124,093	-16,665	256,859	115,025
125,108	-16,563	256,578	114,978
126,122	-16,663	256,568	114,877
127,137	-16,472	256,268	114,898
128,151	-16,462	256,136	114,838
129,166	-16,445	255,931	114,750
130,181	-16,461	255,612	114,584
131,195	-16,556	255,501	114,441
132,210	-16,547	255,205	114,306
133,224	-16,553	255,067	114,229
134,239	-16,606	254,911	114,102
135,254	-16,575	254,622	113,990
136,268	-16,645	254,463	113,848
137,283	-16,649	254,309	113,766
138,297	-16,428	254,044	113,828
139,312	-16,739	254,012	113,535
140,327	-16,517	253,439	113,459
141,341	-16,599	253,528	113,418
142,356	-16,781	253,241	113,123
143,370	-16,657	252,888	113,062
144,385	-16,408	252,953	113,295
145,400	-16,603	252,593	112,956
146,414	-16,702	252,445	112,796
147,429	-16,634	252,291	112,775
148,443	-16,610	252,022	112,665
149,458	-16,484	251,921	112,718
150,473	-16,465	251,818	112,678
151,487	-16,473	251,372	112,461
152,502	-16,561	251,295	112,342
153,516	-16,589	251,177	112,255
154,531	-16,606	250,842	112,081
155,546	-16,581	250,717	112,036
156,560	-16,427	250,418	112,024
157,575	-16,493	250,393	111,946
158,589	-16,615	250,196	111,745
159,604	-16,706	250,033	111,585
160,619	-16,546	249,756	111,587
161,633	-16,564	249,659	111,518
162,648	-16,745	249,648	111,350
163,662	-16,656	249,276	111,250
164,677	-16,636	249,279	111,258
165,692	-16,740	248,911	110,996
166,706	-16,567	248,772	111,070
167,721	-16,689	248,640	110,898
168,735	-16,759	248,381	110,715
169,750	-16,793	248,383	110,677
170,764	-16,613	248,303	110,783
171,779	-16,584	248,013	110,667
172,794	-16,470	247,815	110,665
173,808	-16,702	247,566	110,350
174,823	-16,628	247,573	110,405
175,837	-16,351	247,206	110,463
176,852	-16,496	247,044	110,259
177,867	-16,572	246,898	110,121
178,881	-16,496	246,754	110,110
179,896	-16,367	246,477	110,085
180,910	-16,601	246,415	109,852
181,925	-16,585	246,154	109,739
182,940	-16,686	246,165	109,650
183,954	-16,736	245,961	109,508
184,969	-16,434	245,859	109,704
185,983	-16,362	245,440	109,567
186,998	-16,455	245,194	109,370
188,013	-16,585	245,226	109,266
189,027	-16,673	245,050	109,106
190,042	-16,614	244,761	109,016
191,056	-16,587	244,653	108,980
192,071	-16,630	244,372	108,811
193,086	-16,744	244,256	108,655
194,100	-16,628	243,924	108,593
195,115	-16,568	243,864	108,606
196,129	-16,556	243,676	108,522
197,144	-16,762	243,536	108,281
198,159	-16,711	243,218	108,171
199,173	-16,548	243,162	108,272
200,188	-16,796	242,910	107,946
201,202	-16,549	242,810	108,094
202,217	-16,480	242,526	108,015
203,232	-16,458	242,516	108,018
204,246	-16,755	242,126	107,592
205,261	-16,867	241,685	107,296
206,275	-15,817	242,311	108,422
207,290	-10,936	244,024	113,194
208,304	-4,546	246,153	119,460
209,319	-1,437	246,929	122,402
210,334	-0,386	247,075	123,333
211,348	0,693	247,413	124,385
212,363	1,117	247,444	124,740
213,377	1,665	247,387	125,154
214,392	1,855	247,307	125,259
215,407	2,132	247,138	125,391
216,421	2,155	247,241	125,452
217,436	2,408	246,910	125,481
218,450	2,357	246,625	125,283
219,465	2,066	246,498	124,967
220,480	1,983	246,500	124,889
221,494	1,941	246,192	124,687
222,509	1,594	245,674	124,129
223,523	1,358	245,581	123,878
224,538	1,292	245,424	123,733
225,553	1,044	245,191	123,402
226,567	1,104	245,020	123,354
227,582	1,193	244,833	123,321
228,596	1,210	244,838	123,327
229,611	0,987	244,722	123,075
230,626	1,143	244,375	123,016
231,640	1,052	244,138	122,812
232,655	1,029	243,985	122,706
233,669	1,066	243,800	122,631
234,684	1,154	243,704	122,644
235,699	1,173	243,523	122,558
236,713	1,372	243,331	122,612
237,728	1,157	243,263	122,391
238,742	1,332	243,038	122,410
239,757	1,089	242,879	122,122
240,772	1,205	242,762	122,146
241,786	1,132	242,496	121,942
242,801	1,178	242,397	121,919
243,815	1,155	242,207	121,794
244,830	0,990	242,202	121,647
245,844	1,316	241,864	121,729
246,859	1,182	241,733	121,545
247,874	1,130	241,743	121,497
248,888	1,266	241,448	121,447
249,903	1,158	241,347	121,299
250,917	1,177	241,289	121,275
251,932	1,109	241,178	121,153
252,947	1,302	240,972	121,193
253,961	1,314	240,711	121,061
254,976	1,264	240,566	120,937
255,990	1,110	240,481	120,760
257,005	1,300	240,309	120,815
258,020	1,248	240,117	120,666
259,034	1,273	239,819	120,526
260,049	1,247	239,780	120,475
261,063	1,305	239,613	120,426
262,078	1,195	239,456	120,249
263,093	1,139	239,338	120,135
264,107	1,081	239,297	120,057
265,122	1,137	239,202	120,043
266,136	1,216	238,909	119,949
267,151	1,233	238,603	119,798
268,166	1,080	238,495	119,611
269,180	1,177	238,315	119,587
270,195	0,977	238,346	119,433
271,209	1,034	238,117	119,353
272,224	1,218	237,930	119,394
273,239	1,373	237,690	119,385
274,253	1,207	237,676	119,237
275,268	1,249	237,418	119,130
276,282	1,265	237,325	119,085
277,297	1,100	237,156	118,860
278,312	1,195	236,951	118,821
279,326	1,101	236,864	118,693
280,341	1,179	236,671	118,647
281,355	1,169	236,618	118,602
282,370	1,299	236,443	118,606
283,384	1,434	236,307	118,633
284,399	1,073	236,205	118,288
285,414	1,162	235,917	118,204
286,428	1,306	235,795	118,244
287,443	1,095	235,598	117,970
288,457	1,327	235,451	118,067
289,472	1,087	235,327	117,807
290,487	1,102	235,299	117,794
291,501	1,072	235,032	117,626
292,516	1,082	234,897	117,556
293,530	1,066	234,857	117,513
294,545	1,368	234,588	117,603
295,560	1,322	234,450	117,488
296,574	1,249	234,335	117,363
297,589	1,222	234,169	117,248
298,603	1,339	234,018	117,253
299,618	0,992	233,982	116,955
300,633	1,388	233,746	117,134
301,647	1,271	233,558	116,939
302,662	1,480	233,391	117,007
303,676	1,277	233,345	116,816
304,691	1,500	233,127	116,868
305,706	1,448	232,977	116,743
306,720	1,302	232,920	116,591
307,735	1,512	232,770	116,668
308,749	1,258	232,678	116,415
309,764	1,282	232,361	116,265
310,779	1,333	232,124	116,176
311,793	1,361	232,075	116,162
312,808	1,408	231,962	116,131
313,822	1,404	231,686	115,979
314,837	1,413	231,450	115,858
315,852	1,708	231,428	116,063
316,866	1,464	231,389	115,845
317,881	1,644	231,046	115,802
318,895	1,389	231,103	115,624
319,910	1,471	230,834	115,542
320,925	1,364	230,662	115,364
321,939	1,369	230,569	115,311
322,954	1,226	230,638	115,226
323,968	1,316	230,280	115,105
324,983	1,471	230,190	115,168
325,997	1,594	230,083	115,198
327,012	1,400	229,875	114,936
328,027	1,242	229,856	114,796
329,041	1,489	229,573	114,833
330,056	1,398	229,350	114,642
331,070	1,557	229,310	114,732
332,085	1,339	229,155	114,479
333,100	1,269	229,087	114,381
334,114	1,474	228,749	114,358
335,129	1,651	228,594	114,404
336,143	1,558	228,546	114,300
337,158	1,384	228,536	114,153
338,173	1,585	228,269	114,161
339,187	1,353	228,241	113,961
340,202	1,368	227,992	113,838
341,216	1,500	227,729	113,796
342,231	1,472	227,623	113,712
343,246	1,215	227,620	113,507
344,260	1,604	227,397	113,678
345,275	1,530	227,274	113,551
346,289	1,418	227,287	113,463
347,304	1,441	227,004	113,329
348,319	1,654	226,626	113,290
349,333	1,392	226,727	113,134
350,348	1,571	226,438	113,114
351,362	1,390	226,384	112,942
352,377	1,635	226,222	113,034
353,392	1,618	226,148	112,973
354,406	1,373	226,015	112,714
355,421	193,423	1313,239	1384,234
356,435	154,998	1445,582	1384,103
