DTS Sentinel unit serial number:	SN410029Multiplexer serial number:	ORYXHardware model number:	OX2-SRSoftware version number:	ORYX F/W v4,00 Oryx Data Collector v3.7.2.0data status	okinstallation	B5 Nyhavnadifferential loss correction	single-endedforward channel	channel 2reverse channel	N/Adate	2023/12/13time	10:32:13forward acquisition time	300,00reverse acquisition time	0,00gamma	499,1914k internal	0,3160k external	0,3160temperature offset calibration	1,0000default loss term (dB/km)	0,3820temperature slope calibration	1,0000multiplexer offset coefficient	1,0000multiplexer slope coefficient	1,0000fibre end	0,00T internal ref (°C)	13,64T ext. ref 1 (°C)	-2,69T ext. ref 2 (°C)	-2,98length (m)	temperature (°C)	Stokes	anti-Stokes-744,400	-100,105	0,095	0,017
-743,385	-148,017	-0,312	0,019
-742,371	206,030	0,094	0,108
-741,356	-45,289	-0,294	-0,107
-740,342	85,201	0,097	0,078
-739,327	-64,047	-0,240	0,072
-738,312	800,000	0,022	-0,044
-737,298	-98,392	-0,270	-0,050
-736,283	-200,000	0,001	0,064
-735,269	-93,289	-0,238	-0,048
-734,254	-23,949	0,059	-0,026
-733,239	-120,522	-0,507	-0,063
-732,225	-40,880	0,270	0,102
-731,210	-106,837	-0,086	0,014
-730,196	-25,292	-0,091	0,040
-729,181	-81,682	-0,136	0,033
-728,167	359,894	0,048	-0,071
-727,152	178,938	0,088	-0,095
-726,137	-200,000	0,018	0,131
-725,123	143,604	-0,066	0,065
-724,108	-15,482	-0,073	-0,034
-723,094	800,000	-0,016	0,037
-722,079	53,105	-0,117	-0,082
-721,064	213,579	-0,136	-0,159
-720,050	425,718	-0,015	0,025
-719,035	-170,799	-0,104	0,003
-718,021	-102,703	0,056	-0,010
-717,006	-74,929	-0,171	-0,045
-715,991	800,000	0,024	0,056
-714,977	-200,000	0,003	-0,031
-713,962	288,712	-0,020	-0,026
-712,948	1,428	-0,105	0,055
-711,933	-90,405	-0,051	0,011
-710,918	800,000	0,010	-0,022
-709,904	30,028	0,035	0,022
-708,889	23,539	-0,020	-0,012
-707,875	-200,000	0,012	0,105
-706,860	-25,500	-0,033	0,014
-705,845	-139,891	0,172	0,013
-704,831	515,296	-0,036	-0,062
-703,816	800,000	-0,028	0,062
-702,802	54,275	-0,070	-0,050
-701,787	-200,000	0,013	0,123
-700,772	36,471	-0,067	-0,043
-699,758	-200,000	0,007	0,036
-698,743	183,788	-0,130	0,142
-697,729	800,000	-0,014	0,036
-696,714	800,000	-0,041	0,134
-695,699	57,837	-0,132	0,095
-694,685	357,422	0,046	-0,068
-693,670	-200,000	-0,005	-0,058
-692,656	145,605	-0,019	0,018
-691,641	776,241	-0,084	-0,170
-690,627	-200,000	0,007	-0,025
-689,612	192,286	-0,095	-0,106
-688,597	-100,213	-0,014	0,002
-687,583	227,698	-0,059	0,071
-686,568	-158,624	-0,013	0,001
-685,554	-200,000	-0,017	-0,061
-684,539	-135,318	0,034	-0,003
-683,524	-200,000	-0,006	0,055
-682,510	-200,000	-0,014	-0,110
-681,495	-200,000	-0,025	0,116
-680,481	47,405	-0,116	0,079
-679,466	800,000	-0,043	-0,116
-678,451	199,943	-0,124	-0,140
-677,437	6,839	0,066	-0,036
-676,422	-200,000	0,012	-0,121
-675,408	-154,704	0,078	-0,004
-674,393	255,381	-0,060	0,076
-673,378	84,828	0,135	0,109
-672,364	-81,876	-0,113	0,027
-671,349	-200,000	0,000	-0,020
-670,335	212,209	-0,049	-0,056
-669,320	-200,000	-0,035	0,131
-668,305	9,600	0,122	0,068
-667,291	-200,000	-0,017	0,083
-666,276	4,104	-0,169	0,091
-665,262	800,000	-0,065	-0,167
-664,247	800,000	-0,053	0,138
-663,232	285,851	0,042	0,055
-662,218	-64,184	0,130	-0,039
-661,203	-200,000	-0,007	0,105
-660,189	-62,347	-0,102	0,031
-659,174	-200,000	-0,014	-0,153
-658,159	59,261	-0,167	-0,121
-657,145	486,204	0,042	-0,071
-656,130	82,695	-0,099	0,079
-655,116	126,781	0,111	0,103
-654,101	11,834	-0,152	0,085
-653,086	-82,700	-0,153	0,036
-652,072	166,112	-0,109	-0,114
-651,057	5,774	-0,124	0,067
-650,043	800,000	-0,026	-0,066
-649,028	800,000	-0,049	-0,127
-648,014	-80,063	0,099	0,024
-646,999	-153,402	0,055	-0,003
-645,984	800,000	0,023	-0,062
-644,970	254,750	-0,125	0,157
-643,955	-55,138	0,058	-0,019
-642,941	184,119	-0,102	-0,111
-641,926	-200,000	0,002	0,072
-640,911	257,219	0,037	-0,046
-639,897	-134,209	-0,101	-0,009
-638,882	-149,213	-0,029	-0,002
-637,868	93,898	0,023	-0,019
-636,853	328,745	0,014	-0,019
-635,838	-200,000	0,024	-0,187
-634,824	800,000	-0,039	-0,082
-633,809	-8,491	-0,059	0,029
-632,795	-131,754	0,097	0,009
-631,780	60,404	-0,061	-0,045
-630,765	-70,203	-0,037	0,010
-629,751	-116,204	-0,129	0,017
-628,736	92,413	0,059	0,049
-627,722	-200,000	0,016	-0,097
-626,707	154,308	0,052	0,053
-625,692	800,000	0,027	0,061
-624,678	-200,000	-0,012	0,050
-623,663	-200,000	-0,024	0,109
-622,649	-68,742	-0,148	0,042
-621,634	-200,000	0,009	-0,110
-620,619	35,755	-0,120	-0,077
-619,605	-200,000	-0,020	0,076
-618,590	800,000	0,025	0,077
-617,576	-200,000	0,003	-0,057
-616,561	70,315	0,122	-0,092
-615,546	56,341	0,044	-0,032
-614,532	800,000	-0,064	-0,167
-613,517	38,109	-0,085	-0,056
-612,503	89,026	0,059	0,048
-611,488	-200,000	0,004	0,027
-610,474	119,278	0,111	0,100
-609,459	211,535	-0,065	-0,075
-608,444	674,470	-0,044	-0,084
-607,430	-200,000	0,008	-0,110
-606,415	-32,018	-0,078	0,032
-605,401	195,214	0,084	-0,093
-604,386	-43,831	0,191	-0,070
-603,371	74,207	-0,015	-0,012
-602,357	67,649	0,140	-0,104
-601,342	-51,557	-0,038	-0,013
-600,328	13,597	-0,067	-0,038
-599,313	-200,000	0,010	0,040
-598,298	-10,904	-0,078	-0,038
-597,284	-25,590	0,017	0,007
-596,269	-122,708	0,036	0,004
-595,255	-158,270	-0,110	0,005
-594,240	-40,670	0,043	0,016
-593,225	-200,000	0,010	-0,086
-592,211	-59,892	-0,142	-0,044
-591,196	800,000	0,025	-0,072
-590,182	800,000	0,047	-0,101
-589,167	146,705	0,032	-0,031
-588,152	-42,916	0,081	0,030
-587,138	543,071	-0,070	0,122
-586,123	176,117	-0,109	-0,116
-585,109	800,000	-0,051	0,132
-584,094	-93,283	-0,122	0,025
-583,079	-200,000	-0,002	0,067
-582,065	25,418	-0,049	-0,030
-581,050	-43,818	0,110	0,040
-580,036	-15,456	-0,115	-0,054
-579,021	38,377	0,041	-0,027
-578,006	-200,000	-0,025	0,110
-576,992	571,952	0,062	-0,111
-575,977	-200,000	0,024	0,085
-574,963	-149,903	-0,090	-0,005
-573,948	-114,619	0,129	-0,018
-572,934	268,205	-0,070	-0,090
-571,919	27,117	0,089	-0,054
-570,904	557,072	0,023	0,041
-569,890	-16,654	-0,071	-0,033
-568,875	-173,710	0,127	-0,003
-567,861	-200,000	-0,002	-0,059
-566,846	-200,000	-0,016	0,117
-565,831	-200,000	0,002	0,022
-564,817	-200,000	0,010	0,119
-563,802	-27,331	-0,118	0,050
-562,788	-200,000	0,004	-0,095
-561,773	-118,228	-0,053	0,007
-560,758	539,130	-0,069	0,121
-559,744	115,961	0,056	0,050
-558,729	-73,739	-0,101	-0,027
-557,715	-61,666	-0,045	0,014
-556,700	800,000	-0,027	-0,074
-555,685	117,083	-0,076	-0,068
-554,671	206,681	0,033	-0,037
-553,656	-117,963	0,089	-0,012
-552,642	315,406	-0,036	0,050
-551,627	-200,000	0,001	-0,010
-550,612	587,276	0,058	0,106
-549,598	-200,000	0,024	-0,087
-548,583	678,304	-0,049	-0,093
-547,569	81,743	-0,067	0,053
-546,554	484,478	-0,029	0,048
-545,539	371,140	0,086	0,127
-544,525	-52,933	-0,031	-0,010
-543,510	-38,321	0,122	0,047
-542,496	138,246	-0,067	0,065
-541,481	-6,078	-0,100	0,050
-540,466	800,000	0,037	-0,088
-539,452	517,532	0,018	-0,032
-538,437	259,668	0,105	0,133
-537,423	-200,000	0,011	-0,089
-536,408	800,000	0,007	0,015
-535,393	-1,878	0,044	-0,023
-534,379	-40,974	-0,049	0,019
-533,364	218,568	-0,034	-0,039
-532,350	-12,203	0,069	-0,033
-531,335	-19,665	0,095	-0,043
-530,321	-73,548	0,117	0,031
-529,306	-158,252	-0,179	-0,008
-528,291	93,163	-0,068	-0,056
-527,277	800,000	-0,042	-0,122
-526,262	235,934	-0,023	-0,028
-525,248	800,000	-0,020	-0,057
-524,233	-200,000	0,002	-0,042
-523,218	137,905	0,024	0,023
-522,204	492,914	-0,035	-0,058
-521,189	616,114	0,046	0,085
-520,175	-200,000	0,008	-0,052
-519,160	146,056	-0,117	0,115
-518,145	146,329	-0,046	-0,046
-517,131	-48,377	0,145	0,051
-516,116	-200,000	-0,009	-0,086
-515,102	-104,338	0,023	-0,004
-514,087	-200,000	-0,009	-0,198
-513,072	800,000	0,058	-0,142
-512,058	-200,000	-0,002	0,028
-511,043	-10,224	-0,044	-0,021
-510,029	238,567	0,066	0,081
-509,014	440,191	0,036	-0,058
-507,999	800,000	-0,038	0,110
-506,985	1,461	0,162	0,085
-505,970	-2,496	-0,171	0,087
-504,956	33,593	0,127	0,080
-503,941	-200,000	-0,010	0,087
-502,926	231,937	-0,076	-0,091
-501,912	0,302	0,061	-0,032
-500,897	425,229	-0,056	0,088
-499,883	-93,612	0,110	-0,022
-498,868	69,448	0,067	-0,050
-497,853	-200,000	0,000	0,029
-496,839	385,752	0,021	0,031
-495,824	78,453	0,149	0,116
-494,810	149,963	0,071	0,070
-493,795	24,175	0,104	-0,063
-492,781	25,396	0,129	-0,078
-491,766	-200,000	0,004	-0,067
-490,751	-200,000	0,005	0,061
-489,737	-200,000	0,023	-0,116
-488,722	223,186	0,032	-0,038
-487,708	-45,689	0,051	-0,018
-486,693	800,000	-0,001	0,004
-485,678	-179,627	-0,180	0,003
-484,664	-200,000	-0,035	-0,171
-483,649	416,664	-0,044	-0,069
-482,635	800,000	-0,057	0,143
-481,620	307,192	-0,026	0,036
-480,605	192,985	0,074	0,081
-479,591	-200,000	-0,017	0,106
-478,576	230,317	0,037	0,045
-477,562	-200,000	0,017	0,142
-476,547	20,619	0,042	-0,025
-475,532	707,492	-0,038	0,073
-474,518	-185,892	0,087	-0,001
-473,503	-41,183	0,113	0,042
-472,489	-16,353	-0,007	0,003
-471,474	800,000	0,041	0,113
-470,459	800,000	-0,049	0,116
-469,445	-102,536	-0,094	0,016
-468,430	579,146	-0,049	-0,088
-467,416	198,028	-0,067	0,075
-466,401	-82,894	0,106	0,025
-465,386	-24,493	0,091	0,039
-464,372	53,051	0,084	0,058
-463,357	540,422	-0,060	0,105
-462,343	-44,079	-0,097	0,035
-461,328	800,000	-0,057	0,126
-460,313	-8,391	-0,032	0,016
-459,299	-113,511	0,142	0,020
-458,284	-200,000	0,012	0,053
-457,270	-200,000	0,008	0,100
-456,255	362,246	-0,021	0,030
-455,241	19,977	0,011	-0,006
-454,226	-200,000	-0,010	-0,059
-453,211	-127,931	0,123	-0,013
-452,197	-53,994	-0,055	0,018
-451,182	68,549	0,087	0,065
-450,168	-170,627	-0,063	-0,002
-449,153	-200,000	-0,019	0,127
-448,138	182,874	-0,124	-0,134
-447,124	-81,623	-0,131	0,031
-446,109	-105,298	0,054	0,009
-445,095	451,834	0,037	0,059
-444,080	493,821	-0,069	0,115
-443,065	-64,860	0,021	-0,006
-442,051	-19,888	0,052	-0,023
-441,036	120,081	0,042	-0,038
-440,022	345,055	0,063	-0,091
-439,007	38,951	0,099	-0,064
-437,992	800,000	-0,016	0,042
-436,978	350,794	0,004	-0,006
-435,963	-23,736	0,022	0,010
-434,949	47,936	0,004	0,003
-433,934	-98,377	-0,167	-0,031
-432,919	59,940	0,007	-0,005
-431,905	-200,000	0,006	0,031
-430,890	-200,000	-0,009	0,081
-429,876	-200,000	0,025	0,099
-428,861	-86,168	0,228	0,051
-427,846	-3,334	0,094	0,048
-426,832	-62,717	-0,142	0,043
-425,817	-200,000	0,004	0,103
-424,803	-80,177	-0,144	0,035
-423,788	-23,015	0,145	-0,063
-422,773	-200,000	0,014	0,075
-421,759	12,227	0,038	-0,021
-420,744	147,044	-0,085	0,083
-419,730	-200,000	-0,016	-0,178
-418,715	-13,146	-0,020	0,009
-417,701	184,164	-0,028	-0,031
-416,686	-200,000	0,021	0,085
-415,671	-200,000	0,002	-0,040
-414,657	8,829	0,129	0,071
-413,642	80,061	-0,041	0,032
-412,628	-200,000	0,016	0,077
-411,613	156,784	-0,050	-0,050
-410,598	-200,000	-0,017	-0,140
-409,584	132,363	-0,042	0,040
-408,569	-147,849	0,181	-0,011
-407,555	-200,000	0,023	0,156
-406,540	384,363	0,029	-0,044
-405,525	-200,000	0,002	-0,105
-404,511	-25,236	0,092	-0,039
-403,496	578,358	0,025	-0,046
-402,482	-89,719	-0,076	0,016
-401,467	-200,000	-0,052	0,206
-400,452	-200,000	-0,053	0,266
-399,438	547,730	-0,064	0,112
-398,423	-200,000	-0,003	-0,019
-397,409	-200,000	-0,010	-0,144
-396,394	65,039	0,051	0,037
-395,379	-200,000	-0,003	0,046
-394,365	-200,000	0,035	0,171
-393,350	-31,365	0,210	-0,085
-392,336	351,559	0,068	0,099
-391,321	-144,766	-0,029	0,002
-390,306	800,000	0,037	-0,102
-389,292	-121,048	-0,110	-0,013
-388,277	-200,000	-0,002	0,084
-387,263	168,574	0,106	-0,110
-386,248	431,195	0,035	0,055
-385,233	-200,000	-0,010	0,108
-384,219	660,859	0,085	0,161
-383,204	-49,372	-0,123	0,042
-382,190	362,337	-0,042	-0,062
-381,175	-150,888	-0,127	-0,007
-380,160	-1,579	0,066	-0,034
-379,146	-200,000	0,049	0,254
-378,131	-54,363	0,038	-0,013
-377,117	-102,265	0,048	-0,008
-376,102	38,280	-0,085	0,055
-375,088	6,291	-0,090	-0,048
-374,073	-200,000	-0,020	0,073
-373,058	47,078	0,062	0,042
-372,044	44,489	-0,053	0,036
-371,029	800,000	0,060	0,125
-370,015	-200,000	-0,004	0,154
-369,000	-18,504	0,092	0,042
-367,985	-50,643	-0,091	-0,031
-366,971	-17,399	-0,154	-0,070
-365,956	800,000	-0,004	0,010
-364,942	-200,000	0,012	0,063
-363,927	800,000	-0,038	0,092
-362,912	-200,000	0,049	0,227
-361,898	399,087	0,017	0,026
-360,883	-85,598	-0,079	0,018
-359,869	-200,000	-0,034	-0,112
-358,854	-76,146	-0,185	-0,047
-357,839	-200,000	-0,003	0,026
-356,825	396,400	0,008	0,012
-355,810	38,628	0,110	0,071
-354,796	194,613	-0,024	-0,026
-353,781	361,987	-0,049	-0,072
-352,766	-200,000	-0,008	-0,125
-351,752	426,192	-0,031	-0,049
-350,737	-120,439	0,057	0,007
-349,723	70,845	-0,079	0,060
-348,708	-48,343	-0,127	-0,044
-347,693	800,000	0,027	-0,087
-346,679	-82,943	0,115	-0,027
-345,664	-200,000	-0,028	-0,174
-344,650	-200,000	0,025	-0,156
-343,635	-200,000	0,019	-0,124
-342,620	163,947	0,071	0,073
-341,606	800,000	0,070	-0,147
-340,591	-58,987	-0,095	-0,030
-339,577	-200,000	0,018	-0,129
-338,562	-200,000	-0,024	-0,127
-337,548	116,560	-0,054	0,048
-336,533	-200,000	0,019	0,078
-335,518	-200,000	-0,011	-0,086
-334,504	-153,182	0,094	-0,005
-333,489	91,671	-0,057	-0,047
-332,475	-148,361	0,064	-0,004
-331,460	-200,000	0,016	-0,071
-330,445	-51,850	0,147	-0,049
-329,431	566,709	-0,046	-0,081
-328,416	608,829	0,069	0,126
-327,402	-200,000	-0,003	-0,052
-326,387	-200,000	-0,000	0,005
-325,372	-200,000	-0,005	-0,126
-324,358	-100,969	-0,121	-0,021
-323,343	-200,000	0,004	0,053
-322,329	-144,035	0,130	-0,009
-321,314	97,783	0,140	0,117
-320,299	-200,000	-0,030	0,175
-319,285	-200,000	0,012	0,063
-318,270	52,611	0,131	-0,090
-317,256	109,724	-0,118	0,102
-316,241	-200,000	0,009	-0,029
-315,226	109,765	-0,077	0,067
-314,212	-200,000	-0,010	0,053
-313,197	800,000	0,039	0,086
-312,183	-200,000	0,001	-0,083
-311,168	800,000	-0,054	-0,128
-310,153	-80,182	-0,026	0,006
-309,139	-121,131	0,078	0,009
-308,124	737,392	-0,088	0,171
-307,110	-200,000	-0,018	-0,074
-306,095	-156,194	0,122	0,005
-305,080	-16,657	0,035	0,016
-304,066	800,000	0,023	-0,050
-303,051	-71,743	0,153	-0,041
-302,037	-146,383	-0,058	-0,004
-301,022	221,450	0,122	-0,142
-300,008	-200,000	-0,001	0,028
-298,993	-12,901	0,165	0,077
-297,978	-102,342	-0,067	0,012
-296,964	39,018	0,101	-0,065
-295,949	800,000	-0,068	-0,153
-294,935	-72,529	0,063	0,017
-293,920	800,000	-0,043	-0,119
-292,905	118,466	0,022	-0,019
-291,891	800,000	-0,068	0,143
-290,876	-122,680	0,042	-0,005
-289,862	230,950	-0,121	-0,144
-288,847	0,456	-0,084	-0,043
-287,832	339,629	0,036	-0,050
-286,818	-200,000	-0,002	-0,130
-285,803	-200,000	0,032	0,112
-284,789	-200,000	0,015	0,061
-283,774	-81,854	0,049	0,011
-282,759	143,269	-0,045	-0,043
-281,745	-3,298	0,044	0,022
-280,730	-200,000	-0,011	-0,066
-279,716	-20,808	-0,070	-0,031
-278,701	44,903	-0,081	0,054
-277,686	256,333	-0,098	0,122
-276,672	354,913	-0,069	-0,099
-275,657	-44,410	0,113	0,041
-274,643	132,526	-0,070	-0,065
-273,628	-95,546	-0,131	0,025
-272,613	-95,110	-0,082	-0,016
-271,599	156,155	0,096	0,096
-270,584	764,959	-0,015	-0,030
-269,570	782,974	-0,028	0,055
-268,555	247,476	0,056	-0,068
-267,540	-200,000	0,014	-0,114
-266,526	-200,000	-0,014	-0,091
-265,511	-200,000	0,019	-0,110
-264,497	6,196	-0,125	0,067
-263,482	-95,803	-0,090	-0,017
-262,467	8,998	0,093	-0,050
-261,453	571,593	-0,014	0,024
-260,438	693,927	0,032	0,061
-259,424	-200,000	0,005	-0,068
-258,409	441,092	0,025	0,040
-257,395	-56,833	-0,010	0,003
-256,380	-28,244	-0,039	0,016
-255,365	92,076	0,094	-0,076
-254,351	-108,830	-0,057	-0,009
-253,336	10,855	-0,053	-0,029
-252,322	350,622	0,063	-0,090
-251,307	-200,000	0,010	-0,106
-250,292	-88,402	-0,088	-0,019
-249,278	-13,925	0,068	0,032
-248,263	-200,000	0,005	-0,111
-247,249	800,000	0,065	0,150
-246,234	-200,000	0,003	-0,018
-245,219	-98,974	0,034	0,006
-244,205	-24,613	-0,122	-0,052
-243,190	-40,730	-0,025	-0,009
-242,176	177,977	0,023	-0,024
-241,161	-90,363	-0,090	0,019
-240,146	-200,000	0,035	0,115
-239,132	-200,000	0,018	-0,175
-238,117	273,889	-0,025	-0,031
-237,103	-36,962	-0,088	-0,034
-236,088	352,368	0,064	-0,092
-235,073	800,000	0,011	0,026
-234,059	147,650	-0,018	0,018
-233,044	-15,956	-0,044	0,020
-232,030	-64,603	-0,187	-0,055
-231,015	47,938	-0,107	0,072
-230,000	-160,865	-0,136	-0,005
-228,986	800,000	0,026	-0,059
-227,971	-200,000	0,009	0,112
-226,957	800,000	0,034	-0,079
-225,942	-200,000	-0,018	-0,066
-224,927	157,286	-0,107	0,107
-223,913	-200,000	0,009	-0,197
-222,898	-70,524	0,026	0,007
-221,884	800,000	-0,032	0,067
-220,869	-38,213	0,067	-0,025
-219,855	-200,000	-0,039	0,160
-218,840	-105,718	-0,096	-0,015
-217,825	-200,000	-0,007	0,150
-216,811	-200,000	0,016	-0,116
-215,796	58,393	-0,118	-0,083
-214,782	-5,025	-0,132	-0,065
-213,767	-200,000	-0,001	-0,057
-212,752	223,182	-0,063	-0,073
-211,738	-200,000	0,002	0,042
-210,723	20,875	0,110	-0,064
-209,709	-74,432	-0,084	-0,022
-208,694	289,919	-0,086	-0,113
-207,679	-200,000	-0,024	-0,091
-206,665	-43,266	-0,052	0,019
-205,650	122,329	0,098	0,089
-204,636	-200,000	-0,043	-0,154
-203,621	128,262	-0,073	-0,067
-202,606	34,442	-0,059	0,037
-201,592	-80,864	-0,114	-0,027
-200,577	-113,505	0,180	-0,025
-199,563	-188,280	0,059	0,001
-198,548	800,000	0,010	0,022
-197,533	-12,984	-0,023	-0,011
-196,519	722,532	0,023	-0,045
-195,504	74,108	-0,076	-0,057
-194,490	-67,236	-0,055	0,015
-193,475	312,461	0,021	-0,028
-192,460	660,008	0,021	0,039
-191,446	223,874	0,044	-0,051
-190,431	-200,000	0,013	0,055
-189,417	-109,487	0,183	-0,028
-188,402	313,312	0,053	0,072
-187,387	-131,376	-0,028	-0,003
-186,373	185,852	0,050	-0,053
-185,358	-136,316	0,138	-0,011
-184,344	800,000	0,041	0,109
-183,329	47,700	-0,066	0,044
-182,315	-200,000	-0,008	-0,062
-181,300	-200,000	0,019	-0,124
-180,285	94,921	0,048	-0,039
-179,271	51,350	-0,030	0,021
-178,256	-28,393	0,024	0,010
-177,242	164,153	-0,127	-0,129
-176,227	161,579	0,113	0,114
-175,212	1,692	0,206	0,106
-174,198	-28,673	-0,127	-0,052
-173,183	-172,777	-0,133	-0,003
-172,169	-200,000	-0,031	0,105
-171,154	-82,595	-0,053	-0,012
-170,139	-200,000	0,006	0,055
-169,125	452,858	0,067	0,108
-168,110	222,016	-0,053	0,061
-167,096	623,654	-0,027	0,049
-166,081	-65,849	0,076	0,022
-165,066	800,000	-0,039	-0,089
-164,052	309,514	-0,055	0,074
-163,037	-24,858	0,078	0,033
-162,023	27,311	0,043	0,026
-161,008	800,000	0,037	0,095
-159,993	-46,796	0,058	-0,020
-158,979	121,188	-0,085	0,076
-157,964	-200,000	0,003	0,120
-156,950	209,060	0,092	-0,103
-155,935	171,629	0,029	0,030
-154,920	-200,000	-0,007	-0,089
-153,906	226,283	0,065	0,076
-152,891	-172,477	0,049	-0,001
-151,877	66,007	0,030	-0,022
-150,862	162,540	0,094	0,095
-149,847	-86,558	-0,074	-0,016
-148,833	78,608	-0,026	0,020
-147,818	89,284	0,124	0,100
-146,804	163,650	-0,133	0,135
-145,789	692,956	-0,023	0,044
-144,775	-200,000	0,007	0,034
-143,760	90,096	0,089	0,072
-142,745	24,562	-0,064	-0,038
-141,731	11,938	-0,080	0,044
-140,716	800,000	0,020	0,041
-139,702	721,459	-0,040	0,077
-138,687	800,000	0,028	-0,090
-137,672	-33,915	0,133	-0,052
-136,658	-136,293	-0,140	-0,012
-135,643	294,266	0,052	-0,069
-134,629	46,031	-0,117	0,078
-133,614	-200,000	0,004	0,091
-132,599	800,000	0,026	-0,061
-131,585	185,122	-0,133	0,142
-130,570	273,543	0,070	-0,090
-129,556	800,000	0,032	-0,087
-128,541	-5,708	-0,128	-0,063
-127,526	63,260	-0,056	-0,040
-126,512	-200,000	0,014	-0,057
-125,497	54,452	0,049	0,034
-124,483	800,000	-0,025	0,065
-123,468	198,263	0,049	-0,054
-122,453	-200,000	0,043	-0,173
-121,439	-200,000	-0,009	-0,128
-120,424	800,000	0,057	-0,133
-119,410	-50,279	0,111	0,038
-118,395	-200,000	-0,006	0,038
-117,380	73,998	-0,045	0,034
-116,366	-103,917	-0,185	0,031
-115,351	-44,862	-0,037	-0,013
-114,337	-200,000	-0,019	-0,079
-113,322	-21,132	-0,091	-0,040
-112,307	270,988	-0,039	-0,049
-111,293	-118,188	-0,177	-0,022
-110,278	-101,102	-0,072	0,013
-109,264	3,606	0,062	-0,033
-108,249	-64,983	-0,035	-0,010
-107,234	582,094	-0,019	0,034
-106,220	184,870	0,041	0,044
-105,205	68,346	0,076	-0,056
-104,191	-24,678	-0,050	0,021
-103,176	-116,824	0,131	-0,017
-102,162	-200,000	0,005	-0,120
-101,147	-200,000	-0,022	0,088
-100,132	47,355	0,073	-0,049
-99,118	106,526	-0,121	-0,103
-98,103	109,783	0,086	-0,074
-97,089	-54,453	0,087	0,028
-96,074	-151,110	-0,092	-0,005
-95,059	111,075	0,068	0,058
-94,045	-200,000	0,062	0,199
-93,030	-91,623	-0,154	0,031
-92,016	267,018	0,046	-0,058
-91,001	312,882	0,052	0,071
-89,986	27,035	0,034	-0,020
-88,972	-162,975	0,103	0,004
-87,957	110,261	-0,059	0,051
-86,943	-18,025	0,041	0,018
-85,928	-200,000	-0,028	0,094
-84,913	-200,000	0,003	-0,060
-83,899	130,262	-0,132	0,122
-82,884	422,778	-0,028	0,043
-81,870	11,996	0,090	0,050
-80,855	-42,508	0,152	-0,055
-79,840	-39,540	-0,059	-0,022
-78,826	266,141	-0,087	0,109
-77,811	119,320	-0,096	-0,085
-76,797	-200,000	0,010	0,053
-75,782	-200,000	-0,014	-0,080
-74,767	8,772	0,096	-0,052
-73,753	569,632	0,034	-0,060
-72,738	-200,000	0,009	-0,085
-71,724	-80,555	0,051	-0,012
-70,709	-20,466	-0,027	-0,012
-69,694	71,448	-0,031	0,023
-68,680	800,000	-0,012	-0,026
-67,665	13,069	0,103	0,057
-66,651	-200,000	0,021	0,113
-65,636	233,461	-0,027	0,032
-64,622	333,541	-0,116	-0,161
-63,607	800,000	-0,032	-0,086
-62,592	800,000	-0,036	0,083
-61,578	-73,170	-0,087	-0,023
-60,563	51,058	0,062	0,042
-59,549	170,337	0,024	0,025
-58,534	0,830	-2,227	-1,141
-57,519	-200,000	-0,150	-0,817
-56,505	-200,000	-1,397	-5,112
-55,490	72,935	0,943	0,705
-54,476	800,000	5,301	12,099
-53,461	-200,000	18,662	317,455
-52,446	800,000	741,249	2334,012
-51,432	558,082	1657,469	2878,250
-50,417	111,043	1641,313	1417,033
-49,403	75,403	1290,989	975,878
-48,388	30,261	1031,499	630,063
-47,373	19,898	994,191	572,926
-46,359	17,340	981,970	557,437
-45,344	14,010	978,133	544,282
-44,330	14,345	976,593	544,504
-43,315	13,723	974,725	541,402
-42,300	13,694	973,555	540,634
-41,286	13,598	972,852	539,906
-40,271	13,640	971,792	539,434
-39,257	13,608	970,949	538,840
-38,242	13,668	970,075	538,532
-37,227	13,717	968,901	538,017
-36,213	13,665	968,192	537,431
-35,198	13,623	967,195	536,721
-34,184	13,674	966,620	536,547
-33,169	13,654	965,609	535,899
-32,154	13,726	964,522	535,510
-31,140	13,637	963,732	534,761
-30,125	13,715	962,907	534,534
-29,111	13,661	962,140	533,911
-28,096	13,705	961,284	533,560
-27,082	13,661	960,789	533,121
-26,067	13,681	960,084	532,774
-25,052	13,683	959,314	532,330
-24,038	13,671	958,606	531,880
-23,023	13,605	958,112	531,370
-22,009	13,692	957,352	531,208
-20,994	13,652	956,887	530,799
-19,979	13,659	956,150	530,393
-18,965	13,701	955,578	530,191
-17,950	13,695	954,991	529,823
-16,936	13,636	954,386	529,278
-15,921	13,637	953,636	528,842
-14,906	13,527	952,896	528,060
-13,892	13,584	952,337	527,912
-12,877	13,574	951,548	527,420
-11,863	13,584	950,834	527,038
-10,848	13,573	950,244	526,652
-9,833	13,621	949,980	526,640
-8,819	13,686	949,244	526,417
-7,804	13,563	948,523	525,605
-6,790	13,568	947,950	525,280
-5,775	13,630	947,359	525,131
-4,760	13,637	946,894	524,876
-3,746	13,606	946,086	524,309
-2,731	13,458	945,570	523,531
-1,717	13,397	944,877	522,932
-0,702	13,359	944,139	522,381
0,313	13,189	943,523	522,291
1,327	16,527	941,185	531,519
2,342	25,586	795,854	473,515
3,356	22,138	460,092	268,431
4,371	-4,844	317,338	156,185
5,386	-8,740	299,067	143,199
6,400	-10,686	293,049	138,354
7,415	-10,959	290,466	136,852
8,429	-11,405	288,864	135,644
9,444	-11,382	288,052	135,274
10,459	-11,297	287,302	134,993
11,473	-11,444	286,717	134,562
12,488	-11,309	286,288	134,480
13,502	-11,304	285,783	134,236
14,517	-11,366	285,313	133,943
15,531	-11,382	284,826	133,687
16,546	-11,348	284,442	133,528
17,561	-11,438	283,921	133,184
18,575	-11,228	283,698	133,271
19,590	-11,339	283,353	132,990
20,604	-11,297	282,924	132,817
21,619	-11,681	282,730	132,343
22,634	-11,191	282,258	132,583
23,648	-11,287	281,970	132,343
24,663	-11,493	281,943	132,121
25,677	-11,489	281,590	131,947
26,692	-11,547	281,253	131,722
27,707	-11,297	280,903	131,786
28,721	-11,367	280,649	131,587
29,736	-11,544	280,451	131,314
30,750	-11,496	280,120	131,193
31,765	-11,516	279,808	131,016
32,780	-11,212	279,561	131,179
33,794	-11,411	279,346	130,877
34,809	-11,296	279,063	130,842
35,823	-11,402	278,819	130,615
36,838	-11,590	278,563	130,305
37,853	-11,601	278,292	130,156
38,867	-11,455	278,118	130,201
39,882	-11,435	277,892	130,103
40,896	-11,434	277,720	130,012
41,911	-11,398	277,369	129,870
42,926	-11,336	277,053	129,770
43,940	-11,540	276,921	129,503
44,955	-11,505	276,591	129,370
45,969	-11,535	276,303	129,196
46,984	-11,549	276,081	129,067
47,999	-11,995	275,931	128,566
49,013	-12,007	275,670	128,422
50,028	-12,157	275,223	128,061
51,042	-12,064	274,903	127,988
52,057	-12,019	274,761	127,953
53,071	-12,362	274,627	127,557
54,086	-12,032	274,427	127,762
55,101	-12,067	274,235	127,628
56,115	-11,837	274,102	127,770
57,130	-11,523	273,984	127,996
58,144	-11,259	273,833	128,161
59,159	-11,137	273,406	128,063
60,174	-11,306	273,349	127,868
61,188	-11,299	273,078	127,736
62,203	-11,413	272,791	127,485
63,217	-11,318	272,561	127,454
64,232	-11,237	272,462	127,471
65,247	-11,206	272,118	127,328
66,261	-11,251	271,832	127,141
67,276	-11,571	271,637	126,743
68,290	-11,549	271,291	126,590
69,305	-11,684	271,103	126,367
70,320	-11,528	270,838	126,376
71,334	-11,354	270,692	126,457
72,349	-11,340	270,624	126,427
73,363	-11,318	270,488	126,371
74,378	-11,159	270,164	126,356
75,393	-11,330	269,870	126,049
76,407	-11,223	269,703	126,058
77,422	-11,388	269,544	125,821
78,436	-11,269	269,179	125,749
79,451	-11,379	269,130	125,614
80,466	-11,527	268,735	125,283
81,480	-11,421	268,464	125,243
82,495	-11,560	268,316	125,035
83,509	-11,424	268,152	125,072
84,524	-11,438	267,939	124,949
85,539	-11,529	267,531	124,665
86,553	-11,723	267,398	124,416
87,568	-11,591	267,206	124,435
88,582	-11,545	267,020	124,378
89,597	-11,372	266,795	124,420
90,611	-11,269	266,676	124,447
91,626	-11,137	266,513	124,479
92,641	-11,286	266,272	124,220
93,655	-11,273	266,170	124,173
94,670	-11,512	266,043	123,887
95,684	-11,397	265,664	123,803
96,699	-11,363	265,511	123,752
97,714	-11,481	265,340	123,554
98,728	-11,505	265,007	123,367
99,743	-11,487	264,650	123,206
100,757	-11,680	264,665	123,028
101,772	-11,545	264,284	122,962
102,787	-11,561	264,282	122,936
103,801	-11,576	264,121	122,836
104,816	-11,437	263,831	122,815
105,830	-11,320	263,840	122,913
106,845	-11,287	263,549	122,796
107,860	-11,372	263,252	122,570
108,874	-11,277	262,975	122,515
109,889	-11,381	262,893	122,374
110,903	-11,635	262,781	122,084
111,918	-11,385	262,466	122,150
112,933	-11,324	262,304	122,117
113,947	-11,235	262,103	122,092
114,962	-11,126	262,015	122,136
115,976	-11,256	261,593	121,813
116,991	-11,281	261,568	121,770
118,006	-11,349	261,276	121,563
119,020	-11,259	261,355	121,668
120,035	-11,147	261,100	121,637
121,049	-11,399	260,921	121,320
122,064	-11,478	260,690	121,132
123,079	-11,226	260,465	121,240
124,093	-11,488	260,254	120,899
125,108	-11,522	259,966	120,725
126,122	-11,623	259,777	120,537
127,137	-11,830	259,525	120,228
128,151	-11,635	259,332	120,299
129,166	-11,559	259,217	120,301
130,181	-11,637	258,874	120,063
131,195	-11,673	258,808	119,991
132,210	-11,522	258,629	120,029
133,224	-11,343	258,419	120,077
134,239	-11,172	258,243	120,135
135,254	-11,462	258,125	119,815
136,268	-11,390	257,777	119,706
137,283	-11,491	257,488	119,473
138,297	-11,712	257,271	119,169
139,312	-11,902	257,142	118,934
140,327	-11,495	256,948	119,187
141,341	-11,276	256,867	119,329
142,356	-11,216	256,819	119,349
143,370	-11,360	256,623	119,122
144,385	-11,120	256,441	119,235
145,400	-10,918	256,115	119,247
146,414	-11,146	256,034	119,002
147,429	-11,325	255,782	118,719
148,443	-11,125	255,583	118,789
149,458	-11,209	255,551	118,691
150,473	-11,081	255,303	118,676
151,487	-11,260	255,074	118,404
152,502	-11,203	254,940	118,380
153,516	-10,993	254,549	118,370
154,531	-11,120	254,541	118,246
155,546	-11,228	254,336	118,047
156,560	-11,138	254,190	118,046
157,575	-11,293	254,144	117,881
158,589	-11,303	253,872	117,736
159,604	-11,093	253,586	117,772
160,619	-11,114	253,279	117,601
161,633	-11,053	253,225	117,618
162,648	-11,106	253,042	117,478
163,662	-11,135	252,906	117,379
164,677	-11,344	252,958	117,214
165,692	-11,069	252,585	117,265
166,706	-11,300	252,426	116,984
167,721	-10,930	252,121	117,148
168,735	-11,240	252,296	116,955
169,750	-11,045	251,936	116,943
170,764	-11,054	251,655	116,794
171,779	-11,041	251,648	116,792
172,794	-11,264	251,591	116,565
173,808	-11,086	251,194	116,522
174,823	-11,331	250,912	116,174
175,837	-11,745	250,719	115,724
176,852	-11,302	250,604	116,035
177,867	-10,908	250,668	116,387
178,881	-11,019	250,409	116,162
179,896	-11,000	250,217	116,079
180,910	-11,047	250,077	115,964
181,925	-11,041	249,732	115,799
182,940	-10,981	249,631	115,792
183,954	-11,239	249,673	115,585
184,969	-11,098	249,437	115,583
185,983	-10,909	249,277	115,657
186,998	-11,042	249,020	115,417
188,013	-11,012	248,713	115,289
189,027	-10,868	248,490	115,296
190,042	-11,142	248,410	115,019
191,056	-11,148	248,344	114,973
192,071	-11,031	248,288	115,035
193,086	-11,106	247,966	114,813
194,100	-11,084	247,815	114,751
195,115	-10,924	247,531	114,743
196,129	-11,047	247,422	114,580
197,144	-10,948	247,170	114,535
198,159	-11,068	247,160	114,421
199,173	-11,150	246,843	114,195
200,188	-11,120	246,732	114,158
201,202	-11,294	246,318	113,812
202,217	-11,587	246,196	113,504
203,232	-11,616	245,973	113,367
204,246	-11,134	245,943	113,742
205,261	-10,519	245,740	114,145
206,275	-11,363	245,555	113,352
207,290	-6,402	247,622	118,423
208,304	1,405	250,071	126,119
209,319	4,259	250,656	128,789
210,334	4,701	250,866	129,255
211,348	4,840	250,616	129,231
212,363	5,088	250,540	129,387
213,377	5,272	250,476	129,496
214,392	5,367	250,232	129,438
215,407	4,990	250,032	129,009
216,421	5,097	249,933	129,035
217,436	5,390	249,756	129,175
218,450	5,481	249,615	129,167
219,465	5,193	249,394	128,803
220,480	4,890	249,262	128,471
221,494	4,799	248,968	128,233
222,509	4,958	248,710	128,220
223,523	4,705	248,484	127,883
224,538	4,264	248,291	127,408
225,553	4,539	248,177	127,565
226,567	4,734	248,021	127,634
227,582	4,649	248,157	127,623
228,596	4,864	247,675	127,541
229,611	4,473	247,521	127,128
230,626	4,426	247,253	126,940
231,640	4,734	247,146	127,127
232,655	4,651	247,047	126,997
233,669	4,358	246,767	126,601
234,684	4,245	246,657	126,441
235,699	4,830	246,640	126,901
236,713	4,890	246,573	126,904
237,728	4,659	246,307	126,566
238,742	4,569	246,068	126,359
239,757	4,375	245,842	126,073
240,772	4,189	245,707	125,840
241,786	4,416	245,450	125,883
242,801	4,180	245,464	125,686
243,815	4,386	245,360	125,789
244,830	4,446	245,273	125,783
245,844	4,557	245,100	125,773
246,859	4,374	244,802	125,460
247,874	4,473	244,596	125,425
248,888	4,448	244,497	125,342
249,903	4,525	244,337	125,312
250,917	4,530	244,465	125,370
251,932	4,775	244,175	125,409
252,947	4,749	243,991	125,281
253,961	4,346	243,811	124,852
254,976	4,602	243,624	124,952
255,990	5,000	243,392	125,143
257,005	4,442	243,292	124,631
258,020	4,350	243,112	124,453
259,034	4,486	242,895	124,440
260,049	4,619	242,839	124,508
261,063	4,549	242,515	124,274
262,078	4,348	242,365	124,025
263,093	4,664	242,474	124,323
264,107	4,820	242,188	124,291
265,122	4,352	242,059	123,838
266,136	4,677	241,874	123,993
267,151	4,710	241,754	123,946
268,166	4,489	241,540	123,650
269,180	4,306	241,367	123,403
270,195	4,813	241,503	123,867
271,209	5,146	241,281	124,009
272,224	4,562	241,062	123,419
273,239	3,944	240,660	122,709
274,253	4,014	240,680	122,764
275,268	4,599	240,386	123,069
276,282	4,568	240,238	122,957
277,297	4,230	239,962	122,537
278,312	4,233	239,989	122,542
279,326	4,658	239,894	122,821
280,341	4,545	239,747	122,644
281,355	4,564	239,605	122,576
282,370	4,686	239,546	122,632
283,384	4,706	239,159	122,438
284,399	4,330	239,061	122,080
285,414	4,247	238,857	121,899
286,428	4,392	238,611	121,877
287,443	4,396	238,582	121,854
288,457	4,545	238,461	121,900
289,472	4,833	238,291	122,029
290,487	4,695	238,202	121,863
291,501	4,697	237,952	121,726
292,516	4,215	237,658	121,186
293,530	4,154	237,548	121,072
294,545	4,636	237,600	121,466
295,560	4,655	237,380	121,357
296,574	4,380	237,056	120,966
297,589	4,423	237,037	120,979
298,603	4,839	236,955	121,252
299,618	4,831	236,903	121,208
300,633	4,574	236,716	120,900
301,647	4,792	236,628	121,015
302,662	5,136	236,516	121,216
303,676	5,004	236,311	120,997
304,691	4,772	236,195	120,746
305,706	4,896	236,132	120,799
306,720	4,940	235,979	120,745
307,735	4,822	235,704	120,502
308,749	4,665	235,493	120,261
309,764	4,312	235,300	119,877
310,779	4,158	235,094	119,642
311,793	4,132	234,833	119,478
312,808	4,172	234,694	119,428
313,822	3,911	234,609	119,171
314,837	3,990	234,353	119,092
315,852	4,308	234,468	119,387
316,866	4,919	234,391	119,809
317,881	4,976	234,188	119,738
318,895	4,889	234,199	119,666
319,910	5,000	233,961	119,620
320,925	4,545	233,565	119,056
321,939	4,244	233,367	118,713
322,954	4,405	233,422	118,854
323,968	4,326	233,106	118,622
324,983	4,526	233,249	118,838
325,997	4,943	233,043	119,043
327,012	4,650	232,963	118,766
328,027	4,385	232,902	118,521
329,041	4,803	232,641	118,698
330,056	5,158	232,626	118,952
331,070	5,164	232,472	118,867
332,085	5,005	232,294	118,644
333,100	4,754	231,962	118,272
334,114	4,580	231,788	118,040
335,129	4,964	231,740	118,298
336,143	4,665	231,708	118,043
337,158	4,870	231,497	118,082
338,173	4,868	231,116	117,875
339,187	4,565	230,990	117,570
340,202	4,697	230,972	117,650
341,216	4,705	230,758	117,537
342,231	4,655	230,539	117,377
343,246	4,550	230,362	117,197
344,260	4,672	230,372	117,284
345,275	4,997	230,320	117,494
346,289	4,817	230,065	117,217
347,304	4,779	230,013	117,151
348,319	4,994	229,835	117,212
349,333	4,880	229,502	116,946
350,348	4,397	229,452	116,546
351,362	4,754	229,299	116,727
352,377	4,524	229,084	116,434
353,392	4,380	228,997	116,271
354,406	4,293	228,882	116,136
355,421	195,685	1317,309	1393,149
356,435	156,974	1449,876	1393,108
