DTS Sentinel unit serial number:	SN410029Multiplexer serial number:	ORYXHardware model number:	OX2-SRSoftware version number:	ORYX F/W v4,00 Oryx Data Collector v3.7.2.0data status	okinstallation	B5 Nyhavnadifferential loss correction	single-endedforward channel	channel 2reverse channel	N/Adate	2023/12/11time	19:42:13forward acquisition time	300,00reverse acquisition time	0,00gamma	499,1914k internal	0,3159k external	0,3159temperature offset calibration	1,0000default loss term (dB/km)	0,3820temperature slope calibration	1,0000multiplexer offset coefficient	1,0000multiplexer slope coefficient	1,0000fibre end	0,00T internal ref (°C)	15,74T ext. ref 1 (°C)	0,03T ext. ref 2 (°C)	-0,20length (m)	temperature (°C)	Stokes	anti-Stokes-744,400	-109,188	0,134	-0,021
-743,385	-87,348	-0,290	0,064
-742,371	51,481	0,074	0,051
-741,356	-62,804	-0,219	0,067
-740,342	-73,148	0,112	-0,030
-739,327	-77,928	-0,375	0,095
-738,312	-57,335	0,102	0,033
-737,298	-103,827	-0,301	-0,051
-736,283	-74,162	0,081	-0,022
-735,269	-120,501	-0,303	-0,037
-734,254	11,929	0,094	0,053
-733,239	28,630	-0,307	-0,191
-732,225	-49,404	0,157	0,055
-731,210	-200,000	-0,005	0,152
-730,196	-86,354	0,137	0,031
-729,181	-54,535	-0,134	0,044
-728,167	-44,621	-0,011	-0,004
-727,152	419,859	0,044	-0,069
-726,137	-200,000	-0,005	0,039
-725,123	43,394	-0,124	-0,083
-724,108	-200,000	-0,040	-0,270
-723,094	-200,000	-0,005	-0,047
-722,079	-200,000	-0,014	-0,053
-721,064	-200,000	0,018	-0,091
-720,050	-152,722	-0,097	-0,005
-719,035	184,670	0,106	0,115
-718,021	-200,000	-0,014	-0,103
-717,006	-158,012	-0,068	0,003
-715,991	71,635	-0,093	-0,071
-714,977	-200,000	-0,001	0,093
-713,962	649,621	0,034	-0,064
-712,948	800,000	-0,046	-0,136
-711,933	535,743	-0,045	0,079
-710,918	229,707	-0,022	0,026
-709,904	-35,957	-0,132	0,052
-708,889	-200,000	-0,002	0,109
-707,875	-200,000	-0,008	0,027
-706,860	324,921	0,048	-0,067
-705,845	-161,264	0,078	-0,003
-704,831	-200,000	0,010	0,115
-703,816	-90,135	-0,102	-0,022
-702,802	-75,372	-0,159	-0,041
-701,787	800,000	-0,031	-0,098
-700,772	476,699	0,111	-0,185
-699,758	113,716	-0,061	0,054
-698,743	321,021	-0,019	0,026
-697,729	15,676	0,169	-0,097
-696,714	209,135	-0,045	-0,052
-695,699	358,571	-0,030	-0,045
-694,685	-200,000	-0,031	0,134
-693,670	800,000	-0,048	-0,104
-692,656	-200,000	-0,012	-0,081
-691,641	201,999	-0,036	-0,041
-690,627	-200,000	0,007	0,058
-689,612	-200,000	-0,000	0,078
-688,597	172,996	-0,101	0,107
-687,583	-97,988	-0,174	-0,033
-686,568	-200,000	0,002	0,074
-685,554	-139,697	-0,020	-0,002
-684,539	116,531	-0,073	0,066
-683,524	-200,000	0,017	-0,072
-682,510	-62,264	-0,099	-0,030
-681,495	-161,659	-0,055	0,002
-680,481	-179,482	0,021	-0,000
-679,466	0,290	-0,099	-0,052
-678,451	125,985	0,077	0,072
-677,437	43,471	0,082	0,055
-676,422	800,000	0,037	0,097
-675,408	-200,000	-0,030	-0,151
-674,393	296,409	0,059	-0,080
-673,378	361,032	-0,006	0,009
-672,364	-82,643	-0,066	0,016
-671,349	-23,255	-0,063	0,028
-670,335	-200,000	0,008	0,043
-669,320	-79,148	0,157	0,039
-668,305	223,125	0,039	-0,046
-667,291	-152,291	-0,041	0,002
-666,276	-70,070	-0,179	-0,050
-665,262	-200,000	0,018	-0,066
-664,247	368,239	-0,088	-0,132
-663,232	135,463	0,043	-0,041
-662,218	171,036	-0,066	0,070
-661,203	-182,652	-0,081	0,001
-660,189	-92,243	-0,108	0,022
-659,174	78,559	0,067	-0,052
-658,159	-200,000	-0,017	-0,078
-657,145	627,867	-0,102	-0,191
-656,130	237,245	-0,082	-0,100
-655,116	68,867	0,092	0,069
-654,101	-115,161	-0,155	-0,021
-653,086	96,901	0,064	-0,053
-652,072	58,455	0,040	-0,029
-651,057	-200,000	0,126	0,000
-650,043	800,000	-0,044	-0,136
-649,028	-200,000	-0,008	0,061
-648,014	210,099	-0,075	0,086
-646,999	800,000	0,009	-0,028
-645,984	-200,000	0,004	0,085
-644,970	-200,000	-0,018	-0,108
-643,955	645,004	0,124	-0,233
-642,941	-34,611	-0,073	-0,029
-641,926	204,201	0,011	-0,013
-640,911	594,771	0,013	-0,023
-639,897	-184,731	-0,084	0,001
-638,882	-28,893	-0,100	0,042
-637,868	-107,511	0,108	0,017
-636,853	-91,909	-0,116	-0,024
-635,838	-161,400	0,104	0,004
-634,824	682,018	-0,045	-0,086
-633,809	730,175	-0,043	-0,084
-632,795	-134,151	0,115	0,010
-631,780	-48,223	-0,015	-0,005
-630,765	-200,000	0,022	0,072
-629,751	-141,084	-0,128	0,009
-628,736	-20,649	0,119	0,053
-627,722	-200,000	0,025	-0,149
-626,707	-8,281	-0,027	-0,013
-625,692	260,044	0,038	0,048
-624,678	-200,000	0,008	0,146
-623,663	-80,681	0,082	0,020
-622,649	-29,484	-0,181	-0,076
-621,634	126,870	-0,027	-0,025
-620,619	-103,650	-0,152	-0,026
-619,605	-200,000	0,003	0,061
-618,590	-24,034	-0,076	0,033
-617,576	-76,305	0,081	-0,021
-616,561	712,640	-0,031	0,061
-615,546	-200,000	0,008	-0,073
-614,532	299,871	-0,021	0,029
-613,517	169,589	-0,066	-0,069
-612,503	-200,000	0,022	-0,077
-611,488	-139,856	0,159	0,012
-610,474	-200,000	0,053	0,180
-609,459	59,377	-0,064	-0,046
-608,444	181,150	-0,093	-0,100
-607,430	-200,000	0,035	-0,165
-606,415	389,655	0,042	-0,064
-605,401	-200,000	0,004	0,060
-604,386	-200,000	-0,007	-0,026
-603,371	-181,911	0,009	-0,000
-602,357	26,396	0,029	0,018
-601,342	800,000	0,007	0,021
-600,328	800,000	0,039	-0,125
-599,313	-200,000	0,012	-0,100
-598,298	-107,380	0,039	0,006
-597,284	103,514	0,045	0,039
-596,269	-200,000	-0,008	-0,175
-595,255	-145,713	0,132	0,009
-594,240	-166,311	-0,135	0,004
-593,225	315,450	-0,097	-0,135
-592,211	226,988	-0,158	-0,188
-591,196	308,282	-0,061	-0,084
-590,182	800,000	0,025	-0,059
-589,167	-182,585	0,040	0,001
-588,152	29,702	0,025	-0,015
-587,138	150,867	-0,072	-0,071
-586,123	192,379	0,091	-0,100
-585,109	-200,000	0,021	-0,118
-584,094	800,000	-0,049	-0,106
-583,079	146,311	0,109	0,107
-582,065	-11,102	-0,028	0,014
-581,050	790,264	0,010	0,019
-580,036	695,679	0,024	0,047
-579,021	800,000	-0,054	-0,155
-578,006	-158,711	-0,096	0,004
-576,992	-20,656	-0,008	-0,003
-575,977	-200,000	-0,007	-0,033
-574,963	-200,000	-0,024	0,081
-573,948	-200,000	0,006	0,085
-572,934	-200,000	0,012	0,086
-571,919	560,583	0,081	-0,144
-570,904	-89,633	0,060	0,013
-569,890	-200,000	-0,008	0,063
-568,875	47,019	0,023	-0,016
-567,861	-56,396	-0,028	0,009
-566,846	-177,620	-0,074	0,001
-565,831	-9,627	-0,042	-0,021
-564,817	-200,000	-0,008	-0,055
-563,802	106,691	0,079	-0,068
-562,788	212,481	-0,063	-0,073
-561,773	46,166	-0,049	0,033
-560,758	800,000	-0,031	0,098
-559,744	-200,000	0,019	0,066
-558,729	-71,829	-0,018	0,005
-557,715	309,773	-0,050	-0,069
-556,700	391,416	-0,024	-0,037
-555,685	357,349	0,086	0,125
-554,671	117,435	0,117	-0,105
-553,656	-200,000	0,005	-0,072
-552,642	14,021	0,071	0,040
-551,627	490,210	0,050	0,084
-550,612	-200,000	-0,009	0,075
-549,598	-152,954	0,023	0,001
-548,583	40,394	0,061	0,040
-547,569	120,124	0,058	0,053
-546,554	800,000	-0,031	-0,090
-545,539	-119,657	0,042	0,005
-544,525	39,822	-0,094	0,062
-543,510	-200,000	-0,005	0,100
-542,496	232,750	-0,041	-0,049
-541,481	306,354	0,067	0,091
-540,466	-200,000	-0,013	0,068
-539,452	800,000	-0,009	0,021
-538,437	-200,000	0,002	0,097
-537,423	-125,624	0,121	0,013
-536,408	132,418	0,123	-0,116
-535,393	-14,040	-0,081	0,038
-534,379	-114,352	0,061	-0,009
-533,364	-92,602	-0,150	-0,031
-532,350	-200,000	-0,013	0,133
-531,335	800,000	-0,033	0,081
-530,321	455,197	0,043	0,070
-529,306	-127,272	-0,016	-0,002
-528,291	-125,380	-0,197	-0,022
-527,277	103,269	-0,051	0,044
-526,262	-46,788	-0,108	-0,038
-525,248	246,832	0,100	-0,124
-524,233	-68,598	0,122	0,034
-523,218	-200,000	-0,001	-0,096
-522,204	800,000	-0,053	0,112
-521,189	800,000	-0,040	-0,115
-520,175	693,733	0,019	0,036
-519,160	-200,000	-0,010	0,037
-518,145	800,000	-0,020	0,047
-517,131	-200,000	-0,024	0,128
-516,116	-200,000	-0,000	0,121
-515,102	-139,673	-0,162	0,012
-514,087	-200,000	0,004	-0,036
-513,072	105,894	0,032	0,027
-512,058	291,975	-0,069	-0,091
-511,043	80,724	-0,029	0,023
-510,029	36,934	0,069	0,044
-509,014	176,157	-0,095	-0,100
-507,999	370,506	-0,013	0,020
-506,985	531,843	-0,029	-0,050
-505,970	-200,000	-0,008	-0,061
-504,956	800,000	-0,065	-0,133
-503,941	49,015	0,072	0,049
-502,926	-200,000	0,008	0,056
-501,912	634,189	-0,047	0,087
-500,897	-39,388	-0,096	0,037
-499,883	117,544	-0,083	-0,075
-498,868	800,000	-0,038	0,110
-497,853	-200,000	0,002	0,122
-496,839	183,425	0,059	-0,064
-495,824	36,170	0,094	0,060
-494,810	800,000	-0,023	0,062
-493,795	-8,242	-0,055	0,027
-492,781	-43,265	0,099	-0,036
-491,766	286,481	0,081	0,107
-490,751	147,765	0,039	0,039
-489,737	124,636	-0,070	0,064
-488,722	-42,873	0,194	0,071
-487,708	-200,000	-0,009	0,067
-486,693	185,644	-0,052	-0,056
-485,678	-200,000	0,008	-0,054
-484,664	183,382	-0,073	-0,079
-483,649	-200,000	-0,010	-0,097
-482,635	800,000	0,070	0,196
-481,620	298,071	-0,022	0,030
-480,605	31,078	-0,070	-0,043
-479,591	800,000	0,023	0,053
-478,576	-77,780	-0,078	-0,020
-477,562	26,824	0,074	-0,045
-476,547	101,453	-0,127	-0,108
-475,532	800,000	-0,058	0,161
-474,518	-22,986	-0,056	0,025
-473,503	-200,000	-0,039	0,140
-472,489	19,781	0,081	0,048
-471,474	800,000	0,057	-0,118
-470,459	84,319	-0,011	0,009
-469,445	-200,000	-0,004	0,028
-468,430	312,845	0,028	-0,039
-467,416	167,801	0,047	0,049
-466,401	-74,402	-0,048	0,013
-465,386	-200,000	0,015	-0,090
-464,372	-24,833	-0,069	-0,030
-463,357	-98,334	-0,093	-0,017
-462,343	-154,613	-0,161	-0,008
-461,328	-200,000	0,010	-0,081
-460,313	-27,959	0,059	0,025
-459,299	88,277	0,072	0,058
-458,284	-200,000	0,007	0,109
-457,270	35,617	0,050	0,032
-456,255	-142,628	-0,124	0,009
-455,241	143,098	-0,066	0,064
-454,226	223,054	-0,042	-0,049
-453,211	-200,000	0,029	0,105
-452,197	88,616	0,117	0,094
-451,182	105,663	0,074	0,063
-450,168	-24,296	-0,053	-0,023
-449,153	-200,000	-0,042	-0,145
-448,138	23,727	-0,034	0,020
-447,124	-189,925	-0,015	-0,000
-446,109	93,083	-0,105	-0,086
-445,095	800,000	0,024	0,049
-444,080	349,729	-0,063	0,091
-443,065	553,068	-0,029	0,050
-442,051	229,650	-0,044	0,053
-441,036	-20,133	-0,085	0,038
-440,022	211,537	0,030	-0,034
-439,007	-28,111	0,039	-0,016
-437,992	38,464	0,150	-0,097
-436,978	800,000	-0,040	0,121
-435,963	-80,912	0,066	0,016
-434,949	75,041	0,010	0,008
-433,934	-23,875	-0,093	-0,040
-432,919	800,000	-0,006	0,015
-431,905	232,647	-0,047	-0,057
-430,890	-200,000	0,002	-0,012
-429,876	-90,716	-0,020	0,004
-428,861	98,168	-0,036	-0,030
-427,846	176,479	-0,031	-0,033
-426,832	711,408	-0,052	-0,100
-425,817	-200,000	-0,005	0,060
-424,803	258,938	0,033	0,041
-423,788	329,903	-0,021	0,029
-422,773	-68,550	0,077	-0,022
-421,759	-100,719	0,072	0,013
-420,744	800,000	-0,014	0,033
-419,730	221,538	-0,030	-0,035
-418,715	-71,712	-0,200	-0,054
-417,701	-94,806	-0,060	-0,012
-416,686	-200,000	0,011	-0,139
-415,671	-68,915	-0,141	0,039
-414,657	-32,185	0,022	-0,009
-413,642	46,365	-0,041	0,027
-412,628	391,331	0,081	-0,122
-411,613	38,038	0,010	0,006
-410,598	119,600	-0,104	-0,094
-409,584	65,383	0,063	-0,046
-408,569	-200,000	0,002	-0,074
-407,555	-200,000	0,016	0,057
-406,540	167,055	0,071	-0,073
-405,525	-200,000	-0,008	0,033
-404,511	181,791	0,034	0,036
-403,496	-93,693	0,144	0,029
-402,482	-200,000	-0,001	0,020
-401,467	-105,460	0,127	0,021
-400,452	-62,678	-0,109	-0,033
-399,438	-200,000	0,017	-0,126
-398,423	800,000	-0,029	0,077
-397,409	-200,000	0,026	0,144
-396,394	188,856	-0,055	-0,060
-395,379	800,000	-0,016	-0,033
-394,365	115,651	-0,055	-0,049
-393,350	-200,000	-0,000	0,047
-392,336	118,223	-0,051	-0,046
-391,321	-56,125	-0,136	0,044
-390,306	114,979	0,082	-0,073
-389,292	-118,481	0,049	-0,006
-388,277	-200,000	-0,008	-0,079
-387,263	-200,000	0,034	0,121
-386,248	-200,000	0,014	-0,091
-385,233	800,000	0,005	0,013
-384,219	-200,000	-0,027	-0,155
-383,204	346,886	-0,073	-0,104
-382,190	8,947	0,029	-0,016
-381,175	223,569	0,029	-0,034
-380,160	-95,552	0,022	0,004
-379,146	800,000	-0,015	0,046
-378,131	413,981	0,018	0,028
-377,117	-141,268	0,046	-0,003
-376,102	-200,000	-0,013	-0,097
-375,088	-200,000	0,017	-0,062
-374,073	38,591	0,063	0,041
-373,058	226,581	0,076	-0,089
-372,044	686,931	0,071	0,135
-371,029	800,000	0,028	0,058
-370,015	682,930	0,013	0,025
-369,000	74,725	-0,077	-0,059
-367,985	514,461	-0,061	-0,104
-366,971	290,362	0,064	0,084
-365,956	83,715	0,108	0,086
-364,942	687,301	0,054	0,102
-363,927	111,858	0,030	-0,026
-362,912	614,923	0,096	0,175
-361,898	207,848	-0,042	0,047
-360,883	800,000	0,026	0,060
-359,869	-165,921	-0,064	-0,002
-358,854	-132,853	-0,078	0,007
-357,839	90,598	0,053	-0,043
-356,825	800,000	-0,061	0,129
-355,810	800,000	0,051	0,132
-354,796	12,184	-0,091	0,051
-353,781	-61,769	0,072	-0,022
-352,766	-146,952	-0,146	0,009
-351,752	-200,000	0,006	0,066
-350,737	-142,750	-0,073	0,005
-349,723	439,548	0,113	0,179
-348,708	-86,449	0,041	0,009
-347,693	800,000	0,031	-0,094
-346,679	-200,000	0,056	-0,189
-345,664	-123,865	0,021	0,002
-344,650	-17,393	-0,061	-0,028
-343,635	219,555	-0,021	0,025
-342,620	-36,696	0,114	-0,044
-341,606	160,070	0,068	0,068
-340,591	-200,000	0,001	0,061
-339,577	130,570	-0,033	0,031
-338,562	-139,183	-0,096	-0,007
-337,548	297,865	-0,021	0,028
-336,533	18,335	0,069	-0,040
-335,518	-200,000	0,011	-0,047
-334,504	-193,460	-0,128	-0,001
-333,489	615,190	-0,074	0,135
-332,475	800,000	-0,031	-0,083
-331,460	76,986	-0,082	-0,063
-330,445	97,465	0,123	-0,103
-329,431	415,156	0,087	-0,135
-328,416	800,000	-0,045	0,116
-327,402	-50,426	0,077	-0,026
-326,387	188,062	-0,048	-0,052
-325,372	162,756	-0,074	-0,075
-324,358	-200,000	-0,001	0,023
-323,343	187,043	0,118	-0,128
-322,329	800,000	-0,049	-0,112
-321,314	-3,530	0,072	0,036
-320,299	-156,899	0,030	-0,001
-319,285	-94,919	-0,051	0,010
-318,270	-200,000	-0,012	-0,042
-317,256	800,000	0,049	-0,113
-316,241	-56,748	-0,129	-0,041
-315,226	73,477	0,044	-0,034
-314,212	-200,000	-0,011	0,171
-313,197	74,425	-0,035	-0,026
-312,183	305,538	0,021	0,029
-311,168	152,174	-0,014	-0,014
-310,153	144,130	0,073	-0,071
-309,139	42,706	-0,097	-0,064
-308,124	268,085	0,047	0,060
-307,110	-200,000	0,052	0,169
-306,095	-64,010	-0,033	0,010
-305,080	-200,000	-0,008	0,255
-304,066	-34,024	-0,093	0,037
-303,051	-200,000	-0,017	0,080
-302,037	-67,623	0,055	0,015
-301,022	-52,964	-0,056	-0,019
-300,008	-136,320	0,132	0,011
-298,993	-14,076	-0,073	-0,034
-297,978	-200,000	-0,027	-0,184
-296,964	800,000	-0,022	0,063
-295,949	-17,760	0,013	0,006
-294,935	-149,851	0,101	-0,006
-293,920	-200,000	0,001	-0,071
-292,905	9,034	0,125	0,068
-291,891	1,045	-0,037	-0,019
-290,876	532,855	0,080	-0,138
-289,862	185,953	-0,090	-0,097
-288,847	50,021	0,074	0,051
-287,832	224,951	-0,070	-0,082
-286,818	-44,921	-0,094	0,034
-285,803	298,461	-0,053	0,070
-284,789	-200,000	0,015	0,093
-283,774	406,674	0,030	0,047
-282,759	800,000	0,051	0,142
-281,745	-21,461	0,117	-0,052
-280,730	800,000	-0,060	-0,138
-279,716	-200,000	0,023	-0,113
-278,701	145,717	0,078	0,076
-277,686	390,764	0,076	0,114
-276,672	138,969	-0,122	0,116
-275,657	186,128	0,026	-0,028
-274,643	483,083	-0,090	-0,148
-273,628	19,361	-0,054	0,031
-272,613	-174,287	-0,069	-0,001
-271,599	800,000	-0,026	0,082
-270,584	-146,581	0,026	0,002
-269,570	800,000	-0,052	0,151
-268,555	476,912	-0,053	0,087
-267,540	247,592	0,023	-0,029
-266,526	800,000	-0,031	-0,080
-265,511	-5,621	-0,037	-0,018
-264,497	69,758	-0,036	0,027
-263,482	-9,466	0,127	0,061
-262,467	181,693	-0,119	0,127
-261,453	-40,422	0,173	0,065
-260,438	-143,193	0,082	-0,006
-259,424	3,763	-0,111	0,059
-258,409	800,000	-0,064	-0,201
-257,395	140,658	0,078	-0,075
-256,380	170,810	0,100	0,104
-255,365	-200,000	0,014	0,050
-254,351	545,623	-0,034	0,059
-253,336	-200,000	-0,013	0,113
-252,322	800,000	-0,051	-0,119
-251,307	101,935	0,053	-0,044
-250,292	624,019	-0,015	-0,027
-249,278	-103,426	0,070	0,012
-248,263	84,264	-0,051	0,040
-247,249	-61,553	0,029	0,009
-246,234	-76,956	0,050	0,013
-245,219	800,000	0,055	-0,115
-244,205	8,555	0,113	-0,061
-243,190	61,635	-0,083	0,059
-242,176	314,849	0,057	-0,078
-241,161	391,302	0,039	-0,059
-240,146	-200,000	0,007	0,057
-239,132	333,985	0,066	0,093
-238,117	-51,388	0,144	0,048
-237,103	243,749	0,103	-0,125
-236,088	143,000	0,070	-0,068
-235,073	102,873	0,106	-0,090
-234,059	-72,135	-0,035	-0,009
-233,044	677,463	0,087	-0,165
-232,030	158,279	0,056	0,056
-231,015	-111,891	0,063	0,009
-230,000	-200,000	-0,021	0,089
-228,986	800,000	-0,026	-0,082
-227,971	-200,000	-0,004	-0,061
-226,957	-192,256	0,061	0,000
-225,942	486,626	0,064	0,106
-224,927	-88,287	0,066	0,014
-223,913	800,000	-0,033	0,103
-222,898	270,080	-0,057	0,072
-221,884	-78,469	-0,100	-0,025
-220,869	-164,609	0,208	0,007
-219,855	-200,000	-0,009	0,045
-218,840	-75,433	0,121	0,031
-217,825	-200,000	0,012	-0,040
-216,811	39,524	-0,014	-0,009
-215,796	224,319	-0,021	-0,024
-214,782	-44,490	0,008	0,003
-213,767	484,797	-0,027	0,045
-212,752	-145,164	0,064	-0,004
-211,738	800,000	0,011	0,029
-210,723	800,000	-0,031	0,095
-209,709	51,189	0,066	-0,045
-208,694	103,397	-0,011	-0,010
-207,679	68,049	-0,090	0,066
-206,665	-41,584	0,195	0,072
-205,650	-200,000	0,002	0,197
-204,636	-131,893	-0,042	-0,004
-203,621	354,771	-0,018	0,026
-202,606	22,015	-0,014	-0,008
-201,592	-143,731	-0,117	-0,008
-200,577	800,000	0,014	0,044
-199,563	-200,000	0,019	-0,207
-198,548	800,000	0,029	0,086
-197,533	-11,200	-0,101	-0,048
-196,519	-96,914	0,235	0,044
-195,504	-116,140	-0,073	-0,010
-194,490	-125,043	-0,228	0,025
-193,475	-200,000	-0,023	-0,176
-192,460	800,000	0,019	0,057
-191,446	57,410	-0,077	-0,054
-190,431	-179,088	0,248	-0,004
-189,417	-89,622	0,120	-0,025
-188,402	-123,869	0,079	-0,009
-187,387	-29,575	-0,033	0,013
-186,373	223,427	-0,060	-0,070
-185,358	331,449	-0,045	0,063
-184,344	409,487	0,038	0,059
-183,329	164,043	0,063	0,064
-182,315	301,626	0,033	0,044
-181,300	-21,678	0,032	0,014
-180,285	285,540	0,023	0,030
-179,271	800,000	-0,079	-0,198
-178,256	546,685	0,062	-0,107
-177,242	800,000	0,017	0,049
-176,227	-7,661	-0,063	-0,031
-175,212	86,180	0,068	0,054
-174,198	-85,126	0,153	0,034
-173,183	45,388	-0,070	0,046
-172,169	-28,477	-0,223	-0,092
-171,154	567,773	0,045	-0,080
-170,139	122,954	-0,011	0,010
-169,125	-200,000	-0,008	-0,043
-168,110	327,130	-0,046	0,063
-167,096	800,000	-0,049	0,141
-166,081	317,575	-0,103	-0,140
-165,066	81,947	-0,053	0,042
-164,052	284,314	0,108	-0,140
-163,037	-200,000	0,027	-0,148
-162,023	800,000	0,038	0,077
-161,008	61,736	-0,134	0,096
-159,993	559,145	-0,036	0,063
-158,979	47,291	0,115	0,077
-157,964	800,000	-0,027	0,062
-156,950	276,429	-0,072	-0,093
-155,935	-125,869	-0,098	-0,010
-154,920	8,550	-0,040	0,022
-153,906	-8,689	0,126	-0,061
-152,891	77,620	-0,033	-0,026
-151,877	141,905	0,107	0,103
-150,862	-191,189	-0,103	0,001
-149,847	-200,000	-0,010	-0,047
-148,833	43,947	-0,068	0,045
-147,818	335,185	-0,076	0,107
-146,804	-200,000	0,006	-0,041
-145,789	-164,717	-0,016	0,001
-144,775	-12,746	-0,063	-0,030
-143,760	298,399	0,095	-0,126
-142,745	-200,000	-0,014	-0,151
-141,731	-200,000	0,021	0,132
-140,716	-200,000	0,002	-0,128
-139,702	-200,000	0,004	0,112
-138,687	-40,673	-0,131	0,049
-137,672	-200,000	0,016	-0,077
-136,658	206,606	-0,031	-0,034
-135,643	132,216	0,041	-0,038
-134,629	21,918	0,104	0,061
-133,614	-200,000	-0,010	-0,113
-132,599	104,025	0,044	-0,037
-131,585	350,853	-0,008	0,011
-130,570	-40,368	0,089	0,033
-129,556	-200,000	-0,008	0,186
-128,541	-31,101	-0,041	0,017
-127,526	-100,915	-0,076	0,013
-126,512	-200,000	-0,006	0,078
-125,497	174,594	0,082	-0,086
-124,483	800,000	-0,055	0,160
-123,468	800,000	0,045	0,097
-122,453	16,887	0,192	0,109
-121,439	-200,000	-0,016	-0,151
-120,424	224,325	0,032	-0,037
-119,410	800,000	0,029	0,090
-118,395	-96,611	-0,074	-0,014
-117,380	60,809	0,096	0,068
-116,366	-121,035	0,154	-0,018
-115,351	-62,584	-0,139	0,041
-114,337	-200,000	-0,011	-0,084
-113,322	-28,790	0,026	0,011
-112,307	92,550	0,119	0,096
-111,293	11,305	0,025	-0,014
-110,278	64,773	0,043	0,031
-109,264	-200,000	0,004	-0,019
-108,249	-200,000	-0,002	-0,036
-107,234	415,388	0,053	-0,082
-106,220	800,000	0,013	0,030
-105,205	-24,004	-0,136	0,058
-104,191	-114,751	0,068	0,009
-103,176	333,356	0,113	0,157
-102,162	-200,000	-0,011	0,079
-101,147	-15,190	0,093	-0,043
-100,132	800,000	-0,027	-0,077
-99,118	3,583	0,070	-0,036
-98,103	-54,570	-0,069	-0,022
-97,089	182,042	0,044	0,047
-96,074	-200,000	-0,019	0,076
-95,059	800,000	0,037	0,105
-94,045	-200,000	0,003	-0,078
-93,030	-200,000	-0,013	-0,074
-92,016	-27,251	0,125	0,052
-91,001	22,569	0,028	-0,016
-89,986	51,317	-0,070	0,047
-88,972	-157,407	0,096	0,004
-87,957	-200,000	-0,049	-0,223
-86,943	800,000	0,030	-0,068
-85,928	473,968	0,019	0,031
-84,913	-75,512	0,108	0,027
-83,899	66,801	-0,105	-0,077
-82,884	-120,385	0,116	0,014
-81,870	-200,000	0,012	0,056
-80,855	88,543	0,089	0,071
-79,840	246,167	-0,029	-0,035
-78,826	794,748	-0,056	0,111
-77,811	-27,786	0,077	-0,032
-76,797	315,099	0,040	0,054
-75,782	-103,898	-0,007	0,001
-74,767	-108,160	-0,020	-0,003
-73,753	-200,000	-0,001	-0,087
-72,738	202,396	-0,112	-0,125
-71,724	81,015	0,037	-0,029
-70,709	183,579	0,025	-0,027
-69,694	-200,000	-0,018	-0,106
-68,680	-200,000	0,177	-0,001
-67,665	1,204	-0,029	0,015
-66,651	-93,680	0,044	0,009
-65,636	800,000	0,054	0,113
-64,622	-48,662	-0,118	-0,041
-63,607	168,380	0,098	-0,100
-62,592	-200,000	0,004	0,061
-61,578	-157,396	0,038	0,002
-60,563	-200,000	-0,003	-0,049
-59,549	-200,000	-0,022	0,107
-58,534	-10,180	-1,991	-0,945
-57,519	800,000	-0,349	-0,911
-56,505	-200,000	-1,215	-4,910
-55,490	-15,688	0,781	0,356
-54,476	800,000	5,218	12,091
-53,461	-200,000	17,363	283,185
-52,446	800,000	723,928	2219,820
-51,432	538,403	1640,215	2807,830
-50,417	111,284	1632,099	1410,591
-49,403	75,390	1286,706	972,836
-48,388	32,540	1028,443	636,113
-47,373	20,226	990,043	571,770
-46,359	18,661	978,292	559,830
-45,344	16,091	974,109	549,004
-44,330	16,245	972,855	548,782
-43,315	15,846	970,845	546,322
-42,300	15,760	969,678	545,364
-41,286	15,778	968,847	544,935
-40,271	15,754	967,746	544,214
-39,257	15,757	967,208	543,901
-38,242	15,747	966,273	543,320
-37,227	15,803	965,317	542,944
-36,213	15,726	964,582	542,258
-35,198	15,667	963,682	541,541
-34,184	15,839	962,679	541,512
-33,169	15,715	962,021	540,718
-32,154	15,745	961,014	540,227
-31,140	15,784	960,056	539,793
-30,125	15,762	959,355	539,307
-29,111	15,780	958,435	538,827
-28,096	15,803	958,020	538,647
-27,082	15,775	957,316	538,138
-26,067	15,737	956,705	537,651
-25,052	15,788	955,778	537,274
-24,038	15,782	954,887	536,732
-23,023	15,804	954,252	536,424
-22,009	15,790	953,689	536,043
-20,994	15,789	953,041	535,652
-19,979	15,803	952,622	535,440
-18,965	15,795	951,825	534,946
-17,950	15,797	951,184	534,570
-16,936	15,748	950,599	534,066
-15,921	15,707	950,052	533,605
-14,906	15,675	949,159	532,982
-13,892	15,672	948,660	532,668
-12,877	15,656	948,171	532,322
-11,863	15,640	947,347	531,787
-10,848	15,671	946,894	531,612
-9,833	15,788	946,220	531,584
-8,819	15,766	945,806	531,260
-7,804	15,673	945,110	530,554
-6,790	15,686	944,446	530,201
-5,775	15,672	943,908	529,832
-4,760	15,680	943,362	529,532
-3,746	15,716	942,379	529,071
-2,731	15,608	941,966	528,478
-1,717	15,543	941,381	527,922
-0,702	15,503	940,641	527,359
0,313	15,333	940,099	527,315
1,327	18,520	937,696	535,961
2,342	27,581	794,809	478,289
3,356	24,459	458,691	271,235
4,371	-2,764	313,509	156,565
5,386	-6,554	295,150	143,565
6,400	-8,573	289,250	138,687
7,415	-8,975	286,951	137,178
8,429	-9,137	285,210	136,175
9,444	-9,365	284,511	135,608
10,459	-9,169	283,752	135,424
11,473	-9,444	283,255	134,909
12,488	-9,098	282,479	134,861
13,502	-9,501	282,172	134,314
14,517	-9,325	281,581	134,190
15,531	-9,399	281,260	133,954
16,546	-9,398	280,833	133,739
17,561	-9,398	280,374	133,509
18,575	-9,460	280,086	133,301
19,590	-9,759	279,810	132,871
20,604	-9,466	279,380	132,934
21,619	-9,593	278,946	132,596
22,634	-9,543	278,836	132,580
23,648	-9,595	278,353	132,288
24,663	-9,506	278,119	132,250
25,677	-9,563	277,900	132,080
26,692	-9,656	277,740	131,904
27,707	-9,598	277,380	131,776
28,721	-9,607	277,141	131,643
29,736	-9,530	276,711	131,499
30,750	-9,585	276,552	131,359
31,765	-9,709	276,374	131,147
32,780	-9,451	276,044	131,222
33,794	-9,448	275,900	131,144
34,809	-9,552	275,555	130,871
35,823	-9,640	275,186	130,601
36,838	-9,559	274,968	130,562
37,853	-9,712	274,814	130,333
38,867	-9,620	274,679	130,344
39,882	-9,691	274,254	130,065
40,896	-9,638	274,046	130,004
41,911	-9,622	273,801	129,890
42,926	-9,745	273,699	129,716
43,940	-9,880	273,487	129,478
44,955	-9,639	273,154	129,534
45,969	-9,510	272,856	129,500
46,984	-9,992	272,850	129,038
47,999	-10,010	272,355	128,776
49,013	-10,051	272,030	128,572
50,028	-10,228	271,757	128,268
51,042	-10,164	271,566	128,226
52,057	-10,172	271,384	128,121
53,071	-10,278	271,212	127,930
54,086	-10,147	271,036	127,957
55,101	-10,136	270,829	127,858
56,115	-10,028	270,699	127,885
57,130	-9,393	270,602	128,412
58,144	-9,413	270,323	128,250
59,159	-9,396	270,078	128,138
60,174	-9,249	269,713	128,089
61,188	-9,390	269,777	127,979
62,203	-9,519	269,406	127,673
63,217	-9,501	269,268	127,612
64,232	-9,657	269,227	127,439
65,247	-9,499	268,743	127,343
66,261	-9,495	268,522	127,230
67,276	-9,583	268,136	126,956
68,290	-9,657	268,053	126,837
69,305	-9,845	267,779	126,525
70,320	-9,868	267,566	126,392
71,334	-9,438	267,403	126,695
72,349	-9,354	267,153	126,642
73,363	-9,336	266,971	126,560
74,378	-9,438	266,782	126,367
75,393	-9,448	266,658	126,288
76,407	-9,604	266,367	125,998
77,422	-9,615	266,221	125,908
78,436	-9,518	265,942	125,852
79,451	-9,400	265,756	125,860
80,466	-9,490	265,495	125,644
81,480	-9,450	265,148	125,504
82,495	-9,760	265,029	125,157
83,509	-9,654	264,994	125,224
84,524	-9,702	264,649	125,008
85,539	-9,732	264,371	124,838
86,553	-9,837	264,148	124,627
87,568	-9,590	264,029	124,782
88,582	-9,726	263,896	124,586
89,597	-9,692	263,574	124,453
90,611	-9,635	263,449	124,434
91,626	-9,436	263,286	124,524
92,641	-9,464	262,994	124,350
93,655	-9,480	262,962	124,309
94,670	-9,598	262,789	124,111
95,684	-9,443	262,380	124,045
96,699	-9,613	262,269	123,830
97,714	-9,717	262,175	123,682
98,728	-9,637	261,807	123,568
99,743	-9,700	261,622	123,414
100,757	-9,876	261,515	123,197
101,772	-9,652	261,148	123,211
102,787	-9,568	260,926	123,170
103,801	-9,402	260,807	123,250
104,816	-9,460	260,779	123,174
105,830	-9,454	260,688	123,126
106,845	-9,323	260,386	123,088
107,860	-9,457	260,085	122,816
108,874	-9,236	259,901	122,913
109,889	-9,448	259,687	122,614
110,903	-9,612	259,519	122,379
111,918	-9,679	259,506	122,304
112,933	-9,354	259,065	122,370
113,947	-9,376	258,908	122,266
114,962	-9,505	258,877	122,127
115,976	-9,600	258,557	121,882
116,991	-9,334	258,189	121,931
118,006	-9,497	258,215	121,789
119,020	-9,451	257,996	121,715
120,035	-9,339	257,983	121,796
121,049	-9,536	257,917	121,582
122,064	-9,427	257,614	121,523
123,079	-9,466	257,244	121,305
124,093	-9,518	257,142	121,200
125,108	-9,876	257,088	120,852
126,122	-9,663	256,580	120,788
127,137	-9,835	256,461	120,571
128,151	-9,790	256,411	120,576
129,166	-9,712	256,182	120,525
130,181	-9,784	256,025	120,378
131,195	-9,540	255,649	120,402
132,210	-9,527	255,599	120,379
133,224	-9,298	255,491	120,515
134,239	-9,482	255,367	120,287
135,254	-9,643	255,138	120,030
136,268	-9,502	254,875	120,016
137,283	-9,886	254,544	119,519
138,297	-9,922	254,312	119,369
139,312	-9,906	254,043	119,246
140,327	-9,503	253,948	119,536
141,341	-9,372	253,949	119,639
142,356	-9,195	253,805	119,712
143,370	-9,328	253,559	119,472
144,385	-9,076	253,494	119,646
145,400	-9,292	253,271	119,345
146,414	-9,202	253,056	119,310
147,429	-9,257	252,714	119,091
148,443	-9,166	252,633	119,120
149,458	-9,094	252,383	119,053
150,473	-9,248	252,306	118,875
151,487	-9,448	252,054	118,575
152,502	-9,241	251,926	118,680
153,516	-9,398	251,851	118,501
154,531	-9,263	251,608	118,491
155,546	-9,370	251,397	118,290
156,560	-9,390	251,335	118,233
157,575	-9,655	251,024	117,853
158,589	-9,499	250,900	117,916
159,604	-9,230	250,548	117,967
160,619	-9,184	250,475	117,961
161,633	-9,243	250,265	117,802
162,648	-9,446	250,323	117,648
163,662	-9,261	249,966	117,625
164,677	-9,292	249,835	117,527
165,692	-9,064	249,609	117,601
166,706	-9,272	249,642	117,432
167,721	-9,201	249,428	117,381
168,735	-9,346	249,277	117,177
169,750	-9,174	249,069	117,213
170,764	-9,160	248,906	117,138
171,779	-8,885	248,619	117,223
172,794	-8,996	248,558	117,090
173,808	-9,229	248,320	116,772
174,823	-9,615	247,906	116,245
175,837	-9,729	247,862	116,119
176,852	-9,420	247,881	116,376
177,867	-9,312	247,824	116,429
178,881	-9,249	247,547	116,341
179,896	-8,971	247,378	116,482
180,910	-9,073	247,238	116,321
181,925	-9,018	246,893	116,195
182,940	-9,250	246,824	115,959
183,954	-9,108	246,868	116,087
184,969	-9,182	246,496	115,840
185,983	-9,216	246,481	115,795
186,998	-9,053	246,155	115,766
188,013	-9,071	245,976	115,657
189,027	-9,058	245,858	115,602
190,042	-9,149	245,718	115,451
191,056	-9,243	245,578	115,297
192,071	-9,023	245,342	115,358
193,086	-8,949	245,195	115,339
194,100	-9,112	245,131	115,164
195,115	-9,048	244,891	115,094
196,129	-9,053	244,707	114,993
197,144	-9,040	244,437	114,866
198,159	-9,089	244,157	114,685
199,173	-9,203	244,069	114,539
200,188	-9,108	243,846	114,502
201,202	-9,489	243,654	114,090
202,217	-9,912	243,426	113,627
203,232	-9,847	243,226	113,576
204,246	-9,236	243,267	114,085
205,261	-8,700	243,124	114,446
206,275	-9,227	242,899	113,900
207,290	-6,757	243,699	116,286
208,304	-1,652	245,333	121,253
209,319	0,986	246,000	123,742
210,334	1,592	246,105	124,282
211,348	1,708	246,047	124,338
212,363	2,039	245,967	124,557
213,377	2,323	245,941	124,766
214,392	2,234	245,781	124,601
215,407	2,169	245,566	124,427
216,421	2,100	245,288	124,219
217,436	2,356	245,348	124,448
218,450	2,468	244,992	124,348
219,465	2,385	244,823	124,184
220,480	2,310	244,568	123,982
221,494	2,375	244,507	123,993
222,509	2,317	244,581	123,972
223,523	2,260	244,270	123,757
224,538	1,879	244,010	123,304
225,553	1,805	243,782	123,118
226,567	1,998	243,737	123,241
227,582	2,222	243,782	123,435
228,596	2,290	243,498	123,335
229,611	1,744	243,327	122,794
230,626	1,868	243,048	122,743
231,640	2,142	242,843	122,850
232,655	2,162	242,754	122,810
233,669	2,054	242,584	122,627
234,684	2,104	242,386	122,555
235,699	2,384	242,422	122,789
236,713	2,495	242,286	122,799
237,728	2,262	241,907	122,408
238,742	2,094	241,810	122,213
239,757	2,046	241,592	122,053
240,772	1,885	241,539	121,886
241,786	1,994	241,291	121,838
242,801	1,761	241,157	121,572
243,815	1,635	240,913	121,337
244,830	1,776	240,950	121,458
245,844	2,221	240,694	121,675
246,859	2,079	240,587	121,496
247,874	2,123	240,244	121,348
248,888	2,037	240,164	121,227
249,903	2,054	240,192	121,244
250,917	2,341	239,977	121,354
251,932	2,617	239,673	121,409
252,947	2,109	239,582	120,948
253,961	1,766	239,421	120,582
254,976	2,132	239,306	120,805
255,990	2,170	239,239	120,791
257,005	2,027	238,971	120,531
258,020	1,720	238,787	120,183
259,034	1,880	238,637	120,224
260,049	2,053	238,684	120,374
261,063	1,774	238,248	119,923
262,078	1,914	238,204	120,001
263,093	2,038	238,059	120,015
264,107	2,142	237,917	120,015
265,122	2,177	237,686	119,916
266,136	2,389	237,539	119,998
267,151	2,413	237,519	119,996
268,166	2,139	237,236	119,627
269,180	1,915	237,024	119,333
270,195	2,414	237,130	119,768
271,209	2,495	237,051	119,781
272,224	2,037	236,764	119,266
273,239	1,609	236,499	118,786
274,253	2,160	236,164	119,039
275,268	2,314	236,305	119,220
276,282	2,253	236,005	119,010
277,297	1,924	235,813	118,645
278,312	2,002	235,705	118,642
279,326	2,106	235,607	118,663
280,341	2,138	235,591	118,670
281,355	2,314	235,336	118,667
282,370	2,295	235,303	118,625
283,384	2,263	235,147	118,511
284,399	2,126	234,858	118,248
285,414	1,862	234,608	117,906
286,428	1,770	234,630	117,836
287,443	2,114	234,375	117,964
288,457	2,345	234,452	118,173
289,472	2,419	234,150	118,067
290,487	2,250	233,933	117,816
291,501	1,827	233,825	117,423
292,516	1,602	233,636	117,143
293,530	1,519	233,480	116,991
294,545	1,834	233,507	117,237
295,560	2,111	233,254	117,314
296,574	1,694	233,034	116,871
297,589	1,726	232,902	116,819
298,603	1,912	232,888	116,945
299,618	2,268	232,689	117,109
300,633	2,463	232,530	117,169
301,647	2,628	232,375	117,207
302,662	2,771	232,323	117,281
303,676	2,554	232,321	117,102
304,691	2,432	232,030	116,851
305,706	2,368	231,922	116,738
306,720	2,356	231,725	116,619
307,735	2,374	231,477	116,497
308,749	2,318	231,360	116,385
309,764	2,108	231,180	116,124
310,779	1,985	230,836	115,846
311,793	1,796	230,712	115,629
312,808	1,847	230,622	115,613
313,822	1,771	230,347	115,406
314,837	1,913	230,343	115,502
315,852	1,766	230,264	115,340
316,866	1,805	230,137	115,296
317,881	2,326	230,049	115,638
318,895	2,710	229,960	115,876
319,910	2,618	229,854	115,742
320,925	2,496	229,601	115,511
321,939	2,342	229,387	115,277
322,954	2,332	229,387	115,259
323,968	2,396	229,217	115,212
324,983	2,504	229,118	115,233
325,997	2,469	228,876	115,075
327,012	2,253	228,871	114,899
328,027	1,953	228,554	114,503
329,041	2,056	228,475	114,531
330,056	2,746	228,395	115,001
331,070	3,098	228,402	115,260
332,085	2,709	228,167	114,838
333,100	2,522	227,868	114,536
334,114	2,511	227,678	114,423
335,129	2,543	227,541	114,368
336,143	2,471	227,467	114,267
337,158	2,605	227,377	114,311
338,173	2,662	227,195	114,253
339,187	2,484	226,911	113,966
340,202	2,616	226,866	114,032
341,216	2,544	226,726	113,898
342,231	2,333	226,636	113,684
343,246	2,322	226,516	113,606
344,260	2,550	226,264	113,639
345,275	2,695	226,384	113,798
346,289	2,788	226,077	113,703
347,304	2,653	226,022	113,564
348,319	2,663	225,775	113,437
349,333	2,409	225,732	113,217
350,348	2,323	225,333	112,942
351,362	2,163	225,330	112,812
352,377	2,201	225,119	112,725
353,392	2,203	225,001	112,657
354,406	2,362	224,888	112,708
355,421	196,407	1319,586	1398,202
356,435	157,447	1452,958	1398,207
