DTS Sentinel unit serial number:	SN410029Multiplexer serial number:	ORYXHardware model number:	OX2-SRSoftware version number:	ORYX F/W v4,00 Oryx Data Collector v3.7.2.0data status	okinstallation	B5 Nyhavnadifferential loss correction	single-endedforward channel	channel 2reverse channel	N/Adate	2023/12/13time	03:37:13forward acquisition time	300,00reverse acquisition time	0,00gamma	499,1914k internal	0,3160k external	0,3160temperature offset calibration	1,0000default loss term (dB/km)	0,3820temperature slope calibration	1,0000multiplexer offset coefficient	1,0000multiplexer slope coefficient	1,0000fibre end	0,00T internal ref (°C)	13,95T ext. ref 1 (°C)	-2,44T ext. ref 2 (°C)	-2,75length (m)	temperature (°C)	Stokes	anti-Stokes-744,400	68,903	0,041	-0,031
-743,385	-107,976	-0,337	0,053
-742,371	-200,000	-0,005	0,057
-741,356	-89,523	-0,225	-0,048
-740,342	486,076	0,105	0,177
-739,327	-75,372	-0,288	0,075
-738,312	-43,266	0,081	-0,030
-737,298	-135,058	-0,453	-0,040
-736,283	-31,395	0,088	0,036
-735,269	-200,000	-0,310	0,000
-734,254	-200,000	0,029	0,098
-733,239	-67,152	-0,496	-0,143
-732,225	285,624	0,115	0,153
-731,210	36,018	0,103	0,067
-730,196	-130,850	-0,078	-0,008
-729,181	-200,000	-0,005	-0,037
-728,167	494,505	-0,038	0,065
-727,152	-117,390	0,144	0,019
-726,137	-24,006	-0,134	-0,059
-725,123	315,390	-0,081	-0,113
-724,108	403,866	-0,077	-0,120
-723,094	-105,492	-0,079	-0,013
-722,079	-200,000	-0,025	-0,154
-721,064	800,000	-0,011	0,028
-720,050	92,942	-0,065	0,054
-719,035	37,752	0,090	0,059
-718,021	-120,971	0,100	-0,012
-717,006	-200,000	-0,008	0,031
-715,991	-200,000	-0,033	0,122
-714,977	800,000	0,007	-0,020
-713,962	215,637	0,024	-0,028
-712,948	-200,000	0,019	0,081
-711,933	265,212	0,028	-0,036
-710,918	216,333	-0,039	0,046
-709,904	-151,492	-0,120	0,006
-708,889	800,000	0,047	-0,106
-707,875	-200,000	0,037	-0,185
-706,860	396,062	0,081	-0,125
-705,845	-3,784	0,069	0,035
-704,831	160,774	0,051	-0,053
-703,816	800,000	0,041	0,101
-702,802	141,434	-0,085	-0,082
-701,787	-0,950	-0,129	-0,067
-700,772	165,331	-0,074	0,077
-699,758	-150,625	-0,048	0,003
-698,743	175,859	-0,091	-0,098
-697,729	-67,079	0,071	0,021
-696,714	192,985	-0,011	-0,013
-695,699	800,000	0,060	-0,161
-694,685	305,565	0,070	-0,096
-693,670	578,004	-0,018	-0,032
-692,656	622,003	0,047	0,087
-691,641	238,919	0,083	-0,102
-690,627	24,986	0,092	-0,056
-689,612	303,582	0,016	0,021
-688,597	-200,000	-0,004	0,051
-687,583	-38,221	-0,122	0,047
-686,568	-200,000	-0,007	0,112
-685,554	-200,000	0,019	-0,154
-684,539	47,206	0,103	0,070
-683,524	-6,146	-0,038	0,019
-682,510	-31,839	0,093	-0,038
-681,495	-200,000	-0,038	0,155
-680,481	-200,000	-0,023	0,098
-679,466	71,101	0,087	-0,066
-678,451	-200,000	-0,008	0,052
-677,437	-91,232	-0,201	0,042
-676,422	536,415	0,025	0,044
-675,408	800,000	0,037	0,105
-674,393	363,743	-0,054	0,080
-673,378	-155,885	-0,053	0,002
-672,364	-200,000	0,018	-0,177
-671,349	-36,552	0,049	-0,019
-670,335	-200,000	-0,026	-0,113
-669,320	-136,811	-0,131	0,011
-668,305	102,734	-0,034	0,029
-667,291	-200,000	0,002	0,008
-666,276	-200,000	-0,003	-0,181
-665,262	-200,000	0,000	0,003
-664,247	92,123	-0,096	0,080
-663,232	130,250	-0,015	0,014
-662,218	21,233	0,085	-0,051
-661,203	8,243	-0,076	0,042
-660,189	137,518	0,098	0,095
-659,174	-5,328	0,070	-0,035
-658,159	-200,000	-0,001	-0,106
-657,145	3,704	-0,125	0,067
-656,130	29,797	-0,093	-0,058
-655,116	290,203	-0,019	0,025
-654,101	800,000	0,016	-0,042
-653,086	-115,727	0,085	0,012
-652,072	-200,000	-0,008	0,028
-651,057	-55,111	0,028	-0,009
-650,043	61,778	0,048	-0,035
-649,028	-112,087	-0,070	-0,010
-648,014	-108,312	0,120	-0,019
-646,999	296,832	0,033	0,045
-645,984	-21,633	0,032	-0,014
-644,970	23,569	-0,129	-0,077
-643,955	-25,687	0,102	0,044
-642,941	-200,000	0,002	-0,069
-641,926	115,020	0,067	-0,060
-640,911	-80,971	0,159	-0,038
-639,897	-178,176	0,119	-0,002
-638,882	-156,463	0,061	-0,003
-637,868	-4,734	-0,139	-0,070
-636,853	542,082	-0,082	0,145
-635,838	-177,260	0,075	0,001
-634,824	162,614	-0,081	0,084
-633,809	288,932	0,022	-0,030
-632,795	800,000	0,010	0,031
-631,780	-178,176	-0,060	0,001
-630,765	800,000	0,070	-0,173
-629,751	297,569	0,054	0,073
-628,736	296,414	-0,021	-0,028
-627,722	-47,526	-0,081	-0,029
-626,707	4,274	0,090	0,048
-625,692	-200,000	0,038	0,161
-624,678	37,378	-0,024	0,016
-623,663	778,565	-0,054	-0,109
-622,649	-22,703	0,032	-0,014
-621,634	755,825	-0,045	-0,089
-620,619	-200,000	-0,010	-0,097
-619,605	-20,140	-0,010	-0,005
-618,590	-200,000	-0,007	-0,040
-617,576	15,361	0,040	-0,023
-616,561	-200,000	-0,000	-0,018
-615,546	-0,752	-0,060	0,031
-614,532	-59,253	-0,046	0,015
-613,517	-200,000	0,010	-0,092
-612,503	-32,646	0,035	-0,014
-611,488	-200,000	-0,026	0,144
-610,474	-164,649	0,028	-0,001
-609,459	-200,000	-0,010	0,078
-608,444	800,000	-0,017	-0,049
-607,430	117,193	-0,137	-0,124
-606,415	-200,000	-0,040	-0,137
-605,401	-63,628	0,031	-0,009
-604,386	800,000	-0,025	-0,054
-603,371	5,134	0,187	-0,100
-602,357	800,000	0,073	0,162
-601,342	-7,649	0,089	0,044
-600,328	-200,000	0,028	-0,121
-599,313	-200,000	0,007	-0,088
-598,298	800,000	-0,051	-0,106
-597,284	92,763	0,207	-0,171
-596,269	-200,000	0,022	0,000
-595,255	-122,279	0,063	-0,007
-594,240	-200,000	0,000	0,017
-593,225	800,000	0,016	-0,047
-592,211	139,948	0,085	-0,082
-591,196	-66,859	-0,113	-0,033
-590,182	245,019	-0,043	-0,053
-589,167	36,078	0,093	-0,060
-588,152	800,000	0,009	0,028
-587,138	-52,728	-0,078	0,026
-586,123	-200,000	-0,016	0,121
-585,109	-200,000	0,006	-0,156
-584,094	800,000	-0,061	0,139
-583,079	800,000	0,020	-0,056
-582,065	800,000	-0,023	0,050
-581,050	-113,200	-0,071	0,010
-580,036	44,920	-0,024	-0,016
-579,021	118,736	-0,060	-0,054
-578,006	-129,903	-0,057	-0,006
-576,992	27,596	-0,028	-0,017
-575,977	-200,000	0,006	0,182
-574,963	762,343	0,057	0,113
-573,948	-153,817	-0,163	0,008
-572,934	197,845	0,069	0,078
-571,919	93,043	-0,081	-0,067
-570,904	114,880	-0,021	0,019
-569,890	-200,000	0,012	-0,093
-568,875	122,701	-0,018	0,017
-567,861	800,000	0,063	-0,130
-566,846	-63,344	0,080	-0,024
-565,831	165,605	0,031	-0,032
-564,817	-200,000	0,027	-0,129
-563,802	-200,000	0,000	-0,052
-562,788	109,923	-0,102	-0,090
-561,773	-138,618	-0,079	0,006
-560,758	-200,000	-0,002	-0,077
-559,744	-132,648	-0,072	-0,007
-558,729	-200,000	0,026	0,085
-557,715	-70,436	-0,107	0,030
-556,700	-109,516	-0,052	-0,008
-555,685	800,000	-0,046	0,110
-554,671	-149,106	0,102	-0,006
-553,656	49,305	-0,085	-0,058
-552,642	-200,000	0,029	0,186
-551,627	-200,000	-0,002	0,070
-550,612	-105,759	0,137	0,022
-549,598	-123,380	0,050	-0,006
-548,583	1,018	-0,147	0,077
-547,569	13,548	-0,146	0,083
-546,554	-200,000	0,003	-0,071
-545,539	-112,114	0,078	-0,011
-544,525	77,650	-0,106	0,082
-543,510	114,446	0,048	0,043
-542,496	-200,000	0,017	-0,064
-541,481	-200,000	-0,019	-0,113
-540,466	-193,425	0,112	0,001
-539,452	4,450	0,156	-0,084
-538,437	-54,543	0,053	-0,017
-537,423	-84,865	-0,029	0,007
-536,408	192,940	-0,109	-0,121
-535,393	-200,000	0,024	-0,158
-534,379	-45,439	-0,107	-0,039
-533,364	800,000	0,022	0,046
-532,350	800,000	-0,049	0,111
-531,335	27,474	0,081	0,050
-530,321	43,985	-0,093	0,062
-529,306	-200,000	0,018	0,084
-528,291	-200,000	-0,001	0,117
-527,277	371,187	-0,053	0,078
-526,262	-137,475	-0,156	-0,013
-525,248	-7,718	0,075	-0,037
-524,233	-200,000	0,011	0,047
-523,218	-200,000	0,011	0,055
-522,204	-15,635	-0,068	0,031
-521,189	-26,669	-0,127	-0,054
-520,175	800,000	0,015	-0,038
-519,160	-82,242	-0,061	0,014
-518,145	800,000	-0,016	0,048
-517,131	242,468	0,025	-0,031
-516,116	-137,522	-0,089	-0,007
-515,102	-200,000	-0,014	-0,155
-514,087	-102,321	-0,016	-0,003
-513,072	-91,765	-0,106	0,022
-512,058	-113,622	-0,123	-0,017
-511,043	-113,996	0,102	0,014
-510,029	800,000	0,030	0,082
-509,014	-200,000	0,029	0,103
-507,999	-200,000	-0,009	0,057
-506,985	-200,000	-0,012	0,048
-505,970	800,000	0,043	-0,094
-504,956	-119,362	-0,148	-0,019
-503,941	-104,828	-0,088	-0,015
-502,926	472,974	0,045	0,075
-501,912	800,000	-0,034	0,105
-500,897	434,849	-0,061	-0,098
-499,883	-33,022	0,094	0,038
-498,868	-200,000	0,025	0,111
-497,853	800,000	0,029	-0,078
-496,839	170,831	0,030	-0,032
-495,824	-200,000	-0,016	0,079
-494,810	-200,000	0,000	-0,036
-493,795	-200,000	0,017	0,065
-492,781	131,205	0,095	-0,089
-491,766	-141,556	0,017	-0,001
-490,751	800,000	-0,050	-0,114
-489,737	-82,771	-0,141	-0,033
-488,722	-78,426	0,090	0,022
-487,708	11,536	-0,185	-0,103
-486,693	109,958	0,089	0,078
-485,678	-118,234	-0,093	0,012
-484,664	800,000	-0,028	0,085
-483,649	-84,464	0,029	-0,007
-482,635	800,000	-0,065	-0,148
-481,620	-200,000	0,012	0,108
-480,605	-118,560	-0,072	0,009
-479,591	10,755	-0,134	0,074
-478,576	-4,404	-0,115	0,058
-477,562	800,000	-0,024	-0,056
-476,547	-46,276	-0,204	-0,073
-475,532	-48,794	0,111	0,038
-474,518	469,077	-0,026	0,043
-473,503	800,000	0,039	0,111
-472,489	-35,874	0,118	-0,046
-471,474	-29,829	-0,074	-0,030
-470,459	-200,000	0,014	0,066
-469,445	-200,000	0,011	-0,183
-468,430	800,000	0,041	-0,114
-467,416	-17,925	0,110	-0,050
-466,401	-200,000	0,008	-0,048
-465,386	224,640	0,014	0,017
-464,372	800,000	-0,057	0,153
-463,357	132,690	-0,066	-0,062
-462,343	800,000	0,041	-0,122
-461,328	90,215	-0,073	-0,060
-460,313	14,857	0,084	0,048
-459,299	-200,000	0,027	0,096
-458,284	223,131	0,097	0,115
-457,270	-75,827	0,108	-0,028
-456,255	12,598	-0,058	0,033
-455,241	-200,000	0,003	-0,020
-454,226	-200,000	-0,017	-0,077
-453,211	-200,000	0,001	0,016
-452,197	-87,431	0,207	0,045
-451,182	-200,000	-0,032	-0,144
-450,168	-191,901	0,117	0,001
-449,153	10,414	-0,078	0,043
-448,138	36,674	-0,091	-0,058
-447,124	148,005	0,061	-0,060
-446,109	-14,968	-0,119	0,055
-445,095	-124,102	-0,064	0,007
-444,080	-152,770	0,099	-0,005
-443,065	-140,314	-0,108	0,008
-442,051	-71,048	-0,047	-0,013
-441,036	198,082	-0,016	-0,018
-440,022	-200,000	-0,002	-0,039
-439,007	800,000	0,031	-0,078
-437,992	-200,000	0,008	-0,048
-436,978	-98,151	0,076	-0,014
-435,963	-43,045	0,031	0,011
-434,949	106,483	-0,025	0,021
-433,934	95,164	0,125	-0,104
-432,919	800,000	0,032	-0,083
-431,905	-200,000	-0,001	-0,027
-430,890	-200,000	0,019	-0,066
-429,876	800,000	0,043	-0,134
-428,861	-200,000	0,011	0,064
-427,846	-200,000	0,001	-0,072
-426,832	119,946	0,056	0,051
-425,817	800,000	-0,029	0,059
-424,803	61,316	-0,075	-0,054
-423,788	407,470	0,030	0,047
-422,773	-200,000	-0,014	0,047
-421,759	-11,509	-0,064	0,031
-420,744	57,394	0,146	-0,104
-419,730	61,400	0,059	0,042
-418,715	-200,000	-0,016	0,052
-417,701	-105,632	-0,122	-0,020
-416,686	-200,000	0,019	0,130
-415,671	363,044	0,056	0,082
-414,657	-200,000	-0,017	-0,112
-413,642	276,976	-0,020	0,025
-412,628	-200,000	-0,007	-0,126
-411,613	-200,000	0,000	-0,140
-410,598	-200,000	-0,032	-0,196
-409,584	-200,000	0,004	0,111
-408,569	62,679	0,072	-0,052
-407,555	-72,288	0,021	0,006
-406,540	-200,000	-0,007	0,028
-405,525	-200,000	0,001	0,095
-404,511	-4,952	-0,060	0,030
-403,496	58,169	0,057	-0,040
-402,482	800,000	0,042	0,101
-401,467	166,664	0,089	0,092
-400,452	384,334	0,066	0,099
-399,438	-110,459	0,071	0,011
-398,423	60,436	-0,080	0,057
-397,409	147,858	0,038	-0,037
-396,394	72,526	0,010	-0,007
-395,379	144,823	-0,032	-0,031
-394,365	-46,877	0,039	-0,014
-393,350	-46,930	0,060	-0,021
-392,336	-200,000	0,064	0,214
-391,321	800,000	-0,030	-0,079
-390,306	195,801	-0,096	-0,106
-389,292	-200,000	-0,023	-0,084
-388,277	152,455	-0,066	0,065
-387,263	-91,069	-0,031	0,006
-386,248	308,063	-0,051	0,069
-385,233	-108,271	0,075	-0,012
-384,219	800,000	0,015	-0,035
-383,204	-163,548	-0,133	-0,004
-382,190	-18,186	0,042	-0,019
-381,175	18,102	-0,115	0,066
-380,160	-15,063	0,098	-0,045
-379,146	28,101	0,088	-0,054
-378,131	229,211	0,064	-0,076
-377,117	58,024	-0,071	-0,050
-376,102	376,517	-0,037	-0,056
-375,088	223,963	0,062	0,073
-374,073	800,000	0,010	-0,027
-373,058	91,108	0,032	0,026
-372,044	-71,711	0,029	0,008
-371,029	-163,013	-0,067	0,002
-370,015	-17,607	-0,121	-0,055
-369,000	-200,000	-0,030	-0,132
-367,985	320,956	0,038	-0,053
-366,971	113,106	0,038	0,033
-365,956	598,211	0,054	0,098
-364,942	-200,000	-0,004	0,092
-363,927	800,000	-0,044	0,142
-362,912	-8,267	0,034	0,017
-361,898	-86,565	0,074	-0,016
-360,883	356,127	-0,074	-0,108
-359,869	-200,000	-0,017	-0,084
-358,854	-200,000	-0,016	-0,121
-357,839	-40,781	-0,077	0,029
-356,825	-200,000	0,029	0,156
-355,810	80,241	0,059	-0,046
-354,796	571,043	-0,054	-0,096
-353,781	-200,000	0,003	-0,040
-352,766	108,012	0,082	0,071
-351,752	-200,000	0,034	0,212
-350,737	130,666	0,112	0,104
-349,723	153,548	0,013	-0,013
-348,708	-16,845	0,047	-0,021
-347,693	569,829	0,017	-0,029
-346,679	100,852	-0,090	-0,076
-345,664	800,000	0,022	-0,058
-344,650	-200,000	0,002	0,060
-343,635	420,752	0,033	0,052
-342,620	748,639	-0,027	0,054
-341,606	404,862	-0,063	0,097
-340,591	-86,978	0,078	0,017
-339,577	86,152	-0,019	-0,015
-338,562	-69,046	0,100	-0,028
-337,548	-70,409	0,041	-0,011
-336,533	55,339	-0,218	-0,153
-335,518	-34,893	0,028	0,011
-334,504	268,411	0,004	0,005
-333,489	-200,000	-0,015	-0,088
-332,475	-5,715	-0,052	-0,026
-331,460	216,135	0,043	0,049
-330,445	-81,754	-0,057	0,013
-329,431	171,821	0,076	0,080
-328,416	800,000	-0,034	0,083
-327,402	-42,064	-0,055	0,020
-326,387	800,000	0,085	-0,179
-325,372	-63,908	-0,112	-0,033
-324,358	382,898	0,022	-0,033
-323,343	58,454	0,096	-0,068
-322,329	-200,000	0,025	0,087
-321,314	-106,743	0,043	-0,007
-320,299	-200,000	0,005	0,078
-319,285	280,295	-0,059	-0,076
-318,270	22,889	-0,046	0,027
-317,256	284,758	-0,022	0,029
-316,241	130,626	0,097	-0,091
-315,226	-200,000	-0,027	0,122
-314,212	189,880	-0,040	0,044
-313,197	-130,779	0,150	0,014
-312,183	-200,000	0,011	0,071
-311,168	-200,000	0,021	-0,078
-310,153	800,000	-0,053	-0,150
-309,139	-200,000	0,008	-0,106
-308,124	-5,338	0,057	0,028
-307,110	142,661	0,118	-0,114
-306,095	-200,000	-0,023	0,089
-305,080	-200,000	0,006	0,091
-304,066	479,391	0,102	0,169
-303,051	-200,000	0,009	-0,099
-302,037	800,000	-0,015	-0,044
-301,022	-181,416	-0,120	0,002
-300,008	-200,000	-0,002	-0,053
-298,993	-9,873	0,141	-0,068
-297,978	-50,506	-0,102	0,035
-296,964	800,000	0,076	-0,190
-295,949	-200,000	0,020	-0,085
-294,935	-200,000	-0,019	-0,140
-293,920	-200,000	-0,009	-0,092
-292,905	380,658	0,074	0,110
-291,891	14,466	0,124	-0,070
-290,876	-124,318	-0,083	-0,009
-289,862	-46,340	-0,103	-0,037
-288,847	1,671	-0,025	0,013
-287,832	800,000	0,010	-0,033
-286,818	-200,000	0,010	-0,172
-285,803	-4,161	0,035	0,018
-284,789	132,687	0,091	0,085
-283,774	-3,962	-0,075	-0,038
-282,759	-52,114	-0,069	-0,023
-281,745	-131,107	0,078	0,007
-280,730	58,977	0,009	-0,007
-279,716	800,000	-0,031	-0,071
-278,701	-80,307	-0,060	0,014
-277,686	198,541	-0,086	-0,096
-276,672	-200,000	-0,073	0,239
-275,657	147,490	-0,040	-0,039
-274,643	800,000	-0,046	-0,093
-273,628	83,053	0,017	0,013
-272,613	43,595	-0,091	-0,060
-271,599	-166,305	0,110	0,003
-270,584	-47,800	0,046	-0,016
-269,570	271,358	0,073	0,093
-268,555	-112,754	-0,048	-0,007
-267,540	-200,000	0,004	-0,107
-266,526	577,624	-0,030	0,053
-265,511	139,605	-0,110	-0,105
-264,497	-28,586	0,165	0,068
-263,482	137,024	0,023	-0,022
-262,467	-200,000	-0,004	0,246
-261,453	-200,000	0,016	-0,063
-260,438	-115,584	-0,065	0,009
-259,424	368,857	-0,023	-0,034
-258,409	591,380	0,050	0,090
-257,395	109,163	-0,020	-0,017
-256,380	-200,000	-0,020	0,176
-255,365	112,900	-0,091	0,079
-254,351	-200,000	0,001	-0,033
-253,336	94,230	0,095	0,078
-252,322	-200,000	0,001	-0,071
-251,307	-20,376	0,014	-0,006
-250,292	379,494	-0,067	0,099
-249,278	-25,496	0,128	-0,054
-248,263	-3,702	-0,074	-0,037
-247,249	800,000	0,051	0,114
-246,234	186,422	-0,082	0,089
-245,219	502,035	-0,040	0,067
-244,205	-200,000	-0,011	-0,107
-243,190	504,023	0,043	0,073
-242,176	-200,000	0,010	0,171
-241,161	349,837	-0,013	-0,018
-240,146	274,147	-0,066	0,084
-239,132	-133,855	-0,069	-0,006
-238,117	77,800	0,016	0,013
-237,103	193,195	-0,060	0,065
-236,088	280,668	-0,010	-0,013
-235,073	-23,223	0,131	0,057
-234,059	800,000	0,070	0,166
-233,044	-200,000	0,013	0,064
-232,030	618,234	-0,051	0,093
-231,015	-102,563	0,050	-0,008
-230,000	-200,000	0,006	0,023
-228,986	-150,178	0,074	-0,004
-227,971	800,000	0,039	0,097
-226,957	-25,245	0,134	-0,057
-225,942	-200,000	-0,022	0,093
-224,927	232,374	-0,060	0,072
-223,913	29,708	0,070	0,043
-222,898	316,810	-0,031	0,042
-221,884	-200,000	-0,024	-0,146
-220,869	152,973	-0,064	0,063
-219,855	800,000	-0,035	-0,071
-218,840	116,926	0,082	0,072
-217,825	118,086	-0,094	0,084
-216,811	15,444	-0,057	-0,032
-215,796	-93,386	-0,024	0,005
-214,782	162,086	0,082	-0,083
-213,767	800,000	-0,069	0,153
-212,752	-11,816	0,069	-0,033
-211,738	-200,000	-0,011	-0,153
-210,723	-200,000	-0,011	0,150
-209,709	42,128	0,193	0,126
-208,694	240,929	0,029	-0,035
-207,679	-200,000	0,043	-0,174
-206,665	-200,000	0,015	0,061
-205,650	24,962	0,108	0,064
-204,636	457,684	0,073	-0,117
-203,621	-3,489	-0,009	0,005
-202,606	12,722	-0,224	0,124
-201,592	92,916	-0,169	-0,138
-200,577	-11,119	0,183	-0,087
-199,563	-200,000	-0,016	-0,076
-198,548	-200,000	0,025	0,220
-197,533	800,000	0,059	0,142
-196,519	-33,798	-0,073	0,029
-195,504	-200,000	0,003	-0,009
-194,490	130,576	-0,091	-0,084
-193,475	272,275	0,034	-0,043
-192,460	-200,000	-0,050	0,242
-191,446	-200,000	0,012	0,048
-190,431	-200,000	-0,001	-0,016
-189,417	215,713	0,012	-0,014
-188,402	-67,652	-0,127	-0,036
-187,387	-133,044	-0,134	-0,012
-186,373	15,242	0,007	0,004
-185,358	-200,000	-0,008	0,053
-184,344	127,129	0,057	0,052
-183,329	55,311	0,066	-0,046
-182,315	-200,000	0,006	0,077
-181,300	230,431	-0,079	-0,093
-180,285	-200,000	0,022	-0,089
-179,271	-200,000	-0,029	0,105
-178,256	74,934	0,100	0,076
-177,242	-27,604	0,067	-0,028
-176,227	800,000	0,032	0,090
-175,212	-200,000	0,017	0,071
-174,198	-200,000	-0,008	-0,183
-173,183	271,942	0,068	-0,087
-172,169	593,217	-0,038	0,067
-171,154	-200,000	0,001	-0,020
-170,139	283,020	0,037	0,048
-169,125	-122,648	0,062	0,007
-168,110	210,000	-0,071	0,080
-167,096	29,809	-0,026	0,016
-166,081	-200,000	-0,005	0,095
-165,066	36,207	0,038	-0,024
-164,052	19,360	-0,114	0,066
-163,037	-22,644	0,123	0,053
-162,023	314,289	-0,031	0,042
-161,008	-200,000	0,006	-0,068
-159,993	-200,000	-0,002	-0,083
-158,979	283,643	-0,031	-0,040
-157,964	-86,156	-0,012	0,003
-156,950	543,736	-0,034	-0,058
-155,935	-82,157	0,067	-0,016
-154,920	-200,000	0,044	0,172
-153,906	130,623	-0,083	0,077
-152,891	-128,002	-0,027	0,003
-151,877	-47,264	-0,070	-0,024
-150,862	289,894	-0,083	-0,108
-149,847	-200,000	-0,024	-0,152
-148,833	800,000	-0,037	0,099
-147,818	800,000	0,034	0,073
-146,804	-200,000	-0,031	0,110
-145,789	218,814	0,024	0,027
-144,775	-200,000	0,000	-0,096
-143,760	143,515	-0,103	-0,099
-142,745	800,000	-0,059	-0,130
-141,731	127,547	-0,102	0,093
-140,716	-135,924	0,107	-0,009
-139,702	150,785	-0,047	-0,046
-138,687	9,267	-0,064	-0,035
-137,672	800,000	0,016	-0,048
-136,658	595,837	0,032	-0,057
-135,643	800,000	-0,028	0,087
-134,629	-12,901	0,083	-0,039
-133,614	276,939	0,098	0,125
-132,599	85,724	0,070	-0,055
-131,585	694,826	0,049	-0,093
-130,570	-103,147	-0,034	0,006
-129,556	-101,230	-0,078	-0,014
-128,541	800,000	-0,034	-0,088
-127,526	-42,178	0,010	-0,004
-126,512	-200,000	-0,007	0,032
-125,497	522,298	0,066	0,112
-124,483	-200,000	-0,009	-0,063
-123,468	-200,000	0,008	-0,032
-122,453	800,000	-0,031	-0,071
-121,439	-123,570	-0,118	0,013
-120,424	800,000	-0,045	0,091
-119,410	-200,000	-0,026	-0,099
-118,395	-164,776	0,011	0,000
-117,380	542,909	0,028	0,048
-116,366	86,947	0,085	-0,068
-115,351	36,795	0,029	0,018
-114,337	0,486	0,076	-0,039
-113,322	800,000	0,014	0,028
-112,307	83,485	0,080	0,063
-111,293	800,000	0,018	0,050
-110,278	-200,000	0,001	-0,023
-109,264	-145,005	0,029	0,002
-108,249	6,810	-0,070	-0,037
-107,234	-200,000	-0,041	-0,179
-106,220	15,677	-0,114	-0,064
-105,205	325,968	-0,055	-0,077
-104,191	-200,000	-0,005	-0,143
-103,176	253,154	0,145	0,179
-102,162	-185,296	-0,144	0,002
-101,147	-196,048	0,033	-0,000
-100,132	-200,000	0,037	-0,144
-99,118	64,333	0,045	-0,033
-98,103	19,310	0,031	-0,018
-97,089	-200,000	0,008	-0,077
-96,074	-70,300	-0,026	-0,007
-95,059	-200,000	-0,001	-0,038
-94,045	-151,097	-0,040	-0,002
-93,030	-200,000	-0,002	-0,064
-92,016	-70,626	-0,045	-0,012
-91,001	800,000	-0,056	0,118
-89,986	427,644	-0,021	-0,032
-88,972	-200,000	0,005	0,133
-87,957	-125,239	0,008	-0,001
-86,943	-200,000	-0,012	0,078
-85,928	167,491	-0,177	-0,181
-84,913	13,420	-0,178	-0,099
-83,899	-6,139	0,117	-0,057
-82,884	-200,000	-0,035	-0,126
-81,870	-21,184	0,112	0,049
-80,855	18,870	0,030	0,017
-79,840	164,391	-0,106	0,107
-78,826	-200,000	-0,002	0,019
-77,811	-56,117	-0,060	-0,019
-76,797	-55,850	-0,013	0,004
-75,782	673,470	-0,047	-0,087
-74,767	172,720	0,098	0,101
-73,753	-69,747	0,075	-0,020
-72,738	54,889	-0,143	-0,099
-71,724	187,890	0,040	-0,043
-70,709	119,648	-0,136	-0,121
-69,694	69,185	-0,111	0,082
-68,680	479,187	-0,027	-0,044
-67,665	-31,989	0,095	0,038
-66,651	800,000	-0,042	0,088
-65,636	-200,000	0,003	0,096
-64,622	-98,649	-0,208	0,038
-63,607	-30,362	-0,177	-0,072
-62,592	274,241	-0,045	-0,057
-61,578	390,135	0,054	-0,081
-60,563	-28,282	0,154	0,064
-59,549	800,000	0,016	-0,042
-58,534	-0,290	-2,182	-1,109
-57,519	-200,000	-0,191	-0,964
-56,505	-200,000	-1,430	-5,014
-55,490	74,726	0,987	0,744
-54,476	800,000	5,324	12,137
-53,461	-200,000	18,392	311,348
-52,446	800,000	739,924	2318,602
-51,432	556,475	1656,223	2873,228
-50,417	110,737	1640,094	1414,758
-49,403	74,953	1289,986	973,480
-48,388	30,455	1030,689	630,338
-47,373	19,998	993,169	572,768
-46,359	17,601	981,032	557,858
-45,344	14,314	977,147	544,825
-44,330	14,620	975,434	544,854
-43,315	14,034	973,643	541,911
-42,300	13,941	972,574	540,989
-41,286	13,966	971,648	540,536
-40,271	13,967	970,730	540,006
-39,257	13,988	969,726	539,496
-38,242	13,984	969,076	539,098
-37,227	13,968	967,906	538,375
-36,213	13,942	967,203	537,877
-35,198	13,963	966,192	537,362
-34,184	14,010	965,537	537,130
-33,169	13,874	964,706	536,205
-32,154	13,946	963,595	535,800
-31,140	14,015	962,691	535,498
-30,125	14,035	962,105	535,215
-29,111	14,001	961,071	534,509
-28,096	13,967	960,557	534,092
-27,082	13,958	959,882	533,666
-26,067	13,994	959,063	533,306
-25,052	13,992	958,612	533,029
-24,038	14,029	957,627	532,579
-23,023	13,980	956,891	531,992
-22,009	13,974	956,273	531,606
-20,994	13,994	955,663	531,312
-19,979	14,003	955,089	530,999
-18,965	13,958	954,533	530,524
-17,950	13,972	954,108	530,314
-16,936	13,967	953,297	529,823
-15,921	13,913	952,767	529,336
-14,906	13,883	951,772	528,666
-13,892	13,894	951,209	528,369
-12,877	13,816	950,639	527,779
-11,863	13,871	949,999	527,581
-10,848	13,853	949,294	527,109
-9,833	13,938	948,921	527,152
-8,819	13,967	948,204	526,827
-7,804	13,878	947,674	526,229
-6,790	13,876	947,189	525,932
-5,775	13,935	946,592	525,767
-4,760	13,936	945,998	525,420
-3,746	13,942	945,124	524,932
-2,731	13,775	944,343	523,948
-1,717	13,681	944,028	523,452
-0,702	13,679	943,268	523,003
0,313	13,446	942,596	522,680
1,327	16,716	940,328	531,722
2,342	25,570	795,647	473,430
3,356	21,989	460,302	268,370
4,371	-4,681	317,228	156,334
5,386	-8,534	299,160	143,478
6,400	-10,416	292,951	138,603
7,415	-10,818	290,451	137,008
8,429	-11,013	288,797	136,022
9,444	-11,273	288,014	135,386
10,459	-11,048	287,247	135,234
11,473	-11,262	286,737	134,772
12,488	-11,009	286,166	134,739
13,502	-11,069	285,749	134,472
14,517	-11,189	285,340	134,151
15,531	-11,135	284,872	133,972
16,546	-11,054	284,319	133,779
17,561	-11,107	283,982	133,557
18,575	-11,016	283,668	133,485
19,590	-11,348	283,274	132,966
20,604	-11,115	283,019	133,061
21,619	-11,184	282,706	132,834
22,634	-11,338	282,524	132,589
23,648	-11,209	281,981	132,446
24,663	-11,190	281,756	132,347
25,677	-11,219	281,531	132,201
26,692	-11,272	281,217	131,991
27,707	-11,095	280,861	131,982
28,721	-11,151	280,577	131,784
29,736	-11,303	280,341	131,515
30,750	-11,244	280,102	131,448
31,765	-11,322	279,882	131,259
32,780	-11,281	279,590	131,149
33,794	-11,353	279,398	130,979
34,809	-11,249	279,181	130,964
35,823	-11,100	278,730	130,883
36,838	-11,176	278,423	130,654
37,853	-11,318	278,246	130,425
38,867	-11,372	278,163	130,323
39,882	-11,200	277,777	130,294
40,896	-11,369	277,532	130,008
41,911	-11,395	277,219	129,825
42,926	-11,350	277,122	129,810
43,940	-11,251	276,709	129,699
44,955	-11,218	276,517	129,628
45,969	-11,408	276,307	129,339
46,984	-11,489	276,119	129,163
47,999	-11,626	275,885	128,913
49,013	-11,806	275,468	128,537
50,028	-11,855	275,182	128,347
51,042	-11,796	275,057	128,333
52,057	-11,917	274,590	127,990
53,071	-11,915	274,551	127,962
54,086	-11,803	274,409	127,989
55,101	-11,615	274,205	128,058
56,115	-11,499	273,991	128,055
57,130	-11,267	273,932	128,233
58,144	-11,053	273,718	128,321
59,159	-11,200	273,493	128,067
60,174	-11,089	273,139	127,993
61,188	-10,971	272,916	127,987
62,203	-11,214	272,600	127,602
63,217	-10,988	272,575	127,789
64,232	-11,226	272,366	127,458
65,247	-11,185	272,078	127,351
66,261	-11,260	271,942	127,205
67,276	-11,163	271,477	127,066
68,290	-11,430	271,312	126,731
69,305	-11,547	271,161	126,541
70,320	-11,317	270,838	126,592
71,334	-11,398	270,715	126,448
72,349	-11,216	270,469	126,489
73,363	-11,186	270,366	126,458
74,378	-11,074	270,070	126,411
75,393	-11,065	269,836	126,299
76,407	-11,124	269,607	126,126
77,422	-11,190	269,522	126,014
78,436	-11,145	269,254	125,919
79,451	-11,139	268,944	125,768
80,466	-11,211	268,633	125,546
81,480	-11,378	268,512	125,326
82,495	-11,122	268,206	125,405
83,509	-11,164	268,134	125,322
84,524	-11,274	267,859	125,082
85,539	-11,304	267,430	124,844
86,553	-11,369	267,345	124,733
87,568	-11,229	267,189	124,777
88,582	-11,328	267,072	124,621
89,597	-11,283	266,964	124,601
90,611	-11,270	266,768	124,509
91,626	-11,130	266,455	124,479
92,641	-11,040	266,274	124,465
93,655	-11,170	265,988	124,203
94,670	-11,186	265,848	124,111
95,684	-11,164	265,610	124,009
96,699	-11,432	265,596	123,750
97,714	-11,402	265,211	123,587
98,728	-11,316	265,023	123,565
99,743	-11,364	264,677	123,349
100,757	-11,438	264,386	123,137
101,772	-11,233	264,181	123,214
102,787	-11,170	264,065	123,205
103,801	-11,222	264,030	123,131
104,816	-11,183	263,966	123,125
105,830	-11,325	263,958	122,984
106,845	-11,135	263,419	122,892
107,860	-11,178	263,226	122,752
108,874	-11,213	262,922	122,568
109,889	-11,274	262,851	122,469
110,903	-11,082	262,429	122,434
111,918	-10,951	262,299	122,478
112,933	-11,303	262,154	122,087
113,947	-11,100	262,011	122,189
114,962	-11,102	261,866	122,109
115,976	-11,280	261,788	121,904
116,991	-11,399	261,450	121,631
118,006	-11,035	261,133	121,794
119,020	-11,156	260,983	121,606
120,035	-11,087	261,036	121,682
121,049	-11,051	260,753	121,570
122,064	-11,242	260,731	121,381
123,079	-11,073	260,332	121,333
124,093	-11,073	260,039	121,185
125,108	-11,224	259,873	120,964
126,122	-11,592	259,678	120,539
127,137	-11,675	259,509	120,377
128,151	-11,443	259,192	120,423
129,166	-11,327	259,105	120,473
130,181	-11,321	258,933	120,388
131,195	-11,491	258,666	120,104
132,210	-11,146	258,476	120,308
133,224	-11,178	258,451	120,257
134,239	-11,149	258,187	120,148
135,254	-11,244	258,028	119,981
136,268	-11,166	257,624	119,851
137,283	-11,421	257,417	119,522
138,297	-11,569	257,215	119,288
139,312	-11,387	256,954	119,314
140,327	-11,242	256,964	119,434
141,341	-10,959	256,778	119,583
142,356	-10,993	256,642	119,480
143,370	-11,010	256,545	119,409
144,385	-10,936	256,402	119,396
145,400	-11,031	256,210	119,214
146,414	-11,002	255,846	119,059
147,429	-10,964	255,754	119,038
148,443	-11,010	255,637	118,934
149,458	-10,962	255,473	118,888
150,473	-10,857	255,101	118,794
151,487	-11,066	255,030	118,571
152,502	-11,022	254,843	118,511
153,516	-10,949	254,719	118,506
154,531	-10,973	254,485	118,366
155,546	-10,873	254,196	118,307
156,560	-10,955	254,121	118,191
157,575	-11,115	253,879	117,931
158,589	-11,093	253,723	117,867
159,604	-10,894	253,525	117,934
160,619	-11,058	253,324	117,690
161,633	-10,964	253,132	117,671
162,648	-10,745	253,025	117,798
163,662	-11,075	252,836	117,417
164,677	-10,986	252,690	117,415
165,692	-10,884	252,477	117,392
166,706	-10,711	252,388	117,488
167,721	-10,756	252,145	117,326
168,735	-11,073	252,196	117,070
169,750	-10,919	251,876	117,041
170,764	-10,786	251,790	117,104
171,779	-10,981	251,679	116,877
172,794	-10,777	251,384	116,902
173,808	-11,175	251,373	116,549
174,823	-11,193	250,901	116,305
175,837	-11,456	250,671	115,966
176,852	-11,045	250,656	116,295
177,867	-10,911	250,506	116,328
178,881	-10,920	250,352	116,239
179,896	-10,638	250,094	116,347
180,910	-10,755	250,057	116,220
181,925	-11,034	249,877	115,892
182,940	-10,757	249,517	115,948
183,954	-10,878	249,457	115,807
184,969	-10,943	249,396	115,714
185,983	-10,977	249,080	115,528
186,998	-10,892	249,001	115,553
188,013	-10,762	248,798	115,558
189,027	-10,769	248,586	115,442
190,042	-10,946	248,326	115,164
191,056	-10,705	248,235	115,312
192,071	-10,922	248,152	115,083
193,086	-10,766	247,796	115,037
194,100	-10,726	247,701	115,016
195,115	-10,802	247,636	114,912
196,129	-10,727	247,215	114,770
197,144	-10,955	247,206	114,565
198,159	-10,924	246,964	114,469
199,173	-10,750	246,799	114,526
200,188	-10,811	246,562	114,356
201,202	-11,261	246,396	113,896
202,217	-11,638	246,117	113,444
203,232	-11,473	245,980	113,507
204,246	-10,802	245,679	113,913
205,261	-10,658	245,745	114,052
206,275	-11,656	245,497	113,103
207,290	-7,896	246,898	116,858
208,304	0,355	249,522	124,988
209,319	4,321	250,554	128,810
210,334	4,517	250,634	129,004
211,348	4,687	250,401	129,015
212,363	4,975	250,392	129,239
213,377	5,212	250,271	129,362
214,392	4,994	250,039	129,049
215,407	4,841	249,971	128,875
216,421	4,900	249,626	128,735
217,436	5,033	249,602	128,821
218,450	5,218	249,446	128,883
219,465	4,772	249,107	128,326
220,480	4,609	249,095	128,173
221,494	4,633	248,849	128,055
222,509	4,506	248,717	127,871
223,523	4,662	248,568	127,912
224,538	4,315	248,258	127,455
225,553	4,411	248,190	127,488
226,567	4,463	247,943	127,393
227,582	4,537	247,777	127,356
228,596	4,465	247,762	127,278
229,611	4,313	247,386	126,948
230,626	4,080	247,200	126,650
231,640	4,212	247,091	126,692
232,655	4,398	246,977	126,774
233,669	4,049	246,905	126,440
234,684	4,075	246,620	126,303
235,699	4,518	246,592	126,641
236,713	4,685	246,489	126,714
237,728	4,213	246,137	126,135
238,742	4,330	245,882	126,089
239,757	4,140	245,732	125,846
240,772	4,399	245,558	125,957
241,786	4,426	245,506	125,942
242,801	4,100	245,399	125,609
243,815	4,188	245,058	125,495
244,830	4,482	245,103	125,746
245,844	4,526	244,940	125,687
246,859	4,432	244,611	125,431
247,874	4,285	244,600	125,294
248,888	4,463	244,417	125,335
249,903	4,400	244,287	125,205
250,917	4,436	244,127	125,141
251,932	4,684	243,960	125,245
252,947	4,526	243,788	125,018
253,961	4,528	243,564	124,893
254,976	4,380	243,366	124,662
255,990	4,423	243,356	124,680
257,005	4,373	243,106	124,500
258,020	4,345	242,953	124,388
259,034	4,183	242,843	124,190
260,049	4,507	242,586	124,309
261,063	4,299	242,460	124,066
262,078	4,421	242,225	124,032
263,093	4,527	242,264	124,127
264,107	4,638	242,078	124,109
265,122	4,337	241,907	123,769
266,136	4,432	241,916	123,839
267,151	4,631	241,697	123,875
268,166	4,039	241,363	123,219
269,180	4,055	241,287	123,182
270,195	4,738	241,301	123,725
271,209	5,053	241,184	123,906
272,224	4,586	240,913	123,382
273,239	4,032	240,687	122,814
274,253	4,265	240,442	122,863
275,268	4,383	240,368	122,909
276,282	4,229	240,194	122,686
277,297	4,171	239,996	122,528
278,312	4,189	239,817	122,440
279,326	4,182	239,744	122,386
280,341	4,355	239,698	122,489
281,355	4,247	239,485	122,284
282,370	4,591	239,306	122,454
283,384	4,291	238,984	122,040
284,399	4,384	238,867	122,044
285,414	3,987	238,809	121,689
286,428	4,274	238,547	121,772
287,443	4,208	238,560	121,715
288,457	4,364	238,482	121,788
289,472	4,526	238,316	121,820
290,487	4,534	238,035	121,671
291,501	4,214	237,877	121,328
292,516	4,146	237,565	121,105
293,530	4,157	237,499	121,069
294,545	4,474	237,612	121,365
295,560	4,409	237,270	121,128
296,574	4,102	237,091	120,786
297,589	4,154	236,989	120,763
298,603	4,460	236,913	120,954
299,618	4,546	236,694	120,899
300,633	4,407	236,660	120,761
301,647	4,592	236,624	120,877
302,662	4,806	236,463	120,952
303,676	4,726	236,105	120,695
304,691	4,604	236,056	120,564
305,706	4,907	235,910	120,715
306,720	4,730	235,806	120,513
307,735	4,876	235,624	120,523
308,749	4,560	235,404	120,154
309,764	4,292	235,316	119,890
310,779	4,048	235,049	119,553
311,793	4,095	234,776	119,441
312,808	4,283	234,527	119,449
313,822	3,911	234,493	119,133
314,837	4,016	234,287	119,099
315,852	4,071	234,104	119,038
316,866	4,286	234,046	119,164
317,881	4,485	234,013	119,290
318,895	4,301	233,876	119,068
319,910	4,271	233,831	119,011
320,925	4,571	233,643	119,136
321,939	4,251	233,456	118,784
322,954	4,550	233,273	118,910
323,968	4,488	233,002	118,713
324,983	4,314	233,055	118,596
325,997	4,575	233,004	118,760
327,012	4,780	232,794	118,800
328,027	4,383	232,620	118,396
329,041	4,636	232,505	118,521
330,056	5,047	232,520	118,833
331,070	5,116	232,393	118,811
332,085	4,815	232,124	118,432
333,100	4,648	231,850	118,154
334,114	4,530	231,703	117,978
335,129	4,759	231,688	118,136
336,143	4,926	231,493	118,153
337,158	4,666	231,345	117,868
338,173	4,572	230,994	117,607
339,187	4,358	230,909	117,391
340,202	4,547	230,719	117,427
341,216	4,297	230,729	117,232
342,231	4,170	230,552	117,036
343,246	4,272	230,338	116,994
344,260	4,642	230,265	117,227
345,275	4,547	230,303	117,163
346,289	4,542	230,167	117,080
347,304	4,720	230,008	117,123
348,319	4,721	229,796	117,006
349,333	4,755	229,413	116,826
350,348	4,424	229,192	116,454
351,362	4,518	229,232	116,534
352,377	4,390	228,872	116,245
353,392	4,058	228,698	115,896
354,406	4,183	228,673	115,967
355,421	195,456	1318,598	1394,023
356,435	156,765	1451,356	1393,982
