DTS Sentinel unit serial number:	SN410029Multiplexer serial number:	ORYXHardware model number:	OX2-SRSoftware version number:	ORYX F/W v4,00 Oryx Data Collector v3.7.2.0data status	okinstallation	B5 Nyhavnadifferential loss correction	single-endedforward channel	channel 2reverse channel	N/Adate	2023/12/12time	23:02:13forward acquisition time	300,00reverse acquisition time	0,00gamma	499,1914k internal	0,3158k external	0,3158temperature offset calibration	1,0000default loss term (dB/km)	0,3820temperature slope calibration	1,0000multiplexer offset coefficient	1,0000multiplexer slope coefficient	1,0000fibre end	0,00T internal ref (°C)	14,53T ext. ref 1 (°C)	-2,02T ext. ref 2 (°C)	-2,36length (m)	temperature (°C)	Stokes	anti-Stokes-744,400	77,170	0,050	-0,040
-743,385	-182,898	-0,217	-0,003
-742,371	115,154	0,100	0,090
-741,356	-110,269	-0,335	0,051
-740,342	-15,578	0,068	-0,032
-739,327	-119,386	-0,339	0,043
-738,312	85,694	-0,056	0,046
-737,298	-102,050	-0,170	0,030
-736,283	-114,559	0,174	-0,024
-735,269	-101,700	-0,201	-0,036
-734,254	-92,301	-0,059	-0,012
-733,239	-157,640	-0,330	-0,014
-732,225	88,318	0,091	0,075
-731,210	98,407	-0,067	0,056
-730,196	-52,174	-0,040	-0,014
-729,181	-200,000	0,007	0,037
-728,167	221,521	0,117	-0,138
-727,152	533,879	-0,075	-0,131
-726,137	202,406	0,099	0,113
-725,123	800,000	-0,009	0,029
-724,108	-25,894	0,089	-0,039
-723,094	-133,900	-0,053	0,005
-722,079	-200,000	0,026	-0,164
-721,064	-200,000	-0,003	-0,134
-720,050	-200,000	0,006	-0,068
-719,035	800,000	-0,037	-0,092
-718,021	-200,000	-0,001	-0,019
-717,006	800,000	-0,042	-0,123
-715,991	70,056	-0,135	-0,102
-714,977	-200,000	0,009	-0,122
-713,962	315,089	-0,100	0,139
-712,948	-9,397	0,060	0,030
-711,933	800,000	0,055	0,125
-710,918	800,000	-0,030	0,089
-709,904	82,174	-0,072	0,058
-708,889	305,255	0,049	-0,067
-707,875	119,491	-0,108	-0,099
-706,860	451,941	0,064	0,104
-705,845	-53,255	-0,079	-0,027
-704,831	-200,000	-0,023	0,143
-703,816	-79,937	-0,042	0,010
-702,802	69,527	-0,184	-0,139
-701,787	310,322	-0,108	-0,149
-700,772	-55,974	0,138	-0,045
-699,758	207,095	0,032	0,037
-698,743	-84,794	0,123	-0,028
-697,729	519,845	-0,073	0,126
-696,714	121,012	0,033	0,030
-695,699	120,172	-0,075	-0,069
-694,685	-200,000	0,011	-0,093
-693,670	-63,447	-0,143	-0,043
-692,656	67,022	0,036	-0,027
-691,641	116,683	-0,101	0,092
-690,627	380,143	0,077	0,117
-689,612	459,207	-0,072	0,118
-688,597	800,000	-0,028	0,064
-687,583	-200,000	0,013	-0,070
-686,568	664,338	0,055	-0,105
-685,554	73,332	0,089	0,068
-684,539	-119,373	0,050	-0,006
-683,524	-2,605	0,024	0,012
-682,510	185,492	-0,093	-0,102
-681,495	800,000	0,017	-0,049
-680,481	-43,094	0,245	-0,091
-679,466	-200,000	-0,040	-0,135
-678,451	102,369	-0,032	0,027
-677,437	68,207	0,025	0,019
-676,422	-200,000	0,013	0,075
-675,408	-65,164	0,098	0,029
-674,393	356,705	0,016	0,023
-673,378	268,359	-0,115	-0,149
-672,364	-200,000	-0,016	-0,074
-671,349	57,261	-0,079	-0,056
-670,335	-200,000	0,022	-0,072
-669,320	27,984	-0,052	0,032
-668,305	6,189	0,071	-0,039
-667,291	-200,000	-0,002	0,013
-666,276	-200,000	-0,008	-0,078
-665,262	-88,385	-0,171	-0,037
-664,247	-200,000	-0,033	-0,153
-663,232	-200,000	0,014	-0,144
-662,218	682,205	0,043	-0,083
-661,203	54,895	-0,061	0,043
-660,189	54,741	-0,092	0,065
-659,174	800,000	-0,028	0,070
-658,159	17,886	-0,118	-0,069
-657,145	-134,820	-0,028	0,002
-656,130	-200,000	-0,003	-0,033
-655,116	-78,416	-0,061	0,015
-654,101	2,411	0,048	0,025
-653,086	533,425	0,054	0,094
-652,072	74,159	0,049	-0,038
-651,057	-127,005	-0,183	0,020
-650,043	-162,614	-0,092	0,003
-649,028	800,000	-0,020	0,057
-648,014	129,938	-0,068	0,064
-646,999	148,242	-0,034	-0,034
-645,984	-200,000	0,004	-0,038
-644,970	-48,657	-0,092	0,032
-643,955	-200,000	-0,000	-0,158
-642,941	53,928	-0,013	0,009
-641,926	-177,655	0,113	0,002
-640,911	-84,393	-0,144	0,033
-639,897	137,552	0,083	0,079
-638,882	-87,382	-0,021	-0,005
-637,868	746,540	-0,052	0,103
-636,853	721,196	-0,026	0,050
-635,838	-68,495	-0,178	-0,050
-634,824	-154,542	-0,036	0,002
-633,809	359,448	0,071	0,105
-632,795	-111,855	-0,063	0,009
-631,780	-27,840	-0,112	0,048
-630,765	127,854	0,049	0,046
-629,751	-100,587	0,048	-0,009
-628,736	800,000	-0,012	0,039
-627,722	-174,118	0,061	-0,001
-626,707	800,000	-0,052	0,113
-625,692	-145,790	-0,069	-0,004
-624,678	15,131	-0,119	0,068
-623,663	-36,808	0,176	-0,069
-622,649	800,000	0,045	0,095
-621,634	-200,000	0,010	-0,154
-620,619	-29,764	-0,136	-0,057
-619,605	-200,000	-0,005	0,077
-618,590	-93,077	0,042	0,009
-617,576	-50,678	0,084	0,029
-616,561	-200,000	-0,008	0,118
-615,546	5,379	-0,122	-0,066
-614,532	32,777	-0,016	-0,010
-613,517	96,266	-0,080	0,067
-612,503	-200,000	0,003	0,048
-611,488	74,727	0,083	0,064
-610,474	-108,646	0,080	-0,013
-609,459	-35,497	-0,083	-0,033
-608,444	-4,109	-0,174	-0,088
-607,430	-200,000	-0,022	-0,098
-606,415	128,714	-0,105	-0,098
-605,401	150,638	-0,015	-0,015
-604,386	-200,000	0,003	-0,034
-603,371	434,700	0,019	0,030
-602,357	-200,000	-0,013	-0,076
-601,342	-1,838	-0,008	0,004
-600,328	-44,205	-0,069	0,025
-599,313	-39,543	-0,099	0,038
-598,298	110,488	0,122	0,107
-597,284	180,109	-0,061	0,066
-596,269	-106,574	0,193	0,031
-595,255	295,574	0,047	0,064
-594,240	-200,000	-0,002	0,114
-593,225	289,261	-0,017	-0,022
-592,211	142,089	-0,049	0,048
-591,196	-200,000	-0,008	-0,143
-590,182	-200,000	-0,036	-0,157
-589,167	-200,000	0,011	-0,042
-588,152	344,329	-0,030	0,043
-587,138	800,000	-0,064	-0,165
-586,123	307,028	0,068	0,094
-585,109	97,277	0,134	-0,113
-584,094	128,897	-0,095	0,089
-583,079	127,073	0,025	0,023
-582,065	-200,000	-0,003	0,020
-581,050	-102,941	0,047	-0,008
-580,036	-172,563	0,100	-0,002
-579,021	65,525	-0,125	0,092
-578,006	-200,000	0,001	-0,072
-576,992	-200,000	-0,003	-0,144
-575,977	55,711	0,141	-0,100
-574,963	153,899	-0,037	-0,037
-573,948	-54,929	0,170	0,056
-572,934	-200,000	0,007	0,025
-571,919	800,000	-0,050	-0,117
-570,904	62,486	-0,069	-0,050
-569,890	-91,565	-0,107	0,022
-568,875	-155,304	0,166	-0,008
-567,861	72,460	-0,056	-0,043
-566,846	-200,000	0,004	0,105
-565,831	800,000	0,032	0,099
-564,817	9,506	-0,101	0,056
-563,802	-200,000	0,013	0,061
-562,788	-14,246	0,052	-0,024
-561,773	-62,144	-0,095	-0,029
-560,758	-156,570	0,216	0,010
-559,744	-183,739	-0,070	-0,001
-558,729	800,000	-0,030	0,092
-557,715	336,921	-0,068	0,097
-556,700	-108,817	0,043	0,007
-555,685	-200,000	-0,022	-0,090
-554,671	163,041	0,111	0,114
-553,656	669,537	-0,031	0,059
-552,642	13,036	0,133	0,075
-551,627	7,356	-0,074	0,040
-550,612	-67,546	0,091	-0,026
-549,598	-26,803	-0,122	-0,052
-548,583	-140,845	0,012	0,001
-547,569	5,035	0,099	0,053
-546,554	6,277	-0,037	-0,020
-545,539	-200,000	-0,014	-0,076
-544,525	-132,488	-0,116	0,011
-543,510	11,173	-0,023	-0,013
-542,496	289,243	-0,051	0,068
-541,481	-200,000	0,017	-0,115
-540,466	-50,621	-0,090	-0,031
-539,452	800,000	0,037	-0,093
-538,437	157,483	0,104	0,105
-537,423	-200,000	0,006	0,030
-536,408	-105,356	0,114	0,019
-535,393	-66,538	-0,195	-0,056
-534,379	189,855	0,052	0,057
-533,364	21,438	0,094	-0,056
-532,350	13,324	0,095	0,054
-531,335	-200,000	-0,012	0,152
-530,321	154,098	-0,050	-0,050
-529,306	800,000	0,021	-0,052
-528,291	299,576	-0,055	0,074
-527,277	311,456	-0,024	-0,033
-526,262	-5,822	0,100	0,050
-525,248	800,000	0,064	0,140
-524,233	-200,000	0,006	0,033
-523,218	85,163	-0,100	-0,080
-522,204	800,000	-0,045	0,106
-521,189	-115,828	-0,032	0,004
-520,175	41,065	-0,065	0,043
-519,160	-200,000	0,029	-0,147
-518,145	800,000	-0,016	-0,043
-517,131	-87,699	0,107	0,023
-516,116	-200,000	0,012	0,072
-515,102	146,105	0,069	0,068
-514,087	337,715	0,083	-0,118
-513,072	234,231	-0,103	-0,125
-512,058	800,000	-0,026	-0,077
-511,043	-195,951	-0,020	-0,000
-510,029	-48,259	0,071	0,025
-509,014	27,734	0,145	-0,089
-507,999	-62,124	0,010	-0,003
-506,985	-5,458	-0,057	0,028
-505,970	800,000	0,031	-0,069
-504,956	-200,000	0,003	-0,045
-503,941	10,552	0,119	-0,066
-502,926	-64,385	0,098	0,029
-501,912	-200,000	-0,005	0,038
-500,897	800,000	0,059	-0,168
-499,883	-200,000	0,006	-0,030
-498,868	-144,584	-0,065	0,004
-497,853	-35,035	-0,030	-0,012
-496,839	29,408	0,133	-0,082
-495,824	-200,000	0,026	0,098
-494,810	42,135	-0,072	0,048
-493,795	800,000	-0,032	0,089
-492,781	38,958	0,035	-0,023
-491,766	-200,000	-0,004	-0,044
-490,751	-200,000	-0,000	0,015
-489,737	18,779	0,022	0,013
-488,722	106,537	0,020	-0,018
-487,708	800,000	0,015	-0,030
-486,693	774,058	0,014	-0,028
-485,678	-200,000	-0,021	0,121
-484,664	79,383	-0,135	-0,106
-483,649	-200,000	-0,007	-0,055
-482,635	-200,000	0,014	-0,071
-481,620	92,740	0,057	0,047
-480,605	-71,746	0,077	-0,021
-479,591	-86,069	-0,045	0,010
-478,576	-200,000	0,015	-0,056
-477,562	241,646	-0,060	0,074
-476,547	406,984	-0,087	0,135
-475,532	129,966	0,068	0,063
-474,518	-101,472	0,137	-0,024
-473,503	-200,000	0,021	0,098
-472,489	66,643	-0,064	-0,047
-471,474	-200,000	0,003	0,066
-470,459	-53,484	0,016	-0,005
-469,445	800,000	0,021	-0,047
-468,430	800,000	0,017	0,045
-467,416	141,535	-0,067	0,065
-466,401	-200,000	-0,015	0,062
-465,386	-52,544	0,126	-0,042
-464,372	314,938	-0,027	-0,038
-463,357	-40,325	-0,038	0,014
-462,343	97,314	0,150	-0,125
-461,328	-186,953	-0,089	0,001
-460,313	-200,000	0,002	-0,198
-459,299	125,828	0,081	0,075
-458,284	338,876	0,022	0,031
-457,270	-200,000	-0,021	0,117
-456,255	215,523	-0,069	-0,080
-455,241	-200,000	0,000	0,030
-454,226	-71,986	0,063	0,017
-453,211	-155,495	0,014	-0,001
-452,197	-200,000	-0,019	-0,203
-451,182	173,565	0,031	-0,033
-450,168	-200,000	-0,019	-0,089
-449,153	380,741	-0,025	-0,037
-448,138	-154,106	-0,140	0,007
-447,124	-200,000	-0,007	-0,038
-446,109	-127,280	0,035	0,004
-445,095	-58,096	0,060	0,019
-444,080	-162,828	0,065	0,002
-443,065	136,019	0,050	0,048
-442,051	-200,000	0,011	0,137
-441,036	-200,000	-0,034	-0,115
-440,022	557,152	-0,089	-0,157
-439,007	218,193	0,038	-0,044
-437,992	-200,000	0,031	-0,106
-436,978	-200,000	-0,001	0,049
-435,963	-200,000	-0,025	-0,089
-434,949	39,648	0,088	0,057
-433,934	-100,242	0,075	-0,013
-432,919	800,000	-0,044	0,103
-431,905	-44,251	0,031	-0,011
-430,890	-122,113	0,095	0,011
-429,876	-200,000	0,020	0,068
-428,861	172,275	0,050	0,053
-427,846	800,000	-0,016	-0,039
-426,832	476,404	-0,034	0,056
-425,817	-36,455	0,080	0,031
-424,803	-200,000	-0,019	0,145
-423,788	-154,261	0,121	0,006
-422,773	-69,854	0,102	-0,028
-421,759	-127,886	0,045	0,005
-420,744	50,255	-0,147	-0,101
-419,730	-74,467	0,111	-0,029
-418,715	-200,000	0,022	-0,185
-417,701	118,673	-0,086	0,077
-416,686	80,151	0,021	-0,017
-415,671	270,970	-0,086	-0,111
-414,657	-15,799	0,122	0,056
-413,642	-36,963	0,051	-0,020
-412,628	-46,746	-0,084	0,030
-411,613	800,000	-0,070	-0,198
-410,598	124,837	-0,099	-0,091
-409,584	732,953	-0,022	0,043
-408,569	787,242	0,048	0,097
-407,555	800,000	0,020	0,063
-406,540	-200,000	-0,004	0,060
-405,525	-92,620	0,021	-0,004
-404,511	257,463	0,089	-0,111
-403,496	-21,276	0,054	-0,024
-402,482	208,169	-0,064	0,073
-401,467	-200,000	0,003	0,042
-400,452	44,571	-0,155	0,104
-399,438	-24,490	-0,128	0,055
-398,423	800,000	0,010	-0,029
-397,409	-119,486	0,120	0,015
-396,394	-148,500	-0,105	0,006
-395,379	38,580	0,090	-0,058
-394,365	-85,789	-0,036	-0,008
-393,350	52,260	0,139	0,096
-392,336	-200,000	0,036	0,171
-391,321	76,909	-0,122	0,094
-390,306	451,591	-0,043	-0,069
-389,292	210,765	-0,071	0,081
-388,277	206,516	-0,109	-0,123
-387,263	-200,000	0,025	0,136
-386,248	165,936	0,020	0,020
-385,233	170,599	0,019	-0,020
-384,219	-69,823	0,160	0,044
-383,204	800,000	-0,042	0,112
-382,190	-95,089	-0,133	-0,026
-381,175	4,116	0,015	-0,008
-380,160	136,670	0,076	-0,072
-379,146	800,000	0,041	0,128
-378,131	800,000	0,029	0,062
-377,117	-163,875	-0,142	-0,005
-376,102	800,000	-0,021	-0,049
-375,088	800,000	0,029	0,069
-374,073	-200,000	0,008	-0,076
-373,058	800,000	0,037	0,079
-372,044	-125,144	0,152	-0,017
-371,029	-200,000	-0,046	0,152
-370,015	-147,045	-0,019	-0,001
-369,000	-19,283	0,077	-0,034
-367,985	-200,000	0,013	-0,070
-366,971	800,000	0,071	-0,148
-365,956	749,066	-0,032	0,063
-364,942	462,668	0,060	0,098
-363,927	-29,101	0,086	0,036
-362,912	-25,125	-0,046	0,020
-361,898	605,635	0,025	0,045
-360,883	-77,555	-0,123	-0,031
-359,869	-135,240	0,133	0,011
-358,854	-200,000	0,018	-0,062
-357,839	-156,064	0,110	0,005
-356,825	-200,000	0,007	0,055
-355,810	-200,000	-0,009	-0,053
-354,796	-200,000	0,033	0,130
-353,781	89,113	-0,057	-0,046
-352,766	-75,428	-0,092	0,024
-351,752	622,199	0,074	0,135
-350,737	800,000	-0,074	-0,166
-349,723	15,158	-0,080	-0,046
-348,708	777,267	0,026	0,052
-347,693	-200,000	0,028	0,121
-346,679	-32,101	-0,089	-0,036
-345,664	324,211	0,061	0,085
-344,650	100,522	-0,088	-0,074
-343,635	-200,000	0,005	0,024
-342,620	93,307	-0,034	-0,028
-341,606	117,884	0,042	-0,037
-340,591	-49,618	-0,119	-0,041
-339,577	3,136	-0,047	-0,024
-338,562	-200,000	-0,042	0,000
-337,548	-59,660	0,070	0,022
-336,533	185,276	0,019	0,020
-335,518	-80,523	0,118	0,028
-334,504	-86,648	0,149	0,033
-333,489	425,919	0,023	-0,036
-332,475	-200,000	-0,017	-0,058
-331,460	12,466	-0,112	0,063
-330,445	-101,370	0,172	-0,030
-329,431	-200,000	0,007	-0,053
-328,416	245,389	0,056	0,068
-327,402	71,634	-0,016	0,012
-326,387	108,472	0,060	0,052
-325,372	-128,629	-0,064	-0,006
-324,358	-93,402	-0,078	-0,016
-323,343	153,523	0,009	0,009
-322,329	-200,000	0,024	-0,111
-321,314	61,089	0,071	0,051
-320,299	-200,000	-0,023	-0,106
-319,285	105,936	-0,047	-0,041
-318,270	-200,000	-0,013	-0,100
-317,256	-200,000	0,014	-0,064
-316,241	-200,000	-0,011	-0,170
-315,226	68,574	-0,039	-0,029
-314,212	-55,780	-0,095	-0,030
-313,197	154,329	0,037	0,037
-312,183	327,686	0,051	-0,071
-311,168	21,489	-0,159	-0,094
-310,153	800,000	0,014	0,031
-309,139	158,942	-0,145	-0,146
-308,124	615,755	0,062	0,113
-307,110	800,000	-0,027	-0,060
-306,095	169,035	0,064	0,067
-305,080	283,811	-0,028	-0,037
-304,066	486,570	0,043	0,072
-303,051	-32,475	-0,119	0,048
-302,037	225,286	-0,042	-0,050
-301,022	-200,000	-0,003	0,112
-300,008	-96,684	0,108	0,020
-298,993	-200,000	0,002	-0,050
-297,978	725,417	-0,045	0,088
-296,964	-56,787	0,008	0,002
-295,949	387,429	-0,054	-0,082
-294,935	-200,000	-0,004	-0,031
-293,920	57,207	-0,056	0,040
-292,905	341,232	0,010	-0,014
-291,891	800,000	-0,021	0,065
-290,876	-200,000	-0,018	0,087
-289,862	-24,977	-0,083	-0,035
-288,847	293,779	0,051	-0,068
-287,832	800,000	0,034	-0,093
-286,818	-2,864	-0,094	-0,047
-285,803	800,000	0,024	0,075
-284,789	-200,000	-0,012	0,228
-283,774	289,912	-0,067	0,089
-282,759	97,537	-0,023	-0,019
-281,745	-4,911	-0,101	0,050
-280,730	180,086	0,018	-0,019
-279,716	-200,000	-0,005	0,046
-278,701	-31,840	0,118	-0,048
-277,686	265,451	0,061	-0,077
-276,672	195,772	-0,025	0,028
-275,657	-200,000	-0,027	0,100
-274,643	62,628	-0,073	-0,053
-273,628	91,839	0,032	0,026
-272,613	800,000	0,044	-0,109
-271,599	-114,700	0,141	-0,019
-270,584	-120,805	-0,102	0,012
-269,570	50,701	0,117	0,080
-268,555	633,874	0,038	-0,070
-267,540	800,000	0,023	0,064
-266,526	393,359	0,024	-0,036
-265,511	-13,310	0,071	0,033
-264,497	-21,086	-0,158	-0,070
-263,482	54,167	0,073	-0,051
-262,467	-110,641	-0,122	0,018
-261,453	800,000	-0,032	-0,089
-260,438	-200,000	-0,011	-0,130
-259,424	-134,415	-0,043	-0,004
-258,409	-94,828	-0,030	-0,006
-257,395	-200,000	0,021	-0,133
-256,380	20,286	0,021	-0,012
-255,365	-200,000	0,013	0,149
-254,351	-77,472	0,149	-0,037
-253,336	-200,000	0,017	-0,083
-252,322	800,000	-0,030	-0,064
-251,307	-133,918	-0,073	0,006
-250,292	48,066	-0,053	-0,036
-249,278	-200,000	-0,026	-0,090
-248,263	116,468	0,088	-0,078
-247,249	-200,000	0,022	0,077
-246,234	200,245	-0,160	-0,177
-245,219	-200,000	-0,013	-0,127
-244,205	-200,000	0,018	-0,108
-243,190	-73,159	-0,099	0,026
-242,176	256,788	-0,028	0,035
-241,161	-26,028	0,079	0,033
-240,146	800,000	-0,032	0,072
-239,132	-200,000	0,001	-0,020
-238,117	-18,389	-0,114	0,051
-237,103	-200,000	0,042	0,147
-236,088	95,102	-0,051	-0,042
-235,073	-135,963	-0,095	-0,008
-234,059	14,404	0,025	0,014
-233,044	-71,863	-0,124	-0,033
-232,030	-200,000	0,010	-0,085
-231,015	-200,000	0,014	0,173
-230,000	-19,516	-0,069	0,031
-228,986	389,339	-0,053	0,079
-227,971	74,210	-0,067	0,051
-226,957	-22,428	0,115	-0,050
-225,942	325,442	-0,067	0,092
-224,927	-0,675	0,034	0,017
-223,913	32,612	-0,172	-0,107
-222,898	-147,670	0,090	-0,005
-221,884	26,477	-0,083	-0,050
-220,869	-200,000	0,030	0,098
-219,855	-112,099	-0,049	0,007
-218,840	669,709	-0,066	-0,125
-217,825	-200,000	0,026	-0,146
-216,811	-40,096	-0,049	-0,018
-215,796	-200,000	0,012	-0,092
-214,782	-194,065	-0,076	0,000
-213,767	71,219	0,095	-0,071
-212,752	-200,000	-0,005	0,094
-211,738	-55,423	0,139	-0,045
-210,723	676,720	0,042	-0,079
-209,709	-19,402	-0,095	0,042
-208,694	-200,000	0,012	-0,049
-207,679	785,232	-0,024	0,047
-206,665	-200,000	-0,004	0,014
-205,650	-200,000	0,004	0,194
-204,636	-17,837	-0,126	0,057
-203,621	-200,000	0,008	-0,038
-202,606	-200,000	0,009	0,136
-201,592	800,000	-0,046	0,119
-200,577	91,327	0,047	-0,038
-199,563	-200,000	0,010	0,057
-198,548	192,118	-0,055	0,060
-197,533	-76,635	-0,092	-0,023
-196,519	800,000	0,034	-0,075
-195,504	327,273	-0,025	-0,035
-194,490	107,529	0,061	0,052
-193,475	-72,691	-0,050	-0,013
-192,460	399,892	0,056	0,085
-191,446	800,000	0,059	-0,165
-190,431	-200,000	-0,001	0,029
-189,417	153,075	0,030	0,030
-188,402	36,683	0,131	-0,083
-187,387	-200,000	0,005	0,053
-186,373	-56,067	0,069	-0,022
-185,358	140,075	0,070	0,067
-184,344	-37,796	0,119	-0,045
-183,329	-200,000	-0,005	0,027
-182,315	376,094	0,017	-0,025
-181,300	-134,720	0,016	-0,001
-180,285	-80,703	-0,035	-0,008
-179,271	-46,805	-0,064	-0,023
-178,256	800,000	0,020	0,049
-177,242	800,000	-0,018	0,046
-176,227	-134,401	0,100	-0,009
-175,212	-121,643	0,056	-0,007
-174,198	-200,000	0,018	-0,121
-173,183	25,171	0,113	-0,067
-172,169	-200,000	0,006	0,063
-171,154	-200,000	-0,031	-0,135
-170,139	589,478	0,046	-0,081
-169,125	-49,629	0,069	-0,024
-168,110	-86,463	0,085	0,019
-167,096	-79,872	-0,082	-0,020
-166,081	-19,142	-0,139	0,062
-165,066	800,000	-0,063	-0,134
-164,052	-123,440	0,070	0,008
-163,037	34,747	-0,140	0,088
-162,023	800,000	-0,033	0,082
-161,008	-123,764	0,133	-0,015
-159,993	-200,000	0,004	0,090
-158,979	201,125	0,075	0,083
-157,964	-49,866	-0,081	-0,028
-156,950	800,000	-0,009	0,028
-155,935	363,693	-0,027	-0,039
-154,920	74,076	0,134	0,101
-153,906	-200,000	-0,026	0,101
-152,891	650,271	-0,060	-0,111
-151,877	-150,566	0,102	0,006
-150,862	181,686	0,062	-0,066
-149,847	-40,222	-0,074	0,028
-148,833	35,441	0,060	0,038
-147,818	641,239	0,059	0,109
-146,804	-50,561	-0,019	-0,006
-145,789	-128,762	0,068	0,007
-144,775	-200,000	-0,003	0,023
-143,760	800,000	-0,046	0,108
-142,745	-127,147	0,010	-0,001
-141,731	232,373	0,017	0,020
-140,716	800,000	-0,068	0,187
-139,702	-93,701	-0,091	0,018
-138,687	75,189	-0,011	-0,009
-137,672	17,091	0,078	0,044
-136,658	698,868	-0,023	-0,043
-135,643	-58,001	-0,112	-0,035
-134,629	-200,000	0,004	-0,019
-133,614	-148,012	0,128	-0,008
-132,599	70,789	-0,122	0,091
-131,585	349,851	-0,031	0,044
-130,570	800,000	-0,043	-0,135
-129,556	-200,000	-0,026	-0,085
-128,541	-96,792	-0,079	-0,015
-127,526	-142,528	-0,044	0,003
-126,512	205,265	-0,078	-0,087
-125,497	-200,000	0,001	-0,063
-124,483	149,883	-0,025	-0,024
-123,468	105,635	-0,064	0,054
-122,453	-101,119	0,091	-0,016
-121,439	96,681	-0,017	0,014
-120,424	800,000	0,040	0,099
-119,410	574,750	0,056	-0,099
-118,395	-140,207	0,059	-0,004
-117,380	-200,000	0,016	0,093
-116,366	144,157	0,108	-0,104
-115,351	-40,005	0,090	-0,033
-114,337	-200,000	-0,005	-0,097
-113,322	-84,137	-0,186	-0,042
-112,307	-34,510	0,068	-0,027
-111,293	123,888	-0,050	-0,045
-110,278	-200,000	0,010	-0,063
-109,264	-200,000	-0,021	0,068
-108,249	-9,010	-0,069	0,033
-107,234	134,584	-0,057	0,054
-106,220	-21,323	-0,030	0,013
-105,205	800,000	0,009	-0,025
-104,191	-200,000	-0,008	0,050
-103,176	-115,174	-0,015	-0,002
-102,162	-200,000	0,009	0,064
-101,147	61,169	-0,079	0,056
-100,132	800,000	-0,058	-0,154
-99,118	-108,531	-0,038	-0,006
-98,103	-128,937	0,114	0,011
-97,089	-200,000	-0,009	0,040
-96,074	205,177	0,042	-0,047
-95,059	800,000	-0,050	-0,143
-94,045	800,000	-0,039	-0,081
-93,030	-39,290	-0,030	-0,011
-92,016	656,985	-0,037	0,068
-91,001	-200,000	0,006	0,042
-89,986	293,240	-0,039	-0,051
-88,972	-41,231	0,169	0,062
-87,957	421,594	0,029	0,045
-86,943	55,482	0,141	0,098
-85,928	193,208	-0,187	-0,203
-84,913	594,929	-0,056	-0,100
-83,899	-142,187	-0,055	-0,004
-82,884	-18,639	-0,081	0,036
-81,870	348,550	-0,074	0,105
-80,855	-141,593	0,119	-0,009
-79,840	-128,058	0,051	0,005
-78,826	326,584	-0,099	-0,137
-77,811	-24,548	-0,141	-0,060
-76,797	-200,000	-0,001	0,069
-75,782	-55,129	-0,064	-0,021
-74,767	-111,431	0,083	-0,012
-73,753	-200,000	-0,015	0,067
-72,738	69,720	-0,031	0,023
-71,724	-200,000	0,002	0,020
-70,709	-200,000	-0,001	0,046
-69,694	212,146	0,062	0,070
-68,680	-66,587	0,082	-0,023
-67,665	800,000	-0,071	-0,201
-66,651	-10,199	-0,091	0,043
-65,636	800,000	-0,013	0,035
-64,622	-200,000	-0,014	0,061
-63,607	336,791	-0,031	-0,044
-62,592	-13,464	0,093	-0,043
-61,578	-75,449	-0,052	-0,013
-60,563	-200,000	0,007	0,065
-59,549	328,260	-0,029	-0,040
-58,534	18,226	-2,060	-1,177
-57,519	-200,000	-0,220	-0,749
-56,505	-200,000	-1,300	-4,976
-55,490	21,913	0,908	0,530
-54,476	800,000	5,238	12,116
-53,461	-200,000	18,078	298,591
-52,446	800,000	733,601	2264,794
-51,432	543,559	1650,221	2836,870
-50,417	109,465	1638,238	1407,640
-49,403	74,386	1288,663	970,608
-48,388	31,049	1028,547	631,308
-47,373	20,071	990,564	571,742
-46,359	17,994	978,216	557,777
-45,344	14,881	974,121	545,224
-44,330	15,121	972,564	545,115
-43,315	14,609	970,723	542,388
-42,300	14,550	969,628	541,561
-41,286	14,546	968,789	541,061
-40,271	14,577	967,757	540,563
-39,257	14,601	966,842	540,107
-38,242	14,568	966,058	539,542
-37,227	14,546	965,166	538,951
-36,213	14,540	964,275	538,414
-35,198	14,556	963,307	537,901
-34,184	14,638	962,680	537,797
-33,169	14,449	962,019	536,794
-32,154	14,618	960,745	536,609
-31,140	14,519	959,978	535,837
-30,125	14,640	959,084	535,709
-29,111	14,508	958,538	534,958
-28,096	14,580	957,656	534,675
-27,082	14,584	956,972	534,284
-26,067	14,588	956,121	533,801
-25,052	14,566	955,481	533,354
-24,038	14,570	954,661	532,886
-23,023	14,537	954,222	532,514
-22,009	14,619	953,441	532,320
-20,994	14,580	952,816	531,826
-19,979	14,551	952,214	531,375
-18,965	14,545	951,574	530,976
-17,950	14,546	951,116	530,705
-16,936	14,524	950,266	530,139
-15,921	14,481	949,701	529,665
-14,906	14,446	948,898	529,085
-13,892	14,471	948,099	528,697
-12,877	14,435	947,732	528,357
-11,863	14,343	947,143	527,715
-10,848	14,446	946,484	527,654
-9,833	14,561	945,950	527,702
-8,819	14,561	945,409	527,378
-7,804	14,492	944,744	526,767
-6,790	14,477	944,250	526,423
-5,775	14,527	943,619	526,210
-4,760	14,460	943,031	525,648
-3,746	14,450	942,292	525,184
-2,731	14,309	941,663	524,365
-1,717	14,324	941,150	524,106
-0,702	14,313	940,294	523,576
0,313	14,112	939,654	523,372
1,327	17,457	937,468	532,657
2,342	26,699	793,423	475,282
3,356	23,319	458,526	269,481
4,371	-4,008	314,842	155,945
5,386	-8,296	296,868	142,680
6,400	-10,210	290,658	137,779
7,415	-10,698	288,320	136,178
8,429	-10,762	286,662	135,319
9,444	-10,860	285,861	134,833
10,459	-10,690	285,210	134,681
11,473	-10,848	284,678	134,262
12,488	-10,742	284,112	134,087
13,502	-10,703	283,494	133,821
14,517	-10,654	283,343	133,785
15,531	-10,737	282,764	133,420
16,546	-10,672	282,432	133,314
17,561	-10,654	281,836	133,038
18,575	-10,659	281,562	132,893
19,590	-10,686	281,140	132,655
20,604	-10,613	280,950	132,624
21,619	-10,682	280,706	132,431
22,634	-10,770	280,262	132,125
23,648	-10,532	279,895	132,168
24,663	-10,791	279,599	131,769
25,677	-10,883	279,509	131,627
26,692	-10,799	279,289	131,592
27,707	-10,553	278,972	131,665
28,721	-10,594	278,553	131,416
29,736	-10,691	278,392	131,236
30,750	-10,699	277,991	131,028
31,765	-10,825	277,944	130,875
32,780	-10,682	277,618	130,845
33,794	-10,705	277,405	130,711
34,809	-10,878	277,147	130,415
35,823	-10,736	276,802	130,375
36,838	-10,691	276,580	130,302
37,853	-10,754	276,329	130,111
38,867	-10,725	276,060	130,001
39,882	-10,885	275,957	129,790
40,896	-10,837	275,819	129,759
41,911	-10,835	275,418	129,560
42,926	-10,813	275,180	129,457
43,940	-10,804	274,860	129,304
44,955	-10,799	274,753	129,246
45,969	-10,886	274,396	128,986
46,984	-11,012	274,200	128,765
47,999	-11,037	273,830	128,556
49,013	-11,052	273,586	128,416
50,028	-11,272	273,248	128,041
51,042	-11,400	273,167	127,872
52,057	-11,425	272,817	127,673
53,071	-11,480	272,745	127,577
54,086	-11,291	272,433	127,596
55,101	-10,990	272,309	127,806
56,115	-10,961	272,184	127,763
57,130	-10,521	271,962	128,054
58,144	-10,730	271,796	127,772
59,159	-10,515	271,550	127,844
60,174	-10,671	271,330	127,585
61,188	-10,687	271,096	127,448
62,203	-10,824	270,988	127,259
63,217	-10,483	270,658	127,408
64,232	-10,511	270,288	127,197
65,247	-10,599	270,251	127,086
66,261	-10,864	270,112	126,766
67,276	-10,892	269,764	126,566
68,290	-10,964	269,500	126,365
69,305	-11,010	269,189	126,165
70,320	-10,990	269,110	126,135
71,334	-10,815	268,875	126,174
72,349	-10,787	268,738	126,124
73,363	-10,721	268,462	126,044
74,378	-10,690	268,128	125,904
75,393	-10,605	267,898	125,862
76,407	-10,483	267,653	125,847
77,422	-10,646	267,605	125,664
78,436	-10,688	267,378	125,509
79,451	-10,597	267,251	125,521
80,466	-10,699	266,866	125,236
81,480	-10,798	266,634	125,026
82,495	-10,749	266,339	124,921
83,509	-10,800	266,294	124,843
84,524	-10,781	266,012	124,717
85,539	-10,853	265,814	124,548
86,553	-11,048	265,615	124,267
87,568	-10,812	265,384	124,361
88,582	-10,791	265,016	124,196
89,597	-10,878	264,972	124,086
90,611	-10,693	264,841	124,180
91,626	-10,620	264,631	124,136
92,641	-10,497	264,393	124,124
93,655	-10,577	264,317	124,005
94,670	-10,614	263,853	123,743
95,684	-10,642	263,795	123,680
96,699	-10,729	263,460	123,435
97,714	-10,786	263,490	123,386
98,728	-10,783	263,177	123,231
99,743	-11,031	262,947	122,891
100,757	-10,981	262,830	122,871
101,772	-10,768	262,544	122,915
102,787	-10,930	262,379	122,683
103,801	-10,810	262,160	122,677
104,816	-10,464	261,884	122,843
105,830	-10,443	261,931	122,874
106,845	-10,680	261,642	122,517
107,860	-10,577	261,326	122,449
108,874	-10,658	261,199	122,307
109,889	-10,717	260,957	122,131
110,903	-10,742	260,682	121,969
111,918	-10,802	260,673	121,901
112,933	-10,715	260,432	121,854
113,947	-10,735	260,164	121,700
114,962	-10,616	260,098	121,763
115,976	-10,560	259,992	121,752
116,991	-10,598	259,613	121,530
118,006	-10,556	259,363	121,439
119,020	-10,563	259,379	121,430
120,035	-10,724	259,271	121,227
121,049	-10,726	259,137	121,152
122,064	-10,580	258,779	121,102
123,079	-10,591	258,600	120,997
124,093	-10,609	258,341	120,849
125,108	-10,963	258,259	120,491
126,122	-10,911	258,018	120,413
127,137	-11,025	257,636	120,124
128,151	-10,946	257,616	120,173
129,166	-10,926	257,485	120,119
130,181	-10,769	257,150	120,089
131,195	-10,811	256,947	119,947
132,210	-10,698	256,712	119,925
133,224	-10,488	256,566	120,029
134,239	-10,626	256,409	119,824
135,254	-10,659	256,151	119,665
136,268	-10,668	256,000	119,575
137,283	-10,910	255,812	119,268
138,297	-11,056	255,613	119,038
139,312	-11,029	255,354	118,930
140,327	-10,847	255,371	119,085
141,341	-10,646	255,175	119,156
142,356	-10,643	255,003	119,067
143,370	-10,462	254,843	119,138
144,385	-10,570	254,613	118,927
145,400	-10,428	254,476	118,974
146,414	-10,514	254,199	118,761
147,429	-10,589	254,096	118,638
148,443	-10,389	253,892	118,704
149,458	-10,460	253,680	118,533
150,473	-10,445	253,463	118,434
151,487	-10,536	253,253	118,247
152,502	-10,508	253,184	118,228
153,516	-10,355	252,876	118,204
154,531	-10,130	252,656	118,283
155,546	-10,521	252,628	117,926
156,560	-10,649	252,422	117,710
157,575	-10,700	252,230	117,567
158,589	-10,448	251,911	117,622
159,604	-10,522	251,743	117,470
160,619	-10,562	251,495	117,310
161,633	-10,535	251,413	117,284
162,648	-10,425	251,270	117,300
163,662	-10,548	251,320	117,208
164,677	-10,540	251,060	117,083
165,692	-10,303	250,929	117,212
166,706	-10,384	250,792	117,070
167,721	-10,563	250,619	116,827
168,735	-10,415	250,321	116,803
169,750	-10,341	250,172	116,785
170,764	-10,439	250,016	116,620
171,779	-10,409	249,988	116,621
172,794	-10,525	249,845	116,447
173,808	-10,493	249,484	116,295
174,823	-10,832	249,114	115,827
175,837	-10,925	249,005	115,689
176,852	-10,504	249,025	116,041
177,867	-10,292	248,934	116,166
178,881	-10,395	248,652	115,938
179,896	-10,299	248,447	115,912
180,910	-10,372	248,263	115,755
181,925	-10,314	248,045	115,691
182,940	-10,312	247,908	115,619
183,954	-10,470	247,881	115,464
184,969	-10,419	247,665	115,395
185,983	-10,545	247,479	115,194
186,998	-10,319	247,312	115,294
188,013	-10,280	247,032	115,185
189,027	-10,378	246,934	115,048
190,042	-10,286	246,634	114,974
191,056	-10,298	246,546	114,913
192,071	-10,479	246,389	114,680
193,086	-10,350	246,165	114,672
194,100	-10,385	246,143	114,622
195,115	-10,452	245,848	114,419
196,129	-10,575	245,678	114,228
197,144	-10,409	245,345	114,200
198,159	-10,372	245,271	114,187
199,173	-10,479	245,113	114,014
200,188	-10,540	245,020	113,910
201,202	-10,682	244,632	113,604
202,217	-10,968	244,449	113,273
203,232	-10,980	244,122	113,102
204,246	-10,611	244,272	113,464
205,261	-10,463	244,098	113,495
206,275	-11,103	243,728	112,787
207,290	-6,605	245,583	117,348
208,304	1,398	247,905	125,094
209,319	4,055	248,685	127,682
210,334	4,479	248,715	128,037
211,348	4,799	248,537	128,199
212,363	4,866	248,721	128,339
213,377	5,228	248,318	128,418
214,392	5,099	248,149	128,213
215,407	4,827	247,999	127,899
216,421	4,630	247,951	127,700
217,436	5,083	247,589	127,876
218,450	5,209	247,577	127,962
219,465	4,860	247,353	127,548
220,480	4,460	247,108	127,081
221,494	4,717	246,865	127,156
222,509	4,539	246,721	126,924
223,523	4,415	246,604	126,751
224,538	4,086	246,216	126,271
225,553	4,432	246,237	126,554
226,567	4,430	246,060	126,450
227,582	4,332	246,109	126,383
228,596	4,518	245,854	126,393
229,611	4,254	245,481	125,974
230,626	4,148	245,367	125,818
231,640	4,254	245,166	125,791
232,655	4,217	245,078	125,704
233,669	4,287	244,814	125,615
234,684	3,969	244,726	125,299
235,699	4,415	244,783	125,680
236,713	4,662	244,728	125,842
237,728	4,422	244,177	125,352
238,742	4,211	244,015	125,087
239,757	4,172	243,975	125,023
240,772	4,157	243,840	124,931
241,786	4,321	243,718	124,990
242,801	4,066	243,497	124,659
243,815	4,228	243,275	124,666
244,830	4,440	243,205	124,790
245,844	4,527	242,985	124,736
246,859	4,287	242,927	124,502
247,874	4,215	242,608	124,269
248,888	4,413	242,497	124,360
249,903	4,312	242,472	124,255
250,917	4,552	242,379	124,389
251,932	4,489	242,278	124,276
252,947	4,613	241,925	124,184
253,961	4,169	241,900	123,803
254,976	4,385	241,713	123,869
255,990	4,276	241,631	123,729
257,005	4,209	241,381	123,536
258,020	4,130	241,065	123,301
259,034	4,156	240,976	123,264
260,049	4,386	240,920	123,409
261,063	4,127	240,588	123,021
262,078	4,168	240,512	123,003
263,093	4,229	240,421	122,995
264,107	4,419	240,223	123,034
265,122	4,216	240,124	122,811
266,136	4,558	239,883	122,949
267,151	4,559	239,852	122,923
268,166	4,307	239,558	122,561
269,180	4,100	239,379	122,294
270,195	4,943	239,373	122,949
271,209	5,082	239,371	123,048
272,224	4,256	239,017	122,200
273,239	4,014	238,603	121,786
274,253	4,205	238,511	121,879
275,268	4,315	238,572	121,986
276,282	4,312	238,393	121,882
277,297	3,899	238,130	121,410
278,312	4,211	238,128	121,644
279,326	4,243	238,096	121,643
280,341	4,500	237,790	121,678
281,355	4,286	237,577	121,390
282,370	4,445	237,588	121,510
283,384	4,438	237,365	121,380
284,399	4,089	237,208	121,014
285,414	4,072	236,956	120,862
286,428	4,245	236,803	120,908
287,443	4,222	236,752	120,853
288,457	4,395	236,649	120,926
289,472	4,404	236,603	120,899
290,487	4,275	236,372	120,669
291,501	4,021	236,045	120,292
292,516	4,034	235,859	120,197
293,530	3,995	235,764	120,107
294,545	4,257	235,767	120,303
295,560	4,322	235,510	120,211
296,574	4,020	235,261	119,839
297,589	4,060	235,181	119,818
298,603	4,268	235,243	120,001
299,618	4,453	235,033	120,027
300,633	4,328	234,887	119,844
301,647	4,527	234,694	119,890
302,662	4,722	234,659	120,013
303,676	4,793	234,556	120,005
304,691	4,693	234,304	119,788
305,706	4,595	234,166	119,630
306,720	4,751	234,099	119,706
307,735	4,531	233,907	119,427
308,749	4,264	233,590	119,048
309,764	4,218	233,409	118,910
310,779	4,359	233,097	118,849
311,793	4,037	233,003	118,543
312,808	3,933	232,814	118,356
313,822	3,456	232,658	117,899
314,837	3,987	232,472	118,203
315,852	4,043	232,620	118,310
316,866	4,518	232,458	118,582
317,881	4,531	232,316	118,509
318,895	4,797	232,106	118,595
319,910	4,495	232,095	118,347
320,925	4,128	231,839	117,926
321,939	4,416	231,720	118,075
322,954	4,627	231,681	118,206
323,968	4,676	231,438	118,109
324,983	4,418	231,402	117,883
325,997	4,621	231,201	117,925
327,012	4,482	230,983	117,697
328,027	4,272	230,940	117,504
329,041	4,664	230,818	117,730
330,056	5,023	230,806	117,987
331,070	4,864	230,588	117,744
332,085	4,692	230,292	117,452
333,100	4,446	230,075	117,144
334,114	4,471	229,943	117,086
335,129	4,573	229,826	117,093
336,143	4,924	229,762	117,315
337,158	4,748	229,667	117,124
338,173	4,494	229,309	116,738
339,187	4,365	229,167	116,558
340,202	4,595	229,137	116,706
341,216	4,421	228,911	116,450
342,231	4,166	228,824	116,203
343,246	4,183	228,710	116,147
344,260	4,603	228,678	116,437
345,275	4,642	228,550	116,391
346,289	4,702	228,300	116,298
347,304	4,888	228,134	116,343
348,319	4,707	227,972	116,115
349,333	4,458	227,753	115,805
350,348	4,239	227,661	115,584
351,362	4,517	227,544	115,723
352,377	4,148	227,269	115,296
353,392	4,038	227,104	115,121
354,406	4,041	227,038	115,079
355,421	194,061	1321,891	1393,638
356,435	155,521	1455,263	1393,602
