DTS Sentinel unit serial number:	SN410029Multiplexer serial number:	ORYXHardware model number:	OX2-SRSoftware version number:	ORYX F/W v4,00 Oryx Data Collector v3.7.2.0data status	okinstallation	B5 Nyhavnadifferential loss correction	single-endedforward channel	channel 2reverse channel	N/Adate	2023/12/14time	18:22:13forward acquisition time	300,00reverse acquisition time	0,00gamma	499,1914k internal	0,3156k external	0,3156temperature offset calibration	1,0000default loss term (dB/km)	0,3820temperature slope calibration	1,0000multiplexer offset coefficient	1,0000multiplexer slope coefficient	1,0000fibre end	0,00T internal ref (°C)	8,44T ext. ref 1 (°C)	-6,83T ext. ref 2 (°C)	-6,87length (m)	temperature (°C)	Stokes	anti-Stokes-744,400	-56,944	0,075	-0,024
-743,385	-57,381	-0,308	0,099
-742,371	97,690	0,102	0,087
-741,356	-98,198	-0,348	-0,065
-740,342	-200,000	0,046	0,212
-739,327	-78,399	-0,360	-0,090
-738,312	-72,343	0,307	0,083
-737,298	-139,184	-0,385	-0,030
-736,283	-57,623	0,097	0,031
-735,269	0,729	-0,344	-0,181
-734,254	-180,708	0,108	-0,002
-733,239	-29,211	-0,495	-0,208
-732,225	195,167	0,133	0,150
-731,210	637,958	-0,096	0,181
-730,196	773,163	-0,033	-0,068
-729,181	-127,147	0,056	0,006
-728,167	-200,000	-0,031	-0,125
-727,152	-200,000	-0,031	-0,140
-726,137	-200,000	0,005	-0,072
-725,123	-97,426	-0,104	0,020
-724,108	-158,371	-0,098	0,004
-723,094	56,469	-0,047	0,034
-722,079	51,274	-0,014	-0,010
-721,064	-1,634	-0,134	0,069
-720,050	128,969	0,030	-0,028
-719,035	554,226	-0,067	0,119
-718,021	129,914	0,045	-0,042
-717,006	165,638	-0,117	-0,122
-715,991	203,419	0,061	-0,069
-714,977	800,000	-0,050	-0,119
-713,962	359,589	-0,066	-0,097
-712,948	-63,644	0,041	-0,012
-711,933	-200,000	-0,002	0,082
-710,918	64,453	0,041	-0,030
-709,904	377,514	-0,069	-0,104
-708,889	800,000	-0,034	-0,095
-707,875	-200,000	0,008	0,055
-706,860	800,000	0,027	0,082
-705,845	-200,000	-0,002	-0,113
-704,831	-200,000	-0,003	0,016
-703,816	800,000	0,014	-0,031
-702,802	8,569	0,106	-0,059
-701,787	40,882	-0,069	-0,046
-700,772	-96,743	-0,214	-0,041
-699,758	-200,000	-0,022	-0,088
-698,743	-200,000	0,010	-0,048
-697,729	50,948	0,107	-0,074
-696,714	-131,242	0,142	0,014
-695,699	-200,000	0,029	-0,108
-694,685	620,151	0,037	0,069
-693,670	800,000	-0,057	-0,137
-692,656	-34,993	0,020	0,008
-691,641	-138,169	0,018	-0,001
-690,627	95,238	-0,081	0,068
-689,612	-92,392	0,145	-0,030
-688,597	-167,252	-0,072	-0,002
-687,583	-33,585	0,052	0,021
-686,568	89,953	-0,063	0,052
-685,554	-63,582	0,076	-0,023
-684,539	800,000	-0,011	0,022
-683,524	-26,610	0,141	-0,061
-682,510	800,000	-0,041	-0,120
-681,495	470,189	0,002	-0,003
-680,481	-46,717	-0,108	-0,039
-679,466	58,205	0,032	0,023
-678,451	-200,000	0,006	-0,133
-677,437	245,402	0,021	0,026
-676,422	-97,886	-0,135	0,025
-675,408	61,916	0,100	0,073
-674,393	-111,056	-0,176	0,026
-673,378	-25,322	-0,182	0,079
-672,364	-100,714	-0,057	-0,010
-671,349	571,604	-0,051	-0,091
-670,335	-200,000	-0,025	-0,129
-669,320	-200,000	-0,021	-0,147
-668,305	77,680	-0,035	-0,027
-667,291	2,090	-0,190	0,101
-666,276	80,479	0,026	0,020
-665,262	-200,000	0,016	-0,163
-664,247	-30,119	0,057	-0,024
-663,232	381,348	0,054	-0,082
-662,218	-103,470	-0,152	-0,026
-661,203	362,802	0,072	0,106
-660,189	-132,030	-0,097	0,009
-659,174	-200,000	-0,017	-0,100
-658,159	-110,920	-0,139	0,021
-657,145	-97,200	-0,131	0,025
-656,130	-141,654	-0,120	-0,009
-655,116	-200,000	-0,013	0,083
-654,101	602,068	0,022	0,041
-653,086	-108,550	-0,127	-0,020
-652,072	194,340	0,051	0,057
-651,057	73,949	-0,046	-0,035
-650,043	202,280	-0,049	-0,056
-649,028	35,672	0,048	-0,031
-648,014	155,752	0,064	-0,065
-646,999	29,485	-0,108	-0,067
-645,984	187,455	-0,093	0,102
-644,970	-77,373	-0,027	0,007
-643,955	524,380	0,033	-0,058
-642,941	-200,000	0,018	0,102
-641,926	184,942	0,054	-0,059
-640,911	1,300	-0,104	-0,055
-639,897	-10,049	-0,080	-0,039
-638,882	-70,412	-0,049	0,014
-637,868	-200,000	0,058	-0,203
-636,853	-200,000	-0,036	-0,227
-635,838	7,537	0,038	0,021
-634,824	25,491	-0,034	0,021
-633,809	373,770	0,052	0,078
-632,795	-11,217	0,073	-0,035
-631,780	-84,868	0,038	-0,009
-630,765	-53,224	-0,085	0,029
-629,751	-200,000	0,007	-0,037
-628,736	-7,397	-0,065	-0,032
-627,722	5,178	-0,087	0,047
-626,707	286,998	-0,081	-0,108
-625,692	87,118	0,091	-0,074
-624,678	258,916	0,010	0,012
-623,663	-18,559	-0,102	0,046
-622,649	800,000	0,010	0,030
-621,634	365,564	0,051	-0,076
-620,619	255,988	0,107	-0,135
-619,605	137,998	-0,078	0,075
-618,590	260,957	0,118	0,151
-617,576	-158,664	-0,121	-0,005
-616,561	151,028	-0,048	0,048
-615,546	-200,000	-0,022	-0,096
-614,532	-71,608	-0,151	-0,041
-613,517	800,000	-0,032	0,092
-612,503	-96,115	0,152	-0,029
-611,488	-100,881	-0,028	0,005
-610,474	-83,063	0,093	-0,022
-609,459	49,840	0,106	-0,073
-608,444	496,011	-0,052	0,088
-607,430	-200,000	-0,016	-0,082
-606,415	-72,264	0,081	0,022
-605,401	53,017	0,039	0,027
-604,386	6,387	-0,017	0,009
-603,371	461,567	-0,127	0,209
-602,357	800,000	-0,033	0,076
-601,342	23,388	-0,177	0,107
-600,328	320,020	0,009	0,013
-599,313	779,348	0,041	0,083
-598,298	-3,166	-0,148	0,076
-597,284	-200,000	-0,001	-0,010
-596,269	800,000	0,043	-0,112
-595,255	-57,625	-0,025	-0,008
-594,240	176,876	-0,013	-0,014
-593,225	-200,000	-0,002	0,039
-592,211	-108,839	-0,064	0,010
-591,196	-200,000	0,008	0,106
-590,182	-190,332	0,065	-0,001
-589,167	800,000	-0,056	-0,137
-588,152	-200,000	0,005	-0,049
-587,138	800,000	0,035	-0,102
-586,123	561,704	-0,034	-0,060
-585,109	128,284	0,051	0,048
-584,094	49,883	0,040	0,028
-583,079	-113,826	-0,081	-0,011
-582,065	171,885	0,047	-0,049
-581,050	-200,000	-0,043	0,196
-580,036	40,060	-0,034	0,022
-579,021	800,000	0,037	0,081
-578,006	-200,000	-0,008	0,187
-576,992	-200,000	-0,031	-0,126
-575,977	100,890	-0,039	0,033
-574,963	-200,000	0,024	0,224
-573,948	-200,000	0,025	0,089
-572,934	173,677	0,045	0,047
-571,919	-33,473	-0,147	0,059
-570,904	-200,000	0,003	-0,036
-569,890	-200,000	-0,015	-0,079
-568,875	-31,257	-0,058	0,024
-567,861	-21,916	0,128	0,057
-566,846	-12,812	0,035	-0,016
-565,831	800,000	-0,021	0,054
-564,817	-200,000	-0,006	-0,036
-563,802	-82,165	-0,100	0,024
-562,788	73,756	0,045	-0,034
-561,773	-74,652	0,078	-0,020
-560,758	34,952	-0,101	0,065
-559,744	800,000	0,017	0,051
-558,729	400,111	-0,043	0,066
-557,715	-200,000	0,007	-0,035
-556,700	-200,000	0,006	-0,164
-555,685	-200,000	0,010	-0,118
-554,671	800,000	-0,097	-0,241
-553,656	-126,628	0,081	0,009
-552,642	101,030	0,084	0,072
-551,627	321,380	-0,053	-0,074
-550,612	-200,000	-0,002	-0,203
-549,598	800,000	-0,038	-0,111
-548,583	-135,757	-0,117	-0,010
-547,569	53,804	0,054	0,038
-546,554	800,000	0,017	-0,035
-545,539	800,000	0,028	0,077
-544,525	-200,000	0,011	0,096
-543,510	143,178	-0,046	-0,045
-542,496	-200,000	0,011	-0,136
-541,481	-9,019	-0,060	0,029
-540,466	124,349	0,130	-0,120
-539,452	-74,669	-0,085	0,022
-538,437	800,000	0,034	0,070
-537,423	800,000	-0,007	-0,017
-536,408	601,052	0,032	-0,058
-535,393	383,404	0,096	-0,145
-534,379	-142,453	-0,057	0,004
-533,364	800,000	-0,023	0,065
-532,350	78,347	0,039	0,031
-531,335	230,047	-0,057	-0,069
-530,321	-19,313	-0,053	-0,024
-529,306	-127,203	0,046	-0,005
-528,291	-156,079	0,079	-0,004
-527,277	-200,000	-0,016	-0,132
-526,262	-200,000	-0,029	0,110
-525,248	800,000	0,017	0,039
-524,233	-56,214	0,114	0,037
-523,218	130,668	0,116	-0,109
-522,204	11,975	-0,112	0,063
-521,189	800,000	-0,070	-0,184
-520,175	-200,000	0,005	-0,061
-519,160	99,606	-0,135	-0,114
-518,145	-104,862	0,100	0,017
-517,131	-83,424	-0,058	0,013
-516,116	-114,943	-0,032	0,004
-515,102	271,223	0,074	0,095
-514,087	3,260	0,083	0,044
-513,072	259,292	-0,029	-0,037
-512,058	-79,783	-0,032	0,008
-511,043	-150,963	0,094	0,005
-510,029	-200,000	-0,027	0,099
-509,014	-44,923	0,057	-0,021
-507,999	323,529	0,033	-0,045
-506,985	496,176	-0,046	-0,078
-505,970	785,556	0,046	0,093
-504,956	-200,000	-0,009	-0,064
-503,941	157,701	0,036	0,036
-502,926	-200,000	0,032	-0,108
-501,912	-46,345	-0,123	0,044
-500,897	-186,232	0,107	0,001
-499,883	-200,000	-0,023	-0,109
-498,868	800,000	-0,041	-0,098
-497,853	58,735	0,041	0,029
-496,839	101,273	0,059	0,050
-495,824	800,000	-0,030	0,094
-494,810	-200,000	0,025	0,104
-493,795	434,242	0,025	-0,039
-492,781	-119,126	-0,056	-0,007
-491,766	-98,079	-0,108	0,020
-490,751	800,000	0,034	-0,077
-489,737	-30,265	-0,130	0,054
-488,722	-25,979	0,176	-0,075
-487,708	255,566	-0,022	0,027
-486,693	341,540	-0,052	0,075
-485,678	-200,000	0,014	0,066
-484,664	211,622	-0,128	-0,148
-483,649	-200,000	0,006	-0,037
-482,635	73,816	0,046	0,035
-481,620	-83,824	0,091	0,021
-480,605	800,000	-0,065	0,157
-479,591	-200,000	-0,007	-0,036
-478,576	-86,330	-0,025	0,006
-477,562	-200,000	0,005	0,047
-476,547	-200,000	-0,048	-0,172
-475,532	27,804	0,081	-0,050
-474,518	-41,009	0,154	0,058
-473,503	-200,000	0,025	0,158
-472,489	-200,000	-0,002	-0,022
-471,474	-200,000	0,002	0,143
-470,459	800,000	-0,067	0,135
-469,445	800,000	-0,040	-0,103
-468,430	-18,487	-0,062	-0,028
-467,416	-104,641	0,088	-0,015
-466,401	231,360	-0,039	0,047
-465,386	-67,146	0,061	-0,018
-464,372	-126,919	0,114	-0,012
-463,357	-200,000	0,008	-0,057
-462,343	-200,000	-0,002	0,104
-461,328	293,018	-0,086	-0,115
-460,313	79,827	-0,005	-0,004
-459,299	-123,373	0,058	-0,007
-458,284	-12,534	-0,129	0,061
-457,270	317,787	-0,051	-0,070
-456,255	-200,000	-0,018	-0,075
-455,241	-66,038	0,051	-0,015
-454,226	62,392	-0,053	-0,039
-453,211	-200,000	0,034	-0,112
-452,197	-26,413	0,101	-0,043
-451,182	-200,000	0,017	-0,081
-450,168	-200,000	0,035	0,126
-449,153	-200,000	0,001	0,024
-448,138	42,440	-0,097	0,064
-447,124	-200,000	0,017	-0,133
-446,109	-200,000	0,002	0,056
-445,095	800,000	-0,045	-0,095
-444,080	138,427	-0,119	-0,114
-443,065	-147,306	0,045	-0,003
-442,051	-200,000	0,010	0,042
-441,036	256,820	-0,074	0,092
-440,022	-24,131	-0,082	-0,036
-439,007	-95,085	0,078	-0,015
-437,992	245,169	0,072	-0,089
-436,978	-3,585	0,235	-0,119
-435,963	-200,000	-0,025	0,082
-434,949	681,864	0,042	-0,079
-433,934	5,996	-0,134	0,072
-432,919	-7,358	-0,062	0,031
-431,905	800,000	0,041	-0,094
-430,890	85,922	-0,019	-0,015
-429,876	-200,000	0,018	0,092
-428,861	391,159	0,059	0,090
-427,846	-200,000	-0,023	0,103
-426,832	-200,000	0,005	0,069
-425,817	-93,857	-0,174	-0,035
-424,803	800,000	-0,032	-0,068
-423,788	-20,484	0,159	-0,071
-422,773	216,196	-0,074	-0,086
-421,759	24,232	0,042	0,025
-420,744	-76,361	0,083	-0,021
-419,730	-61,388	-0,079	-0,024
-418,715	-171,082	-0,092	0,002
-417,701	29,984	0,136	0,084
-416,686	-146,632	0,185	0,012
-415,671	329,712	0,023	0,033
-414,657	-113,777	0,093	0,013
-413,642	-7,024	0,057	0,028
-412,628	152,243	-0,077	0,077
-411,613	-40,712	-0,152	-0,057
-410,598	-200,000	0,010	-0,087
-409,584	-200,000	0,039	-0,127
-408,569	192,841	0,017	-0,019
-407,555	-123,631	0,131	0,015
-406,540	127,846	0,093	0,086
-405,525	800,000	-0,020	-0,058
-404,511	-61,541	-0,152	-0,046
-403,496	68,091	-0,099	0,074
-402,482	40,581	0,092	0,060
-401,467	-200,000	-0,025	0,114
-400,452	445,355	0,103	0,165
-399,438	-200,000	0,019	0,165
-398,423	285,185	-0,067	-0,088
-397,409	168,090	0,056	0,058
-396,394	-124,624	-0,129	-0,014
-395,379	-24,973	-0,125	-0,054
-394,365	64,448	-0,032	-0,023
-393,350	-200,000	0,000	-0,049
-392,336	55,901	-0,084	-0,059
-391,321	800,000	0,023	0,065
-390,306	112,696	-0,023	0,020
-389,292	-200,000	-0,012	-0,088
-388,277	144,133	-0,128	-0,125
-387,263	-59,887	0,098	0,030
-386,248	-200,000	-0,039	0,131
-385,233	11,094	-0,040	0,022
-384,219	-65,850	0,121	0,035
-383,204	800,000	-0,046	0,120
-382,190	-96,919	-0,120	-0,023
-381,175	800,000	-0,037	-0,113
-380,160	186,775	-0,080	0,087
-379,146	188,953	0,087	0,095
-378,131	-22,456	0,019	-0,008
-377,117	-99,629	0,037	-0,007
-376,102	-147,314	0,052	-0,003
-375,088	800,000	-0,034	-0,070
-374,073	800,000	0,044	-0,131
-373,058	800,000	0,067	-0,140
-372,044	-118,493	-0,052	0,007
-371,029	-200,000	-0,010	-0,045
-370,015	800,000	-0,013	0,027
-369,000	28,281	-0,101	-0,062
-367,985	168,604	0,070	-0,073
-366,971	-13,259	-0,040	-0,019
-365,956	-15,061	-0,011	0,005
-364,942	47,070	0,052	0,035
-363,927	-80,079	0,124	0,030
-362,912	800,000	0,031	-0,086
-361,898	-17,826	-0,019	0,009
-360,883	-104,421	-0,178	-0,030
-359,869	98,840	0,011	0,009
-358,854	-112,360	0,131	-0,019
-357,839	65,995	0,043	-0,032
-356,825	146,347	-0,074	0,072
-355,810	-106,896	0,103	0,016
-354,796	-84,495	-0,126	-0,029
-353,781	-157,021	-0,073	-0,003
-352,766	0,033	0,055	-0,028
-351,752	1,411	0,032	-0,017
-350,737	800,000	0,035	0,107
-349,723	-200,000	-0,018	0,131
-348,708	233,619	0,133	0,159
-347,693	800,000	-0,018	0,046
-346,679	27,489	0,047	-0,029
-345,664	-19,245	0,064	-0,029
-344,650	129,106	0,103	-0,096
-343,635	37,823	0,068	0,044
-342,620	-95,606	-0,039	0,008
-341,606	162,529	0,151	0,154
-340,591	-69,234	-0,073	-0,020
-339,577	-76,658	-0,185	-0,047
-338,562	247,668	-0,078	0,096
-337,548	-139,693	-0,090	0,007
-336,533	800,000	0,024	0,049
-335,518	-200,000	0,031	0,142
-334,504	46,414	0,049	-0,033
-333,489	-200,000	0,001	0,043
-332,475	800,000	-0,023	0,048
-331,460	800,000	0,022	-0,053
-330,445	-200,000	-0,028	0,107
-329,431	483,344	0,021	-0,035
-328,416	-4,145	0,118	0,059
-327,402	148,256	0,009	0,009
-326,387	68,593	-0,048	-0,036
-325,372	-99,050	-0,061	-0,011
-324,358	-177,785	-0,118	-0,002
-323,343	-200,000	-0,000	-0,080
-322,329	-77,024	0,249	-0,063
-321,314	-149,524	0,133	0,008
-320,299	-132,728	0,043	0,004
-319,285	788,750	-0,055	-0,111
-318,270	800,000	0,022	0,054
-317,256	-200,000	-0,004	-0,153
-316,241	43,646	0,137	-0,090
-315,226	357,563	0,140	-0,203
-314,212	211,184	-0,063	0,072
-313,197	800,000	0,039	0,089
-312,183	800,000	0,037	0,089
-311,168	-200,000	-0,032	-0,191
-310,153	353,447	-0,045	0,064
-309,139	-17,075	0,100	-0,046
-308,124	51,957	0,023	-0,016
-307,110	800,000	-0,020	0,041
-306,095	261,348	-0,017	-0,022
-305,080	-115,022	0,055	0,008
-304,066	110,641	-0,077	-0,067
-303,051	173,509	-0,061	-0,064
-302,037	-200,000	-0,031	-0,161
-301,022	-108,482	0,127	0,020
-300,008	-200,000	0,033	-0,106
-298,993	-84,555	-0,061	-0,014
-297,978	79,181	0,109	-0,085
-296,964	48,712	0,105	0,072
-295,949	104,919	-0,102	0,087
-294,935	-200,000	-0,003	-0,032
-293,920	-76,430	-0,028	-0,007
-292,905	800,000	-0,020	-0,059
-291,891	800,000	0,047	0,133
-290,876	376,675	0,030	0,045
-289,862	-200,000	-0,001	-0,047
-288,847	-157,608	-0,046	-0,002
-287,832	48,719	0,025	0,017
-286,818	-127,263	0,042	0,004
-285,803	189,534	0,057	-0,062
-284,789	800,000	0,015	-0,039
-283,774	-141,159	0,181	0,013
-282,759	-13,121	-0,072	-0,034
-281,745	-200,000	0,017	-0,072
-280,730	322,762	-0,020	-0,028
-279,716	-200,000	0,009	-0,120
-278,701	192,726	-0,121	-0,132
-277,686	-40,555	0,114	0,043
-276,672	-43,124	0,120	0,044
-275,657	-69,861	-0,084	-0,023
-274,643	499,875	0,026	0,044
-273,628	502,398	-0,093	-0,156
-272,613	601,083	0,033	0,060
-271,599	235,176	0,096	0,114
-270,584	-200,000	0,009	0,128
-269,570	800,000	0,023	-0,049
-268,555	0,260	-0,065	-0,033
-267,540	-200,000	-0,016	-0,064
-266,526	-109,483	-0,102	-0,015
-265,511	40,706	0,049	-0,032
-264,497	422,968	0,045	-0,070
-263,482	14,681	0,072	-0,040
-262,467	-105,117	0,027	0,005
-261,453	-97,915	-0,127	0,023
-260,438	181,600	0,062	0,066
-259,424	-200,000	0,027	0,149
-258,409	-38,934	-0,036	0,014
-257,395	21,474	0,121	-0,071
-256,380	3,771	0,066	0,035
-255,365	333,241	0,055	0,077
-254,351	-4,747	-0,136	0,068
-253,336	-138,594	0,070	-0,005
-252,322	-21,417	-0,126	-0,056
-251,307	128,685	0,054	0,050
-250,292	-47,780	-0,085	0,030
-249,278	114,133	0,033	0,029
-248,263	-200,000	0,002	0,127
-247,249	64,328	0,009	-0,006
-246,234	-113,699	0,052	-0,007
-245,219	-155,264	-0,137	-0,006
-244,205	-149,905	-0,008	-0,000
-243,190	59,368	-0,053	-0,038
-242,176	579,887	0,031	0,055
-241,161	-200,000	0,011	0,088
-240,146	98,846	-0,054	0,045
-239,132	453,555	-0,038	-0,061
-238,117	-200,000	-0,008	-0,062
-237,103	55,187	-0,105	-0,073
-236,088	411,079	-0,061	-0,094
-235,073	76,233	0,074	0,057
-234,059	-200,000	0,011	-0,066
-233,044	-200,000	-0,026	0,123
-232,030	132,979	-0,103	0,096
-231,015	40,020	-0,111	-0,072
-230,000	-200,000	-0,005	-0,137
-228,986	169,040	-0,017	-0,017
-227,971	-67,248	0,072	-0,020
-226,957	-200,000	-0,001	0,160
-225,942	360,661	-0,083	0,120
-224,927	-120,811	-0,073	0,009
-223,913	-200,000	-0,006	0,055
-222,898	206,660	-0,098	0,110
-221,884	-82,019	0,124	-0,029
-220,869	-200,000	-0,008	0,048
-219,855	800,000	0,018	0,042
-218,840	-105,915	0,142	0,023
-217,825	488,920	-0,039	0,065
-216,811	800,000	0,060	-0,131
-215,796	437,011	-0,027	0,043
-214,782	800,000	-0,020	0,045
-213,767	-3,141	-0,065	0,033
-212,752	800,000	0,054	0,134
-211,738	-200,000	0,020	0,133
-210,723	618,840	0,027	-0,050
-209,709	-200,000	-0,006	-0,103
-208,694	800,000	-0,019	-0,044
-207,679	-180,833	0,035	0,001
-206,665	-46,248	0,102	-0,036
-205,650	630,852	0,033	0,061
-204,636	383,491	0,094	0,140
-203,621	45,709	0,110	0,073
-202,606	-200,000	-0,007	-0,215
-201,592	-172,005	-0,017	0,000
-200,577	800,000	-0,043	-0,092
-199,563	-200,000	-0,015	-0,123
-198,548	800,000	-0,050	-0,108
-197,533	800,000	0,026	0,058
-196,519	800,000	-0,021	-0,060
-195,504	-200,000	0,008	0,072
-194,490	-86,958	-0,148	0,032
-193,475	-75,060	-0,084	0,021
-192,460	-29,980	0,042	-0,017
-191,446	386,395	0,032	0,048
-190,431	-117,887	0,070	-0,009
-189,417	183,644	0,052	0,056
-188,402	-200,000	-0,042	-0,142
-187,387	-42,427	-0,053	-0,019
-186,373	-133,744	-0,036	-0,003
-185,358	-53,509	-0,069	0,023
-184,344	800,000	0,051	0,153
-183,329	-54,181	0,046	0,015
-182,315	-200,000	-0,019	0,116
-181,300	-87,662	-0,171	-0,037
-180,285	-200,000	-0,003	0,072
-179,271	-200,000	-0,011	-0,061
-178,256	81,456	-0,037	0,029
-177,242	90,027	0,121	0,097
-176,227	-200,000	-0,023	0,074
-175,212	-107,549	0,041	0,006
-174,198	-92,415	-0,051	-0,010
-173,183	-64,244	-0,164	-0,048
-172,169	-19,534	0,052	-0,023
-171,154	115,956	-0,080	-0,070
-170,139	-104,862	-0,115	0,019
-169,125	-72,192	0,053	-0,014
-168,110	800,000	0,017	0,038
-167,096	-104,508	-0,051	-0,008
-166,081	-107,359	0,091	-0,014
-165,066	-61,420	-0,129	-0,039
-164,052	800,000	-0,043	0,092
-163,037	-86,490	0,110	0,024
-162,023	86,546	0,193	0,153
-161,008	-200,000	0,008	0,027
-159,993	800,000	0,025	0,055
-158,979	-200,000	-0,034	-0,109
-157,964	48,018	-0,032	0,022
-156,950	235,913	0,024	-0,029
-155,935	114,230	0,046	0,040
-154,920	-200,000	0,035	0,155
-153,906	26,378	-0,130	0,078
-152,891	344,586	0,056	0,079
-151,877	455,189	-0,023	-0,036
-150,862	-10,794	-0,124	-0,059
-149,847	-168,022	-0,064	0,002
-148,833	374,157	-0,039	0,058
-147,818	-200,000	-0,004	0,150
-146,804	-76,274	0,103	-0,026
-145,789	-200,000	-0,041	0,153
-144,775	252,763	0,046	-0,057
-143,760	476,730	-0,046	-0,075
-142,745	800,000	-0,033	0,073
-141,731	-200,000	0,004	0,045
-140,716	-200,000	0,002	0,012
-139,702	-200,000	0,012	-0,049
-138,687	-200,000	-0,004	0,096
-137,672	-112,621	0,152	0,022
-136,658	-84,277	-0,087	-0,020
-135,643	3,080	0,037	0,020
-134,629	-200,000	0,018	0,127
-133,614	800,000	0,064	-0,133
-132,599	258,875	0,030	0,037
-131,585	-3,819	-0,068	0,034
-130,570	-200,000	-0,017	-0,072
-129,556	800,000	0,015	-0,035
-128,541	-126,057	0,154	-0,016
-127,526	0,056	0,062	0,032
-126,512	-200,000	0,027	0,170
-125,497	800,000	0,011	0,031
-124,483	-99,010	-0,070	0,013
-123,468	13,928	0,012	0,007
-122,453	353,701	0,087	-0,124
-121,439	195,762	0,015	-0,016
-120,424	-67,670	0,116	0,033
-119,410	260,029	0,090	0,113
-118,395	-200,000	-0,005	0,179
-117,380	-200,000	-0,039	0,132
-116,366	-200,000	-0,001	0,076
-115,351	-200,000	-0,003	-0,069
-114,337	-138,527	0,023	-0,002
-113,322	-200,000	0,042	-0,179
-112,307	-78,943	0,112	0,027
-111,293	-170,467	0,203	0,005
-110,278	800,000	0,013	0,031
-109,264	-61,250	-0,083	0,025
-108,249	-75,938	-0,156	0,039
-107,234	178,529	0,014	0,015
-106,220	46,043	0,038	-0,026
-105,205	-32,381	0,097	-0,039
-104,191	-128,536	0,057	0,006
-103,176	280,148	0,106	-0,137
-102,162	263,126	-0,050	-0,063
-101,147	759,134	-0,065	0,128
-100,132	-200,000	0,016	-0,107
-99,118	577,670	0,069	-0,122
-98,103	191,978	0,093	0,101
-97,089	-200,000	0,021	0,079
-96,074	-200,000	0,025	0,150
-95,059	346,240	-0,084	-0,119
-94,045	-54,613	-0,115	0,037
-93,030	-126,138	-0,073	-0,008
-92,016	800,000	-0,016	0,052
-91,001	139,680	-0,078	-0,074
-89,986	125,122	0,086	0,078
-88,972	12,875	-0,058	0,032
-87,957	-200,000	0,007	0,048
-86,943	510,510	-0,046	-0,077
-85,928	667,598	0,009	0,017
-84,913	-0,728	-0,162	0,082
-83,899	-200,000	0,001	0,136
-82,884	74,832	0,128	0,097
-81,870	-200,000	-0,041	0,203
-80,855	187,818	-0,049	0,052
-79,840	-200,000	-0,003	-0,077
-78,826	-200,000	0,049	0,000
-77,811	-129,062	-0,022	-0,002
-76,797	757,498	0,025	0,048
-75,782	223,599	0,056	-0,065
-74,767	469,470	0,067	-0,108
-73,753	342,692	0,014	0,019
-72,738	800,000	0,011	0,022
-71,724	419,481	-0,106	-0,163
-70,709	211,155	0,109	-0,124
-69,694	320,408	0,067	0,091
-68,680	476,586	0,033	0,054
-67,665	-27,179	0,151	-0,063
-66,651	-25,458	-0,053	0,022
-65,636	-69,710	-0,116	-0,032
-64,622	14,765	-0,145	-0,081
-63,607	-200,000	-0,000	0,027
-62,592	173,664	-0,025	0,026
-61,578	597,618	-0,055	0,098
-60,563	44,986	0,094	-0,062
-59,549	-200,000	-0,012	0,115
-58,534	66,917	-2,599	-1,899
-57,519	-8,460	0,573	-0,275
-56,505	800,000	-1,788	-5,371
-55,490	444,702	1,246	1,972
-54,476	800,000	5,269	11,190
-53,461	-200,000	21,876	343,983
-52,446	800,000	762,193	2304,537
-51,432	514,735	1653,270	2781,418
-50,417	102,890	1617,271	1359,332
-49,403	72,786	1272,732	953,000
-48,388	25,064	1021,417	607,093
-47,373	19,007	988,135	567,256
-46,359	13,193	975,332	540,791
-45,344	9,089	971,860	525,359
-44,330	9,641	969,791	526,032
-43,315	8,571	968,039	521,552
-42,300	8,467	966,893	520,574
-41,286	8,490	965,733	520,004
-40,271	8,473	964,808	519,428
-39,257	8,523	963,861	519,060
-38,242	8,461	963,064	518,409
-37,227	8,457	962,280	517,955
-36,213	8,467	961,365	517,472
-35,198	8,400	960,748	516,904
-34,184	8,487	959,974	516,748
-33,169	8,463	958,885	516,063
-32,154	8,532	957,853	515,711
-31,140	8,512	957,071	515,206
-30,125	8,512	956,324	514,785
-29,111	8,513	955,582	514,368
-28,096	8,489	954,797	513,847
-27,082	8,481	954,260	513,512
-26,067	8,442	953,639	513,030
-25,052	8,411	952,729	512,419
-24,038	8,434	951,981	512,072
-23,023	8,444	951,317	511,726
-22,009	8,493	950,780	511,574
-20,994	8,520	950,098	511,276
-19,979	8,466	949,620	510,824
-18,965	8,478	948,939	510,474
-17,950	8,466	948,311	510,078
-16,936	8,446	947,633	509,630
-15,921	8,413	946,794	509,053
-14,906	8,416	946,091	508,663
-13,892	8,371	945,604	508,237
-12,877	8,364	944,882	507,808
-11,863	8,348	944,496	507,529
-10,848	8,373	943,803	507,215
-9,833	8,447	943,327	507,177
-8,819	8,369	942,539	506,484
-7,804	8,334	941,827	505,969
-6,790	8,315	941,381	505,649
-5,775	8,471	940,799	505,813
-4,760	8,359	940,319	505,180
-3,746	8,355	939,564	504,739
-2,731	8,254	938,766	503,970
-1,717	8,179	938,495	503,566
-0,702	8,221	937,717	503,264
0,313	8,014	937,126	503,049
1,327	11,581	934,631	512,948
2,342	20,419	782,756	452,838
3,356	15,695	449,740	253,023
4,371	-10,534	313,240	148,278
5,386	-14,105	295,706	136,345
6,400	-16,309	289,893	131,461
7,415	-16,783	286,857	129,606
8,429	-17,607	285,105	127,997
9,444	-17,742	284,093	127,400
10,459	-17,772	283,578	127,127
11,473	-17,832	282,857	126,735
12,488	-17,559	282,361	126,766
13,502	-17,653	281,870	126,443
14,517	-17,684	281,481	126,228
15,531	-17,913	281,096	125,824
16,546	-17,898	280,708	125,653
17,561	-17,886	280,105	125,383
18,575	-17,834	279,741	125,259
19,590	-17,933	279,499	125,045
20,604	-17,696	279,245	125,146
21,619	-17,858	278,862	124,809
22,634	-17,684	278,402	124,758
23,648	-17,864	278,238	124,502
24,663	-17,784	277,912	124,421
25,677	-17,657	277,675	124,424
26,692	-17,844	277,432	124,127
27,707	-17,832	277,093	123,975
28,721	-17,803	277,006	123,953
29,736	-17,753	276,481	123,754
30,750	-17,709	276,184	123,652
31,765	-17,639	276,177	123,704
32,780	-17,797	275,956	123,445
33,794	-17,914	275,602	123,165
34,809	-17,680	275,212	123,200
35,823	-17,792	275,032	123,003
36,838	-17,740	274,765	122,922
37,853	-17,549	274,447	122,947
38,867	-17,638	274,322	122,797
39,882	-17,733	274,118	122,606
40,896	-17,718	273,846	122,487
41,911	-17,686	273,482	122,343
42,926	-17,707	273,281	122,223
43,940	-17,779	273,074	122,052
44,955	-17,702	272,792	121,987
45,969	-17,740	272,699	121,900
46,984	-17,700	272,381	121,783
47,999	-17,691	272,250	121,723
49,013	-17,561	272,034	121,736
50,028	-17,600	271,697	121,538
51,042	-17,689	271,600	121,402
52,057	-17,889	271,414	121,121
53,071	-17,641	271,093	121,198
54,086	-17,746	271,011	121,052
55,101	-17,502	270,600	121,084
56,115	-17,517	270,236	120,896
57,130	-17,490	270,079	120,840
58,144	-17,845	269,947	120,443
59,159	-17,732	269,698	120,425
60,174	-17,736	269,525	120,334
61,188	-17,831	269,252	120,114
62,203	-17,671	268,946	120,114
63,217	-17,707	268,812	120,010
64,232	-17,523	268,589	120,068
65,247	-17,812	268,357	119,689
66,261	-17,817	268,203	119,605
67,276	-17,728	267,812	119,502
68,290	-17,888	267,639	119,268
69,305	-17,461	267,310	119,500
70,320	-17,630	267,246	119,307
71,334	-17,591	267,057	119,247
72,349	-17,731	266,622	118,915
73,363	-17,710	266,554	118,892
74,378	-17,729	266,238	118,724
75,393	-17,449	265,983	118,854
76,407	-17,566	265,894	118,698
77,422	-17,614	265,609	118,517
78,436	-17,489	265,420	118,535
79,451	-17,661	265,012	118,186
80,466	-17,599	264,919	118,190
81,480	-17,522	264,710	118,156
82,495	-17,563	264,508	118,018
83,509	-17,488	264,512	118,077
84,524	-17,618	264,002	117,722
85,539	-17,489	263,904	117,784
86,553	-17,506	263,593	117,619
87,568	-17,653	263,465	117,419
88,582	-17,791	263,302	117,213
89,597	-17,710	263,131	117,199
90,611	-17,568	262,898	117,212
91,626	-17,600	262,740	117,102
92,641	-17,609	262,464	116,961
93,655	-17,636	262,278	116,843
94,670	-17,707	262,133	116,705
95,684	-17,549	261,912	116,738
96,699	-17,646	261,506	116,460
97,714	-17,759	261,497	116,344
98,728	-17,615	261,241	116,349
99,743	-17,478	261,023	116,363
100,757	-17,655	260,947	116,160
101,772	-17,508	260,677	116,161
102,787	-17,566	260,433	115,990
103,801	-17,546	260,247	115,914
104,816	-17,480	259,996	115,852
105,830	-17,686	259,939	115,633
106,845	-17,767	259,842	115,508
107,860	-17,601	259,541	115,511
108,874	-17,821	259,236	115,170
109,889	-17,420	258,931	115,378
110,903	-17,669	258,769	115,077
111,918	-17,526	258,666	115,145
112,933	-17,568	258,313	114,942
113,947	-17,547	258,190	114,896
114,962	-17,433	257,875	114,845
115,976	-17,685	257,839	114,597
116,991	-17,573	257,565	114,564
118,006	-17,559	257,407	114,495
119,020	-17,496	257,188	114,443
120,035	-17,455	257,093	114,427
121,049	-17,444	256,966	114,369
122,064	-17,423	256,819	114,312
123,079	-17,619	256,425	113,955
124,093	-17,543	256,309	113,960
125,108	-17,621	256,159	113,815
126,122	-17,634	255,826	113,646
127,137	-17,531	255,615	113,631
128,151	-17,421	255,529	113,678
129,166	-17,447	255,433	113,603
130,181	-17,530	255,049	113,350
131,195	-17,612	254,823	113,169
132,210	-17,580	254,651	113,110
133,224	-17,386	254,257	113,092
134,239	-17,706	254,536	112,929
135,254	-17,371	254,002	112,972
136,268	-17,503	254,003	112,849
137,283	-17,457	253,716	112,750
138,297	-17,355	253,440	112,705
139,312	-17,353	253,267	112,620
140,327	-17,509	253,098	112,401
141,341	-17,564	252,737	112,184
142,356	-17,487	252,856	112,292
143,370	-17,332	252,471	112,244
144,385	-17,534	252,392	112,026
145,400	-17,481	252,030	111,901
146,414	-17,537	251,976	111,819
147,429	-17,448	251,654	111,741
148,443	-17,572	251,542	111,576
149,458	-17,539	251,396	111,530
150,473	-17,411	251,312	111,592
151,487	-17,532	251,177	111,418
152,502	-17,431	250,819	111,336
153,516	-17,581	250,730	111,159
154,531	-17,376	250,465	111,205
155,546	-17,571	250,317	110,965
156,560	-17,501	250,152	110,941
157,575	-17,379	249,939	110,940
158,589	-17,148	249,649	110,996
159,604	-17,519	249,404	110,564
160,619	-17,462	249,423	110,611
161,633	-17,265	249,025	110,591
162,648	-17,399	248,994	110,454
163,662	-17,559	248,957	110,293
164,677	-17,464	248,575	110,194
165,692	-17,375	248,464	110,210
166,706	-17,332	248,377	110,197
167,721	-17,522	248,351	110,017
168,735	-17,433	248,089	109,966
169,750	-17,523	247,937	109,813
170,764	-17,465	247,823	109,801
171,779	-17,673	247,526	109,485
172,794	-17,382	247,339	109,636
173,808	-17,344	247,251	109,619
174,823	-17,226	246,950	109,575
175,837	-17,316	246,829	109,436
176,852	-17,327	246,570	109,302
177,867	-17,567	246,449	109,039
178,881	-17,568	246,407	109,009
179,896	-17,476	246,092	108,937
180,910	-17,616	245,930	108,740
181,925	-17,501	245,884	108,805
182,940	-17,472	245,623	108,703
183,954	-17,460	245,538	108,666
184,969	-17,553	245,215	108,437
185,983	-17,444	245,042	108,441
186,998	-17,391	245,029	108,469
188,013	-17,368	244,675	108,322
189,027	-17,553	244,584	108,119
190,042	-17,397	244,530	108,214
191,056	-17,479	244,243	108,010
192,071	-17,405	244,059	107,980
193,086	-17,328	243,933	107,978
194,100	-17,432	243,789	107,819
195,115	-17,460	243,556	107,684
196,129	-17,232	243,166	107,689
197,144	-17,544	243,183	107,430
198,159	-17,453	243,008	107,418
199,173	-17,392	242,801	107,367
200,188	-17,474	242,693	107,242
201,202	-17,370	242,467	107,219
202,217	-17,418	242,265	107,080
203,232	-17,375	242,006	106,991
204,246	-17,252	241,877	107,025
205,261	-17,068	241,782	107,123
206,275	-15,489	242,203	108,590
207,290	-11,359	243,666	112,626
208,304	-6,033	245,419	117,822
209,319	-2,955	246,135	120,698
210,334	-2,574	246,399	121,131
211,348	-1,681	246,363	121,840
212,363	-1,191	246,385	122,244
213,377	-0,619	246,471	122,748
214,392	-0,203	246,512	123,100
215,407	0,171	246,455	123,369
216,421	0,293	246,221	123,342
217,436	0,230	246,076	123,206
218,450	0,512	245,765	123,271
219,465	0,443	245,854	123,248
220,480	0,515	245,695	123,217
221,494	0,425	245,596	123,082
222,509	0,049	245,352	122,641
223,523	0,020	244,958	122,409
224,538	0,083	244,867	122,404
225,553	-0,125	244,750	122,164
226,567	0,000	244,488	122,125
227,582	-0,032	244,445	122,067
228,596	0,060	244,243	122,030
229,611	0,002	244,133	121,917
230,626	-0,168	243,956	121,679
231,640	-0,029	243,749	121,678
232,655	-0,170	243,570	121,463
233,669	-0,085	243,310	121,392
234,684	-0,366	243,361	121,177
235,699	-0,087	243,085	121,256
236,713	0,171	242,913	121,368
237,728	-0,018	242,769	121,133
238,742	0,066	242,467	121,039
239,757	-0,173	242,466	120,834
240,772	0,007	242,292	120,882
241,786	-0,036	242,132	120,757
242,801	-0,052	242,073	120,704
243,815	-0,170	241,959	120,541
244,830	-0,189	241,819	120,445
245,844	-0,176	241,495	120,284
246,859	-0,201	241,376	120,193
247,874	-0,013	241,133	120,213
248,888	-0,144	241,022	120,041
249,903	-0,007	240,843	120,052
250,917	-0,103	240,713	119,900
251,932	-0,064	240,607	119,867
252,947	-0,049	240,476	119,803
253,961	-0,095	240,219	119,627
254,976	0,021	239,857	119,529
255,990	-0,070	239,951	119,493
257,005	0,028	239,744	119,457
258,020	-0,117	239,749	119,333
259,034	-0,193	239,516	119,146
260,049	-0,025	239,272	119,148
261,063	0,146	239,040	119,158
262,078	-0,038	238,968	118,965
263,093	-0,171	238,728	118,729
264,107	0,075	238,712	118,906
265,122	0,113	238,274	118,707
266,136	-0,051	238,375	118,618
267,151	0,107	238,186	118,638
268,166	0,009	237,991	118,452
269,180	-0,095	237,856	118,292
270,195	-0,141	237,773	118,204
271,209	0,085	237,483	118,228
272,224	-0,168	237,547	118,049
273,239	-0,069	237,317	118,003
274,253	0,010	237,081	117,937
275,268	0,021	236,859	117,825
276,282	-0,110	236,862	117,712
277,297	-0,013	236,584	117,640
278,312	-0,206	236,588	117,480
279,326	-0,014	236,308	117,482
280,341	0,017	236,143	117,413
281,355	-0,001	236,128	117,381
282,370	0,166	235,838	117,357
283,384	-0,003	235,722	117,157
284,399	0,166	235,582	117,209
285,414	0,049	235,461	117,047
286,428	-0,081	235,448	116,928
287,443	-0,165	235,124	116,692
288,457	0,102	235,065	116,860
289,472	0,142	234,835	116,767
290,487	-0,112	234,723	116,502
291,501	0,013	234,498	116,477
292,516	0,130	234,356	116,488
293,530	0,033	234,351	116,399
294,545	0,138	234,298	116,444
295,560	0,031	233,957	116,181
296,574	0,388	233,867	116,403
297,589	0,179	233,636	116,116
298,603	0,080	233,513	115,968
299,618	0,174	233,479	116,014
300,633	0,079	233,144	115,763
301,647	0,200	233,179	115,864
302,662	0,279	233,073	115,862
303,676	0,313	232,782	115,734
304,691	0,226	232,652	115,591
305,706	0,128	232,625	115,492
306,720	0,359	232,396	115,546
307,735	0,099	232,429	115,352
308,749	0,372	232,161	115,419
309,764	0,317	231,979	115,276
310,779	0,599	231,741	115,364
311,793	0,380	231,563	115,096
312,808	0,221	231,490	114,928
313,822	0,062	231,388	114,745
314,837	0,095	231,250	114,692
315,852	0,338	230,919	114,704
316,866	0,396	230,878	114,718
317,881	0,296	230,772	114,578
318,895	0,275	230,532	114,432
319,910	0,385	230,519	114,500
320,925	0,306	230,381	114,361
321,939	0,305	230,143	114,232
322,954	0,363	230,022	114,205
323,968	0,471	229,865	114,199
324,983	0,425	229,728	114,086
325,997	0,267	229,710	113,947
327,012	0,433	229,407	113,913
328,027	0,335	229,295	113,772
329,041	0,434	229,198	113,789
330,056	0,593	228,876	113,740
331,070	0,484	228,867	113,642
332,085	0,648	228,577	113,612
333,100	0,473	228,418	113,392
334,114	0,395	228,416	113,321
335,129	0,480	228,178	113,257
336,143	0,384	228,163	113,167
337,158	0,577	227,825	113,135
338,173	0,568	227,833	113,122
339,187	0,490	227,697	112,985
340,202	0,570	227,560	112,968
341,216	0,545	227,547	112,933
342,231	0,500	227,216	112,724
343,246	0,588	227,002	112,674
344,260	0,660	226,913	112,674
345,275	0,638	226,860	112,621
346,289	0,699	226,737	112,596
347,304	0,708	226,555	112,502
348,319	0,747	226,388	112,438
349,333	0,395	226,448	112,194
350,348	0,705	226,036	112,211
351,362	0,669	226,018	112,166
352,377	0,540	225,881	111,992
353,392	0,542	225,721	111,904
354,406	0,548	225,539	111,808
355,421	192,226	1312,063	1378,528
356,435	153,983	1444,292	1378,376
