DTS Sentinel unit serial number:	SN410029Multiplexer serial number:	ORYXHardware model number:	OX2-SRSoftware version number:	ORYX F/W v4,00 Oryx Data Collector v3.7.2.0data status	okinstallation	B5 Nyhavnadifferential loss correction	single-endedforward channel	channel 2reverse channel	N/Adate	2023/12/13time	22:37:13forward acquisition time	300,00reverse acquisition time	0,00gamma	499,1914k internal	0,3154k external	0,3154temperature offset calibration	1,0000default loss term (dB/km)	0,3820temperature slope calibration	1,0000multiplexer offset coefficient	1,0000multiplexer slope coefficient	1,0000fibre end	0,00T internal ref (°C)	9,28T ext. ref 1 (°C)	-7,42T ext. ref 2 (°C)	-7,45length (m)	temperature (°C)	Stokes	anti-Stokes-744,400	86,716	0,092	-0,075
-743,385	-74,001	-0,325	-0,086
-742,371	-100,539	0,211	-0,038
-741,356	-38,581	-0,273	-0,106
-740,342	-193,263	0,245	0,002
-739,327	-143,592	-0,316	-0,022
-738,312	-74,739	0,153	0,040
-737,298	-154,262	-0,409	-0,020
-736,283	-44,957	0,177	0,065
-735,269	-159,069	-0,228	0,009
-734,254	-173,604	0,213	-0,005
-733,239	28,346	-0,599	-0,373
-732,225	102,618	0,113	0,097
-731,210	800,000	-0,026	0,057
-730,196	334,566	-0,008	-0,012
-729,181	-87,047	-0,105	-0,023
-728,167	-162,082	0,112	-0,004
-727,152	416,803	0,050	0,080
-726,137	-109,847	-0,066	0,010
-725,123	434,676	-0,043	0,069
-724,108	-105,307	-0,141	-0,024
-723,094	-200,000	-0,027	-0,223
-722,079	800,000	-0,011	-0,026
-721,064	319,621	0,023	-0,032
-720,050	-92,694	-0,081	0,017
-719,035	274,145	-0,061	0,079
-718,021	-200,000	-0,005	-0,041
-717,006	-53,047	-0,098	0,033
-715,991	800,000	-0,082	-0,200
-714,977	-19,910	-0,082	-0,037
-713,962	18,148	0,088	0,052
-712,948	3,711	0,146	0,078
-711,933	-18,124	-0,179	0,082
-710,918	493,417	0,049	-0,083
-709,904	-36,895	-0,133	-0,052
-708,889	126,043	-0,120	-0,112
-707,875	-67,653	-0,105	0,030
-706,860	157,378	0,065	-0,066
-705,845	236,075	-0,083	-0,101
-704,831	215,752	0,060	0,070
-703,816	138,887	-0,131	-0,127
-702,802	423,482	-0,071	-0,112
-701,787	-200,000	-0,011	-0,070
-700,772	244,512	0,052	-0,064
-699,758	-20,956	0,045	-0,020
-698,743	137,684	0,032	0,031
-697,729	-41,544	0,114	0,043
-696,714	134,025	-0,066	-0,063
-695,699	-48,700	-0,055	0,019
-694,685	-200,000	-0,001	0,006
-693,670	41,120	-0,111	0,074
-692,656	-200,000	-0,005	0,035
-691,641	-200,000	-0,004	-0,103
-690,627	800,000	-0,031	0,085
-689,612	217,768	0,109	-0,128
-688,597	-200,000	-0,014	0,083
-687,583	2,044	0,122	-0,065
-686,568	490,181	0,052	0,089
-685,554	800,000	-0,063	-0,174
-684,539	800,000	0,064	0,144
-683,524	458,695	0,120	-0,198
-682,510	357,037	-0,029	0,042
-681,495	-200,000	0,000	-0,020
-680,481	509,701	-0,026	0,044
-679,466	310,090	0,060	0,083
-678,451	77,451	-0,060	-0,047
-677,437	706,101	0,060	0,117
-676,422	-175,854	0,131	-0,003
-675,408	43,731	0,008	-0,005
-674,393	-131,947	-0,104	-0,010
-673,378	138,218	0,050	-0,048
-672,364	284,157	-0,090	-0,120
-671,349	-14,454	0,196	-0,092
-670,335	-200,000	0,008	-0,080
-669,320	-74,843	-0,094	-0,025
-668,305	-124,920	0,041	0,005
-667,291	800,000	0,043	-0,115
-666,276	520,433	-0,031	-0,054
-665,262	-86,905	-0,108	-0,024
-664,247	105,973	-0,053	0,046
-663,232	-70,201	0,112	0,031
-662,218	800,000	-0,022	0,057
-661,203	-119,841	0,017	-0,002
-660,189	653,530	-0,059	-0,111
-659,174	-58,261	-0,033	0,010
-658,159	-200,000	-0,017	0,058
-657,145	-49,157	-0,139	0,049
-656,130	-200,000	0,005	0,048
-655,116	-200,000	-0,001	0,120
-654,101	32,017	0,090	0,057
-653,086	-200,000	-0,035	0,130
-652,072	800,000	-0,006	-0,017
-651,057	-20,289	-0,021	0,009
-650,043	96,747	0,021	0,017
-649,028	-129,993	-0,120	-0,012
-648,014	-8,097	0,149	-0,074
-646,999	800,000	-0,013	0,031
-645,984	34,123	-0,054	-0,035
-644,970	800,000	0,034	-0,097
-643,955	88,990	-0,098	-0,080
-642,941	95,285	-0,019	-0,016
-641,926	-67,475	-0,040	-0,011
-640,911	-3,741	-0,084	-0,043
-639,897	800,000	-0,003	0,007
-638,882	738,426	-0,043	-0,086
-637,868	-45,711	-0,083	-0,030
-636,853	-113,676	-0,054	0,008
-635,838	251,384	-0,080	0,100
-634,824	800,000	0,031	-0,074
-633,809	-151,113	-0,071	0,004
-632,795	183,607	0,098	-0,106
-631,780	104,481	0,160	-0,138
-630,765	-200,000	-0,010	-0,033
-629,751	78,167	0,154	0,120
-628,736	-51,555	0,069	-0,024
-627,722	800,000	0,010	-0,025
-626,707	70,552	0,003	0,002
-625,692	23,780	-0,046	0,028
-624,678	-56,280	-0,060	-0,019
-623,663	-200,000	0,011	-0,043
-622,649	-200,000	-0,010	-0,084
-621,634	511,998	-0,110	-0,189
-620,619	800,000	-0,042	-0,103
-619,605	48,700	0,143	0,098
-618,590	543,272	-0,045	-0,079
-617,576	39,848	-0,092	0,061
-616,561	36,546	-0,026	-0,017
-615,546	-16,593	-0,067	-0,031
-614,532	-200,000	0,017	0,057
-613,517	428,595	0,063	0,100
-612,503	-89,891	-0,103	-0,022
-611,488	-108,853	-0,102	-0,016
-610,474	-200,000	0,005	0,079
-609,459	-96,171	0,112	0,022
-608,444	397,445	-0,075	-0,116
-607,430	691,145	-0,015	-0,030
-606,415	-102,616	0,073	-0,013
-605,401	-200,000	0,008	0,052
-604,386	800,000	0,024	0,074
-603,371	194,000	0,029	-0,032
-602,357	-51,164	0,097	0,033
-601,342	29,451	-0,126	-0,078
-600,328	-128,925	-0,096	0,010
-599,313	-53,114	-0,076	0,025
-598,298	75,965	-0,031	-0,024
-597,284	-200,000	0,015	-0,084
-596,269	228,092	-0,062	-0,074
-595,255	-39,725	0,079	0,030
-594,240	-200,000	0,011	0,110
-593,225	800,000	0,080	-0,212
-592,211	656,812	-0,089	-0,169
-591,196	325,565	0,052	0,073
-590,182	-5,115	-0,071	0,036
-589,167	2,438	-0,117	-0,062
-588,152	-56,360	-0,059	-0,019
-587,138	800,000	-0,056	-0,114
-586,123	296,491	0,008	0,010
-585,109	60,719	-0,126	-0,092
-584,094	-188,807	-0,046	-0,000
-583,079	-25,967	0,118	-0,051
-582,065	63,326	0,055	-0,040
-581,050	117,968	-0,145	-0,131
-580,036	-151,865	0,091	-0,005
-579,021	140,786	0,054	0,052
-578,006	137,105	-0,039	-0,038
-576,992	550,868	-0,007	-0,012
-575,977	108,687	0,120	-0,105
-574,963	-89,706	-0,148	0,032
-573,948	-127,972	0,162	0,017
-572,934	-52,720	-0,025	0,008
-571,919	-84,404	-0,091	-0,021
-570,904	-200,000	-0,020	0,074
-569,890	284,348	0,098	0,129
-568,875	106,988	-0,117	0,102
-567,861	266,322	-0,135	0,173
-566,846	-200,000	-0,015	0,099
-565,831	-81,198	0,101	-0,024
-564,817	800,000	-0,041	-0,112
-563,802	308,540	0,042	-0,058
-562,788	175,840	-0,080	0,085
-561,773	64,557	0,078	0,058
-560,758	-188,475	-0,040	-0,000
-559,744	99,000	0,027	-0,023
-558,729	-200,000	0,000	0,105
-557,715	4,576	-0,152	0,082
-556,700	-132,046	-0,119	0,011
-555,685	-65,019	-0,129	0,038
-554,671	-200,000	0,010	0,050
-553,656	448,578	0,012	-0,020
-552,642	84,598	-0,106	-0,085
-551,627	-73,852	0,060	-0,016
-550,612	72,895	0,075	0,057
-549,598	-200,000	0,001	-0,065
-548,583	125,472	0,064	-0,059
-547,569	-200,000	-0,012	-0,045
-546,554	30,791	0,059	0,037
-545,539	209,724	-0,035	0,040
-544,525	-3,902	0,079	0,040
-543,510	800,000	-0,054	-0,117
-542,496	-200,000	0,004	-0,122
-541,481	-137,723	-0,076	-0,006
-540,466	-200,000	0,008	-0,090
-539,452	-200,000	0,015	-0,113
-538,437	364,671	0,030	-0,045
-537,423	444,672	-0,031	-0,049
-536,408	11,477	-0,050	-0,028
-535,393	-13,140	0,041	0,019
-534,379	-9,817	0,040	0,019
-533,364	60,167	-0,088	0,064
-532,350	-65,090	0,093	-0,027
-531,335	800,000	0,024	-0,068
-530,321	269,947	-0,021	0,027
-529,306	227,257	-0,011	0,013
-528,291	273,066	0,041	-0,053
-527,277	-35,829	0,089	-0,035
-526,262	484,606	-0,019	0,032
-525,248	800,000	0,030	-0,086
-524,233	-200,000	-0,014	0,051
-523,218	800,000	0,030	-0,082
-522,204	-200,000	-0,013	-0,139
-521,189	127,683	-0,045	0,042
-520,175	-200,000	-0,010	0,093
-519,160	-155,301	0,065	0,003
-518,145	277,538	-0,100	0,130
-517,131	800,000	-0,019	0,062
-516,116	377,851	0,075	0,112
-515,102	139,105	0,069	0,066
-514,087	-50,174	-0,115	0,040
-513,072	-200,000	-0,032	-0,124
-512,058	174,098	0,085	-0,090
-511,043	45,949	0,032	0,022
-510,029	281,244	-0,005	-0,007
-509,014	4,065	0,061	-0,033
-507,999	-200,000	-0,010	0,037
-506,985	64,694	0,021	0,015
-505,970	282,578	-0,049	-0,065
-504,956	-55,927	-0,059	0,019
-503,941	-200,000	-0,014	0,077
-502,926	55,251	0,095	-0,067
-501,912	-200,000	0,011	0,083
-500,897	217,206	-0,119	0,139
-499,883	32,684	-0,124	-0,078
-498,868	-200,000	0,007	-0,039
-497,853	-29,903	0,147	0,061
-496,839	-200,000	0,005	0,037
-495,824	-200,000	-0,022	0,175
-494,810	31,527	0,163	0,102
-493,795	679,938	-0,038	0,073
-492,781	-62,020	0,051	-0,015
-491,766	-200,000	-0,000	-0,010
-490,751	-122,315	-0,049	-0,006
-489,737	-116,700	-0,074	0,010
-488,722	-200,000	-0,002	0,069
-487,708	147,905	-0,079	0,078
-486,693	46,955	-0,049	-0,033
-485,678	-200,000	-0,010	-0,078
-484,664	-92,504	0,174	-0,035
-483,649	226,851	0,071	0,085
-482,635	-145,754	-0,009	0,001
-481,620	264,499	-0,099	0,127
-480,605	-33,709	0,162	0,065
-479,591	113,822	-0,071	-0,063
-478,576	21,385	-0,104	-0,061
-477,562	42,546	-0,045	-0,030
-476,547	134,220	0,073	-0,069
-475,532	91,084	-0,076	-0,062
-474,518	-13,458	0,095	0,045
-473,503	644,708	0,027	0,051
-472,489	-59,979	-0,063	-0,019
-471,474	-27,943	0,091	-0,038
-470,459	-200,000	-0,010	-0,040
-469,445	-53,570	-0,079	0,026
-468,430	2,704	-0,033	-0,017
-467,416	-200,000	-0,011	0,114
-466,401	196,569	0,072	-0,081
-465,386	261,804	-0,046	0,059
-464,372	800,000	0,068	-0,164
-463,357	77,673	-0,117	0,091
-462,343	800,000	-0,034	-0,070
-461,328	800,000	-0,023	0,071
-460,313	-64,980	0,132	-0,039
-459,299	238,431	0,084	-0,102
-458,284	-65,529	-0,054	0,016
-457,270	573,915	-0,081	-0,144
-456,255	-89,940	-0,130	0,027
-455,241	-66,336	0,110	0,032
-454,226	79,480	-0,114	0,089
-453,211	274,502	-0,024	-0,030
-452,197	155,980	0,053	-0,053
-451,182	236,873	0,054	0,065
-450,168	673,758	0,014	-0,027
-449,153	-125,576	-0,070	0,008
-448,138	382,455	-0,023	0,034
-447,124	334,854	0,036	0,051
-446,109	109,836	0,025	-0,022
-445,095	-92,421	0,160	0,032
-444,080	-16,104	0,082	-0,038
-443,065	-26,071	0,214	-0,092
-442,051	-200,000	0,003	-0,038
-441,036	-200,000	0,011	0,046
-440,022	-150,050	0,121	-0,007
-439,007	800,000	-0,038	0,086
-437,992	77,213	-0,064	-0,049
-436,978	-97,886	0,135	0,025
-435,963	588,360	0,084	0,151
-434,949	495,537	0,022	-0,036
-433,934	47,354	0,075	0,051
-432,919	-200,000	0,019	-0,064
-431,905	426,700	-0,037	0,058
-430,890	50,990	0,091	0,063
-429,876	580,878	-0,040	0,072
-428,861	-126,926	0,081	0,009
-427,846	231,167	0,052	0,062
-426,832	800,000	-0,017	-0,050
-425,817	-200,000	-0,043	0,172
-424,803	116,999	0,021	0,019
-423,788	21,026	-0,068	0,040
-422,773	11,893	0,102	0,057
-421,759	18,926	-0,144	0,084
-420,744	-200,000	0,002	0,076
-419,730	-48,731	0,087	0,030
-418,715	227,037	-0,024	-0,028
-417,701	-200,000	-0,001	0,090
-416,686	-36,768	-0,024	0,009
-415,671	800,000	-0,001	-0,004
-414,657	-154,733	-0,089	-0,004
-413,642	-200,000	0,010	0,143
-412,628	420,751	0,031	-0,049
-411,613	-107,626	0,059	0,009
-410,598	-200,000	0,009	-0,044
-409,584	800,000	0,020	0,058
-408,569	800,000	0,015	-0,043
-407,555	-200,000	-0,012	0,076
-406,540	800,000	0,062	0,164
-405,525	-200,000	-0,014	0,118
-404,511	787,822	0,021	0,042
-403,496	646,472	0,025	-0,046
-402,482	-200,000	0,023	0,121
-401,467	800,000	-0,036	-0,090
-400,452	11,222	0,080	0,044
-399,438	154,016	-0,044	0,044
-398,423	77,411	-0,029	-0,023
-397,409	-107,353	-0,101	0,016
-396,394	-11,635	-0,022	-0,010
-395,379	-200,000	-0,014	0,068
-394,365	-98,915	0,017	0,003
-393,350	77,557	0,046	0,036
-392,336	8,884	-0,063	0,034
-391,321	72,491	-0,122	0,092
-390,306	133,614	0,007	-0,006
-389,292	-200,000	-0,007	0,073
-388,277	-75,339	0,100	-0,026
-387,263	-200,000	-0,063	-0,216
-386,248	188,495	-0,024	-0,027
-385,233	-200,000	0,019	-0,073
-384,219	244,597	-0,047	-0,057
-383,204	720,114	0,024	0,047
-382,190	56,609	0,046	-0,033
-381,175	181,500	0,086	-0,093
-380,160	-200,000	-0,019	0,127
-379,146	319,497	0,060	-0,083
-378,131	167,700	0,088	0,091
-377,117	-200,000	-0,017	0,153
-376,102	-200,000	-0,015	-0,115
-375,088	800,000	-0,023	-0,072
-374,073	127,867	-0,057	0,052
-373,058	-200,000	-0,059	0,214
-372,044	-200,000	0,029	0,167
-371,029	175,966	-0,075	0,080
-370,015	-134,301	-0,041	-0,004
-369,000	-52,187	0,187	-0,063
-367,985	358,496	-0,049	0,071
-366,971	-132,833	-0,112	-0,010
-365,956	59,010	0,087	0,062
-364,942	2,536	-0,114	-0,060
-363,927	196,766	0,120	0,133
-362,912	-85,573	-0,124	0,028
-361,898	80,917	-0,101	-0,079
-360,883	-121,712	0,059	0,007
-359,869	800,000	-0,046	-0,099
-358,854	-200,000	0,022	0,163
-357,839	-151,687	0,038	-0,002
-356,825	121,698	0,095	0,086
-355,810	-91,838	-0,144	0,030
-354,796	246,285	-0,082	0,101
-353,781	133,235	0,075	-0,070
-352,766	800,000	-0,037	0,085
-351,752	800,000	-0,027	-0,057
-350,737	800,000	-0,016	-0,046
-349,723	-50,409	0,073	0,025
-348,708	625,683	0,026	-0,048
-347,693	800,000	-0,035	-0,073
-346,679	-148,879	-0,156	0,009
-345,664	160,911	-0,045	0,046
-344,650	800,000	-0,027	0,061
-343,635	-200,000	-0,041	0,145
-342,620	800,000	-0,019	0,046
-341,606	19,250	-0,072	0,042
-340,591	-12,139	-0,050	-0,024
-339,577	424,970	-0,046	-0,072
-338,562	708,308	0,031	0,060
-337,548	-200,000	-0,032	-0,232
-336,533	175,323	0,104	0,110
-335,518	-103,397	0,195	0,033
-334,504	-48,794	-0,120	0,042
-333,489	310,548	0,038	0,052
-332,475	800,000	0,052	-0,106
-331,460	-200,000	0,017	-0,094
-330,445	-80,985	-0,033	-0,008
-329,431	-126,403	0,045	-0,005
-328,416	91,707	-0,020	0,016
-327,402	-111,213	0,125	-0,018
-326,387	152,159	0,089	0,088
-325,372	-200,000	0,004	0,079
-324,358	-78,907	0,048	0,012
-323,343	-86,923	-0,057	-0,012
-322,329	-16,027	-0,012	-0,006
-321,314	24,725	0,057	-0,034
-320,299	-200,000	0,040	0,167
-319,285	-16,317	-0,044	-0,020
-318,270	204,236	-0,051	-0,058
-317,256	205,035	0,036	-0,040
-316,241	-57,310	-0,111	-0,035
-315,226	99,689	-0,069	-0,058
-314,212	-200,000	0,006	0,097
-313,197	128,311	0,052	-0,048
-312,183	-200,000	-0,032	-0,122
-311,168	571,255	0,102	0,181
-310,153	-106,486	-0,080	-0,013
-309,139	196,055	0,086	0,095
-308,124	-114,169	0,134	0,019
-307,110	-200,000	0,001	0,079
-306,095	800,000	0,029	-0,081
-305,080	236,611	0,038	0,045
-304,066	269,240	0,064	-0,082
-303,051	-200,000	0,025	-0,099
-302,037	121,310	0,080	0,072
-301,022	-200,000	-0,015	0,117
-300,008	129,252	0,036	-0,034
-298,993	339,081	0,008	0,012
-297,978	101,072	0,021	-0,018
-296,964	166,864	-0,110	-0,113
-295,949	-200,000	-0,035	-0,131
-294,935	800,000	-0,021	-0,053
-293,920	675,614	-0,087	-0,165
-292,905	-200,000	0,008	0,057
-291,891	-154,018	-0,045	0,002
-290,876	-62,780	-0,039	-0,012
-289,862	353,981	0,080	-0,116
-288,847	-107,376	-0,091	-0,014
-287,832	293,434	0,096	-0,128
-286,818	-200,000	-0,008	-0,030
-285,803	186,877	0,019	-0,020
-284,789	-200,000	0,030	-0,214
-283,774	40,597	0,071	0,046
-282,759	-76,769	-0,145	-0,036
-281,745	-200,000	-0,016	-0,169
-280,730	-128,670	-0,017	0,002
-279,716	800,000	-0,038	0,114
-278,701	-111,457	0,043	0,006
-277,686	-200,000	-0,007	-0,034
-276,672	383,872	-0,062	0,093
-275,657	23,450	0,086	-0,051
-274,643	-6,568	-0,102	-0,050
-273,628	121,260	-0,049	-0,044
-272,613	-200,000	0,009	0,093
-271,599	244,360	-0,069	0,084
-270,584	-200,000	0,013	0,112
-269,570	-3,986	-0,066	-0,033
-268,555	705,229	0,037	0,071
-267,540	-63,576	-0,095	-0,028
-266,526	-200,000	-0,006	-0,107
-265,511	5,632	-0,061	-0,032
-264,497	350,462	0,120	0,173
-263,482	6,079	0,025	-0,013
-262,467	360,642	-0,072	-0,105
-261,453	159,344	0,030	-0,030
-260,438	-200,000	-0,003	-0,129
-259,424	800,000	0,027	-0,067
-258,409	-133,009	0,021	-0,002
-257,395	558,883	0,050	-0,087
-256,380	800,000	-0,044	-0,097
-255,365	800,000	0,034	0,070
-254,351	87,826	-0,083	-0,066
-253,336	655,412	0,034	0,063
-252,322	222,237	-0,042	-0,049
-251,307	-200,000	-0,013	-0,060
-250,292	-200,000	-0,018	0,105
-249,278	2,551	-0,026	0,014
-248,263	38,062	0,025	0,016
-247,249	-200,000	0,021	-0,076
-246,234	142,836	0,070	0,068
-245,219	258,670	0,029	0,037
-244,205	401,306	-0,045	-0,069
-243,190	-200,000	-0,019	-0,186
-242,176	232,744	-0,051	0,061
-241,161	115,801	-0,032	-0,028
-240,146	800,000	0,044	-0,108
-239,132	58,882	0,061	0,043
-238,117	-23,349	-0,225	-0,098
-237,103	364,367	0,042	0,061
-236,088	42,896	-0,113	0,074
-235,073	409,776	-0,106	-0,163
-234,059	-126,489	0,074	-0,008
-233,044	-200,000	-0,053	0,177
-232,030	-200,000	-0,003	-0,054
-231,015	80,731	-0,102	-0,080
-230,000	-200,000	-0,007	-0,074
-228,986	800,000	0,051	0,106
-227,971	-66,188	0,148	-0,042
-226,957	800,000	0,021	-0,067
-225,942	-90,296	-0,090	-0,019
-224,927	-200,000	0,009	-0,079
-223,913	-80,488	0,013	0,003
-222,898	-200,000	-0,036	-0,120
-221,884	639,275	0,054	-0,099
-220,869	3,852	-0,010	-0,005
-219,855	18,334	0,105	0,060
-218,840	-47,298	-0,151	0,053
-217,825	20,761	0,082	0,048
-216,811	88,629	0,032	-0,026
-215,796	-200,000	-0,001	-0,061
-214,782	313,003	0,061	-0,083
-213,767	-98,060	0,144	0,027
-212,752	-200,000	-0,024	0,132
-211,738	-21,258	-0,103	0,045
-210,723	800,000	-0,058	0,151
-209,709	-111,458	-0,013	-0,002
-208,694	88,224	0,144	0,116
-207,679	132,555	0,138	0,128
-206,665	116,922	-0,067	0,060
-205,650	-130,011	0,113	0,011
-204,636	-61,209	0,127	0,039
-203,621	11,194	0,117	0,065
-202,606	213,311	0,102	0,117
-201,592	-46,944	0,061	0,021
-200,577	-37,337	0,015	-0,006
-199,563	695,921	0,067	-0,128
-198,548	42,932	0,050	-0,033
-197,533	104,439	0,174	0,148
-196,519	91,222	0,069	-0,056
-195,504	-200,000	-0,001	-0,032
-194,490	85,873	-0,153	-0,122
-193,475	688,995	-0,051	0,098
-192,460	-5,106	0,161	-0,080
-191,446	800,000	-0,025	0,068
-190,431	183,077	-0,108	0,115
-189,417	-100,229	0,050	0,009
-188,402	800,000	0,029	-0,077
-187,387	171,537	0,055	-0,057
-186,373	30,356	-0,050	0,030
-185,358	227,888	-0,073	-0,086
-184,344	55,279	0,077	0,054
-183,329	-51,310	0,124	0,042
-182,315	-200,000	-0,013	0,117
-181,300	249,099	-0,016	-0,020
-180,285	-152,679	0,033	0,002
-179,271	133,456	-0,104	-0,097
-178,256	49,406	-0,097	-0,066
-177,242	-160,303	0,007	-0,000
-176,227	-112,141	0,038	0,005
-175,212	15,079	0,115	-0,065
-174,198	-200,000	-0,005	-0,073
-173,183	43,867	-0,177	-0,117
-172,169	37,690	0,117	0,075
-171,154	-158,541	-0,047	0,002
-170,139	30,292	-0,118	0,072
-169,125	-200,000	0,006	0,051
-168,110	-89,490	0,159	0,034
-167,096	-200,000	0,019	-0,130
-166,081	265,498	0,038	-0,048
-165,066	87,001	-0,158	-0,126
-164,052	-20,817	-0,065	0,028
-163,037	-200,000	0,002	0,073
-162,023	74,122	0,126	0,095
-161,008	-200,000	0,009	0,047
-159,993	41,233	0,015	-0,010
-158,979	-112,026	0,110	-0,016
-157,964	198,090	0,055	0,061
-156,950	162,923	-0,144	-0,146
-155,935	-149,592	-0,127	-0,007
-154,920	7,810	0,045	0,024
-153,906	800,000	-0,063	0,163
-152,891	-200,000	-0,001	-0,081
-151,877	-73,287	0,119	0,031
-150,862	61,266	0,151	-0,108
-149,847	28,474	-0,051	-0,031
-148,833	-200,000	0,001	-0,050
-147,818	178,016	0,072	-0,076
-146,804	96,098	0,082	0,068
-145,789	178,542	-0,085	0,090
-144,775	124,856	0,100	-0,090
-143,760	800,000	-0,042	-0,105
-142,745	-66,545	-0,017	-0,005
-141,731	-200,000	0,001	-0,013
-140,716	35,523	-0,049	0,031
-139,702	-32,033	-0,108	-0,043
-138,687	122,598	0,047	-0,042
-137,672	196,597	0,044	-0,048
-136,658	515,294	-0,027	0,045
-135,643	800,000	0,024	0,055
-134,629	208,064	-0,032	-0,037
-133,614	-102,655	0,174	-0,030
-132,599	26,610	0,174	0,105
-131,585	239,553	0,074	0,089
-130,570	-200,000	-0,007	0,111
-129,556	109,028	-0,073	-0,062
-128,541	-200,000	-0,002	-0,100
-127,526	-200,000	0,007	-0,081
-126,512	-200,000	0,016	0,125
-125,497	115,132	-0,017	-0,015
-124,483	-200,000	0,011	-0,057
-123,468	61,789	0,020	0,015
-122,453	-37,423	0,172	-0,066
-121,439	148,035	0,022	-0,022
-120,424	-23,444	0,093	-0,040
-119,410	-93,743	0,101	-0,020
-118,395	119,954	0,070	-0,063
-117,380	-103,892	-0,132	0,022
-116,366	-94,350	0,062	0,012
-115,351	-200,000	-0,012	0,077
-114,337	-88,589	-0,040	-0,009
-113,322	800,000	0,012	0,026
-112,307	174,587	0,154	0,160
-111,293	304,003	-0,031	0,041
-110,278	700,165	0,042	-0,080
-109,264	441,708	-0,042	0,066
-108,249	-168,648	-0,078	-0,002
-107,234	-200,000	0,008	-0,095
-106,220	-200,000	-0,020	-0,066
-105,205	698,741	0,045	0,085
-104,191	-44,259	0,097	-0,035
-103,176	187,354	-0,103	0,111
-102,162	800,000	-0,059	0,131
-101,147	214,811	0,099	-0,113
-100,132	-26,306	-0,023	-0,010
-99,118	-159,492	0,082	-0,003
-98,103	800,000	-0,028	0,063
-97,089	-200,000	-0,017	0,155
-96,074	342,163	-0,051	0,071
-95,059	800,000	0,035	0,072
-94,045	-111,112	0,094	0,014
-93,030	-121,563	-0,110	-0,013
-92,016	-2,679	-0,116	-0,058
-91,001	11,017	0,071	0,039
-89,986	-200,000	-0,011	0,099
-88,972	-15,171	-0,029	0,013
-87,957	-200,000	-0,014	-0,133
-86,943	31,649	-0,120	0,074
-85,928	-200,000	-0,027	0,086
-84,913	217,075	0,081	0,093
-83,899	218,518	-0,040	-0,046
-82,884	119,267	0,037	0,033
-81,870	-98,269	0,034	-0,006
-80,855	800,000	-0,009	-0,029
-79,840	-200,000	0,014	-0,111
-78,826	-30,249	-0,066	-0,027
-77,811	2,718	-0,083	-0,043
-76,797	367,288	0,037	-0,054
-75,782	398,602	-0,014	-0,021
-74,767	526,962	0,048	-0,082
-73,753	-59,790	0,172	0,053
-72,738	-122,293	-0,103	0,012
-71,724	523,093	-0,025	0,042
-70,709	-69,954	-0,105	-0,029
-69,694	-200,000	-0,011	-0,115
-68,680	82,700	-0,086	-0,067
-67,665	-145,352	0,061	-0,004
-66,651	-49,906	0,084	-0,029
-65,636	-55,987	0,139	-0,044
-64,622	-200,000	-0,005	0,058
-63,607	-141,690	-0,175	0,012
-62,592	-80,495	-0,083	-0,020
-61,578	658,849	-0,022	-0,040
-60,563	439,451	-0,012	0,019
-59,549	-200,000	-0,015	0,164
-58,534	95,364	-2,461	-2,015
-57,519	469,038	0,262	-0,425
-56,505	800,000	-1,713	-5,338
-55,490	296,670	1,152	1,522
-54,476	800,000	5,301	11,808
-53,461	-200,000	21,508	336,953
-52,446	800,000	761,775	2298,681
-51,432	513,975	1658,340	2789,593
-50,417	105,581	1624,204	1378,765
-49,403	76,025	1277,703	970,084
-48,388	26,504	1024,295	614,016
-47,373	19,191	990,058	569,247
-46,359	13,805	977,328	544,183
-45,344	9,948	974,103	529,660
-44,330	10,430	972,081	530,127
-43,315	9,347	970,291	525,570
-42,300	9,402	968,783	524,915
-41,286	9,366	967,947	524,323
-40,271	9,327	967,015	523,669
-39,257	9,274	966,194	523,028
-38,242	9,311	965,279	522,633
-37,227	9,314	964,458	522,179
-36,213	9,313	963,558	521,669
-35,198	9,280	962,789	521,122
-34,184	9,377	961,961	520,971
-33,169	9,290	961,160	520,234
-32,154	9,292	960,243	519,722
-31,140	9,378	959,445	519,548
-30,125	9,385	958,628	519,108
-29,111	9,365	957,733	518,539
-28,096	9,354	957,071	518,125
-27,082	9,374	956,459	517,837
-26,067	9,290	955,654	517,109
-25,052	9,304	954,913	516,733
-24,038	9,272	954,120	516,180
-23,023	9,257	953,667	515,865
-22,009	9,336	952,925	515,698
-20,994	9,252	952,508	515,183
-19,979	9,326	951,885	515,064
-18,965	9,307	951,217	514,618
-17,950	9,332	950,526	514,306
-16,936	9,280	950,080	513,877
-15,921	9,309	949,084	513,410
-14,906	9,242	948,426	512,821
-13,892	9,250	947,787	512,481
-12,877	9,176	947,355	511,987
-11,863	9,160	946,546	511,478
-10,848	9,177	945,983	511,209
-9,833	9,298	945,585	511,360
-8,819	9,240	944,762	510,711
-7,804	9,275	943,932	510,352
-6,790	9,223	943,571	509,970
-5,775	9,199	943,229	509,691
-4,760	9,269	942,375	509,431
-3,746	9,224	941,785	508,947
-2,731	9,101	941,281	508,265
-1,717	9,043	940,620	507,703
-0,702	9,020	939,749	507,140
0,313	8,927	939,165	507,293
1,327	12,440	936,848	517,133
2,342	21,199	785,365	456,621
3,356	16,266	450,719	254,564
4,371	-10,711	312,671	147,890
5,386	-14,650	294,985	135,526
6,400	-16,624	288,915	130,768
7,415	-16,671	286,348	129,549
8,429	-17,171	284,566	128,243
9,444	-17,304	283,792	127,753
10,459	-17,213	283,327	127,621
11,473	-16,985	282,532	127,472
12,488	-17,039	282,185	127,253
13,502	-16,971	281,566	127,027
14,517	-16,931	281,070	126,831
15,531	-16,827	280,856	126,824
16,546	-16,796	280,494	126,678
17,561	-16,830	280,125	126,467
18,575	-16,555	279,717	126,536
19,590	-16,684	279,279	126,203
20,604	-16,575	278,948	126,147
21,619	-16,670	278,695	125,930
22,634	-16,676	278,521	125,834
23,648	-16,608	278,143	125,717
24,663	-16,511	277,817	125,651
25,677	-16,687	277,661	125,401
26,692	-16,648	277,274	125,253
27,707	-16,709	276,912	125,020
28,721	-16,678	276,683	124,935
29,736	-16,699	276,431	124,790
30,750	-16,649	276,124	124,688
31,765	-16,751	275,927	124,491
32,780	-16,661	275,674	124,452
33,794	-16,606	275,432	124,383
34,809	-16,519	275,041	124,277
35,823	-16,635	274,977	124,128
36,838	-16,636	274,654	123,969
37,853	-16,452	274,480	124,054
38,867	-16,417	274,046	123,879
39,882	-16,660	273,903	123,576
40,896	-16,690	273,825	123,501
41,911	-16,623	273,473	123,394
42,926	-16,671	273,315	123,267
43,940	-16,522	272,877	123,197
44,955	-16,591	272,825	123,098
45,969	-16,607	272,595	122,969
46,984	-16,510	272,199	122,870
47,999	-16,514	272,232	122,870
49,013	-16,380	271,987	122,873
50,028	-16,393	271,597	122,674
51,042	-16,575	271,459	122,432
52,057	-16,282	271,167	122,561
53,071	-16,470	271,042	122,319
54,086	-16,461	270,944	122,272
55,101	-16,495	270,791	122,161
56,115	-16,423	270,395	122,038
57,130	-16,535	270,102	121,791
58,144	-16,815	269,782	121,378
59,159	-16,692	269,555	121,379
60,174	-16,646	269,357	121,321
61,188	-16,685	269,047	121,134
62,203	-16,643	268,865	121,080
63,217	-16,610	268,678	121,016
64,232	-16,638	268,510	120,903
65,247	-16,605	268,115	120,744
66,261	-16,435	267,977	120,828
67,276	-16,568	267,778	120,606
68,290	-16,537	267,625	120,554
69,305	-16,471	267,257	120,438
70,320	-16,456	267,142	120,389
71,334	-16,640	266,997	120,145
72,349	-16,726	266,492	119,829
73,363	-16,533	266,301	119,908
74,378	-16,526	266,028	119,780
75,393	-16,570	265,915	119,679
76,407	-16,584	265,811	119,609
77,422	-16,390	265,484	119,627
78,436	-16,549	265,260	119,371
79,451	-16,528	265,120	119,316
80,466	-16,514	264,738	119,146
81,480	-16,369	264,533	119,175
82,495	-16,296	264,435	119,186
83,509	-16,501	264,233	118,899
84,524	-16,568	264,086	118,763
85,539	-16,287	263,760	118,857
86,553	-16,470	263,535	118,581
87,568	-16,490	263,366	118,477
88,582	-16,515	263,171	118,356
89,597	-16,446	262,772	118,228
90,611	-16,691	262,881	118,047
91,626	-16,359	262,334	118,088
92,641	-16,400	262,312	118,030
93,655	-16,413	262,039	117,885
94,670	-16,510	261,888	117,720
95,684	-16,559	261,758	117,608
96,699	-16,596	261,560	117,475
97,714	-16,446	261,182	117,429
98,728	-16,499	261,135	117,350
99,743	-16,398	260,800	117,279
100,757	-16,504	260,707	117,132
101,772	-16,466	260,483	117,055
102,787	-16,544	260,275	116,881
103,801	-16,410	260,172	116,944
104,816	-16,659	259,905	116,593
105,830	-16,624	259,734	116,537
106,845	-16,617	259,486	116,421
107,860	-16,605	259,239	116,311
108,874	-16,420	259,021	116,366
109,889	-16,551	258,764	116,124
110,903	-16,559	258,595	116,032
111,918	-16,553	258,466	115,968
112,933	-16,535	258,156	115,834
113,947	-16,434	258,051	115,866
114,962	-16,535	257,639	115,582
115,976	-16,482	257,590	115,596
116,991	-16,606	257,518	115,445
118,006	-16,614	257,174	115,273
119,020	-16,488	256,969	115,282
120,035	-16,546	256,896	115,188
121,049	-16,488	256,665	115,124
122,064	-16,478	256,441	115,022
123,079	-16,456	256,308	114,971
124,093	-16,418	256,165	114,930
125,108	-16,362	255,990	114,890
126,122	-16,310	255,835	114,856
127,137	-16,404	255,689	114,698
128,151	-16,453	255,530	114,574
129,166	-16,507	255,184	114,363
130,181	-16,428	254,916	114,300
131,195	-16,375	254,742	114,258
132,210	-16,399	254,530	114,132
133,224	-16,432	254,214	113,951
134,239	-16,575	254,190	113,807
135,254	-16,475	254,003	113,799
136,268	-16,641	253,827	113,568
137,283	-16,250	253,366	113,687
138,297	-16,224	253,242	113,643
139,312	-16,387	253,207	113,477
140,327	-16,553	252,912	113,193
141,341	-16,668	252,715	112,996
142,356	-16,643	252,496	112,909
143,370	-16,695	252,395	112,810
144,385	-16,517	252,178	112,855
145,400	-16,648	251,986	112,648
146,414	-16,505	251,617	112,594
147,429	-16,521	251,461	112,501
148,443	-16,465	251,380	112,502
149,458	-16,600	251,253	112,320
150,473	-16,388	250,932	112,347
151,487	-16,703	250,912	112,060
152,502	-16,415	250,688	112,195
153,516	-16,768	250,531	111,815
154,531	-16,554	250,305	111,885
155,546	-16,537	250,167	111,828
156,560	-16,568	249,994	111,715
157,575	-16,553	249,770	111,618
158,589	-16,464	249,394	111,515
159,604	-16,526	249,224	111,376
160,619	-16,340	249,002	111,424
161,633	-16,568	248,853	111,155
162,648	-16,566	248,762	111,106
163,662	-16,375	248,695	111,227
164,677	-16,440	248,495	111,073
165,692	-16,519	248,309	110,913
166,706	-16,416	248,136	110,913
167,721	-16,514	248,068	110,790
168,735	-16,630	247,710	110,524
169,750	-16,405	247,571	110,640
170,764	-16,534	247,436	110,463
171,779	-16,533	247,316	110,400
172,794	-16,630	247,165	110,241
173,808	-16,486	247,125	110,334
174,823	-16,136	246,813	110,478
175,837	-16,417	246,694	110,179
176,852	-16,470	246,389	109,989
177,867	-16,627	246,380	109,844
178,881	-16,370	246,135	109,939
179,896	-16,312	245,847	109,849
180,910	-16,376	245,752	109,743
181,925	-16,548	245,431	109,448
182,940	-16,436	245,270	109,459
183,954	-16,284	245,195	109,542
184,969	-16,399	244,943	109,325
185,983	-16,580	244,915	109,152
186,998	-16,384	244,616	109,171
188,013	-16,394	244,569	109,132
189,027	-16,659	244,368	108,814
190,042	-16,469	243,992	108,794
191,056	-16,626	243,807	108,572
192,071	-16,625	243,772	108,548
193,086	-16,666	243,638	108,445
194,100	-16,438	243,390	108,512
195,115	-16,334	243,123	108,469
196,129	-16,555	242,936	108,195
197,144	-16,633	242,786	108,054
198,159	-16,608	242,681	108,018
199,173	-16,418	242,481	108,075
200,188	-16,804	242,359	107,695
201,202	-16,557	242,086	107,767
202,217	-16,434	241,907	107,777
203,232	-16,338	241,798	107,797
204,246	-16,704	241,510	107,361
205,261	-17,036	241,102	106,900
206,275	-15,928	241,457	107,950
207,290	-11,454	243,388	112,474
208,304	-4,279	245,333	119,284
209,319	-1,193	246,184	122,235
210,334	-0,244	246,556	123,192
211,348	0,647	246,740	124,009
212,363	1,367	246,641	124,542
213,377	1,608	246,745	124,783
214,392	1,740	246,661	124,838
215,407	2,125	246,610	125,119
216,421	2,143	246,301	124,965
217,436	2,211	246,225	124,972
218,450	2,204	246,027	124,854
219,465	2,267	245,889	124,825
220,480	2,381	245,603	124,762
221,494	1,900	245,375	124,240
222,509	1,422	245,172	123,735
223,523	1,310	244,854	123,472
224,538	0,924	244,741	123,088
225,553	1,061	244,441	123,039
226,567	1,167	244,285	123,035
227,582	1,108	244,233	122,951
228,596	0,926	244,161	122,754
229,611	1,180	243,900	122,819
230,626	1,028	243,667	122,567
231,640	1,123	243,513	122,556
232,655	1,050	243,338	122,398
233,669	1,042	243,010	122,215
234,684	1,045	242,934	122,168
235,699	1,205	242,861	122,251
236,713	1,251	242,606	122,149
237,728	1,234	242,615	122,128
238,742	1,127	242,385	121,916
239,757	1,045	242,373	121,832
240,772	0,953	242,086	121,603
241,786	1,098	241,942	121,637
242,801	1,106	241,678	121,500
243,815	0,854	241,826	121,360
244,830	1,126	241,397	121,352
245,844	1,086	241,238	121,230
246,859	1,068	241,175	121,173
247,874	1,134	241,103	121,179
248,888	1,062	240,925	121,021
249,903	1,218	240,666	121,005
250,917	1,002	240,604	120,790
251,932	1,405	240,412	121,005
252,947	1,190	240,240	120,736
253,961	1,305	239,969	120,681
254,976	1,264	239,853	120,580
255,990	1,266	239,821	120,554
257,005	1,397	239,498	120,486
258,020	0,902	239,661	120,161
259,034	1,252	239,166	120,182
260,049	1,262	239,078	120,135
261,063	1,171	238,949	119,987
262,078	1,109	238,754	119,829
263,093	1,108	238,685	119,783
264,107	1,035	238,519	119,630
265,122	1,087	238,475	119,639
266,136	1,194	238,292	119,622
267,151	1,086	238,136	119,447
268,166	1,271	237,892	119,460
269,180	1,296	237,576	119,311
270,195	1,214	237,587	119,241
271,209	1,192	237,433	119,135
272,224	1,282	237,293	119,126
273,239	1,144	237,145	118,932
274,253	1,079	236,899	118,747
275,268	1,328	236,745	118,855
276,282	1,252	236,680	118,752
277,297	1,178	236,428	118,557
278,312	1,210	236,453	118,584
279,326	1,091	236,325	118,415
280,341	1,147	236,107	118,340
281,355	1,210	235,807	118,228
282,370	1,340	235,757	118,295
283,384	1,477	235,570	118,297
284,399	1,174	235,333	117,930
285,414	1,006	235,227	117,736
286,428	1,241	235,055	117,823
287,443	1,154	234,939	117,686
288,457	1,074	234,835	117,561
289,472	1,254	234,688	117,618
290,487	1,172	234,472	117,435
291,501	1,185	234,329	117,363
292,516	1,141	234,217	117,262
293,530	1,357	234,115	117,368
294,545	1,340	234,047	117,311
295,560	1,158	233,864	117,067
296,574	1,221	233,606	116,977
297,589	1,191	233,590	116,935
298,603	1,206	233,323	116,803
299,618	1,543	233,031	116,907
300,633	1,464	233,017	116,828
301,647	1,248	233,010	116,647
302,662	1,471	232,967	116,787
303,676	1,510	232,750	116,698
304,691	1,479	232,494	116,536
305,706	1,437	232,334	116,413
306,720	1,409	232,158	116,292
307,735	1,232	232,150	116,142
308,749	1,437	231,835	116,132
309,764	1,270	231,760	115,955
310,779	1,269	231,574	115,851
311,793	1,278	231,364	115,743
312,808	1,391	231,245	115,760
313,822	1,289	231,138	115,617
314,837	1,437	230,978	115,640
315,852	1,520	230,761	115,585
316,866	1,517	230,683	115,533
317,881	1,570	230,460	115,452
318,895	1,462	230,346	115,302
319,910	1,458	230,351	115,291
320,925	1,572	229,951	115,167
321,939	1,403	229,882	114,993
322,954	1,464	229,705	114,942
323,968	1,436	229,685	114,900
324,983	1,340	229,592	114,770
325,997	1,494	229,397	114,780
327,012	1,309	229,251	114,556
328,027	1,326	229,037	114,451
329,041	1,247	228,863	114,295
330,056	1,437	228,672	114,333
331,070	1,495	228,556	114,308
332,085	1,504	228,585	114,319
333,100	1,386	228,274	114,064
334,114	1,447	228,127	114,027
335,129	1,371	227,888	113,840
336,143	1,392	227,974	113,889
337,158	1,526	227,739	113,862
338,173	1,495	227,685	113,801
339,187	1,466	227,539	113,696
340,202	1,438	227,393	113,593
341,216	1,598	227,228	113,621
342,231	1,417	226,923	113,322
343,246	1,139	226,987	113,135
344,260	1,445	226,866	113,294
345,275	1,573	226,778	113,336
346,289	1,605	226,505	113,213
347,304	1,425	226,337	112,984
348,319	1,351	226,227	112,864
349,333	1,457	225,949	112,795
350,348	1,440	225,868	112,732
351,362	1,287	225,780	112,564
352,377	1,472	225,499	112,551
353,392	1,450	225,450	112,501
354,406	1,366	225,277	112,342
355,421	192,860	1313,441	1382,662
356,435	154,501	1445,902	1382,539
