DTS Sentinel unit serial number:	SN410029Multiplexer serial number:	ORYXHardware model number:	OX2-SRSoftware version number:	ORYX F/W v4,00 Oryx Data Collector v3.7.2.0data status	okinstallation	B5 Nyhavnadifferential loss correction	single-endedforward channel	channel 2reverse channel	N/Adate	2023/12/14time	14:37:13forward acquisition time	300,00reverse acquisition time	0,00gamma	499,1914k internal	0,3157k external	0,3157temperature offset calibration	1,0000default loss term (dB/km)	0,3820temperature slope calibration	1,0000multiplexer offset coefficient	1,0000multiplexer slope coefficient	1,0000fibre end	0,00T internal ref (°C)	8,00T ext. ref 1 (°C)	-8,09T ext. ref 2 (°C)	-8,15length (m)	temperature (°C)	Stokes	anti-Stokes-744,400	-55,122	0,122	0,040
-743,385	-159,894	-0,321	-0,013
-742,371	800,000	0,070	0,162
-741,356	-136,634	-0,340	0,029
-740,342	-85,347	0,146	0,033
-739,327	-96,844	-0,407	-0,078
-738,312	-40,894	0,205	0,078
-737,298	31,436	-0,379	-0,239
-736,283	-140,786	0,203	0,015
-735,269	-149,524	-0,408	-0,023
-734,254	11,431	0,211	0,119
-733,239	-0,778	-0,586	-0,305
-732,225	41,466	0,166	0,111
-731,210	578,961	0,031	0,057
-730,196	-200,000	-0,015	-0,049
-729,181	800,000	0,004	0,009
-728,167	475,055	-0,060	-0,100
-727,152	561,411	0,024	0,043
-726,137	-52,169	-0,063	-0,022
-725,123	-76,369	-0,122	-0,032
-724,108	179,116	-0,053	-0,057
-723,094	-200,000	-0,030	-0,144
-722,079	-28,552	-0,147	-0,062
-721,064	231,867	-0,098	-0,119
-720,050	672,276	0,023	-0,045
-719,035	-200,000	-0,003	0,041
-718,021	-88,613	0,149	0,032
-717,006	-120,515	-0,096	0,012
-715,991	-58,439	-0,027	-0,009
-714,977	-167,786	-0,080	0,002
-713,962	9,161	0,018	0,010
-712,948	-142,873	-0,149	0,010
-711,933	37,209	0,091	0,059
-710,918	775,324	-0,041	0,083
-709,904	-60,484	-0,127	0,039
-708,889	-34,131	0,116	-0,047
-707,875	-5,651	-0,021	-0,011
-706,860	37,235	0,092	0,060
-705,845	-1,521	0,044	-0,023
-704,831	375,967	0,104	0,157
-703,816	196,554	-0,069	-0,078
-702,802	210,741	0,023	-0,027
-701,787	154,410	-0,111	-0,112
-700,772	-90,618	0,041	0,009
-699,758	-60,781	0,083	-0,026
-698,743	-102,732	-0,084	0,015
-697,729	197,947	0,055	0,062
-696,714	-200,000	0,019	-0,080
-695,699	11,548	-0,046	0,026
-694,685	147,143	-0,050	-0,049
-693,670	800,000	-0,034	-0,073
-692,656	-5,463	-0,091	-0,046
-691,641	-200,000	0,008	0,212
-690,627	-200,000	0,007	0,121
-689,612	49,678	0,069	0,048
-688,597	382,524	0,066	-0,099
-687,583	604,338	0,039	-0,071
-686,568	-87,874	-0,130	-0,029
-685,554	21,009	0,057	0,034
-684,539	173,650	-0,025	0,027
-683,524	211,045	0,067	-0,077
-682,510	258,772	-0,049	0,063
-681,495	-83,134	-0,098	0,023
-680,481	-173,233	-0,079	0,002
-679,466	-200,000	-0,023	0,132
-678,451	252,378	-0,057	-0,071
-677,437	767,298	0,077	-0,155
-676,422	313,912	-0,139	0,193
-675,408	-200,000	0,007	-0,026
-674,393	-123,935	-0,078	-0,009
-673,378	-6,062	0,094	0,047
-672,364	-91,521	0,093	-0,019
-671,349	276,715	-0,063	0,083
-670,335	800,000	0,025	-0,069
-669,320	-200,000	-0,016	-0,059
-668,305	-69,035	0,046	0,013
-667,291	-70,474	-0,078	0,022
-666,276	-9,931	0,080	0,039
-665,262	-200,000	0,010	-0,050
-664,247	152,832	-0,073	-0,074
-663,232	-200,000	-0,025	-0,128
-662,218	-200,000	0,048	0,178
-661,203	-200,000	-0,002	0,082
-660,189	-143,208	0,056	-0,004
-659,174	-134,133	-0,038	0,003
-658,159	-43,330	-0,120	-0,044
-657,145	660,321	-0,036	0,069
-656,130	217,906	0,007	0,008
-655,116	-141,203	0,140	0,010
-654,101	-65,902	0,124	0,036
-653,086	618,540	0,043	0,080
-652,072	-48,961	-0,075	0,026
-651,057	12,260	-0,198	-0,112
-650,043	-200,000	0,009	-0,070
-649,028	-1,498	-0,055	0,028
-648,014	-200,000	-0,016	0,070
-646,999	-67,779	0,024	-0,007
-645,984	-200,000	0,013	0,081
-644,970	800,000	-0,037	0,097
-643,955	-79,086	0,034	-0,008
-642,941	-200,000	-0,006	-0,024
-641,926	-200,000	0,004	-0,064
-640,911	89,048	0,046	0,038
-639,897	-61,114	0,128	0,039
-638,882	-113,922	-0,103	-0,015
-637,868	-200,000	0,010	-0,072
-636,853	-200,000	0,002	-0,039
-635,838	-200,000	-0,029	-0,122
-634,824	740,157	-0,090	-0,179
-633,809	-200,000	-0,013	0,098
-632,795	166,040	-0,064	0,067
-631,780	92,574	0,049	-0,040
-630,765	56,397	-0,082	-0,058
-629,751	-195,510	0,083	0,000
-628,736	0,529	-0,038	-0,020
-627,722	-200,000	0,002	0,044
-626,707	-30,632	-0,073	-0,030
-625,692	-101,661	0,072	0,013
-624,678	70,160	-0,052	-0,039
-623,663	793,154	-0,032	-0,065
-622,649	-200,000	-0,011	-0,055
-621,634	203,687	0,053	-0,061
-620,619	-200,000	0,003	0,079
-619,605	758,937	0,039	-0,077
-618,590	-4,341	0,102	-0,051
-617,576	-86,524	-0,041	-0,009
-616,561	-1,247	-0,099	0,051
-615,546	448,639	-0,010	0,015
-614,532	-62,085	-0,052	0,016
-613,517	800,000	-0,031	0,094
-612,503	-200,000	0,001	0,021
-611,488	337,754	-0,037	0,053
-610,474	53,807	-0,061	-0,043
-609,459	-54,277	0,062	-0,021
-608,444	-100,372	-0,048	-0,009
-607,430	87,271	-0,035	0,028
-606,415	351,159	0,019	-0,028
-605,401	-200,000	0,003	-0,072
-604,386	-169,968	0,045	0,001
-603,371	267,093	0,056	-0,072
-602,357	800,000	-0,026	-0,082
-601,342	389,261	-0,088	-0,135
-600,328	60,113	-0,104	-0,075
-599,313	-40,009	-0,138	0,052
-598,298	285,587	0,062	0,082
-597,284	633,482	-0,057	-0,106
-596,269	-200,000	0,009	0,158
-595,255	800,000	-0,036	0,101
-594,240	-200,000	-0,014	-0,085
-593,225	-69,535	0,142	0,040
-592,211	-200,000	-0,023	-0,156
-591,196	158,914	0,100	-0,102
-590,182	-200,000	0,010	-0,046
-589,167	-200,000	-0,007	-0,080
-588,152	12,943	-0,034	-0,019
-587,138	-55,409	-0,029	0,009
-586,123	-200,000	-0,017	-0,098
-585,109	191,203	0,101	0,112
-584,094	-33,723	0,123	0,050
-583,079	-200,000	0,012	-0,092
-582,065	754,050	-0,060	0,120
-581,050	33,446	0,017	-0,011
-580,036	142,986	-0,048	-0,047
-579,021	-158,405	0,067	0,003
-578,006	-200,000	-0,001	-0,080
-576,992	-81,416	0,056	0,013
-575,977	607,680	0,050	0,092
-574,963	-138,881	0,102	0,008
-573,948	-200,000	0,001	0,157
-572,934	1,771	-0,145	0,076
-571,919	548,044	0,067	-0,118
-570,904	-37,012	-0,099	-0,039
-569,890	-200,000	0,008	0,066
-568,875	-200,000	0,017	0,062
-567,861	40,809	-0,156	-0,103
-566,846	800,000	0,071	0,167
-565,831	84,714	0,053	-0,043
-564,817	800,000	0,003	-0,007
-563,802	-200,000	0,031	-0,146
-562,788	632,559	-0,028	-0,052
-561,773	-89,256	0,087	-0,019
-560,758	148,865	0,068	0,067
-559,744	316,527	-0,018	0,025
-558,729	45,213	-0,053	-0,036
-557,715	-82,918	0,100	0,024
-556,700	-200,000	0,008	0,132
-555,685	-200,000	0,012	-0,159
-554,671	-108,197	-0,127	-0,020
-553,656	181,570	0,087	-0,093
-552,642	469,809	0,048	0,080
-551,627	-26,903	0,091	0,039
-550,612	-156,488	0,065	-0,003
-549,598	-200,000	0,026	0,120
-548,583	16,956	-0,071	-0,041
-547,569	-200,000	-0,005	-0,046
-546,554	147,162	0,124	0,123
-545,539	800,000	-0,061	0,181
-544,525	-161,078	-0,080	-0,003
-543,510	-7,861	-0,088	-0,043
-542,496	-88,535	-0,142	0,031
-541,481	33,209	-0,064	-0,040
-540,466	110,075	0,059	0,052
-539,452	800,000	-0,031	-0,091
-538,437	-131,492	0,259	-0,025
-537,423	-153,323	-0,126	-0,006
-536,408	44,601	-0,121	-0,081
-535,393	-200,000	0,019	0,073
-534,379	800,000	0,032	0,080
-533,364	102,078	-0,125	-0,107
-532,350	800,000	0,037	0,091
-531,335	800,000	0,027	0,062
-530,321	800,000	0,023	0,055
-529,306	266,907	0,053	-0,068
-528,291	198,015	-0,017	-0,019
-527,277	-200,000	0,001	0,004
-526,262	44,313	-0,049	0,033
-525,248	70,027	0,077	0,058
-524,233	122,334	-0,079	0,072
-523,218	-200,000	-0,001	0,036
-522,204	100,594	-0,045	-0,038
-521,189	800,000	0,024	0,070
-520,175	244,467	-0,050	-0,061
-519,160	-200,000	-0,002	-0,105
-518,145	-37,454	0,112	-0,043
-517,131	480,672	0,079	0,132
-516,116	-78,585	0,211	0,052
-515,102	64,546	-0,141	-0,104
-514,087	-98,904	-0,059	-0,011
-513,072	432,328	0,086	0,136
-512,058	-200,000	-0,030	-0,099
-511,043	64,338	0,088	-0,065
-510,029	103,406	0,131	0,112
-509,014	-200,000	-0,031	0,126
-507,999	118,224	0,085	-0,077
-506,985	215,288	-0,094	-0,110
-505,970	800,000	-0,028	-0,091
-504,956	-127,770	-0,035	-0,004
-503,941	371,569	-0,083	0,123
-502,926	31,432	0,107	-0,067
-501,912	-9,813	-0,064	0,031
-500,897	38,464	0,099	-0,064
-499,883	-99,260	-0,082	0,015
-498,868	-40,194	-0,200	-0,076
-497,853	578,574	-0,026	-0,047
-496,839	-200,000	-0,012	-0,089
-495,824	620,362	-0,086	0,158
-494,810	-200,000	0,010	-0,077
-493,795	90,948	0,028	-0,023
-492,781	-62,724	0,102	-0,031
-491,766	329,597	-0,010	-0,014
-490,751	-200,000	-0,010	-0,095
-489,737	-200,000	0,009	-0,132
-488,722	149,547	-0,072	0,071
-487,708	-200,000	-0,007	-0,139
-486,693	800,000	0,010	-0,028
-485,678	-200,000	-0,002	-0,171
-484,664	-200,000	0,013	-0,137
-483,649	-200,000	0,017	-0,112
-482,635	-200,000	-0,002	0,041
-481,620	-112,374	-0,168	-0,024
-480,605	74,328	0,080	0,061
-479,591	-92,258	-0,052	0,011
-478,576	88,062	0,016	-0,013
-477,562	-0,609	0,074	-0,038
-476,547	102,790	0,116	-0,099
-475,532	-200,000	0,008	0,100
-474,518	-36,443	0,051	-0,020
-473,503	558,584	0,064	0,113
-472,489	401,966	0,047	-0,072
-471,474	-38,174	-0,068	-0,026
-470,459	-81,592	0,051	0,012
-469,445	17,251	0,080	0,046
-468,430	-157,677	-0,155	-0,007
-467,416	-170,132	0,149	-0,004
-466,401	800,000	-0,056	0,120
-465,386	24,758	0,032	-0,019
-464,372	-200,000	0,013	0,050
-463,357	93,470	0,010	-0,008
-462,343	-200,000	0,019	-0,088
-461,328	727,746	0,061	-0,118
-460,313	-200,000	0,018	-0,161
-459,299	6,408	-0,117	-0,063
-458,284	-200,000	0,012	0,047
-457,270	-200,000	-0,006	0,153
-456,255	123,604	0,016	0,015
-455,241	-200,000	0,007	-0,028
-454,226	148,039	-0,008	-0,008
-453,211	-151,495	0,146	-0,008
-452,197	146,212	0,139	0,136
-451,182	60,191	0,129	0,093
-450,168	-17,715	-0,107	0,049
-449,153	45,988	-0,118	-0,079
-448,138	-200,000	0,007	-0,058
-447,124	800,000	0,030	0,092
-446,109	513,980	-0,031	-0,053
-445,095	230,026	-0,042	-0,051
-444,080	457,060	-0,017	-0,028
-443,065	-200,000	-0,025	0,167
-442,051	-200,000	-0,004	-0,053
-441,036	-127,377	0,059	0,006
-440,022	92,365	-0,131	-0,108
-439,007	187,694	0,116	-0,127
-437,992	-3,948	-0,040	0,020
-436,978	-200,000	0,058	0,231
-435,963	800,000	0,043	0,086
-434,949	553,889	0,080	0,141
-433,934	-144,893	-0,161	0,011
-432,919	206,605	0,041	0,047
-431,905	139,303	0,027	-0,026
-430,890	-33,921	-0,253	0,101
-429,876	219,307	-0,069	0,081
-428,861	-128,127	0,074	-0,008
-427,846	27,736	-0,193	-0,118
-426,832	-200,000	-0,006	-0,089
-425,817	-200,000	0,012	-0,052
-424,803	-47,420	-0,057	-0,020
-423,788	800,000	0,034	-0,085
-422,773	-80,481	0,159	-0,038
-421,759	-127,759	-0,154	-0,016
-420,744	-51,254	0,096	-0,032
-419,730	-77,292	-0,097	-0,024
-418,715	-95,735	-0,070	-0,013
-417,701	-174,366	0,107	-0,002
-416,686	-200,000	0,017	0,090
-415,671	-129,773	0,028	-0,003
-414,657	-61,246	0,086	-0,026
-413,642	-200,000	-0,001	-0,063
-412,628	800,000	-0,041	0,096
-411,613	-200,000	0,004	0,016
-410,598	-69,269	-0,080	0,022
-409,584	-19,565	0,162	-0,073
-408,569	33,876	-0,026	0,017
-407,555	800,000	0,053	-0,145
-406,540	134,141	0,072	0,068
-405,525	-66,977	-0,073	-0,021
-404,511	8,697	0,044	0,024
-403,496	-200,000	0,003	0,043
-402,482	-66,791	-0,040	-0,011
-401,467	-200,000	0,005	-0,033
-400,452	-200,000	0,032	0,139
-399,438	-23,054	-0,102	0,045
-398,423	-200,000	0,035	0,130
-397,409	800,000	0,069	0,186
-396,394	16,076	0,058	-0,033
-395,379	151,477	0,090	-0,089
-394,365	-73,553	0,059	0,015
-393,350	399,861	0,046	0,071
-392,336	-136,645	0,018	0,002
-391,321	-200,000	-0,009	0,030
-390,306	291,117	-0,037	-0,049
-389,292	800,000	-0,046	-0,149
-388,277	-200,000	-0,016	0,124
-387,263	20,662	0,021	0,012
-386,248	-200,000	0,008	0,092
-385,233	-117,713	-0,076	0,010
-384,219	800,000	-0,025	-0,077
-383,204	27,310	0,041	-0,025
-382,190	-200,000	0,008	-0,115
-381,175	800,000	0,047	0,096
-380,160	330,682	0,095	0,133
-379,146	40,897	-0,104	-0,068
-378,131	-1,758	0,033	-0,017
-377,117	129,624	-0,038	-0,036
-376,102	-200,000	-0,028	-0,169
-375,088	160,032	-0,053	-0,054
-374,073	-27,817	-0,095	0,040
-373,058	-28,528	0,042	-0,017
-372,044	-9,104	-0,039	0,019
-371,029	375,181	0,040	0,059
-370,015	157,340	-0,065	-0,065
-369,000	47,874	0,030	-0,020
-367,985	-200,000	-0,045	-0,178
-366,971	-75,779	0,032	-0,008
-365,956	800,000	0,026	-0,072
-364,942	-200,000	-0,008	0,115
-363,927	-33,417	-0,067	-0,027
-362,912	655,592	0,074	-0,140
-361,898	156,657	-0,047	-0,047
-360,883	534,095	-0,060	0,104
-359,869	503,906	0,044	-0,075
-358,854	590,310	-0,057	-0,102
-357,839	-31,633	0,105	-0,043
-356,825	510,770	-0,050	0,084
-355,810	21,163	-0,094	0,055
-354,796	-86,878	-0,061	-0,013
-353,781	-200,000	0,008	-0,035
-352,766	-101,764	0,110	0,019
-351,752	411,461	-0,068	0,105
-350,737	120,634	0,101	0,091
-349,723	301,203	-0,078	-0,105
-348,708	-43,971	-0,038	0,014
-347,693	800,000	0,017	0,048
-346,679	-56,824	-0,097	-0,031
-345,664	41,050	-0,150	-0,098
-344,650	351,032	-0,031	-0,044
-343,635	165,317	0,049	0,050
-342,620	800,000	0,043	0,105
-341,606	243,584	-0,035	0,042
-340,591	-38,027	0,058	0,022
-339,577	800,000	-0,055	0,146
-338,562	-85,655	-0,136	-0,030
-337,548	800,000	0,046	-0,130
-336,533	-200,000	-0,013	0,072
-335,518	48,477	-0,041	0,028
-334,504	-0,233	-0,034	-0,018
-333,489	-200,000	0,007	-0,113
-332,475	-40,820	-0,048	0,018
-331,460	44,245	-0,082	0,055
-330,445	-1,383	-0,112	0,057
-329,431	57,503	-0,046	-0,033
-328,416	-200,000	0,010	-0,059
-327,402	-40,466	-0,076	0,029
-326,387	293,049	0,038	0,051
-325,372	13,335	-0,187	-0,105
-324,358	48,648	0,119	-0,081
-323,343	-200,000	-0,015	-0,085
-322,329	800,000	0,040	0,098
-321,314	231,272	0,111	0,132
-320,299	465,852	-0,029	0,047
-319,285	-200,000	-0,031	-0,110
-318,270	-115,926	-0,120	0,016
-317,256	-73,349	-0,057	0,015
-316,241	-200,000	-0,026	-0,099
-315,226	442,998	-0,030	-0,048
-314,212	800,000	0,024	0,067
-313,197	-119,077	-0,095	0,012
-312,183	683,988	-0,049	0,094
-311,168	226,919	-0,067	-0,079
-310,153	196,320	-0,030	-0,033
-309,139	-36,161	0,026	0,010
-308,124	-200,000	0,007	-0,063
-307,110	-17,007	0,018	0,008
-306,095	218,296	0,072	0,083
-305,080	800,000	0,019	-0,059
-304,066	-179,925	-0,103	-0,002
-303,051	331,536	-0,034	0,048
-302,037	-144,410	0,054	-0,004
-301,022	-200,000	0,037	0,158
-300,008	-177,343	-0,021	-0,000
-298,993	-200,000	0,026	0,111
-297,978	-200,000	-0,016	0,132
-296,964	-200,000	0,011	0,047
-295,949	800,000	-0,022	-0,068
-294,935	-73,399	-0,079	0,021
-293,920	-200,000	-0,040	0,136
-292,905	800,000	-0,021	-0,045
-291,891	769,355	-0,034	-0,067
-290,876	-200,000	0,014	0,050
-289,862	-3,512	-0,087	0,044
-288,847	800,000	-0,019	-0,056
-287,832	-200,000	-0,001	-0,133
-286,818	25,428	-0,077	-0,046
-285,803	-200,000	-0,017	-0,063
-284,789	800,000	0,018	0,046
-283,774	-29,911	0,115	-0,047
-282,759	-200,000	0,007	-0,100
-281,745	-153,287	-0,217	0,011
-280,730	-200,000	-0,016	-0,249
-279,716	-158,814	-0,087	0,004
-278,701	-98,372	0,016	0,003
-277,686	800,000	0,036	0,075
-276,672	800,000	-0,048	0,121
-275,657	800,000	0,041	0,084
-274,643	430,030	-0,064	-0,101
-273,628	800,000	-0,043	-0,088
-272,613	-19,898	0,047	-0,021
-271,599	54,870	0,120	0,084
-270,584	800,000	0,072	0,165
-269,570	126,548	0,114	0,105
-268,555	800,000	-0,047	-0,124
-267,540	800,000	-0,035	0,094
-266,526	-200,000	-0,033	0,158
-265,511	-200,000	-0,009	0,033
-264,497	14,162	0,049	0,027
-263,482	413,106	0,069	0,107
-262,467	76,928	0,114	0,087
-261,453	-200,000	0,001	-0,071
-260,438	17,436	-0,082	-0,047
-259,424	203,226	0,023	-0,026
-258,409	800,000	-0,072	-0,148
-257,395	268,059	-0,080	0,102
-256,380	800,000	0,048	0,100
-255,365	139,311	0,053	-0,050
-254,351	68,835	0,064	-0,048
-253,336	800,000	0,041	0,115
-252,322	353,829	0,024	0,035
-251,307	409,280	0,075	-0,115
-250,292	800,000	0,049	0,118
-249,278	1,005	0,220	0,114
-248,263	-2,537	0,090	0,045
-247,249	128,786	0,074	0,068
-246,234	93,490	0,045	-0,037
-245,219	-200,000	0,019	-0,090
-244,205	94,090	-0,097	-0,079
-243,190	-200,000	0,010	0,082
-242,176	-200,000	0,009	0,137
-241,161	-1,835	0,145	-0,073
-240,146	134,377	0,092	-0,086
-239,132	-161,996	-0,086	-0,003
-238,117	33,624	0,081	-0,051
-237,103	92,342	-0,073	-0,060
-236,088	-27,835	-0,086	-0,036
-235,073	303,041	0,084	0,113
-234,059	-200,000	0,003	0,046
-233,044	800,000	-0,036	0,077
-232,030	494,037	-0,016	0,026
-231,015	-111,260	0,111	0,016
-230,000	-148,683	-0,065	-0,004
-228,986	-182,647	0,062	-0,001
-227,971	-200,000	-0,030	0,127
-226,957	-200,000	0,029	-0,139
-225,942	-200,000	0,013	-0,113
-224,927	191,755	0,045	-0,049
-223,913	500,642	0,008	-0,014
-222,898	325,704	0,043	0,060
-221,884	52,225	-0,077	0,053
-220,869	800,000	-0,070	0,193
-219,855	-53,065	-0,025	0,008
-218,840	439,124	0,063	0,100
-217,825	271,894	0,025	-0,032
-216,811	-61,105	0,051	-0,016
-215,796	100,006	0,041	-0,034
-214,782	96,679	0,080	0,066
-213,767	-25,387	-0,064	0,027
-212,752	-151,184	0,145	-0,008
-211,738	64,076	-0,041	0,029
-210,723	265,301	0,020	0,026
-209,709	-137,986	-0,037	0,003
-208,694	623,450	-0,053	-0,097
-207,679	-91,474	0,165	0,034
-206,665	800,000	0,055	0,150
-205,650	-200,000	0,014	0,112
-204,636	-200,000	-0,023	0,103
-203,621	75,146	-0,053	0,040
-202,606	22,887	-0,113	-0,067
-201,592	-200,000	-0,004	0,077
-200,577	32,209	0,087	-0,054
-199,563	-17,403	-0,088	0,040
-198,548	-25,852	0,030	-0,013
-197,533	51,821	-0,139	0,095
-196,519	-54,562	0,031	-0,010
-195,504	725,322	0,051	-0,099
-194,490	-0,521	0,081	-0,042
-193,475	26,846	0,008	-0,005
-192,460	-200,000	-0,024	0,147
-191,446	519,785	0,037	0,064
-190,431	-200,000	-0,010	0,044
-189,417	-30,435	0,128	0,052
-188,402	-200,000	-0,017	0,151
-187,387	-200,000	0,001	-0,060
-186,373	-108,048	0,020	-0,003
-185,358	800,000	0,043	-0,114
-184,344	800,000	0,025	0,070
-183,329	393,684	0,026	0,040
-182,315	112,824	-0,048	-0,042
-181,300	-200,000	0,005	-0,036
-180,285	-46,960	-0,073	-0,025
-179,271	800,000	-0,060	-0,172
-178,256	-81,959	0,035	0,008
-177,242	-102,939	0,056	0,010
-176,227	-200,000	-0,008	0,048
-175,212	-13,395	-0,061	-0,028
-174,198	-80,761	0,088	0,021
-173,183	-200,000	0,001	-0,100
-172,169	32,355	-0,093	-0,058
-171,154	-200,000	0,030	-0,139
-170,139	-95,461	0,043	0,008
-169,125	15,997	-0,049	-0,028
-168,110	543,191	-0,056	0,097
-167,096	-200,000	-0,021	-0,174
-166,081	-92,078	0,058	0,012
-165,066	800,000	0,022	0,052
-164,052	-99,433	0,025	0,004
-163,037	-67,227	0,059	-0,017
-162,023	471,490	0,044	0,071
-161,008	-99,463	-0,067	0,012
-159,993	-200,000	0,000	0,043
-158,979	-200,000	-0,007	-0,066
-157,964	155,691	0,054	-0,053
-156,950	-143,592	-0,050	-0,003
-155,935	-200,000	0,013	-0,080
-154,920	106,660	0,016	-0,013
-153,906	-135,734	0,086	-0,007
-152,891	124,676	-0,046	-0,041
-151,877	-150,965	-0,166	-0,009
-150,862	504,725	0,118	-0,197
-149,847	218,642	-0,097	0,112
-148,833	-11,368	0,077	-0,036
-147,818	-200,000	0,009	0,128
-146,804	360,829	0,103	0,148
-145,789	800,000	-0,008	0,024
-144,775	188,979	0,053	-0,057
-143,760	316,904	-0,041	0,056
-142,745	-200,000	0,019	-0,190
-141,731	-200,000	-0,019	0,149
-140,716	-52,322	0,086	-0,028
-139,702	-81,952	-0,083	0,019
-138,687	59,601	-0,015	-0,011
-137,672	-200,000	-0,026	-0,156
-136,658	800,000	0,029	-0,066
-135,643	-11,755	-0,201	-0,095
-134,629	409,618	-0,050	0,077
-133,614	737,909	-0,025	-0,048
-132,599	-82,047	-0,094	-0,022
-131,585	213,386	-0,101	0,116
-130,570	46,160	0,032	0,021
-129,556	-130,091	-0,214	0,021
-128,541	295,923	-0,064	-0,084
-127,526	28,915	0,110	-0,067
-126,512	800,000	-0,042	-0,101
-125,497	800,000	0,038	0,100
-124,483	-65,830	-0,111	0,032
-123,468	-200,000	-0,003	-0,050
-122,453	-159,392	0,057	-0,002
-121,439	-7,060	0,100	0,049
-120,424	106,500	-0,027	0,023
-119,410	-200,000	0,001	-0,046
-118,395	800,000	0,035	0,106
-117,380	286,183	-0,039	0,050
-116,366	800,000	-0,029	0,087
-115,351	-48,536	0,074	-0,026
-114,337	741,898	-0,031	-0,060
-113,322	390,924	-0,052	-0,078
-112,307	225,862	0,086	-0,101
-111,293	800,000	0,071	0,185
-110,278	-106,030	0,164	0,026
-109,264	800,000	-0,050	-0,101
-108,249	800,000	0,004	0,011
-107,234	20,342	-0,108	-0,063
-106,220	-200,000	0,018	0,075
-105,205	45,679	0,058	-0,039
-104,191	469,658	-0,085	-0,138
-103,176	-200,000	0,029	0,133
-102,162	7,327	-0,065	0,035
-101,147	-79,645	-0,081	0,020
-100,132	-4,010	-0,055	0,027
-99,118	33,688	0,051	0,032
-98,103	323,725	-0,061	0,083
-97,089	622,763	-0,038	-0,070
-96,074	98,431	0,057	0,047
-95,059	-118,934	-0,171	-0,021
-94,045	-35,688	-0,092	-0,036
-93,030	20,083	0,068	0,039
-92,016	-200,000	-0,011	-0,094
-91,001	270,204	0,050	0,064
-89,986	133,317	0,165	0,154
-88,972	-82,364	-0,054	-0,012
-87,957	800,000	-0,022	0,065
-86,943	344,589	-0,081	0,115
-85,928	638,334	-0,050	-0,092
-84,913	-49,390	0,031	-0,011
-83,899	800,000	0,028	-0,064
-82,884	-200,000	0,010	-0,051
-81,870	-11,833	-0,061	0,029
-80,855	-35,547	-0,120	0,047
-79,840	-4,119	-0,199	0,099
-78,826	0,791	-0,156	-0,080
-77,811	-125,390	-0,083	0,009
-76,797	800,000	-0,055	-0,134
-75,782	800,000	0,015	-0,044
-74,767	80,979	-0,159	0,123
-73,753	-200,000	-0,030	0,186
-72,738	242,312	0,065	0,078
-71,724	-77,895	-0,117	0,029
-70,709	4,563	0,097	-0,051
-69,694	184,088	-0,070	-0,075
-68,680	-45,220	0,081	-0,029
-67,665	517,341	0,025	0,042
-66,651	-200,000	-0,021	0,176
-65,636	18,494	-0,045	0,026
-64,622	5,802	-0,086	-0,046
-63,607	37,780	0,085	-0,054
-62,592	-31,252	0,050	0,020
-61,578	51,664	-0,092	-0,063
-60,563	42,468	0,128	0,083
-59,549	20,563	-0,115	-0,067
-58,534	70,172	-2,632	-1,949
-57,519	81,209	0,415	-0,321
-56,505	800,000	-1,829	-5,560
-55,490	345,259	1,396	1,974
-54,476	800,000	5,195	11,166
-53,461	-200,000	22,190	349,089
-52,446	800,000	760,235	2298,821
-51,432	514,379	1646,290	2768,206
-50,417	97,917	1610,348	1329,323
-49,403	65,700	1266,960	920,254
-48,388	23,132	1018,348	598,550
-47,373	19,417	985,382	566,894
-46,359	12,917	972,433	538,146
-45,344	8,632	969,195	522,290
-44,330	9,172	967,007	522,859
-43,315	8,107	965,377	518,472
-42,300	8,113	964,243	517,864
-41,286	8,058	963,198	517,103
-40,271	8,024	962,186	516,426
-39,257	8,055	961,197	515,976
-38,242	8,028	960,353	515,416
-37,227	8,004	959,636	514,932
-36,213	7,940	959,109	514,419
-35,198	8,000	958,035	514,020
-34,184	8,074	957,128	513,751
-33,169	7,978	956,239	512,942
-32,154	8,044	955,498	512,740
-31,140	8,107	954,418	512,342
-30,125	8,101	953,686	511,912
-29,111	8,024	952,876	511,207
-28,096	8,036	952,220	510,874
-27,082	8,061	951,373	510,479
-26,067	8,018	950,887	510,059
-25,052	7,980	950,075	509,480
-24,038	8,041	949,288	509,235
-23,023	7,996	948,733	508,772
-22,009	8,012	947,953	508,385
-20,994	8,049	947,671	508,334
-19,979	8,047	946,723	507,799
-18,965	8,047	946,107	507,446
-17,950	8,034	945,484	507,051
-16,936	8,013	944,905	506,654
-15,921	7,985	944,210	506,172
-14,906	7,964	943,433	505,667
-13,892	7,977	942,850	505,377
-12,877	7,898	942,305	504,812
-11,863	7,900	941,645	504,445
-10,848	7,959	941,078	504,309
-9,833	7,975	940,769	504,173
-8,819	7,981	940,015	503,769
-7,804	7,932	939,454	503,293
-6,790	7,912	938,796	502,856
-5,775	7,983	938,026	502,651
-4,760	7,907	937,657	502,192
-3,746	7,947	937,172	502,040
-2,731	7,743	936,251	500,880
-1,717	7,762	935,782	500,667
-0,702	7,762	935,035	500,250
0,313	7,600	934,431	500,170
1,327	10,994	932,117	509,593
2,342	19,402	780,336	448,669
3,356	14,338	448,124	250,006
4,371	-11,499	312,384	146,804
5,386	-15,328	294,997	134,748
6,400	-17,468	288,976	129,864
7,415	-17,532	286,248	128,563
8,429	-18,207	284,463	127,091
9,444	-18,200	283,365	126,597
10,459	-18,195	282,886	126,376
11,473	-18,332	282,319	125,978
12,488	-18,216	281,790	125,844
13,502	-18,161	281,301	125,667
14,517	-18,069	280,786	125,514
15,531	-17,955	280,503	125,486
16,546	-18,085	280,309	125,263
17,561	-18,104	279,697	124,960
18,575	-18,081	279,418	124,847
19,590	-18,272	278,981	124,459
20,604	-17,989	278,756	124,617
21,619	-18,072	278,307	124,326
22,634	-18,182	277,990	124,069
23,648	-18,232	277,829	123,938
24,663	-18,065	277,446	123,914
25,677	-18,163	277,186	123,695
26,692	-18,174	276,935	123,562
27,707	-18,095	276,543	123,450
28,721	-18,185	276,436	123,306
29,736	-18,067	275,989	123,208
30,750	-18,272	275,724	122,884
31,765	-18,069	275,618	123,018
32,780	-18,121	275,170	122,758
33,794	-18,236	274,941	122,536
34,809	-18,119	274,742	122,546
35,823	-18,141	274,566	122,437
36,838	-18,006	274,136	122,361
37,853	-18,183	273,932	122,093
38,867	-17,919	273,692	122,222
39,882	-18,105	273,438	121,924
40,896	-17,979	273,221	121,934
41,911	-18,005	273,071	121,832
42,926	-18,097	272,918	121,667
43,940	-18,145	272,444	121,400
44,955	-17,999	272,247	121,437
45,969	-18,053	272,101	121,311
46,984	-17,893	271,733	121,285
47,999	-17,989	271,822	121,225
49,013	-17,905	271,560	121,175
50,028	-17,825	271,038	121,006
51,042	-17,883	270,973	120,912
52,057	-18,067	270,836	120,669
53,071	-17,818	270,466	120,724
54,086	-18,147	270,353	120,359
55,101	-18,124	270,045	120,232
56,115	-17,974	269,873	120,283
57,130	-18,042	269,508	120,048
58,144	-18,348	269,413	119,712
59,159	-17,996	269,097	119,885
60,174	-18,194	268,864	119,589
61,188	-17,932	268,503	119,658
62,203	-18,027	268,344	119,489
63,217	-17,935	268,013	119,415
64,232	-18,119	267,926	119,198
65,247	-17,872	267,644	119,287
66,261	-17,911	267,329	119,101
67,276	-17,950	267,112	118,958
68,290	-17,970	267,005	118,882
69,305	-17,964	266,780	118,776
70,320	-17,998	266,632	118,669
71,334	-17,881	266,379	118,652
72,349	-18,098	266,083	118,312
73,363	-18,189	265,984	118,175
74,378	-18,056	265,561	118,097
75,393	-18,114	265,483	117,999
76,407	-18,032	265,175	117,926
77,422	-18,044	264,845	117,758
78,436	-18,026	264,778	117,734
79,451	-17,939	264,472	117,666
80,466	-17,975	264,219	117,511
81,480	-18,002	264,074	117,411
82,495	-17,900	263,879	117,406
83,509	-17,924	263,652	117,272
84,524	-17,891	263,352	117,159
85,539	-17,927	263,326	117,104
86,553	-17,994	263,014	116,895
87,568	-17,973	262,811	116,813
88,582	-18,008	262,448	116,610
89,597	-18,222	262,575	116,464
90,611	-18,031	262,160	116,441
91,626	-17,898	261,971	116,465
92,641	-18,016	261,779	116,264
93,655	-17,916	261,642	116,282
94,670	-17,932	261,280	116,097
95,684	-18,078	261,104	115,878
96,699	-18,136	260,990	115,766
97,714	-18,014	260,826	115,791
98,728	-18,038	260,620	115,667
99,743	-17,954	260,425	115,645
100,757	-17,723	260,232	115,754
101,772	-17,900	259,915	115,446
102,787	-18,041	259,656	115,196
103,801	-18,003	259,588	115,190
104,816	-17,923	259,331	115,136
105,830	-17,890	259,195	115,094
106,845	-17,827	258,975	115,042
107,860	-17,890	258,462	114,749
108,874	-18,022	258,522	114,649
109,889	-17,936	258,338	114,632
110,903	-18,097	258,137	114,392
111,918	-17,962	257,909	114,399
112,933	-18,027	257,584	114,187
113,947	-17,786	257,431	114,320
114,962	-17,978	257,260	114,066
115,976	-17,801	257,072	114,128
116,991	-17,990	256,944	113,895
118,006	-17,878	256,724	113,885
119,020	-17,915	256,626	113,799
120,035	-17,853	256,324	113,709
121,049	-18,000	256,282	113,553
122,064	-17,899	255,989	113,500
123,079	-17,974	255,859	113,368
124,093	-17,879	255,648	113,347
125,108	-17,933	255,419	113,188
126,122	-17,803	255,216	113,201
127,137	-17,887	255,136	113,083
128,151	-17,809	254,890	113,031
129,166	-17,985	254,665	112,769
130,181	-17,812	254,504	112,837
131,195	-17,882	254,200	112,632
132,210	-17,990	254,105	112,486
133,224	-17,986	253,771	112,331
134,239	-17,847	253,667	112,395
135,254	-17,897	253,454	112,247
136,268	-17,993	253,213	112,049
137,283	-17,789	252,843	112,050
138,297	-18,043	252,764	111,788
139,312	-17,605	252,637	112,097
140,327	-17,822	252,297	111,750
141,341	-17,891	252,120	111,602
142,356	-17,958	251,968	111,468
143,370	-18,006	251,837	111,359
144,385	-17,960	251,639	111,301
145,400	-17,905	251,553	111,300
146,414	-17,966	251,355	111,151
147,429	-17,921	250,924	110,988
148,443	-17,959	250,985	110,973
149,458	-17,870	250,652	110,892
150,473	-17,983	250,607	110,766
151,487	-17,930	250,318	110,673
152,502	-17,929	250,035	110,539
153,516	-17,885	249,923	110,517
154,531	-17,820	249,789	110,503
155,546	-17,826	249,610	110,409
156,560	-17,765	249,453	110,381
157,575	-17,755	249,300	110,312
158,589	-17,842	248,997	110,094
159,604	-17,850	248,675	109,936
160,619	-17,878	248,645	109,888
161,633	-17,850	248,438	109,811
162,648	-18,021	248,379	109,631
163,662	-17,860	248,166	109,663
164,677	-17,950	248,086	109,542
165,692	-17,945	247,885	109,448
166,706	-17,801	247,613	109,438
167,721	-17,796	247,337	109,311
168,735	-17,869	247,271	109,211
169,750	-17,846	247,189	109,185
170,764	-17,807	246,974	109,113
171,779	-17,850	246,873	109,022
172,794	-17,806	246,649	108,950
173,808	-17,759	246,462	108,896
174,823	-17,619	246,302	108,933
175,837	-17,672	246,227	108,846
176,852	-17,842	246,048	108,616
177,867	-17,968	245,786	108,386
178,881	-17,686	245,605	108,530
179,896	-17,850	245,430	108,308
180,910	-17,979	245,381	108,169
181,925	-17,953	245,083	108,049
182,940	-17,766	244,835	108,086
183,954	-17,962	244,742	107,873
184,969	-17,801	244,704	107,979
185,983	-17,796	244,486	107,878
186,998	-17,789	244,279	107,782
188,013	-17,902	244,021	107,565
189,027	-17,736	243,865	107,624
190,042	-17,942	243,747	107,393
191,056	-18,002	243,661	107,296
192,071	-17,974	243,391	107,191
193,086	-17,871	243,209	107,186
194,100	-18,112	243,042	106,905
195,115	-17,749	242,743	107,061
196,129	-17,764	242,533	106,947
197,144	-17,804	242,359	106,828
198,159	-17,924	242,228	106,662
199,173	-17,743	241,991	106,696
200,188	-17,797	241,771	106,545
201,202	-17,764	241,872	106,607
202,217	-17,735	241,562	106,485
203,232	-17,615	241,335	106,474
204,246	-17,864	241,228	106,214
205,261	-17,913	241,164	106,137
206,275	-16,288	241,533	107,613
207,290	-11,355	243,230	112,401
208,304	-5,660	245,034	117,915
209,319	-3,264	245,598	120,150
210,334	-2,607	245,556	120,660
211,348	-1,822	245,870	121,450
212,363	-1,149	245,790	121,954
213,377	-0,446	245,808	122,530
214,392	0,112	245,884	123,016
215,407	0,340	246,059	123,280
216,421	0,701	245,714	123,392
217,436	0,416	245,563	123,072
218,450	0,519	245,531	123,130
219,465	0,632	245,371	123,131
220,480	0,638	245,210	123,044
221,494	0,608	245,083	122,945
222,509	0,258	244,735	122,473
223,523	0,150	244,457	122,234
224,538	0,084	244,347	122,115
225,553	0,127	244,177	122,054
226,567	-0,118	243,975	121,743
227,582	0,016	243,784	121,746
228,596	0,116	243,595	121,722
229,611	0,102	243,603	121,704
230,626	0,050	243,367	121,532
231,640	0,080	243,164	121,444
232,655	-0,133	243,055	121,207
233,669	0,024	242,858	121,225
234,684	-0,063	242,724	121,076
235,699	-0,092	242,638	121,000
236,713	-0,074	242,334	120,852
237,728	0,035	242,362	120,943
238,742	0,006	242,124	120,790
239,757	-0,069	241,853	120,583
240,772	-0,050	241,795	120,559
241,786	0,149	241,530	120,577
242,801	-0,162	241,524	120,312
243,815	-0,194	241,530	120,279
244,830	0,010	241,163	120,249
245,844	0,084	240,912	120,173
246,859	0,037	240,811	120,074
247,874	0,023	240,730	120,012
248,888	0,018	240,395	119,831
249,903	0,173	240,375	119,933
250,917	0,178	240,147	119,813
251,932	0,130	240,178	119,779
252,947	-0,046	240,014	119,546
253,961	-0,077	239,829	119,418
254,976	0,114	239,629	119,461
255,990	-0,045	239,530	119,274
257,005	0,158	239,224	119,273
258,020	-0,057	239,260	119,108
259,034	0,206	238,947	119,151
260,049	0,003	238,930	118,971
261,063	-0,078	238,662	118,762
262,078	-0,069	238,442	118,650
263,093	0,023	238,361	118,672
264,107	0,165	238,160	118,673
265,122	0,151	238,012	118,579
266,136	0,116	237,903	118,486
267,151	0,164	237,657	118,391
268,166	0,235	237,532	118,374
269,180	-0,064	237,427	118,075
270,195	0,175	237,169	118,125
271,209	0,137	236,981	117,991
272,224	0,078	236,894	117,890
273,239	0,085	236,820	117,848
274,253	0,093	236,596	117,733
275,268	0,052	236,523	117,653
276,282	0,125	236,314	117,596
277,297	0,076	236,147	117,464
278,312	0,101	235,992	117,397
279,326	0,159	235,876	117,374
280,341	0,173	235,785	117,329
281,355	0,209	235,693	117,300
282,370	0,146	235,532	117,162
283,384	0,229	235,334	117,117
284,399	0,005	235,284	116,906
285,414	0,061	235,004	116,801
286,428	0,022	234,901	116,708
287,443	0,211	234,741	116,766
288,457	0,013	234,648	116,555
289,472	0,051	234,475	116,488
290,487	0,285	234,280	116,563
291,501	0,207	233,987	116,347
292,516	0,186	233,800	116,226
293,530	0,137	233,795	116,176
294,545	0,300	233,766	116,278
295,560	0,208	233,589	116,108
296,574	0,307	233,385	116,073
297,589	0,285	233,119	115,913
298,603	0,429	233,023	115,967
299,618	0,042	232,986	115,639
300,633	0,265	232,924	115,770
301,647	0,377	232,787	115,777
302,662	0,221	232,598	115,553
303,676	0,301	232,311	115,462
304,691	0,423	232,265	115,522
305,706	0,410	232,104	115,423
306,720	0,411	231,992	115,357
307,735	0,198	231,771	115,073
308,749	0,396	231,701	115,180
309,764	0,331	231,458	115,000
310,779	0,323	231,361	114,935
311,793	0,375	231,136	114,853
312,808	0,350	230,987	114,749
313,822	0,327	230,796	114,626
314,837	0,273	230,632	114,493
315,852	0,410	230,589	114,566
316,866	0,582	230,414	114,601
317,881	0,505	230,211	114,430
318,895	0,466	230,027	114,300
319,910	0,628	229,922	114,361
320,925	0,336	229,882	114,108
321,939	0,421	229,551	113,999
322,954	0,716	229,574	114,224
323,968	0,414	229,403	113,899
324,983	0,445	229,344	113,883
325,997	0,601	229,051	113,845
327,012	0,519	228,945	113,721
328,027	0,308	228,809	113,483
329,041	0,278	228,672	113,382
330,056	0,241	228,645	113,331
331,070	0,296	228,546	113,313
332,085	0,420	228,309	113,280
333,100	0,363	228,126	113,136
334,114	0,441	227,889	113,067
335,129	0,498	227,783	113,047
336,143	0,769	227,543	113,122
337,158	0,319	227,680	112,841
338,173	0,417	227,479	112,805
339,187	0,612	227,285	112,846
340,202	0,487	227,267	112,732
341,216	0,443	227,023	112,568
342,231	0,481	226,878	112,515
343,246	0,506	226,709	112,440
344,260	0,727	226,459	112,471
345,275	0,615	226,461	112,378
346,289	0,557	226,348	112,269
347,304	0,609	226,340	112,294
348,319	0,400	225,980	111,949
349,333	0,540	225,871	111,990
350,348	0,719	225,723	112,040
351,362	0,552	225,564	111,826
352,377	0,680	225,342	111,801
353,392	0,730	225,275	111,796
354,406	0,618	225,224	111,677
355,421	191,900	1310,999	1376,040
356,435	153,699	1443,139	1375,871
