DTS Sentinel unit serial number:	SN410029Multiplexer serial number:	ORYXHardware model number:	OX2-SRSoftware version number:	ORYX F/W v4,00 Oryx Data Collector v3.7.2.0data status	okinstallation	B5 Nyhavnadifferential loss correction	single-endedforward channel	channel 2reverse channel	N/Adate	2023/12/14time	12:32:13forward acquisition time	300,00reverse acquisition time	0,00gamma	499,1914k internal	0,3158k external	0,3158temperature offset calibration	1,0000default loss term (dB/km)	0,3820temperature slope calibration	1,0000multiplexer offset coefficient	1,0000multiplexer slope coefficient	1,0000fibre end	0,00T internal ref (°C)	7,85T ext. ref 1 (°C)	-7,57T ext. ref 2 (°C)	-7,63length (m)	temperature (°C)	Stokes	anti-Stokes-744,400	4,694	0,235	0,127
-743,385	-173,640	-0,416	0,009
-742,371	-27,466	0,190	0,081
-741,356	-33,086	-0,421	0,171
-740,342	100,483	0,152	0,130
-739,327	-74,827	-0,245	0,064
-738,312	-164,244	0,146	-0,005
-737,298	-1,812	-0,337	-0,174
-736,283	-19,558	0,152	0,069
-735,269	-69,287	-0,358	-0,101
-734,254	26,238	0,132	0,081
-733,239	-10,641	-0,653	-0,317
-732,225	-67,388	0,132	0,038
-731,210	-200,000	-0,009	0,030
-730,196	-122,114	-0,158	-0,019
-729,181	800,000	-0,008	-0,020
-728,167	182,566	0,024	-0,026
-727,152	-83,760	-0,084	-0,020
-726,137	194,128	-0,073	0,081
-725,123	-200,000	-0,028	0,213
-724,108	-200,000	0,006	-0,082
-723,094	-200,000	0,027	-0,203
-722,079	561,814	-0,066	-0,119
-721,064	-48,709	0,040	-0,014
-720,050	-85,869	-0,187	-0,042
-719,035	359,149	-0,035	-0,052
-718,021	493,516	-0,047	-0,079
-717,006	375,938	-0,037	-0,055
-715,991	-4,788	-0,142	-0,072
-714,977	289,732	0,059	0,079
-713,962	-2,554	0,123	-0,063
-712,948	-200,000	-0,022	0,126
-711,933	72,508	-0,114	-0,088
-710,918	-200,000	-0,027	0,121
-709,904	283,132	-0,047	0,062
-708,889	800,000	0,036	0,091
-707,875	-166,304	0,106	-0,003
-706,860	88,925	0,123	-0,101
-705,845	18,212	-0,096	0,056
-704,831	800,000	0,072	0,198
-703,816	-116,411	-0,164	-0,022
-702,802	-81,563	0,050	-0,012
-701,787	232,251	-0,051	0,061
-700,772	26,559	-0,130	-0,080
-699,758	800,000	-0,007	-0,018
-698,743	-200,000	-0,004	0,042
-697,729	-200,000	0,027	0,113
-696,714	449,447	-0,087	0,142
-695,699	12,869	-0,088	-0,050
-694,685	-200,000	0,007	0,079
-693,670	800,000	0,035	0,081
-692,656	194,680	0,102	0,114
-691,641	555,458	0,033	0,058
-690,627	-103,973	-0,092	-0,016
-689,612	-55,953	0,073	-0,024
-688,597	-200,000	0,014	-0,066
-687,583	-200,000	0,012	0,111
-686,568	24,321	-0,087	0,053
-685,554	25,254	-0,086	0,053
-684,539	-200,000	-0,008	0,065
-683,524	84,006	-0,062	0,050
-682,510	800,000	0,040	0,108
-681,495	800,000	-0,047	-0,122
-680,481	800,000	0,062	-0,137
-679,466	800,000	-0,029	-0,070
-678,451	-200,000	0,028	-0,113
-677,437	-13,671	0,092	0,043
-676,422	76,694	0,171	0,133
-675,408	178,862	0,108	-0,116
-674,393	124,465	-0,081	0,075
-673,378	41,757	-0,116	-0,077
-672,364	157,020	-0,092	-0,094
-671,349	-140,295	-0,071	0,005
-670,335	96,973	0,040	0,034
-669,320	-200,000	0,007	-0,045
-668,305	184,422	-0,001	0,001
-667,291	198,859	-0,085	-0,096
-666,276	514,891	-0,028	-0,049
-665,262	305,418	-0,049	-0,068
-664,247	-200,000	-0,025	-0,120
-663,232	-48,307	-0,075	-0,027
-662,218	-133,851	0,096	-0,009
-661,203	-200,000	-0,022	-0,166
-660,189	644,806	0,062	-0,117
-659,174	-25,241	-0,060	-0,026
-658,159	-37,879	-0,126	-0,049
-657,145	-17,969	0,035	0,016
-656,130	-82,484	0,174	-0,041
-655,116	-55,129	-0,109	0,036
-654,101	800,000	-0,022	0,070
-653,086	267,383	-0,059	0,076
-652,072	-85,499	-0,082	0,019
-651,057	229,127	-0,134	-0,161
-650,043	-101,117	0,029	0,005
-649,028	-200,000	0,005	-0,147
-648,014	15,920	-0,015	-0,009
-646,999	37,005	0,033	0,022
-645,984	800,000	0,028	0,063
-644,970	155,717	-0,044	-0,045
-643,955	10,646	-0,149	-0,083
-642,941	-22,708	-0,069	-0,030
-641,926	800,000	-0,045	-0,100
-640,911	-92,439	0,070	-0,014
-639,897	462,349	0,084	0,137
-638,882	-49,292	0,043	0,015
-637,868	800,000	-0,035	0,101
-636,853	291,133	-0,084	-0,113
-635,838	800,000	0,044	-0,102
-634,824	-200,000	-0,016	0,094
-633,809	800,000	0,025	-0,060
-632,795	-167,391	0,105	0,003
-631,780	105,417	-0,101	0,087
-630,765	212,025	-0,031	-0,036
-629,751	172,392	0,077	-0,081
-628,736	-27,339	-0,043	-0,018
-627,722	86,399	-0,102	-0,082
-626,707	61,741	0,068	0,050
-625,692	58,347	-0,098	-0,070
-624,678	66,003	-0,028	0,021
-623,663	800,000	0,029	0,077
-622,649	-200,000	-0,033	0,111
-621,634	-200,000	-0,004	0,059
-620,619	163,902	-0,072	0,074
-619,605	-200,000	0,013	-0,087
-618,590	-166,448	0,008	0,000
-617,576	158,046	-0,132	0,134
-616,561	-165,695	-0,055	-0,002
-615,546	414,016	0,063	-0,099
-614,532	800,000	-0,064	-0,178
-613,517	30,859	0,045	0,028
-612,503	800,000	-0,023	0,062
-611,488	399,811	0,017	-0,026
-610,474	-200,000	0,031	0,103
-609,459	686,770	-0,052	-0,099
-608,444	-76,991	-0,109	-0,028
-607,430	338,594	0,059	0,084
-606,415	-200,000	-0,034	-0,117
-605,401	55,220	0,038	-0,027
-604,386	-49,968	-0,048	0,017
-603,371	-162,609	0,061	0,002
-602,357	126,531	0,072	0,067
-601,342	64,372	-0,103	-0,076
-600,328	-86,596	-0,041	-0,009
-599,313	-122,789	0,089	0,010
-598,298	-68,001	-0,209	-0,059
-597,284	-200,000	0,012	0,101
-596,269	-74,247	0,071	0,019
-595,255	-19,028	0,116	0,053
-594,240	61,254	-0,026	-0,019
-593,225	800,000	-0,046	-0,111
-592,211	137,482	-0,064	-0,061
-591,196	-147,106	0,042	0,003
-590,182	-22,099	0,100	0,044
-589,167	-200,000	-0,003	0,083
-588,152	800,000	-0,019	0,057
-587,138	-200,000	-0,001	0,058
-586,123	388,091	-0,113	0,172
-585,109	-200,000	-0,005	-0,076
-584,094	800,000	0,007	0,015
-583,079	3,016	-0,042	-0,022
-582,065	-200,000	0,014	-0,216
-581,050	-106,705	0,061	-0,010
-580,036	-109,583	0,072	0,011
-579,021	-200,000	0,011	-0,098
-578,006	483,383	0,019	-0,032
-576,992	276,223	-0,018	0,023
-575,977	-200,000	0,003	0,028
-574,963	3,935	0,055	-0,029
-573,948	800,000	-0,037	0,108
-572,934	800,000	-0,025	-0,064
-571,919	-127,175	-0,115	-0,012
-570,904	134,674	0,128	-0,122
-569,890	-74,244	0,057	-0,015
-568,875	33,991	0,125	-0,079
-567,861	-200,000	-0,018	0,106
-566,846	-200,000	-0,010	0,084
-565,831	5,984	-0,037	0,020
-564,817	-200,000	-0,005	0,095
-563,802	-122,777	-0,191	-0,022
-562,788	39,436	0,112	0,074
-561,773	-200,000	-0,022	0,139
-560,758	497,070	-0,035	-0,059
-559,744	449,919	-0,041	-0,067
-558,729	800,000	0,013	0,040
-557,715	188,609	-0,065	-0,071
-556,700	-34,614	0,122	-0,049
-555,685	-46,303	-0,153	-0,055
-554,671	748,931	-0,079	0,157
-553,656	-137,903	0,029	-0,002
-552,642	800,000	-0,029	0,071
-551,627	-8,175	0,041	0,020
-550,612	800,000	-0,049	0,125
-549,598	20,244	0,054	0,032
-548,583	-40,158	0,150	-0,057
-547,569	-199,418	0,054	-0,000
-546,554	47,001	0,132	0,090
-545,539	-170,956	-0,119	-0,003
-544,525	-98,511	0,043	0,008
-543,510	637,367	-0,024	0,044
-542,496	-99,201	0,020	-0,004
-541,481	180,587	0,083	-0,090
-540,466	-147,573	0,053	-0,003
-539,452	-54,203	0,044	0,015
-538,437	777,075	0,058	0,116
-537,423	128,512	-0,058	0,054
-536,408	238,570	-0,051	0,062
-535,393	-200,000	-0,010	-0,064
-534,379	800,000	0,031	-0,063
-533,364	-200,000	0,007	-0,052
-532,350	800,000	0,007	-0,022
-531,335	443,638	0,038	0,061
-530,321	800,000	0,008	0,019
-529,306	-65,070	0,125	-0,037
-528,291	-61,270	-0,036	0,011
-527,277	96,876	-0,062	-0,052
-526,262	800,000	-0,034	0,103
-525,248	-69,175	0,177	0,049
-524,233	800,000	-0,044	0,090
-523,218	-193,833	0,106	-0,001
-522,204	-200,000	0,008	-0,074
-521,189	-200,000	0,038	-0,228
-520,175	-200,000	0,015	-0,067
-519,160	-170,120	0,114	-0,003
-518,145	800,000	-0,049	0,118
-517,131	19,742	-0,034	0,020
-516,116	348,244	0,046	0,066
-515,102	800,000	-0,011	0,035
-514,087	-200,000	-0,033	-0,139
-513,072	24,077	0,085	-0,051
-512,058	-157,121	0,096	0,004
-511,043	800,000	-0,041	0,093
-510,029	416,012	0,065	0,101
-509,014	24,451	-0,076	0,046
-507,999	230,256	0,038	-0,046
-506,985	129,165	-0,092	0,086
-505,970	-200,000	-0,015	0,096
-504,956	434,676	-0,089	-0,141
-503,941	-200,000	0,002	-0,014
-502,926	334,712	0,039	-0,055
-501,912	8,163	-0,033	-0,018
-500,897	123,939	-0,053	0,049
-499,883	800,000	-0,006	-0,015
-498,868	30,739	-0,033	-0,020
-497,853	552,086	0,005	0,010
-496,839	413,723	-0,055	-0,085
-495,824	800,000	-0,057	0,124
-494,810	-200,000	0,085	0,000
-493,795	-200,000	0,003	-0,036
-492,781	392,163	-0,025	-0,038
-491,766	-200,000	0,010	0,032
-490,751	498,874	0,046	0,078
-489,737	37,727	0,019	-0,012
-488,722	168,223	-0,093	0,097
-487,708	625,016	0,029	0,053
-486,693	-30,053	-0,086	0,035
-485,678	44,864	0,037	0,025
-484,664	-7,160	-0,065	-0,032
-483,649	-116,910	-0,065	-0,009
-482,635	371,026	-0,044	-0,065
-481,620	-19,843	-0,169	0,076
-480,605	4,728	0,032	0,017
-479,591	130,209	0,067	0,062
-478,576	259,469	-0,058	-0,073
-477,562	800,000	-0,031	-0,072
-476,547	-47,904	-0,122	0,043
-475,532	-200,000	-0,023	-0,086
-474,518	331,308	0,040	-0,057
-473,503	-129,809	0,101	-0,010
-472,489	-41,560	-0,072	0,027
-471,474	-102,579	0,078	0,013
-470,459	-189,935	-0,097	0,001
-469,445	800,000	-0,030	-0,084
-468,430	-7,514	-0,101	0,050
-467,416	512,784	0,020	-0,035
-466,401	800,000	-0,028	0,059
-465,386	800,000	0,038	0,115
-464,372	248,159	-0,088	0,108
-463,357	800,000	-0,030	-0,092
-462,343	-200,000	-0,001	-0,115
-461,328	-194,583	-0,058	0,000
-460,313	800,000	0,098	-0,231
-459,299	-102,479	-0,102	-0,018
-458,284	304,178	0,071	-0,096
-457,270	800,000	0,039	-0,083
-456,255	-94,421	0,203	0,040
-455,241	800,000	0,046	-0,099
-454,226	23,775	0,052	-0,031
-453,211	-33,042	0,062	0,025
-452,197	231,263	0,049	-0,058
-451,182	-200,000	-0,005	0,085
-450,168	-200,000	-0,001	0,096
-449,153	-200,000	-0,022	0,098
-448,138	-200,000	-0,008	-0,096
-447,124	-107,927	-0,076	-0,012
-446,109	800,000	-0,034	0,076
-445,095	92,393	-0,056	0,046
-444,080	-15,124	0,072	0,033
-443,065	-200,000	0,004	-0,154
-442,051	171,387	-0,068	0,071
-441,036	-112,391	0,112	-0,016
-440,022	-8,397	-0,070	0,034
-439,007	-111,555	-0,160	-0,023
-437,992	-75,188	0,040	-0,010
-436,978	-200,000	0,020	0,092
-435,963	81,989	-0,043	-0,034
-434,949	-65,183	-0,066	0,019
-433,934	800,000	-0,014	-0,036
-432,919	219,304	-0,101	-0,117
-431,905	-200,000	-0,002	0,132
-430,890	398,298	0,017	-0,027
-429,876	-67,134	0,052	0,015
-428,861	800,000	-0,013	0,038
-427,846	-110,155	0,105	-0,016
-426,832	72,981	-0,091	-0,069
-425,817	196,673	-0,084	-0,093
-424,803	-200,000	0,045	-0,166
-423,788	-58,626	-0,118	-0,037
-422,773	548,727	-0,055	0,096
-421,759	-55,162	0,017	-0,005
-420,744	-200,000	0,009	-0,103
-419,730	25,128	-0,063	0,038
-418,715	-127,212	0,052	0,006
-417,701	27,688	-0,028	-0,017
-416,686	800,000	0,008	0,018
-415,671	668,621	-0,048	0,091
-414,657	101,770	-0,010	-0,009
-413,642	24,043	0,105	0,063
-412,628	-44,792	-0,126	0,045
-411,613	-22,093	-0,016	0,007
-410,598	86,849	-0,063	0,050
-409,584	800,000	-0,010	0,029
-408,569	20,937	0,057	-0,034
-407,555	-150,015	0,142	0,008
-406,540	-155,320	-0,179	0,008
-405,525	-200,000	0,020	0,103
-404,511	-78,945	-0,053	0,013
-403,496	-104,852	-0,038	-0,006
-402,482	4,749	0,172	-0,091
-401,467	-11,664	0,051	-0,024
-400,452	-200,000	-0,006	-0,027
-399,438	-200,000	0,032	0,104
-398,423	-200,000	-0,010	-0,043
-397,409	-200,000	0,004	-0,050
-396,394	-200,000	-0,013	0,048
-395,379	-53,943	0,086	-0,028
-394,365	231,047	-0,056	0,067
-393,350	800,000	-0,047	0,125
-392,336	800,000	0,032	0,068
-391,321	-200,000	0,035	0,128
-390,306	-200,000	-0,012	-0,088
-389,292	800,000	-0,043	-0,112
-388,277	800,000	-0,016	-0,037
-387,263	-200,000	-0,003	0,130
-386,248	368,627	0,039	0,058
-385,233	-41,337	-0,020	-0,007
-384,219	800,000	0,035	-0,094
-383,204	227,091	-0,023	0,027
-382,190	-60,427	0,072	-0,022
-381,175	-200,000	0,021	-0,083
-380,160	734,596	-0,038	-0,075
-379,146	365,685	-0,078	0,115
-378,131	800,000	-0,022	0,047
-377,117	-73,192	0,029	0,008
-376,102	103,269	-0,028	-0,024
-375,088	800,000	-0,013	-0,035
-374,073	-114,135	0,172	0,024
-373,058	-200,000	-0,005	-0,058
-372,044	800,000	-0,017	-0,044
-371,029	-82,597	0,110	0,026
-370,015	699,276	0,084	-0,160
-369,000	-36,842	-0,037	0,014
-367,985	800,000	0,032	-0,091
-366,971	278,601	0,018	-0,024
-365,956	-200,000	0,023	-0,093
-364,942	282,294	-0,022	-0,028
-363,927	-200,000	0,019	-0,060
-362,912	-143,456	-0,177	0,012
-361,898	-200,000	-0,001	-0,030
-360,883	-12,970	-0,052	-0,024
-359,869	270,017	-0,048	-0,062
-358,854	19,888	-0,099	-0,058
-357,839	-133,658	0,113	0,010
-356,825	-200,000	-0,001	-0,055
-355,810	-179,327	-0,117	-0,002
-354,796	-108,438	-0,047	0,007
-353,781	-124,758	0,023	0,003
-352,766	-7,692	-0,039	-0,019
-351,752	332,943	-0,131	0,185
-350,737	160,314	0,098	0,099
-349,723	-110,067	0,041	-0,006
-348,708	-200,000	0,007	0,057
-347,693	12,368	-0,046	-0,026
-346,679	-200,000	-0,036	-0,135
-345,664	-159,965	0,053	-0,002
-344,650	-174,146	0,089	0,002
-343,635	-200,000	0,001	-0,016
-342,620	-200,000	0,001	0,042
-341,606	56,723	0,122	-0,086
-340,591	143,992	0,025	-0,024
-339,577	-200,000	-0,010	0,057
-338,562	-200,000	-0,005	-0,078
-337,548	-109,938	-0,056	-0,008
-336,533	-69,196	0,047	0,013
-335,518	-200,000	0,016	-0,124
-334,504	-200,000	-0,042	0,145
-333,489	-200,000	0,013	0,050
-332,475	-200,000	-0,024	-0,117
-331,460	-200,000	-0,003	-0,075
-330,445	-56,430	0,061	-0,020
-329,431	115,849	0,031	-0,028
-328,416	-178,925	0,068	0,001
-327,402	692,876	0,034	-0,064
-326,387	87,876	0,099	-0,080
-325,372	389,554	-0,033	-0,050
-324,358	800,000	-0,019	-0,051
-323,343	0,286	-0,067	0,034
-322,329	-67,244	0,071	0,020
-321,314	185,788	0,062	0,067
-320,299	383,481	0,064	-0,097
-319,285	-200,000	-0,003	0,029
-318,270	304,539	-0,058	-0,078
-317,256	-61,666	-0,112	0,034
-316,241	1,362	0,042	0,022
-315,226	-19,887	-0,042	-0,019
-314,212	224,181	0,118	0,138
-313,197	-36,930	0,033	0,013
-312,183	-200,000	-0,027	0,104
-311,168	-7,149	-0,126	-0,062
-310,153	-200,000	0,049	-0,204
-309,139	800,000	0,022	0,060
-308,124	163,124	0,089	-0,091
-307,110	-62,607	-0,095	-0,029
-306,095	-126,314	-0,076	-0,008
-305,080	230,188	0,017	-0,020
-304,066	800,000	0,061	0,144
-303,051	-34,336	-0,132	-0,052
-302,037	722,371	0,060	-0,116
-301,022	51,089	-0,052	-0,036
-300,008	800,000	0,048	-0,101
-298,993	800,000	0,054	0,117
-297,978	-200,000	0,010	0,127
-296,964	-100,711	-0,091	0,016
-295,949	138,227	-0,022	-0,021
-294,935	368,505	0,067	0,099
-293,920	-0,765	0,089	0,045
-292,905	-134,044	0,040	0,004
-291,891	157,365	0,072	0,073
-290,876	195,243	0,095	0,105
-289,862	-64,369	-0,012	0,003
-288,847	-88,956	0,142	-0,030
-287,832	310,444	-0,061	0,083
-286,818	-126,670	-0,113	-0,012
-285,803	-45,354	0,206	0,074
-284,789	-200,000	0,034	0,194
-283,774	-18,495	-0,026	-0,012
-282,759	-97,409	-0,041	0,008
-281,745	1,063	-0,091	-0,047
-280,730	-200,000	-0,026	-0,095
-279,716	329,514	0,025	0,035
-278,701	-200,000	0,010	-0,056
-277,686	325,328	0,042	0,058
-276,672	50,628	0,096	0,066
-275,657	296,899	-0,083	0,110
-274,643	-131,511	-0,049	-0,005
-273,628	71,880	-0,083	-0,062
-272,613	492,295	0,096	0,160
-271,599	298,474	-0,046	0,062
-270,584	-8,150	-0,036	-0,017
-269,570	-155,163	-0,189	0,009
-268,555	26,417	0,067	-0,041
-267,540	86,429	-0,012	0,009
-266,526	677,048	0,035	0,066
-265,511	279,762	-0,037	-0,048
-264,497	157,604	-0,112	0,112
-263,482	152,898	0,021	0,021
-262,467	-200,000	0,012	0,081
-261,453	387,757	-0,020	-0,030
-260,438	143,242	0,081	-0,078
-259,424	-156,257	0,078	0,003
-258,409	-200,000	-0,016	-0,058
-257,395	99,670	0,101	0,085
-256,380	800,000	-0,072	0,178
-255,365	259,749	0,051	0,064
-254,351	220,500	0,073	0,085
-253,336	-200,000	0,027	-0,092
-252,322	-196,611	-0,069	-0,000
-251,307	-23,651	0,104	0,045
-250,292	123,084	-0,115	-0,104
-249,278	305,072	0,013	-0,018
-248,263	-57,331	0,059	-0,019
-247,249	800,000	-0,025	0,075
-246,234	800,000	0,029	0,082
-245,219	-200,000	-0,010	-0,069
-244,205	9,099	-0,074	-0,040
-243,190	-200,000	0,007	0,107
-242,176	35,988	-0,033	0,021
-241,161	-81,632	0,150	-0,035
-240,146	381,153	-0,010	0,015
-239,132	281,149	0,048	0,063
-238,117	-76,555	-0,051	-0,013
-237,103	-125,358	0,030	-0,003
-236,088	226,808	-0,040	0,047
-235,073	-45,688	0,194	-0,069
-234,059	-200,000	-0,012	0,109
-233,044	58,197	0,039	0,028
-232,030	47,985	0,111	0,075
-231,015	800,000	0,009	0,023
-230,000	-24,602	0,051	0,022
-228,986	67,971	0,042	-0,031
-227,971	800,000	-0,013	0,028
-226,957	299,660	0,031	-0,041
-225,942	53,496	0,053	0,036
-224,927	710,970	0,024	-0,046
-223,913	-200,000	-0,020	-0,082
-222,898	64,733	0,105	0,076
-221,884	70,975	-0,114	0,086
-220,869	438,349	0,035	-0,056
-219,855	-200,000	0,014	0,061
-218,840	800,000	-0,020	0,055
-217,825	-37,931	0,141	0,054
-216,811	277,480	-0,065	0,083
-215,796	47,750	0,063	0,042
-214,782	176,912	-0,084	-0,088
-213,767	-200,000	0,018	-0,079
-212,752	800,000	0,025	0,054
-211,738	64,236	0,135	0,098
-210,723	-122,057	0,057	-0,007
-209,709	-200,000	0,002	-0,015
-208,694	17,384	0,012	-0,007
-207,679	186,177	-0,066	0,071
-206,665	800,000	0,023	0,054
-205,650	800,000	0,071	-0,170
-204,636	432,006	-0,045	0,070
-203,621	-72,308	0,020	-0,005
-202,606	-200,000	-0,012	-0,087
-201,592	-200,000	-0,011	0,054
-200,577	330,614	-0,079	-0,110
-199,563	535,805	0,020	-0,034
-198,548	-103,127	-0,089	0,015
-197,533	65,534	-0,101	0,074
-196,519	641,734	0,038	-0,071
-195,504	35,368	-0,024	-0,015
-194,490	-42,485	0,092	0,034
-193,475	703,264	-0,012	-0,023
-192,460	339,417	0,007	0,010
-191,446	-96,769	0,103	0,019
-190,431	185,314	0,138	0,148
-189,417	-114,036	-0,124	0,017
-188,402	24,490	-0,162	0,097
-187,387	248,665	-0,143	-0,175
-186,373	98,782	0,096	-0,080
-185,358	800,000	-0,030	-0,077
-184,344	-200,000	0,018	0,125
-183,329	-80,107	-0,031	-0,007
-182,315	768,117	-0,033	-0,065
-181,300	84,806	-0,100	-0,079
-180,285	-200,000	-0,004	-0,055
-179,271	-19,297	-0,080	0,036
-178,256	27,478	-0,150	-0,091
-177,242	-148,102	0,037	0,002
-176,227	-146,359	0,106	-0,007
-175,212	800,000	-0,010	-0,030
-174,198	-183,214	0,077	-0,001
-173,183	517,516	0,040	0,068
-172,169	248,465	-0,100	-0,122
-171,154	800,000	0,053	-0,118
-170,139	12,040	-0,047	0,026
-169,125	-200,000	-0,016	-0,054
-168,110	-200,000	-0,007	0,063
-167,096	-9,810	0,060	0,029
-166,081	193,264	-0,025	-0,027
-165,066	-200,000	0,024	-0,131
-164,052	466,147	0,075	-0,121
-163,037	204,742	-0,060	0,067
-162,023	74,799	-0,018	0,013
-161,008	800,000	0,019	0,050
-159,993	800,000	-0,053	0,153
-158,979	-200,000	0,011	0,041
-157,964	67,720	-0,054	-0,040
-156,950	123,245	-0,097	-0,088
-155,935	-200,000	-0,028	-0,210
-154,920	-200,000	0,007	-0,022
-153,906	-164,741	0,132	-0,004
-152,891	-200,000	0,006	-0,102
-151,877	-111,924	0,078	-0,011
-150,862	-54,105	-0,077	-0,025
-149,847	800,000	-0,021	-0,061
-148,833	800,000	0,010	-0,027
-147,818	800,000	-0,014	-0,035
-146,804	-38,857	0,043	0,016
-145,789	26,540	0,081	0,048
-144,775	-200,000	-0,010	0,034
-143,760	-200,000	0,007	0,023
-142,745	311,271	-0,020	-0,028
-141,731	368,202	0,057	0,083
-140,716	290,611	-0,055	-0,073
-139,702	404,149	-0,025	0,038
-138,687	0,655	-0,087	0,045
-137,672	-200,000	0,011	0,047
-136,658	-36,904	0,068	0,026
-135,643	622,341	-0,058	0,106
-134,629	-200,000	0,002	-0,028
-133,614	-36,602	0,014	0,005
-132,599	-71,698	0,090	0,024
-131,585	-200,000	0,009	0,056
-130,570	-200,000	0,000	0,039
-129,556	-200,000	-0,011	-0,039
-128,541	-200,000	0,003	0,115
-127,526	38,829	-0,120	-0,077
-126,512	37,052	0,109	-0,069
-125,497	-2,887	0,113	0,056
-124,483	384,057	0,050	0,074
-123,468	800,000	-0,021	-0,046
-122,453	-37,251	-0,135	0,052
-121,439	404,907	-0,055	0,084
-120,424	11,507	0,053	-0,029
-119,410	-43,634	-0,087	0,031
-118,395	180,141	0,036	-0,038
-117,380	-200,000	-0,005	0,062
-116,366	800,000	-0,050	0,153
-115,351	406,703	-0,056	0,086
-114,337	73,247	0,022	-0,016
-113,322	-188,695	0,174	-0,001
-112,307	215,123	0,039	0,045
-111,293	-163,220	0,079	-0,003
-110,278	19,821	0,082	0,048
-109,264	-200,000	0,003	-0,050
-108,249	-103,723	0,088	0,015
-107,234	-200,000	-0,029	-0,107
-106,220	271,060	-0,024	-0,031
-105,205	7,197	-0,023	-0,012
-104,191	-146,416	-0,108	0,007
-103,176	12,626	-0,068	-0,037
-102,162	486,438	0,038	0,063
-101,147	113,914	-0,125	0,109
-100,132	-10,642	0,119	0,056
-99,118	4,036	-0,066	0,035
-98,103	39,262	-0,028	0,018
-97,089	160,417	0,083	-0,084
-96,074	-200,000	0,035	0,130
-95,059	9,502	0,044	-0,024
-94,045	-200,000	-0,005	0,065
-93,030	-200,000	0,005	-0,061
-92,016	17,368	0,149	-0,085
-91,001	4,022	-0,107	0,056
-89,986	-76,271	0,048	-0,012
-88,972	15,569	0,009	0,005
-87,957	-17,349	-0,087	-0,039
-86,943	-200,000	-0,017	0,127
-85,928	-200,000	-0,007	0,081
-84,913	114,025	-0,062	-0,055
-83,899	-3,867	-0,128	-0,063
-82,884	800,000	-0,017	-0,039
-81,870	-200,000	0,002	-0,117
-80,855	161,209	0,043	0,043
-79,840	3,747	-0,099	0,052
-78,826	343,687	-0,042	0,060
-77,811	-18,745	0,044	-0,020
-76,797	-1,390	0,074	0,037
-75,782	-115,242	-0,070	-0,009
-74,767	655,725	-0,038	0,071
-73,753	-51,396	0,191	0,064
-72,738	99,744	0,044	0,036
-71,724	-37,184	-0,119	0,045
-70,709	-27,515	-0,078	-0,032
-69,694	-200,000	-0,012	0,072
-68,680	800,000	0,045	0,096
-67,665	-200,000	-0,011	0,085
-66,651	172,397	-0,113	0,117
-65,636	-164,021	0,145	-0,005
-64,622	5,938	-0,097	0,051
-63,607	152,349	-0,025	-0,024
-62,592	693,237	-0,026	-0,050
-61,578	290,337	-0,123	0,160
-60,563	201,956	-0,060	0,067
-59,549	-18,271	-0,085	-0,038
-58,534	89,988	-2,534	-2,031
-57,519	25,099	0,400	-0,238
-56,505	-200,000	-1,669	-5,554
-55,490	628,546	1,181	2,151
-54,476	800,000	5,300	11,176
-53,461	-200,000	22,320	347,683
-52,446	800,000	760,804	2291,194
-51,432	512,188	1645,212	2760,075
-50,417	96,840	1607,930	1321,455
-49,403	64,631	1264,850	913,972
-48,388	22,810	1016,959	596,331
-47,373	19,406	984,470	566,039
-46,359	12,860	971,210	537,006
-45,344	8,543	968,162	521,169
-44,330	8,980	966,152	521,498
-43,315	7,971	964,417	517,245
-42,300	7,962	963,217	516,550
-41,286	7,925	962,241	515,887
-40,271	7,931	961,097	515,272
-39,257	7,911	960,335	514,777
-38,242	7,934	959,246	514,250
-37,227	7,918	958,552	513,805
-36,213	7,876	957,724	513,205
-35,198	7,829	957,099	512,697
-34,184	7,960	956,117	512,574
-33,169	7,831	955,293	511,696
-32,154	7,912	954,317	511,413
-31,140	7,891	953,777	511,036
-30,125	7,946	952,722	510,627
-29,111	7,881	952,003	510,013
-28,096	7,929	951,259	509,749
-27,082	7,892	950,647	509,283
-26,067	7,869	949,918	508,796
-25,052	7,849	949,091	508,269
-24,038	7,820	948,299	507,733
-23,023	7,821	947,724	507,406
-22,009	7,947	946,935	507,369
-20,994	7,911	946,523	507,013
-19,979	7,907	945,744	506,562
-18,965	7,846	945,032	505,965
-17,950	7,821	944,749	505,715
-16,936	7,850	943,843	505,300
-15,921	7,870	943,057	504,924
-14,906	7,765	942,414	504,224
-13,892	7,818	941,861	504,078
-12,877	7,796	941,225	503,647
-11,863	7,722	940,856	503,194
-10,848	7,753	940,249	502,949
-9,833	7,813	939,981	502,975
-8,819	7,782	938,927	502,294
-7,804	7,801	938,330	502,014
-6,790	7,737	937,943	501,584
-5,775	7,836	937,275	501,523
-4,760	7,817	936,654	501,110
-3,746	7,783	936,033	500,648
-2,731	7,633	935,301	499,765
-1,717	7,522	934,978	499,219
-0,702	7,626	934,194	499,111
0,313	7,472	933,478	498,995
1,327	10,945	930,995	508,563
2,342	19,652	779,605	448,669
3,356	15,007	448,058	250,849
4,371	-11,084	312,922	147,425
5,386	-14,683	295,391	135,511
6,400	-16,529	289,178	130,819
7,415	-17,134	286,561	129,028
8,429	-18,157	284,740	127,199
9,444	-18,385	283,881	126,581
10,459	-18,110	283,077	126,479
11,473	-18,208	282,540	126,132
12,488	-18,009	282,058	126,099
13,502	-18,230	281,428	125,592
14,517	-18,071	280,981	125,534
15,531	-18,440	280,661	125,026
16,546	-18,119	280,118	125,080
17,561	-18,227	279,872	124,856
18,575	-18,218	279,532	124,702
19,590	-18,068	279,044	124,617
20,604	-18,110	278,818	124,464
21,619	-18,377	278,466	124,042
22,634	-18,014	278,002	124,169
23,648	-18,073	277,593	123,920
24,663	-18,253	277,487	123,690
25,677	-18,185	277,150	123,593
26,692	-18,055	276,893	123,591
27,707	-18,311	276,751	123,275
28,721	-18,195	276,412	123,222
29,736	-18,346	276,147	122,950
30,750	-18,158	275,767	122,948
31,765	-18,301	275,597	122,726
32,780	-18,244	275,382	122,673
33,794	-18,191	275,152	122,609
34,809	-18,155	274,858	122,501
35,823	-18,295	274,636	122,260
36,838	-18,316	274,383	122,117
37,853	-18,463	274,136	121,858
38,867	-18,231	273,869	121,946
39,882	-18,271	273,536	121,749
40,896	-18,138	273,406	121,805
41,911	-18,248	273,150	121,577
42,926	-18,174	272,907	121,527
43,940	-18,157	272,724	121,451
44,955	-18,091	272,263	121,296
45,969	-18,186	272,165	121,154
46,984	-18,186	272,035	121,084
47,999	-18,358	271,822	120,819
49,013	-18,242	271,544	120,793
50,028	-18,139	271,175	120,713
51,042	-18,167	271,204	120,689
52,057	-18,242	270,852	120,452
53,071	-18,181	270,680	120,422
54,086	-18,086	270,337	120,346
55,101	-18,113	270,186	120,243
56,115	-18,083	270,042	120,196
57,130	-18,161	269,749	119,983
58,144	-18,077	269,452	119,918
59,159	-17,978	269,116	119,848
60,174	-18,295	268,955	119,475
61,188	-18,076	268,749	119,574
62,203	-18,078	268,503	119,451
63,217	-18,096	268,280	119,325
64,232	-18,212	267,999	119,083
65,247	-17,923	267,781	119,240
66,261	-18,097	267,534	118,961
67,276	-17,970	267,332	118,976
68,290	-18,176	267,281	118,755
69,305	-18,003	266,974	118,765
70,320	-18,031	266,680	118,599
71,334	-18,025	266,387	118,463
72,349	-18,132	266,166	118,257
73,363	-18,173	266,055	118,160
74,378	-18,082	265,699	118,074
75,393	-18,035	265,519	118,026
76,407	-18,120	265,323	117,851
77,422	-18,043	265,088	117,806
78,436	-17,899	264,760	117,779
79,451	-17,919	264,681	117,716
80,466	-18,045	264,353	117,446
81,480	-18,120	264,175	117,289
82,495	-18,134	263,840	117,117
83,509	-18,036	263,801	117,178
84,524	-18,158	263,602	116,970
85,539	-18,259	263,465	116,807
86,553	-18,160	263,081	116,715
87,568	-18,041	262,953	116,755
88,582	-18,191	262,656	116,479
89,597	-18,291	262,536	116,325
90,611	-18,193	262,277	116,288
91,626	-18,094	262,043	116,262
92,641	-18,121	261,939	116,181
93,655	-18,212	261,717	115,992
94,670	-18,209	261,544	115,907
95,684	-18,180	261,229	115,783
96,699	-18,138	261,048	115,730
97,714	-17,997	260,824	115,745
98,728	-18,189	260,682	115,501
99,743	-18,255	260,784	115,478
100,757	-18,066	260,288	115,415
101,772	-18,177	260,113	115,229
102,787	-18,040	259,950	115,268
103,801	-18,167	259,640	115,008
104,816	-18,210	259,565	114,926
105,830	-18,155	259,394	114,889
106,845	-18,213	259,160	114,724
107,860	-17,950	258,660	114,724
108,874	-18,140	258,773	114,596
109,889	-18,080	258,448	114,495
110,903	-18,078	258,218	114,384
111,918	-18,137	258,059	114,252
112,933	-18,123	257,776	114,129
113,947	-18,028	257,640	114,142
114,962	-17,933	257,238	114,037
115,976	-17,984	257,258	113,991
116,991	-18,165	257,014	113,715
118,006	-18,101	256,817	113,673
119,020	-18,053	256,853	113,721
120,035	-18,149	256,475	113,459
121,049	-17,994	256,312	113,512
122,064	-17,947	256,131	113,463
123,079	-18,024	255,799	113,239
124,093	-18,220	255,807	113,062
125,108	-18,115	255,514	113,014
126,122	-17,995	255,263	112,996
127,137	-17,788	255,130	113,107
128,151	-17,955	254,881	112,842
129,166	-17,831	254,783	112,896
130,181	-18,107	254,426	112,489
131,195	-18,073	254,204	112,411
132,210	-18,155	254,217	112,336
133,224	-17,907	253,790	112,350
134,239	-17,989	253,716	112,237
135,254	-17,953	253,442	112,137
136,268	-18,002	253,311	112,026
137,283	-18,075	253,161	111,888
138,297	-17,850	252,965	111,983
139,312	-17,987	252,603	111,696
140,327	-17,983	252,542	111,663
141,341	-17,816	252,265	111,673
142,356	-17,870	252,307	111,636
143,370	-17,924	251,913	111,405
144,385	-17,936	251,704	111,293
145,400	-17,998	251,600	111,184
146,414	-17,930	251,411	111,148
147,429	-18,180	251,210	110,836
148,443	-17,963	251,074	110,951
149,458	-18,019	250,759	110,754
150,473	-17,874	250,700	110,842
151,487	-18,005	250,472	110,620
152,502	-17,873	250,231	110,615
153,516	-17,989	250,030	110,418
154,531	-17,952	249,972	110,414
155,546	-17,998	249,629	110,214
156,560	-17,774	249,353	110,272
157,575	-17,897	249,269	110,121
158,589	-17,928	249,090	110,006
159,604	-17,914	248,960	109,951
160,619	-17,906	248,768	109,863
161,633	-18,015	248,641	109,705
162,648	-17,973	248,637	109,728
163,662	-17,744	248,097	109,673
164,677	-17,810	248,023	109,575
165,692	-17,796	247,826	109,490
166,706	-17,900	247,817	109,389
167,721	-17,801	247,508	109,326
168,735	-17,748	247,430	109,326
169,750	-17,811	247,264	109,190
170,764	-17,808	247,052	109,090
171,779	-17,932	247,012	108,958
172,794	-17,774	246,666	108,927
173,808	-17,978	246,603	108,720
174,823	-17,866	246,311	108,675
175,837	-18,024	246,175	108,474
176,852	-17,823	246,081	108,590
177,867	-17,896	245,975	108,473
178,881	-18,023	245,820	108,289
179,896	-17,729	245,510	108,387
180,910	-17,917	245,377	108,163
181,925	-17,731	245,025	108,152
182,940	-17,822	245,024	108,066
183,954	-17,753	244,840	108,033
184,969	-17,908	244,696	107,832
185,983	-17,926	244,528	107,733
186,998	-17,819	244,307	107,714
188,013	-17,849	244,150	107,611
189,027	-17,732	243,786	107,536
190,042	-17,992	243,759	107,302
191,056	-17,731	243,572	107,424
192,071	-17,625	243,396	107,424
193,086	-17,974	243,283	107,078
194,100	-17,710	243,178	107,239
195,115	-17,793	242,907	107,042
196,129	-17,892	242,830	106,918
197,144	-17,985	242,530	106,699
198,159	-17,937	242,389	106,667
199,173	-17,827	242,259	106,690
200,188	-17,684	241,976	106,673
201,202	-17,774	241,860	106,539
202,217	-17,727	241,519	106,418
203,232	-17,720	241,418	106,369
204,246	-17,756	241,185	106,228
205,261	-17,579	241,266	106,398
206,275	-15,717	241,639	108,069
207,290	-10,433	243,574	113,256
208,304	-4,958	245,355	118,587
209,319	-2,895	245,693	120,438
210,334	-2,390	245,819	120,905
211,348	-1,695	246,039	121,575
212,363	-0,794	245,934	122,254
213,377	-0,253	246,113	122,777
214,392	0,254	246,151	123,202
215,407	0,801	246,018	123,575
216,421	0,589	246,016	123,388
217,436	0,933	245,701	123,501
218,450	0,872	245,540	123,360
219,465	0,823	245,601	123,339
220,480	0,814	245,402	123,220
221,494	0,643	245,253	122,995
222,509	0,374	244,837	122,555
223,523	0,362	244,789	122,511
224,538	0,238	244,545	122,276
225,553	0,232	244,263	122,120
226,567	0,212	244,144	122,033
227,582	0,007	244,082	121,824
228,596	0,199	243,889	121,873
229,611	0,405	243,678	121,925
230,626	0,236	243,364	121,619
231,640	0,091	243,448	121,533
232,655	0,116	243,178	121,407
233,669	0,310	242,950	121,440
234,684	0,084	242,843	121,192
235,699	0,234	242,734	121,249
236,713	0,145	242,670	121,134
237,728	0,279	242,454	121,124
238,742	0,028	242,257	120,812
239,757	0,383	242,028	120,972
240,772	0,239	241,966	120,815
241,786	0,177	241,667	120,605
242,801	0,033	241,584	120,437
243,815	0,139	241,489	120,464
244,830	0,048	241,363	120,317
245,844	0,256	241,129	120,358
246,859	0,244	241,137	120,341
247,874	0,439	240,771	120,303
248,888	0,275	240,653	120,103
249,903	0,079	240,589	119,903
250,917	0,216	240,351	119,883
251,932	0,231	240,292	119,855
252,947	0,173	240,105	119,705
253,961	0,352	239,962	119,766
254,976	0,042	239,823	119,438
255,990	0,133	239,653	119,416
257,005	0,361	239,422	119,472
258,020	0,417	239,352	119,471
259,034	0,237	239,153	119,217
260,049	0,318	238,838	119,114
261,063	0,351	238,744	119,082
262,078	0,136	238,604	118,832
263,093	0,240	238,408	118,806
264,107	-0,005	238,388	118,591
265,122	0,026	238,268	118,545
266,136	0,232	238,040	118,584
267,151	0,316	237,901	118,571
268,166	0,351	237,594	118,435
269,180	0,211	237,627	118,330
270,195	0,208	237,461	118,235
271,209	0,163	237,307	118,112
272,224	0,118	237,121	117,973
273,239	0,125	236,992	117,904
274,253	0,168	236,811	117,837
275,268	0,092	236,564	117,645
276,282	0,236	236,434	117,683
277,297	0,019	236,365	117,467
278,312	0,270	236,249	117,596
279,326	0,530	235,966	117,649
280,341	0,354	235,930	117,482
281,355	0,113	235,919	117,277
282,370	0,295	235,571	117,237
283,384	0,340	235,385	117,168
284,399	0,336	235,175	117,050
285,414	0,192	235,080	116,880
286,428	0,329	235,109	116,991
287,443	0,135	234,982	116,766
288,457	0,162	234,869	116,721
289,472	0,337	234,494	116,660
290,487	0,295	234,367	116,554
291,501	0,293	234,362	116,539
292,516	0,042	234,181	116,244
293,530	0,282	233,996	116,328
294,545	0,242	233,883	116,230
295,560	0,550	233,665	116,350
296,574	0,313	233,491	116,070
297,589	0,252	233,405	115,970
298,603	0,451	233,208	116,016
299,618	0,299	233,063	115,815
300,633	0,529	232,867	115,885
301,647	0,373	232,844	115,743
302,662	0,590	232,683	115,820
303,676	0,419	232,510	115,592
304,691	0,553	232,278	115,569
305,706	0,555	232,204	115,524
306,720	0,620	232,073	115,498
307,735	0,406	232,033	115,304
308,749	0,579	231,676	115,249
309,764	0,509	231,617	115,155
310,779	0,587	231,396	115,095
311,793	0,508	231,277	114,965
312,808	0,684	231,106	115,005
313,822	0,464	230,973	114,760
314,837	0,516	230,780	114,693
315,852	0,325	230,733	114,514
316,866	0,706	230,601	114,729
317,881	0,606	230,552	114,618
318,895	0,514	230,241	114,383
319,910	0,751	230,077	114,472
320,925	0,581	229,919	114,254
321,939	0,554	229,843	114,185
322,954	0,707	229,603	114,172
323,968	0,608	229,597	114,084
324,983	0,708	229,263	113,984
325,997	0,462	229,376	113,843
327,012	0,738	229,076	113,893
328,027	0,498	228,984	113,656
329,041	0,333	228,876	113,467
330,056	0,644	228,738	113,623
331,070	0,472	228,500	113,365
332,085	0,605	228,334	113,373
333,100	0,723	228,209	113,390
334,114	0,649	228,033	113,236
335,129	0,752	227,883	113,230
336,143	0,629	227,781	113,076
337,158	0,575	227,618	112,945
338,173	0,744	227,341	112,924
339,187	0,387	227,628	112,788
340,202	0,837	227,214	112,911
341,216	0,804	227,039	112,789
342,231	0,605	227,029	112,624
343,246	0,815	226,692	112,605
344,260	0,922	226,566	112,612
345,275	0,751	226,591	112,486
346,289	0,837	226,437	112,464
347,304	0,969	226,313	112,491
348,319	0,932	226,098	112,347
349,333	0,566	225,960	111,995
350,348	0,721	225,737	111,990
351,362	0,914	225,678	112,094
352,377	0,773	225,634	111,958
353,392	0,697	225,437	111,793
354,406	0,607	225,232	111,615
355,421	191,521	1311,433	1374,580
356,435	153,378	1443,628	1374,413
