DTS Sentinel unit serial number:	SN410029Multiplexer serial number:	ORYXHardware model number:	OX2-SRSoftware version number:	ORYX F/W v4,00 Oryx Data Collector v3.7.2.0data status	okinstallation	B5 Nyhavnadifferential loss correction	single-endedforward channel	channel 2reverse channel	N/Adate	2023/12/14time	02:17:13forward acquisition time	300,00reverse acquisition time	0,00gamma	499,1914k internal	0,3154k external	0,3154temperature offset calibration	1,0000default loss term (dB/km)	0,3820temperature slope calibration	1,0000multiplexer offset coefficient	1,0000multiplexer slope coefficient	1,0000fibre end	0,00T internal ref (°C)	8,57T ext. ref 1 (°C)	-7,70T ext. ref 2 (°C)	-7,75length (m)	temperature (°C)	Stokes	anti-Stokes-744,400	-112,192	0,112	-0,016
-743,385	-136,361	-0,411	-0,035
-742,371	-3,364	0,230	0,118
-741,356	24,176	-0,239	-0,145
-740,342	425,674	0,127	0,203
-739,327	-104,034	-0,422	-0,072
-738,312	-97,872	0,073	0,014
-737,298	-173,871	-0,394	-0,008
-736,283	-8,940	0,201	0,099
-735,269	-111,550	-0,315	-0,047
-734,254	-55,563	0,054	0,018
-733,239	-37,580	-0,612	-0,239
-732,225	-3,930	0,183	0,093
-731,210	-194,660	-0,132	-0,001
-730,196	-129,187	-0,046	0,005
-729,181	-200,000	0,002	0,048
-728,167	-86,032	0,072	0,016
-727,152	-18,936	-0,010	0,005
-726,137	800,000	-0,047	-0,147
-725,123	564,773	0,046	0,083
-724,108	800,000	-0,027	-0,076
-723,094	116,322	-0,063	-0,057
-722,079	-123,870	-0,037	-0,004
-721,064	-200,000	-0,001	-0,057
-720,050	800,000	-0,034	-0,084
-719,035	-200,000	0,027	0,092
-718,021	508,249	-0,103	-0,177
-717,006	377,248	-0,066	-0,100
-715,991	-200,000	0,013	-0,056
-714,977	800,000	-0,024	0,067
-713,962	-41,740	-0,096	-0,036
-712,948	256,911	0,080	0,102
-711,933	50,388	-0,072	0,050
-710,918	-107,240	0,064	-0,010
-709,904	-200,000	-0,004	0,123
-708,889	530,345	-0,073	-0,128
-707,875	151,533	-0,112	-0,112
-706,860	14,849	-0,080	-0,046
-705,845	-200,000	-0,025	-0,125
-704,831	-154,906	0,065	-0,003
-703,816	800,000	0,017	0,037
-702,802	-7,150	-0,047	-0,024
-701,787	264,892	-0,146	-0,188
-700,772	151,364	0,035	-0,035
-699,758	-200,000	-0,004	-0,152
-698,743	68,185	0,064	0,048
-697,729	79,057	0,133	0,104
-696,714	-126,252	0,033	0,004
-695,699	-106,420	0,053	-0,009
-694,685	417,508	-0,025	0,039
-693,670	-147,802	0,070	-0,004
-692,656	800,000	-0,025	0,078
-691,641	55,607	-0,046	0,033
-690,627	88,957	0,074	0,060
-689,612	9,925	-0,135	-0,075
-688,597	80,448	-0,109	0,087
-687,583	2,915	-0,173	-0,092
-686,568	-200,000	-0,006	-0,106
-685,554	-56,765	0,053	0,017
-684,539	-200,000	-0,001	0,071
-683,524	161,161	0,082	-0,084
-682,510	139,052	0,043	0,041
-681,495	-46,785	-0,115	-0,041
-680,481	19,042	-0,099	-0,058
-679,466	54,472	-0,148	-0,105
-678,451	277,086	0,086	-0,113
-677,437	-67,077	-0,130	0,037
-676,422	-43,228	0,088	-0,032
-675,408	340,981	-0,110	0,158
-674,393	800,000	0,007	-0,022
-673,378	-133,269	0,052	0,005
-672,364	103,844	-0,074	0,064
-671,349	-200,000	0,005	-0,038
-670,335	-200,000	0,015	-0,067
-669,320	-200,000	-0,011	0,087
-668,305	98,645	-0,022	-0,018
-667,291	-200,000	-0,018	-0,124
-666,276	800,000	-0,030	0,067
-665,262	800,000	-0,037	-0,079
-664,247	-23,762	-0,030	-0,013
-663,232	417,434	-0,051	-0,081
-662,218	-200,000	-0,009	0,153
-661,203	-200,000	-0,005	0,107
-660,189	-160,483	-0,039	0,002
-659,174	177,442	0,074	-0,079
-658,159	-200,000	0,002	-0,094
-657,145	128,704	-0,065	-0,061
-656,130	-200,000	0,008	-0,059
-655,116	-103,370	0,044	-0,007
-654,101	110,595	0,097	0,085
-653,086	800,000	-0,039	0,108
-652,072	477,105	0,029	0,049
-651,057	204,684	0,055	-0,063
-650,043	-130,911	-0,090	0,009
-649,028	800,000	0,084	-0,217
-648,014	132,298	0,072	-0,068
-646,999	-121,135	-0,084	0,010
-645,984	-108,891	0,054	0,008
-644,970	-121,576	-0,095	-0,011
-643,955	-200,000	0,004	-0,031
-642,941	-25,786	-0,076	-0,033
-641,926	-149,256	0,249	0,014
-640,911	12,942	-0,108	-0,061
-639,897	63,533	0,116	0,085
-638,882	318,965	0,044	0,062
-637,868	127,632	0,034	0,031
-636,853	11,576	-0,089	0,050
-635,838	-200,000	-0,023	-0,196
-634,824	281,322	-0,031	-0,041
-633,809	168,905	-0,103	0,108
-632,795	752,552	0,032	-0,064
-631,780	-200,000	-0,026	-0,096
-630,765	101,269	-0,064	-0,054
-629,751	-200,000	0,013	-0,083
-628,736	241,133	0,034	-0,042
-627,722	800,000	0,040	-0,105
-626,707	80,414	-0,088	0,069
-625,692	-200,000	0,006	-0,140
-624,678	178,225	-0,033	-0,036
-623,663	270,321	-0,046	0,060
-622,649	800,000	0,040	-0,109
-621,634	-87,561	-0,065	-0,014
-620,619	-200,000	0,006	0,074
-619,605	109,222	0,083	-0,073
-618,590	-17,420	0,093	0,043
-617,576	99,948	-0,008	-0,006
-616,561	-200,000	0,023	0,089
-615,546	-104,012	-0,076	-0,013
-614,532	-200,000	0,013	-0,053
-613,517	-45,195	-0,041	0,015
-612,503	-63,104	0,149	0,045
-611,488	32,909	0,093	0,059
-610,474	-200,000	-0,005	0,036
-609,459	800,000	0,010	-0,029
-608,444	58,493	0,019	-0,014
-607,430	287,408	-0,036	-0,048
-606,415	62,248	-0,125	0,092
-605,401	181,346	0,044	-0,048
-604,386	-200,000	-0,008	0,163
-603,371	800,000	0,012	-0,034
-602,357	-45,563	-0,106	-0,038
-601,342	-200,000	0,011	-0,116
-600,328	-163,585	-0,199	0,007
-599,313	-200,000	0,001	0,048
-598,298	47,299	0,045	-0,031
-597,284	-200,000	0,013	-0,072
-596,269	-200,000	-0,023	0,147
-595,255	422,919	-0,094	0,149
-594,240	800,000	0,039	-0,082
-593,225	-62,258	0,059	0,018
-592,211	-110,135	-0,223	0,034
-591,196	-200,000	0,001	-0,072
-590,182	-14,669	-0,020	-0,009
-589,167	269,734	0,094	-0,121
-588,152	-105,399	0,161	0,027
-587,138	160,789	0,028	0,029
-586,123	208,180	-0,067	0,077
-585,109	87,239	-0,071	-0,058
-584,094	-136,163	0,138	-0,012
-583,079	115,586	-0,059	0,053
-582,065	-200,000	0,024	-0,102
-581,050	-126,975	-0,151	-0,016
-580,036	800,000	0,067	-0,206
-579,021	315,266	-0,042	0,058
-578,006	800,000	0,049	-0,108
-576,992	-200,000	0,008	0,026
-575,977	115,174	0,178	0,159
-574,963	800,000	-0,038	0,107
-573,948	-200,000	0,005	-0,095
-572,934	-75,560	-0,062	-0,016
-571,919	-200,000	-0,022	-0,126
-570,904	23,870	-0,154	0,093
-569,890	-200,000	0,011	0,078
-568,875	335,078	0,043	0,062
-567,861	43,763	-0,064	-0,043
-566,846	610,601	0,047	0,087
-565,831	-200,000	0,011	-0,070
-564,817	12,255	-0,032	0,018
-563,802	1,360	-0,215	0,113
-562,788	-200,000	0,009	-0,031
-561,773	800,000	0,047	0,124
-560,758	-96,333	0,040	-0,008
-559,744	-200,000	0,048	0,163
-558,729	800,000	-0,028	0,088
-557,715	299,831	-0,075	-0,102
-556,700	800,000	-0,049	-0,131
-555,685	-200,000	0,017	0,104
-554,671	227,066	-0,054	-0,065
-553,656	-181,498	-0,060	0,001
-552,642	-34,979	-0,020	0,008
-551,627	65,837	0,034	-0,025
-550,612	-185,053	-0,021	0,000
-549,598	-200,000	-0,005	-0,145
-548,583	33,128	0,105	-0,066
-547,569	-200,000	0,003	0,034
-546,554	177,463	-0,087	0,093
-545,539	-90,262	0,099	0,021
-544,525	63,411	0,054	0,039
-543,510	0,966	-0,046	0,024
-542,496	292,398	0,009	-0,012
-541,481	-16,715	-0,081	-0,038
-540,466	800,000	-0,053	-0,141
-539,452	800,000	-0,044	0,099
-538,437	-200,000	-0,003	-0,137
-537,423	-34,026	0,048	0,019
-536,408	488,656	-0,083	-0,140
-535,393	800,000	0,043	0,124
-534,379	91,165	-0,056	0,046
-533,364	791,999	-0,079	0,159
-532,350	116,748	0,075	0,067
-531,335	586,039	0,080	0,144
-530,321	76,336	0,049	-0,038
-529,306	57,821	-0,090	-0,065
-528,291	-140,676	-0,071	0,005
-527,277	221,024	-0,074	-0,087
-526,262	265,813	0,038	0,049
-525,248	76,200	0,100	-0,078
-524,233	35,600	-0,058	0,037
-523,218	146,550	0,064	0,062
-522,204	800,000	-0,026	-0,071
-521,189	-200,000	0,036	-0,189
-520,175	-2,249	-0,083	0,042
-519,160	-59,222	0,034	0,011
-518,145	-109,479	0,131	0,020
-517,131	800,000	-0,013	0,040
-516,116	98,998	0,103	0,087
-515,102	48,954	-0,119	-0,081
-514,087	-200,000	0,011	-0,038
-513,072	-163,073	-0,132	-0,005
-512,058	159,086	-0,085	0,086
-511,043	-200,000	0,044	0,146
-510,029	345,598	0,052	0,075
-509,014	-51,614	-0,127	0,043
-507,999	-174,606	0,144	0,003
-506,985	36,829	0,079	-0,051
-505,970	-200,000	-0,019	0,083
-504,956	30,492	-0,030	-0,018
-503,941	-72,407	0,170	-0,046
-502,926	62,567	-0,112	0,082
-501,912	-200,000	-0,001	-0,054
-500,897	138,993	0,131	0,126
-499,883	88,404	-0,082	-0,067
-498,868	-200,000	-0,017	0,070
-497,853	43,776	-0,123	-0,082
-496,839	-200,000	-0,005	0,105
-495,824	-200,000	0,043	0,230
-494,810	-77,367	0,151	0,038
-493,795	302,305	-0,055	0,075
-492,781	191,660	-0,032	-0,036
-491,766	800,000	0,015	-0,044
-490,751	-86,386	-0,103	-0,023
-489,737	-40,154	0,055	0,021
-488,722	94,171	-0,009	-0,007
-487,708	246,025	0,068	0,084
-486,693	112,459	-0,054	0,048
-485,678	-86,132	-0,100	0,022
-484,664	-200,000	0,023	-0,171
-483,649	800,000	0,082	-0,171
-482,635	-200,000	0,029	0,136
-481,620	800,000	0,022	-0,054
-480,605	-49,562	0,174	0,060
-479,591	-200,000	-0,007	0,061
-478,576	800,000	-0,063	-0,144
-477,562	-110,916	-0,251	-0,037
-476,547	429,756	0,090	-0,143
-475,532	522,051	0,040	0,068
-474,518	-14,083	0,048	0,022
-473,503	11,890	-0,074	-0,041
-472,489	-200,000	-0,029	0,098
-471,474	775,963	-0,004	-0,009
-470,459	-138,178	-0,063	0,005
-469,445	84,489	0,084	-0,067
-468,430	-55,235	0,110	-0,036
-467,416	111,010	0,114	0,100
-466,401	252,092	-0,063	-0,078
-465,386	-200,000	0,007	0,153
-464,372	35,381	-0,069	-0,044
-463,357	800,000	0,023	0,071
-462,343	605,768	-0,025	0,046
-461,328	-136,080	0,062	-0,005
-460,313	-200,000	-0,007	0,092
-459,299	261,654	0,047	0,060
-458,284	-200,000	0,010	-0,043
-457,270	8,902	0,035	-0,019
-456,255	315,243	-0,083	0,115
-455,241	800,000	-0,034	0,077
-454,226	72,976	-0,100	-0,076
-453,211	279,888	0,098	-0,128
-452,197	-200,000	0,009	-0,081
-451,182	-200,000	-0,026	0,122
-450,168	-36,257	-0,055	0,022
-449,153	477,788	0,101	0,168
-448,138	146,629	0,117	0,114
-447,124	-200,000	-0,005	0,049
-446,109	-200,000	-0,014	-0,093
-445,095	35,630	0,131	0,084
-444,080	589,956	0,101	0,182
-443,065	-163,018	0,065	-0,002
-442,051	166,820	-0,131	0,136
-441,036	226,925	-0,040	0,048
-440,022	548,758	0,066	0,115
-439,007	-200,000	0,001	-0,041
-437,992	14,709	0,138	-0,078
-436,978	800,000	0,026	-0,070
-435,963	800,000	-0,046	0,104
-434,949	-35,388	-0,025	-0,010
-433,934	-200,000	0,026	-0,105
-432,919	556,369	0,102	-0,180
-431,905	-34,258	0,159	0,063
-430,890	343,160	-0,057	0,082
-429,876	-200,000	-0,008	-0,042
-428,861	5,962	0,148	0,079
-427,846	-73,148	0,103	0,027
-426,832	44,868	0,140	-0,093
-425,817	319,293	0,052	-0,072
-424,803	-35,867	0,047	-0,018
-423,788	-200,000	0,010	-0,039
-422,773	45,812	0,100	0,067
-421,759	-200,000	0,013	0,076
-420,744	-200,000	0,004	0,123
-419,730	393,852	0,068	-0,103
-418,715	800,000	0,040	-0,109
-417,701	225,691	-0,016	-0,019
-416,686	556,756	-0,035	0,062
-415,671	-9,591	0,112	-0,054
-414,657	800,000	0,034	-0,083
-413,642	-200,000	0,027	0,151
-412,628	53,374	0,122	0,085
-411,613	255,641	0,030	-0,038
-410,598	32,648	0,094	0,059
-409,584	-138,156	-0,147	0,012
-408,569	118,012	0,097	0,087
-407,555	22,419	0,077	-0,046
-406,540	-200,000	-0,011	-0,116
-405,525	-133,606	-0,056	-0,005
-404,511	271,462	-0,098	0,126
-403,496	600,546	-0,085	0,155
-402,482	61,085	-0,041	0,030
-401,467	373,608	0,066	0,097
-400,452	-200,000	0,017	0,076
-399,438	-146,513	0,184	-0,011
-398,423	-18,487	-0,085	-0,039
-397,409	53,767	-0,065	0,045
-396,394	252,630	0,035	0,043
-395,379	-200,000	-0,002	-0,019
-394,365	-200,000	-0,004	0,054
-393,350	-200,000	-0,046	0,161
-392,336	-200,000	-0,006	0,077
-391,321	53,619	-0,011	0,007
-390,306	65,166	-0,134	0,098
-389,292	-200,000	-0,035	-0,137
-388,277	800,000	0,079	-0,166
-387,263	66,105	0,076	0,056
-386,248	-200,000	-0,035	0,150
-385,233	-200,000	0,012	0,059
-384,219	473,688	-0,048	0,079
-383,204	-84,337	0,078	-0,018
-382,190	533,698	0,007	-0,012
-381,175	-19,397	-0,062	-0,028
-380,160	800,000	-0,027	0,054
-379,146	-30,755	0,073	0,030
-378,131	-164,792	0,050	-0,002
-377,117	2,536	-0,134	-0,070
-376,102	524,975	0,090	-0,154
-375,088	800,000	-0,027	0,055
-374,073	-70,618	-0,160	-0,044
-373,058	70,744	0,056	0,042
-372,044	-28,969	0,070	0,029
-371,029	-26,311	0,064	-0,027
-370,015	-60,466	-0,163	-0,050
-369,000	-93,116	0,057	-0,011
-367,985	-75,618	-0,091	0,023
-366,971	-126,412	0,074	0,008
-365,956	229,040	0,047	0,056
-364,942	-123,823	0,099	0,011
-363,927	-125,600	-0,138	-0,015
-362,912	11,813	0,095	-0,053
-361,898	77,339	0,041	0,032
-360,883	800,000	-0,045	-0,120
-359,869	383,984	-0,019	-0,028
-358,854	-53,074	0,088	-0,029
-357,839	-102,381	0,069	-0,012
-356,825	170,428	0,120	0,125
-355,810	800,000	-0,046	0,119
-354,796	548,832	-0,016	-0,028
-353,781	-200,000	0,012	-0,115
-352,766	-101,452	0,117	0,020
-351,752	-200,000	-0,004	0,072
-350,737	800,000	-0,009	-0,026
-349,723	-61,718	0,075	-0,023
-348,708	-200,000	0,002	-0,121
-347,693	-200,000	0,001	-0,025
-346,679	112,989	-0,126	-0,111
-345,664	147,262	-0,063	-0,062
-344,650	800,000	-0,006	-0,017
-343,635	9,962	0,097	-0,053
-342,620	-1,318	0,072	0,037
-341,606	64,835	0,051	0,038
-340,591	186,996	-0,068	0,074
-339,577	-200,000	-0,046	-0,164
-338,562	-83,940	-0,033	0,008
-337,548	97,500	0,077	0,064
-336,533	0,394	0,123	-0,064
-335,518	-200,000	-0,023	0,196
-334,504	88,075	-0,096	0,078
-333,489	800,000	-0,008	0,017
-332,475	-67,240	-0,150	-0,043
-331,460	72,782	-0,023	0,018
-330,445	472,873	0,039	-0,064
-329,431	26,809	0,092	-0,056
-328,416	111,806	0,039	-0,034
-327,402	717,886	-0,082	0,159
-326,387	-200,000	0,023	0,124
-325,372	-200,000	-0,007	0,061
-324,358	84,330	-0,093	0,074
-323,343	-45,701	-0,240	0,086
-322,329	473,715	-0,062	-0,102
-321,314	359,378	0,073	-0,106
-320,299	-109,110	0,077	0,012
-319,285	-200,000	-0,002	-0,102
-318,270	453,085	0,036	-0,058
-317,256	683,421	0,087	0,166
-316,241	-200,000	-0,003	-0,028
-315,226	59,108	0,034	-0,024
-314,212	-51,049	-0,022	-0,007
-313,197	-200,000	0,032	0,133
-312,183	-101,170	-0,133	0,023
-311,168	170,835	-0,020	-0,021
-310,153	-200,000	-0,024	-0,102
-309,139	163,966	0,069	0,071
-308,124	155,069	0,016	-0,016
-307,110	16,909	0,125	-0,072
-306,095	-200,000	-0,006	0,087
-305,080	800,000	-0,045	-0,109
-304,066	121,144	-0,019	-0,017
-303,051	191,307	-0,031	0,034
-302,037	-23,990	-0,123	-0,053
-301,022	-72,111	0,063	-0,017
-300,008	-177,598	0,139	-0,002
-298,993	570,353	-0,008	-0,015
-297,978	519,827	0,065	-0,110
-296,964	342,838	0,067	0,095
-295,949	-200,000	0,004	-0,076
-294,935	225,148	-0,050	-0,059
-293,920	-11,331	-0,049	-0,023
-292,905	800,000	0,023	-0,070
-291,891	-200,000	-0,008	-0,063
-290,876	0,878	0,109	-0,056
-289,862	-13,363	-0,071	0,033
-288,847	624,436	-0,024	-0,044
-287,832	433,272	-0,063	-0,100
-286,818	-167,752	0,100	0,003
-285,803	196,584	0,035	0,039
-284,789	481,598	-0,036	0,059
-283,774	800,000	0,029	-0,088
-282,759	386,377	0,049	0,074
-281,745	-50,819	-0,111	-0,037
-280,730	-200,000	-0,022	-0,118
-279,716	35,809	0,061	0,039
-278,701	704,510	0,018	-0,035
-277,686	-164,544	-0,041	-0,001
-276,672	800,000	-0,015	-0,045
-275,657	146,824	0,138	-0,134
-274,643	127,647	-0,063	-0,058
-273,628	691,748	0,004	-0,008
-272,613	-122,873	0,084	0,010
-271,599	800,000	-0,046	-0,145
-270,584	-128,558	-0,110	-0,011
-269,570	-62,473	0,106	-0,032
-268,555	93,203	-0,087	-0,071
-267,540	-3,690	0,066	0,033
-266,526	-22,216	-0,096	-0,042
-265,511	686,447	0,035	0,067
-264,497	-200,000	-0,007	-0,039
-263,482	-200,000	0,040	0,128
-262,467	496,463	0,031	-0,051
-261,453	800,000	-0,046	-0,119
-260,438	-200,000	-0,006	0,038
-259,424	-50,044	0,060	-0,021
-258,409	-78,490	0,077	-0,019
-257,395	70,069	-0,021	-0,016
-256,380	-100,010	0,084	0,015
-255,365	800,000	0,021	-0,049
-254,351	800,000	0,058	-0,135
-253,336	-152,884	-0,021	0,001
-252,322	175,340	-0,096	0,101
-251,307	46,640	0,035	0,024
-250,292	-110,187	-0,051	-0,008
-249,278	293,235	-0,019	0,025
-248,263	-200,000	0,014	0,087
-247,249	153,665	-0,075	-0,075
-246,234	616,566	0,046	-0,084
-245,219	-200,000	0,019	-0,071
-244,205	456,399	-0,045	-0,073
-243,190	71,443	0,154	0,116
-242,176	-89,475	-0,167	-0,035
-241,161	14,789	0,119	-0,067
-240,146	429,679	-0,103	-0,162
-239,132	171,050	-0,068	0,070
-238,117	341,387	-0,027	-0,039
-237,103	-101,109	0,094	-0,016
-236,088	-200,000	-0,014	0,065
-235,073	209,827	0,062	-0,071
-234,059	800,000	0,001	-0,003
-233,044	-200,000	-0,018	0,109
-232,030	365,289	-0,061	0,090
-231,015	-87,793	0,083	0,018
-230,000	7,395	-0,140	-0,076
-228,986	-200,000	-0,018	0,096
-227,971	-72,528	0,049	0,013
-226,957	229,448	-0,091	-0,107
-225,942	-200,000	-0,000	0,039
-224,927	11,252	-0,119	0,066
-223,913	800,000	0,028	0,071
-222,898	380,642	-0,023	-0,034
-221,884	-200,000	-0,014	-0,136
-220,869	-45,136	-0,065	0,023
-219,855	194,480	-0,055	0,060
-218,840	800,000	-0,043	-0,108
-217,825	-65,395	-0,026	0,007
-216,811	-73,210	0,141	0,037
-215,796	-34,763	-0,043	-0,017
-214,782	130,725	0,086	0,080
-213,767	-89,707	-0,132	0,028
-212,752	-167,184	0,078	0,002
-211,738	539,031	-0,042	0,073
-210,723	27,579	-0,050	0,031
-209,709	-200,000	-0,037	-0,124
-208,694	313,861	0,077	-0,106
-207,679	-73,530	-0,010	0,002
-206,665	-200,000	0,012	-0,115
-205,650	-97,861	0,152	0,028
-204,636	111,671	0,028	0,025
-203,621	117,177	0,113	-0,100
-202,606	-44,176	-0,099	-0,036
-201,592	-20,644	-0,174	-0,077
-200,577	168,862	-0,042	0,043
-199,563	-153,703	0,015	-0,001
-198,548	-42,860	-0,078	-0,029
-197,533	-190,023	-0,084	0,001
-196,519	-200,000	-0,030	0,152
-195,504	95,076	0,062	0,051
-194,490	83,098	-0,022	-0,018
-193,475	-53,455	0,018	0,006
-192,460	40,406	0,017	-0,011
-191,446	-148,697	-0,019	0,001
-190,431	151,660	-0,147	0,145
-189,417	-22,187	-0,121	0,053
-188,402	800,000	0,005	-0,013
-187,387	-114,036	-0,084	0,012
-186,373	396,274	-0,093	-0,141
-185,358	48,846	0,089	-0,060
-184,344	-200,000	-0,004	0,090
-183,329	537,698	0,016	-0,027
-182,315	63,493	-0,040	-0,029
-181,300	88,735	-0,080	0,064
-180,285	-19,282	-0,069	-0,031
-179,271	800,000	-0,035	-0,092
-178,256	-200,000	-0,009	-0,132
-177,242	40,016	-0,060	0,039
-176,227	-200,000	0,011	0,064
-175,212	800,000	0,012	0,032
-174,198	-63,034	-0,100	0,030
-173,183	-200,000	0,005	0,032
-172,169	800,000	0,055	-0,122
-171,154	800,000	-0,036	0,093
-170,139	-47,055	-0,124	0,044
-169,125	-200,000	-0,012	-0,063
-168,110	339,844	0,105	-0,148
-167,096	800,000	-0,018	-0,037
-166,081	86,277	-0,103	0,082
-165,066	-200,000	0,009	-0,035
-164,052	-116,977	-0,107	0,014
-163,037	489,515	0,057	-0,094
-162,023	14,201	0,109	0,061
-161,008	240,173	-0,088	0,105
-159,993	800,000	-0,046	0,131
-158,979	458,840	-0,041	0,065
-157,964	-115,045	-0,057	0,008
-156,950	-200,000	-0,008	-0,190
-155,935	-134,923	0,065	0,006
-154,920	-200,000	0,005	-0,022
-153,906	397,254	0,014	-0,021
-152,891	-70,922	0,038	0,010
-151,877	-200,000	0,007	-0,030
-150,862	-124,654	0,049	-0,005
-149,847	-28,054	-0,019	0,008
-148,833	40,405	0,161	-0,104
-147,818	-113,474	-0,158	0,022
-146,804	-47,583	0,038	0,013
-145,789	-50,602	-0,029	0,010
-144,775	-108,132	0,035	-0,005
-143,760	-22,791	-0,011	0,005
-142,745	-200,000	-0,007	-0,096
-141,731	800,000	-0,031	0,096
-140,716	800,000	0,060	0,151
-139,702	800,000	-0,030	0,087
-138,687	800,000	-0,040	0,124
-137,672	-122,795	-0,101	0,012
-136,658	13,745	-0,073	0,041
-135,643	-80,558	-0,079	-0,019
-134,629	-85,278	0,034	0,008
-133,614	-104,121	0,107	0,018
-132,599	686,117	0,023	-0,044
-131,585	-94,758	-0,038	0,007
-130,570	-1,228	-0,079	0,040
-129,556	-200,000	0,025	-0,153
-128,541	78,680	-0,060	-0,046
-127,526	206,614	-0,071	0,080
-126,512	724,287	0,076	0,146
-125,497	-200,000	-0,007	0,105
-124,483	-1,773	-0,088	0,045
-123,468	55,637	-0,056	0,039
-122,453	-63,985	-0,125	-0,036
-121,439	800,000	-0,075	-0,155
-120,424	-161,763	0,138	-0,005
-119,410	800,000	-0,048	0,145
-118,395	-124,230	-0,095	0,011
-117,380	-106,494	-0,054	-0,009
-116,366	255,868	0,056	0,069
-115,351	-88,421	-0,144	0,031
-114,337	-200,000	-0,012	-0,038
-113,322	232,608	-0,123	0,145
-112,307	332,263	-0,026	-0,036
-111,293	-158,965	0,064	0,003
-110,278	-32,929	0,059	0,023
-109,264	100,845	0,090	0,075
-108,249	46,152	0,142	-0,094
-107,234	159,457	-0,072	-0,072
-106,220	140,718	-0,052	-0,050
-105,205	129,620	0,046	-0,043
-104,191	0,334	-0,050	-0,026
-103,176	-82,154	0,035	-0,008
-102,162	-197,228	-0,070	-0,000
-101,147	602,338	0,037	0,067
-100,132	3,726	-0,062	-0,033
-99,118	13,094	-0,013	0,007
-98,103	-27,831	-0,048	0,020
-97,089	800,000	-0,040	-0,084
-96,074	401,737	-0,053	0,080
-95,059	-113,116	0,077	0,011
-94,045	62,559	-0,044	0,031
-93,030	13,218	0,041	-0,023
-92,016	800,000	-0,006	-0,015
-91,001	5,686	0,086	-0,045
-89,986	-154,920	0,044	0,002
-88,972	-200,000	-0,025	0,091
-87,957	800,000	-0,034	-0,074
-86,943	689,244	0,054	-0,102
-85,928	296,911	-0,063	0,084
-84,913	74,238	-0,070	0,053
-83,899	-32,506	0,126	-0,050
-82,884	110,498	0,087	0,076
-81,870	-59,714	-0,154	0,047
-80,855	93,363	-0,115	-0,093
-79,840	-98,159	-0,179	-0,033
-78,826	-110,451	0,091	-0,013
-77,811	-143,480	-0,162	0,011
-76,797	133,525	0,068	0,063
-75,782	286,420	0,106	0,138
-74,767	237,474	0,053	0,064
-73,753	800,000	0,008	0,017
-72,738	40,244	-0,054	0,035
-71,724	-146,070	0,164	-0,010
-70,709	-34,744	-0,059	0,023
-69,694	24,845	0,118	-0,070
-68,680	91,192	-0,049	0,039
-67,665	800,000	-0,042	0,103
-66,651	-200,000	-0,013	0,068
-65,636	-114,954	-0,027	0,004
-64,622	290,971	-0,062	-0,081
-63,607	66,947	-0,113	-0,083
-62,592	-200,000	-0,028	0,165
-61,578	-75,447	-0,108	0,027
-60,563	-200,000	0,009	0,111
-59,549	800,000	-0,047	0,131
-58,534	56,227	-2,699	-1,881
-57,519	66,073	0,376	-0,274
-56,505	-200,000	-1,601	-5,405
-55,490	478,019	1,141	1,862
-54,476	800,000	5,287	11,408
-53,461	-200,000	21,948	345,853
-52,446	800,000	760,993	2314,119
-51,432	519,573	1651,737	2791,015
-50,417	103,209	1616,024	1360,501
-49,403	72,647	1271,655	952,124
-48,388	25,089	1020,952	607,209
-47,373	19,241	987,494	567,949
-46,359	13,337	974,892	541,295
-45,344	9,232	971,352	525,821
-44,330	9,688	969,504	526,298
-43,315	8,690	967,484	521,906
-42,300	8,590	966,526	521,042
-41,286	8,588	965,516	520,469
-40,271	8,615	964,388	519,929
-39,257	8,594	963,494	519,357
-38,242	8,587	962,490	518,773
-37,227	8,604	961,785	518,428
-36,213	8,575	961,020	517,900
-35,198	8,617	960,249	517,603
-34,184	8,644	959,396	517,209
-33,169	8,611	958,482	516,589
-32,154	8,600	957,610	516,064
-31,140	8,642	956,733	515,705
-30,125	8,679	955,817	515,312
-29,111	8,670	954,859	514,745
-28,096	8,620	954,343	514,284
-27,082	8,587	953,716	513,821
-26,067	8,569	953,026	513,370
-25,052	8,620	952,107	513,020
-24,038	8,587	951,349	512,484
-23,023	8,510	951,057	512,058
-22,009	8,596	950,514	512,022
-20,994	8,602	949,699	511,582
-19,979	8,599	949,103	511,233
-18,965	8,582	948,439	510,798
-17,950	8,581	948,012	510,546
-16,936	8,510	947,306	509,916
-15,921	8,558	946,467	509,600
-14,906	8,516	945,842	509,106
-13,892	8,482	945,183	508,623
-12,877	8,491	944,479	508,255
-11,863	8,498	943,875	507,932
-10,848	8,517	943,424	507,728
-9,833	8,601	942,767	507,623
-8,819	8,591	942,008	507,163
-7,804	8,479	941,530	506,529
-6,790	8,447	941,087	506,167
-5,775	8,509	940,408	505,978
-4,760	8,490	939,798	505,570
-3,746	8,459	939,195	505,127
-2,731	8,322	938,557	504,330
-1,717	8,376	937,729	504,036
-0,702	8,364	937,085	503,633
0,313	8,185	936,587	503,558
1,327	11,436	934,275	512,554
2,342	19,790	782,416	451,219
3,356	14,723	449,356	251,464
4,371	-11,400	312,773	147,203
5,386	-15,087	295,129	135,153
6,400	-16,954	288,732	130,361
7,415	-17,109	286,327	129,112
8,429	-17,570	284,389	127,776
9,444	-17,680	283,443	127,233
10,459	-17,683	283,017	127,027
11,473	-17,646	282,455	126,799
12,488	-17,585	281,850	126,576
13,502	-17,693	281,405	126,260
14,517	-17,670	281,106	126,136
15,531	-17,350	280,474	126,150
16,546	-17,260	280,094	126,055
17,561	-17,559	279,836	125,640
18,575	-17,369	279,582	125,697
19,590	-17,494	279,161	125,376
20,604	-17,440	278,773	125,243
21,619	-17,484	278,477	125,056
22,634	-17,199	278,102	125,149
23,648	-17,432	277,790	124,775
24,663	-17,567	277,585	124,544
25,677	-17,370	277,250	124,569
26,692	-17,484	277,103	124,385
27,707	-17,416	276,794	124,300
28,721	-17,389	276,501	124,182
29,736	-17,444	276,174	123,972
30,750	-17,424	276,045	123,922
31,765	-17,290	275,745	123,903
32,780	-17,384	275,532	123,707
33,794	-17,439	275,336	123,556
34,809	-17,414	274,967	123,403
35,823	-17,281	274,592	123,349
36,838	-17,278	274,409	123,259
37,853	-17,248	274,052	123,116
38,867	-17,263	274,053	123,091
39,882	-17,407	273,667	122,771
40,896	-17,462	273,424	122,600
41,911	-17,333	273,188	122,604
42,926	-17,351	272,928	122,460
43,940	-17,433	272,618	122,233
44,955	-17,324	272,508	122,274
45,969	-17,341	272,266	122,140
46,984	-17,219	272,072	122,155
47,999	-17,186	271,957	122,123
49,013	-17,235	271,609	121,911
50,028	-17,221	271,412	121,824
51,042	-17,409	271,157	121,524
52,057	-17,095	270,812	121,649
53,071	-17,181	270,721	121,519
54,086	-17,144	270,509	121,447
55,101	-17,263	270,339	121,249
56,115	-17,283	270,042	121,087
57,130	-17,373	269,799	120,884
58,144	-17,363	269,463	120,732
59,159	-17,345	269,250	120,642
60,174	-17,476	269,018	120,407
61,188	-17,574	269,037	120,315
62,203	-17,537	268,569	120,129
63,217	-17,418	268,382	120,143
64,232	-17,435	268,037	119,964
65,247	-17,419	267,806	119,863
66,261	-17,409	267,695	119,813
67,276	-17,251	267,325	119,780
68,290	-17,236	267,071	119,670
69,305	-17,109	267,036	119,759
70,320	-17,329	266,883	119,479
71,334	-17,540	266,630	119,163
72,349	-17,305	266,252	119,197
73,363	-17,551	266,047	118,872
74,378	-17,475	265,894	118,861
75,393	-17,273	265,677	118,937
76,407	-17,377	265,530	118,766
77,422	-17,298	265,131	118,649
78,436	-17,389	264,869	118,439
79,451	-17,516	264,811	118,287
80,466	-17,147	264,491	118,467
81,480	-17,113	264,185	118,350
82,495	-17,428	264,072	118,005
83,509	-17,290	263,828	118,009
84,524	-17,361	263,589	117,828
85,539	-17,205	263,551	117,941
86,553	-17,338	263,301	117,700
87,568	-17,366	263,109	117,578
88,582	-17,286	262,786	117,494
89,597	-17,220	262,626	117,472
90,611	-17,235	262,385	117,340
91,626	-17,315	262,147	117,152
92,641	-17,347	262,068	117,078
93,655	-17,233	261,769	117,035
94,670	-17,361	261,597	116,834
95,684	-17,429	261,387	116,669
96,699	-17,417	261,255	116,610
97,714	-17,178	261,052	116,722
98,728	-17,149	260,715	116,587
99,743	-17,337	260,651	116,380
100,757	-17,284	260,374	116,293
101,772	-17,310	260,122	116,148
102,787	-17,374	259,992	116,023
103,801	-17,324	259,625	115,892
104,816	-17,169	259,649	116,030
105,830	-17,259	259,470	115,861
106,845	-17,496	259,291	115,561
107,860	-17,394	258,896	115,464
108,874	-17,242	258,614	115,462
109,889	-17,288	258,558	115,386
110,903	-17,316	258,179	115,182
111,918	-17,323	258,213	115,181
112,933	-17,165	257,954	115,193
113,947	-17,385	257,865	114,950
114,962	-17,309	257,561	114,871
115,976	-17,196	257,314	114,849
116,991	-17,258	257,092	114,687
118,006	-17,223	256,986	114,660
119,020	-17,228	256,783	114,555
120,035	-17,132	256,610	114,551
121,049	-17,250	256,456	114,369
122,064	-17,215	256,150	114,253
123,079	-17,188	256,138	114,261
124,093	-17,320	255,832	113,999
125,108	-17,385	255,560	113,811
126,122	-17,238	255,586	113,941
127,137	-17,199	255,258	113,818
128,151	-17,299	255,146	113,672
129,166	-17,260	254,881	113,577
130,181	-17,065	254,722	113,665
131,195	-17,001	254,346	113,541
132,210	-17,247	254,241	113,273
133,224	-17,276	253,991	113,126
134,239	-17,332	253,857	113,008
135,254	-17,260	253,593	112,943
136,268	-16,972	253,437	113,111
137,283	-17,071	253,190	112,905
138,297	-17,012	253,010	112,866
139,312	-17,250	252,773	112,546
140,327	-17,296	252,730	112,477
141,341	-17,157	252,517	112,491
142,356	-17,291	252,195	112,223
143,370	-17,195	252,017	112,216
144,385	-17,361	251,936	112,028
145,400	-17,103	251,816	112,185
146,414	-17,113	251,527	112,038
147,429	-17,122	251,191	111,870
148,443	-17,246	251,243	111,778
149,458	-17,301	250,983	111,606
150,473	-17,194	250,741	111,578
151,487	-17,247	250,582	111,453
152,502	-17,205	250,547	111,463
153,516	-17,175	250,074	111,268
154,531	-17,277	249,891	111,090
155,546	-17,225	249,787	111,079
156,560	-17,329	249,576	110,887
157,575	-17,099	249,444	111,013
158,589	-17,063	249,145	110,900
159,604	-17,321	249,061	110,636
160,619	-17,084	248,872	110,741
161,633	-17,147	248,714	110,608
162,648	-17,319	248,435	110,329
163,662	-17,159	248,330	110,407
164,677	-17,112	248,237	110,395
165,692	-17,295	248,097	110,170
166,706	-17,071	247,959	110,287
167,721	-17,194	247,666	110,043
168,735	-17,223	247,561	109,963
169,750	-17,061	247,395	110,015
170,764	-17,339	247,255	109,710
171,779	-17,291	247,098	109,671
172,794	-17,169	246,871	109,662
173,808	-17,163	246,708	109,585
174,823	-17,328	246,658	109,415
175,837	-16,996	246,376	109,557
176,852	-17,142	246,218	109,355
177,867	-17,149	246,077	109,277
178,881	-17,191	245,914	109,160
179,896	-17,111	245,531	109,047
180,910	-17,275	245,386	108,836
181,925	-17,051	245,215	108,937
182,940	-17,366	245,220	108,668
183,954	-17,244	244,898	108,617
184,969	-17,084	244,781	108,687
185,983	-17,218	244,659	108,513
186,998	-16,981	244,415	108,591
188,013	-17,163	244,169	108,321
189,027	-17,228	243,996	108,182
190,042	-17,146	243,783	108,145
191,056	-17,150	243,586	108,045
192,071	-17,200	243,494	107,953
193,086	-17,217	243,237	107,816
194,100	-17,241	243,132	107,740
195,115	-17,331	242,910	107,558
196,129	-17,128	242,773	107,654
197,144	-17,174	242,354	107,421
198,159	-17,304	242,416	107,333
199,173	-17,104	242,198	107,390
200,188	-17,238	241,996	107,182
201,202	-17,244	241,850	107,102
202,217	-17,096	241,640	107,121
203,232	-17,038	241,476	107,086
204,246	-17,155	241,248	106,880
205,261	-17,497	240,970	106,469
206,275	-16,251	241,543	107,728
207,290	-11,366	243,196	112,460
208,304	-4,990	245,222	118,646
209,319	-1,985	245,869	121,428
210,334	-1,025	246,099	122,322
211,348	-0,010	246,332	123,265
212,363	0,539	246,263	123,672
213,377	0,793	246,459	123,969
214,392	1,028	246,225	124,034
215,407	1,312	246,068	124,178
216,421	1,627	246,064	124,423
217,436	1,415	245,954	124,182
218,450	1,791	245,713	124,359
219,465	1,465	245,640	124,043
220,480	1,501	245,531	124,006
221,494	1,584	245,143	123,867
222,509	1,029	244,890	123,274
223,523	0,802	244,788	123,026
224,538	0,783	244,403	122,806
225,553	0,669	244,416	122,708
226,567	0,779	244,058	122,608
227,582	0,574	244,123	122,462
228,596	0,543	243,978	122,353
229,611	0,833	243,684	122,430
230,626	0,839	243,454	122,309
231,640	0,713	243,350	122,143
232,655	0,618	243,124	121,942
233,669	0,535	243,002	121,802
234,684	0,764	242,906	121,929
235,699	0,679	242,637	121,715
236,713	0,710	242,712	121,766
237,728	0,632	242,431	121,551
238,742	0,558	242,215	121,372
239,757	0,698	242,179	121,457
240,772	0,677	241,914	121,296
241,786	0,587	241,850	121,180
242,801	0,709	241,525	121,105
243,815	0,640	241,512	121,032
244,830	0,766	241,386	121,060
245,844	0,756	241,082	120,888
246,859	0,708	241,012	120,804
247,874	0,827	240,835	120,800
248,888	0,728	240,660	120,622
249,903	0,759	240,543	120,577
250,917	0,992	240,424	120,694
251,932	0,916	240,288	120,554
252,947	0,727	239,989	120,242
253,961	0,607	239,954	120,118
254,976	0,798	239,732	120,149
255,990	0,827	239,517	120,053
257,005	0,820	239,405	119,981
258,020	0,744	239,259	119,836
259,034	0,865	239,077	119,831
260,049	0,850	239,033	119,786
261,063	0,794	238,658	119,543
262,078	0,651	238,615	119,398
263,093	0,845	238,571	119,519
264,107	0,636	238,371	119,242
265,122	0,661	238,205	119,168
266,136	1,019	238,000	119,338
267,151	0,740	237,820	119,017
268,166	0,708	237,646	118,894
269,180	0,641	237,631	118,823
270,195	0,804	237,394	118,822
271,209	0,551	237,247	118,538
272,224	0,579	237,166	118,509
273,239	0,687	236,878	118,440
274,253	0,978	236,676	118,558
275,268	0,663	236,735	118,329
276,282	0,602	236,522	118,163
277,297	0,723	236,216	118,096
278,312	0,938	235,982	118,136
279,326	0,720	236,123	118,026
280,341	0,658	235,966	117,888
281,355	0,749	235,836	117,884
282,370	0,906	235,602	117,879
283,384	0,706	235,502	117,662
284,399	0,859	235,148	117,594
285,414	0,573	235,143	117,358
286,428	0,805	234,956	117,435
287,443	0,880	234,798	117,405
288,457	0,685	234,662	117,174
289,472	0,784	234,619	117,219
290,487	0,730	234,494	117,104
291,501	0,603	234,203	116,849
292,516	0,962	234,011	117,023
293,530	0,824	233,939	116,869
294,545	0,941	233,752	116,855
295,560	0,875	233,688	116,762
296,574	0,817	233,490	116,607
297,589	0,957	233,353	116,638
298,603	0,737	233,220	116,390
299,618	0,987	233,039	116,483
300,633	0,793	233,114	116,360
301,647	0,985	232,854	116,368
302,662	1,110	232,671	116,363
303,676	1,005	232,359	116,115
304,691	1,120	232,376	116,202
305,706	0,965	232,216	115,993
306,720	0,937	232,192	115,948
307,735	1,191	231,785	115,930
308,749	1,111	231,694	115,813
309,764	1,058	231,493	115,662
310,779	0,883	231,500	115,520
311,793	1,059	231,280	115,535
312,808	1,010	231,145	115,420
313,822	0,972	231,041	115,328
314,837	1,007	230,907	115,278
315,852	1,020	230,717	115,183
316,866	1,064	230,384	115,040
317,881	1,126	230,243	115,007
318,895	0,971	230,261	114,887
319,910	0,911	230,056	114,729
320,925	1,170	229,898	114,837
321,939	0,861	229,718	114,502
322,954	0,924	229,684	114,523
323,968	1,206	229,393	114,581
324,983	0,933	229,584	114,459
325,997	0,959	229,300	114,327
327,012	0,939	229,168	114,236
328,027	1,038	228,759	114,097
329,041	0,991	228,821	114,082
330,056	1,038	228,578	113,986
331,070	1,250	228,491	114,093
332,085	0,951	228,322	113,772
333,100	1,087	228,113	113,761
334,114	0,980	228,022	113,624
335,129	0,898	227,957	113,520
336,143	1,127	227,682	113,546
337,158	1,113	227,614	113,491
338,173	1,190	227,470	113,467
339,187	1,077	227,350	113,312
340,202	1,033	227,055	113,122
341,216	0,993	227,029	113,069
342,231	1,006	226,822	112,966
343,246	1,070	226,810	112,998
344,260	1,149	226,587	112,936
345,275	1,117	226,506	112,861
346,289	1,207	226,358	112,845
347,304	1,082	226,345	112,735
348,319	1,152	226,001	112,605
349,333	0,921	225,934	112,389
350,348	1,201	225,749	112,496
351,362	1,069	225,749	112,388
352,377	1,191	225,493	112,341
353,392	1,185	225,154	112,158
354,406	0,940	225,250	112,014
355,421	191,879	1313,421	1379,551
356,435	153,678	1445,861	1379,421
