DTS Sentinel unit serial number:	SN410029Multiplexer serial number:	ORYXHardware model number:	OX2-SRSoftware version number:	ORYX F/W v4,00 Oryx Data Collector v3.7.2.0data status	okinstallation	B5 Nyhavnadifferential loss correction	single-endedforward channel	channel 2reverse channel	N/Adate	2023/12/12time	02:32:13forward acquisition time	300,00reverse acquisition time	0,00gamma	499,1914k internal	0,3156k external	0,3156temperature offset calibration	1,0000default loss term (dB/km)	0,3820temperature slope calibration	1,0000multiplexer offset coefficient	1,0000multiplexer slope coefficient	1,0000fibre end	0,00T internal ref (°C)	15,75T ext. ref 1 (°C)	-0,62T ext. ref 2 (°C)	-0,92length (m)	temperature (°C)	Stokes	anti-Stokes-744,400	10,974	0,079	0,045
-743,385	145,274	-0,169	0,167
-742,371	800,000	0,056	-0,124
-741,356	-90,796	-0,393	0,083
-740,342	-200,000	0,035	0,209
-739,327	-112,035	-0,268	-0,039
-738,312	64,992	0,131	-0,097
-737,298	-139,526	-0,228	-0,018
-736,283	-106,294	0,231	-0,038
-735,269	-68,405	-0,169	-0,048
-734,254	-44,451	0,061	0,022
-733,239	-65,885	-0,470	-0,138
-732,225	14,140	0,157	-0,090
-731,210	800,000	0,018	-0,053
-730,196	-11,127	-0,074	-0,036
-729,181	-49,519	0,126	0,044
-728,167	97,476	-0,054	-0,046
-727,152	-200,000	0,019	0,144
-726,137	-156,104	-0,104	0,005
-725,123	98,711	-0,115	-0,098
-724,108	-200,000	-0,067	-0,250
-723,094	365,766	-0,161	-0,240
-722,079	800,000	-0,029	-0,088
-721,064	108,224	-0,104	-0,091
-720,050	-200,000	0,007	-0,114
-719,035	152,119	-0,072	0,073
-718,021	-98,862	-0,099	-0,018
-717,006	297,212	-0,069	-0,094
-715,991	-200,000	0,034	-0,153
-714,977	-200,000	0,054	-0,179
-713,962	-47,298	-0,025	0,009
-712,948	-200,000	-0,004	-0,015
-711,933	210,912	-0,042	0,049
-710,918	-192,508	-0,134	0,001
-709,904	72,382	-0,072	-0,055
-708,889	-200,000	-0,016	-0,126
-707,875	589,602	-0,066	-0,120
-706,860	-43,138	0,063	0,024
-705,845	665,448	-0,045	0,086
-704,831	79,344	-0,049	-0,039
-703,816	537,666	0,057	-0,101
-702,802	35,039	0,027	-0,018
-701,787	-75,072	-0,095	-0,025
-700,772	-200,000	0,021	0,146
-699,758	800,000	0,046	-0,133
-698,743	130,579	0,056	-0,053
-697,729	800,000	-0,041	0,096
-696,714	-200,000	0,004	0,085
-695,699	-200,000	0,000	-0,080
-694,685	294,467	-0,030	0,040
-693,670	37,853	0,042	-0,027
-692,656	636,165	0,003	-0,005
-691,641	-62,056	0,032	0,010
-690,627	25,351	-0,094	-0,057
-689,612	800,000	-0,036	0,074
-688,597	800,000	0,011	-0,025
-687,583	235,433	-0,115	-0,141
-686,568	-11,086	-0,102	-0,049
-685,554	8,649	-0,126	-0,069
-684,539	-121,097	0,087	0,011
-683,524	-200,000	-0,007	-0,054
-682,510	-200,000	0,011	-0,044
-681,495	-200,000	-0,024	-0,094
-680,481	151,789	-0,077	-0,077
-679,466	-200,000	-0,009	-0,030
-678,451	-200,000	-0,015	-0,058
-677,437	274,420	-0,016	0,021
-676,422	-84,504	0,211	0,049
-675,408	32,248	0,051	-0,032
-674,393	-18,478	-0,095	-0,043
-673,378	800,000	-0,050	-0,113
-672,364	-33,361	-0,130	-0,053
-671,349	-174,086	-0,154	0,003
-670,335	-200,000	0,012	-0,045
-669,320	197,459	0,129	0,145
-668,305	800,000	0,014	0,039
-667,291	31,644	0,067	0,042
-666,276	800,000	0,032	-0,093
-665,262	74,982	-0,047	-0,037
-664,247	-37,451	-0,101	0,039
-663,232	121,044	0,009	0,008
-662,218	169,370	0,101	0,106
-661,203	714,775	-0,014	-0,028
-660,189	-200,000	-0,006	0,053
-659,174	13,579	-0,094	0,054
-658,159	800,000	-0,024	-0,077
-657,145	-5,833	0,102	-0,051
-656,130	96,371	-0,050	-0,042
-655,116	-200,000	0,006	-0,101
-654,101	-73,996	-0,117	-0,031
-653,086	-67,907	-0,075	0,021
-652,072	162,590	-0,106	-0,109
-651,057	273,192	0,019	-0,024
-650,043	-103,536	0,090	-0,015
-649,028	-200,000	-0,001	-0,050
-648,014	-27,118	0,073	-0,031
-646,999	-30,565	-0,116	0,048
-645,984	433,265	0,017	0,027
-644,970	-9,420	-0,058	0,028
-643,955	-186,224	-0,257	-0,003
-642,941	-200,000	0,012	-0,039
-641,926	-200,000	0,016	0,104
-640,911	800,000	0,045	0,096
-639,897	-200,000	-0,010	0,088
-638,882	285,924	0,011	-0,014
-637,868	450,637	-0,005	0,008
-636,853	-132,049	-0,062	0,006
-635,838	-139,170	-0,061	0,005
-634,824	482,986	-0,019	-0,032
-633,809	235,777	-0,004	-0,005
-632,795	-86,824	0,103	-0,023
-631,780	377,092	-0,076	0,114
-630,765	800,000	-0,022	0,053
-629,751	16,804	0,156	-0,091
-628,736	-6,983	-0,041	-0,021
-627,722	-57,288	0,051	-0,016
-626,707	800,000	0,064	-0,187
-625,692	800,000	-0,081	-0,187
-624,678	-37,576	-0,139	-0,054
-623,663	-42,140	-0,060	0,023
-622,649	316,541	0,033	0,045
-621,634	800,000	-0,010	-0,027
-620,619	-200,000	-0,001	0,121
-619,605	149,344	0,100	-0,099
-618,590	800,000	-0,013	0,037
-617,576	-125,281	-0,039	0,004
-616,561	-200,000	0,002	-0,029
-615,546	151,422	-0,086	0,086
-614,532	-182,085	-0,024	-0,000
-613,517	171,806	0,041	-0,043
-612,503	174,518	-0,058	-0,062
-611,488	-43,928	0,071	0,026
-610,474	129,895	0,063	0,060
-609,459	-70,969	0,048	-0,013
-608,444	-200,000	-0,007	-0,095
-607,430	-77,983	-0,180	0,045
-606,415	658,157	-0,057	-0,109
-605,401	-106,475	0,100	0,016
-604,386	-79,545	-0,098	0,024
-603,371	-200,000	-0,005	0,041
-602,357	-81,321	-0,041	0,010
-601,342	-200,000	-0,017	-0,141
-600,328	59,780	-0,107	-0,078
-599,313	589,690	0,103	0,187
-598,298	215,478	0,056	-0,065
-597,284	-76,430	0,117	-0,030
-596,269	73,206	0,064	0,049
-595,255	259,061	-0,106	-0,135
-594,240	25,843	-0,032	0,020
-593,225	-93,362	0,150	-0,030
-592,211	565,476	-0,037	-0,066
-591,196	800,000	-0,040	0,115
-590,182	-200,000	0,012	0,220
-589,167	800,000	-0,043	0,124
-588,152	-38,857	-0,072	0,028
-587,138	0,889	0,049	0,026
-586,123	-13,815	-0,055	-0,026
-585,109	-18,009	0,092	-0,042
-584,094	246,813	0,072	-0,089
-583,079	793,201	0,026	0,054
-582,065	-200,000	0,005	-0,062
-581,050	-200,000	-0,020	-0,071
-580,036	605,599	-0,055	0,102
-579,021	-200,000	0,006	-0,081
-578,006	293,293	-0,145	-0,194
-576,992	-18,735	0,067	-0,031
-575,977	-152,616	-0,082	0,004
-574,963	-18,906	0,168	0,076
-573,948	-13,393	0,020	-0,010
-572,934	-184,964	-0,165	0,002
-571,919	716,705	0,023	-0,044
-570,904	189,111	-0,100	-0,110
-569,890	-45,609	-0,084	-0,030
-568,875	90,879	0,034	-0,028
-567,861	-200,000	0,036	0,137
-566,846	262,888	0,035	0,044
-565,831	324,269	0,041	-0,057
-564,817	377,002	-0,063	-0,094
-563,802	800,000	-0,026	-0,075
-562,788	-75,058	-0,142	-0,037
-561,773	-6,987	0,022	0,011
-560,758	-153,213	0,058	0,003
-559,744	-200,000	0,009	0,153
-558,729	-152,349	0,087	-0,005
-557,715	-200,000	0,031	0,114
-556,700	33,187	0,125	-0,079
-555,685	113,829	-0,083	-0,074
-554,671	34,451	0,099	0,063
-553,656	-130,849	0,077	-0,007
-552,642	-23,607	-0,130	-0,057
-551,627	-74,690	0,078	-0,021
-550,612	34,795	0,063	-0,040
-549,598	-200,000	0,005	-0,110
-548,583	-200,000	-0,023	-0,134
-547,569	800,000	-0,065	-0,142
-546,554	503,934	0,014	-0,024
-545,539	800,000	0,029	0,093
-544,525	55,482	0,026	0,019
-543,510	74,886	-0,144	-0,111
-542,496	89,750	-0,114	-0,094
-541,481	-200,000	-0,005	-0,084
-540,466	800,000	-0,047	-0,096
-539,452	800,000	0,040	-0,104
-538,437	37,799	0,041	-0,027
-537,423	-138,173	-0,065	-0,005
-536,408	340,427	0,070	0,100
-535,393	593,071	-0,035	-0,063
-534,379	158,044	-0,051	0,051
-533,364	-116,051	0,046	-0,006
-532,350	-200,000	-0,009	0,082
-531,335	-181,062	0,076	0,001
-530,321	-92,079	0,019	0,004
-529,306	384,965	-0,044	-0,066
-528,291	-105,790	0,049	-0,008
-527,277	-77,984	-0,126	0,031
-526,262	-163,756	0,171	0,006
-525,248	-45,885	0,080	-0,029
-524,233	-49,813	0,068	0,023
-523,218	800,000	0,070	0,198
-522,204	-12,710	0,094	0,044
-521,189	-141,849	-0,046	-0,003
-520,175	-200,000	-0,008	-0,089
-519,160	440,028	-0,091	-0,146
-518,145	-200,000	-0,022	0,106
-517,131	10,573	0,084	0,046
-516,116	715,639	-0,035	-0,068
-515,102	71,881	0,054	-0,041
-514,087	-108,769	-0,145	-0,022
-513,072	-200,000	-0,008	0,153
-512,058	226,642	0,045	-0,054
-511,043	800,000	-0,036	-0,074
-510,029	-44,866	0,101	0,037
-509,014	51,477	0,210	0,146
-507,999	800,000	-0,003	-0,005
-506,985	696,418	-0,050	-0,097
-505,970	-200,000	0,027	-0,120
-504,956	467,860	0,086	-0,142
-503,941	-153,569	0,084	-0,004
-502,926	-200,000	0,004	0,051
-501,912	-200,000	0,014	0,082
-500,897	137,259	-0,101	0,097
-499,883	-85,061	-0,061	-0,014
-498,868	-200,000	-0,011	-0,063
-497,853	-0,108	-0,057	0,029
-496,839	-200,000	-0,013	-0,099
-495,824	-69,900	0,019	-0,005
-494,810	-41,517	0,172	-0,064
-493,795	103,578	-0,079	0,067
-492,781	-200,000	0,003	0,079
-491,766	-200,000	-0,005	-0,127
-490,751	443,173	-0,074	-0,118
-489,737	178,068	0,015	0,016
-488,722	318,582	-0,015	0,021
-487,708	-158,221	-0,052	0,002
-486,693	-22,392	-0,025	-0,011
-485,678	263,649	0,049	0,063
-484,664	2,944	-0,086	0,046
-483,649	-117,652	0,067	0,009
-482,635	800,000	-0,018	-0,049
-481,620	-200,000	-0,035	-0,166
-480,605	50,251	0,231	-0,159
-479,591	-89,990	0,093	0,020
-478,576	-172,535	-0,091	0,002
-477,562	54,043	0,114	-0,080
-476,547	800,000	-0,029	-0,083
-475,532	287,713	0,028	0,037
-474,518	-65,489	-0,006	-0,002
-473,503	628,657	-0,056	0,103
-472,489	-200,000	0,039	0,127
-471,474	-200,000	0,051	0,212
-470,459	-187,748	0,035	0,000
-469,445	-67,788	0,044	-0,012
-468,430	-200,000	-0,010	-0,052
-467,416	-48,803	0,023	-0,008
-466,401	-152,622	0,080	-0,004
-465,386	-200,000	-0,003	0,068
-464,372	-200,000	-0,006	0,041
-463,357	-115,999	-0,080	0,011
-462,343	415,388	-0,031	-0,048
-461,328	-55,376	0,092	0,030
-460,313	-200,000	-0,015	0,092
-459,299	-105,542	-0,102	0,017
-458,284	42,077	0,170	0,113
-457,270	-44,547	-0,090	0,033
-456,255	-152,325	0,098	0,005
-455,241	158,681	-0,036	-0,037
-454,226	-135,071	-0,128	0,011
-453,211	53,141	0,051	-0,036
-452,197	800,000	0,070	-0,186
-451,182	36,303	0,078	0,050
-450,168	-200,000	-0,083	-0,000
-449,153	-112,920	0,080	0,011
-448,138	-200,000	0,006	-0,047
-447,124	-139,179	-0,209	-0,016
-446,109	245,286	-0,044	-0,054
-445,095	204,192	0,065	-0,073
-444,080	655,806	0,021	0,039
-443,065	-200,000	0,010	-0,052
-442,051	-200,000	-0,033	-0,233
-441,036	32,148	-0,039	0,025
-440,022	800,000	-0,025	-0,053
-439,007	-55,493	0,060	0,019
-437,992	800,000	-0,027	0,056
-436,978	-200,000	-0,003	-0,074
-435,963	41,658	-0,120	0,079
-434,949	-130,185	-0,144	0,014
-433,934	631,225	0,089	-0,164
-432,919	496,503	0,044	-0,074
-431,905	-200,000	0,014	0,162
-430,890	800,000	0,073	-0,150
-429,876	-53,592	0,129	0,043
-428,861	800,000	0,015	0,047
-427,846	-8,696	0,130	-0,063
-426,832	800,000	-0,045	-0,093
-425,817	227,939	0,050	0,059
-424,803	-170,401	-0,077	-0,002
-423,788	800,000	-0,030	0,075
-422,773	211,414	-0,051	0,059
-421,759	-200,000	0,000	0,055
-420,744	5,529	-0,051	-0,027
-419,730	-200,000	0,024	-0,116
-418,715	136,751	0,011	-0,011
-417,701	-200,000	0,017	-0,106
-416,686	78,162	-0,099	0,077
-415,671	-17,688	0,085	0,039
-414,657	-161,934	-0,065	-0,002
-413,642	259,355	-0,074	0,093
-412,628	800,000	0,014	0,038
-411,613	329,078	0,061	-0,086
-410,598	800,000	-0,023	0,064
-409,584	-76,618	0,060	-0,015
-408,569	-114,304	0,099	0,014
-407,555	114,432	-0,087	0,077
-406,540	-200,000	-0,021	-0,074
-405,525	-200,000	0,015	-0,076
-404,511	-131,385	-0,103	-0,010
-403,496	-200,000	0,001	-0,029
-402,482	-151,886	-0,108	0,006
-401,467	-117,912	-0,080	-0,010
-400,452	652,250	0,054	-0,101
-399,438	-78,262	-0,090	-0,022
-398,423	-55,945	0,150	0,048
-397,409	800,000	-0,055	-0,135
-396,394	-97,496	0,201	0,038
-395,379	621,608	0,025	0,046
-394,365	440,799	-0,014	0,022
-393,350	-54,567	-0,085	0,028
-392,336	160,961	0,059	0,060
-391,321	78,099	0,063	-0,048
-390,306	131,129	-0,076	0,071
-389,292	-200,000	0,004	-0,049
-388,277	-200,000	0,036	0,152
-387,263	33,922	-0,055	-0,035
-386,248	-200,000	-0,012	0,110
-385,233	251,959	0,018	0,023
-384,219	146,198	-0,088	0,086
-383,204	-161,411	-0,149	-0,006
-382,190	800,000	-0,067	-0,142
-381,175	0,729	0,078	0,040
-380,160	-153,008	0,137	-0,007
-379,146	-136,100	-0,096	-0,008
-378,131	-147,368	0,056	0,003
-377,117	-64,170	-0,084	-0,025
-376,102	-200,000	-0,008	-0,100
-375,088	194,435	-0,074	-0,081
-374,073	66,259	-0,168	-0,124
-373,058	63,904	-0,104	0,076
-372,044	53,658	0,112	0,078
-371,029	-200,000	0,014	0,075
-370,015	421,419	-0,039	-0,060
-369,000	31,396	0,072	0,045
-367,985	411,625	0,051	-0,080
-366,971	800,000	0,018	0,037
-365,956	-200,000	-0,002	-0,067
-364,942	-187,261	0,192	0,002
-363,927	800,000	0,034	0,093
-362,912	459,138	-0,086	-0,139
-361,898	153,857	-0,083	-0,083
-360,883	-27,616	-0,077	-0,032
-359,869	-200,000	-0,013	0,057
-358,854	29,513	-0,081	-0,050
-357,839	20,513	0,063	0,037
-356,825	3,927	0,076	0,040
-355,810	248,250	0,028	0,035
-354,796	-41,592	0,074	-0,027
-353,781	-200,000	-0,003	-0,074
-352,766	331,123	-0,103	0,145
-351,752	155,837	0,138	0,138
-350,737	-48,208	-0,040	0,014
-349,723	178,377	0,087	-0,093
-348,708	267,083	0,036	0,046
-347,693	57,809	-0,047	0,034
-346,679	-200,000	-0,018	-0,192
-345,664	-200,000	-0,001	-0,089
-344,650	18,716	0,060	-0,035
-343,635	-79,176	-0,090	-0,022
-342,620	80,130	-0,046	0,036
-341,606	293,166	-0,060	0,080
-340,591	421,415	-0,029	0,045
-339,577	-200,000	-0,053	-0,206
-338,562	539,665	-0,111	-0,192
-337,548	800,000	-0,030	0,087
-336,533	-200,000	-0,018	-0,107
-335,518	117,143	0,116	0,103
-334,504	-44,764	0,139	0,050
-333,489	-82,858	-0,084	-0,020
-332,475	-38,305	0,119	0,046
-331,460	-200,000	0,007	-0,085
-330,445	-200,000	0,019	0,104
-329,431	800,000	0,063	-0,144
-328,416	-122,339	-0,104	-0,012
-327,402	120,974	-0,033	-0,030
-326,387	1,824	0,143	0,075
-325,372	0,670	-0,059	0,031
-324,358	-200,000	0,028	-0,122
-323,343	390,130	-0,029	-0,043
-322,329	-15,990	-0,071	0,033
-321,314	2,362	0,122	0,064
-320,299	-200,000	0,037	0,118
-319,285	202,032	-0,034	-0,038
-318,270	-200,000	0,031	0,120
-317,256	234,785	0,055	0,066
-316,241	-81,821	0,078	-0,018
-315,226	800,000	0,027	-0,056
-314,212	15,129	-0,021	-0,012
-313,197	-48,794	0,033	0,012
-312,183	179,162	-0,062	-0,066
-311,168	48,913	-0,129	-0,088
-310,153	232,519	-0,047	0,057
-309,139	800,000	0,027	-0,066
-308,124	-200,000	-0,004	0,065
-307,110	-200,000	-0,023	0,096
-306,095	100,582	-0,109	0,092
-305,080	-200,000	-0,011	0,154
-304,066	80,977	-0,061	0,048
-303,051	-86,298	-0,113	0,025
-302,037	126,753	0,024	0,022
-301,022	-9,688	0,039	0,019
-300,008	605,053	0,049	0,089
-298,993	800,000	0,033	-0,074
-297,978	-53,950	-0,149	0,049
-296,964	-200,000	-0,002	-0,075
-295,949	34,292	-0,055	0,035
-294,935	36,354	-0,053	-0,034
-293,920	52,757	-0,081	0,056
-292,905	-110,761	0,081	0,012
-291,891	269,849	0,049	0,062
-290,876	800,000	-0,029	-0,092
-289,862	357,945	-0,055	0,080
-288,847	-64,349	0,046	-0,013
-287,832	222,771	-0,028	0,033
-286,818	-17,178	-0,066	0,030
-285,803	558,166	0,089	0,156
-284,789	800,000	-0,015	0,037
-283,774	-200,000	0,003	0,179
-282,759	800,000	-0,033	0,070
-281,745	250,134	0,042	0,052
-280,730	-14,036	-0,042	0,020
-279,716	336,965	0,054	0,077
-278,701	403,862	0,068	0,104
-277,686	-200,000	-0,028	0,144
-276,672	-200,000	-0,037	0,265
-275,657	800,000	0,035	-0,110
-274,643	-87,404	-0,114	-0,025
-273,628	-200,000	0,007	-0,075
-272,613	244,059	0,062	-0,075
-271,599	18,010	0,108	-0,062
-270,584	423,693	0,085	-0,133
-269,570	280,617	0,035	-0,046
-268,555	16,542	-0,103	0,059
-267,540	800,000	0,025	-0,068
-266,526	316,017	0,062	-0,084
-265,511	800,000	-0,027	0,065
-264,497	288,123	0,034	0,045
-263,482	800,000	0,089	-0,193
-262,467	205,186	-0,028	0,031
-261,453	-200,000	0,018	-0,087
-260,438	-200,000	0,013	-0,056
-259,424	263,524	0,029	-0,037
-258,409	-47,224	0,064	0,022
-257,395	76,720	0,036	0,027
-256,380	20,519	-0,081	-0,047
-255,365	-200,000	-0,006	0,140
-254,351	800,000	-0,037	0,099
-253,336	220,300	0,049	-0,057
-252,322	-200,000	-0,012	-0,125
-251,307	-20,330	-0,181	-0,080
-250,292	-101,870	-0,132	-0,023
-249,278	-21,615	-0,025	-0,011
-248,263	800,000	0,003	-0,007
-247,249	800,000	-0,059	0,181
-246,234	98,929	-0,099	0,083
-245,219	513,433	0,016	-0,027
-244,205	-200,000	0,020	0,087
-243,190	-105,413	0,135	0,022
-242,176	114,162	0,081	-0,071
-241,161	135,305	0,027	0,025
-240,146	134,725	0,037	0,034
-239,132	60,219	0,031	0,022
-238,117	31,011	-0,077	-0,047
-237,103	-200,000	-0,002	-0,133
-236,088	-63,280	0,152	-0,045
-235,073	312,969	0,055	0,076
-234,059	800,000	-0,017	-0,039
-233,044	209,045	-0,053	0,060
-232,030	11,785	0,074	-0,041
-231,015	-55,919	-0,138	-0,044
-230,000	-200,000	0,013	-0,160
-228,986	452,809	0,070	-0,113
-227,971	-169,981	-0,112	0,003
-226,957	160,896	0,094	0,095
-225,942	210,425	-0,103	0,117
-224,927	-134,454	0,058	-0,005
-223,913	-200,000	-0,024	0,094
-222,898	-90,931	0,014	-0,003
-221,884	-200,000	-0,048	-0,179
-220,869	342,348	0,093	0,132
-219,855	800,000	-0,035	0,086
-218,840	-127,868	0,042	-0,004
-217,825	-200,000	-0,003	0,039
-216,811	-98,012	-0,056	0,010
-215,796	-200,000	0,004	-0,043
-214,782	328,737	-0,030	0,041
-213,767	-200,000	0,004	0,058
-212,752	-32,674	0,064	0,025
-211,738	-200,000	0,000	0,020
-210,723	166,601	0,013	-0,014
-209,709	-200,000	0,020	-0,115
-208,694	647,602	-0,083	-0,154
-207,679	800,000	-0,042	-0,092
-206,665	-200,000	0,011	0,080
-205,650	385,129	0,037	0,055
-204,636	102,153	-0,032	-0,027
-203,621	800,000	0,060	0,143
-202,606	-24,499	0,052	-0,022
-201,592	-200,000	-0,011	0,081
-200,577	550,267	0,069	-0,121
-199,563	-24,616	0,133	-0,057
-198,548	354,211	0,075	0,108
-197,533	-200,000	0,040	0,253
-196,519	17,306	-0,111	0,063
-195,504	141,747	0,028	-0,027
-194,490	-149,784	-0,091	-0,005
-193,475	20,626	-0,086	-0,050
-192,460	-64,735	0,101	0,029
-191,446	-55,961	-0,035	-0,011
-190,431	800,000	-0,014	0,037
-189,417	13,824	-0,018	0,010
-188,402	40,230	0,096	0,062
-187,387	18,195	-0,066	0,038
-186,373	-55,109	0,037	0,012
-185,358	-200,000	-0,025	0,123
-184,344	-171,783	0,056	-0,001
-183,329	31,072	0,073	0,045
-182,315	800,000	0,066	0,142
-181,300	734,291	0,009	-0,018
-180,285	207,182	-0,047	-0,053
-179,271	69,518	0,040	-0,030
-178,256	-27,163	0,122	0,051
-177,242	-68,942	-0,164	-0,045
-176,227	800,000	0,019	0,044
-175,212	800,000	0,031	0,095
-174,198	49,271	-0,020	0,013
-173,183	800,000	0,031	-0,071
-172,169	368,532	0,053	0,078
-171,154	-15,505	-0,031	-0,014
-170,139	7,982	0,102	0,055
-169,125	-51,046	0,056	0,019
-168,110	707,166	-0,033	0,063
-167,096	377,161	-0,083	0,123
-166,081	667,315	-0,032	-0,060
-165,066	-200,000	0,014	-0,081
-164,052	800,000	-0,064	-0,157
-163,037	-13,294	-0,118	-0,055
-162,023	73,687	0,043	0,032
-161,008	-200,000	0,017	0,112
-159,993	-200,000	-0,004	0,078
-158,979	11,167	0,085	0,047
-157,964	-69,990	-0,044	0,012
-156,950	-71,516	-0,137	0,037
-155,935	121,846	-0,042	0,038
-154,920	5,108	0,032	0,017
-153,906	283,096	0,042	0,055
-152,891	-80,632	0,025	0,006
-151,877	800,000	0,014	-0,035
-150,862	-200,000	0,036	-0,153
-149,847	800,000	-0,058	-0,126
-148,833	8,373	0,077	0,042
-147,818	-82,210	0,154	-0,036
-146,804	-200,000	-0,001	0,013
-145,789	1,259	-0,060	-0,031
-144,775	343,859	0,055	0,077
-143,760	277,900	-0,057	0,073
-142,745	31,452	0,052	0,032
-141,731	36,761	0,065	0,041
-140,716	800,000	-0,013	-0,031
-139,702	-154,652	0,110	-0,005
-138,687	-200,000	0,018	0,065
-137,672	-60,674	-0,092	0,028
-136,658	800,000	-0,050	0,125
-135,643	-18,834	0,059	-0,026
-134,629	-77,427	0,118	-0,029
-133,614	-200,000	0,000	0,076
-132,599	800,000	0,038	-0,096
-131,585	-200,000	-0,017	-0,075
-130,570	-87,412	0,022	0,005
-129,556	-200,000	0,008	-0,045
-128,541	48,784	0,127	-0,086
-127,526	249,971	-0,030	0,037
-126,512	-72,461	0,206	0,054
-125,497	-200,000	-0,020	0,091
-124,483	-130,221	0,067	0,007
-123,468	-200,000	0,014	0,083
-122,453	800,000	0,035	-0,073
-121,439	-200,000	0,005	-0,047
-120,424	348,031	-0,069	-0,098
-119,410	800,000	0,035	0,097
-118,395	170,037	-0,046	0,048
-117,380	-200,000	0,000	0,076
-116,366	41,398	0,120	-0,078
-115,351	-45,769	0,078	-0,027
-114,337	46,415	-0,142	-0,094
-113,322	547,887	0,037	0,065
-112,307	60,179	-0,072	-0,051
-111,293	-200,000	0,005	0,081
-110,278	232,619	0,126	0,149
-109,264	153,496	-0,033	-0,032
-108,249	-71,323	-0,097	-0,026
-107,234	-8,737	0,079	-0,038
-106,220	51,669	-0,056	-0,039
-105,205	154,844	0,092	-0,091
-104,191	106,129	0,034	-0,029
-103,176	383,652	0,128	0,190
-102,162	788,925	-0,063	-0,124
-101,147	184,254	0,042	-0,045
-100,132	-200,000	-0,013	-0,129
-99,118	58,945	0,092	0,065
-98,103	171,219	-0,038	-0,040
-97,089	-200,000	-0,009	0,110
-96,074	371,968	-0,035	-0,052
-95,059	-200,000	-0,005	-0,067
-94,045	-200,000	-0,015	-0,130
-93,030	-97,542	-0,113	-0,021
-92,016	29,873	-0,124	-0,076
-91,001	93,338	0,059	0,048
-89,986	-1,863	0,086	-0,043
-88,972	-200,000	-0,015	0,185
-87,957	-200,000	0,013	-0,124
-86,943	523,395	0,037	-0,063
-85,928	116,536	-0,084	-0,074
-84,913	-200,000	0,011	-0,041
-83,899	800,000	0,015	0,037
-82,884	-132,946	0,146	0,013
-81,870	75,771	-0,032	-0,024
-80,855	-131,179	0,126	-0,012
-79,840	800,000	0,036	-0,081
-78,826	-78,437	-0,123	-0,030
-77,811	35,248	-0,042	0,027
-76,797	-38,444	0,107	0,040
-75,782	-30,596	0,100	-0,040
-74,767	-200,000	0,008	0,123
-73,753	800,000	0,011	0,035
-72,738	125,806	0,128	0,116
-71,724	232,674	0,019	-0,022
-70,709	-37,412	-0,062	-0,024
-69,694	-200,000	0,062	-0,237
-68,680	-200,000	-0,003	-0,014
-67,665	155,439	-0,062	0,062
-66,651	-31,207	0,063	0,025
-65,636	229,358	0,033	0,039
-64,622	800,000	-0,039	-0,119
-63,607	15,292	0,086	-0,048
-62,592	-200,000	0,002	-0,175
-61,578	-88,755	0,038	0,008
-60,563	38,369	0,149	-0,095
-59,549	-101,454	-0,087	-0,015
-58,534	-5,124	-1,904	-0,938
-57,519	800,000	-0,325	-0,994
-56,505	-200,000	-1,237	-5,033
-55,490	0,963	0,746	0,383
-54,476	800,000	5,348	12,132
-53,461	-200,000	17,246	283,175
-52,446	800,000	723,923	2222,837
-51,432	540,920	1639,950	2815,766
-50,417	111,386	1631,601	1412,170
-49,403	75,809	1286,204	975,184
-48,388	32,626	1028,033	636,838
-47,373	20,225	989,938	572,325
-46,359	18,643	978,049	560,239
-45,344	16,082	974,132	549,585
-44,330	16,254	972,661	549,295
-43,315	15,812	970,975	546,875
-42,300	15,736	969,884	545,990
-41,286	15,745	968,745	545,359
-40,271	15,750	967,634	544,729
-39,257	15,785	966,761	544,330
-38,242	15,856	965,898	544,053
-37,227	15,781	965,374	543,493
-36,213	15,813	964,400	543,026
-35,198	15,747	963,474	542,270
-34,184	15,861	962,668	542,164
-33,169	15,712	961,772	541,156
-32,154	15,775	960,788	540,784
-31,140	15,794	959,983	540,370
-30,125	15,822	959,238	540,018
-29,111	15,778	958,500	539,440
-28,096	15,821	957,837	539,186
-27,082	15,810	956,959	538,633
-26,067	15,824	956,369	538,324
-25,052	15,760	955,718	537,731
-24,038	15,771	954,864	537,266
-23,023	15,696	954,306	536,689
-22,009	15,781	953,551	536,515
-20,994	15,806	953,013	536,272
-19,979	15,768	952,503	535,841
-18,965	15,825	951,687	535,543
-17,950	15,838	951,157	535,265
-16,936	15,756	950,463	534,593
-15,921	15,738	949,870	534,180
-14,906	15,655	949,168	533,498
-13,892	15,678	948,339	533,083
-12,877	15,630	947,858	532,642
-11,863	15,655	947,239	532,352
-10,848	15,635	946,801	532,020
-9,833	15,740	946,262	532,031
-8,819	15,754	945,599	531,681
-7,804	15,693	945,091	531,179
-6,790	15,627	944,483	530,607
-5,775	15,672	943,817	530,355
-4,760	15,787	943,064	530,274
-3,746	15,642	942,493	529,476
-2,731	15,515	942,038	528,794
-1,717	15,625	941,047	528,568
-0,702	15,547	940,475	527,977
0,313	15,334	939,918	527,787
1,327	18,388	937,539	536,035
2,342	27,107	795,013	477,675
3,356	23,916	458,889	270,814
4,371	-3,168	313,803	156,448
5,386	-7,184	295,602	143,304
6,400	-9,116	289,455	138,397
7,415	-9,561	287,131	136,836
8,429	-9,519	285,474	136,076
9,444	-9,676	284,556	135,474
10,459	-9,613	284,153	135,330
11,473	-9,671	283,444	134,925
12,488	-9,492	282,926	134,839
13,502	-9,732	282,515	134,400
14,517	-9,653	282,033	134,234
15,531	-9,545	281,561	134,102
16,546	-9,785	281,226	133,699
17,561	-9,675	280,875	133,626
18,575	-9,575	280,562	133,561
19,590	-9,643	280,253	133,337
20,604	-9,489	279,920	133,314
21,619	-9,755	279,587	132,889
22,634	-9,538	279,076	132,842
23,648	-9,742	278,704	132,459
24,663	-9,759	278,544	132,355
25,677	-9,654	278,290	132,322
26,692	-9,683	278,120	132,202
27,707	-9,699	277,806	132,025
28,721	-9,706	277,425	131,826
29,736	-9,724	277,260	131,718
30,750	-9,744	276,938	131,535
31,765	-9,563	276,676	131,570
32,780	-9,547	276,442	131,462
33,794	-9,795	276,333	131,165
34,809	-9,648	275,900	131,086
35,823	-9,829	275,789	130,851
36,838	-9,717	275,444	130,781
37,853	-9,634	275,238	130,750
38,867	-9,689	275,026	130,585
39,882	-9,643	274,731	130,477
40,896	-9,664	274,537	130,354
41,911	-9,725	274,179	130,115
42,926	-9,556	273,988	130,171
43,940	-9,826	273,804	129,819
44,955	-9,808	273,597	129,726
45,969	-9,863	273,356	129,549
46,984	-9,834	272,974	129,383
47,999	-9,982	272,739	129,123
49,013	-10,075	272,599	128,959
50,028	-10,225	272,268	128,652
51,042	-10,274	271,969	128,453
52,057	-10,464	271,793	128,182
53,071	-10,265	271,633	128,279
54,086	-10,160	271,372	128,242
55,101	-10,065	271,354	128,310
56,115	-9,887	271,057	128,323
57,130	-9,809	270,852	128,287
58,144	-9,545	270,575	128,387
59,159	-9,559	270,525	128,339
60,174	-9,611	270,304	128,175
61,188	-9,390	269,963	128,205
62,203	-9,617	269,937	127,972
63,217	-9,586	269,726	127,889
64,232	-9,646	269,464	127,699
65,247	-9,453	269,211	127,744
66,261	-9,599	268,947	127,474
67,276	-9,804	268,697	127,157
68,290	-9,785	268,495	127,067
69,305	-9,890	268,220	126,830
70,320	-9,934	268,095	126,719
71,334	-9,832	267,848	126,684
72,349	-9,555	267,678	126,845
73,363	-9,464	267,470	126,818
74,378	-9,401	267,252	126,761
75,393	-9,646	266,983	126,399
76,407	-9,700	266,879	126,289
77,422	-9,415	266,598	126,404
78,436	-9,672	266,270	126,004
79,451	-9,508	266,226	126,121
80,466	-9,826	265,831	125,634
81,480	-9,761	265,704	125,622
82,495	-9,624	265,403	125,592
83,509	-9,778	265,350	125,417
84,524	-9,896	265,181	125,219
85,539	-9,697	264,776	125,196
86,553	-9,792	264,581	125,008
87,568	-9,894	264,486	124,859
88,582	-9,946	264,250	124,691
89,597	-9,754	263,986	124,728
90,611	-9,495	263,922	124,918
91,626	-9,612	263,722	124,707
92,641	-9,500	263,431	124,659
93,655	-9,556	263,201	124,489
94,670	-9,728	263,123	124,287
95,684	-9,673	262,935	124,237
96,699	-9,655	262,671	124,117
97,714	-9,674	262,652	124,080
98,728	-9,850	262,215	123,705
99,743	-9,853	262,121	123,647
100,757	-9,948	261,825	123,412
101,772	-9,606	261,604	123,600
102,787	-9,821	261,558	123,377
103,801	-9,713	261,106	123,249
104,816	-9,807	261,256	123,225
105,830	-9,552	261,042	123,339
106,845	-9,629	260,856	123,172
107,860	-9,694	260,556	122,962
108,874	-9,757	260,341	122,794
109,889	-9,658	260,179	122,794
110,903	-9,648	259,909	122,664
111,918	-9,745	259,758	122,496
112,933	-9,650	259,433	122,416
113,947	-9,755	259,424	122,308
114,962	-9,630	259,206	122,304
115,976	-9,533	259,024	122,294
116,991	-9,535	258,641	122,100
118,006	-9,583	258,667	122,059
119,020	-9,599	258,469	121,941
120,035	-9,564	258,331	121,896
121,049	-9,611	258,153	121,759
122,064	-9,484	257,992	121,783
123,079	-9,779	257,912	121,476
124,093	-9,677	257,636	121,426
125,108	-9,792	257,302	121,157
126,122	-10,017	257,144	120,876
127,137	-9,983	256,815	120,740
128,151	-10,101	256,823	120,630
129,166	-9,737	256,479	120,774
130,181	-9,852	256,306	120,582
131,195	-9,948	255,991	120,340
132,210	-9,940	255,935	120,309
133,224	-9,621	255,736	120,482
134,239	-9,651	255,577	120,370
135,254	-9,224	255,276	120,586
136,268	-9,652	255,107	120,126
137,283	-9,750	254,896	119,932
138,297	-10,120	254,678	119,499
139,312	-9,864	254,420	119,588
140,327	-9,670	254,567	119,813
141,341	-9,613	254,187	119,673
142,356	-9,563	254,180	119,702
143,370	-9,423	254,018	119,735
144,385	-9,395	253,846	119,668
145,400	-9,371	253,572	119,549
146,414	-9,470	253,484	119,411
147,429	-9,475	253,269	119,295
148,443	-9,409	253,059	119,242
149,458	-9,255	252,858	119,268
150,473	-9,384	252,702	119,074
151,487	-9,594	252,459	118,770
152,502	-9,398	252,272	118,838
153,516	-9,451	252,101	118,702
154,531	-9,373	251,853	118,641
155,546	-9,283	251,765	118,666
156,560	-9,394	251,517	118,443
157,575	-9,499	251,295	118,239
158,589	-9,558	251,209	118,138
159,604	-9,442	251,055	118,154
160,619	-9,457	250,775	117,999
161,633	-9,623	250,708	117,816
162,648	-9,203	250,542	118,083
163,662	-9,681	250,440	117,620
164,677	-9,418	250,324	117,777
165,692	-9,385	250,135	117,706
166,706	-9,482	250,078	117,587
167,721	-9,486	249,800	117,442
168,735	-9,351	249,563	117,434
169,750	-9,313	249,301	117,332
170,764	-9,375	249,180	117,212
171,779	-9,318	249,154	117,238
172,794	-9,288	248,962	117,163
173,808	-9,544	248,680	116,805
174,823	-9,688	248,379	116,532
175,837	-9,954	248,309	116,266
176,852	-9,705	248,235	116,429
177,867	-9,351	247,999	116,604
178,881	-9,352	247,914	116,553
179,896	-9,185	247,548	116,510
180,910	-9,273	247,499	116,404
181,925	-9,468	247,348	116,159
182,940	-9,296	247,129	116,189
183,954	-9,378	246,964	116,033
184,969	-9,335	246,783	115,973
185,983	-9,393	246,716	115,884
186,998	-9,250	246,444	115,864
188,013	-9,303	246,341	115,761
189,027	-9,434	246,187	115,570
190,042	-9,361	245,885	115,478
191,056	-9,483	245,866	115,359
192,071	-9,424	245,778	115,356
193,086	-9,297	245,420	115,283
194,100	-9,452	245,257	115,067
195,115	-9,347	245,116	115,078
196,129	-9,467	244,890	114,863
197,144	-9,415	244,864	114,883
198,159	-9,448	244,601	114,722
199,173	-9,387	244,402	114,669
200,188	-9,455	244,300	114,554
201,202	-9,547	243,823	114,245
202,217	-9,995	243,747	113,832
203,232	-9,811	243,354	113,789
204,246	-9,692	243,487	113,938
205,261	-9,203	243,221	114,204
206,275	-10,357	242,825	113,065
207,290	-7,204	244,002	116,190
208,304	-0,471	246,244	122,810
209,319	2,670	247,173	125,858
210,334	3,380	246,973	126,331
211,348	3,470	246,953	126,383
212,363	3,676	246,914	126,523
213,377	3,716	246,912	126,542
214,392	3,545	246,701	126,283
215,407	3,515	246,511	126,150
216,421	3,498	246,290	126,011
217,436	3,835	246,243	126,253
218,450	3,902	246,056	126,201
219,465	3,463	245,689	125,641
220,480	3,468	245,734	125,658
221,494	3,338	245,441	125,389
222,509	3,433	245,403	125,436
223,523	3,496	244,932	125,236
224,538	3,068	244,885	124,852
225,553	3,290	244,540	124,846
226,567	3,190	244,553	124,760
227,582	3,236	244,416	124,716
228,596	3,602	244,226	124,906
229,611	3,079	244,030	124,369
230,626	2,914	243,887	124,151
231,640	3,155	243,702	124,242
232,655	3,242	243,671	124,285
233,669	3,173	243,401	124,081
234,684	3,133	243,134	123,901
235,699	3,439	243,273	124,209
236,713	3,597	243,118	124,247
237,728	3,350	242,738	123,842
238,742	3,164	242,487	123,552
239,757	3,092	242,468	123,474
240,772	3,250	242,183	123,445
241,786	3,090	242,280	123,354
242,801	2,888	242,062	123,069
243,815	2,990	241,865	123,041
244,830	3,277	241,669	123,161
245,844	3,357	241,528	123,142
246,859	3,139	241,346	122,863
247,874	3,191	241,238	122,839
248,888	3,118	241,058	122,678
249,903	3,262	240,971	122,738
250,917	3,454	240,790	122,789
251,932	3,356	240,868	122,739
252,947	3,586	240,391	122,669
253,961	3,313	240,241	122,363
254,976	3,195	240,208	122,241
255,990	3,479	239,894	122,297
257,005	3,336	239,758	122,103
258,020	3,085	239,574	121,798
259,034	3,086	239,442	121,721
260,049	3,309	239,292	121,811
261,063	3,091	239,332	121,648
262,078	3,111	238,906	121,436
263,093	3,362	238,784	121,562
264,107	3,410	238,753	121,574
265,122	3,243	238,647	121,377
266,136	3,145	238,496	121,212
267,151	3,597	238,402	121,511
268,166	3,284	237,993	121,044
269,180	2,963	238,015	120,790
270,195	3,519	238,031	121,227
271,209	3,725	237,856	121,290
272,224	3,358	237,382	120,748
273,239	2,850	237,247	120,269
274,253	3,025	237,209	120,376
275,268	2,976	237,124	120,284
276,282	3,340	236,914	120,453
277,297	3,034	236,783	120,135
278,312	3,129	236,658	120,136
279,326	3,252	236,505	120,144
280,341	3,237	236,297	120,016
281,355	3,297	236,183	119,994
282,370	3,624	235,918	120,105
283,384	3,330	235,893	119,851
284,399	3,191	235,569	119,568
285,414	2,891	235,510	119,292
286,428	3,342	235,400	119,578
287,443	3,006	235,313	119,261
288,457	3,471	234,922	119,415
289,472	3,534	234,902	119,443
290,487	3,336	234,907	119,281
291,501	3,020	234,549	118,842
292,516	2,977	234,327	118,686
293,530	2,885	234,265	118,573
294,545	3,387	234,255	118,947
295,560	3,310	234,103	118,799
296,574	2,876	233,803	118,300
297,589	2,996	233,779	118,371
298,603	3,465	233,724	118,695
299,618	3,286	233,728	118,548
300,633	3,372	233,536	118,506
301,647	3,789	233,312	118,704
302,662	3,766	233,220	118,630
303,676	3,798	233,103	118,584
304,691	3,562	232,997	118,338
305,706	3,524	232,867	118,232
306,720	3,627	232,578	118,153
307,735	3,483	232,297	117,889
308,749	3,284	232,294	117,725
309,764	3,225	232,111	117,576
310,779	2,924	231,775	117,164
311,793	2,993	231,678	117,158
312,808	3,166	231,365	117,122
313,822	2,853	231,274	116,825
314,837	3,018	231,120	116,863
315,852	3,018	231,037	116,811
316,866	3,172	231,057	116,928
317,881	3,444	230,819	117,005
318,895	3,634	230,846	117,154
319,910	3,694	230,680	117,104
320,925	3,492	230,383	116,789
321,939	3,125	230,159	116,386
322,954	3,438	230,117	116,593
323,968	3,130	229,949	116,263
324,983	3,108	229,763	116,141
325,997	2,968	229,552	115,918
327,012	3,415	229,566	116,255
328,027	3,577	229,335	116,250
329,041	3,641	229,427	116,334
330,056	4,170	229,324	116,673
331,070	3,837	229,182	116,338
332,085	3,467	228,578	115,742
333,100	3,525	228,481	115,726
334,114	3,692	228,568	115,886
335,129	3,879	228,339	115,900
336,143	3,611	228,268	115,652
337,158	3,510	228,094	115,478
338,173	3,605	228,015	115,499
339,187	3,492	227,942	115,366
340,202	3,734	227,874	115,504
341,216	3,606	227,627	115,272
342,231	3,391	227,362	114,967
343,246	3,613	227,159	115,020
344,260	3,652	227,121	115,020
345,275	3,637	227,119	114,997
346,289	3,805	226,990	115,048
347,304	3,705	226,687	114,809
348,319	3,766	226,574	114,787
349,333	3,477	226,465	114,506
350,348	3,496	226,213	114,382
351,362	3,643	226,037	114,393
352,377	3,575	225,838	114,231
353,392	3,371	225,608	113,952
354,406	3,359	225,574	113,916
355,421	193,759	1324,995	1397,006
356,435	155,208	1458,941	1396,997
