DTS Sentinel unit serial number:	SN410029Multiplexer serial number:	ORYXHardware model number:	OX2-SRSoftware version number:	ORYX F/W v4,00 Oryx Data Collector v3.7.2.0data status	okinstallation	B5 Nyhavnadifferential loss correction	single-endedforward channel	channel 2reverse channel	N/Adate	2023/12/11time	20:57:13forward acquisition time	300,00reverse acquisition time	0,00gamma	499,1914k internal	0,3157k external	0,3157temperature offset calibration	1,0000default loss term (dB/km)	0,3820temperature slope calibration	1,0000multiplexer offset coefficient	1,0000multiplexer slope coefficient	1,0000fibre end	0,00T internal ref (°C)	16,12T ext. ref 1 (°C)	0,25T ext. ref 2 (°C)	-0,01length (m)	temperature (°C)	Stokes	anti-Stokes-744,400	800,000	0,014	-0,039
-743,385	-6,283	-0,230	0,115
-742,371	800,000	-0,001	-0,003
-741,356	-97,592	-0,105	0,020
-740,342	800,000	0,073	0,187
-739,327	-111,355	-0,468	0,070
-738,312	-18,631	-0,042	0,019
-737,298	-112,176	-0,341	-0,050
-736,283	-200,000	-0,008	0,080
-735,269	33,159	-0,239	0,153
-734,254	143,621	0,030	0,029
-733,239	-0,148	-0,490	-0,256
-732,225	48,738	0,076	0,052
-731,210	151,313	0,080	-0,080
-730,196	800,000	0,038	-0,084
-729,181	800,000	-0,037	0,107
-728,167	41,705	-0,082	-0,055
-727,152	122,079	-0,015	0,014
-726,137	-65,345	-0,172	-0,051
-725,123	-200,000	0,008	-0,055
-724,108	-200,000	-0,018	-0,084
-723,094	380,711	-0,097	-0,147
-722,079	369,452	0,011	-0,017
-721,064	-48,086	-0,082	-0,029
-720,050	439,425	0,066	0,106
-719,035	29,174	-0,058	0,036
-718,021	115,805	0,096	-0,086
-717,006	19,041	-0,132	0,078
-715,991	-51,785	0,008	-0,003
-714,977	-51,181	-0,099	-0,034
-713,962	-148,981	-0,072	0,004
-712,948	339,442	0,021	0,031
-711,933	5,158	-0,154	0,083
-710,918	71,986	0,083	0,063
-709,904	800,000	-0,029	-0,086
-708,889	63,421	0,006	-0,004
-707,875	-200,000	-0,005	-0,076
-706,860	-43,040	0,059	0,022
-705,845	-200,000	0,004	-0,043
-704,831	687,686	0,069	0,133
-703,816	29,667	-0,092	0,058
-702,802	-68,543	-0,087	-0,025
-701,787	800,000	0,037	-0,115
-700,772	-200,000	-0,024	-0,107
-699,758	499,468	-0,057	0,097
-698,743	-11,298	0,147	0,071
-697,729	-200,000	0,048	0,161
-696,714	-200,000	-0,023	-0,076
-695,699	279,420	-0,015	-0,020
-694,685	152,681	-0,071	0,072
-693,670	-130,236	0,088	-0,009
-692,656	-200,000	0,007	-0,100
-691,641	-49,475	-0,041	0,014
-690,627	-157,588	-0,189	-0,008
-689,612	-200,000	-0,012	0,137
-688,597	-200,000	-0,005	-0,117
-687,583	-16,710	-0,051	0,024
-686,568	800,000	-0,031	-0,064
-685,554	288,802	-0,064	-0,086
-684,539	354,884	0,039	0,058
-683,524	20,058	0,175	0,103
-682,510	50,789	-0,106	0,074
-681,495	-200,000	0,047	-0,181
-680,481	34,060	0,052	-0,034
-679,466	52,898	0,066	-0,047
-678,451	8,552	0,060	-0,033
-677,437	147,877	0,039	0,039
-676,422	-151,548	0,220	0,012
-675,408	-144,416	-0,027	0,002
-674,393	5,447	-0,054	0,029
-673,378	654,624	0,023	-0,044
-672,364	-200,000	-0,007	-0,061
-671,349	484,799	0,050	-0,084
-670,335	53,860	-0,083	-0,058
-669,320	0,256	0,060	-0,031
-668,305	800,000	-0,033	0,083
-667,291	348,267	0,039	0,056
-666,276	-200,000	-0,005	-0,039
-665,262	-103,692	-0,070	-0,012
-664,247	305,088	0,067	0,092
-663,232	800,000	-0,048	0,119
-662,218	-10,449	-0,164	0,079
-661,203	-115,429	0,026	-0,004
-660,189	259,412	-0,045	-0,058
-659,174	31,485	-0,093	0,059
-658,159	60,897	-0,070	-0,051
-657,145	43,884	-0,066	-0,044
-656,130	-138,938	0,070	-0,005
-655,116	800,000	-0,057	-0,162
-654,101	214,198	0,066	-0,077
-653,086	77,050	-0,134	-0,105
-652,072	391,851	-0,038	0,058
-651,057	106,179	-0,061	-0,053
-650,043	513,426	-0,021	-0,037
-649,028	800,000	0,075	-0,201
-648,014	400,423	0,039	-0,060
-646,999	49,282	0,040	0,027
-645,984	53,796	-0,076	0,053
-644,970	-30,165	-0,011	-0,005
-643,955	-40,041	-0,116	-0,044
-642,941	800,000	0,028	-0,075
-641,926	232,160	0,067	0,081
-640,911	-54,036	0,046	-0,015
-639,897	-81,403	0,048	-0,012
-638,882	685,301	-0,055	0,106
-637,868	161,772	-0,077	-0,079
-636,853	-200,000	-0,007	0,042
-635,838	155,434	-0,127	-0,129
-634,824	10,655	0,037	-0,020
-633,809	243,377	-0,024	0,029
-632,795	-37,885	0,154	0,060
-631,780	-200,000	0,003	-0,074
-630,765	-148,986	-0,043	-0,002
-629,751	-200,000	-0,011	0,080
-628,736	-200,000	-0,007	-0,064
-627,722	800,000	-0,043	-0,093
-626,707	-17,343	-0,063	-0,029
-625,692	-200,000	0,037	0,146
-624,678	62,588	0,119	0,087
-623,663	-16,403	0,118	0,055
-622,649	54,367	-0,125	0,088
-621,634	666,204	-0,043	0,082
-620,619	-123,449	-0,143	-0,017
-619,605	17,176	0,067	-0,039
-618,590	181,033	0,026	0,028
-617,576	43,237	-0,101	-0,067
-616,561	-85,060	-0,141	-0,032
-615,546	-12,326	-0,016	0,008
-614,532	362,468	0,044	-0,065
-613,517	27,182	-0,090	0,055
-612,503	-200,000	0,007	0,067
-611,488	-115,939	-0,068	-0,009
-610,474	7,936	-0,060	0,033
-609,459	97,576	0,059	0,050
-608,444	-200,000	-0,005	0,026
-607,430	800,000	-0,030	-0,072
-606,415	-200,000	0,006	0,146
-605,401	75,416	0,119	0,092
-604,386	668,759	0,034	0,065
-603,371	161,257	0,008	-0,008
-602,357	-157,687	-0,141	0,006
-601,342	800,000	0,026	-0,082
-600,328	110,727	-0,063	-0,056
-599,313	-4,359	-0,044	0,022
-598,298	-200,000	-0,001	-0,170
-597,284	222,572	0,101	0,120
-596,269	-200,000	-0,022	0,175
-595,255	50,160	0,087	-0,060
-594,240	179,190	-0,039	-0,042
-593,225	-70,336	-0,028	-0,008
-592,211	98,844	0,153	0,129
-591,196	-104,988	0,115	-0,019
-590,182	-148,516	0,066	0,004
-589,167	-200,000	0,006	0,130
-588,152	-200,000	0,022	-0,121
-587,138	176,759	-0,054	-0,058
-586,123	800,000	0,035	0,085
-585,109	111,244	-0,142	-0,125
-584,094	-200,000	-0,003	-0,131
-583,079	-200,000	0,005	0,089
-582,065	-200,000	0,014	0,062
-581,050	-200,000	-0,006	0,042
-580,036	153,028	0,008	0,008
-579,021	-22,676	0,081	0,036
-578,006	11,355	-0,183	0,102
-576,992	196,996	-0,056	-0,063
-575,977	26,389	0,030	0,018
-574,963	290,452	0,088	0,118
-573,948	91,724	-0,089	0,073
-572,934	207,819	-0,022	0,025
-571,919	-56,209	-0,091	-0,030
-570,904	-74,348	-0,118	-0,031
-569,890	-27,666	-0,139	-0,059
-568,875	-127,451	-0,092	0,010
-567,861	228,211	-0,066	0,079
-566,846	-9,375	-0,041	-0,020
-565,831	-117,580	-0,059	0,008
-564,817	415,617	0,033	-0,052
-563,802	800,000	0,044	-0,133
-562,788	-200,000	0,002	0,010
-561,773	-116,797	-0,099	0,013
-560,758	250,369	-0,087	-0,109
-559,744	-61,469	-0,105	0,032
-558,729	115,721	0,138	0,123
-557,715	800,000	0,096	-0,200
-556,700	345,710	0,070	-0,101
-555,685	-103,254	-0,057	-0,010
-554,671	-200,000	0,001	0,034
-553,656	-158,722	0,060	0,002
-552,642	791,430	-0,086	-0,174
-551,627	-33,380	-0,178	-0,072
-550,612	-21,749	0,114	-0,051
-549,598	-200,000	-0,019	0,132
-548,583	-200,000	-0,019	-0,064
-547,569	-85,855	-0,183	-0,041
-546,554	106,071	0,047	0,041
-545,539	-29,479	0,077	0,032
-544,525	159,841	-0,060	0,061
-543,510	-85,354	0,103	0,023
-542,496	-67,398	-0,133	-0,038
-541,481	800,000	0,024	-0,075
-540,466	800,000	0,051	-0,108
-539,452	697,921	0,027	-0,053
-538,437	245,961	0,080	-0,098
-537,423	-200,000	0,001	0,053
-536,408	-16,603	0,040	0,018
-535,393	-78,503	0,020	0,005
-534,379	-200,000	-0,003	0,075
-533,364	800,000	-0,041	-0,089
-532,350	409,382	0,055	0,086
-531,335	-200,000	0,003	0,112
-530,321	800,000	-0,018	0,043
-529,306	-59,474	-0,152	0,048
-528,291	800,000	-0,035	0,081
-527,277	-160,599	0,053	0,002
-526,262	438,114	-0,036	0,058
-525,248	-9,466	0,045	-0,022
-524,233	-200,000	-0,009	-0,055
-523,218	-139,565	0,091	0,007
-522,204	643,931	0,042	-0,079
-521,189	-172,889	-0,053	0,001
-520,175	800,000	0,050	-0,131
-519,160	77,564	-0,080	-0,062
-518,145	460,780	-0,038	0,062
-517,131	12,776	0,144	-0,081
-516,116	-200,000	-0,013	-0,168
-515,102	-200,000	0,028	0,129
-514,087	-200,000	0,012	0,057
-513,072	119,701	-0,097	-0,088
-512,058	97,386	-0,009	-0,008
-511,043	-174,425	0,094	0,002
-510,029	-99,453	0,086	-0,016
-509,014	50,914	0,023	-0,016
-507,999	304,771	-0,114	0,155
-506,985	-156,656	-0,065	0,003
-505,970	284,897	-0,023	-0,030
-504,956	212,033	0,016	-0,018
-503,941	34,034	-0,030	-0,019
-502,926	800,000	-0,017	0,054
-501,912	-200,000	0,005	0,202
-500,897	-200,000	0,010	-0,062
-499,883	-200,000	-0,015	-0,062
-498,868	-139,321	-0,099	0,008
-497,853	751,224	0,045	-0,089
-496,839	416,334	0,050	-0,079
-495,824	665,039	0,026	-0,050
-494,810	349,791	0,057	-0,082
-493,795	-200,000	-0,005	-0,048
-492,781	-100,526	-0,117	-0,021
-491,766	-200,000	0,007	-0,140
-490,751	3,051	-0,084	-0,044
-489,737	289,670	-0,055	-0,072
-488,722	-36,919	0,151	0,059
-487,708	-81,000	0,066	0,016
-486,693	800,000	-0,028	0,062
-485,678	-158,680	-0,091	-0,004
-484,664	69,700	0,046	0,034
-483,649	-110,237	-0,133	0,020
-482,635	-95,907	-0,047	-0,009
-481,620	-22,321	-0,081	0,036
-480,605	206,025	0,069	0,078
-479,591	-122,287	0,034	-0,004
-478,576	-200,000	0,023	0,075
-477,562	800,000	-0,023	-0,060
-476,547	-26,447	-0,039	0,017
-475,532	51,120	-0,026	0,018
-474,518	11,360	0,101	0,056
-473,503	-200,000	-0,000	0,013
-472,489	-200,000	0,001	-0,033
-471,474	-148,026	0,069	0,004
-470,459	-200,000	0,008	0,029
-469,445	-200,000	0,014	-0,075
-468,430	-200,000	-0,049	0,176
-467,416	800,000	-0,013	0,034
-466,401	159,908	0,033	0,034
-465,386	-200,000	0,014	0,171
-464,372	-103,667	0,108	-0,018
-463,357	735,193	0,017	-0,034
-462,343	236,489	-0,087	0,105
-461,328	29,884	0,140	0,087
-460,313	49,906	-0,050	0,035
-459,299	262,501	-0,043	0,054
-458,284	-200,000	0,009	0,051
-457,270	-145,365	-0,068	-0,004
-456,255	800,000	-0,075	-0,153
-455,241	-200,000	-0,020	0,099
-454,226	153,122	-0,065	-0,065
-453,211	-10,578	-0,061	-0,029
-452,197	106,505	-0,065	-0,056
-451,182	-200,000	0,022	0,103
-450,168	-129,775	-0,089	0,009
-449,153	800,000	-0,015	-0,039
-448,138	25,546	0,125	-0,076
-447,124	-200,000	0,011	0,046
-446,109	321,254	0,025	-0,035
-445,095	-173,885	-0,083	0,002
-444,080	57,007	0,069	-0,049
-443,065	396,312	-0,022	-0,034
-442,051	-30,873	-0,046	-0,019
-441,036	-200,000	-0,013	-0,081
-440,022	15,824	-0,179	-0,102
-439,007	154,963	0,149	0,149
-437,992	-200,000	0,006	0,083
-436,978	-74,382	0,044	-0,012
-435,963	-136,447	0,042	-0,003
-434,949	65,773	0,027	-0,020
-433,934	-82,431	-0,103	-0,024
-432,919	-38,770	0,103	0,039
-431,905	72,729	-0,038	-0,029
-430,890	7,162	-0,129	-0,070
-429,876	-18,982	0,098	0,044
-428,861	-200,000	-0,024	-0,083
-427,846	-163,882	0,088	-0,003
-426,832	197,574	-0,115	-0,128
-425,817	86,154	0,057	-0,046
-424,803	6,320	-0,131	-0,071
-423,788	692,023	0,032	0,061
-422,773	-89,110	0,064	-0,014
-421,759	-152,537	-0,088	0,005
-420,744	-74,658	0,054	-0,014
-419,730	-43,536	0,155	-0,057
-418,715	340,137	-0,024	0,034
-417,701	-200,000	-0,003	0,062
-416,686	-127,714	-0,158	0,016
-415,671	-54,817	0,070	0,023
-414,657	140,856	-0,092	0,088
-413,642	-50,707	0,078	0,026
-412,628	-200,000	-0,019	-0,062
-411,613	-174,037	-0,104	-0,002
-410,598	-200,000	-0,001	0,041
-409,584	800,000	-0,031	0,077
-408,569	-70,578	-0,132	0,036
-407,555	220,262	0,116	0,135
-406,540	198,175	-0,055	0,061
-405,525	-200,000	-0,006	-0,050
-404,511	-148,881	-0,109	0,006
-403,496	-159,753	-0,115	0,005
-402,482	-200,000	-0,014	-0,123
-401,467	-130,420	0,105	0,010
-400,452	800,000	-0,048	-0,128
-399,438	-200,000	-0,006	0,086
-398,423	800,000	0,063	0,127
-397,409	69,154	0,130	-0,097
-396,394	-200,000	0,003	0,019
-395,379	134,531	0,082	0,078
-394,365	128,607	-0,140	0,130
-393,350	-77,449	0,042	0,011
-392,336	-22,001	-0,041	0,018
-391,321	295,041	0,039	-0,052
-390,306	-200,000	-0,007	0,054
-389,292	60,041	-0,111	0,079
-388,277	-200,000	-0,034	-0,123
-387,263	185,629	0,144	-0,155
-386,248	-56,722	0,116	-0,037
-385,233	54,227	0,079	0,055
-384,219	800,000	0,039	-0,111
-383,204	203,070	0,110	-0,124
-382,190	590,018	-0,029	-0,053
-381,175	547,365	0,065	-0,113
-380,160	490,422	-0,047	-0,078
-379,146	15,057	-0,049	-0,028
-378,131	-200,000	-0,038	0,142
-377,117	126,152	-0,085	0,078
-376,102	156,994	0,017	-0,017
-375,088	-165,723	-0,186	-0,006
-374,073	3,233	0,055	-0,029
-373,058	194,699	-0,059	-0,065
-372,044	-200,000	0,011	-0,084
-371,029	800,000	0,021	0,047
-370,015	12,396	-0,067	0,037
-369,000	-75,488	-0,097	-0,025
-367,985	189,559	0,023	0,025
-366,971	47,784	-0,122	-0,082
-365,956	205,432	0,024	0,027
-364,942	33,475	0,100	-0,063
-363,927	800,000	0,044	0,121
-362,912	-144,618	-0,071	-0,005
-361,898	11,520	0,045	-0,025
-360,883	-16,683	-0,057	-0,026
-359,869	28,926	-0,039	0,024
-358,854	677,121	0,016	-0,030
-357,839	-102,020	0,068	0,012
-356,825	486,624	-0,010	-0,017
-355,810	-200,000	-0,012	0,069
-354,796	-72,900	-0,068	0,018
-353,781	-54,960	-0,128	0,042
-352,766	153,841	0,131	0,130
-351,752	800,000	0,047	-0,127
-350,737	-75,896	0,025	-0,006
-349,723	-200,000	0,025	0,093
-348,708	-20,491	-0,151	0,067
-347,693	-133,959	0,059	-0,005
-346,679	-42,987	-0,088	-0,032
-345,664	-200,000	-0,003	-0,091
-344,650	-200,000	-0,010	-0,061
-343,635	594,372	-0,031	0,056
-342,620	800,000	-0,041	0,108
-341,606	-17,802	0,122	-0,055
-340,591	-200,000	0,027	-0,140
-339,577	800,000	-0,031	-0,074
-338,562	-200,000	0,006	-0,047
-337,548	-25,626	-0,075	-0,032
-336,533	414,966	0,068	0,106
-335,518	127,115	-0,058	0,054
-334,504	-67,210	0,124	-0,035
-333,489	51,658	0,056	-0,038
-332,475	16,589	0,142	0,081
-331,460	354,659	-0,039	-0,057
-330,445	51,349	0,060	0,041
-329,431	-200,000	0,024	0,124
-328,416	42,626	0,063	-0,042
-327,402	-200,000	0,019	-0,066
-326,387	77,667	0,088	0,068
-325,372	800,000	0,033	0,083
-324,358	538,743	-0,054	0,094
-323,343	-80,024	0,076	0,018
-322,329	577,929	-0,054	0,096
-321,314	319,239	-0,087	0,120
-320,299	423,251	-0,119	0,187
-319,285	-24,972	0,161	-0,069
-318,270	800,000	-0,068	-0,167
-317,256	128,832	0,094	-0,087
-316,241	511,260	0,041	-0,070
-315,226	13,429	-0,121	0,068
-314,212	64,691	0,070	0,051
-313,197	-125,523	0,193	0,021
-312,183	-57,798	0,100	-0,032
-311,168	40,111	-0,050	0,033
-310,153	89,483	0,018	0,014
-309,139	51,116	-0,053	0,037
-308,124	-200,000	0,003	-0,105
-307,110	-112,517	0,156	-0,022
-306,095	-84,225	0,082	-0,019
-305,080	362,529	0,048	0,070
-304,066	-200,000	0,002	-0,071
-303,051	143,791	-0,021	-0,020
-302,037	-200,000	0,009	0,051
-301,022	-200,000	-0,017	-0,116
-300,008	60,317	0,040	0,029
-298,993	-200,000	-0,001	0,070
-297,978	9,167	-0,047	-0,026
-296,964	116,941	0,033	0,029
-295,949	153,040	-0,106	-0,105
-294,935	32,642	-0,170	-0,107
-293,920	26,050	-0,087	-0,052
-292,905	-98,751	0,096	0,018
-291,891	227,643	-0,050	-0,059
-290,876	197,078	-0,020	0,023
-289,862	-200,000	0,004	0,035
-288,847	-200,000	-0,020	-0,064
-287,832	619,034	-0,031	-0,057
-286,818	44,886	0,017	-0,011
-285,803	800,000	0,026	0,053
-284,789	-56,201	0,069	0,022
-283,774	800,000	-0,078	0,162
-282,759	406,032	0,062	0,095
-281,745	178,563	0,032	-0,034
-280,730	-200,000	-0,032	-0,118
-279,716	322,353	0,092	-0,128
-278,701	407,577	0,036	0,056
-277,686	-100,963	-0,031	-0,006
-276,672	37,220	-0,011	-0,007
-275,657	800,000	0,020	-0,060
-274,643	779,790	-0,058	-0,115
-273,628	-200,000	-0,002	-0,032
-272,613	25,248	0,089	0,054
-271,599	-26,205	-0,066	-0,028
-270,584	-200,000	-0,026	0,111
-269,570	40,353	0,077	-0,050
-268,555	244,048	-0,047	0,057
-267,540	-67,303	0,081	-0,023
-266,526	18,556	0,061	-0,035
-265,511	-196,889	0,097	-0,000
-264,497	-200,000	0,009	0,114
-263,482	273,135	-0,010	-0,013
-262,467	-153,778	0,117	-0,006
-261,453	670,318	-0,038	-0,072
-260,438	94,892	0,017	0,014
-259,424	-18,756	-0,045	-0,020
-258,409	89,094	-0,024	0,019
-257,395	-200,000	0,003	0,142
-256,380	-200,000	-0,011	-0,078
-255,365	76,310	-0,067	-0,051
-254,351	-200,000	0,005	-0,098
-253,336	312,319	0,038	-0,051
-252,322	-93,713	0,107	-0,021
-251,307	145,128	0,114	-0,110
-250,292	800,000	-0,029	-0,091
-249,278	-200,000	-0,010	0,075
-248,263	-200,000	0,009	0,185
-247,249	800,000	-0,032	0,076
-246,234	-130,798	-0,079	-0,008
-245,219	29,515	-0,098	-0,060
-244,205	-200,000	0,002	-0,077
-243,190	-200,000	-0,016	-0,133
-242,176	52,871	0,051	-0,035
-241,161	125,466	0,070	-0,064
-240,146	-59,128	-0,058	-0,018
-239,132	-200,000	0,010	0,075
-238,117	-200,000	-0,000	0,125
-237,103	58,665	0,087	-0,062
-236,088	-200,000	0,018	-0,111
-235,073	-200,000	0,002	-0,024
-234,059	-200,000	0,015	0,054
-233,044	630,536	0,029	0,054
-232,030	155,089	-0,049	-0,049
-231,015	-51,898	0,025	-0,008
-230,000	-94,487	-0,125	0,024
-228,986	800,000	0,035	-0,079
-227,971	-26,885	0,133	-0,056
-226,957	-121,089	-0,154	-0,018
-225,942	800,000	0,048	0,134
-224,927	783,146	0,063	0,124
-223,913	-66,686	-0,012	-0,004
-222,898	-200,000	0,009	0,082
-221,884	-200,000	-0,004	-0,119
-220,869	722,525	-0,049	0,094
-219,855	-21,776	0,183	-0,080
-218,840	-200,000	-0,035	0,118
-217,825	306,780	0,051	-0,069
-216,811	800,000	-0,036	0,080
-215,796	-46,235	-0,133	-0,047
-214,782	302,055	-0,052	-0,070
-213,767	-200,000	0,002	-0,066
-212,752	128,315	-0,113	0,104
-211,738	-86,291	0,030	0,007
-210,723	800,000	0,028	0,081
-209,709	-38,299	-0,050	0,019
-208,694	647,562	0,018	0,034
-207,679	-200,000	0,022	-0,094
-206,665	800,000	0,038	-0,119
-205,650	206,029	0,038	0,042
-204,636	-200,000	-0,000	-0,018
-203,621	667,730	-0,062	0,117
-202,606	-177,982	0,091	-0,002
-201,592	151,968	-0,068	-0,067
-200,577	113,053	0,031	0,027
-199,563	23,804	-0,038	-0,023
-198,548	50,299	-0,023	0,016
-197,533	800,000	-0,039	0,087
-196,519	800,000	-0,033	0,086
-195,504	314,494	-0,035	0,047
-194,490	-137,278	0,055	0,004
-193,475	-200,000	-0,001	-0,005
-192,460	156,783	0,076	-0,076
-191,446	-5,130	0,127	0,063
-190,431	-133,811	0,211	0,019
-189,417	167,920	-0,038	-0,039
-188,402	800,000	-0,060	0,153
-187,387	1,049	0,040	-0,020
-186,373	12,449	-0,022	0,012
-185,358	-200,000	-0,006	-0,070
-184,344	-200,000	0,020	0,073
-183,329	-200,000	0,007	0,144
-182,315	-16,156	0,050	0,023
-181,300	-200,000	-0,021	-0,073
-180,285	-109,114	0,066	0,010
-179,271	663,759	-0,014	0,026
-178,256	-116,619	0,068	-0,009
-177,242	351,143	-0,026	-0,037
-176,227	-200,000	0,011	-0,055
-175,212	-81,795	0,029	0,007
-174,198	588,575	-0,031	-0,056
-173,183	-142,312	-0,134	0,009
-172,169	-200,000	0,007	-0,141
-171,154	-200,000	-0,003	-0,031
-170,139	661,883	0,049	-0,091
-169,125	800,000	0,057	0,124
-168,110	352,312	0,067	0,096
-167,096	95,076	0,094	-0,077
-166,081	-35,319	-0,119	0,047
-165,066	-14,436	0,090	0,042
-164,052	49,779	-0,120	0,082
-163,037	76,225	0,139	-0,106
-162,023	-200,000	0,014	0,087
-161,008	-71,119	0,160	0,043
-159,993	106,783	0,020	-0,017
-158,979	-105,051	0,007	0,001
-157,964	800,000	-0,024	-0,071
-156,950	392,440	-0,128	0,193
-155,935	-45,748	0,170	-0,060
-154,920	-86,114	0,046	0,010
-153,906	800,000	-0,050	-0,100
-152,891	118,052	0,160	0,142
-151,877	-200,000	0,021	0,177
-150,862	102,835	0,060	-0,051
-149,847	-61,600	-0,098	0,029
-148,833	-162,327	0,024	-0,001
-147,818	11,067	-0,065	0,036
-146,804	-99,047	0,036	-0,007
-145,789	-200,000	-0,027	-0,127
-144,775	-200,000	0,031	-0,194
-143,760	527,177	0,048	-0,081
-142,745	-83,934	-0,034	-0,008
-141,731	-104,867	-0,024	0,004
-140,716	-200,000	-0,003	-0,038
-139,702	800,000	0,042	0,121
-138,687	650,093	0,026	0,048
-137,672	-200,000	0,001	0,063
-136,658	-134,558	0,091	-0,008
-135,643	6,202	-0,117	0,063
-134,629	134,760	0,056	0,052
-133,614	479,946	-0,078	-0,127
-132,599	64,251	0,076	-0,055
-131,585	-200,000	-0,008	0,064
-130,570	491,635	-0,045	0,075
-129,556	-139,856	-0,215	0,016
-128,541	-9,641	0,114	0,054
-127,526	-70,974	-0,051	0,014
-126,512	-200,000	-0,041	-0,131
-125,497	65,281	0,070	0,051
-124,483	-55,787	-0,035	0,011
-123,468	110,518	0,028	-0,025
-122,453	129,532	-0,023	-0,022
-121,439	800,000	-0,032	-0,091
-120,424	800,000	-0,069	0,141
-119,410	-51,067	0,089	-0,030
-118,395	185,996	0,070	-0,075
-117,380	31,158	0,068	0,042
-116,366	-185,244	0,027	-0,000
-115,351	-181,157	0,039	-0,001
-114,337	-200,000	-0,011	-0,104
-113,322	254,422	0,054	-0,067
-112,307	442,193	0,046	-0,073
-111,293	146,780	0,042	-0,040
-110,278	-200,000	0,012	0,138
-109,264	33,298	0,137	0,085
-108,249	273,307	-0,069	0,088
-107,234	473,388	0,049	-0,080
-106,220	103,094	-0,021	-0,018
-105,205	800,000	-0,067	0,144
-104,191	103,563	0,033	0,028
-103,176	-200,000	-0,006	-0,052
-102,162	61,315	-0,106	-0,076
-101,147	436,055	-0,043	-0,068
-100,132	569,695	-0,060	0,106
-99,118	335,670	0,080	-0,112
-98,103	-200,000	-0,004	0,029
-97,089	177,219	-0,015	-0,016
-96,074	-65,782	0,109	0,031
-95,059	800,000	-0,039	-0,106
-94,045	-44,750	-0,065	0,023
-93,030	100,618	0,011	0,009
-92,016	800,000	0,035	0,078
-91,001	-200,000	-0,006	0,110
-89,986	800,000	0,057	0,142
-88,972	800,000	0,050	0,101
-87,957	82,721	0,031	-0,024
-86,943	69,043	-0,076	-0,056
-85,928	-200,000	0,024	-0,141
-84,913	-200,000	-0,002	-0,112
-83,899	-89,205	0,138	-0,029
-82,884	773,152	-0,006	0,012
-81,870	693,925	-0,024	0,046
-80,855	-7,327	-0,118	0,057
-79,840	-22,032	0,150	0,065
-78,826	-200,000	-0,023	-0,123
-77,811	800,000	0,007	0,019
-76,797	-200,000	0,006	0,074
-75,782	800,000	-0,010	-0,020
-74,767	90,637	0,102	0,082
-73,753	-200,000	-0,012	-0,043
-72,738	-163,832	0,082	-0,003
-71,724	-200,000	-0,021	-0,067
-70,709	800,000	0,045	-0,093
-69,694	-68,585	0,062	-0,017
-68,680	800,000	0,047	-0,114
-67,665	-28,469	0,120	-0,050
-66,651	5,976	-0,073	-0,039
-65,636	-82,732	0,030	0,007
-64,622	-200,000	0,003	-0,088
-63,607	170,778	0,067	0,069
-62,592	71,915	-0,044	0,033
-61,578	-50,148	0,131	0,044
-60,563	5,051	0,036	0,019
-59,549	-200,000	-0,039	0,131
-58,534	15,055	-1,791	-1,004
-57,519	800,000	-0,446	-1,071
-56,505	-200,000	-1,184	-4,717
-55,490	-21,773	0,839	0,365
-54,476	800,000	5,280	12,052
-53,461	-200,000	17,087	282,401
-52,446	800,000	721,460	2226,288
-51,432	544,770	1636,867	2817,326
-50,417	112,714	1630,775	1417,138
-49,403	76,372	1287,313	977,839
-48,388	33,113	1029,943	639,394
-47,373	20,424	991,585	573,679
-46,359	18,924	979,805	561,916
-45,344	16,502	975,882	551,704
-44,330	16,656	974,478	551,389
-43,315	16,244	972,569	548,941
-42,300	16,206	971,424	548,150
-41,286	16,192	970,532	547,577
-40,271	16,122	969,612	546,809
-39,257	16,208	968,706	546,556
-38,242	16,245	967,910	546,207
-37,227	16,172	966,767	545,303
-36,213	16,160	966,107	544,869
-35,198	16,089	965,425	544,234
-34,184	16,177	964,461	543,952
-33,169	16,163	963,530	543,359
-32,154	16,163	962,603	542,817
-31,140	16,209	961,440	542,289
-30,125	16,220	960,871	541,981
-29,111	16,141	960,235	541,345
-28,096	16,195	959,561	541,118
-27,082	16,113	958,964	540,495
-26,067	16,164	957,973	540,080
-25,052	16,197	957,213	539,735
-24,038	16,142	956,322	539,037
-23,023	16,092	956,025	538,687
-22,009	16,170	955,313	538,515
-20,994	16,131	954,828	538,093
-19,979	16,181	954,273	537,922
-18,965	16,097	953,657	537,283
-17,950	16,158	952,968	537,068
-16,936	16,041	952,396	536,350
-15,921	16,073	951,489	535,920
-14,906	16,032	950,774	535,366
-13,892	16,059	950,171	535,092
-12,877	16,006	949,627	534,595
-11,863	15,982	949,050	534,172
-10,848	16,037	948,503	534,017
-9,833	16,088	948,057	533,908
-8,819	16,109	947,131	533,432
-7,804	16,065	946,523	532,930
-6,790	16,034	945,935	532,477
-5,775	16,081	945,507	532,366
-4,760	16,137	944,713	532,075
-3,746	16,038	944,235	531,470
-2,731	15,993	943,307	530,785
-1,717	15,873	942,870	530,136
-0,702	15,909	942,230	529,872
0,313	15,685	941,581	529,597
1,327	18,903	939,306	538,425
2,342	27,881	796,913	480,652
3,356	24,596	461,141	273,066
4,371	-2,339	315,373	158,052
5,386	-6,460	297,246	144,772
6,400	-8,458	291,364	139,904
7,415	-9,018	288,764	138,089
8,429	-9,082	287,040	137,189
9,444	-9,057	286,042	136,725
10,459	-9,137	285,681	136,462
11,473	-9,115	284,979	136,136
12,488	-9,148	284,407	135,818
13,502	-9,066	284,013	135,698
14,517	-9,062	283,575	135,480
15,531	-9,347	283,004	134,919
16,546	-9,105	282,544	134,922
17,561	-9,043	282,285	134,846
18,575	-9,124	282,002	134,621
19,590	-9,189	281,487	134,301
20,604	-9,078	281,209	134,263
21,619	-9,199	280,898	133,986
22,634	-9,056	280,522	133,932
23,648	-9,338	280,231	133,512
24,663	-9,303	279,998	133,422
25,677	-9,207	279,625	133,323
26,692	-9,251	279,434	133,179
27,707	-9,186	279,061	133,051
28,721	-9,366	278,936	132,808
29,736	-9,331	278,673	132,705
30,750	-9,403	278,388	132,488
31,765	-9,384	278,202	132,406
32,780	-9,249	278,015	132,433
33,794	-9,241	277,466	132,168
34,809	-9,438	277,390	131,933
35,823	-9,204	277,063	131,987
36,838	-9,348	276,753	131,692
37,853	-9,343	276,505	131,567
38,867	-9,346	276,283	131,446
39,882	-9,145	276,135	131,554
40,896	-9,284	275,706	131,207
41,911	-9,236	275,654	131,215
42,926	-9,223	275,394	131,092
43,940	-9,244	274,938	130,844
44,955	-9,429	274,896	130,639
45,969	-9,497	274,811	130,523
46,984	-9,691	274,512	130,187
47,999	-9,647	274,015	129,982
49,013	-9,678	273,852	129,864
50,028	-10,044	273,729	129,452
51,042	-10,034	273,295	129,245
52,057	-10,060	273,169	129,150
53,071	-9,988	272,873	129,065
54,086	-9,931	272,767	129,056
55,101	-9,653	272,474	129,164
56,115	-9,385	272,379	129,356
57,130	-9,169	272,304	129,510
58,144	-9,305	272,152	129,300
59,159	-9,170	271,920	129,303
60,174	-9,064	271,829	129,346
61,188	-8,957	271,373	129,217
62,203	-9,184	271,210	128,918
63,217	-9,235	271,112	128,813
64,232	-8,980	270,760	128,869
65,247	-9,073	270,509	128,653
66,261	-9,064	270,351	128,574
67,276	-9,358	270,055	128,151
68,290	-9,594	269,705	127,757
69,305	-9,411	269,499	127,816
70,320	-9,369	269,330	127,764
71,334	-9,164	269,116	127,838
72,349	-9,253	269,074	127,725
73,363	-8,957	268,731	127,822
74,378	-9,035	268,606	127,680
75,393	-8,994	268,331	127,575
76,407	-9,014	268,041	127,408
77,422	-9,282	268,036	127,149
78,436	-9,158	267,663	127,074
79,451	-9,255	267,461	126,879
80,466	-9,265	267,175	126,722
81,480	-9,206	266,840	126,606
82,495	-9,499	266,762	126,291
83,509	-9,430	266,678	126,303
84,524	-9,318	266,328	126,228
85,539	-9,518	266,121	125,937
86,553	-9,460	265,916	125,882
87,568	-9,384	265,658	125,817
88,582	-9,281	265,453	125,801
89,597	-9,378	265,332	125,645
90,611	-9,256	265,194	125,679
91,626	-9,110	265,006	125,709
92,641	-9,054	264,665	125,587
93,655	-9,212	264,634	125,420
94,670	-9,106	264,261	125,326
95,684	-9,297	264,239	125,133
96,699	-9,343	264,071	125,002
97,714	-9,420	263,839	124,812
98,728	-9,467	263,593	124,642
99,743	-9,482	263,411	124,532
100,757	-9,479	263,200	124,424
101,772	-9,433	262,915	124,319
102,787	-9,287	262,768	124,368
103,801	-9,239	262,578	124,310
104,816	-9,167	262,501	124,326
105,830	-9,283	262,293	124,114
106,845	-9,100	262,106	124,177
107,860	-8,987	261,874	124,156
108,874	-9,052	261,609	123,962
109,889	-9,244	261,487	123,722
110,903	-9,124	261,245	123,704
111,918	-9,213	261,033	123,513
112,933	-9,211	260,857	123,421
113,947	-9,158	260,795	123,428
114,962	-9,140	260,475	123,281
115,976	-9,040	260,288	123,269
116,991	-9,159	260,138	123,082
118,006	-9,123	259,936	123,008
119,020	-8,984	259,748	123,030
120,035	-9,256	259,684	122,749
121,049	-9,193	259,477	122,696
122,064	-9,193	259,381	122,640
123,079	-9,130	259,096	122,549
124,093	-9,349	259,030	122,315
125,108	-9,280	258,573	122,149
126,122	-9,525	258,332	121,810
127,137	-9,576	258,019	121,607
128,151	-9,375	257,907	121,719
129,166	-9,332	257,887	121,736
130,181	-9,311	257,498	121,560
131,195	-9,555	257,384	121,283
132,210	-9,266	257,198	121,435
133,224	-9,107	257,027	121,483
134,239	-9,169	257,084	121,444
135,254	-9,090	256,636	121,291
136,268	-9,239	256,557	121,114
137,283	-9,279	256,089	120,847
138,297	-9,508	256,006	120,599
139,312	-9,588	255,673	120,361
140,327	-9,250	255,680	120,646
141,341	-9,065	255,654	120,784
142,356	-9,141	255,391	120,583
143,370	-8,899	255,271	120,724
144,385	-8,919	255,079	120,606
145,400	-8,845	254,934	120,590
146,414	-9,018	254,732	120,335
147,429	-9,059	254,672	120,260
148,443	-8,977	254,401	120,192
149,458	-8,972	254,033	120,012
150,473	-9,141	254,052	119,865
151,487	-9,161	253,902	119,766
152,502	-9,060	253,670	119,733
153,516	-8,975	253,463	119,697
154,531	-9,029	253,205	119,518
155,546	-8,889	253,042	119,551
156,560	-9,016	252,988	119,406
157,575	-9,089	252,638	119,168
158,589	-9,229	252,488	118,967
159,604	-8,958	252,346	119,120
160,619	-8,816	251,946	119,042
161,633	-8,816	252,043	119,077
162,648	-9,050	252,028	118,860
163,662	-8,960	251,646	118,746
164,677	-8,897	251,512	118,726
165,692	-8,693	251,262	118,770
166,706	-8,945	251,310	118,568
167,721	-8,960	250,938	118,370
168,735	-8,805	250,875	118,460
169,750	-9,013	250,813	118,244
170,764	-8,743	250,416	118,275
171,779	-8,664	250,373	118,311
172,794	-8,885	250,296	118,077
173,808	-8,900	250,051	117,938
174,823	-9,421	249,696	117,322
175,837	-9,574	249,504	117,092
176,852	-9,031	249,504	117,539
177,867	-8,969	249,355	117,510
178,881	-9,074	249,230	117,352
179,896	-8,907	249,009	117,378
180,910	-8,932	248,963	117,326
181,925	-8,833	248,587	117,221
182,940	-8,704	248,494	117,275
183,954	-8,720	248,402	117,207
184,969	-8,962	248,200	116,899
185,983	-8,820	248,012	116,919
186,998	-8,827	247,938	116,867
188,013	-8,584	247,529	116,867
189,027	-8,982	247,460	116,492
190,042	-8,935	247,263	116,428
191,056	-8,525	247,196	116,727
192,071	-8,953	247,080	116,306
193,086	-8,980	246,837	116,159
194,100	-8,688	246,544	116,253
195,115	-8,658	246,392	116,196
196,129	-8,871	246,274	115,953
197,144	-8,767	245,956	115,879
198,159	-8,649	245,623	115,810
199,173	-8,989	245,705	115,557
200,188	-8,856	245,488	115,554
201,202	-9,150	245,160	115,147
202,217	-9,371	244,883	114,825
203,232	-9,615	244,775	114,563
204,246	-9,098	244,749	114,966
205,261	-8,242	244,806	115,687
206,275	-9,134	244,564	114,830
207,290	-6,583	245,466	117,347
208,304	-1,053	247,224	122,761
209,319	1,270	247,764	124,943
210,334	1,920	247,772	125,475
211,348	2,134	247,864	125,687
212,363	2,743	247,510	126,000
213,377	2,768	247,507	126,007
214,392	2,644	247,489	125,885
215,407	2,583	247,173	125,662
216,421	2,643	247,038	125,632
217,436	2,699	246,934	125,614
218,450	2,940	246,673	125,669
219,465	2,472	246,675	125,273
220,480	2,394	246,401	125,059
221,494	2,474	246,313	125,068
222,509	2,682	246,173	125,157
223,523	2,566	245,959	124,942
224,538	2,155	245,562	124,393
225,553	2,223	245,435	124,372
226,567	2,529	245,186	124,486
227,582	2,491	245,241	124,472
228,596	2,532	245,030	124,387
229,611	2,299	244,733	124,035
230,626	2,101	244,535	123,762
231,640	2,274	244,485	123,867
232,655	2,633	244,402	124,106
233,669	2,326	244,085	123,685
234,684	2,076	243,962	123,408
235,699	2,594	243,912	123,793
236,713	2,843	243,844	123,949
237,728	2,396	243,638	123,470
238,742	2,387	243,439	123,352
239,757	2,306	243,267	123,188
240,772	2,372	242,962	123,076
241,786	2,291	242,918	122,977
242,801	2,049	242,640	122,629
243,815	2,016	242,585	122,564
244,830	2,313	242,380	122,689
245,844	2,683	242,374	122,974
246,859	2,711	242,143	122,868
247,874	2,584	241,827	122,595
248,888	2,458	241,735	122,436
249,903	2,430	241,829	122,450
250,917	2,763	241,571	122,576
251,932	2,881	241,669	122,710
252,947	2,455	241,338	122,188
253,961	2,248	241,085	121,884
254,976	2,485	240,899	121,968
255,990	2,703	240,728	122,046
257,005	2,149	240,559	121,506
258,020	2,138	240,401	121,407
259,034	2,314	240,278	121,475
260,049	2,474	240,044	121,473
261,063	2,447	239,870	121,353
262,078	2,229	239,751	121,108
263,093	2,240	239,766	121,113
264,107	2,462	239,605	121,198
265,122	2,364	239,401	121,005
266,136	2,373	239,271	120,936
267,151	2,746	239,082	121,126
268,166	2,562	238,714	120,783
269,180	2,436	238,660	120,645
270,195	2,881	238,788	121,053
271,209	2,881	238,483	120,887
272,224	2,415	238,208	120,368
273,239	2,378	237,979	120,212
274,253	2,170	237,876	119,985
275,268	2,323	237,895	120,105
276,282	2,485	237,601	120,074
277,297	2,285	237,401	119,804
278,312	2,556	237,254	119,933
279,326	2,471	237,239	119,848
280,341	2,405	237,132	119,731
281,355	2,584	236,865	119,726
282,370	2,679	236,758	119,736
283,384	2,483	236,595	119,489
284,399	2,540	236,340	119,395
285,414	2,163	236,271	119,053
286,428	2,502	236,116	119,230
287,443	2,478	236,153	119,219
288,457	2,646	235,968	119,247
289,472	2,826	235,798	119,291
290,487	2,417	235,521	118,821
291,501	2,271	235,345	118,608
292,516	2,085	235,126	118,342
293,530	2,081	234,989	118,259
294,545	2,535	234,941	118,578
295,560	2,637	234,594	118,471
296,574	2,044	234,720	118,063
297,589	2,165	234,522	118,047
298,603	2,761	234,398	118,438
299,618	2,720	234,344	118,368
300,633	2,651	234,060	118,160
301,647	2,658	234,135	118,192
302,662	3,025	234,023	118,410
303,676	2,757	233,861	118,110
304,691	2,785	233,639	118,009
305,706	2,819	233,568	117,989
306,720	2,860	233,352	117,901
307,735	2,580	233,118	117,556
308,749	2,525	232,962	117,424
309,764	2,409	232,700	117,192
310,779	2,346	232,423	116,994
311,793	2,331	232,272	116,897
312,808	2,437	232,099	116,880
313,822	2,239	232,068	116,702
314,837	2,042	231,979	116,496
315,852	2,122	231,817	116,466
316,866	2,405	231,765	116,645
317,881	2,588	231,701	116,743
318,895	2,763	231,652	116,842
319,910	3,027	231,336	116,875
320,925	2,556	231,157	116,414
321,939	2,569	230,890	116,279
322,954	2,503	230,962	116,255
323,968	2,648	230,714	116,230
324,983	2,390	230,647	115,988
325,997	2,749	230,528	116,193
327,012	2,394	230,333	115,813
328,027	2,274	230,004	115,546
329,041	2,524	229,915	115,682
330,056	3,220	230,130	116,308
331,070	3,280	229,962	116,259
332,085	2,968	229,606	115,831
333,100	2,875	229,434	115,664
334,114	2,465	229,216	115,234
335,129	2,526	229,091	115,206
336,143	3,137	228,893	115,558
337,158	2,963	229,023	115,483
338,173	2,822	228,816	115,261
339,187	2,627	228,635	115,013
340,202	2,786	228,552	115,080
341,216	2,960	228,166	115,007
342,231	2,659	228,126	114,750
343,246	2,522	227,948	114,547
344,260	2,883	227,792	114,730
345,275	3,128	227,764	114,890
346,289	3,078	227,729	114,824
347,304	3,050	227,565	114,710
348,319	2,948	227,441	114,561
349,333	2,848	227,127	114,317
350,348	2,477	226,970	113,950
351,362	2,761	226,842	114,089
352,377	2,643	226,746	113,942
353,392	2,797	226,384	113,865
354,406	2,600	226,344	113,687
355,421	197,349	1320,837	1403,395
356,435	158,278	1454,191	1403,410
