DTS Sentinel unit serial number:	SN410029Multiplexer serial number:	ORYXHardware model number:	OX2-SRSoftware version number:	ORYX F/W v4,00 Oryx Data Collector v3.7.2.0data status	okinstallation	B5 Nyhavnadifferential loss correction	single-endedforward channel	channel 2reverse channel	N/Adate	2023/12/12time	10:27:13forward acquisition time	300,00reverse acquisition time	0,00gamma	499,1914k internal	0,3158k external	0,3158temperature offset calibration	1,0000default loss term (dB/km)	0,3820temperature slope calibration	1,0000multiplexer offset coefficient	1,0000multiplexer slope coefficient	1,0000fibre end	0,00T internal ref (°C)	15,00T ext. ref 1 (°C)	-1,37T ext. ref 2 (°C)	-1,66length (m)	temperature (°C)	Stokes	anti-Stokes-744,400	64,318	0,074	0,055
-743,385	-54,312	-0,313	0,104
-742,371	97,340	0,077	0,065
-741,356	-51,098	-0,275	0,095
-740,342	-122,174	0,130	0,015
-739,327	-95,022	-0,294	-0,058
-738,312	4,954	0,156	-0,084
-737,298	-74,988	-0,169	0,044
-736,283	316,649	-0,064	0,089
-735,269	-123,836	-0,228	-0,026
-734,254	-51,734	0,151	0,051
-733,239	-98,217	-0,513	-0,096
-732,225	-104,740	0,291	0,049
-731,210	36,010	0,067	0,043
-730,196	35,776	0,057	0,037
-729,181	-83,792	-0,073	-0,017
-728,167	-200,000	-0,011	0,063
-727,152	84,294	0,047	0,038
-726,137	70,029	-0,043	-0,033
-725,123	-200,000	0,018	-0,075
-724,108	288,816	-0,108	-0,145
-723,094	-200,000	0,025	-0,199
-722,079	411,942	0,022	0,035
-721,064	442,892	0,038	0,061
-720,050	-137,860	-0,157	0,013
-719,035	-200,000	0,007	0,078
-718,021	540,067	-0,021	0,036
-717,006	800,000	-0,044	0,118
-715,991	24,049	-0,097	0,059
-714,977	-158,980	0,158	-0,006
-713,962	129,692	-0,084	-0,079
-712,948	-200,000	0,017	-0,101
-711,933	-145,702	0,054	0,003
-710,918	273,634	0,051	-0,067
-709,904	800,000	-0,032	0,070
-708,889	-92,814	-0,113	0,023
-707,875	229,154	-0,052	-0,062
-706,860	637,620	-0,036	0,068
-705,845	800,000	-0,031	0,086
-704,831	158,212	0,049	0,051
-703,816	106,612	0,079	-0,069
-702,802	-165,397	0,113	0,004
-701,787	-52,361	-0,114	-0,039
-700,772	800,000	-0,077	-0,165
-699,758	466,415	0,023	-0,037
-698,743	-200,000	-0,013	-0,067
-697,729	358,943	0,033	0,049
-696,714	205,223	0,007	-0,008
-695,699	-200,000	-0,031	0,126
-694,685	516,877	0,032	-0,055
-693,670	-44,869	0,161	-0,059
-692,656	115,094	-0,034	-0,030
-691,641	-119,577	-0,106	0,013
-690,627	-114,753	0,129	-0,018
-689,612	-76,644	0,079	0,020
-688,597	800,000	0,017	-0,037
-687,583	95,531	-0,140	-0,118
-686,568	-200,000	0,129	0,000
-685,554	800,000	0,011	0,025
-684,539	-61,731	0,076	0,023
-683,524	79,286	0,067	-0,053
-682,510	-200,000	0,000	-0,034
-681,495	143,226	-0,044	-0,043
-680,481	358,035	-0,134	0,197
-679,466	236,427	-0,026	0,032
-678,451	-141,452	-0,112	-0,008
-677,437	171,666	0,012	0,013
-676,422	-200,000	-0,005	-0,097
-675,408	-53,175	0,084	-0,028
-674,393	-200,000	-0,017	-0,111
-673,378	-200,000	-0,004	-0,073
-672,364	800,000	-0,028	-0,065
-671,349	334,364	0,098	-0,140
-670,335	-71,960	0,124	-0,034
-669,320	417,275	0,065	0,103
-668,305	-128,988	0,039	0,004
-667,291	410,404	0,062	0,097
-666,276	159,364	-0,061	-0,062
-665,262	135,986	-0,035	0,033
-664,247	78,781	0,046	-0,036
-663,232	32,718	-0,112	0,071
-662,218	800,000	-0,055	-0,119
-661,203	-88,825	-0,041	-0,009
-660,189	-10,379	0,063	0,031
-659,174	-15,413	0,153	-0,072
-658,159	143,404	-0,060	0,059
-657,145	800,000	-0,002	-0,005
-656,130	800,000	0,011	0,026
-655,116	-13,849	0,081	0,038
-654,101	-58,491	0,112	0,036
-653,086	-49,862	0,149	0,052
-652,072	-200,000	0,009	0,036
-651,057	-64,177	-0,083	0,025
-650,043	131,957	-0,113	-0,107
-649,028	800,000	-0,013	-0,038
-648,014	28,145	0,046	-0,028
-646,999	800,000	0,081	0,168
-645,984	-28,207	0,091	0,039
-644,970	301,448	-0,059	-0,080
-643,955	59,478	-0,113	-0,082
-642,941	360,772	-0,023	0,033
-641,926	63,212	-0,086	-0,063
-640,911	-166,803	-0,156	-0,005
-639,897	190,902	-0,057	0,064
-638,882	-200,000	-0,023	0,179
-637,868	211,230	0,081	0,094
-636,853	-24,425	-0,070	0,030
-635,838	-101,978	-0,156	0,027
-634,824	-200,000	-0,014	0,071
-633,809	-200,000	-0,007	0,051
-632,795	-81,325	-0,156	-0,037
-631,780	-200,000	-0,026	0,101
-630,765	-26,603	-0,085	-0,036
-629,751	80,485	-0,059	-0,047
-628,736	144,392	-0,020	-0,019
-627,722	800,000	0,027	0,085
-626,707	-93,404	-0,071	-0,014
-625,692	21,094	0,033	0,019
-624,678	-200,000	0,005	-0,149
-623,663	-200,000	-0,017	-0,108
-622,649	484,439	0,054	-0,091
-621,634	-103,115	-0,069	0,012
-620,619	-122,843	-0,123	0,014
-619,605	349,058	0,055	-0,079
-618,590	-23,481	0,124	0,055
-617,576	-23,476	0,051	-0,022
-616,561	370,082	0,055	-0,082
-615,546	-106,070	-0,132	-0,021
-614,532	800,000	0,070	0,154
-613,517	-200,000	-0,025	-0,105
-612,503	135,923	-0,060	0,057
-611,488	-200,000	0,051	-0,191
-610,474	75,941	0,050	0,038
-609,459	-200,000	-0,049	0,185
-608,444	72,553	-0,066	-0,050
-607,430	32,180	-0,061	0,038
-606,415	184,156	-0,110	0,120
-605,401	-20,644	0,114	-0,051
-604,386	-27,384	0,047	-0,020
-603,371	-200,000	-0,002	0,039
-602,357	-27,563	0,125	-0,053
-601,342	116,271	-0,046	-0,041
-600,328	-200,000	-0,020	-0,070
-599,313	800,000	0,019	-0,061
-598,298	-113,844	0,049	-0,007
-597,284	13,876	0,031	-0,017
-596,269	-200,000	-0,017	0,107
-595,255	-135,267	0,135	-0,012
-594,240	800,000	0,039	0,113
-593,225	800,000	-0,038	-0,111
-592,211	800,000	-0,010	0,030
-591,196	-66,519	0,070	-0,020
-590,182	-152,188	-0,070	0,004
-589,167	-76,053	-0,111	-0,029
-588,152	69,822	-0,087	-0,066
-587,138	-176,866	-0,071	-0,001
-586,123	619,741	-0,024	-0,045
-585,109	25,945	-0,082	-0,050
-584,094	-58,978	-0,043	0,013
-583,079	800,000	0,014	0,041
-582,065	-107,910	-0,090	0,014
-581,050	-120,626	0,077	0,009
-580,036	22,397	-0,047	-0,028
-579,021	753,852	-0,028	-0,055
-578,006	800,000	0,023	0,068
-576,992	-170,869	0,057	0,001
-575,977	390,012	0,029	-0,044
-574,963	32,495	-0,048	0,030
-573,948	-106,999	-0,057	0,009
-572,934	372,914	-0,020	0,029
-571,919	-200,000	-0,020	0,115
-570,904	800,000	0,061	-0,132
-569,890	800,000	-0,053	-0,154
-568,875	91,251	0,135	0,111
-567,861	800,000	-0,036	0,080
-566,846	277,145	0,011	-0,014
-565,831	-200,000	-0,007	-0,023
-564,817	-48,600	-0,061	0,021
-563,802	-200,000	-0,002	-0,141
-562,788	163,061	0,133	-0,137
-561,773	800,000	-0,067	-0,151
-560,758	-198,508	-0,079	-0,000
-559,744	223,240	-0,031	0,037
-558,729	-1,288	0,085	-0,044
-557,715	340,927	0,028	0,040
-556,700	181,208	-0,031	0,033
-555,685	800,000	0,016	0,041
-554,671	800,000	-0,009	0,028
-553,656	232,548	-0,018	0,021
-552,642	-3,416	0,077	0,039
-551,627	35,146	-0,017	0,011
-550,612	-200,000	-0,002	-0,110
-549,598	-58,501	-0,094	0,030
-548,583	-200,000	0,016	0,102
-547,569	-200,000	0,018	-0,061
-546,554	-71,724	-0,111	0,030
-545,539	558,415	-0,045	0,080
-544,525	199,160	0,039	-0,043
-543,510	122,539	-0,085	-0,078
-542,496	-200,000	-0,003	0,011
-541,481	800,000	0,038	-0,098
-540,466	16,274	0,094	0,054
-539,452	-200,000	-0,012	0,070
-538,437	591,961	-0,058	0,105
-537,423	-19,184	-0,025	0,011
-536,408	-45,056	-0,044	-0,016
-535,393	44,907	0,109	0,073
-534,379	3,328	0,018	0,009
-533,364	800,000	-0,028	-0,061
-532,350	-118,505	-0,075	0,010
-531,335	245,019	0,031	0,039
-530,321	118,858	0,046	-0,042
-529,306	-200,000	0,006	0,128
-528,291	-1,895	-0,088	0,045
-527,277	-89,464	0,101	-0,021
-526,262	780,739	-0,058	-0,116
-525,248	257,920	-0,035	0,044
-524,233	800,000	-0,042	0,120
-523,218	446,721	0,047	0,076
-522,204	-61,205	-0,047	0,014
-521,189	26,949	0,089	0,054
-520,175	-186,671	0,076	0,001
-519,160	-200,000	-0,003	-0,101
-518,145	-174,386	-0,026	-0,001
-517,131	800,000	0,012	-0,026
-516,116	800,000	0,027	-0,076
-515,102	-121,330	-0,115	0,014
-514,087	122,996	-0,057	0,052
-513,072	90,526	-0,088	0,072
-512,058	73,985	0,066	-0,051
-511,043	800,000	-0,017	-0,048
-510,029	-14,694	0,060	0,028
-509,014	115,500	-0,125	0,112
-507,999	-198,145	-0,103	-0,000
-506,985	-87,298	-0,166	0,036
-505,970	-116,054	-0,065	0,009
-504,956	-200,000	0,002	-0,041
-503,941	105,442	0,154	-0,133
-502,926	800,000	-0,019	0,042
-501,912	3,475	0,065	0,035
-500,897	-87,221	-0,116	-0,025
-499,883	-200,000	0,002	0,023
-498,868	800,000	0,024	-0,068
-497,853	599,584	-0,038	-0,068
-496,839	550,399	-0,075	-0,132
-495,824	-5,300	0,066	0,033
-494,810	230,488	0,110	0,131
-493,795	19,072	0,049	-0,029
-492,781	-200,000	-0,024	-0,171
-491,766	-200,000	-0,017	-0,107
-490,751	-45,672	0,114	-0,041
-489,737	516,667	0,020	-0,035
-488,722	5,542	0,057	-0,031
-487,708	-126,912	-0,099	-0,010
-486,693	53,445	0,118	0,082
-485,678	55,620	-0,079	0,056
-484,664	43,486	-0,269	-0,179
-483,649	-86,637	0,128	-0,028
-482,635	800,000	0,067	-0,166
-481,620	367,862	0,019	-0,028
-480,605	-108,168	-0,122	-0,019
-479,591	-200,000	-0,032	0,199
-478,576	-200,000	0,036	0,142
-477,562	-129,409	-0,101	0,010
-476,547	-200,000	-0,001	-0,159
-475,532	370,206	-0,042	0,062
-474,518	214,796	-0,027	0,031
-473,503	50,436	0,134	-0,092
-472,489	-200,000	0,003	0,031
-471,474	800,000	0,032	0,072
-470,459	-23,017	-0,015	-0,007
-469,445	-200,000	0,013	-0,057
-468,430	800,000	0,042	-0,135
-467,416	419,892	0,016	-0,025
-466,401	-106,724	0,106	-0,017
-465,386	108,324	-0,090	-0,078
-464,372	59,335	0,155	-0,111
-463,357	6,409	0,086	-0,047
-462,343	800,000	-0,049	-0,144
-461,328	73,684	0,053	0,040
-460,313	224,760	-0,066	-0,078
-459,299	-124,135	0,172	0,019
-458,284	-84,721	0,066	-0,015
-457,270	-200,000	0,006	0,107
-456,255	591,310	-0,030	-0,054
-455,241	-200,000	-0,041	-0,147
-454,226	800,000	0,023	0,059
-453,211	-74,008	0,044	0,011
-452,197	32,530	0,106	0,066
-451,182	539,610	-0,021	0,037
-450,168	800,000	-0,004	-0,009
-449,153	-161,364	0,120	-0,004
-448,138	52,266	-0,037	0,026
-447,124	-192,096	-0,063	-0,000
-446,109	800,000	0,011	-0,029
-445,095	-73,691	0,146	0,038
-444,080	157,513	0,122	0,123
-443,065	190,001	0,063	0,068
-442,051	10,714	-0,136	-0,075
-441,036	206,793	-0,078	0,089
-440,022	-94,877	0,069	0,014
-439,007	-130,808	-0,074	-0,007
-437,992	8,303	0,093	0,051
-436,978	800,000	0,054	0,136
-435,963	-178,564	-0,059	-0,001
-434,949	-200,000	0,001	-0,009
-433,934	108,982	0,065	-0,056
-432,919	91,091	-0,042	-0,034
-431,905	750,290	0,051	-0,100
-430,890	403,881	0,031	0,047
-429,876	-200,000	-0,020	0,081
-428,861	66,323	-0,067	-0,050
-427,846	-200,000	0,029	-0,100
-426,832	-118,436	-0,056	-0,007
-425,817	60,420	0,028	0,020
-424,803	357,139	-0,011	-0,016
-423,788	26,748	0,177	-0,108
-422,773	227,456	0,088	0,104
-421,759	800,000	0,035	-0,078
-420,744	-91,865	0,064	0,013
-419,730	174,916	-0,098	0,103
-418,715	-93,591	-0,191	0,038
-417,701	-12,587	0,093	0,044
-416,686	-125,299	-0,162	0,018
-415,671	269,015	-0,036	0,046
-414,657	39,489	0,172	-0,112
-413,642	-200,000	0,006	-0,071
-412,628	-147,518	-0,096	-0,006
-411,613	800,000	0,021	-0,067
-410,598	-200,000	-0,011	0,052
-409,584	-119,389	0,008	0,001
-408,569	143,584	0,064	0,062
-407,555	-200,000	0,012	0,108
-406,540	-99,390	0,084	0,015
-405,525	-200,000	-0,015	-0,065
-404,511	177,027	-0,011	-0,012
-403,496	674,043	0,056	-0,107
-402,482	-56,678	0,058	-0,018
-401,467	800,000	-0,042	0,125
-400,452	424,134	-0,045	0,071
-399,438	303,212	0,045	-0,061
-398,423	-200,000	-0,013	0,080
-397,409	-130,843	-0,097	0,009
-396,394	-200,000	-0,008	-0,137
-395,379	-200,000	0,012	-0,172
-394,365	-200,000	-0,014	0,067
-393,350	143,653	0,075	0,073
-392,336	-162,103	0,033	0,001
-391,321	-68,667	-0,090	0,025
-390,306	-200,000	-0,009	0,059
-389,292	131,382	0,108	-0,101
-388,277	132,407	-0,043	0,040
-387,263	-200,000	0,083	0,000
-386,248	716,501	0,016	0,031
-385,233	-200,000	0,001	0,139
-384,219	120,210	0,051	0,046
-383,204	-200,000	-0,004	-0,016
-382,190	-79,931	-0,048	0,012
-381,175	-200,000	-0,010	0,043
-380,160	472,799	0,026	0,042
-379,146	-125,194	-0,100	0,011
-378,131	-200,000	0,030	0,146
-377,117	141,274	0,070	-0,067
-376,102	-200,000	-0,003	-0,113
-375,088	-200,000	0,007	-0,029
-374,073	136,707	0,066	-0,063
-373,058	187,615	0,022	-0,024
-372,044	-76,547	-0,078	0,020
-371,029	800,000	0,020	-0,046
-370,015	320,167	-0,098	0,136
-369,000	800,000	0,055	0,149
-367,985	-10,909	-0,093	0,044
-366,971	800,000	0,031	0,099
-365,956	800,000	0,052	0,106
-364,942	-193,634	-0,073	0,000
-363,927	-50,069	0,069	0,024
-362,912	-32,907	-0,077	0,031
-361,898	-140,252	-0,170	-0,013
-360,883	-200,000	0,035	-0,118
-359,869	-148,505	-0,059	-0,003
-358,854	1,420	-0,086	0,045
-357,839	41,022	0,102	-0,067
-356,825	7,076	-0,064	0,035
-355,810	800,000	-0,030	0,072
-354,796	278,608	-0,067	-0,087
-353,781	800,000	0,038	-0,082
-352,766	-8,064	0,133	-0,065
-351,752	125,297	0,068	0,062
-350,737	685,997	0,051	0,097
-349,723	800,000	-0,024	0,066
-348,708	-154,393	0,108	0,005
-347,693	328,302	-0,017	0,023
-346,679	-200,000	-0,006	-0,101
-345,664	408,855	-0,113	-0,174
-344,650	62,380	-0,076	-0,055
-343,635	-118,721	0,058	0,007
-342,620	-159,410	0,136	0,005
-341,606	-99,942	-0,141	0,025
-340,591	-200,000	-0,002	0,127
-339,577	397,520	-0,074	-0,113
-338,562	18,139	-0,054	-0,031
-337,548	-138,486	0,136	-0,011
-336,533	-200,000	-0,001	0,052
-335,518	325,525	0,101	0,140
-334,504	16,105	-0,087	-0,050
-333,489	712,919	-0,029	0,056
-332,475	-10,104	0,047	0,023
-331,460	-86,885	0,141	0,031
-330,445	-200,000	-0,025	0,100
-329,431	-200,000	0,001	-0,030
-328,416	8,287	-0,115	0,063
-327,402	-200,000	0,017	0,155
-326,387	-17,518	-0,010	-0,005
-325,372	-54,043	0,084	-0,028
-324,358	38,878	-0,073	0,047
-323,343	49,949	0,085	-0,058
-322,329	4,843	0,095	0,051
-321,314	-63,757	-0,106	-0,031
-320,299	287,120	0,148	0,194
-319,285	800,000	0,037	0,093
-318,270	254,606	-0,100	0,124
-317,256	-200,000	-0,029	-0,116
-316,241	-11,815	-0,078	-0,037
-315,226	60,661	0,059	-0,042
-314,212	-141,608	-0,077	0,006
-313,197	-200,000	0,003	0,086
-312,183	-200,000	-0,008	-0,172
-311,168	109,425	-0,094	0,082
-310,153	-14,269	0,181	-0,084
-309,139	728,351	-0,113	-0,220
-308,124	-114,348	0,095	-0,013
-307,110	571,649	-0,050	-0,088
-306,095	25,030	-0,172	0,103
-305,080	215,373	0,058	-0,066
-304,066	13,116	0,071	-0,040
-303,051	540,913	-0,027	0,046
-302,037	-200,000	-0,014	0,051
-301,022	-200,000	0,010	0,037
-300,008	-29,229	0,041	0,017
-298,993	319,727	0,017	0,023
-297,978	-52,554	-0,116	-0,038
-296,964	47,946	-0,085	0,057
-295,949	-48,983	0,007	-0,002
-294,935	435,787	-0,097	-0,153
-293,920	-63,649	0,058	0,017
-292,905	-67,128	0,109	-0,031
-291,891	-119,419	0,083	0,010
-290,876	800,000	-0,037	0,096
-289,862	50,547	0,104	0,071
-288,847	800,000	-0,054	-0,122
-287,832	-200,000	-0,015	0,052
-286,818	800,000	-0,033	-0,079
-285,803	-172,798	-0,035	0,001
-284,789	-95,212	-0,046	-0,009
-283,774	583,238	0,058	0,104
-282,759	800,000	0,066	0,167
-281,745	40,261	0,067	0,043
-280,730	199,302	-0,101	-0,112
-279,716	-21,827	0,111	-0,049
-278,701	377,978	0,065	0,097
-277,686	-164,085	0,026	-0,001
-276,672	26,258	0,012	0,007
-275,657	-3,439	-0,068	0,034
-274,643	800,000	0,080	-0,181
-273,628	372,792	-0,015	-0,022
-272,613	-111,962	-0,139	-0,020
-271,599	771,650	0,035	-0,070
-270,584	-112,625	0,070	-0,010
-269,570	-200,000	-0,012	0,066
-268,555	-200,000	-0,047	0,192
-267,540	145,384	-0,019	0,019
-266,526	-200,000	0,000	-0,133
-265,511	43,342	0,059	-0,039
-264,497	800,000	0,017	0,044
-263,482	155,202	-0,070	-0,069
-262,467	92,948	0,169	0,138
-261,453	800,000	-0,036	0,099
-260,438	179,196	-0,062	-0,066
-259,424	-200,000	0,028	-0,089
-258,409	800,000	-0,051	-0,103
-257,395	-4,119	0,032	0,016
-256,380	25,559	-0,075	0,045
-255,365	148,979	0,078	0,077
-254,351	146,685	0,055	-0,054
-253,336	-200,000	0,014	0,173
-252,322	-200,000	0,007	-0,027
-251,307	214,015	-0,048	-0,055
-250,292	-200,000	0,021	-0,070
-249,278	-119,644	-0,056	0,007
-248,263	-96,252	0,209	-0,040
-247,249	3,446	0,035	-0,018
-246,234	-69,554	-0,013	-0,004
-245,219	800,000	-0,055	-0,130
-244,205	800,000	-0,040	0,106
-243,190	-200,000	0,002	-0,130
-242,176	80,929	0,141	0,110
-241,161	-151,297	0,035	0,002
-240,146	-200,000	-0,006	0,036
-239,132	212,375	0,070	0,080
-238,117	-200,000	0,002	0,021
-237,103	105,937	-0,035	-0,030
-236,088	6,176	0,041	-0,022
-235,073	219,543	0,035	0,041
-234,059	-200,000	-0,002	0,120
-233,044	32,212	0,052	-0,032
-232,030	-64,023	-0,081	0,024
-231,015	-200,000	-0,008	-0,032
-230,000	680,402	-0,042	-0,079
-228,986	75,526	-0,061	-0,046
-227,971	-89,938	0,128	0,027
-226,957	-50,687	0,115	0,039
-225,942	-115,404	0,111	0,015
-224,927	-82,974	-0,128	-0,030
-223,913	-200,000	-0,027	0,141
-222,898	-86,281	0,040	-0,009
-221,884	6,468	-0,064	0,034
-220,869	-15,969	-0,026	-0,012
-219,855	-8,822	0,099	-0,048
-218,840	800,000	0,046	0,096
-217,825	-143,054	-0,047	-0,003
-216,811	-200,000	0,019	0,078
-215,796	11,175	0,064	-0,036
-214,782	211,831	-0,051	0,058
-213,767	-24,579	0,073	0,031
-212,752	24,635	-0,046	-0,028
-211,738	800,000	0,023	-0,071
-210,723	-200,000	0,019	0,118
-209,709	6,904	0,109	0,058
-208,694	-181,719	0,216	0,003
-207,679	-71,953	-0,185	-0,049
-206,665	-65,495	0,037	0,011
-205,650	529,930	0,056	0,096
-204,636	-200,000	-0,011	0,040
-203,621	-23,268	0,030	-0,013
-202,606	800,000	-0,011	-0,025
-201,592	130,998	0,068	-0,063
-200,577	-200,000	-0,029	-0,204
-199,563	273,308	-0,041	-0,052
-198,548	-200,000	0,028	0,106
-197,533	-138,459	0,081	-0,006
-196,519	53,726	-0,067	0,047
-195,504	18,787	-0,118	0,068
-194,490	-200,000	-0,001	-0,011
-193,475	-200,000	0,017	-0,114
-192,460	-147,629	-0,040	0,002
-191,446	800,000	-0,016	-0,047
-190,431	-200,000	0,113	-0,000
-189,417	-196,089	-0,133	0,001
-188,402	111,106	0,097	0,085
-187,387	-95,927	-0,088	-0,017
-186,373	-200,000	0,001	-0,006
-185,358	-82,157	-0,097	-0,023
-184,344	-200,000	-0,029	0,096
-183,329	800,000	-0,015	-0,045
-182,315	-200,000	-0,044	-0,231
-181,300	-143,904	0,147	-0,010
-180,285	-85,475	-0,056	-0,013
-179,271	-37,748	-0,127	-0,048
-178,256	193,121	-0,033	0,036
-177,242	-200,000	-0,004	0,123
-176,227	-11,313	0,105	-0,050
-175,212	245,613	0,031	-0,038
-174,198	-30,883	-0,131	0,053
-173,183	-175,590	-0,085	-0,002
-172,169	5,970	0,073	0,039
-171,154	190,895	-0,022	-0,023
-170,139	-80,367	-0,062	0,015
-169,125	-200,000	-0,021	-0,106
-168,110	-200,000	0,033	-0,122
-167,096	-200,000	-0,007	0,124
-166,081	-93,758	-0,033	-0,007
-165,066	37,412	-0,068	-0,044
-164,052	-150,909	0,127	0,007
-163,037	667,841	-0,045	-0,085
-162,023	53,738	0,040	0,028
-161,008	-200,000	0,018	0,086
-159,993	-29,230	0,117	0,048
-158,979	16,648	0,054	0,031
-157,964	-149,182	-0,105	-0,006
-156,950	-200,000	-0,050	-0,239
-155,935	-200,000	-0,022	-0,078
-154,920	-23,015	0,133	-0,057
-153,906	-37,755	-0,041	-0,016
-152,891	6,501	-0,081	0,043
-151,877	-200,000	-0,031	-0,107
-150,862	306,034	-0,012	-0,017
-149,847	-200,000	-0,019	-0,134
-148,833	-200,000	0,020	0,092
-147,818	800,000	0,029	-0,061
-146,804	-200,000	-0,003	-0,022
-145,789	373,223	0,034	0,049
-144,775	132,852	0,056	-0,052
-143,760	255,453	-0,037	0,045
-142,745	-88,253	0,024	0,005
-141,731	353,559	0,024	0,034
-140,716	37,975	0,096	0,062
-139,702	56,841	-0,034	0,024
-138,687	494,555	0,045	0,075
-137,672	134,102	-0,056	0,052
-136,658	-53,638	-0,074	-0,024
-135,643	-200,000	0,016	-0,186
-134,629	762,394	-0,037	0,072
-133,614	-200,000	-0,040	0,214
-132,599	-200,000	0,004	0,015
-131,585	451,061	0,023	-0,037
-130,570	415,648	0,041	0,063
-129,556	224,126	0,025	0,029
-128,541	-169,970	-0,043	0,001
-127,526	88,708	-0,029	-0,023
-126,512	-20,265	-0,070	0,031
-125,497	596,731	-0,013	0,024
-124,483	-200,000	0,010	0,054
-123,468	-31,255	-0,027	0,011
-122,453	628,755	-0,018	-0,033
-121,439	-110,471	-0,121	0,018
-120,424	461,589	0,069	-0,112
-119,410	-119,304	0,147	-0,018
-118,395	145,248	0,059	0,057
-117,380	-200,000	0,017	0,102
-116,366	-200,000	-0,009	-0,078
-115,351	-200,000	-0,026	0,108
-114,337	327,847	-0,015	0,020
-113,322	-200,000	0,023	-0,076
-112,307	-62,678	-0,144	-0,043
-111,293	183,061	0,040	-0,043
-110,278	800,000	0,016	0,050
-109,264	-200,000	-0,036	-0,131
-108,249	111,769	0,070	0,061
-107,234	458,103	0,082	-0,131
-106,220	-106,625	0,106	-0,017
-105,205	-200,000	-0,005	-0,073
-104,191	63,773	0,082	-0,059
-103,176	531,112	-0,047	0,080
-102,162	800,000	-0,012	-0,034
-101,147	-200,000	0,004	-0,038
-100,132	-120,272	-0,045	0,005
-99,118	19,445	-0,179	0,103
-98,103	41,503	-0,096	-0,062
-97,089	401,007	0,038	-0,057
-96,074	-43,047	-0,027	0,010
-95,059	156,707	-0,074	0,074
-94,045	-41,581	0,033	0,012
-93,030	-200,000	0,003	-0,042
-92,016	32,139	-0,039	-0,024
-91,001	462,411	0,012	0,020
-89,986	79,158	0,087	0,067
-88,972	7,875	0,037	0,020
-87,957	625,437	-0,005	0,008
-86,943	126,747	0,101	0,092
-85,928	121,222	-0,051	0,046
-84,913	-200,000	0,040	-0,126
-83,899	-46,818	0,078	0,027
-82,884	123,709	-0,119	0,107
-81,870	-200,000	-0,012	0,099
-80,855	34,799	0,128	0,080
-79,840	34,603	-0,110	0,069
-78,826	101,553	-0,112	-0,094
-77,811	800,000	0,010	-0,030
-76,797	25,798	-0,082	0,049
-75,782	77,530	0,058	-0,044
-74,767	11,325	0,102	-0,056
-73,753	-67,256	-0,101	-0,028
-72,738	-88,081	0,053	-0,011
-71,724	354,493	-0,038	0,055
-70,709	-200,000	-0,007	-0,048
-69,694	-85,178	-0,089	0,020
-68,680	800,000	0,026	-0,052
-67,665	-200,000	0,027	-0,107
-66,651	138,658	0,071	0,067
-65,636	-147,677	-0,062	0,004
-64,622	203,043	-0,112	-0,125
-63,607	-15,204	0,015	0,007
-62,592	276,337	0,023	-0,029
-61,578	-200,000	0,033	0,112
-60,563	-200,000	0,075	0,274
-59,549	-65,357	-0,050	0,014
-58,534	9,030	-1,933	-1,044
-57,519	-200,000	-0,138	-0,843
-56,505	-200,000	-1,278	-5,040
-55,490	61,716	0,776	0,554
-54,476	800,000	5,334	12,192
-53,461	-200,000	17,617	289,224
-52,446	800,000	729,246	2232,456
-51,432	538,020	1645,239	2816,704
-50,417	109,499	1635,365	1405,421
-49,403	75,316	1286,908	973,069
-48,388	31,659	1027,199	632,595
-47,373	20,110	988,947	570,977
-46,359	18,339	976,460	557,945
-45,344	15,348	972,722	546,004
-44,330	15,522	971,294	545,751
-43,315	15,057	969,414	543,154
-42,300	14,989	968,243	542,255
-41,286	15,003	967,558	541,895
-40,271	15,056	966,216	541,294
-39,257	15,056	965,216	540,712
-38,242	14,983	964,659	540,143
-37,227	15,036	963,725	539,770
-36,213	15,050	962,783	539,268
-35,198	15,060	961,749	538,700
-34,184	15,014	961,426	538,348
-33,169	15,035	960,109	537,657
-32,154	15,069	959,383	537,339
-31,140	15,015	958,402	536,592
-30,125	15,053	957,758	536,334
-29,111	15,035	956,917	535,783
-28,096	14,990	956,283	535,264
-27,082	15,053	955,515	535,014
-26,067	15,019	954,872	534,523
-25,052	15,012	954,084	534,037
-24,038	15,048	953,327	533,710
-23,023	15,051	952,625	533,304
-22,009	15,091	951,980	533,051
-20,994	15,051	951,401	532,578
-19,979	15,070	950,824	532,294
-18,965	15,002	950,170	531,688
-17,950	15,054	949,417	531,413
-16,936	14,986	948,889	530,879
-15,921	14,991	948,175	530,474
-14,906	14,891	947,482	529,746
-13,892	14,916	946,920	529,490
-12,877	14,850	946,373	528,956
-11,863	14,888	945,630	528,638
-10,848	14,876	945,190	528,333
-9,833	15,057	944,451	528,474
-8,819	15,005	944,021	528,047
-7,804	14,952	943,352	527,486
-6,790	14,974	942,671	527,154
-5,775	14,927	942,343	526,798
-4,760	15,011	941,529	526,591
-3,746	14,971	940,857	526,065
-2,731	14,868	940,094	525,294
-1,717	14,757	939,701	524,701
-0,702	14,743	938,883	524,181
0,313	14,607	938,336	524,237
1,327	17,821	935,980	532,991
2,342	26,652	792,553	474,668
3,356	23,291	457,541	268,877
4,371	-3,569	313,473	155,747
5,386	-7,655	295,617	142,735
6,400	-9,541	289,269	137,792
7,415	-9,877	286,772	136,261
8,429	-10,171	285,454	135,335
9,444	-10,266	284,324	134,694
10,459	-10,257	283,944	134,511
11,473	-10,333	283,156	134,053
12,488	-10,313	282,752	133,869
13,502	-10,398	282,204	133,515
14,517	-10,185	281,715	133,478
15,531	-10,255	281,361	133,230
16,546	-10,116	280,891	133,130
17,561	-10,180	280,447	132,846
18,575	-10,088	280,164	132,788
19,590	-10,127	279,865	132,597
20,604	-10,257	279,551	132,312
21,619	-10,191	279,100	132,150
22,634	-10,228	278,806	131,964
23,648	-10,204	278,500	131,830
24,663	-10,262	278,339	131,687
25,677	-10,139	278,065	131,662
26,692	-10,336	277,741	131,310
27,707	-10,404	277,500	131,120
28,721	-10,125	277,134	131,200
29,736	-10,376	276,954	130,866
30,750	-10,249	276,505	130,762
31,765	-10,310	276,395	130,640
32,780	-10,381	276,195	130,467
33,794	-10,239	275,822	130,413
34,809	-10,326	275,622	130,224
35,823	-10,162	275,383	130,255
36,838	-10,273	275,223	130,063
37,853	-10,262	274,745	129,836
38,867	-10,315	274,665	129,737
39,882	-10,332	274,422	129,595
40,896	-10,182	274,179	129,608
41,911	-10,235	273,919	129,424
42,926	-10,346	273,676	129,195
43,940	-10,320	273,388	129,072
44,955	-10,474	273,253	128,852
45,969	-10,377	272,946	128,786
46,984	-10,482	272,672	128,548
47,999	-10,552	272,404	128,345
49,013	-10,795	272,278	128,049
50,028	-10,871	271,798	127,741
51,042	-11,072	271,729	127,510
52,057	-11,083	271,344	127,309
53,071	-11,090	271,233	127,239
54,086	-10,825	271,101	127,411
55,101	-10,700	270,977	127,456
56,115	-10,560	270,761	127,473
57,130	-10,205	270,602	127,714
58,144	-10,133	270,288	127,620
59,159	-10,079	270,086	127,563
60,174	-10,139	269,958	127,437
61,188	-10,259	269,639	127,164
62,203	-10,228	269,595	127,160
63,217	-10,328	269,266	126,903
64,232	-10,063	269,024	127,020
65,247	-9,989	268,707	126,926
66,261	-10,145	268,562	126,704
67,276	-10,425	268,368	126,346
68,290	-10,543	268,023	126,064
69,305	-10,539	267,762	125,933
70,320	-10,479	267,632	125,916
71,334	-10,164	267,511	126,135
72,349	-10,154	267,262	126,015
73,363	-10,104	267,001	125,926
74,378	-10,181	266,789	125,745
75,393	-10,260	266,724	125,632
76,407	-10,152	266,368	125,550
77,422	-10,168	266,190	125,441
78,436	-10,151	266,005	125,357
79,451	-10,287	265,780	125,118
80,466	-10,134	265,272	125,005
81,480	-10,252	265,189	124,849
82,495	-10,412	264,991	124,600
83,509	-10,286	264,751	124,589
84,524	-10,628	264,880	124,331
85,539	-10,568	264,266	124,086
86,553	-10,525	264,185	124,075
87,568	-10,353	264,000	124,132
88,582	-10,349	263,826	124,043
89,597	-10,306	263,561	123,945
90,611	-10,016	263,246	124,046
91,626	-10,090	263,299	123,993
92,641	-10,202	263,178	123,825
93,655	-9,854	262,672	123,886
94,670	-10,389	262,624	123,376
95,684	-10,157	262,299	123,419
96,699	-10,154	262,195	123,362
97,714	-10,162	261,989	123,246
98,728	-10,510	261,814	122,844
99,743	-10,410	261,533	122,790
100,757	-10,274	261,252	122,767
101,772	-10,244	261,197	122,757
102,787	-10,277	260,920	122,587
103,801	-10,076	260,746	122,672
104,816	-10,160	260,582	122,509
105,830	-10,152	260,423	122,431
106,845	-10,163	260,295	122,350
107,860	-10,172	260,059	122,221
108,874	-10,250	259,877	122,056
109,889	-10,101	259,705	122,095
110,903	-10,309	259,414	121,764
111,918	-10,332	259,282	121,671
112,933	-10,141	258,938	121,667
113,947	-9,957	258,905	121,802
114,962	-10,220	258,818	121,519
115,976	-10,334	258,603	121,308
116,991	-10,111	258,329	121,364
118,006	-10,235	258,093	121,134
119,020	-10,053	257,981	121,229
120,035	-10,022	257,801	121,161
121,049	-10,169	257,777	121,010
122,064	-10,057	257,432	120,935
123,079	-10,202	257,347	120,758
124,093	-10,322	257,058	120,507
125,108	-10,413	256,800	120,296
126,122	-10,505	256,530	120,079
127,137	-10,578	256,362	119,927
128,151	-10,643	256,363	119,860
129,166	-10,420	256,070	119,905
130,181	-10,351	255,823	119,838
131,195	-10,437	255,483	119,594
132,210	-10,336	255,467	119,664
133,224	-10,201	255,297	119,690
134,239	-10,175	255,109	119,613
135,254	-10,175	255,021	119,562
136,268	-10,249	254,693	119,334
137,283	-10,469	254,351	118,973
138,297	-10,516	254,156	118,831
139,312	-10,583	253,887	118,637
140,327	-10,330	253,935	118,866
141,341	-10,114	253,965	119,055
142,356	-10,178	253,713	118,872
143,370	-9,953	253,496	118,952
144,385	-10,073	253,182	118,692
145,400	-10,130	253,125	118,605
146,414	-9,969	253,017	118,682
147,429	-10,088	252,752	118,445
148,443	-10,001	252,574	118,426
149,458	-9,931	252,278	118,336
150,473	-9,836	252,228	118,383
151,487	-9,929	251,942	118,159
152,502	-9,886	251,767	118,103
153,516	-10,120	251,680	117,853
154,531	-9,858	251,584	118,020
155,546	-9,942	251,147	117,733
156,560	-10,041	251,027	117,582
157,575	-10,291	250,895	117,298
158,589	-10,148	250,683	117,310
159,604	-9,982	250,506	117,357
160,619	-9,745	250,239	117,422
161,633	-9,981	250,249	117,216
162,648	-9,719	250,093	117,354
163,662	-10,038	250,032	117,046
164,677	-9,950	249,757	116,981
165,692	-10,022	249,555	116,815
166,706	-9,881	249,415	116,857
167,721	-9,886	249,191	116,738
168,735	-9,952	249,074	116,618
169,750	-10,237	249,041	116,353
170,764	-9,851	248,760	116,534
171,779	-9,877	248,587	116,421
172,794	-9,943	248,476	116,303
173,808	-9,902	248,125	116,163
174,823	-10,306	247,918	115,718
175,837	-10,701	247,670	115,263
176,852	-10,411	247,757	115,534
177,867	-10,074	247,590	115,727
178,881	-10,086	247,439	115,637
179,896	-9,849	247,302	115,761
180,910	-9,932	247,133	115,602
181,925	-10,071	246,910	115,372
182,940	-9,952	246,729	115,376
183,954	-9,978	246,533	115,252
184,969	-9,988	246,400	115,171
185,983	-9,987	246,376	115,150
186,998	-9,827	246,065	115,128
188,013	-9,692	245,836	115,122
189,027	-9,805	245,697	114,953
190,042	-9,756	245,428	114,858
191,056	-10,091	245,346	114,532
192,071	-9,841	245,093	114,610
193,086	-9,961	245,022	114,467
194,100	-9,950	244,873	114,397
195,115	-9,939	244,839	114,380
196,129	-9,981	244,463	114,160
197,144	-9,999	244,278	114,048
198,159	-9,880	244,164	114,083
199,173	-9,863	243,938	113,980
200,188	-9,899	243,758	113,857
201,202	-10,065	243,564	113,620
202,217	-10,541	243,243	113,070
203,232	-10,510	243,013	112,979
204,246	-10,148	243,186	113,345
205,261	-9,626	242,891	113,625
206,275	-10,242	242,732	113,037
207,290	-5,309	244,656	117,977
208,304	1,683	246,719	124,738
209,319	4,062	247,152	126,909
210,334	4,060	247,221	126,931
211,348	4,207	246,963	126,908
212,363	3,990	246,790	126,629
213,377	4,320	246,602	126,793
214,392	4,271	246,676	126,779
215,407	4,153	246,415	126,537
216,421	4,199	246,111	126,408
217,436	4,314	246,082	126,475
218,450	4,132	245,891	126,216
219,465	4,145	245,686	126,111
220,480	4,033	245,330	125,826
221,494	3,891	245,230	125,647
222,509	3,797	245,153	125,520
223,523	3,916	245,056	125,556
224,538	3,746	244,868	125,310
225,553	3,787	244,642	125,217
226,567	3,636	244,466	124,992
227,582	3,701	244,294	124,946
228,596	3,994	244,047	125,047
229,611	3,790	243,949	124,819
230,626	3,496	243,934	124,562
231,640	3,794	243,552	124,597
232,655	3,814	243,543	124,598
233,669	3,668	243,306	124,347
234,684	3,465	243,242	124,138
235,699	3,732	243,201	124,323
236,713	4,050	242,851	124,390
237,728	3,759	242,678	124,055
238,742	3,647	242,568	123,898
239,757	3,541	242,380	123,705
240,772	3,703	242,245	123,756
241,786	3,756	242,026	123,675
242,801	3,670	241,928	123,545
243,815	3,595	241,953	123,487
244,830	3,831	241,606	123,488
245,844	3,975	241,326	123,450
246,859	3,819	241,251	123,275
247,874	3,716	241,214	123,163
248,888	3,725	241,113	123,107
249,903	3,947	240,838	123,134
250,917	3,762	240,758	122,933
251,932	3,997	240,406	122,931
252,947	3,809	240,401	122,767
253,961	3,725	240,253	122,613
254,976	3,583	239,879	122,298
255,990	3,786	239,851	122,435
257,005	3,720	239,726	122,308
258,020	3,973	239,467	122,366
259,034	3,794	239,433	122,196
260,049	3,994	239,167	122,207
261,063	3,808	239,028	121,977
262,078	3,797	239,028	121,958
263,093	3,916	238,882	121,967
264,107	3,814	238,719	121,793
265,122	3,581	238,498	121,485
266,136	4,002	238,287	121,699
267,151	3,852	238,201	121,526
268,166	3,795	238,002	121,368
269,180	3,855	237,813	121,308
270,195	3,907	237,736	121,300
271,209	3,912	237,605	121,226
272,224	3,795	237,326	120,980
273,239	3,473	237,352	120,729
274,253	3,818	237,000	120,811
275,268	3,734	236,927	120,697
276,282	3,695	236,951	120,668
277,297	3,602	236,511	120,360
278,312	3,339	236,549	120,162
279,326	3,996	236,521	120,652
280,341	3,744	236,216	120,289
281,355	3,830	236,039	120,255
282,370	3,659	236,033	120,108
283,384	3,639	235,809	119,967
284,399	3,576	235,617	119,810
285,414	3,764	235,384	119,827
286,428	3,671	235,266	119,684
287,443	3,619	235,089	119,543
288,457	3,911	235,031	119,730
289,472	3,890	234,873	119,622
290,487	3,747	234,673	119,399
291,501	3,613	234,403	119,147
292,516	3,685	234,259	119,119
293,530	3,520	234,301	119,001
294,545	3,809	234,274	119,201
295,560	3,669	234,123	119,005
296,574	3,907	233,846	119,038
297,589	3,818	233,638	118,853
298,603	3,978	233,637	118,965
299,618	3,884	233,503	118,814
300,633	3,960	233,339	118,778
301,647	3,870	233,170	118,612
302,662	4,023	233,192	118,731
303,676	4,003	232,926	118,570
304,691	4,017	232,716	118,463
305,706	3,879	232,520	118,246
306,720	3,914	232,364	118,184
307,735	3,708	232,350	118,007
308,749	3,776	232,004	117,874
309,764	3,682	231,837	117,706
310,779	3,696	231,653	117,613
311,793	3,705	231,656	117,611
312,808	3,587	231,423	117,392
313,822	3,517	231,250	117,240
314,837	3,574	231,079	117,186
315,852	3,601	231,039	117,176
316,866	3,843	231,051	117,357
317,881	3,809	230,777	117,181
318,895	4,124	230,564	117,302
319,910	3,746	230,348	116,894
320,925	3,688	230,247	116,789
321,939	4,003	230,099	116,943
322,954	3,981	230,038	116,884
323,968	4,073	229,878	116,862
324,983	3,761	229,772	116,562
325,997	3,913	229,554	116,556
327,012	3,820	229,462	116,428
328,027	3,981	229,426	116,522
329,041	4,153	229,372	116,614
330,056	4,392	229,141	116,666
331,070	4,229	229,011	116,467
332,085	3,827	228,744	116,018
333,100	3,858	228,589	115,952
334,114	3,893	228,280	115,811
335,129	4,068	228,346	115,966
336,143	4,113	228,038	115,833
337,158	4,066	228,131	115,835
338,173	3,966	227,834	115,598
339,187	3,778	227,773	115,416
340,202	3,806	227,598	115,338
341,216	3,903	227,353	115,276
342,231	3,653	227,170	114,986
343,246	3,700	227,081	114,966
344,260	3,903	226,967	115,050
345,275	3,761	226,803	114,850
346,289	3,744	226,636	114,742
347,304	3,747	226,353	114,591
348,319	3,524	226,290	114,383
349,333	3,414	226,008	114,149
350,348	3,299	225,946	114,021
351,362	3,270	225,743	113,887
352,377	3,080	225,603	113,665
353,392	2,755	225,434	113,328
354,406	2,834	225,219	113,269
355,421	194,691	1322,138	1395,994
356,435	155,998	1455,764	1395,978
