DTS Sentinel unit serial number:	SN410029Multiplexer serial number:	ORYXHardware model number:	OX2-SRSoftware version number:	ORYX F/W v4,00 Oryx Data Collector v3.7.2.0data status	okinstallation	B5 Nyhavnadifferential loss correction	single-endedforward channel	channel 2reverse channel	N/Adate	2023/12/14time	05:52:13forward acquisition time	300,00reverse acquisition time	0,00gamma	499,1914k internal	0,3157k external	0,3157temperature offset calibration	1,0000default loss term (dB/km)	0,3820temperature slope calibration	1,0000multiplexer offset coefficient	1,0000multiplexer slope coefficient	1,0000fibre end	0,00T internal ref (°C)	7,67T ext. ref 1 (°C)	-8,80T ext. ref 2 (°C)	-8,87length (m)	temperature (°C)	Stokes	anti-Stokes-744,400	-125,269	0,031	-0,003
-743,385	-165,270	-0,435	-0,014
-742,371	34,994	0,199	0,128
-741,356	-137,669	-0,309	0,025
-740,342	-85,803	0,166	0,038
-739,327	-119,829	-0,464	-0,058
-738,312	-12,072	0,207	0,100
-737,298	-2,632	-0,328	-0,169
-736,283	55,080	0,075	0,053
-735,269	-114,957	-0,462	-0,064
-734,254	-40,773	0,023	-0,009
-733,239	-5,034	-0,648	-0,327
-732,225	-95,477	0,211	0,041
-731,210	-118,212	-0,040	0,005
-730,196	-91,246	0,086	-0,018
-729,181	-41,269	-0,185	0,070
-728,167	73,276	-0,080	0,062
-727,152	-68,076	-0,030	0,009
-726,137	61,270	-0,137	0,100
-725,123	117,661	-0,096	-0,087
-724,108	800,000	0,055	-0,140
-723,094	-34,699	-0,170	-0,068
-722,079	800,000	0,033	-0,072
-721,064	9,574	0,089	-0,050
-720,050	800,000	-0,013	-0,044
-719,035	380,777	0,027	-0,041
-718,021	-148,178	-0,090	-0,005
-717,006	-148,587	0,019	-0,001
-715,991	800,000	-0,063	-0,146
-714,977	-87,859	-0,149	0,033
-713,962	-200,000	0,007	-0,029
-712,948	42,772	0,044	0,030
-711,933	-200,000	0,081	0,000
-710,918	18,676	-0,031	-0,018
-709,904	412,021	-0,071	-0,112
-708,889	-200,000	-0,034	-0,112
-707,875	-200,000	-0,034	-0,139
-706,860	29,271	0,029	-0,018
-705,845	-117,699	0,060	0,008
-704,831	98,963	-0,055	0,047
-703,816	309,614	0,076	0,105
-702,802	191,822	0,086	-0,096
-701,787	800,000	-0,029	-0,079
-700,772	62,024	-0,118	0,087
-699,758	345,401	0,016	0,023
-698,743	507,215	0,049	0,085
-697,729	-146,865	0,161	0,010
-696,714	34,216	0,076	0,049
-695,699	328,165	-0,089	-0,126
-694,685	-186,462	-0,087	-0,001
-693,670	-107,069	-0,187	0,030
-692,656	800,000	-0,077	-0,205
-691,641	273,505	-0,050	-0,066
-690,627	21,630	-0,080	-0,048
-689,612	78,899	-0,142	-0,112
-688,597	294,411	-0,085	-0,114
-687,583	800,000	-0,056	-0,129
-686,568	643,216	0,006	0,012
-685,554	73,028	-0,103	-0,079
-684,539	64,650	-0,084	-0,062
-683,524	-156,271	0,117	0,005
-682,510	-200,000	-0,016	-0,088
-681,495	271,319	-0,061	0,079
-680,481	460,565	-0,047	-0,077
-679,466	277,069	-0,047	-0,062
-678,451	35,570	0,043	0,028
-677,437	-96,850	-0,107	-0,020
-676,422	-28,836	-0,104	-0,044
-675,408	187,281	-0,086	-0,094
-674,393	-155,773	0,101	-0,005
-673,378	266,953	0,046	0,059
-672,364	668,241	-0,031	0,059
-671,349	277,139	0,041	-0,054
-670,335	65,041	0,031	0,023
-669,320	-70,430	0,082	0,023
-668,305	-107,762	-0,024	0,004
-667,291	-16,096	-0,113	-0,053
-666,276	107,950	0,046	-0,040
-665,262	-75,382	-0,052	-0,013
-664,247	-200,000	0,046	-0,150
-663,232	-28,174	0,054	-0,023
-662,218	-80,176	0,102	0,025
-661,203	-121,068	-0,059	0,007
-660,189	-200,000	-0,006	0,080
-659,174	-200,000	-0,004	-0,092
-658,159	-68,737	-0,093	0,026
-657,145	40,139	-0,019	0,012
-656,130	-131,822	-0,141	-0,013
-655,116	-147,816	-0,013	0,001
-654,101	27,314	0,085	-0,052
-653,086	-200,000	0,012	-0,048
-652,072	47,561	-0,067	-0,046
-651,057	-55,263	-0,153	0,050
-650,043	800,000	-0,097	-0,205
-649,028	-121,827	0,115	0,014
-648,014	-200,000	-0,042	0,167
-646,999	800,000	-0,063	0,152
-645,984	-13,713	0,086	0,041
-644,970	-53,489	-0,123	0,041
-643,955	-200,000	-0,009	-0,087
-642,941	-175,215	-0,061	0,001
-641,926	122,762	-0,100	-0,092
-640,911	-200,000	0,017	-0,073
-639,897	450,096	0,011	0,018
-638,882	-91,084	0,154	0,032
-637,868	-61,525	-0,028	-0,008
-636,853	47,696	-0,051	-0,035
-635,838	-35,093	-0,103	0,041
-634,824	-200,000	0,025	-0,126
-633,809	85,364	0,081	0,065
-632,795	-76,016	0,108	0,028
-631,780	800,000	-0,005	-0,015
-630,765	20,397	-0,056	-0,033
-629,751	-180,268	-0,092	0,001
-628,736	650,580	-0,044	-0,083
-627,722	-200,000	-0,030	-0,106
-626,707	143,200	0,071	0,069
-625,692	-94,185	0,103	0,020
-624,678	-200,000	0,003	-0,076
-623,663	800,000	0,022	-0,068
-622,649	-200,000	-0,013	-0,045
-621,634	-200,000	0,029	0,116
-620,619	800,000	0,062	-0,188
-619,605	-200,000	0,000	0,126
-618,590	-200,000	0,011	0,054
-617,576	109,179	-0,077	0,068
-616,561	-200,000	0,010	-0,108
-615,546	175,259	-0,062	-0,066
-614,532	-200,000	0,035	-0,118
-613,517	697,087	0,032	0,062
-612,503	78,966	-0,081	-0,063
-611,488	234,700	-0,032	-0,039
-610,474	-200,000	0,005	-0,043
-609,459	258,392	-0,025	-0,031
-608,444	-68,284	-0,130	-0,037
-607,430	103,940	-0,011	-0,009
-606,415	119,180	0,044	0,040
-605,401	146,977	0,054	-0,054
-604,386	59,593	0,131	0,094
-603,371	-200,000	0,005	0,019
-602,357	-200,000	0,015	-0,170
-601,342	-200,000	-0,039	-0,134
-600,328	8,726	-0,165	-0,091
-599,313	-200,000	-0,014	-0,088
-598,298	449,511	0,042	0,068
-597,284	-200,000	-0,003	-0,083
-596,269	-29,858	0,054	-0,023
-595,255	-97,930	-0,014	-0,003
-594,240	800,000	0,053	-0,125
-593,225	-200,000	-0,005	0,120
-592,211	-200,000	0,003	-0,047
-591,196	228,045	-0,033	-0,040
-590,182	-200,000	-0,001	0,113
-589,167	43,792	0,087	0,058
-588,152	800,000	-0,020	0,061
-587,138	26,452	0,022	0,013
-586,123	-200,000	-0,005	-0,076
-585,109	800,000	-0,026	0,059
-584,094	800,000	0,038	-0,104
-583,079	784,879	0,039	-0,078
-582,065	101,957	-0,068	0,058
-581,050	-109,002	-0,095	-0,015
-580,036	11,156	-0,069	-0,039
-579,021	800,000	-0,049	-0,125
-578,006	58,324	-0,018	-0,013
-576,992	-200,000	0,009	-0,046
-575,977	22,028	0,054	0,032
-574,963	800,000	0,014	-0,038
-573,948	108,807	0,045	-0,039
-572,934	-16,409	-0,074	-0,034
-571,919	-108,607	0,039	0,006
-570,904	181,152	-0,021	-0,022
-569,890	131,190	0,112	-0,106
-568,875	-37,455	-0,090	-0,035
-567,861	262,599	-0,033	0,041
-566,846	800,000	0,072	0,202
-565,831	-200,000	0,013	-0,061
-564,817	-200,000	0,015	-0,193
-563,802	-200,000	0,003	-0,056
-562,788	-200,000	0,029	0,126
-561,773	9,613	0,048	-0,027
-560,758	40,496	-0,085	0,056
-559,744	321,775	0,085	0,119
-558,729	488,976	0,052	-0,087
-557,715	-109,417	-0,089	0,014
-556,700	-103,161	-0,047	0,008
-555,685	-36,939	-0,120	-0,047
-554,671	5,022	0,046	0,025
-553,656	-200,000	0,014	0,064
-552,642	800,000	0,064	0,182
-551,627	-200,000	-0,016	0,068
-550,612	-200,000	0,010	-0,123
-549,598	800,000	-0,027	0,088
-548,583	-67,919	-0,143	0,041
-547,569	-128,302	-0,039	0,004
-546,554	85,505	-0,055	0,044
-545,539	32,489	-0,051	0,032
-544,525	186,808	-0,119	0,130
-543,510	-101,001	0,092	0,016
-542,496	126,682	0,042	-0,039
-541,481	-155,220	-0,066	-0,003
-540,466	-126,242	-0,024	-0,003
-539,452	800,000	0,039	0,106
-538,437	577,519	0,072	0,129
-537,423	800,000	0,053	-0,125
-536,408	-200,000	-0,042	-0,151
-535,393	-9,689	0,040	-0,020
-534,379	-25,352	-0,107	-0,046
-533,364	-69,060	0,101	0,028
-532,350	48,545	-0,036	-0,024
-531,335	-200,000	-0,001	0,101
-530,321	32,333	-0,048	-0,030
-529,306	-15,012	-0,067	0,031
-528,291	118,103	-0,084	-0,076
-527,277	-101,311	0,027	0,005
-526,262	82,511	-0,063	0,050
-525,248	-200,000	-0,017	0,125
-524,233	343,031	0,108	0,155
-523,218	-200,000	-0,001	0,035
-522,204	87,047	0,041	0,033
-521,189	-102,509	-0,044	-0,008
-520,175	-200,000	0,075	0,257
-519,160	345,765	-0,127	-0,183
-518,145	-58,983	-0,097	0,030
-517,131	-200,000	-0,026	-0,156
-516,116	800,000	0,046	0,093
-515,102	175,345	0,032	0,034
-514,087	306,676	0,054	0,074
-513,072	-200,000	-0,028	-0,156
-512,058	-200,000	0,001	0,039
-511,043	-200,000	0,000	0,037
-510,029	-32,507	0,055	-0,022
-509,014	38,007	-0,053	0,034
-507,999	800,000	0,013	0,033
-506,985	-73,144	-0,058	-0,016
-505,970	-200,000	-0,004	-0,024
-504,956	-200,000	-0,016	-0,130
-503,941	242,632	0,051	0,063
-502,926	-200,000	-0,002	-0,014
-501,912	800,000	0,031	0,095
-500,897	-88,347	-0,051	-0,011
-499,883	33,636	0,039	0,025
-498,868	-159,966	-0,030	-0,001
-497,853	101,504	-0,055	-0,047
-496,839	203,030	0,022	-0,025
-495,824	541,214	0,039	-0,068
-494,810	-200,000	0,004	0,035
-493,795	751,418	0,019	-0,037
-492,781	180,198	-0,112	0,120
-491,766	-62,306	-0,122	-0,037
-490,751	800,000	0,022	0,068
-489,737	-152,460	0,055	-0,003
-488,722	79,623	0,097	0,076
-487,708	800,000	-0,024	-0,065
-486,693	45,230	-0,040	-0,027
-485,678	-200,000	0,014	0,072
-484,664	-31,407	0,130	0,053
-483,649	-96,991	-0,212	0,040
-482,635	800,000	-0,021	0,050
-481,620	-101,108	0,033	0,006
-480,605	442,556	0,081	0,130
-479,591	-165,463	0,131	0,004
-478,576	-81,043	-0,164	-0,039
-477,562	-19,351	-0,058	0,026
-476,547	-200,000	0,002	0,078
-475,532	-97,614	0,025	-0,005
-474,518	-50,286	0,149	-0,051
-473,503	274,817	0,100	-0,130
-472,489	-5,973	-0,044	-0,022
-471,474	-200,000	0,033	-0,230
-470,459	262,030	-0,125	-0,158
-469,445	-200,000	0,017	0,063
-468,430	262,302	0,035	0,045
-467,416	-200,000	0,016	0,114
-466,401	420,033	-0,051	0,079
-465,386	-26,146	0,086	-0,037
-464,372	138,479	-0,092	-0,088
-463,357	262,085	-0,034	-0,044
-462,343	611,664	-0,047	-0,085
-461,328	46,940	-0,018	-0,012
-460,313	800,000	0,058	0,162
-459,299	637,680	0,046	0,085
-458,284	-200,000	0,033	0,226
-457,270	-49,504	-0,013	-0,005
-456,255	143,690	-0,050	-0,049
-455,241	-200,000	0,026	0,100
-454,226	-93,384	-0,204	-0,041
-453,211	-200,000	0,014	-0,108
-452,197	13,335	0,058	0,033
-451,182	800,000	0,040	0,119
-450,168	800,000	0,032	0,095
-449,153	-200,000	-0,052	-0,000
-448,138	-200,000	0,015	-0,068
-447,124	-141,439	-0,095	0,007
-446,109	-200,000	0,030	0,110
-445,095	28,659	0,132	-0,081
-444,080	292,704	0,125	0,166
-443,065	-160,175	-0,108	0,004
-442,051	-58,916	0,115	-0,036
-441,036	-188,166	0,057	0,001
-440,022	-90,945	-0,069	-0,014
-439,007	167,087	-0,036	0,037
-437,992	-0,148	-0,025	0,013
-436,978	800,000	-0,025	0,060
-435,963	43,390	-0,046	0,031
-434,949	422,397	-0,049	-0,077
-433,934	800,000	-0,060	-0,165
-432,919	-165,502	-0,042	-0,001
-431,905	-28,472	-0,014	0,006
-430,890	800,000	0,028	0,060
-429,876	-2,176	0,186	0,095
-428,861	221,171	-0,041	-0,048
-427,846	-200,000	-0,027	-0,108
-426,832	157,206	-0,040	-0,041
-425,817	222,667	0,047	-0,055
-424,803	-111,709	-0,178	0,026
-423,788	800,000	-0,046	0,099
-422,773	-200,000	-0,013	-0,052
-421,759	-200,000	0,006	-0,102
-420,744	273,168	-0,047	0,060
-419,730	195,127	0,077	0,085
-418,715	681,465	0,029	-0,055
-417,701	165,251	-0,013	0,013
-416,686	32,312	0,071	0,045
-415,671	-41,326	0,154	0,057
-414,657	-198,962	0,118	-0,000
-413,642	800,000	-0,012	-0,026
-412,628	800,000	-0,005	-0,013
-411,613	-200,000	-0,001	-0,077
-410,598	-200,000	-0,001	-0,021
-409,584	-10,196	-0,195	0,094
-408,569	-153,852	0,166	-0,008
-407,555	-10,744	0,052	0,025
-406,540	800,000	-0,072	0,166
-405,525	-132,129	-0,206	0,019
-404,511	-44,904	-0,131	0,047
-403,496	-80,613	-0,243	0,058
-402,482	77,309	0,015	-0,011
-401,467	-184,982	-0,099	0,001
-400,452	25,640	0,109	0,066
-399,438	-126,674	-0,090	0,010
-398,423	247,712	0,046	-0,057
-397,409	-52,259	-0,165	-0,055
-396,394	43,326	0,046	0,030
-395,379	-146,861	0,118	0,007
-394,365	800,000	0,020	-0,042
-393,350	800,000	-0,057	0,147
-392,336	16,641	0,053	-0,031
-391,321	137,315	0,049	0,047
-390,306	-47,936	-0,102	0,036
-389,292	-200,000	0,019	-0,075
-388,277	800,000	-0,016	0,038
-387,263	-109,470	0,054	0,008
-386,248	89,108	0,127	0,103
-385,233	775,916	-0,025	0,049
-384,219	423,670	0,040	-0,063
-383,204	514,512	-0,058	-0,098
-382,190	533,656	0,058	-0,099
-381,175	-200,000	0,023	-0,148
-380,160	86,732	-0,088	-0,070
-379,146	322,428	0,100	0,139
-378,131	-200,000	0,041	0,271
-377,117	-200,000	0,006	0,029
-376,102	-200,000	-0,030	-0,114
-375,088	87,905	0,048	-0,039
-374,073	-15,276	0,027	-0,012
-373,058	-200,000	0,002	0,053
-372,044	285,377	0,078	0,103
-371,029	148,348	0,077	0,075
-370,015	658,488	-0,030	-0,057
-369,000	4,914	0,058	0,031
-367,985	25,043	-0,062	0,038
-366,971	572,369	0,036	0,064
-365,956	-200,000	-0,013	0,087
-364,942	800,000	-0,050	0,106
-363,927	415,765	-0,087	-0,134
-362,912	-200,000	-0,141	0,000
-361,898	-200,000	0,016	-0,053
-360,883	5,020	0,046	0,025
-359,869	-148,029	-0,061	0,004
-358,854	-138,874	0,073	-0,006
-357,839	248,281	0,049	0,060
-356,825	-71,438	-0,041	0,011
-355,810	-69,598	0,104	0,029
-354,796	-200,000	-0,013	-0,066
-353,781	-200,000	0,001	-0,092
-352,766	800,000	0,054	-0,134
-351,752	71,861	-0,087	-0,066
-350,737	4,505	0,127	-0,068
-349,723	-167,308	0,044	0,001
-348,708	-111,497	-0,163	0,024
-347,693	-200,000	-0,015	-0,176
-346,679	-46,607	0,015	0,005
-345,664	108,048	-0,127	-0,110
-344,650	-67,884	0,060	0,017
-343,635	-200,000	-0,010	-0,073
-342,620	800,000	0,051	0,107
-341,606	80,659	-0,014	0,011
-340,591	-106,040	-0,204	0,033
-339,577	-152,416	-0,141	-0,007
-338,562	443,720	0,016	0,025
-337,548	157,402	0,030	-0,030
-336,533	38,816	0,062	-0,040
-335,518	22,139	0,132	-0,078
-334,504	639,215	0,035	-0,064
-333,489	246,225	0,055	0,067
-332,475	667,735	-0,038	-0,072
-331,460	-200,000	0,022	-0,086
-330,445	398,021	-0,027	-0,041
-329,431	48,955	-0,013	0,009
-328,416	800,000	-0,054	0,135
-327,402	-25,033	0,065	-0,028
-326,387	-59,901	-0,090	0,028
-325,372	-200,000	-0,029	-0,114
-324,358	-9,198	0,164	0,079
-323,343	800,000	-0,035	-0,071
-322,329	-200,000	-0,003	-0,072
-321,314	-121,412	0,057	-0,007
-320,299	-56,479	0,090	-0,029
-319,285	490,118	0,112	-0,186
-318,270	800,000	0,003	-0,008
-317,256	-14,573	-0,098	0,046
-316,241	350,337	0,021	-0,030
-315,226	162,688	0,058	0,059
-314,212	273,488	0,079	0,101
-313,197	-200,000	-0,019	0,076
-312,183	377,598	-0,067	0,099
-311,168	484,833	-0,054	0,089
-310,153	-165,339	-0,134	-0,004
-309,139	70,758	-0,062	-0,046
-308,124	133,362	-0,050	-0,047
-307,110	358,127	-0,062	0,090
-306,095	22,827	0,142	-0,084
-305,080	537,790	-0,059	0,102
-304,066	-56,000	-0,110	0,035
-303,051	335,144	0,009	-0,012
-302,037	-61,544	-0,065	-0,020
-301,022	-165,929	0,113	0,003
-300,008	-12,328	0,073	0,034
-298,993	-132,431	-0,043	0,004
-297,978	170,134	0,098	0,101
-296,964	800,000	-0,072	-0,168
-295,949	252,233	0,068	-0,084
-294,935	113,386	-0,026	-0,023
-293,920	-200,000	-0,021	-0,092
-292,905	26,413	0,137	0,083
-291,891	174,106	0,034	0,035
-290,876	-127,840	-0,202	-0,021
-289,862	-200,000	-0,018	0,076
-288,847	-200,000	0,012	0,089
-287,832	-23,057	-0,052	-0,023
-286,818	-200,000	-0,016	0,092
-285,803	442,187	0,089	0,141
-284,789	-112,070	0,111	0,016
-283,774	-200,000	0,029	0,176
-282,759	263,093	0,036	0,046
-281,745	-91,409	-0,134	0,027
-280,730	368,933	-0,030	0,044
-279,716	107,325	0,159	0,137
-278,701	105,656	-0,047	0,040
-277,686	142,035	0,014	0,013
-276,672	-200,000	-0,021	-0,149
-275,657	23,069	-0,104	-0,062
-274,643	222,402	-0,062	0,073
-273,628	800,000	-0,069	-0,152
-272,613	54,227	0,022	0,015
-271,599	58,094	0,141	0,100
-270,584	-200,000	-0,008	0,081
-269,570	-200,000	0,005	0,022
-268,555	216,421	0,076	0,088
-267,540	-200,000	-0,020	-0,164
-266,526	216,997	-0,067	-0,078
-265,511	84,970	0,073	-0,058
-264,497	56,713	0,094	-0,066
-263,482	-27,711	0,065	-0,027
-262,467	267,641	0,040	-0,051
-261,453	800,000	0,074	0,195
-260,438	51,212	-0,052	-0,036
-259,424	229,421	-0,117	-0,139
-258,409	-3,866	0,085	-0,042
-257,395	654,906	0,020	0,038
-256,380	-26,696	-0,052	0,022
-255,365	220,712	0,122	0,141
-254,351	-99,055	-0,072	0,013
-253,336	-102,441	0,108	0,018
-252,322	-29,414	-0,146	0,060
-251,307	-129,264	-0,059	-0,006
-250,292	-114,317	-0,054	-0,007
-249,278	-12,431	-0,186	0,088
-248,263	101,441	0,029	0,025
-247,249	800,000	-0,015	-0,032
-246,234	55,820	-0,063	-0,044
-245,219	126,300	0,055	-0,051
-244,205	-154,247	0,162	0,008
-243,190	-13,975	-0,062	-0,029
-242,176	-200,000	0,013	0,061
-241,161	-76,631	-0,097	0,025
-240,146	235,951	0,108	0,130
-239,132	-40,007	-0,073	0,027
-238,117	-95,347	-0,083	-0,016
-237,103	292,617	-0,059	-0,078
-236,088	394,216	0,077	0,116
-235,073	120,907	0,025	-0,023
-234,059	-200,000	0,004	0,108
-233,044	75,979	0,064	0,049
-232,030	-108,446	-0,095	-0,015
-231,015	800,000	0,048	-0,142
-230,000	-200,000	0,003	-0,077
-228,986	384,483	0,029	0,043
-227,971	-88,194	0,096	0,021
-226,957	10,038	0,045	0,024
-225,942	-52,879	0,118	-0,039
-224,927	88,216	0,068	-0,054
-223,913	-74,113	-0,121	-0,031
-222,898	-83,203	-0,090	-0,021
-221,884	97,011	0,082	-0,068
-220,869	-74,032	0,067	0,017
-219,855	-100,951	0,123	0,022
-218,840	286,466	0,030	-0,039
-217,825	-156,286	0,050	0,002
-216,811	-53,643	-0,083	0,027
-215,796	191,800	0,060	0,065
-214,782	608,124	-0,012	-0,021
-213,767	-84,682	-0,052	0,012
-212,752	80,781	0,025	-0,020
-211,738	-200,000	0,005	0,065
-210,723	-88,873	-0,085	0,018
-209,709	-86,120	0,105	0,023
-208,694	-200,000	0,019	0,091
-207,679	-200,000	0,016	0,111
-206,665	543,066	0,028	0,048
-205,650	147,415	0,060	0,058
-204,636	29,803	-0,036	-0,022
-203,621	-28,851	0,085	0,035
-202,606	424,477	-0,024	-0,038
-201,592	577,121	0,070	-0,125
-200,577	-165,644	0,040	0,001
-199,563	77,409	0,079	-0,060
-198,548	226,265	0,050	-0,059
-197,533	15,637	0,119	-0,068
-196,519	11,678	0,010	-0,005
-195,504	-143,236	-0,068	0,005
-194,490	-22,550	0,097	-0,042
-193,475	800,000	-0,018	0,054
-192,460	-45,450	-0,044	-0,016
-191,446	155,990	-0,010	0,010
-190,431	800,000	-0,023	-0,058
-189,417	-200,000	-0,023	-0,163
-188,402	-200,000	0,003	-0,119
-187,387	600,373	0,101	-0,182
-186,373	-200,000	-0,037	-0,127
-185,358	-200,000	0,035	-0,137
-184,344	77,481	-0,023	0,018
-183,329	405,048	-0,050	-0,076
-182,315	36,562	0,052	-0,033
-181,300	-200,000	0,011	0,044
-180,285	-77,995	-0,055	-0,013
-179,271	309,511	-0,076	0,103
-178,256	693,724	-0,032	0,060
-177,242	-109,469	-0,140	-0,021
-176,227	266,373	0,065	-0,082
-175,212	-200,000	0,007	0,057
-174,198	800,000	0,018	-0,042
-173,183	800,000	-0,055	-0,165
-172,169	67,584	0,017	0,012
-171,154	-95,312	0,088	-0,017
-170,139	-200,000	-0,002	0,024
-169,125	-34,253	0,030	-0,012
-168,110	-53,906	-0,032	0,010
-167,096	-200,000	-0,005	-0,087
-166,081	-200,000	-0,021	-0,170
-165,066	210,382	-0,052	-0,059
-164,052	-200,000	0,001	-0,032
-163,037	83,826	0,087	0,069
-162,023	483,868	0,031	0,050
-161,008	442,345	-0,037	0,059
-159,993	-200,000	0,011	0,039
-158,979	5,035	-0,092	-0,049
-157,964	775,810	0,049	0,096
-156,950	211,847	0,015	0,017
-155,935	376,569	0,027	0,041
-154,920	90,550	0,027	-0,021
-153,906	-71,370	0,169	-0,045
-152,891	480,654	0,018	-0,030
-151,877	-101,688	-0,078	-0,014
-150,862	800,000	-0,048	0,133
-149,847	-129,408	-0,094	0,009
-148,833	407,398	0,008	0,013
-147,818	242,822	0,030	-0,036
-146,804	472,992	0,092	0,149
-145,789	-72,275	-0,152	0,040
-144,775	1,106	0,074	0,038
-143,760	-21,242	-0,061	0,027
-142,745	161,563	0,068	-0,068
-141,731	82,804	0,024	0,019
-140,716	-163,824	0,112	-0,004
-139,702	-59,337	-0,082	0,025
-138,687	-65,655	0,027	0,008
-137,672	-134,516	0,124	-0,011
-136,658	-200,000	0,018	0,072
-135,643	195,444	-0,047	-0,052
-134,629	800,000	0,022	-0,065
-133,614	-200,000	-0,010	0,032
-132,599	-24,565	-0,051	-0,022
-131,585	-200,000	-0,006	-0,023
-130,570	534,265	-0,085	-0,146
-129,556	-150,065	-0,140	0,008
-128,541	49,128	0,162	0,109
-127,526	-122,445	-0,039	-0,005
-126,512	449,681	-0,036	-0,057
-125,497	442,266	0,086	-0,137
-124,483	-103,570	0,089	-0,015
-123,468	-200,000	-0,011	-0,042
-122,453	645,702	-0,059	0,109
-121,439	300,114	0,100	-0,132
-120,424	-108,725	-0,130	-0,020
-119,410	294,341	0,039	0,052
-118,395	-34,049	0,068	-0,027
-117,380	-103,539	0,123	0,021
-116,366	-132,658	-0,076	0,007
-115,351	682,950	-0,048	-0,091
-114,337	800,000	-0,035	0,073
-113,322	-200,000	-0,006	-0,033
-112,307	-155,130	0,075	-0,003
-111,293	-70,079	-0,097	-0,026
-110,278	174,054	-0,005	-0,006
-109,264	119,290	-0,024	0,021
-108,249	-200,000	0,031	-0,181
-107,234	760,414	-0,011	0,022
-106,220	-89,629	0,055	-0,011
-105,205	-78,251	0,035	0,009
-104,191	94,838	0,089	0,073
-103,176	-61,170	-0,036	-0,011
-102,162	-87,261	0,016	0,003
-101,147	-200,000	-0,011	0,071
-100,132	171,983	-0,074	0,077
-99,118	153,944	0,052	-0,051
-98,103	-200,000	0,020	0,129
-97,089	-200,000	0,023	-0,079
-96,074	-200,000	0,035	0,145
-95,059	-76,011	-0,050	0,013
-94,045	800,000	-0,026	0,055
-93,030	-4,329	-0,064	0,032
-92,016	425,856	-0,049	0,076
-91,001	-170,072	0,146	-0,004
-89,986	-200,000	-0,021	0,231
-88,972	-57,183	0,097	0,030
-87,957	460,300	-0,024	0,038
-86,943	800,000	0,009	0,019
-85,928	800,000	0,048	-0,107
-84,913	196,611	-0,063	-0,069
-83,899	-187,721	0,068	0,001
-82,884	580,156	0,040	0,071
-81,870	800,000	-0,008	-0,018
-80,855	-28,827	0,279	0,115
-79,840	-61,155	-0,158	0,048
-78,826	-200,000	0,001	-0,017
-77,811	602,470	0,038	-0,068
-76,797	-195,087	0,077	-0,000
-75,782	-53,519	0,079	0,026
-74,767	1,344	0,097	0,050
-73,753	-200,000	0,000	-0,106
-72,738	800,000	-0,032	-0,083
-71,724	-134,272	0,063	-0,006
-70,709	14,456	-0,096	0,054
-69,694	-200,000	-0,018	0,101
-68,680	-93,991	0,074	-0,014
-67,665	-200,000	0,008	0,050
-66,651	589,786	0,048	0,086
-65,636	800,000	0,061	-0,126
-64,622	-200,000	0,017	-0,150
-63,607	-30,958	-0,166	-0,067
-62,592	279,876	-0,045	0,058
-61,578	-123,931	-0,094	0,010
-60,563	800,000	-0,030	0,077
-59,549	518,521	0,027	0,045
-58,534	73,766	-2,757	-2,073
-57,519	57,870	0,445	-0,312
-56,505	-200,000	-1,680	-5,447
-55,490	480,861	1,212	1,981
-54,476	800,000	5,336	11,413
-53,461	-200,000	22,488	348,829
-52,446	800,000	762,056	2285,156
-51,432	508,293	1644,164	2750,415
-50,417	95,663	1604,722	1313,543
-49,403	63,762	1262,061	908,762
-48,388	22,400	1014,632	593,753
-47,373	19,258	982,274	564,456
-46,359	12,632	969,344	535,387
-45,344	8,360	965,957	519,541
-44,330	8,764	964,035	519,804
-43,315	7,821	962,174	515,708
-42,300	7,709	961,138	514,766
-41,286	7,722	960,330	514,356
-40,271	7,716	959,313	513,770
-39,257	7,747	958,159	513,233
-38,242	7,735	957,393	512,765
-37,227	7,733	956,557	512,290
-36,213	7,735	955,749	511,841
-35,198	7,702	955,233	511,438
-34,184	7,773	954,123	511,054
-33,169	7,668	953,456	510,338
-32,154	7,717	952,466	509,946
-31,140	7,718	951,641	509,486
-30,125	7,786	950,945	509,312
-29,111	7,691	950,068	508,517
-28,096	7,751	949,343	508,301
-27,082	7,719	948,844	507,911
-26,067	7,704	948,108	507,449
-25,052	7,690	947,164	506,878
-24,038	7,600	946,526	506,228
-23,023	7,603	945,982	505,927
-22,009	7,707	945,324	505,887
-20,994	7,729	944,671	505,590
-19,979	7,691	944,082	505,133
-18,965	7,654	943,245	504,547
-17,950	7,754	942,514	504,453
-16,936	7,639	942,072	503,832
-15,921	7,636	941,547	503,520
-14,906	7,583	940,793	502,930
-13,892	7,617	940,066	502,627
-12,877	7,629	939,418	502,301
-11,863	7,554	938,940	501,786
-10,848	7,593	938,361	501,581
-9,833	7,664	937,942	501,562
-8,819	7,583	937,270	500,927
-7,804	7,636	936,587	500,710
-6,790	7,578	936,057	500,222
-5,775	7,665	935,561	500,211
-4,760	7,664	934,673	499,714
-3,746	7,619	934,387	499,400
-2,731	7,450	933,788	498,526
-1,717	7,444	932,917	498,024
-0,702	7,521	932,202	497,863
0,313	7,253	931,681	497,492
1,327	10,617	929,301	506,759
2,342	19,097	777,114	445,922
3,356	14,000	445,719	248,101
4,371	-11,914	310,794	145,583
5,386	-15,717	293,332	133,567
6,400	-18,003	287,299	128,555
7,415	-18,129	284,924	127,358
8,429	-18,714	282,969	125,904
9,444	-18,772	281,943	125,381
10,459	-18,705	281,537	125,253
11,473	-18,610	280,792	125,003
12,488	-18,625	280,250	124,736
13,502	-18,557	279,873	124,621
14,517	-18,525	279,382	124,423
15,531	-18,489	279,039	124,293
16,546	-18,569	278,731	124,069
17,561	-18,398	278,217	123,992
18,575	-18,356	278,026	123,936
19,590	-18,423	277,509	123,630
20,604	-18,368	277,465	123,653
21,619	-18,438	276,924	123,333
22,634	-18,329	276,504	123,239
23,648	-18,435	276,400	123,081
24,663	-18,399	276,013	122,932
25,677	-18,348	275,755	122,854
26,692	-18,274	275,536	122,816
27,707	-18,402	275,127	122,502
28,721	-18,505	274,870	122,280
29,736	-18,558	274,678	122,133
30,750	-18,359	274,336	122,157
31,765	-18,467	274,086	121,934
32,780	-18,456	273,911	121,855
33,794	-18,615	273,662	121,585
34,809	-18,298	273,423	121,764
35,823	-18,413	273,128	121,515
36,838	-18,222	272,858	121,562
37,853	-18,332	272,688	121,373
38,867	-18,293	272,383	121,262
39,882	-18,284	272,184	121,171
40,896	-18,297	271,883	121,014
41,911	-18,300	271,713	120,925
42,926	-18,263	271,514	120,860
43,940	-18,103	271,016	120,776
44,955	-18,225	270,963	120,629
45,969	-18,462	270,772	120,313
46,984	-18,388	270,566	120,280
47,999	-18,276	270,449	120,320
49,013	-18,134	270,174	120,319
50,028	-18,084	269,962	120,260
51,042	-17,947	269,680	120,249
52,057	-18,216	269,586	119,949
53,071	-18,241	269,439	119,850
54,086	-18,273	269,164	119,688
55,101	-18,082	268,797	119,689
56,115	-18,164	268,597	119,514
57,130	-18,357	268,274	119,183
58,144	-18,458	268,068	118,988
59,159	-18,411	267,723	118,867
60,174	-18,543	267,579	118,672
61,188	-18,420	267,355	118,674
62,203	-18,469	267,210	118,555
63,217	-18,270	266,875	118,578
64,232	-18,518	266,743	118,282
65,247	-18,172	266,347	118,410
66,261	-18,483	266,116	118,015
67,276	-18,372	266,050	118,075
68,290	-18,332	265,920	118,043
69,305	-18,227	265,644	118,006
70,320	-18,120	265,328	117,952
71,334	-18,110	265,048	117,826
72,349	-18,322	264,909	117,562
73,363	-18,350	264,604	117,391
74,378	-18,388	264,413	117,262
75,393	-18,356	264,205	117,188
76,407	-18,431	263,955	116,999
77,422	-18,272	263,663	117,002
78,436	-18,307	263,379	116,834
79,451	-18,158	263,157	116,859
80,466	-18,207	263,090	116,775
81,480	-18,355	262,856	116,528
82,495	-18,335	262,636	116,438
83,509	-18,360	262,446	116,321
84,524	-18,334	262,371	116,301
85,539	-18,264	262,048	116,210
86,553	-18,256	261,775	116,085
87,568	-18,259	261,540	115,968
88,582	-18,437	261,461	115,764
89,597	-18,243	261,136	115,782
90,611	-18,174	261,056	115,798
91,626	-18,072	260,711	115,725
92,641	-18,282	260,638	115,496
93,655	-18,186	260,330	115,434
94,670	-18,212	260,137	115,316
95,684	-18,395	260,032	115,097
96,699	-18,194	259,728	115,129
97,714	-18,389	259,621	114,900
98,728	-18,291	259,469	114,909
99,743	-18,112	259,186	114,931
100,757	-18,315	258,913	114,621
101,772	-18,183	258,742	114,651
102,787	-18,160	258,568	114,584
103,801	-18,119	258,326	114,502
104,816	-18,072	258,067	114,419
105,830	-18,309	258,122	114,225
106,845	-18,259	257,667	114,057
107,860	-18,225	257,601	114,047
108,874	-18,357	257,184	113,737
109,889	-18,234	257,073	113,785
110,903	-18,530	257,045	113,504
111,918	-18,253	256,657	113,564
112,933	-18,143	256,536	113,596
113,947	-18,325	256,456	113,392
114,962	-18,129	256,169	113,426
115,976	-18,427	255,998	113,081
116,991	-18,248	255,694	113,092
118,006	-18,220	255,558	113,046
119,020	-18,329	255,398	112,871
120,035	-18,218	255,229	112,883
121,049	-18,539	255,210	112,586
122,064	-18,370	254,864	112,570
123,079	-18,234	254,459	112,498
124,093	-18,022	254,420	112,654
125,108	-18,164	254,118	112,387
126,122	-18,201	254,056	112,318
127,137	-17,988	253,818	112,387
128,151	-18,242	253,658	112,087
129,166	-18,073	253,290	112,060
130,181	-18,106	253,306	112,028
131,195	-18,083	252,956	111,884
132,210	-18,189	252,671	111,656
133,224	-18,227	252,409	111,498
134,239	-18,303	252,319	111,384
135,254	-18,113	252,141	111,458
136,268	-18,229	252,076	111,320
137,283	-18,070	251,778	111,314
138,297	-18,208	251,744	111,171
139,312	-18,150	251,397	111,057
140,327	-18,014	251,188	111,071
141,341	-18,296	250,928	110,706
142,356	-18,237	250,817	110,698
143,370	-18,244	250,627	110,598
144,385	-18,330	250,460	110,442
145,400	-18,223	250,318	110,460
146,414	-18,199	250,053	110,353
147,429	-18,377	249,816	110,088
148,443	-18,385	249,788	110,059
149,458	-18,170	249,281	110,008
150,473	-18,311	249,512	109,980
151,487	-18,238	249,132	109,865
152,502	-18,237	248,926	109,764
153,516	-18,122	248,650	109,730
154,531	-18,181	248,525	109,616
155,546	-18,147	248,331	109,549
156,560	-18,200	248,189	109,432
157,575	-18,360	248,010	109,209
158,589	-18,271	247,849	109,203
159,604	-18,322	247,611	109,046
160,619	-18,160	247,331	109,048
161,633	-18,181	247,290	109,003
162,648	-18,100	247,100	108,977
163,662	-18,157	246,968	108,862
164,677	-18,188	246,846	108,772
165,692	-18,276	246,551	108,559
166,706	-18,239	246,432	108,528
167,721	-18,345	246,280	108,363
168,735	-18,282	245,996	108,280
169,750	-18,326	245,993	108,233
170,764	-18,174	245,866	108,294
171,779	-18,283	245,709	108,124
172,794	-18,279	245,501	108,027
173,808	-18,150	245,144	107,967
174,823	-18,054	245,057	107,999
175,837	-18,119	244,914	107,872
176,852	-18,243	244,880	107,745
177,867	-18,232	244,598	107,620
178,881	-18,161	244,381	107,574
179,896	-18,060	244,177	107,557
180,910	-18,167	244,021	107,391
181,925	-18,185	243,770	107,256
182,940	-18,237	243,647	107,149
183,954	-18,183	243,420	107,084
184,969	-18,085	243,276	107,092
185,983	-18,090	243,055	106,982
186,998	-18,119	242,913	106,886
188,013	-18,147	242,822	106,813
189,027	-18,281	242,684	106,632
190,042	-18,131	242,334	106,592
191,056	-18,386	242,366	106,388
192,071	-18,100	242,083	106,488
193,086	-18,255	241,924	106,283
194,100	-18,379	241,678	106,064
195,115	-18,177	241,483	106,133
196,129	-18,325	241,428	105,979
197,144	-18,112	241,133	106,013
198,159	-18,248	240,847	105,768
199,173	-18,271	240,820	105,728
200,188	-18,090	240,521	105,734
201,202	-18,188	240,511	105,641
202,217	-18,087	240,329	105,633
203,232	-17,874	240,024	105,662
204,246	-18,317	239,863	105,223
205,261	-18,283	239,644	105,145
206,275	-16,925	240,121	106,445
207,290	-12,533	241,805	110,759
208,304	-5,731	243,646	117,164
209,319	-2,268	244,664	120,484
210,334	-1,360	244,970	121,369
211,348	-0,370	245,210	122,290
212,363	0,034	245,113	122,561
213,377	0,476	245,158	122,935
214,392	0,593	244,961	122,921
215,407	1,194	244,896	123,370
216,421	1,231	244,759	123,320
217,436	1,181	244,562	123,169
218,450	1,051	244,614	123,078
219,465	1,234	244,478	123,147
220,480	1,248	244,287	123,052
221,494	1,059	244,057	122,771
222,509	0,964	243,609	122,458
223,523	0,726	243,546	122,222
224,538	0,521	243,370	121,956
225,553	0,503	243,217	121,853
226,567	0,339	242,986	121,593
227,582	0,491	242,867	121,647
228,596	0,383	242,727	121,477
229,611	0,516	242,545	121,484
230,626	0,610	242,372	121,462
231,640	0,614	242,115	121,326
232,655	0,155	242,060	120,916
233,669	0,457	241,935	121,088
234,684	0,436	241,686	120,935
235,699	0,469	241,646	120,931
236,713	0,327	241,463	120,714
237,728	0,587	241,263	120,813
238,742	0,484	241,100	120,637
239,757	0,525	240,899	120,559
240,772	0,483	240,801	120,466
241,786	0,470	240,626	120,357
242,801	0,349	240,497	120,185
243,815	0,257	240,257	119,980
244,830	0,350	240,190	120,010
245,844	0,295	240,059	119,890
246,859	0,530	239,954	120,015
247,874	0,487	239,706	119,846
248,888	0,388	239,597	119,702
249,903	0,387	239,493	119,638
250,917	0,525	239,211	119,597
251,932	0,481	239,102	119,497
252,947	0,489	238,958	119,420
253,961	0,510	238,772	119,333
254,976	0,651	238,527	119,312
255,990	0,728	238,382	119,291
257,005	0,457	238,325	119,036
258,020	0,692	238,204	119,152
259,034	0,418	238,096	118,870
260,049	0,558	237,816	118,830
261,063	0,558	237,624	118,723
262,078	0,387	237,601	118,566
263,093	0,383	237,231	118,368
264,107	0,454	237,242	118,419
265,122	0,536	237,035	118,370
266,136	0,718	236,932	118,451
267,151	0,659	236,776	118,316
268,166	0,650	236,586	118,204
269,180	0,456	236,347	117,921
270,195	0,586	236,117	117,898
271,209	0,670	236,059	117,924
272,224	0,469	235,906	117,679
273,239	0,610	235,884	117,769
274,253	0,606	235,713	117,669
275,268	0,665	235,451	117,574
276,282	0,702	235,398	117,567
277,297	0,393	235,257	117,244
278,312	0,670	235,038	117,341
279,326	0,428	235,031	117,138
280,341	0,544	234,809	117,107
281,355	0,426	234,731	116,966
282,370	0,628	234,508	117,001
283,384	0,602	234,359	116,896
284,399	0,583	234,092	116,738
285,414	0,543	233,994	116,648
286,428	0,484	233,893	116,541
287,443	0,683	233,700	116,589
288,457	0,572	233,689	116,487
289,472	0,560	233,369	116,308
290,487	0,461	233,398	116,236
291,501	0,496	233,216	116,161
292,516	0,754	232,957	116,221
293,530	0,680	232,761	116,057
294,545	0,708	232,783	116,078
295,560	0,640	232,571	115,910
296,574	0,391	232,451	115,648
297,589	0,664	232,355	115,800
298,603	0,610	232,262	115,702
299,618	0,673	231,947	115,583
300,633	0,760	231,859	115,596
301,647	0,861	231,730	115,599
302,662	0,814	231,614	115,495
303,676	0,946	231,317	115,437
304,691	0,738	231,218	115,218
305,706	0,609	231,118	115,059
306,720	0,954	230,853	115,182
307,735	0,788	230,753	114,994
308,749	0,775	230,719	114,957
309,764	0,990	230,450	114,977
310,779	0,699	230,441	114,740
311,793	0,673	230,238	114,609
312,808	0,727	230,059	114,550
313,822	0,724	229,916	114,467
314,837	0,733	229,758	114,385
315,852	0,852	229,626	114,399
316,866	0,645	229,612	114,225
317,881	0,835	229,243	114,175
318,895	0,910	229,151	114,176
319,910	0,809	228,987	114,007
320,925	0,662	228,900	113,843
321,939	0,791	228,612	113,787
322,954	0,858	228,611	113,827
323,968	0,962	228,371	113,776
324,983	0,899	228,297	113,681
325,997	0,731	228,119	113,456
327,012	0,942	227,902	113,497
328,027	0,979	227,790	113,459
329,041	0,850	227,669	113,291
330,056	0,731	227,722	113,218
331,070	0,846	227,643	113,255
332,085	0,894	227,300	113,111
333,100	0,784	227,075	112,906
334,114	0,871	226,950	112,899
335,129	0,815	226,824	112,784
336,143	0,910	226,669	112,769
337,158	0,846	226,511	112,632
338,173	1,082	226,288	112,687
339,187	0,738	226,406	112,478
340,202	0,955	226,077	112,467
341,216	0,773	226,013	112,289
342,231	0,895	225,827	112,278
343,246	1,024	225,632	112,267
344,260	1,028	225,490	112,190
345,275	1,030	225,473	112,172
346,289	0,888	225,275	111,958
347,304	0,784	225,201	111,835
348,319	1,160	224,980	111,994
349,333	0,940	224,915	111,788
350,348	1,043	224,677	111,736
351,362	0,878	224,637	111,584
352,377	0,994	224,508	111,596
353,392	0,853	224,426	111,441
354,406	1,144	224,061	111,465
355,421	192,947	1311,276	1379,355
356,435	154,548	1443,574	1379,183
