DTS Sentinel unit serial number:	SN410029Multiplexer serial number:	ORYXHardware model number:	OX2-SRSoftware version number:	ORYX F/W v4,00 Oryx Data Collector v3.7.2.0data status	okinstallation	B5 Nyhavnadifferential loss correction	single-endedforward channel	channel 2reverse channel	N/Adate	2023/12/12time	23:47:13forward acquisition time	300,00reverse acquisition time	0,00gamma	499,1914k internal	0,3158k external	0,3158temperature offset calibration	1,0000default loss term (dB/km)	0,3820temperature slope calibration	1,0000multiplexer offset coefficient	1,0000multiplexer slope coefficient	1,0000fibre end	0,00T internal ref (°C)	14,38T ext. ref 1 (°C)	-2,15T ext. ref 2 (°C)	-2,46length (m)	temperature (°C)	Stokes	anti-Stokes-744,400	93,428	0,103	-0,086
-743,385	12,610	-0,157	-0,089
-742,371	800,000	0,036	0,099
-741,356	24,314	-0,188	0,114
-740,342	26,741	0,110	0,068
-739,327	-106,209	-0,404	0,066
-738,312	-168,875	0,185	-0,005
-737,298	-175,073	-0,286	0,006
-736,283	-76,505	0,064	0,017
-735,269	-88,288	-0,190	0,041
-734,254	161,968	0,099	0,103
-733,239	-91,720	-0,534	-0,111
-732,225	-91,166	0,190	0,040
-731,210	59,703	-0,027	-0,019
-730,196	800,000	0,033	0,106
-729,181	-172,970	-0,194	-0,004
-728,167	-2,786	0,080	0,041
-727,152	165,021	0,100	0,104
-726,137	-33,136	-0,060	-0,025
-725,123	13,109	-0,076	-0,043
-724,108	800,000	-0,044	-0,099
-723,094	42,321	0,082	-0,055
-722,079	-44,999	-0,088	-0,032
-721,064	42,405	-0,141	-0,094
-720,050	173,631	0,053	0,057
-719,035	336,298	0,037	-0,053
-718,021	183,704	-0,046	0,050
-717,006	-57,208	-0,183	0,059
-715,991	76,596	-0,144	-0,112
-714,977	525,464	0,024	0,041
-713,962	275,839	-0,077	-0,101
-712,948	800,000	-0,009	-0,027
-711,933	99,051	-0,033	0,028
-710,918	391,716	-0,113	-0,173
-709,904	-200,000	-0,018	-0,116
-708,889	-69,410	-0,178	-0,050
-707,875	-163,638	-0,128	0,004
-706,860	-111,083	-0,059	-0,009
-705,845	800,000	-0,032	-0,076
-704,831	-200,000	-0,014	0,160
-703,816	239,807	0,053	0,065
-702,802	800,000	-0,036	-0,088
-701,787	269,278	0,102	-0,133
-700,772	32,957	-0,144	-0,091
-699,758	-200,000	-0,019	-0,066
-698,743	18,700	-0,156	0,092
-697,729	233,218	-0,029	0,035
-696,714	184,347	0,062	0,067
-695,699	378,433	-0,147	-0,222
-694,685	358,890	-0,089	-0,131
-693,670	250,201	-0,053	0,066
-692,656	-200,000	-0,010	0,102
-691,641	2,057	0,033	-0,018
-690,627	216,125	-0,033	-0,039
-689,612	800,000	-0,025	-0,057
-688,597	800,000	0,091	-0,219
-687,583	-200,000	-0,005	0,053
-686,568	-137,673	-0,127	0,010
-685,554	217,631	0,120	-0,142
-684,539	-94,750	-0,047	0,009
-683,524	-140,297	-0,062	0,005
-682,510	-200,000	-0,007	-0,040
-681,495	178,706	-0,026	0,028
-680,481	-80,594	-0,138	-0,034
-679,466	227,789	0,091	-0,109
-678,451	-85,855	-0,085	-0,019
-677,437	186,319	-0,031	0,034
-676,422	-0,490	0,053	-0,027
-675,408	35,387	0,079	-0,051
-674,393	-200,000	-0,039	0,171
-673,378	157,806	-0,065	-0,066
-672,364	800,000	0,034	-0,097
-671,349	298,934	-0,045	-0,061
-670,335	127,476	-0,008	0,007
-669,320	524,760	-0,074	-0,129
-668,305	800,000	0,036	-0,105
-667,291	-57,003	-0,093	0,030
-666,276	800,000	-0,034	-0,070
-665,262	-200,000	-0,002	-0,008
-664,247	290,254	-0,069	-0,092
-663,232	-200,000	-0,011	0,087
-662,218	800,000	-0,033	-0,070
-661,203	-125,316	-0,129	0,014
-660,189	82,802	0,071	0,056
-659,174	48,776	-0,140	0,096
-658,159	16,719	-0,075	0,043
-657,145	-52,836	-0,087	-0,029
-656,130	-99,838	0,021	-0,004
-655,116	-200,000	-0,001	-0,055
-654,101	567,304	0,019	0,033
-653,086	65,495	-0,035	-0,026
-652,072	-140,962	-0,096	0,007
-651,057	395,418	-0,040	-0,061
-650,043	135,543	-0,071	-0,068
-649,028	117,659	0,063	-0,057
-648,014	800,000	-0,048	0,122
-646,999	383,901	0,042	-0,064
-645,984	223,174	0,079	-0,094
-644,970	673,692	-0,047	-0,089
-643,955	800,000	0,038	-0,115
-642,941	579,576	0,015	-0,027
-641,926	-200,000	0,008	-0,028
-640,911	153,506	0,027	-0,028
-639,897	-200,000	0,001	-0,036
-638,882	203,793	-0,029	0,032
-637,868	-200,000	-0,033	0,168
-636,853	225,104	-0,074	-0,088
-635,838	-93,581	0,055	-0,011
-634,824	287,514	-0,032	0,043
-633,809	361,724	0,044	0,065
-632,795	-116,432	0,075	-0,010
-631,780	-200,000	-0,016	0,053
-630,765	-44,018	0,042	0,015
-629,751	28,283	-0,057	0,035
-628,736	-87,812	0,031	-0,007
-627,722	-67,216	-0,119	0,034
-626,707	-137,916	0,082	-0,007
-625,692	-200,000	-0,014	0,173
-624,678	-68,520	0,015	0,004
-623,663	-153,896	0,070	0,003
-622,649	151,105	-0,132	0,132
-621,634	-200,000	-0,009	-0,037
-620,619	110,200	-0,104	-0,091
-619,605	433,226	0,064	0,102
-618,590	-65,383	-0,042	-0,012
-617,576	339,262	0,025	0,036
-616,561	-50,978	0,037	0,013
-615,546	-200,000	0,037	-0,214
-614,532	-137,895	-0,157	-0,013
-613,517	-200,000	-0,004	0,037
-612,503	587,275	-0,023	0,041
-611,488	-39,438	-0,174	0,066
-610,474	-109,345	-0,105	-0,016
-609,459	-102,679	0,050	0,009
-608,444	-156,779	-0,108	0,005
-607,430	557,702	-0,049	-0,087
-606,415	349,661	-0,070	-0,102
-605,401	-137,223	0,007	0,001
-604,386	93,066	-0,058	-0,048
-603,371	277,793	0,056	-0,074
-602,357	-200,000	-0,005	0,083
-601,342	-90,013	-0,121	0,026
-600,328	-200,000	-0,008	0,063
-599,313	-85,719	-0,173	-0,039
-598,298	-82,107	-0,086	-0,020
-597,284	-27,900	0,098	0,041
-596,269	8,226	0,095	0,052
-595,255	-200,000	0,007	0,051
-594,240	360,638	0,063	-0,093
-593,225	54,149	-0,088	-0,062
-592,211	800,000	-0,062	-0,168
-591,196	-99,801	0,062	0,011
-590,182	85,214	-0,088	-0,071
-589,167	479,336	0,074	0,123
-588,152	-200,000	-0,032	-0,142
-587,138	-200,000	-0,025	0,108
-586,123	-16,742	-0,117	0,054
-585,109	259,270	-0,071	-0,090
-584,094	-200,000	-0,004	-0,111
-583,079	-48,790	0,180	0,063
-582,065	-200,000	0,021	0,093
-581,050	-158,315	0,162	-0,007
-580,036	194,130	-0,025	0,027
-579,021	800,000	-0,052	-0,160
-578,006	-118,519	-0,088	0,011
-576,992	253,495	0,069	-0,087
-575,977	3,874	-0,050	0,027
-574,963	800,000	0,022	-0,055
-573,948	800,000	-0,004	0,010
-572,934	-200,000	-0,015	0,050
-571,919	170,216	-0,101	-0,106
-570,904	276,213	-0,048	-0,063
-569,890	-78,256	0,081	0,020
-568,875	-178,114	0,026	0,000
-567,861	662,552	0,075	0,143
-566,846	-49,117	0,070	-0,024
-565,831	-38,274	-0,075	-0,029
-564,817	-11,100	-0,105	-0,051
-563,802	45,373	-0,151	-0,102
-562,788	48,015	0,083	0,057
-561,773	101,714	0,124	0,106
-560,758	-91,467	0,143	0,030
-559,744	62,396	0,063	-0,046
-558,729	17,663	0,038	0,022
-557,715	-200,000	0,035	-0,119
-556,700	-200,000	-0,006	-0,050
-555,685	800,000	0,046	-0,098
-554,671	-200,000	0,018	-0,067
-553,656	149,108	-0,120	0,119
-552,642	41,300	0,054	-0,036
-551,627	-77,126	-0,142	-0,036
-550,612	800,000	0,030	-0,067
-549,598	-200,000	0,005	-0,060
-548,583	800,000	-0,048	-0,117
-547,569	-42,036	0,062	-0,023
-546,554	-200,000	0,002	0,043
-545,539	800,000	0,044	-0,115
-544,525	263,363	0,021	-0,027
-543,510	-200,000	-0,041	0,193
-542,496	-56,747	-0,092	-0,029
-541,481	-200,000	-0,013	0,052
-540,466	800,000	0,031	-0,068
-539,452	577,183	0,046	-0,082
-538,437	-63,228	0,094	0,028
-537,423	-35,368	0,050	-0,020
-536,408	-200,000	0,039	0,128
-535,393	-70,117	-0,092	-0,025
-534,379	408,340	-0,029	0,044
-533,364	351,217	-0,072	0,104
-532,350	195,181	0,084	-0,093
-531,335	800,000	-0,031	0,073
-530,321	797,779	-0,036	0,072
-529,306	800,000	0,058	-0,168
-528,291	-187,134	-0,044	-0,000
-527,277	463,735	-0,051	-0,084
-526,262	45,088	0,107	0,072
-525,248	23,654	-0,090	0,054
-524,233	-13,835	0,026	0,012
-523,218	-28,681	0,085	-0,036
-522,204	479,481	0,022	-0,037
-521,189	-200,000	0,005	-0,064
-520,175	-200,000	0,003	-0,070
-519,160	353,670	0,084	-0,122
-518,145	-66,211	-0,057	0,016
-517,131	-35,659	0,103	-0,040
-516,116	-69,106	0,083	-0,023
-515,102	215,615	-0,109	-0,126
-514,087	71,154	-0,054	0,041
-513,072	52,719	0,101	0,070
-512,058	800,000	-0,030	-0,080
-511,043	-86,619	-0,102	0,023
-510,029	800,000	0,056	0,134
-509,014	32,799	-0,043	0,027
-507,999	248,945	0,040	0,050
-506,985	800,000	0,038	-0,097
-505,970	789,251	0,053	-0,108
-504,956	-200,000	-0,010	-0,160
-503,941	-82,312	0,044	0,010
-502,926	665,454	0,070	0,133
-501,912	-200,000	-0,001	0,130
-500,897	-129,284	0,073	0,007
-499,883	-200,000	-0,005	-0,153
-498,868	627,487	-0,083	-0,153
-497,853	-142,375	-0,177	0,013
-496,839	-200,000	-0,018	-0,077
-495,824	-200,000	0,011	0,149
-494,810	-200,000	0,005	0,104
-493,795	66,373	-0,081	0,060
-492,781	242,457	0,024	0,030
-491,766	392,056	0,079	-0,120
-490,751	104,651	-0,066	-0,057
-489,737	800,000	-0,002	0,007
-488,722	216,047	0,082	0,095
-487,708	-141,517	0,117	-0,009
-486,693	155,202	0,148	0,149
-485,678	-200,000	-0,029	0,155
-484,664	651,240	0,011	0,021
-483,649	-53,404	0,076	-0,025
-482,635	-200,000	-0,031	0,168
-481,620	800,000	0,017	0,037
-480,605	590,474	0,087	0,156
-479,591	283,733	-0,062	-0,081
-478,576	20,707	0,068	0,040
-477,562	20,080	-0,121	-0,071
-476,547	439,469	-0,062	-0,099
-475,532	-200,000	0,020	-0,074
-474,518	-9,912	-0,105	0,051
-473,503	-200,000	0,014	0,193
-472,489	-112,917	0,124	-0,018
-471,474	800,000	-0,035	-0,090
-470,459	529,233	-0,001	0,002
-469,445	-200,000	0,003	-0,142
-468,430	800,000	0,062	-0,170
-467,416	-42,815	-0,011	0,004
-466,401	366,910	0,075	0,110
-465,386	800,000	0,055	0,148
-464,372	-24,399	-0,126	0,055
-463,357	-200,000	-0,007	-0,038
-462,343	800,000	-0,029	-0,089
-461,328	200,652	0,062	0,069
-460,313	94,615	0,070	0,058
-459,299	47,635	0,131	0,089
-458,284	41,262	0,071	-0,047
-457,270	-106,157	-0,134	-0,022
-456,255	430,481	-0,029	-0,046
-455,241	35,347	-0,123	0,078
-454,226	82,353	-0,053	-0,042
-453,211	70,420	-0,127	-0,096
-452,197	-69,504	0,110	0,031
-451,182	-45,734	0,020	-0,007
-450,168	-200,000	0,029	0,143
-449,153	800,000	0,027	-0,061
-448,138	590,554	0,034	0,062
-447,124	44,810	-0,086	0,057
-446,109	-40,812	0,025	-0,009
-445,095	800,000	-0,025	0,064
-444,080	-23,247	0,075	-0,033
-443,065	208,795	0,066	0,076
-442,051	-200,000	-0,043	-0,140
-441,036	202,223	0,021	-0,023
-440,022	142,377	0,021	-0,021
-439,007	40,398	0,078	-0,051
-437,992	-89,861	-0,078	-0,016
-436,978	800,000	0,012	-0,031
-435,963	127,669	0,085	0,079
-434,949	-4,789	-0,125	0,063
-433,934	-56,921	-0,057	0,018
-432,919	-200,000	0,033	0,143
-431,905	27,592	0,058	-0,036
-430,890	167,661	0,062	-0,065
-429,876	-120,983	0,150	0,018
-428,861	-68,607	-0,108	0,030
-427,846	-200,000	0,003	0,046
-426,832	0,227	-0,052	0,027
-425,817	-200,000	0,015	0,053
-424,803	144,836	0,054	-0,053
-423,788	-200,000	0,030	-0,145
-422,773	40,737	0,095	-0,062
-421,759	405,075	0,015	-0,023
-420,744	1,297	-0,097	-0,050
-419,730	6,726	0,116	0,063
-418,715	521,381	-0,028	-0,048
-417,701	-200,000	-0,027	-0,162
-416,686	-10,938	0,113	-0,054
-415,671	157,125	0,052	0,052
-414,657	-200,000	0,010	0,114
-413,642	370,584	0,093	0,137
-412,628	-200,000	-0,026	0,100
-411,613	398,072	-0,143	0,218
-410,598	-200,000	-0,001	-0,111
-409,584	-115,116	0,077	-0,011
-408,569	192,838	0,077	-0,085
-407,555	-200,000	0,019	0,095
-406,540	-97,262	-0,050	0,009
-405,525	77,156	-0,040	-0,031
-404,511	-200,000	0,024	-0,142
-403,496	73,474	-0,036	-0,027
-402,482	-200,000	-0,006	0,071
-401,467	101,869	-0,095	-0,081
-400,452	159,301	0,138	0,140
-399,438	271,891	-0,059	-0,076
-398,423	345,168	-0,122	-0,174
-397,409	800,000	0,050	-0,105
-396,394	146,479	-0,118	-0,115
-395,379	-83,872	-0,083	-0,019
-394,365	-32,897	0,039	-0,016
-393,350	243,200	0,041	0,050
-392,336	-200,000	0,002	0,016
-391,321	39,146	0,114	0,074
-390,306	-13,950	0,078	-0,036
-389,292	129,495	0,085	0,079
-388,277	120,576	-0,058	-0,052
-387,263	-70,727	-0,091	-0,025
-386,248	59,962	0,100	0,071
-385,233	-200,000	0,001	0,087
-384,219	-14,426	-0,189	-0,088
-383,204	136,877	0,029	0,028
-382,190	57,728	-0,068	-0,048
-381,175	-130,843	-0,103	0,010
-380,160	800,000	-0,023	0,067
-379,146	-169,640	-0,053	-0,001
-378,131	757,541	0,001	-0,003
-377,117	69,830	-0,065	-0,049
-376,102	-200,000	-0,009	-0,113
-375,088	-97,989	0,163	0,030
-374,073	219,770	-0,037	0,043
-373,058	-32,249	-0,106	0,043
-372,044	-138,759	0,304	-0,024
-371,029	-120,383	-0,171	0,021
-370,015	35,509	-0,052	-0,033
-369,000	374,244	-0,081	-0,120
-367,985	800,000	-0,046	-0,105
-366,971	-200,000	0,013	-0,091
-365,956	39,537	0,028	-0,018
-364,942	647,562	-0,025	0,047
-363,927	-200,000	0,030	0,180
-362,912	800,000	0,025	0,056
-361,898	-48,671	-0,109	-0,038
-360,883	265,831	-0,078	-0,099
-359,869	62,146	0,073	-0,053
-358,854	-155,725	0,162	0,007
-357,839	405,014	0,047	0,071
-356,825	-107,513	-0,106	0,017
-355,810	-200,000	-0,009	-0,148
-354,796	257,495	-0,082	0,102
-353,781	551,653	0,027	-0,047
-352,766	-28,604	-0,141	0,059
-351,752	253,975	-0,058	-0,072
-350,737	800,000	-0,051	0,106
-349,723	-200,000	0,013	0,116
-348,708	800,000	-0,009	-0,027
-347,693	283,217	-0,037	-0,048
-346,679	490,030	0,025	-0,041
-345,664	-109,484	0,161	-0,024
-344,650	-99,734	-0,132	-0,024
-343,635	800,000	0,015	-0,042
-342,620	-162,842	0,061	-0,002
-341,606	-56,694	0,077	-0,025
-340,591	553,620	0,042	0,074
-339,577	173,439	0,088	-0,092
-338,562	376,165	0,043	-0,064
-337,548	525,871	-0,034	0,058
-336,533	457,338	0,067	-0,108
-335,518	230,142	0,068	0,080
-334,504	800,000	0,032	0,067
-333,489	387,612	-0,051	0,077
-332,475	352,055	0,094	0,136
-331,460	-200,000	0,017	0,071
-330,445	-200,000	-0,009	-0,118
-329,431	800,000	-0,017	0,049
-328,416	100,342	0,097	0,082
-327,402	-200,000	-0,011	0,268
-326,387	463,335	0,041	-0,066
-325,372	-200,000	0,009	0,119
-324,358	14,778	-0,104	0,059
-323,343	-90,695	-0,111	-0,023
-322,329	23,951	0,087	0,052
-321,314	-155,679	0,095	0,004
-320,299	177,325	-0,033	-0,035
-319,285	58,894	-0,029	-0,021
-318,270	800,000	-0,062	0,167
-317,256	-200,000	0,003	0,058
-316,241	130,357	-0,055	0,052
-315,226	-156,952	-0,069	0,003
-314,212	167,551	0,050	0,052
-313,197	190,949	-0,060	-0,066
-312,183	-200,000	-0,010	-0,085
-311,168	-200,000	-0,002	-0,076
-310,153	-146,920	-0,126	-0,008
-309,139	25,573	-0,066	-0,040
-308,124	85,856	0,050	0,040
-307,110	800,000	-0,020	-0,057
-306,095	-200,000	0,021	0,076
-305,080	800,000	0,061	0,132
-304,066	744,305	-0,011	-0,022
-303,051	-200,000	-0,009	-0,047
-302,037	529,069	-0,036	-0,062
-301,022	-200,000	0,006	0,021
-300,008	-200,000	-0,007	0,108
-298,993	169,529	-0,103	0,107
-297,978	-200,000	0,017	0,066
-296,964	348,872	0,012	0,018
-295,949	-200,000	-0,023	-0,113
-294,935	243,316	0,022	-0,027
-293,920	500,715	-0,058	-0,097
-292,905	-53,711	0,016	0,005
-291,891	-77,740	-0,060	0,015
-290,876	39,237	-0,103	-0,067
-289,862	-171,086	-0,083	-0,002
-288,847	-67,588	-0,096	0,027
-287,832	-200,000	0,019	-0,133
-286,818	-200,000	-0,027	0,097
-285,803	366,853	0,025	0,037
-284,789	800,000	-0,004	-0,012
-283,774	-22,259	0,121	-0,053
-282,759	285,915	-0,054	0,070
-281,745	81,314	0,116	-0,091
-280,730	800,000	-0,063	-0,171
-279,716	-65,747	0,103	-0,030
-278,701	-116,592	0,092	0,012
-277,686	615,219	-0,015	-0,027
-276,672	-56,505	0,093	0,030
-275,657	205,174	-0,025	-0,029
-274,643	71,585	0,143	-0,108
-273,628	800,000	0,023	0,056
-272,613	347,312	0,062	-0,089
-271,599	800,000	0,026	-0,062
-270,584	-21,988	0,075	0,033
-269,570	771,231	0,049	0,097
-268,555	25,294	-0,087	-0,052
-267,540	-200,000	0,011	0,062
-266,526	132,213	-0,100	-0,094
-265,511	800,000	-0,016	-0,047
-264,497	-131,261	0,155	0,015
-263,482	36,536	0,040	0,026
-262,467	-55,403	0,068	-0,022
-261,453	-103,977	0,124	0,021
-260,438	-120,324	0,089	0,011
-259,424	-200,000	0,013	-0,231
-258,409	-99,243	0,018	-0,003
-257,395	633,432	-0,008	-0,016
-256,380	-200,000	0,026	0,146
-255,365	800,000	0,005	0,014
-254,351	-78,996	-0,027	-0,007
-253,336	-37,837	0,073	-0,028
-252,322	109,390	-0,067	-0,058
-251,307	-200,000	0,002	-0,073
-250,292	11,608	0,041	0,022
-249,278	-123,441	0,094	0,011
-248,263	800,000	-0,026	-0,079
-247,249	-200,000	0,012	-0,053
-246,234	-200,000	-0,010	0,038
-245,219	800,000	-0,020	-0,050
-244,205	-138,247	-0,151	0,012
-243,190	-1,807	0,045	0,023
-242,176	800,000	-0,002	0,006
-241,161	800,000	0,036	0,100
-240,146	-200,000	-0,018	0,145
-239,132	-200,000	-0,012	-0,041
-238,117	558,409	-0,070	-0,123
-237,103	-104,885	-0,041	-0,007
-236,088	-89,614	0,036	0,008
-235,073	-200,000	-0,001	-0,053
-234,059	48,367	0,250	-0,169
-233,044	800,000	0,029	0,080
-232,030	65,826	-0,074	0,054
-231,015	800,000	0,014	0,031
-230,000	-200,000	0,006	-0,102
-228,986	356,640	0,045	-0,065
-227,971	800,000	-0,026	0,064
-226,957	-82,070	0,033	0,008
-225,942	800,000	-0,024	0,064
-224,927	601,255	-0,058	0,104
-223,913	-200,000	-0,005	0,060
-222,898	364,375	0,063	-0,092
-221,884	-32,979	-0,041	-0,016
-220,869	228,226	-0,087	0,102
-219,855	295,151	0,064	0,085
-218,840	-55,106	0,097	0,031
-217,825	294,269	-0,121	0,160
-216,811	25,067	-0,098	0,058
-215,796	-78,185	0,091	-0,022
-214,782	462,037	0,044	0,071
-213,767	-59,367	-0,047	-0,014
-212,752	396,960	-0,028	0,042
-211,738	-138,408	0,047	-0,004
-210,723	-175,578	0,110	0,002
-209,709	-65,124	-0,009	-0,003
-208,694	-200,000	-0,005	-0,071
-207,679	193,462	-0,066	0,072
-206,665	800,000	0,018	0,049
-205,650	94,095	0,071	-0,059
-204,636	219,508	0,044	-0,051
-203,621	-200,000	0,000	0,080
-202,606	-200,000	-0,004	0,072
-201,592	-20,754	-0,094	-0,041
-200,577	118,197	0,050	-0,045
-199,563	-200,000	0,022	0,087
-198,548	-200,000	0,004	-0,040
-197,533	-200,000	-0,019	0,133
-196,519	326,883	-0,068	0,094
-195,504	-200,000	0,002	-0,048
-194,490	800,000	-0,050	-0,105
-193,475	800,000	0,042	-0,091
-192,460	-103,908	0,061	-0,010
-191,446	-142,641	-0,073	-0,005
-190,431	555,289	-0,038	0,066
-189,417	25,647	0,031	0,019
-188,402	800,000	-0,038	0,113
-187,387	-60,803	-0,078	-0,024
-186,373	-4,935	-0,076	-0,038
-185,358	617,509	-0,067	-0,122
-184,344	-200,000	-0,003	-0,017
-183,329	316,501	0,048	0,065
-182,315	-200,000	0,025	0,119
-181,300	-61,710	-0,159	-0,048
-180,285	-200,000	-0,043	-0,182
-179,271	-200,000	0,004	0,088
-178,256	150,404	-0,035	0,034
-177,242	227,826	-0,032	0,037
-176,227	-200,000	0,039	0,181
-175,212	-200,000	-0,008	-0,092
-174,198	419,478	-0,038	-0,059
-173,183	413,716	-0,077	-0,118
-172,169	431,408	-0,052	0,082
-171,154	-170,182	0,074	0,002
-170,139	204,297	0,076	0,085
-169,125	64,798	-0,042	-0,031
-168,110	125,045	0,085	-0,078
-167,096	160,161	0,075	-0,076
-166,081	-69,344	-0,055	-0,015
-165,066	65,608	-0,078	0,057
-164,052	-96,042	-0,036	0,007
-163,037	56,152	0,013	0,009
-162,023	42,270	0,129	0,084
-161,008	101,027	-0,116	0,098
-159,993	-178,965	-0,010	0,000
-158,979	-200,000	-0,009	0,083
-157,964	535,191	-0,033	0,056
-156,950	-200,000	0,002	-0,088
-155,935	444,543	-0,030	0,047
-154,920	44,784	0,065	0,043
-153,906	680,788	0,049	0,093
-152,891	-85,352	-0,166	-0,037
-151,877	-25,374	-0,149	-0,063
-150,862	800,000	0,021	0,053
-149,847	800,000	0,029	-0,067
-148,833	86,914	0,062	-0,049
-147,818	-200,000	-0,023	0,126
-146,804	138,374	0,061	0,058
-145,789	-113,732	0,061	-0,008
-144,775	-7,761	-0,133	-0,065
-143,760	753,575	-0,025	-0,049
-142,745	-200,000	-0,030	-0,104
-141,731	117,359	-0,070	-0,062
-140,716	800,000	-0,028	0,074
-139,702	109,293	0,047	0,040
-138,687	131,859	0,041	-0,038
-137,672	-200,000	0,002	-0,021
-136,658	-93,690	0,050	-0,010
-135,643	87,452	-0,083	-0,066
-134,629	147,243	-0,042	0,040
-133,614	800,000	-0,028	0,075
-132,599	-200,000	0,004	-0,040
-131,585	800,000	-0,021	-0,053
-130,570	800,000	0,024	-0,059
-129,556	-200,000	-0,001	0,038
-128,541	475,502	-0,073	0,119
-127,526	30,638	-0,049	0,030
-126,512	-152,859	0,138	-0,007
-125,497	-12,065	-0,050	0,023
-124,483	-200,000	0,041	0,136
-123,468	800,000	0,043	-0,116
-122,453	800,000	0,026	-0,058
-121,439	11,670	0,024	0,013
-120,424	800,000	0,025	-0,051
-119,410	69,500	0,124	0,092
-118,395	339,668	-0,016	-0,022
-117,380	800,000	-0,037	-0,105
-116,366	-200,000	0,002	0,057
-115,351	800,000	-0,033	0,075
-114,337	-18,293	0,045	0,020
-113,322	-200,000	0,003	-0,102
-112,307	-8,960	-0,067	-0,032
-111,293	-200,000	-0,004	0,064
-110,278	-12,440	-0,054	-0,025
-109,264	76,209	-0,152	0,115
-108,249	-200,000	-0,014	0,075
-107,234	-67,582	-0,123	-0,034
-106,220	441,526	0,051	-0,081
-105,205	-200,000	0,024	-0,096
-104,191	-63,010	0,051	0,015
-103,176	429,238	0,048	0,075
-102,162	800,000	0,018	0,056
-101,147	-200,000	-0,013	0,095
-100,132	56,487	0,042	0,029
-99,118	-183,028	0,066	-0,001
-98,103	-200,000	0,021	-0,071
-97,089	89,069	-0,096	0,077
-96,074	-200,000	0,021	0,098
-95,059	-153,366	0,017	-0,001
-94,045	396,902	0,048	-0,072
-93,030	309,306	-0,009	0,012
-92,016	800,000	0,024	0,077
-91,001	326,707	0,080	0,111
-89,986	-57,347	0,076	0,024
-88,972	-17,748	0,044	0,020
-87,957	-111,415	0,047	0,007
-86,943	140,847	-0,066	-0,062
-85,928	51,119	0,078	-0,053
-84,913	-9,760	-0,165	0,078
-83,899	-111,755	-0,065	0,009
-82,884	309,480	-0,027	-0,036
-81,870	-62,368	0,151	0,045
-80,855	376,371	-0,082	0,121
-79,840	-200,000	-0,002	-0,079
-78,826	134,106	-0,093	-0,086
-77,811	800,000	-0,036	-0,100
-76,797	38,366	-0,063	-0,040
-75,782	205,031	-0,034	0,037
-74,767	800,000	-0,023	-0,047
-73,753	13,704	-0,081	-0,045
-72,738	41,652	-0,113	0,073
-71,724	-77,906	-0,070	0,017
-70,709	-103,694	-0,135	0,023
-69,694	-61,510	-0,033	-0,010
-68,680	800,000	-0,024	-0,069
-67,665	20,814	0,063	-0,036
-66,651	800,000	0,009	0,023
-65,636	-5,234	0,185	0,091
-64,622	-200,000	-0,023	0,142
-63,607	236,530	0,026	-0,031
-62,592	800,000	-0,041	-0,086
-61,578	88,528	-0,123	-0,098
-60,563	181,610	0,131	-0,139
-59,549	5,996	-0,054	-0,029
-58,534	41,606	-1,991	-1,292
-57,519	800,000	-0,419	-0,902
-56,505	-200,000	-1,300	-4,879
-55,490	142,811	0,782	0,746
-54,476	800,000	5,206	11,960
-53,461	-200,000	18,149	302,011
-52,446	800,000	735,388	2278,451
-51,432	546,855	1652,070	2847,007
-50,417	109,909	1638,898	1410,325
-49,403	74,540	1289,317	971,710
-48,388	30,898	1029,406	631,315
-47,373	20,101	991,425	572,336
-46,359	17,956	979,157	558,184
-45,344	14,687	975,201	545,186
-44,330	14,969	973,557	545,171
-43,315	14,432	971,841	542,429
-42,300	14,380	970,634	541,563
-41,286	14,378	969,703	541,018
-40,271	14,384	968,829	540,528
-39,257	14,444	967,658	540,049
-38,242	14,394	966,927	539,457
-37,227	14,435	966,138	539,128
-36,213	14,404	965,115	538,435
-35,198	14,420	964,263	537,988
-34,184	14,399	963,739	537,609
-33,169	14,367	962,669	536,885
-32,154	14,416	961,674	536,468
-31,140	14,420	960,779	535,961
-30,125	14,435	960,276	535,706
-29,111	14,396	959,250	534,987
-28,096	14,466	958,545	534,800
-27,082	14,448	957,827	534,320
-26,067	14,474	957,079	533,964
-25,052	14,356	956,433	533,204
-24,038	14,415	955,761	532,998
-23,023	14,368	955,046	532,426
-22,009	14,451	954,462	532,345
-20,994	14,416	953,772	531,829
-19,979	14,435	953,230	531,564
-18,965	14,407	952,636	531,124
-17,950	14,423	951,951	530,772
-16,936	14,348	951,505	530,262
-15,921	14,374	950,489	529,757
-14,906	14,284	949,942	529,145
-13,892	14,279	949,367	528,785
-12,877	14,337	948,545	528,493
-11,863	14,308	947,979	528,064
-10,848	14,255	947,674	527,706
-9,833	14,403	947,087	527,828
-8,819	14,300	946,356	527,073
-7,804	14,304	945,693	526,695
-6,790	14,278	945,235	526,334
-5,775	14,352	944,611	526,202
-4,760	14,308	943,900	525,644
-3,746	14,344	943,283	525,397
-2,731	14,152	942,797	524,495
-1,717	14,161	942,006	524,061
-0,702	14,109	941,417	523,550
0,313	13,890	940,899	523,358
1,327	17,164	938,461	532,295
2,342	26,058	794,454	474,202
3,356	22,641	459,542	269,036
4,371	-4,363	316,353	156,308
5,386	-8,225	298,127	143,355
6,400	-10,383	292,069	138,273
7,415	-10,551	289,644	136,946
8,429	-10,820	288,062	135,922
9,444	-10,849	287,210	135,479
10,459	-11,071	286,741	135,028
11,473	-10,783	285,966	134,933
12,488	-10,869	285,557	134,644
13,502	-11,002	284,966	134,224
14,517	-10,949	284,673	134,125
15,531	-10,815	284,097	133,972
16,546	-10,950	283,914	133,742
17,561	-10,782	283,451	133,675
18,575	-10,770	283,111	133,515
19,590	-10,865	282,774	133,252
20,604	-10,686	282,418	133,246
21,619	-10,795	281,928	132,897
22,634	-10,826	281,744	132,769
23,648	-10,881	281,320	132,504
24,663	-10,702	281,032	132,528
25,677	-10,746	280,858	132,392
26,692	-10,814	280,547	132,169
27,707	-10,790	280,296	132,062
28,721	-10,907	280,071	131,832
29,736	-11,012	279,901	131,640
30,750	-10,901	279,352	131,476
31,765	-10,869	279,242	131,443
32,780	-10,791	279,043	131,412
33,794	-10,790	278,695	131,237
34,809	-10,829	278,559	131,125
35,823	-10,967	278,324	130,871
36,838	-11,005	278,063	130,701
37,853	-10,948	277,680	130,563
38,867	-10,917	277,434	130,465
39,882	-10,870	277,270	130,420
40,896	-10,890	277,100	130,310
41,911	-10,818	276,830	130,239
42,926	-10,800	276,402	130,043
43,940	-10,859	276,285	129,922
44,955	-10,936	276,044	129,724
45,969	-10,904	275,725	129,593
46,984	-11,155	275,594	129,283
47,999	-11,314	275,241	128,957
49,013	-11,338	274,904	128,765
50,028	-11,493	274,658	128,493
51,042	-11,693	274,401	128,174
52,057	-11,626	274,182	128,124
53,071	-11,557	273,969	128,077
54,086	-11,321	273,791	128,203
55,101	-11,219	273,562	128,179
56,115	-11,128	273,527	128,236
57,130	-10,578	273,321	128,640
58,144	-10,777	273,078	128,329
59,159	-10,545	272,833	128,419
60,174	-10,825	272,748	128,107
61,188	-10,673	272,285	128,019
62,203	-10,811	272,186	127,833
63,217	-10,805	271,959	127,720
64,232	-10,611	271,815	127,821
65,247	-10,749	271,573	127,568
66,261	-10,817	271,329	127,380
67,276	-10,829	270,929	127,169
68,290	-11,041	270,651	126,832
69,305	-11,242	270,492	126,561
70,320	-10,965	270,182	126,659
71,334	-10,889	270,099	126,680
72,349	-10,626	269,832	126,785
73,363	-10,841	269,911	126,612
74,378	-10,632	269,436	126,570
75,393	-10,518	269,254	126,578
76,407	-10,826	269,020	126,174
77,422	-10,732	268,903	126,194
78,436	-10,684	268,650	126,108
79,451	-10,592	268,355	126,042
80,466	-10,871	268,311	125,756
81,480	-11,057	268,042	125,449
82,495	-11,039	267,662	125,276
83,509	-10,927	267,676	125,373
84,524	-10,933	267,377	125,217
85,539	-10,958	266,973	124,994
86,553	-10,921	266,814	124,942
87,568	-10,962	266,748	124,862
88,582	-11,014	266,529	124,702
89,597	-11,085	266,215	124,480
90,611	-10,961	266,169	124,559
91,626	-10,902	266,095	124,567
92,641	-10,751	265,781	124,546
93,655	-10,803	265,494	124,353
94,670	-10,762	265,268	124,272
95,684	-10,781	265,048	124,142
96,699	-10,700	264,938	124,152
97,714	-11,091	264,786	123,717
98,728	-11,084	264,450	123,557
99,743	-10,948	264,179	123,540
100,757	-11,012	264,146	123,456
101,772	-10,928	263,919	123,415
102,787	-10,968	263,626	123,231
103,801	-10,963	263,622	123,223
104,816	-10,872	263,319	123,151
105,830	-10,896	263,173	123,051
106,845	-10,809	263,064	123,066
107,860	-10,888	262,770	122,847
108,874	-10,729	262,435	122,821
109,889	-10,630	262,246	122,810
110,903	-10,874	262,085	122,507
111,918	-10,830	261,795	122,399
112,933	-10,960	261,691	122,225
113,947	-10,815	261,656	122,326
114,962	-10,750	261,259	122,187
115,976	-10,708	261,211	122,191
116,991	-10,859	261,028	121,960
118,006	-10,796	260,719	121,861
119,020	-10,927	260,761	121,754
120,035	-10,829	260,504	121,710
121,049	-10,914	260,466	121,606
122,064	-10,659	260,062	121,632
123,079	-10,687	259,829	121,487
124,093	-10,892	259,703	121,237
125,108	-10,862	259,460	121,139
126,122	-11,036	259,182	120,846
127,137	-11,158	259,015	120,650
128,151	-11,091	258,756	120,577
129,166	-10,922	258,563	120,625
130,181	-11,139	258,460	120,376
131,195	-11,093	258,222	120,294
132,210	-10,771	258,017	120,470
133,224	-10,840	257,825	120,309
134,239	-10,747	257,829	120,382
135,254	-10,826	257,580	120,186
136,268	-10,868	257,296	120,005
137,283	-10,997	256,953	119,722
138,297	-11,310	257,005	119,464
139,312	-11,133	256,491	119,368
140,327	-11,005	256,408	119,430
141,341	-10,726	256,264	119,594
142,356	-10,702	256,072	119,515
143,370	-10,682	256,118	119,542
144,385	-10,616	255,802	119,442
145,400	-10,648	255,707	119,359
146,414	-10,544	255,417	119,302
147,429	-10,438	255,211	119,287
148,443	-10,586	255,125	119,109
149,458	-10,648	254,900	118,939
150,473	-10,677	254,831	118,872
151,487	-10,807	254,462	118,577
152,502	-10,603	254,300	118,666
153,516	-10,546	254,185	118,651
154,531	-10,607	254,093	118,546
155,546	-10,672	253,806	118,346
156,560	-10,693	253,715	118,274
157,575	-10,893	253,594	118,036
158,589	-10,477	253,180	118,189
159,604	-10,614	252,998	117,976
160,619	-10,666	252,876	117,864
161,633	-10,756	252,610	117,653
162,648	-10,520	252,537	117,810
163,662	-10,700	252,374	117,569
164,677	-10,434	252,317	117,759
165,692	-10,691	252,147	117,451
166,706	-10,507	251,907	117,485
167,721	-10,697	251,688	117,211
168,735	-10,558	251,608	117,281
169,750	-10,651	251,550	117,165
170,764	-10,586	251,190	117,042
171,779	-10,626	251,149	116,978
172,794	-10,498	250,945	116,981
173,808	-10,493	250,727	116,873
174,823	-10,885	250,372	116,367
175,837	-11,092	250,194	116,099
176,852	-10,718	250,106	116,363
177,867	-10,658	250,110	116,405
178,881	-10,493	249,808	116,393
179,896	-10,453	249,595	116,317
180,910	-10,577	249,565	116,188
181,925	-10,574	249,378	116,093
182,940	-10,495	249,293	116,110
183,954	-10,512	249,095	115,994
184,969	-10,768	249,037	115,741
185,983	-10,576	248,692	115,732
186,998	-10,520	248,444	115,652
188,013	-10,594	248,246	115,488
189,027	-10,621	248,135	115,404
190,042	-10,822	247,991	115,158
191,056	-10,490	247,790	115,332
192,071	-10,478	247,592	115,239
193,086	-10,583	247,461	115,081
194,100	-10,591	247,212	114,947
195,115	-10,657	247,162	114,859
196,129	-10,453	246,881	114,888
197,144	-10,521	246,677	114,726
198,159	-10,624	246,497	114,547
199,173	-10,672	246,354	114,430
200,188	-10,721	246,148	114,284
201,202	-10,823	245,807	114,031
202,217	-11,108	245,518	113,651
203,232	-11,136	245,568	113,641
204,246	-10,807	245,384	113,818
205,261	-10,338	245,161	114,091
206,275	-11,620	244,878	112,893
207,290	-7,112	246,710	117,466
208,304	0,985	249,254	125,429
209,319	4,181	249,832	128,375
210,334	4,307	249,960	128,534
211,348	4,628	249,957	128,788
212,363	4,996	249,667	128,934
213,377	4,893	249,590	128,796
214,392	4,746	249,585	128,660
215,407	4,755	249,239	128,478
216,421	4,781	249,059	128,396
217,436	4,853	248,998	128,412
218,450	4,989	248,891	128,458
219,465	4,801	248,544	128,112
220,480	4,493	248,498	127,822
221,494	4,404	248,240	127,604
222,509	4,630	248,110	127,713
223,523	4,571	247,935	127,563
224,538	4,131	247,643	127,038
225,553	4,315	247,501	127,106
226,567	4,338	247,379	127,051
227,582	4,350	247,216	126,965
228,596	4,602	246,973	127,036
229,611	4,074	246,810	126,508
230,626	4,171	246,511	126,422
231,640	4,229	246,398	126,401
232,655	4,374	246,291	126,454
233,669	4,183	246,067	126,171
234,684	3,950	245,915	125,891
235,699	4,434	245,938	126,288
236,713	4,509	246,035	126,387
237,728	4,292	245,495	125,921
238,742	3,984	245,309	125,564
239,757	4,071	245,204	125,570
240,772	4,080	244,892	125,406
241,786	4,425	244,944	125,703
242,801	3,980	244,821	125,266
243,815	4,042	244,639	125,212
244,830	4,562	244,548	125,578
245,844	4,548	244,358	125,458
246,859	4,367	244,065	125,148
247,874	4,106	243,902	124,842
248,888	4,262	243,811	124,911
249,903	4,565	243,635	125,055
250,917	4,433	243,686	124,963
251,932	4,612	243,444	124,973
252,947	4,431	243,202	124,691
253,961	4,078	242,982	124,282
254,976	4,540	242,857	124,580
255,990	4,464	242,813	124,485
257,005	4,112	242,582	124,072
258,020	3,832	242,339	123,711
259,034	4,219	242,215	123,948
260,049	4,292	242,208	123,992
261,063	4,129	241,897	123,691
262,078	4,036	241,669	123,489
263,093	4,476	241,649	123,821
264,107	4,315	241,566	123,638
265,122	4,308	241,170	123,418
266,136	4,454	241,216	123,548
267,151	4,658	240,968	123,573
268,166	4,368	240,769	123,228
269,180	3,976	240,614	122,824
270,195	4,689	240,675	123,414
271,209	5,089	240,504	123,634
272,224	4,279	240,265	122,855
273,239	3,698	239,952	122,222
274,253	4,245	239,759	122,548
275,268	4,124	239,770	122,446
276,282	4,115	239,612	122,348
277,297	4,258	239,247	122,264
278,312	4,211	239,270	122,228
279,326	4,278	239,204	122,235
280,341	4,250	239,082	122,140
281,355	4,276	238,710	121,960
282,370	4,490	238,597	122,061
283,384	4,008	238,566	121,652
284,399	4,209	238,224	121,626
285,414	3,861	238,089	121,272
286,428	4,019	237,941	121,310
287,443	4,073	237,964	121,354
288,457	4,281	237,798	121,422
289,472	4,564	237,692	121,579
290,487	4,398	237,503	121,341
291,501	4,254	237,266	121,097
292,516	3,915	237,006	120,687
293,530	4,009	236,900	120,696
294,545	4,297	236,966	120,945
295,560	4,457	236,574	120,859
296,574	3,897	236,515	120,380
297,589	4,173	236,344	120,498
298,603	4,441	236,296	120,673
299,618	4,460	236,258	120,657
300,633	4,321	236,095	120,455
301,647	4,505	235,811	120,443
302,662	4,573	235,841	120,500
303,676	4,589	235,675	120,417
304,691	4,502	235,577	120,288
305,706	4,646	235,410	120,304
306,720	4,663	235,156	120,178
307,735	4,541	235,001	119,992
308,749	4,398	234,782	119,759
309,764	3,989	234,585	119,331
310,779	4,105	234,404	119,318
311,793	3,950	234,225	119,096
312,808	3,754	234,012	118,826
313,822	3,625	233,733	118,574
314,837	3,801	233,823	118,745
315,852	4,328	233,715	119,086
316,866	4,391	233,615	119,073
317,881	4,455	233,544	119,076
318,895	4,625	233,218	119,030
319,910	4,300	233,181	118,750
320,925	3,893	232,857	118,262
321,939	4,252	232,730	118,462
322,954	4,543	232,837	118,730
323,968	4,359	232,626	118,471
324,983	4,264	232,390	118,267
325,997	4,374	232,418	118,355
327,012	4,460	232,069	118,233
328,027	4,392	231,891	118,080
329,041	4,634	231,993	118,306
330,056	5,006	231,897	118,531
331,070	5,056	231,861	118,540
332,085	4,445	231,467	117,862
333,100	4,549	231,141	117,765
334,114	4,441	231,063	117,632
335,129	4,578	231,085	117,737
336,143	4,773	230,769	117,714
337,158	4,666	230,778	117,627
338,173	4,280	230,581	117,222
339,187	4,049	230,492	116,991
340,202	4,580	230,226	117,249
341,216	4,330	229,998	116,932
342,231	4,439	229,885	116,948
343,246	4,211	229,778	116,710
344,260	4,543	229,713	116,917
345,275	4,464	229,625	116,803
346,289	4,632	229,508	116,860
347,304	4,840	229,355	116,929
348,319	4,770	229,118	116,745
349,333	4,294	228,975	116,303
350,348	4,327	228,715	116,185
351,362	4,298	228,672	116,131
352,377	4,075	228,459	115,845
353,392	3,953	228,181	115,602
354,406	4,186	228,193	115,772
355,421	194,330	1321,603	1394,182
356,435	155,791	1454,793	1394,162
