DTS Sentinel unit serial number:	SN410029Multiplexer serial number:	ORYXHardware model number:	OX2-SRSoftware version number:	ORYX F/W v4,00 Oryx Data Collector v3.7.2.0data status	okinstallation	B5 Nyhavnadifferential loss correction	single-endedforward channel	channel 2reverse channel	N/Adate	2023/12/12time	16:42:13forward acquisition time	300,00reverse acquisition time	0,00gamma	499,1914k internal	0,3156k external	0,3156temperature offset calibration	1,0000default loss term (dB/km)	0,3820temperature slope calibration	1,0000multiplexer offset coefficient	1,0000multiplexer slope coefficient	1,0000fibre end	0,00T internal ref (°C)	15,82T ext. ref 1 (°C)	-0,68T ext. ref 2 (°C)	-0,99length (m)	temperature (°C)	Stokes	anti-Stokes-744,400	126,390	0,060	-0,056
-743,385	-45,370	-0,237	0,086
-742,371	-17,999	0,152	-0,070
-741,356	-67,879	-0,177	0,051
-740,342	10,202	-0,051	0,029
-739,327	-94,762	-0,331	0,066
-738,312	800,000	0,045	0,140
-737,298	3,062	-0,300	-0,160
-736,283	-27,408	-0,094	-0,040
-735,269	-57,950	-0,083	-0,027
-734,254	179,496	0,051	-0,055
-733,239	-60,737	-0,474	-0,147
-732,225	-186,058	0,178	-0,002
-731,210	-12,316	0,138	-0,066
-730,196	800,000	-0,030	-0,077
-729,181	-200,000	0,004	-0,037
-728,167	-165,289	-0,063	-0,002
-727,152	-200,000	0,007	-0,139
-726,137	-26,795	-0,048	0,021
-725,123	-12,014	-0,124	-0,059
-724,108	21,201	-0,087	-0,052
-723,094	55,337	-0,030	-0,021
-722,079	34,912	-0,031	0,020
-721,064	-200,000	0,006	-0,069
-720,050	311,375	-0,052	0,073
-719,035	-17,633	-0,045	0,021
-718,021	-22,257	-0,174	-0,078
-717,006	-200,000	-0,012	-0,079
-715,991	239,941	-0,088	-0,108
-714,977	800,000	-0,035	-0,102
-713,962	-137,512	-0,093	-0,008
-712,948	800,000	-0,061	0,142
-711,933	739,243	-0,018	-0,035
-710,918	-200,000	0,002	-0,025
-709,904	800,000	0,036	0,080
-708,889	383,069	-0,079	-0,120
-707,875	-200,000	-0,014	-0,102
-706,860	-200,000	-0,025	-0,087
-705,845	243,205	0,094	0,116
-704,831	-18,039	0,167	0,077
-703,816	-200,000	0,012	-0,251
-702,802	800,000	0,016	-0,035
-701,787	-76,338	-0,126	0,032
-700,772	4,599	-0,028	-0,015
-699,758	800,000	-0,022	-0,063
-698,743	-200,000	0,004	-0,088
-697,729	349,954	0,071	0,103
-696,714	-200,000	-0,014	0,069
-695,699	-58,328	-0,134	0,043
-694,685	128,799	-0,028	0,026
-693,670	-200,000	-0,011	-0,093
-692,656	216,881	0,066	0,078
-691,641	-200,000	0,004	-0,041
-690,627	18,180	-0,036	-0,021
-689,612	632,517	-0,042	-0,078
-688,597	374,801	-0,082	-0,123
-687,583	-200,000	0,007	0,064
-686,568	-148,965	0,066	0,004
-685,554	-114,538	0,121	0,017
-684,539	63,722	0,077	0,057
-683,524	641,865	0,052	0,097
-682,510	-95,223	-0,076	-0,015
-681,495	420,718	-0,016	0,025
-680,481	-200,000	0,020	-0,098
-679,466	-126,466	-0,074	-0,008
-678,451	800,000	0,027	-0,070
-677,437	-200,000	0,026	0,098
-676,422	-200,000	-0,011	-0,044
-675,408	46,190	-0,060	-0,041
-674,393	-131,927	-0,052	-0,005
-673,378	207,527	-0,069	-0,079
-672,364	472,390	-0,016	-0,027
-671,349	58,240	-0,021	0,015
-670,335	18,007	-0,083	-0,049
-669,320	-96,584	-0,050	0,010
-668,305	102,830	-0,043	-0,037
-667,291	39,163	-0,091	-0,060
-666,276	-4,478	-0,079	0,040
-665,262	-54,466	-0,104	0,035
-664,247	800,000	0,027	0,080
-663,232	800,000	-0,035	-0,112
-662,218	-115,347	0,107	0,015
-661,203	26,134	-0,048	0,029
-660,189	-156,429	0,090	0,004
-659,174	291,381	-0,015	-0,020
-658,159	409,343	-0,052	-0,081
-657,145	-89,646	-0,067	0,014
-656,130	-104,814	0,110	0,018
-655,116	26,130	0,086	-0,053
-654,101	-152,037	-0,079	-0,004
-653,086	243,934	-0,035	-0,043
-652,072	-200,000	0,002	0,017
-651,057	-137,747	0,104	0,008
-650,043	-200,000	-0,002	-0,082
-649,028	118,010	0,086	-0,077
-648,014	11,275	-0,064	0,036
-646,999	-116,689	0,089	-0,012
-645,984	-89,100	0,044	-0,009
-644,970	800,000	-0,045	0,118
-643,955	101,403	-0,018	-0,015
-642,941	800,000	0,026	0,071
-641,926	-120,053	0,036	0,004
-640,911	-120,531	-0,195	-0,024
-639,897	111,018	0,066	-0,059
-638,882	-113,114	-0,074	-0,011
-637,868	529,787	0,077	-0,135
-636,853	800,000	0,060	-0,174
-635,838	171,744	0,067	0,071
-634,824	57,076	-0,099	-0,071
-633,809	-141,891	-0,063	0,005
-632,795	-200,000	-0,001	-0,060
-631,780	-154,236	0,097	-0,005
-630,765	-8,406	-0,067	-0,033
-629,751	-26,100	-0,039	-0,017
-628,736	-141,457	-0,153	-0,011
-627,722	-200,000	0,012	0,113
-626,707	-200,000	-0,010	0,038
-625,692	273,759	-0,055	-0,071
-624,678	-137,966	-0,067	-0,005
-623,663	-200,000	-0,010	-0,207
-622,649	800,000	0,023	-0,071
-621,634	127,957	-0,076	-0,071
-620,619	-140,505	-0,022	0,002
-619,605	-200,000	0,011	0,060
-618,590	578,628	0,068	-0,122
-617,576	128,405	-0,071	-0,066
-616,561	-48,212	0,033	-0,011
-615,546	-130,481	-0,113	-0,011
-614,532	-200,000	-0,005	-0,091
-613,517	-200,000	0,008	0,153
-612,503	197,354	-0,127	0,142
-611,488	-200,000	-0,011	-0,036
-610,474	-114,808	-0,175	-0,024
-609,459	800,000	0,037	-0,103
-608,444	32,896	-0,054	-0,034
-607,430	301,297	0,081	-0,110
-606,415	800,000	0,018	-0,054
-605,401	-162,552	-0,047	-0,002
-604,386	800,000	0,041	-0,084
-603,371	184,526	0,051	0,056
-602,357	45,222	0,054	-0,037
-601,342	-200,000	-0,036	0,128
-600,328	13,411	-0,087	-0,049
-599,313	800,000	-0,042	-0,111
-598,298	-39,313	-0,040	0,015
-597,284	139,572	0,058	0,056
-596,269	-82,970	-0,082	0,019
-595,255	125,589	-0,039	0,036
-594,240	-200,000	0,006	0,114
-593,225	52,795	0,082	0,057
-592,211	-92,563	-0,107	0,022
-591,196	-124,686	0,163	-0,018
-590,182	20,833	0,064	0,038
-589,167	-79,916	-0,093	-0,023
-588,152	124,870	0,097	0,090
-587,138	27,831	-0,090	0,055
-586,123	733,221	-0,019	-0,038
-585,109	-6,378	-0,250	-0,125
-584,094	-200,000	0,000	-0,044
-583,079	-93,691	0,109	-0,022
-582,065	-200,000	-0,010	-0,061
-581,050	6,302	-0,039	0,021
-580,036	-200,000	-0,018	-0,078
-579,021	399,523	0,037	-0,058
-578,006	-62,680	-0,155	-0,047
-576,992	277,098	-0,081	-0,106
-575,977	-200,000	0,023	0,092
-574,963	30,276	-0,146	-0,091
-573,948	-153,290	0,100	-0,005
-572,934	-200,000	0,005	-0,072
-571,919	-102,062	-0,159	0,028
-570,904	-85,719	0,091	-0,020
-569,890	-11,863	-0,137	0,065
-568,875	-200,000	-0,027	-0,161
-567,861	-200,000	0,005	0,125
-566,846	92,135	0,023	0,019
-565,831	-114,024	-0,087	0,012
-564,817	-200,000	0,022	0,092
-563,802	243,780	-0,047	-0,057
-562,788	74,144	0,026	-0,020
-561,773	800,000	0,041	-0,112
-560,758	-61,838	0,159	-0,048
-559,744	-16,583	0,017	0,008
-558,729	800,000	0,019	-0,042
-557,715	-200,000	-0,011	-0,128
-556,700	123,724	-0,186	-0,171
-555,685	800,000	-0,043	-0,107
-554,671	-200,000	0,012	0,049
-553,656	-109,935	0,094	0,014
-552,642	306,764	0,016	-0,022
-551,627	262,489	-0,085	-0,108
-550,612	800,000	-0,035	0,089
-549,598	-200,000	-0,001	0,083
-548,583	800,000	-0,075	-0,169
-547,569	67,678	-0,021	0,015
-546,554	-200,000	-0,023	0,096
-545,539	136,160	-0,020	-0,019
-544,525	-26,390	0,070	0,030
-543,510	-200,000	-0,003	0,141
-542,496	399,358	-0,068	0,104
-541,481	141,573	-0,108	-0,105
-540,466	800,000	0,050	-0,129
-539,452	-22,282	0,083	-0,037
-538,437	72,479	-0,026	0,020
-537,423	341,321	-0,056	0,080
-536,408	-200,000	0,006	-0,073
-535,393	44,698	-0,036	0,024
-534,379	-200,000	0,007	-0,082
-533,364	800,000	0,031	-0,067
-532,350	59,827	0,028	-0,020
-531,335	347,585	0,083	0,120
-530,321	153,067	0,064	0,064
-529,306	-84,735	-0,024	0,006
-528,291	-16,399	-0,132	0,061
-527,277	-200,000	0,016	-0,115
-526,262	-200,000	0,024	-0,094
-525,248	69,184	0,077	0,058
-524,233	-200,000	0,000	0,079
-523,218	154,214	-0,017	-0,017
-522,204	-33,475	-0,023	0,009
-521,189	156,961	-0,007	0,007
-520,175	113,039	-0,107	-0,095
-519,160	3,510	0,075	-0,040
-518,145	7,434	0,150	-0,082
-517,131	-17,807	-0,076	0,035
-516,116	196,833	0,019	-0,021
-515,102	-59,092	-0,023	-0,007
-514,087	-200,000	-0,019	0,073
-513,072	800,000	-0,012	0,027
-512,058	-200,000	0,003	-0,151
-511,043	800,000	0,015	0,039
-510,029	-103,405	0,014	-0,002
-509,014	800,000	-0,063	0,161
-507,999	689,308	0,025	0,047
-506,985	-29,460	-0,098	-0,041
-505,970	-162,129	-0,088	0,003
-504,956	193,547	-0,064	0,071
-503,941	-200,000	-0,006	0,052
-502,926	800,000	-0,014	0,032
-501,912	116,641	0,043	-0,038
-500,897	-200,000	0,021	0,091
-499,883	499,148	0,017	-0,029
-498,868	-200,000	-0,026	-0,146
-497,853	800,000	-0,042	0,101
-496,839	89,456	0,110	-0,090
-495,824	15,241	0,095	0,054
-494,810	-166,180	0,059	-0,002
-493,795	105,494	0,068	0,059
-492,781	21,261	-0,179	-0,106
-491,766	-102,086	-0,103	-0,018
-490,751	468,354	0,043	0,071
-489,737	-200,000	-0,000	0,037
-488,722	-200,000	0,006	0,075
-487,708	63,862	0,015	0,011
-486,693	687,260	-0,036	-0,068
-485,678	-200,000	0,016	0,137
-484,664	800,000	-0,030	-0,068
-483,649	10,285	-0,162	-0,090
-482,635	185,586	-0,124	-0,135
-481,620	-45,351	0,086	-0,031
-480,605	278,080	-0,046	0,060
-479,591	792,461	0,055	0,111
-478,576	576,742	-0,051	-0,091
-477,562	-200,000	0,041	-0,178
-476,547	-200,000	-0,016	-0,166
-475,532	-22,886	0,132	0,058
-474,518	-83,095	-0,094	-0,022
-473,503	19,646	0,111	0,065
-472,489	90,287	0,164	-0,134
-471,474	-200,000	0,004	-0,061
-470,459	-71,928	0,034	-0,009
-469,445	-141,970	-0,117	-0,008
-468,430	-200,000	-0,007	-0,129
-467,416	-200,000	0,016	0,055
-466,401	-110,065	-0,004	0,001
-465,386	125,206	-0,063	0,058
-464,372	-113,143	-0,019	-0,003
-463,357	-200,000	0,003	0,050
-462,343	800,000	-0,045	-0,095
-461,328	-200,000	0,011	-0,173
-460,313	231,764	-0,056	0,068
-459,299	-42,217	0,119	0,044
-458,284	-60,591	0,119	-0,037
-457,270	-20,504	0,034	0,015
-456,255	-78,834	-0,121	0,030
-455,241	-200,000	0,001	0,108
-454,226	-200,000	-0,020	-0,067
-453,211	-200,000	0,002	-0,077
-452,197	-7,910	-0,100	-0,049
-451,182	145,726	-0,053	0,052
-450,168	139,519	-0,017	-0,017
-449,153	-65,570	-0,097	0,028
-448,138	210,591	-0,092	0,105
-447,124	-80,765	0,149	-0,036
-446,109	188,355	-0,008	0,009
-445,095	17,198	-0,010	0,006
-444,080	-146,023	0,026	0,002
-443,065	62,036	-0,089	0,065
-442,051	-200,000	0,006	0,080
-441,036	800,000	-0,016	0,047
-440,022	23,272	-0,060	-0,036
-439,007	-200,000	-0,002	0,041
-437,992	418,105	0,082	0,128
-436,978	173,358	0,089	-0,094
-435,963	-200,000	0,019	0,066
-434,949	101,621	-0,059	0,050
-433,934	539,204	-0,073	-0,128
-432,919	503,476	-0,023	-0,039
-431,905	735,459	0,031	-0,060
-430,890	-200,000	-0,009	-0,072
-429,876	-200,000	0,018	0,106
-428,861	-82,358	0,049	0,011
-427,846	78,367	0,014	-0,011
-426,832	-200,000	-0,003	-0,044
-425,817	-200,000	0,006	-0,098
-424,803	89,537	-0,030	-0,024
-423,788	-159,326	0,050	0,002
-422,773	800,000	0,047	0,149
-421,759	32,860	0,030	0,019
-420,744	165,823	0,040	0,042
-419,730	781,035	-0,032	-0,063
-418,715	130,817	0,066	0,062
-417,701	165,571	0,040	-0,041
-416,686	-200,000	-0,021	0,070
-415,671	167,982	0,127	0,131
-414,657	113,157	-0,027	0,024
-413,642	493,847	-0,016	0,027
-412,628	-8,342	0,066	-0,032
-411,613	30,892	-0,093	-0,058
-410,598	472,414	-0,056	-0,093
-409,584	-200,000	-0,047	0,155
-408,569	-200,000	-0,014	-0,049
-407,555	800,000	-0,033	0,076
-406,540	-200,000	0,018	0,088
-405,525	-69,975	0,023	-0,006
-404,511	103,348	-0,090	0,077
-403,496	-0,809	0,034	0,018
-402,482	-116,000	-0,124	-0,017
-401,467	-200,000	0,001	0,075
-400,452	800,000	0,050	0,110
-399,438	-200,000	0,019	-0,126
-398,423	-200,000	-0,010	0,103
-397,409	45,485	0,047	0,032
-396,394	800,000	-0,028	-0,077
-395,379	800,000	0,040	0,121
-394,365	275,837	0,058	0,075
-393,350	-138,701	0,045	0,004
-392,336	166,016	-0,049	0,051
-391,321	-95,706	-0,050	-0,010
-390,306	-153,819	-0,065	0,003
-389,292	91,783	0,105	-0,086
-388,277	-46,518	-0,032	-0,012
-387,263	-200,000	-0,019	0,086
-386,248	32,919	0,088	0,055
-385,233	-102,508	0,114	-0,020
-384,219	-13,043	-0,076	0,036
-383,204	800,000	0,022	-0,046
-382,190	-71,450	0,050	-0,014
-381,175	754,546	-0,089	0,175
-380,160	800,000	0,015	0,034
-379,146	382,461	0,045	0,068
-378,131	156,266	0,079	-0,079
-377,117	-42,741	-0,079	0,029
-376,102	-21,541	-0,051	0,023
-375,088	-3,523	-0,137	0,069
-374,073	-200,000	-0,008	-0,048
-373,058	-81,157	0,122	-0,029
-372,044	-200,000	-0,001	0,008
-371,029	102,489	0,068	0,058
-370,015	-54,772	-0,119	0,039
-369,000	-200,000	0,009	0,087
-367,985	759,236	-0,036	-0,071
-366,971	-200,000	0,055	-0,183
-365,956	-200,000	0,033	-0,134
-364,942	122,845	0,081	-0,074
-363,927	-200,000	0,016	-0,067
-362,912	321,097	0,121	-0,168
-361,898	-81,820	-0,072	-0,017
-360,883	-200,000	0,003	-0,083
-359,869	-46,331	0,106	0,038
-358,854	27,340	-0,013	0,008
-357,839	-200,000	-0,024	0,140
-356,825	153,690	0,074	0,073
-355,810	-200,000	-0,013	0,077
-354,796	-200,000	-0,015	0,077
-353,781	-200,000	-0,012	-0,077
-352,766	-93,051	0,138	-0,028
-351,752	565,908	-0,045	-0,080
-350,737	-137,507	-0,101	-0,008
-349,723	259,739	0,100	0,125
-348,708	800,000	-0,025	-0,053
-347,693	-200,000	0,004	-0,133
-346,679	800,000	-0,018	0,038
-345,664	800,000	0,061	-0,125
-344,650	-21,534	-0,046	-0,020
-343,635	800,000	0,017	-0,053
-342,620	800,000	-0,026	-0,057
-341,606	157,747	-0,037	-0,038
-340,591	343,843	0,058	0,083
-339,577	800,000	0,027	0,076
-338,562	-132,082	0,193	-0,018
-337,548	-12,862	-0,093	-0,044
-336,533	-31,914	-0,053	-0,021
-335,518	800,000	0,033	0,089
-334,504	-14,074	0,056	-0,026
-333,489	104,387	0,050	0,043
-332,475	-113,348	-0,049	0,007
-331,460	-200,000	0,000	0,103
-330,445	-200,000	0,003	0,082
-329,431	-100,060	0,122	0,022
-328,416	4,951	-0,037	0,020
-327,402	-85,711	0,073	0,016
-326,387	17,805	-0,009	-0,005
-325,372	30,786	-0,098	0,061
-324,358	-184,031	-0,077	-0,001
-323,343	-12,940	-0,101	-0,047
-322,329	140,305	0,061	-0,058
-321,314	800,000	-0,022	-0,067
-320,299	800,000	0,046	0,098
-319,285	-81,573	0,070	0,017
-318,270	-72,081	-0,051	0,014
-317,256	-125,988	-0,074	0,008
-316,241	-115,346	-0,085	0,012
-315,226	-200,000	-0,006	0,099
-314,212	172,452	0,052	0,054
-313,197	-134,380	-0,108	-0,009
-312,183	-36,215	0,132	-0,051
-311,168	-124,095	0,026	0,003
-310,153	-200,000	0,022	0,070
-309,139	-200,000	0,027	-0,097
-308,124	-105,637	0,265	-0,043
-307,110	-200,000	-0,016	0,091
-306,095	-31,405	0,053	-0,022
-305,080	-200,000	-0,012	0,110
-304,066	250,541	0,056	-0,070
-303,051	-200,000	-0,001	-0,100
-302,037	164,529	0,095	0,097
-301,022	-85,394	0,061	-0,014
-300,008	714,058	0,037	-0,072
-298,993	800,000	0,061	0,140
-297,978	800,000	-0,020	0,045
-296,964	124,444	0,090	0,082
-295,949	352,885	-0,051	-0,074
-294,935	-34,942	-0,093	-0,037
-293,920	800,000	0,028	-0,062
-292,905	305,950	0,085	0,114
-291,891	-200,000	0,000	0,071
-290,876	400,293	-0,037	0,056
-289,862	278,531	0,020	-0,026
-288,847	419,147	0,076	-0,118
-287,832	22,579	0,030	0,018
-286,818	-200,000	-0,011	0,038
-285,803	800,000	-0,037	-0,091
-284,789	-146,737	0,074	0,005
-283,774	-15,177	-0,086	0,040
-282,759	-200,000	0,015	-0,095
-281,745	345,825	0,024	0,035
-280,730	553,103	0,047	-0,082
-279,716	-110,034	0,087	0,013
-278,701	31,274	-0,040	0,025
-277,686	164,224	-0,124	-0,127
-276,672	143,849	-0,107	-0,103
-275,657	-142,076	0,022	0,002
-274,643	379,902	-0,047	-0,070
-273,628	26,280	0,093	-0,056
-272,613	-93,863	0,171	-0,034
-271,599	206,817	0,091	-0,103
-270,584	64,554	-0,064	0,046
-269,570	-9,602	-0,070	0,034
-268,555	3,536	0,040	-0,021
-267,540	-82,206	0,176	0,041
-266,526	800,000	-0,033	-0,071
-265,511	68,184	0,068	-0,050
-264,497	567,222	0,042	0,074
-263,482	800,000	0,038	0,078
-262,467	-19,075	0,132	0,059
-261,453	-200,000	0,011	0,096
-260,438	-200,000	0,005	0,108
-259,424	98,338	-0,073	0,061
-258,409	-200,000	0,026	-0,123
-257,395	800,000	-0,041	0,093
-256,380	158,425	-0,049	-0,049
-255,365	-50,592	0,108	0,037
-254,351	439,537	-0,072	0,113
-253,336	-120,289	0,109	-0,013
-252,322	193,173	-0,117	0,128
-251,307	800,000	-0,005	0,014
-250,292	800,000	0,057	-0,175
-249,278	14,898	0,090	-0,051
-248,263	350,524	0,035	0,050
-247,249	27,679	0,029	0,017
-246,234	157,193	-0,105	-0,105
-245,219	-26,236	-0,018	0,008
-244,205	800,000	0,054	-0,145
-243,190	-200,000	-0,057	0,233
-242,176	20,234	-0,038	0,022
-241,161	-133,995	-0,103	0,009
-240,146	221,371	0,143	0,166
-239,132	0,006	-0,097	0,050
-238,117	66,134	0,089	0,065
-237,103	189,506	-0,069	0,075
-236,088	567,632	0,034	-0,059
-235,073	-200,000	-0,005	0,041
-234,059	800,000	0,021	-0,043
-233,044	167,502	0,112	0,115
-232,030	228,090	0,061	-0,072
-231,015	-47,447	-0,114	-0,040
-230,000	227,154	-0,055	-0,065
-228,986	11,049	0,019	-0,010
-227,971	-47,597	0,093	0,032
-226,957	-169,334	0,064	0,002
-225,942	26,610	0,065	0,039
-224,927	26,672	0,063	0,038
-223,913	254,571	-0,015	0,019
-222,898	-200,000	0,014	-0,089
-221,884	-0,613	-0,053	-0,027
-220,869	-200,000	0,024	0,206
-219,855	-40,947	-0,115	0,043
-218,840	-39,755	-0,193	0,073
-217,825	176,642	-0,017	-0,018
-216,811	800,000	0,024	0,058
-215,796	-15,046	-0,098	-0,045
-214,782	317,381	0,036	-0,049
-213,767	340,403	-0,041	-0,058
-212,752	462,882	0,114	-0,184
-211,738	607,285	-0,047	0,084
-210,723	-200,000	0,001	-0,051
-209,709	706,525	0,011	-0,022
-208,694	-200,000	-0,010	-0,034
-207,679	267,133	-0,022	-0,027
-206,665	245,048	0,044	-0,054
-205,650	702,589	0,032	-0,060
-204,636	-200,000	0,018	0,142
-203,621	-200,000	-0,015	0,100
-202,606	174,005	-0,107	-0,111
-201,592	-200,000	0,030	0,124
-200,577	72,816	0,105	0,079
-199,563	10,800	-0,063	-0,035
-198,548	800,000	0,028	0,067
-197,533	800,000	0,057	0,138
-196,519	-200,000	0,005	0,086
-195,504	800,000	0,010	0,022
-194,490	-184,769	-0,091	-0,001
-193,475	565,795	0,050	0,087
-192,460	287,891	0,145	0,190
-191,446	172,713	-0,086	0,089
-190,431	693,221	0,104	0,197
-189,417	800,000	0,008	-0,020
-188,402	160,096	-0,043	0,044
-187,387	42,789	-0,066	-0,043
-186,373	107,762	0,026	0,022
-185,358	-175,693	-0,157	-0,003
-184,344	93,442	0,072	-0,058
-183,329	-200,000	0,011	-0,077
-182,315	728,845	-0,005	0,010
-181,300	800,000	-0,038	-0,122
-180,285	106,437	-0,032	0,028
-179,271	131,369	-0,092	-0,085
-178,256	-43,217	-0,116	-0,042
-177,242	397,436	0,044	0,067
-176,227	-136,476	0,083	-0,007
-175,212	-120,423	0,070	0,008
-174,198	-200,000	-0,011	0,050
-173,183	800,000	0,031	-0,090
-172,169	-200,000	0,012	-0,100
-171,154	-123,802	0,090	0,010
-170,139	147,545	0,026	0,025
-169,125	407,604	-0,025	0,039
-168,110	-87,154	0,064	-0,014
-167,096	-120,497	0,098	-0,012
-166,081	800,000	-0,062	-0,195
-165,066	-200,000	0,016	0,134
-164,052	417,611	-0,070	-0,109
-163,037	5,341	-0,054	0,029
-162,023	-103,012	0,042	0,007
-161,008	800,000	-0,033	0,078
-159,993	-97,821	0,060	-0,011
-158,979	800,000	0,011	-0,023
-157,964	498,624	-0,062	0,104
-156,950	195,379	-0,095	0,104
-155,935	-61,944	0,041	0,012
-154,920	-200,000	-0,001	0,054
-153,906	54,846	0,024	-0,017
-152,891	-83,073	0,108	0,025
-151,877	800,000	0,023	0,048
-150,862	-43,345	0,046	-0,017
-149,847	-56,889	-0,099	-0,031
-148,833	46,745	-0,034	0,023
-147,818	192,021	-0,099	0,108
-146,804	-29,313	0,116	0,048
-145,789	800,000	0,069	-0,184
-144,775	-200,000	-0,012	-0,120
-143,760	800,000	-0,026	0,065
-142,745	-35,187	-0,092	-0,036
-141,731	543,736	0,037	-0,065
-140,716	-200,000	-0,002	0,052
-139,702	100,031	0,029	0,024
-138,687	114,611	-0,135	-0,119
-137,672	54,358	-0,104	0,072
-136,658	-79,712	-0,073	0,018
-135,643	-0,047	0,105	0,054
-134,629	-200,000	0,005	-0,044
-133,614	-54,033	-0,087	0,028
-132,599	-80,260	0,087	-0,021
-131,585	76,680	0,129	-0,098
-130,570	-200,000	-0,035	0,121
-129,556	475,699	-0,032	-0,053
-128,541	-200,000	0,013	-0,066
-127,526	-41,793	-0,057	-0,021
-126,512	-100,362	0,079	0,014
-125,497	637,734	0,021	0,039
-124,483	-87,363	0,066	0,014
-123,468	147,669	0,043	0,042
-122,453	355,336	-0,037	-0,053
-121,439	800,000	-0,069	-0,151
-120,424	-170,595	-0,140	-0,003
-119,410	78,146	0,140	0,107
-118,395	-89,084	0,077	0,016
-117,380	-200,000	0,010	-0,069
-116,366	331,729	0,027	-0,038
-115,351	9,940	-0,102	-0,056
-114,337	-200,000	0,009	-0,034
-113,322	216,095	-0,028	-0,032
-112,307	-77,236	-0,114	-0,028
-111,293	-29,656	-0,064	-0,026
-110,278	723,520	0,080	0,153
-109,264	144,107	-0,039	0,037
-108,249	-200,000	0,025	0,111
-107,234	-82,099	0,135	-0,031
-106,220	136,123	0,079	-0,074
-105,205	-109,018	0,079	0,012
-104,191	-200,000	0,026	0,087
-103,176	790,839	0,064	0,127
-102,162	-42,702	-0,057	-0,021
-101,147	-200,000	0,027	0,110
-100,132	800,000	0,030	-0,079
-99,118	-61,653	-0,136	0,041
-98,103	65,059	-0,081	0,059
-97,089	54,537	0,062	-0,043
-96,074	-143,440	0,146	0,010
-95,059	46,236	0,121	0,080
-94,045	190,327	0,070	-0,076
-93,030	-200,000	0,011	-0,066
-92,016	301,572	0,053	-0,071
-91,001	39,625	-0,022	-0,014
-89,986	-200,000	0,008	0,066
-88,972	318,089	0,129	0,176
-87,957	800,000	0,010	-0,029
-86,943	-200,000	-0,036	-0,174
-85,928	-200,000	-0,007	-0,164
-84,913	220,218	-0,088	0,102
-83,899	800,000	0,015	0,031
-82,884	-81,940	0,062	-0,014
-81,870	-200,000	-0,025	0,117
-80,855	-132,960	-0,026	-0,002
-79,840	-29,000	0,104	0,043
-78,826	-200,000	-0,003	-0,032
-77,811	168,977	-0,014	-0,014
-76,797	223,548	0,119	-0,138
-75,782	-200,000	0,008	-0,038
-74,767	-10,326	-0,040	0,019
-73,753	-200,000	-0,014	-0,161
-72,738	800,000	-0,067	-0,176
-71,724	-200,000	-0,014	-0,112
-70,709	351,680	-0,046	-0,066
-69,694	-200,000	0,007	-0,041
-68,680	-4,582	-0,057	-0,028
-67,665	-125,694	0,079	-0,008
-66,651	559,351	-0,054	0,095
-65,636	-200,000	0,017	0,154
-64,622	-111,770	-0,033	0,005
-63,607	800,000	-0,058	-0,152
-62,592	-174,912	-0,036	0,001
-61,578	800,000	-0,046	0,097
-60,563	-58,208	0,102	-0,032
-59,549	7,360	-0,123	0,066
-58,534	-12,176	-1,981	-0,928
-57,519	-200,000	-0,232	-0,846
-56,505	-200,000	-1,268	-5,092
-55,490	-4,941	0,864	0,426
-54,476	800,000	5,346	11,969
-53,461	-200,000	17,335	284,690
-52,446	800,000	723,529	2229,008
-51,432	543,321	1639,395	2819,638
-50,417	111,881	1631,011	1413,892
-49,403	76,117	1286,223	976,344
-48,388	32,800	1028,311	637,546
-47,373	20,265	990,415	572,681
-46,359	18,763	978,364	560,760
-45,344	16,163	974,339	549,915
-44,330	16,278	973,172	549,613
-43,315	15,843	971,287	547,103
-42,300	15,854	970,058	546,427
-41,286	15,811	969,093	545,719
-40,271	15,840	968,052	545,208
-39,257	15,891	967,296	544,925
-38,242	15,862	966,256	544,225
-37,227	15,875	965,404	543,765
-36,213	15,795	964,931	543,215
-35,198	15,826	963,801	542,660
-34,184	15,841	963,092	542,289
-33,169	15,822	962,220	541,712
-32,154	15,870	961,272	541,313
-31,140	15,791	960,257	540,464
-30,125	15,933	959,486	540,469
-29,111	15,848	958,638	539,696
-28,096	15,846	958,215	539,430
-27,082	15,850	957,641	539,096
-26,067	15,860	956,474	538,452
-25,052	15,911	955,655	538,132
-24,038	15,886	955,098	537,717
-23,023	15,818	954,542	537,165
-22,009	15,876	953,934	536,987
-20,994	15,869	953,504	536,702
-19,979	15,821	952,811	536,137
-18,965	15,773	952,203	535,619
-17,950	15,856	951,416	535,422
-16,936	15,797	950,940	534,944
-15,921	15,791	950,321	534,554
-14,906	15,727	949,375	533,795
-13,892	15,677	948,897	533,348
-12,877	15,741	948,062	533,061
-11,863	15,736	947,654	532,795
-10,848	15,752	946,750	532,314
-9,833	15,869	946,362	532,448
-8,819	15,793	945,879	531,915
-7,804	15,814	945,085	531,514
-6,790	15,703	944,701	530,924
-5,775	15,754	944,156	530,759
-4,760	15,789	943,379	530,410
-3,746	15,752	942,801	529,948
-2,731	15,569	942,149	528,980
-1,717	15,597	941,397	528,627
-0,702	15,605	940,810	528,301
0,313	15,387	940,169	528,048
1,327	18,581	938,037	536,880
2,342	27,417	795,313	478,633
3,356	24,304	459,186	271,560
4,371	-2,908	314,144	156,883
5,386	-7,037	295,721	143,498
6,400	-9,306	289,745	138,336
7,415	-9,497	287,273	136,954
8,429	-9,558	285,807	136,184
9,444	-9,725	284,969	135,610
10,459	-9,510	284,232	135,456
11,473	-9,788	283,850	134,991
12,488	-9,597	283,062	134,790
13,502	-9,657	282,741	134,567
14,517	-9,583	282,261	134,399
15,531	-9,473	281,708	134,229
16,546	-9,414	281,404	134,129
17,561	-9,481	281,065	133,891
18,575	-9,458	280,798	133,774
19,590	-9,387	280,325	133,605
20,604	-9,580	280,318	133,404
21,619	-9,669	279,723	133,024
22,634	-9,493	279,363	133,009
23,648	-9,354	278,980	132,948
24,663	-9,539	278,818	132,683
25,677	-9,553	278,680	132,592
26,692	-9,400	278,145	132,471
27,707	-9,605	278,099	132,242
28,721	-9,468	277,756	132,198
29,736	-9,509	277,578	132,062
30,750	-9,567	277,233	131,831
31,765	-9,489	277,023	131,793
32,780	-9,667	276,798	131,506
33,794	-9,481	276,418	131,489
34,809	-9,509	276,342	131,415
35,823	-9,578	275,931	131,143
36,838	-9,580	275,687	131,014
37,853	-9,590	275,502	130,904
38,867	-9,631	275,248	130,733
39,882	-9,695	275,152	130,616
40,896	-9,638	274,908	130,542
41,911	-9,539	274,407	130,385
42,926	-9,489	274,378	130,406
43,940	-9,706	274,107	130,064
44,955	-9,394	273,745	130,171
45,969	-9,615	273,546	129,859
46,984	-9,853	273,240	129,480
47,999	-9,891	273,049	129,343
49,013	-10,040	272,744	129,048
50,028	-10,153	272,620	128,873
51,042	-10,121	272,249	128,716
52,057	-10,170	272,041	128,560
53,071	-10,152	271,821	128,461
54,086	-10,070	271,640	128,440
55,101	-10,155	271,509	128,288
56,115	-9,858	271,413	128,507
57,130	-9,718	271,290	128,566
58,144	-9,569	271,005	128,558
59,159	-9,523	270,785	128,484
60,174	-9,481	270,629	128,437
61,188	-9,339	270,319	128,409
62,203	-9,484	270,171	128,195
63,217	-9,504	269,975	128,071
64,232	-9,433	269,687	127,988
65,247	-9,260	269,494	128,045
66,261	-9,558	269,085	127,566
67,276	-9,599	268,844	127,403
68,290	-9,825	268,785	127,156
69,305	-9,890	268,492	126,947
70,320	-9,813	268,248	126,891
71,334	-9,544	268,197	127,100
72,349	-9,439	267,779	126,987
73,363	-9,347	267,619	126,984
74,378	-9,385	267,436	126,850
75,393	-9,402	267,232	126,727
76,407	-9,450	267,102	126,610
77,422	-9,236	266,692	126,599
78,436	-9,645	266,780	126,259
79,451	-9,550	266,443	126,174
80,466	-9,616	266,163	125,970
81,480	-9,702	265,932	125,772
82,495	-9,486	265,714	125,853
83,509	-9,471	265,512	125,760
84,524	-9,712	265,382	125,470
85,539	-9,709	265,052	125,304
86,553	-9,771	264,915	125,173
87,568	-9,622	264,568	125,132
88,582	-9,551	264,444	125,126
89,597	-9,544	264,083	124,949
90,611	-9,599	264,247	124,967
91,626	-9,555	264,064	124,909
92,641	-9,405	263,852	124,932
93,655	-9,565	263,434	124,579
94,670	-9,573	263,291	124,494
95,684	-9,522	263,162	124,467
96,699	-9,570	262,993	124,333
97,714	-9,393	262,635	124,311
98,728	-9,791	262,575	123,917
99,743	-9,760	262,168	123,742
100,757	-9,749	262,056	123,687
101,772	-9,737	261,841	123,585
102,787	-9,661	261,693	123,571
103,801	-9,620	261,589	123,548
104,816	-9,633	261,410	123,441
105,830	-9,440	261,124	123,466
106,845	-9,406	261,081	123,465
107,860	-9,503	260,760	123,216
108,874	-9,531	260,592	123,101
109,889	-9,458	260,321	123,026
110,903	-9,757	260,237	122,712
111,918	-9,613	259,991	122,712
112,933	-9,519	259,826	122,706
113,947	-9,288	259,614	122,798
114,962	-9,402	259,412	122,591
115,976	-9,550	259,261	122,379
116,991	-9,596	259,237	122,317
118,006	-9,442	258,984	122,321
119,020	-9,559	258,694	122,071
120,035	-9,651	258,680	121,973
121,049	-9,382	258,305	122,020
122,064	-9,350	258,127	121,953
123,079	-9,533	258,142	121,790
124,093	-9,561	257,715	121,552
125,108	-9,712	257,559	121,337
126,122	-9,800	257,207	121,083
127,137	-9,939	257,186	120,941
128,151	-9,825	256,946	120,917
129,166	-9,725	256,711	120,882
130,181	-9,798	256,619	120,765
131,195	-9,922	256,383	120,536
132,210	-9,623	256,161	120,680
133,224	-9,610	256,050	120,628
134,239	-9,629	255,923	120,541
135,254	-9,578	255,736	120,486
136,268	-9,684	255,398	120,225
137,283	-9,816	255,304	120,056
138,297	-9,924	255,021	119,819
139,312	-9,762	254,779	119,834
140,327	-9,589	254,661	119,917
141,341	-9,288	254,700	120,184
142,356	-9,473	254,446	119,894
143,370	-9,414	254,299	119,865
144,385	-9,333	254,028	119,796
145,400	-9,236	253,765	119,744
146,414	-9,256	253,648	119,662
147,429	-9,285	253,421	119,519
148,443	-9,350	253,363	119,425
149,458	-9,424	253,125	119,239
150,473	-9,358	253,049	119,249
151,487	-9,227	252,638	119,157
152,502	-9,536	252,721	118,922
153,516	-9,331	252,468	118,967
154,531	-9,320	252,285	118,879
155,546	-9,276	252,008	118,776
156,560	-9,203	251,791	118,725
157,575	-9,698	251,672	118,237
158,589	-9,424	251,533	118,394
159,604	-9,293	251,263	118,368
160,619	-9,333	251,098	118,245
161,633	-9,382	250,951	118,124
162,648	-9,340	250,755	118,057
163,662	-9,349	250,709	118,017
164,677	-9,469	250,545	117,828
165,692	-9,364	250,428	117,851
166,706	-9,276	250,072	117,747
167,721	-9,176	250,014	117,794
168,735	-9,411	249,930	117,545
169,750	-9,214	249,687	117,586
170,764	-9,197	249,578	117,539
171,779	-9,163	249,319	117,435
172,794	-9,412	249,357	117,234
173,808	-9,391	248,957	117,053
174,823	-9,706	248,788	116,699
175,837	-9,910	248,611	116,433
176,852	-9,582	248,529	116,660
177,867	-9,347	248,494	116,830
178,881	-9,270	248,231	116,760
179,896	-9,086	247,939	116,767
180,910	-9,164	247,822	116,636
181,925	-9,203	247,723	116,546
182,940	-9,247	247,430	116,361
183,954	-9,107	247,351	116,430
184,969	-9,302	247,182	116,178
185,983	-9,344	247,092	116,091
186,998	-9,191	246,846	116,091
188,013	-9,157	246,632	116,009
189,027	-9,323	246,323	115,716
190,042	-9,294	246,186	115,665
191,056	-9,463	246,123	115,485
192,071	-9,293	246,027	115,570
193,086	-9,497	245,702	115,239
194,100	-9,172	245,495	115,400
195,115	-9,235	245,341	115,265
196,129	-9,201	245,291	115,260
197,144	-9,384	244,948	114,938
198,159	-9,257	244,891	115,005
199,173	-9,418	244,673	114,759
200,188	-9,389	244,446	114,667
201,202	-9,617	244,259	114,382
202,217	-9,850	244,060	114,087
203,232	-9,807	243,867	114,022
204,246	-9,599	243,684	114,096
205,261	-9,244	243,529	114,305
206,275	-10,390	243,257	113,228
207,290	-7,070	244,476	116,516
208,304	0,148	246,846	123,610
209,319	4,005	247,856	127,300
210,334	4,256	247,787	127,460
211,348	4,374	247,758	127,532
212,363	4,704	247,585	127,704
213,377	4,814	247,462	127,720
214,392	4,622	247,352	127,493
215,407	4,453	247,111	127,218
216,421	4,826	246,803	127,356
217,436	4,741	246,801	127,273
218,450	4,952	246,758	127,413
219,465	4,763	246,522	127,124
220,480	4,341	246,205	126,604
221,494	4,273	246,023	126,442
222,509	4,304	245,879	126,383
223,523	4,250	245,666	126,218
224,538	4,013	245,337	125,844
225,553	4,184	245,252	125,929
226,567	4,387	245,061	125,986
227,582	4,304	245,112	125,932
228,596	4,256	244,889	125,767
229,611	3,850	244,686	125,321
230,626	3,988	244,371	125,261
231,640	4,094	244,462	125,382
232,655	4,412	244,148	125,469
233,669	4,017	243,930	125,025
234,684	3,879	243,786	124,828
235,699	4,281	243,851	125,177
236,713	4,352	243,701	125,146
237,728	4,180	243,363	124,822
238,742	4,034	243,259	124,639
239,757	3,839	243,071	124,374
240,772	4,065	242,778	124,396
241,786	3,855	242,847	124,250
242,801	4,035	242,703	124,311
243,815	4,065	242,373	124,155
244,830	4,256	242,211	124,215
245,844	4,376	242,143	124,266
246,859	3,987	242,044	123,890
247,874	3,834	241,840	123,652
248,888	4,103	241,544	123,705
249,903	4,169	241,468	123,708
250,917	4,063	241,459	123,607
251,932	4,429	241,423	123,872
252,947	4,392	241,182	123,708
253,961	4,064	240,765	123,220
254,976	4,362	240,694	123,412
255,990	4,482	240,546	123,420
257,005	4,157	240,343	123,046
258,020	3,673	240,360	122,657
259,034	3,949	240,110	122,739
260,049	4,088	239,975	122,769
261,063	3,760	239,793	122,404
262,078	4,017	239,514	122,455
263,093	4,421	239,458	122,737
264,107	4,298	239,498	122,649
265,122	3,962	239,171	122,204
266,136	4,006	239,018	122,149
267,151	4,454	238,988	122,478
268,166	4,116	238,620	122,011
269,180	3,891	238,547	121,785
270,195	4,529	238,437	122,223
271,209	4,891	238,601	122,583
272,224	4,197	238,041	121,736
273,239	3,616	238,012	121,251
274,253	3,717	237,773	121,198
275,268	4,056	237,727	121,431
276,282	4,147	237,425	121,338
277,297	4,031	237,299	121,172
278,312	4,043	237,104	121,070
279,326	4,287	237,152	121,276
280,341	4,255	236,861	121,092
281,355	4,179	236,810	120,995
282,370	4,203	236,613	120,902
283,384	4,230	236,493	120,851
284,399	4,132	236,257	120,643
285,414	3,768	236,158	120,297
286,428	3,831	235,950	120,230
287,443	4,010	235,967	120,368
288,457	4,172	235,707	120,351
289,472	4,143	235,713	120,320
290,487	4,020	235,535	120,122
291,501	4,006	235,114	119,886
292,516	3,757	235,018	119,633
293,530	3,694	234,851	119,488
294,545	4,175	234,903	119,878
295,560	4,316	234,582	119,814
296,574	3,984	234,252	119,377
297,589	4,006	234,318	119,416
298,603	4,314	234,312	119,642
299,618	4,315	234,019	119,482
300,633	4,147	233,906	119,284
301,647	4,355	233,849	119,406
302,662	4,559	233,863	119,560
303,676	4,534	233,572	119,381
304,691	4,323	233,401	119,120
305,706	4,654	233,366	119,346
306,720	4,465	233,104	119,057
307,735	4,323	232,934	118,849
308,749	4,403	232,594	118,727
309,764	3,972	232,548	118,362
310,779	4,135	232,382	118,392
311,793	3,769	232,163	117,989
312,808	3,982	231,986	118,052
313,822	3,828	231,768	117,812
314,837	3,893	231,614	117,773
315,852	3,981	231,468	117,755
316,866	4,026	231,408	117,749
317,881	4,234	231,415	117,901
318,895	4,175	231,302	117,788
319,910	4,542	231,121	117,966
320,925	4,495	230,974	117,844
321,939	4,179	230,893	117,551
322,954	4,144	230,664	117,398
323,968	4,023	230,482	117,202
324,983	3,951	230,334	117,062
325,997	4,351	230,201	117,288
327,012	4,500	230,201	117,391
328,027	4,185	230,065	117,071
329,041	4,578	230,057	117,356
330,056	4,807	229,986	117,483
331,070	4,846	229,800	117,407
332,085	4,574	229,487	117,031
333,100	4,341	229,341	116,770
334,114	4,209	229,071	116,521
335,129	4,192	229,076	116,501
336,143	4,601	228,900	116,710
337,158	4,536	228,779	116,589
338,173	4,363	228,501	116,306
339,187	4,019	228,397	115,984
340,202	4,189	228,330	116,067
341,216	4,355	227,993	116,011
342,231	4,339	227,950	115,966
343,246	4,337	227,702	115,828
344,260	4,421	227,671	115,865
345,275	4,696	227,434	115,940
346,289	4,509	227,596	115,873
347,304	4,362	227,424	115,664
348,319	4,573	227,193	115,694
349,333	4,559	226,910	115,529
350,348	4,554	226,744	115,431
351,362	4,476	226,595	115,287
352,377	3,974	226,509	114,858
353,392	4,159	226,272	114,866
354,406	4,059	226,224	114,756
355,421	195,691	1323,346	1401,301
356,435	156,867	1457,019	1401,314
