DTS Sentinel unit serial number:	SN410029Multiplexer serial number:	ORYXHardware model number:	OX2-SRSoftware version number:	ORYX F/W v4,00 Oryx Data Collector v3.7.2.0data status	okinstallation	B5 Nyhavnadifferential loss correction	single-endedforward channel	channel 2reverse channel	N/Adate	2023/12/14time	04:02:13forward acquisition time	300,00reverse acquisition time	0,00gamma	499,1914k internal	0,3156k external	0,3156temperature offset calibration	1,0000default loss term (dB/km)	0,3820temperature slope calibration	1,0000multiplexer offset coefficient	1,0000multiplexer slope coefficient	1,0000fibre end	0,00T internal ref (°C)	8,01T ext. ref 1 (°C)	-8,44T ext. ref 2 (°C)	-8,52length (m)	temperature (°C)	Stokes	anti-Stokes-744,400	739,353	0,060	0,119
-743,385	-149,802	-0,469	-0,027
-742,371	-85,722	0,161	0,037
-741,356	-146,735	-0,391	0,025
-740,342	131,414	0,123	0,116
-739,327	-156,885	-0,341	-0,015
-738,312	170,753	0,135	0,143
-737,298	-92,347	-0,437	-0,090
-736,283	313,083	0,141	0,196
-735,269	-123,113	-0,402	0,047
-734,254	98,837	0,144	0,122
-733,239	-46,521	-0,502	-0,180
-732,225	-21,344	0,221	0,099
-731,210	-200,000	0,002	-0,095
-730,196	420,201	0,052	0,083
-729,181	800,000	0,034	0,079
-728,167	401,386	-0,013	0,020
-727,152	85,856	0,085	-0,069
-726,137	158,695	-0,015	0,015
-725,123	121,083	-0,049	0,045
-724,108	99,065	0,044	0,038
-723,094	-90,425	-0,095	-0,020
-722,079	1,441	-0,022	0,012
-721,064	221,947	-0,051	-0,061
-720,050	-80,697	-0,064	0,015
-719,035	800,000	-0,038	-0,101
-718,021	-63,408	0,045	-0,014
-717,006	-200,000	-0,021	-0,111
-715,991	-70,917	-0,053	0,014
-714,977	-200,000	-0,016	-0,106
-713,962	-200,000	0,034	0,232
-712,948	500,835	0,054	0,092
-711,933	-200,000	-0,005	0,035
-710,918	-64,612	-0,089	0,026
-709,904	-100,831	0,115	0,021
-708,889	-200,000	0,011	-0,098
-707,875	800,000	-0,046	-0,148
-706,860	-139,839	0,029	0,002
-705,845	-113,366	-0,055	0,008
-704,831	-105,741	-0,151	0,025
-703,816	230,004	0,089	-0,107
-702,802	-200,000	0,019	0,087
-701,787	32,027	-0,025	-0,016
-700,772	-200,000	0,005	-0,019
-699,758	363,120	-0,021	0,031
-698,743	434,394	0,046	0,075
-697,729	800,000	0,021	0,047
-696,714	-16,724	-0,116	0,054
-695,699	86,657	-0,078	-0,063
-694,685	-200,000	-0,025	-0,122
-693,670	800,000	-0,018	-0,047
-692,656	-54,197	-0,116	-0,039
-691,641	800,000	-0,021	-0,066
-690,627	-200,000	0,071	0,266
-689,612	-200,000	0,012	-0,108
-688,597	323,344	0,023	-0,033
-687,583	-56,444	-0,040	-0,013
-686,568	462,520	0,041	-0,068
-685,554	800,000	-0,030	-0,091
-684,539	87,371	0,092	0,075
-683,524	13,181	-0,086	0,049
-682,510	-76,525	-0,184	-0,047
-681,495	800,000	0,010	0,027
-680,481	-200,000	-0,017	-0,125
-679,466	800,000	-0,028	0,084
-678,451	103,589	0,085	-0,074
-677,437	355,311	0,040	0,059
-676,422	115,762	-0,084	0,076
-675,408	-200,000	0,037	0,143
-674,393	87,941	0,078	-0,063
-673,378	800,000	0,024	-0,066
-672,364	444,708	0,048	-0,077
-671,349	155,437	0,066	0,067
-670,335	-137,930	-0,085	-0,007
-669,320	800,000	-0,033	-0,102
-668,305	250,701	0,097	-0,121
-667,291	463,719	0,029	-0,048
-666,276	-129,164	-0,104	-0,011
-665,262	-200,000	0,006	-0,057
-664,247	-140,147	-0,050	-0,004
-663,232	-200,000	-0,035	0,137
-662,218	-150,958	0,063	0,003
-661,203	-106,681	-0,178	0,029
-660,189	-5,632	0,061	-0,031
-659,174	-200,000	0,010	0,165
-658,159	55,825	0,068	-0,048
-657,145	72,125	-0,017	-0,013
-656,130	-23,059	-0,087	0,038
-655,116	-87,663	0,099	-0,022
-654,101	-200,000	-0,003	0,119
-653,086	-200,000	-0,003	0,069
-652,072	-91,354	-0,086	0,018
-651,057	-67,147	0,034	0,010
-650,043	-137,665	-0,142	-0,012
-649,028	82,530	-0,046	0,037
-648,014	221,916	0,036	0,042
-646,999	-102,394	0,091	0,016
-645,984	800,000	-0,054	0,137
-644,970	262,913	-0,040	0,051
-643,955	215,074	0,046	0,054
-642,941	-200,000	-0,006	0,035
-641,926	109,167	-0,074	-0,065
-640,911	-200,000	-0,017	-0,071
-639,897	734,906	0,045	0,089
-638,882	-0,719	-0,084	-0,044
-637,868	229,438	-0,064	-0,077
-636,853	-200,000	-0,025	-0,113
-635,838	-89,152	0,062	-0,013
-634,824	149,430	-0,048	-0,047
-633,809	151,867	0,082	0,082
-632,795	-200,000	0,003	0,135
-631,780	-136,218	0,063	0,005
-630,765	-13,907	-0,113	-0,054
-629,751	364,474	-0,029	-0,044
-628,736	-102,942	0,044	-0,008
-627,722	-73,732	-0,029	-0,008
-626,707	549,182	0,006	-0,010
-625,692	-200,000	-0,036	0,196
-624,678	-200,000	0,007	-0,066
-623,663	161,033	0,037	-0,038
-622,649	85,628	0,054	0,044
-621,634	55,270	0,116	0,082
-620,619	-200,000	-0,014	0,054
-619,605	71,401	0,078	0,059
-618,590	-13,456	-0,151	0,072
-617,576	-200,000	-0,048	0,240
-616,561	-130,648	0,049	0,005
-615,546	-200,000	0,001	0,038
-614,532	691,681	-0,038	-0,073
-613,517	38,433	-0,209	-0,137
-612,503	54,961	0,084	-0,059
-611,488	71,310	0,033	0,025
-610,474	800,000	0,057	-0,118
-609,459	282,421	0,026	-0,035
-608,444	-23,557	-0,173	0,076
-607,430	-12,209	-0,071	0,034
-606,415	114,906	-0,047	-0,042
-605,401	-200,000	0,020	0,071
-604,386	296,860	-0,061	0,082
-603,371	55,593	-0,037	-0,026
-602,357	43,556	-0,021	0,014
-601,342	358,637	0,044	-0,065
-600,328	113,274	-0,132	-0,118
-599,313	-120,762	0,037	-0,004
-598,298	216,086	0,043	0,051
-597,284	-200,000	0,006	0,041
-596,269	-200,000	-0,007	-0,049
-595,255	-131,684	-0,038	0,004
-594,240	-29,777	0,054	-0,022
-593,225	494,359	0,037	-0,062
-592,211	-200,000	0,023	-0,137
-591,196	-200,000	0,012	0,102
-590,182	51,313	0,084	0,059
-589,167	130,925	0,085	0,080
-588,152	47,014	0,118	0,081
-587,138	-200,000	0,017	0,106
-586,123	-112,319	-0,061	0,009
-585,109	-52,983	-0,092	0,031
-584,094	-73,337	-0,116	-0,031
-583,079	-33,631	0,031	0,012
-582,065	-50,394	0,065	0,022
-581,050	-166,929	-0,112	0,003
-580,036	-7,824	-0,020	0,010
-579,021	42,130	0,033	-0,022
-578,006	207,482	-0,091	-0,104
-576,992	-13,691	0,081	-0,038
-575,977	452,221	-0,047	0,076
-574,963	-18,961	-0,025	0,012
-573,948	644,672	0,071	-0,134
-572,934	-200,000	-0,045	0,149
-571,919	89,103	0,009	0,008
-570,904	87,675	-0,064	-0,052
-569,890	128,203	0,021	0,019
-568,875	-200,000	-0,051	0,207
-567,861	34,238	0,107	-0,068
-566,846	800,000	0,019	-0,042
-565,831	98,871	0,043	0,037
-564,817	-52,462	-0,021	0,007
-563,802	800,000	0,034	-0,076
-562,788	-173,532	-0,078	0,002
-561,773	-108,647	0,047	0,007
-560,758	383,520	0,015	-0,023
-559,744	-200,000	0,012	0,056
-558,729	791,767	-0,027	0,055
-557,715	-51,524	-0,144	-0,049
-556,700	-200,000	-0,006	-0,149
-555,685	-200,000	-0,024	-0,132
-554,671	-67,622	0,059	0,017
-553,656	-6,670	0,059	0,029
-552,642	-153,686	-0,003	-0,000
-551,627	133,800	0,061	-0,058
-550,612	5,846	-0,108	-0,058
-549,598	-200,000	0,002	0,038
-548,583	438,327	-0,029	0,047
-547,569	-139,197	-0,129	0,010
-546,554	-84,555	0,060	-0,014
-545,539	120,328	0,051	0,046
-544,525	122,001	-0,074	0,068
-543,510	-128,274	-0,061	0,006
-542,496	800,000	0,061	0,135
-541,481	-200,000	-0,046	0,188
-540,466	39,476	0,060	0,039
-539,452	-1,176	0,089	-0,046
-538,437	42,346	0,099	0,066
-537,423	792,074	0,037	-0,076
-536,408	-99,068	-0,155	-0,029
-535,393	250,506	0,134	0,167
-534,379	-66,720	-0,111	0,032
-533,364	-200,000	0,017	-0,106
-532,350	-17,563	0,092	-0,042
-531,335	45,261	0,066	0,044
-530,321	11,001	0,030	-0,017
-529,306	-146,058	-0,068	-0,004
-528,291	-116,529	-0,033	-0,004
-527,277	-16,392	-0,097	-0,045
-526,262	-153,742	-0,123	-0,006
-525,248	100,966	-0,054	-0,046
-524,233	-78,658	-0,097	-0,024
-523,218	-50,574	-0,044	-0,015
-522,204	-41,097	-0,198	-0,074
-521,189	5,207	0,061	0,033
-520,175	-200,000	0,030	-0,098
-519,160	615,645	-0,072	-0,133
-518,145	130,838	0,115	-0,108
-517,131	163,585	-0,086	0,088
-516,116	-8,541	0,119	-0,058
-515,102	800,000	-0,027	-0,060
-514,087	-66,923	-0,091	0,026
-513,072	200,260	-0,060	0,068
-512,058	378,048	-0,034	0,051
-511,043	412,877	-0,022	0,034
-510,029	-128,353	0,092	0,009
-509,014	68,426	0,057	0,043
-507,999	800,000	0,003	0,009
-506,985	111,865	-0,055	0,048
-505,970	-89,886	-0,105	0,022
-504,956	-67,267	0,089	0,026
-503,941	-200,000	-0,006	0,064
-502,926	87,932	0,151	0,123
-501,912	171,580	0,159	0,166
-500,897	-200,000	0,007	-0,074
-499,883	-138,570	-0,072	-0,006
-498,868	-200,000	0,034	0,121
-497,853	-56,020	0,132	0,043
-496,839	-94,407	-0,079	-0,016
-495,824	649,511	-0,016	-0,030
-494,810	-41,597	0,035	-0,013
-493,795	-127,078	-0,023	0,002
-492,781	-101,170	-0,071	-0,013
-491,766	800,000	-0,033	-0,087
-490,751	-61,148	-0,154	-0,047
-489,737	5,229	0,083	-0,045
-488,722	-122,019	-0,108	-0,013
-487,708	-200,000	0,000	0,182
-486,693	800,000	0,012	0,031
-485,678	-200,000	0,015	0,074
-484,664	-200,000	-0,001	0,050
-483,649	6,800	-0,088	0,048
-482,635	248,744	-0,027	-0,034
-481,620	151,742	0,063	0,062
-480,605	-200,000	-0,024	-0,103
-479,591	-200,000	0,037	-0,183
-478,576	800,000	0,019	-0,043
-477,562	297,801	-0,109	-0,146
-476,547	-28,372	-0,064	-0,027
-475,532	-31,994	0,071	0,029
-474,518	800,000	0,052	0,124
-473,503	367,319	-0,028	0,041
-472,489	-200,000	0,020	-0,067
-471,474	-200,000	-0,017	0,066
-470,459	800,000	0,044	-0,097
-469,445	433,676	-0,039	-0,062
-468,430	-200,000	-0,024	-0,102
-467,416	3,518	0,141	0,075
-466,401	-200,000	0,010	0,241
-465,386	98,442	0,046	0,039
-464,372	-200,000	0,026	-0,203
-463,357	175,788	0,017	0,018
-462,343	-54,154	-0,064	-0,021
-461,328	-38,784	-0,079	0,030
-460,313	189,251	0,015	0,016
-459,299	-104,274	0,082	-0,014
-458,284	-200,000	0,028	0,143
-457,270	-200,000	0,024	-0,079
-456,255	-68,879	0,164	-0,046
-455,241	230,384	0,050	0,060
-454,226	-43,050	0,077	-0,028
-453,211	46,561	0,034	0,023
-452,197	-200,000	0,003	0,034
-451,182	130,599	0,037	0,035
-450,168	-17,173	0,056	0,026
-449,153	-200,000	-0,014	-0,060
-448,138	517,895	-0,056	-0,096
-447,124	800,000	0,056	-0,129
-446,109	800,000	-0,021	0,063
-445,095	36,172	-0,105	-0,067
-444,080	-14,456	0,044	-0,020
-443,065	800,000	-0,058	-0,129
-442,051	-200,000	-0,014	-0,108
-441,036	-56,651	0,043	-0,014
-440,022	64,617	-0,080	0,059
-439,007	-91,073	0,153	0,032
-437,992	-160,665	0,073	-0,003
-436,978	-200,000	0,021	-0,106
-435,963	-200,000	0,001	-0,023
-434,949	-200,000	-0,020	0,161
-433,934	253,485	-0,093	-0,117
-432,919	-200,000	0,002	0,068
-431,905	800,000	-0,030	0,071
-430,890	38,079	-0,091	-0,059
-429,876	-25,229	0,052	-0,023
-428,861	455,969	0,067	0,109
-427,846	800,000	0,056	0,152
-426,832	-200,000	-0,025	-0,130
-425,817	323,171	-0,066	0,091
-424,803	202,419	-0,034	-0,038
-423,788	42,178	0,055	0,037
-422,773	517,370	0,037	0,064
-421,759	-200,000	-0,012	-0,140
-420,744	-29,793	-0,050	0,021
-419,730	138,320	0,010	0,009
-418,715	-70,389	-0,038	-0,010
-417,701	85,476	0,011	0,009
-416,686	800,000	-0,038	0,100
-415,671	-134,145	0,142	0,013
-414,657	-200,000	-0,040	0,167
-413,642	8,993	0,087	0,048
-412,628	325,164	-0,088	-0,123
-411,613	-147,164	-0,076	-0,005
-410,598	800,000	-0,039	-0,091
-409,584	133,595	0,046	0,044
-408,569	-12,343	0,042	-0,020
-407,555	175,621	-0,059	0,063
-406,540	800,000	0,062	0,147
-405,525	688,577	-0,019	-0,036
-404,511	800,000	0,010	-0,024
-403,496	-122,818	-0,043	0,005
-402,482	-13,665	0,086	0,040
-401,467	61,042	0,057	0,041
-400,452	423,528	-0,006	-0,010
-399,438	50,619	0,045	-0,031
-398,423	67,225	0,074	-0,055
-397,409	82,188	-0,073	-0,057
-396,394	152,095	-0,072	-0,072
-395,379	-151,232	0,100	-0,005
-394,365	-129,296	-0,014	-0,001
-393,350	23,728	0,113	0,067
-392,336	-200,000	-0,016	0,055
-391,321	-5,946	-0,114	0,056
-390,306	-200,000	-0,004	-0,070
-389,292	-82,278	-0,073	-0,017
-388,277	96,249	0,118	0,098
-387,263	800,000	0,025	-0,057
-386,248	-100,308	-0,032	0,006
-385,233	-200,000	0,011	0,157
-384,219	-41,718	-0,109	0,041
-383,204	-200,000	0,009	0,063
-382,190	-123,713	-0,195	0,022
-381,175	-200,000	0,017	-0,104
-380,160	108,475	0,073	-0,064
-379,146	285,505	0,015	-0,019
-378,131	682,885	0,034	0,064
-377,117	628,397	0,043	-0,079
-376,102	395,577	-0,062	-0,095
-375,088	-60,134	0,070	-0,021
-374,073	-200,000	0,001	0,071
-373,058	109,760	0,084	-0,074
-372,044	800,000	-0,023	-0,066
-371,029	197,133	-0,064	-0,072
-370,015	-200,000	0,000	0,025
-369,000	-92,450	0,106	-0,022
-367,985	800,000	-0,008	0,021
-366,971	409,296	-0,030	-0,047
-365,956	124,861	0,025	0,023
-364,942	-148,587	0,137	-0,008
-363,927	295,866	-0,042	0,056
-362,912	-200,000	-0,000	-0,089
-361,898	-185,117	-0,170	-0,002
-360,883	98,305	0,024	0,020
-359,869	-67,229	-0,118	0,033
-358,854	-76,320	0,032	0,008
-357,839	-200,000	0,013	0,046
-356,825	-43,849	0,052	-0,019
-355,810	-200,000	0,011	-0,039
-354,796	-200,000	-0,004	-0,052
-353,781	-200,000	0,009	-0,174
-352,766	732,989	-0,070	0,137
-351,752	-152,155	0,037	0,002
-350,737	800,000	0,045	-0,107
-349,723	-22,845	-0,100	-0,043
-348,708	800,000	0,042	0,098
-347,693	775,659	-0,033	-0,065
-346,679	373,697	0,030	0,044
-345,664	-200,000	0,002	-0,091
-344,650	60,081	0,049	-0,035
-343,635	1,653	-0,021	0,011
-342,620	421,744	-0,021	-0,033
-341,606	-200,000	0,005	0,135
-340,591	-65,978	-0,169	-0,049
-339,577	-39,115	0,211	-0,080
-338,562	800,000	-0,069	-0,147
-337,548	7,786	-0,031	-0,017
-336,533	-200,000	0,026	0,143
-335,518	17,208	0,108	0,062
-334,504	-143,797	0,063	0,004
-333,489	-97,507	-0,092	0,017
-332,475	650,150	-0,065	-0,121
-331,460	-200,000	-0,040	-0,128
-330,445	15,450	-0,050	-0,028
-329,431	14,304	-0,052	-0,029
-328,416	-200,000	-0,018	-0,062
-327,402	82,741	-0,152	0,120
-326,387	132,214	-0,033	0,031
-325,372	-130,122	-0,036	0,004
-324,358	-143,284	-0,067	-0,005
-323,343	800,000	-0,047	-0,140
-322,329	-124,509	0,071	-0,008
-321,314	-8,873	0,034	0,017
-320,299	-200,000	-0,020	-0,076
-319,285	-200,000	0,010	0,098
-318,270	739,145	-0,029	0,056
-317,256	776,149	-0,026	-0,052
-316,241	-18,311	0,030	-0,013
-315,226	64,509	-0,093	0,068
-314,212	-79,009	0,131	0,032
-313,197	800,000	-0,025	0,055
-312,183	142,292	0,039	-0,037
-311,168	-18,877	0,037	-0,017
-310,153	-43,438	-0,061	-0,022
-309,139	-15,204	0,044	-0,020
-308,124	-5,424	0,063	-0,031
-307,110	-162,698	-0,067	0,002
-306,095	285,093	0,073	0,095
-305,080	-200,000	0,007	0,051
-304,066	322,550	-0,012	0,016
-303,051	2,954	-0,080	-0,042
-302,037	-11,118	-0,104	0,049
-301,022	-51,640	0,035	0,012
-300,008	-89,116	-0,025	0,005
-298,993	-200,000	0,010	0,125
-297,978	-200,000	0,026	0,117
-296,964	-200,000	-0,032	-0,136
-295,949	-114,335	-0,089	0,012
-294,935	-106,851	0,091	0,014
-293,920	-200,000	0,013	0,068
-292,905	42,664	0,055	-0,036
-291,891	800,000	-0,049	0,108
-290,876	124,707	0,076	-0,069
-289,862	92,712	-0,078	0,064
-288,847	94,493	0,072	-0,059
-287,832	90,116	0,024	-0,019
-286,818	800,000	-0,036	0,074
-285,803	-78,937	-0,060	-0,015
-284,789	-67,985	-0,085	0,024
-283,774	236,790	0,053	-0,063
-282,759	-200,000	0,002	-0,039
-281,745	800,000	-0,038	-0,092
-280,730	80,560	-0,020	-0,015
-279,716	800,000	0,034	0,101
-278,701	800,000	0,079	0,187
-277,686	-47,050	0,042	-0,015
-276,672	-5,115	0,062	0,031
-275,657	-200,000	0,007	0,086
-274,643	106,686	-0,017	0,015
-273,628	426,593	0,093	-0,145
-272,613	101,101	-0,043	0,036
-271,599	563,030	0,085	0,149
-270,584	-37,056	-0,049	-0,019
-269,570	-87,290	-0,109	0,024
-268,555	800,000	-0,055	-0,112
-267,540	272,699	0,069	-0,088
-266,526	-200,000	0,011	-0,045
-265,511	303,707	-0,084	0,112
-264,497	-57,422	0,127	0,040
-263,482	253,806	0,081	0,100
-262,467	-200,000	0,025	-0,091
-261,453	800,000	0,070	-0,161
-260,438	132,858	-0,037	0,034
-259,424	48,103	0,070	0,047
-258,409	-157,619	0,055	0,002
-257,395	308,891	0,033	-0,044
-256,380	800,000	-0,055	0,157
-255,365	800,000	0,027	0,068
-254,351	390,270	-0,026	0,039
-253,336	1,182	-0,159	-0,083
-252,322	-200,000	0,044	-0,149
-251,307	794,895	0,035	-0,070
-250,292	-200,000	-0,001	0,058
-249,278	30,502	0,100	0,062
-248,263	720,494	0,054	0,105
-247,249	-102,244	0,134	-0,023
-246,234	376,743	-0,082	-0,121
-245,219	-87,573	0,096	0,021
-244,205	457,035	-0,041	-0,066
-243,190	259,151	-0,061	-0,076
-242,176	-46,497	0,091	0,032
-241,161	-188,165	0,014	0,000
-240,146	-200,000	-0,007	-0,205
-239,132	-141,305	0,147	-0,011
-238,117	4,870	-0,099	0,053
-237,103	-107,869	0,114	0,018
-236,088	24,938	-0,067	0,040
-235,073	76,312	-0,071	0,054
-234,059	-200,000	0,007	0,141
-233,044	321,839	-0,051	-0,071
-232,030	-86,723	0,037	0,008
-231,015	-81,976	-0,009	0,002
-230,000	246,161	0,170	-0,208
-228,986	23,024	-0,072	-0,042
-227,971	36,578	0,088	0,056
-226,957	71,557	-0,061	0,046
-225,942	800,000	-0,030	0,073
-224,927	-1,883	-0,036	0,018
-223,913	-200,000	0,059	-0,209
-222,898	246,428	-0,054	-0,066
-221,884	-200,000	-0,014	-0,050
-220,869	364,909	0,082	-0,119
-219,855	-67,106	0,059	-0,017
-218,840	-200,000	0,001	0,042
-217,825	7,628	-0,105	0,057
-216,811	-200,000	-0,007	0,151
-215,796	-200,000	-0,019	0,070
-214,782	-33,222	-0,100	0,040
-213,767	390,486	0,112	-0,169
-212,752	9,853	0,063	0,034
-211,738	136,401	0,033	0,031
-210,723	336,199	0,053	0,074
-209,709	800,000	0,031	-0,087
-208,694	-94,184	-0,119	0,023
-207,679	84,048	-0,051	-0,040
-206,665	-200,000	0,001	0,179
-205,650	136,865	0,132	0,124
-204,636	577,508	-0,009	-0,016
-203,621	-27,570	0,061	0,025
-202,606	800,000	0,039	-0,098
-201,592	17,663	0,073	-0,042
-200,577	-45,263	-0,196	0,070
-199,563	-48,459	0,111	-0,038
-198,548	-200,000	0,030	0,121
-197,533	156,789	0,113	-0,112
-196,519	-200,000	0,021	0,096
-195,504	279,958	-0,034	0,044
-194,490	-163,876	-0,108	0,004
-193,475	-200,000	-0,008	-0,081
-192,460	392,887	0,035	0,053
-191,446	-200,000	0,014	0,046
-190,431	800,000	-0,013	0,034
-189,417	28,511	0,025	0,015
-188,402	-23,365	0,005	0,002
-187,387	-200,000	0,001	-0,068
-186,373	-80,625	-0,181	0,043
-185,358	-200,000	0,000	-0,007
-184,344	179,780	0,057	-0,060
-183,329	361,797	0,064	0,092
-182,315	25,273	0,140	0,084
-181,300	110,061	-0,015	-0,013
-180,285	297,314	-0,075	-0,100
-179,271	585,829	-0,030	-0,054
-178,256	-200,000	0,001	0,132
-177,242	-92,683	-0,014	0,003
-176,227	252,903	-0,047	-0,058
-175,212	800,000	0,059	-0,138
-174,198	60,498	-0,020	0,014
-173,183	800,000	-0,047	-0,137
-172,169	-155,275	-0,093	-0,004
-171,154	146,936	0,025	-0,024
-170,139	449,475	-0,045	-0,072
-169,125	-151,855	0,122	0,006
-168,110	800,000	-0,012	-0,029
-167,096	61,276	-0,080	-0,057
-166,081	195,899	0,131	-0,144
-165,066	-1,632	0,022	-0,011
-164,052	-101,732	0,071	0,012
-163,037	-25,631	-0,050	-0,021
-162,023	-200,000	0,024	0,104
-161,008	-115,724	-0,074	0,010
-159,993	374,777	0,034	0,050
-158,979	-200,000	0,014	-0,208
-157,964	800,000	-0,052	-0,121
-156,950	-139,095	0,126	-0,010
-155,935	320,079	0,057	-0,078
-154,920	-200,000	0,020	-0,068
-153,906	-173,343	-0,132	0,003
-152,891	-58,094	-0,159	-0,050
-151,877	57,993	-0,031	-0,022
-150,862	295,088	0,086	-0,114
-149,847	-200,000	-0,048	0,159
-148,833	-200,000	0,007	-0,085
-147,818	-76,781	0,073	-0,018
-146,804	-123,907	0,049	0,005
-145,789	222,321	-0,044	0,051
-144,775	-67,174	0,031	-0,009
-143,760	116,170	0,036	0,032
-142,745	474,033	0,014	0,023
-141,731	-14,990	0,077	0,035
-140,716	-23,452	-0,041	-0,018
-139,702	-200,000	-0,003	-0,036
-138,687	-200,000	0,021	0,070
-137,672	-200,000	-0,024	0,166
-136,658	-74,719	0,148	-0,038
-135,643	-62,925	0,171	-0,051
-134,629	-42,564	0,049	-0,018
-133,614	480,737	0,044	0,073
-132,599	800,000	-0,064	0,153
-131,585	-138,587	0,109	-0,009
-130,570	-200,000	-0,003	0,011
-129,556	800,000	0,018	0,039
-128,541	-200,000	0,004	-0,037
-127,526	2,092	0,060	-0,031
-126,512	-36,845	0,095	0,036
-125,497	-153,184	0,113	-0,006
-124,483	201,115	0,014	0,016
-123,468	-200,000	-0,001	0,033
-122,453	-87,029	-0,102	0,022
-121,439	30,910	-0,091	-0,056
-120,424	800,000	0,028	-0,085
-119,410	-200,000	-0,009	0,117
-118,395	144,750	-0,104	0,100
-117,380	2,712	0,052	-0,027
-116,366	-46,889	-0,027	-0,009
-115,351	-0,508	-0,080	-0,041
-114,337	-200,000	-0,035	-0,141
-113,322	-37,891	-0,057	0,022
-112,307	-200,000	0,022	0,154
-111,293	-148,278	0,072	-0,004
-110,278	-9,524	0,197	-0,094
-109,264	-200,000	-0,011	0,053
-108,249	255,126	-0,076	0,094
-107,234	-125,444	0,071	0,008
-106,220	58,468	-0,036	-0,025
-105,205	-126,764	0,094	0,010
-104,191	279,580	-0,015	0,020
-103,176	55,616	0,040	0,028
-102,162	800,000	0,041	0,116
-101,147	800,000	-0,028	-0,057
-100,132	-134,571	-0,063	-0,005
-99,118	-110,167	0,111	0,016
-98,103	6,842	0,050	-0,027
-97,089	-200,000	0,001	0,043
-96,074	-200,000	-0,014	0,048
-95,059	89,797	0,057	-0,046
-94,045	800,000	-0,040	-0,097
-93,030	-200,000	-0,011	-0,056
-92,016	-200,000	0,003	0,018
-91,001	26,997	0,146	-0,088
-89,986	-200,000	-0,052	-0,164
-88,972	-200,000	0,009	0,191
-87,957	-200,000	-0,003	-0,033
-86,943	800,000	0,050	-0,100
-85,928	-60,565	0,074	-0,022
-84,913	-72,823	-0,005	-0,001
-83,899	800,000	-0,044	0,140
-82,884	800,000	0,049	-0,109
-81,870	-200,000	-0,008	0,031
-80,855	365,863	0,029	-0,043
-79,840	-30,063	0,051	-0,021
-78,826	41,219	0,067	-0,043
-77,811	10,678	-0,085	0,046
-76,797	501,518	0,032	0,053
-75,782	-200,000	0,019	0,077
-74,767	-65,612	0,086	0,025
-73,753	474,277	0,037	0,060
-72,738	-67,169	-0,042	0,012
-71,724	-200,000	0,006	0,023
-70,709	29,321	-0,041	-0,025
-69,694	-200,000	-0,011	0,062
-68,680	131,475	0,089	0,082
-67,665	-200,000	-0,026	0,144
-66,651	-200,000	-0,002	0,046
-65,636	800,000	-0,030	-0,082
-64,622	5,866	0,121	0,064
-63,607	800,000	0,046	0,114
-62,592	-59,554	0,125	-0,038
-61,578	26,363	-0,110	0,066
-60,563	-200,000	-0,052	0,194
-59,549	-200,000	0,012	0,235
-58,534	94,809	-2,623	-2,142
-57,519	22,334	0,386	-0,226
-56,505	-200,000	-1,557	-5,554
-55,490	354,221	1,287	1,841
-54,476	800,000	5,218	11,511
-53,461	-200,000	22,188	347,427
-52,446	800,000	759,044	2294,732
-51,432	514,754	1643,722	2765,043
-50,417	97,266	1607,262	1323,796
-49,403	64,884	1264,911	915,611
-48,388	22,997	1017,178	597,474
-47,373	19,439	984,479	566,511
-46,359	13,019	971,335	537,938
-45,344	8,666	968,069	521,853
-44,330	9,113	966,112	522,241
-43,315	8,197	964,304	518,250
-42,300	8,043	963,315	517,197
-41,286	8,080	962,282	516,742
-40,271	8,072	961,276	516,154
-39,257	8,084	960,364	515,682
-38,242	8,049	959,634	515,158
-37,227	8,040	958,779	514,648
-36,213	8,021	957,883	514,085
-35,198	8,031	957,130	513,692
-34,184	8,084	956,241	513,367
-33,169	8,025	955,321	512,662
-32,154	8,051	954,491	512,280
-31,140	8,023	953,677	511,733
-30,125	8,090	952,753	511,433
-29,111	8,032	952,208	510,933
-28,096	8,078	951,326	510,589
-27,082	8,030	950,742	510,100
-26,067	7,982	949,912	509,480
-25,052	8,021	949,301	509,257
-24,038	8,051	948,555	508,934
-23,023	8,001	947,859	508,378
-22,009	8,039	947,256	508,156
-20,994	8,038	946,684	507,829
-19,979	8,026	946,005	507,405
-18,965	8,034	945,273	507,016
-17,950	8,019	944,730	506,656
-16,936	7,997	944,032	506,192
-15,921	7,992	943,456	505,847
-14,906	8,038	942,629	505,530
-13,892	7,917	941,950	504,761
-12,877	7,923	941,443	504,487
-11,863	7,905	940,978	504,162
-10,848	7,888	940,355	503,755
-9,833	7,987	939,845	503,775
-8,819	7,949	939,254	503,320
-7,804	7,938	938,422	502,817
-6,790	7,938	937,854	502,492
-5,775	8,046	937,232	502,483
-4,760	7,947	936,799	501,915
-3,746	8,003	935,947	501,618
-2,731	7,804	935,355	500,649
-1,717	7,737	935,009	500,235
-0,702	7,765	934,182	499,861
0,313	7,680	933,385	499,919
1,327	10,951	931,210	509,022
2,342	19,415	779,490	448,266
3,356	14,243	447,205	249,379
4,371	-11,738	311,652	146,222
5,386	-15,481	293,973	134,141
6,400	-17,736	287,840	129,104
7,415	-17,671	285,380	128,052
8,429	-18,259	283,543	126,645
9,444	-18,388	282,707	126,135
10,459	-18,181	282,196	126,096
11,473	-18,315	281,319	125,563
12,488	-18,303	281,055	125,446
13,502	-18,340	280,598	125,196
14,517	-18,147	280,119	125,156
15,531	-17,953	279,738	125,161
16,546	-18,002	279,408	124,955
17,561	-18,020	278,878	124,690
18,575	-17,826	278,663	124,767
19,590	-17,898	278,326	124,537
20,604	-17,878	277,997	124,398
21,619	-17,980	277,563	124,095
22,634	-17,909	277,205	123,992
23,648	-18,088	276,996	123,717
24,663	-17,920	276,539	123,662
25,677	-17,843	276,313	123,623
26,692	-17,995	276,217	123,424
27,707	-17,798	275,723	123,378
28,721	-17,801	275,395	123,218
29,736	-17,871	275,424	123,154
30,750	-17,877	274,991	122,944
31,765	-17,988	274,850	122,765
32,780	-17,751	274,551	122,843
33,794	-17,781	274,290	122,688
34,809	-17,828	273,994	122,500
35,823	-17,774	273,689	122,404
36,838	-17,839	273,578	122,283
37,853	-17,767	273,405	122,261
38,867	-18,058	273,130	121,856
39,882	-17,746	272,729	121,956
40,896	-18,082	272,804	121,666
41,911	-17,813	272,349	121,703
42,926	-17,815	272,085	121,572
43,940	-17,998	271,849	121,286
44,955	-17,944	271,624	121,225
45,969	-17,882	271,449	121,193
46,984	-17,933	271,225	121,036
47,999	-17,805	270,957	121,024
49,013	-17,766	270,728	120,947
50,028	-17,704	270,478	120,881
51,042	-17,849	270,467	120,731
52,057	-17,686	270,087	120,702
53,071	-17,728	269,988	120,608
54,086	-17,844	269,862	120,434
55,101	-17,904	269,533	120,221
56,115	-17,816	269,293	120,184
57,130	-17,856	268,858	119,943
58,144	-17,968	268,667	119,744
59,159	-18,034	268,294	119,507
60,174	-18,081	268,244	119,430
61,188	-17,921	267,756	119,349
62,203	-17,919	267,753	119,339
63,217	-17,912	267,452	119,200
64,232	-17,899	267,319	119,142
65,247	-17,955	267,132	118,997
66,261	-17,990	266,746	118,783
67,276	-17,909	266,572	118,769
68,290	-17,903	266,553	118,755
69,305	-17,769	266,097	118,662
70,320	-17,780	265,886	118,548
71,334	-17,739	265,691	118,488
72,349	-18,065	265,505	118,100
73,363	-17,835	265,265	118,190
74,378	-17,895	264,943	117,981
75,393	-17,965	264,649	117,777
76,407	-17,737	264,416	117,869
77,422	-17,791	264,431	117,816
78,436	-17,858	264,157	117,623
79,451	-17,961	263,933	117,420
80,466	-17,751	263,635	117,466
81,480	-17,753	263,585	117,431
82,495	-17,820	263,264	117,218
83,509	-17,653	263,029	117,252
84,524	-17,796	262,860	117,038
85,539	-17,592	262,573	117,083
86,553	-17,726	262,407	116,878
87,568	-17,797	262,245	116,733
88,582	-17,895	262,054	116,550
89,597	-17,898	261,737	116,396
90,611	-17,747	261,601	116,459
91,626	-17,710	261,294	116,345
92,641	-18,002	261,204	116,035
93,655	-17,779	261,025	116,143
94,670	-17,931	260,770	115,885
95,684	-17,832	260,633	115,901
96,699	-17,831	260,249	115,721
97,714	-17,672	260,113	115,791
98,728	-17,788	260,000	115,627
99,743	-17,817	259,798	115,502
100,757	-17,764	259,538	115,423
101,772	-17,850	259,304	115,232
102,787	-18,022	259,179	115,015
103,801	-17,817	258,914	115,067
104,816	-17,842	258,731	114,954
105,830	-17,910	258,525	114,793
106,845	-17,766	258,196	114,762
107,860	-17,869	258,086	114,613
108,874	-17,752	257,740	114,551
109,889	-17,854	257,585	114,383
110,903	-17,902	257,397	114,247
111,918	-17,741	257,264	114,319
112,933	-17,849	257,008	114,101
113,947	-17,832	256,928	114,070
114,962	-17,868	256,668	113,913
115,976	-17,768	256,464	113,899
116,991	-17,731	256,195	113,803
118,006	-17,826	255,928	113,590
119,020	-17,831	256,048	113,629
120,035	-17,792	255,725	113,509
121,049	-17,834	255,553	113,387
122,064	-17,735	255,255	113,330
123,079	-17,748	255,131	113,254
124,093	-17,866	255,066	113,112
125,108	-17,794	254,798	113,046
126,122	-17,600	254,653	113,139
127,137	-17,773	254,454	112,892
128,151	-17,641	254,237	112,900
129,166	-17,728	254,062	112,737
130,181	-17,783	253,795	112,560
131,195	-17,703	253,558	112,514
132,210	-17,679	253,295	112,408
133,224	-17,819	253,208	112,239
134,239	-17,647	252,786	112,189
135,254	-17,811	252,770	112,031
136,268	-17,669	252,508	112,027
137,283	-17,657	252,376	111,969
138,297	-17,643	252,128	111,861
139,312	-17,718	251,823	111,652
140,327	-17,801	251,668	111,502
141,341	-17,697	251,500	111,507
142,356	-17,916	251,397	111,264
143,370	-17,766	251,031	111,220
144,385	-17,690	251,043	111,280
145,400	-17,930	250,845	110,978
146,414	-17,831	250,537	110,916
147,429	-17,864	250,459	110,844
148,443	-17,677	250,211	110,883
149,458	-17,822	250,011	110,661
150,473	-17,718	249,769	110,633
151,487	-17,864	249,700	110,468
152,502	-17,878	249,330	110,283
153,516	-17,734	249,193	110,334
154,531	-17,730	248,982	110,234
155,546	-17,632	248,755	110,207
156,560	-17,597	248,603	110,158
157,575	-17,926	248,428	109,795
158,589	-17,685	248,229	109,899
159,604	-17,834	248,032	109,678
160,619	-17,738	247,734	109,616
161,633	-17,667	247,790	109,691
162,648	-17,762	247,610	109,522
163,662	-17,533	247,437	109,627
164,677	-17,588	247,269	109,497
165,692	-17,991	247,289	109,159
166,706	-17,747	247,064	109,253
167,721	-17,765	246,725	109,079
168,735	-17,766	246,723	109,067
169,750	-17,634	246,356	109,005
170,764	-17,697	246,341	108,937
171,779	-17,806	246,093	108,727
172,794	-17,683	245,889	108,729
173,808	-17,746	245,840	108,645
174,823	-17,550	245,617	108,700
175,837	-17,550	245,444	108,614
176,852	-17,646	245,263	108,445
177,867	-17,736	245,039	108,262
178,881	-17,597	244,790	108,256
179,896	-17,563	244,659	108,217
180,910	-17,792	244,391	107,900
181,925	-17,772	244,329	107,879
182,940	-17,738	244,220	107,849
183,954	-17,735	243,928	107,714
184,969	-17,975	244,018	107,545
185,983	-17,733	243,557	107,532
186,998	-17,656	243,450	107,538
188,013	-17,667	243,264	107,438
189,027	-17,604	243,034	107,378
190,042	-17,716	242,846	107,194
191,056	-18,007	242,901	106,970
192,071	-17,761	242,587	107,023
193,086	-17,874	242,486	106,877
194,100	-17,894	242,239	106,742
195,115	-17,711	242,021	106,786
196,129	-17,776	241,890	106,666
197,144	-17,975	241,674	106,399
198,159	-17,773	241,501	106,477
199,173	-17,749	241,343	106,418
200,188	-17,728	241,156	106,343
201,202	-17,770	240,989	106,226
202,217	-17,738	240,750	106,137
203,232	-17,522	240,718	106,289
204,246	-17,721	240,237	105,906
205,261	-18,113	240,183	105,555
206,275	-16,733	240,616	106,856
207,290	-11,939	242,126	111,428
208,304	-5,491	244,124	117,629
209,319	-2,486	245,108	120,564
210,334	-1,512	245,353	121,474
211,348	-0,322	245,615	122,572
212,363	0,238	245,443	122,935
213,377	0,474	245,632	123,212
214,392	0,873	245,509	123,468
215,407	1,138	245,397	123,617
216,421	0,979	245,360	123,457
217,436	1,359	245,099	123,626
218,450	1,208	244,998	123,441
219,465	1,301	244,904	123,458
220,480	1,571	244,704	123,567
221,494	1,304	244,420	123,195
222,509	0,947	244,222	122,793
223,523	0,760	243,882	122,458
224,538	0,719	243,693	122,319
225,553	0,330	243,618	121,954
226,567	0,416	243,416	121,912
227,582	0,433	243,264	121,839
228,596	0,491	243,154	121,820
229,611	0,662	242,926	121,834
230,626	0,544	242,629	121,579
231,640	0,592	242,603	121,593
232,655	0,667	242,402	121,543
233,669	0,630	242,328	121,465
234,684	0,478	242,010	121,171
235,699	0,634	241,942	121,253
236,713	0,571	242,007	121,223
237,728	0,510	241,620	120,970
238,742	0,614	241,420	120,942
239,757	0,610	241,218	120,827
240,772	0,748	241,066	120,852
241,786	0,520	241,122	120,685
242,801	0,496	240,861	120,525
243,815	0,694	240,807	120,646
244,830	0,518	240,542	120,361
245,844	0,673	240,404	120,405
246,859	0,642	240,126	120,231
247,874	0,701	240,020	120,214
248,888	0,538	239,890	120,008
249,903	0,482	239,939	119,977
250,917	0,585	239,718	119,938
251,932	0,835	239,358	119,947
252,947	0,608	239,351	119,751
253,961	0,789	239,209	119,814
254,976	0,638	239,064	119,610
255,990	0,693	238,794	119,509
257,005	0,680	238,758	119,469
258,020	0,520	238,520	119,213
259,034	0,619	238,355	119,198
260,049	0,622	238,210	119,117
261,063	0,493	238,062	118,930
262,078	0,304	237,970	118,724
263,093	0,491	237,744	118,749
264,107	0,478	237,687	118,699
265,122	0,648	237,495	118,728
266,136	0,540	237,247	118,508
267,151	0,608	237,219	118,537
268,166	0,929	236,913	118,626
269,180	0,543	236,781	118,246
270,195	0,505	236,684	118,157
271,209	0,885	236,280	118,243
272,224	0,644	236,430	118,118
273,239	0,529	236,180	117,893
274,253	0,537	236,113	117,855
275,268	0,421	235,824	117,609
276,282	0,486	235,646	117,560
277,297	0,507	235,485	117,486
278,312	0,466	235,432	117,417
279,326	0,639	235,176	117,414
280,341	0,624	235,301	117,454
281,355	0,674	234,949	117,307
282,370	0,727	234,843	117,285
283,384	0,770	234,680	117,227
284,399	0,679	234,472	117,042
285,414	0,609	234,345	116,913
286,428	0,676	234,232	116,899
287,443	0,490	234,118	116,686
288,457	0,629	233,905	116,678
289,472	0,696	233,790	116,662
290,487	0,542	233,625	116,450
291,501	0,740	233,362	116,462
292,516	0,769	233,329	116,458
293,530	0,502	233,300	116,226
294,545	0,740	233,045	116,273
295,560	0,593	232,810	116,032
296,574	0,791	232,819	116,179
297,589	0,689	232,616	115,988
298,603	0,797	232,357	115,932
299,618	0,732	232,319	115,852
300,633	0,806	232,202	115,842
301,647	0,767	232,057	115,728
302,662	0,974	231,918	115,808
303,676	0,854	231,792	115,643
304,691	0,836	231,634	115,539
305,706	0,912	231,495	115,518
306,720	0,998	231,336	115,494
307,735	0,728	231,291	115,255
308,749	0,891	231,019	115,234
309,764	0,835	230,805	115,074
310,779	0,804	230,671	114,973
311,793	0,902	230,542	114,974
312,808	0,951	230,295	114,878
313,822	0,970	230,182	114,825
314,837	0,710	230,198	114,625
315,852	0,868	229,888	114,580
316,866	0,784	229,833	114,479
317,881	0,790	229,660	114,387
318,895	0,879	229,474	114,352
319,910	0,888	229,463	114,343
320,925	1,015	229,096	114,246
321,939	0,858	229,109	114,124
322,954	1,030	228,895	114,137
323,968	1,054	228,868	114,131
324,983	0,914	228,664	113,914
325,997	0,923	228,434	113,796
327,012	0,858	228,393	113,716
328,027	0,805	228,038	113,489
329,041	0,803	227,942	113,430
330,056	0,893	227,845	113,439
331,070	0,978	227,716	113,429
332,085	1,058	227,547	113,395
333,100	1,034	227,411	113,299
334,114	0,943	227,221	113,126
335,129	0,795	227,151	112,970
336,143	0,806	227,107	112,946
337,158	0,999	226,902	112,979
338,173	1,109	226,819	113,010
339,187	1,064	226,545	112,830
340,202	0,912	226,482	112,674
341,216	1,083	226,309	112,706
342,231	1,035	226,142	112,577
343,246	0,857	226,113	112,419
344,260	1,104	225,903	112,489
345,275	1,006	225,719	112,314
346,289	1,317	225,527	112,441
347,304	1,054	225,398	112,171
348,319	1,111	225,246	112,127
349,333	1,025	225,214	112,038
350,348	0,877	225,018	111,820
351,362	0,927	224,921	111,799
352,377	1,086	224,841	111,867
353,392	1,062	224,667	111,753
354,406	1,186	224,314	111,659
355,421	191,437	1310,756	1374,475
356,435	153,286	1442,981	1374,321
