DTS Sentinel unit serial number:	SN410029Multiplexer serial number:	ORYXHardware model number:	OX2-SRSoftware version number:	ORYX F/W v4,00 Oryx Data Collector v3.7.2.0data status	okinstallation	B5 Nyhavnadifferential loss correction	single-endedforward channel	channel 2reverse channel	N/Adate	2023/12/12time	19:17:13forward acquisition time	300,00reverse acquisition time	0,00gamma	499,1914k internal	0,3157k external	0,3157temperature offset calibration	1,0000default loss term (dB/km)	0,3820temperature slope calibration	1,0000multiplexer offset coefficient	1,0000multiplexer slope coefficient	1,0000fibre end	0,00T internal ref (°C)	15,50T ext. ref 1 (°C)	-1,12T ext. ref 2 (°C)	-1,44length (m)	temperature (°C)	Stokes	anti-Stokes-744,400	18,582	0,110	0,065
-743,385	-121,161	-0,373	-0,046
-742,371	-115,721	0,091	0,012
-741,356	-85,284	-0,276	0,063
-740,342	33,406	0,075	-0,048
-739,327	-125,608	-0,406	0,045
-738,312	-200,000	-0,009	-0,061
-737,298	-127,666	-0,241	-0,025
-736,283	487,792	0,057	-0,096
-735,269	-18,537	-0,193	-0,088
-734,254	216,779	0,039	0,046
-733,239	-20,286	-0,518	-0,234
-732,225	-39,075	0,276	-0,107
-731,210	-12,537	0,060	0,029
-730,196	-200,000	0,012	-0,088
-729,181	-123,808	0,057	-0,007
-728,167	-119,661	0,102	-0,013
-727,152	176,554	-0,066	-0,071
-726,137	178,896	-0,035	0,038
-725,123	-200,000	0,001	-0,106
-724,108	-200,000	-0,018	-0,127
-723,094	800,000	-0,010	-0,031
-722,079	800,000	0,030	-0,088
-721,064	127,910	-0,053	-0,050
-720,050	159,095	-0,022	-0,022
-719,035	-5,099	0,115	-0,058
-718,021	53,522	-0,019	-0,013
-717,006	200,629	0,078	-0,088
-715,991	-200,000	0,008	-0,102
-714,977	-84,493	-0,230	-0,053
-713,962	-112,074	-0,117	-0,017
-712,948	23,719	0,123	-0,074
-711,933	267,617	-0,039	0,051
-710,918	129,488	0,081	0,076
-709,904	88,778	-0,034	0,028
-708,889	88,006	0,047	-0,038
-707,875	47,706	-0,163	-0,112
-706,860	437,705	0,068	-0,109
-705,845	800,000	-0,023	-0,070
-704,831	-89,615	-0,081	-0,017
-703,816	-90,661	-0,111	0,024
-702,802	-200,000	0,006	-0,058
-701,787	-200,000	0,033	-0,201
-700,772	800,000	-0,060	-0,140
-699,758	-133,667	0,067	-0,006
-698,743	452,989	0,062	-0,102
-697,729	-94,706	0,049	-0,010
-696,714	676,626	-0,042	-0,080
-695,699	-9,807	-0,008	-0,004
-694,685	185,774	-0,151	-0,166
-693,670	480,810	-0,024	-0,040
-692,656	120,365	-0,070	-0,064
-691,641	134,653	-0,048	0,045
-690,627	-46,466	0,144	-0,052
-689,612	-60,869	0,045	-0,014
-688,597	-83,128	-0,081	-0,019
-687,583	800,000	-0,033	-0,083
-686,568	355,052	-0,124	-0,182
-685,554	-200,000	-0,014	-0,065
-684,539	304,868	-0,088	-0,121
-683,524	-47,248	0,080	-0,028
-682,510	800,000	-0,024	-0,052
-681,495	277,992	-0,095	-0,125
-680,481	800,000	-0,054	-0,170
-679,466	-200,000	-0,016	-0,140
-678,451	800,000	0,024	0,064
-677,437	-167,977	-0,055	-0,002
-676,422	86,611	0,120	0,097
-675,408	-200,000	-0,010	0,038
-674,393	-200,000	0,009	-0,063
-673,378	-200,000	0,009	-0,094
-672,364	299,021	0,077	-0,104
-671,349	155,430	-0,165	-0,168
-670,335	22,083	0,083	-0,050
-669,320	387,587	0,067	0,102
-668,305	-100,530	0,093	-0,017
-667,291	800,000	0,054	0,114
-666,276	-200,000	0,000	0,035
-665,262	-200,000	0,000	-0,173
-664,247	299,220	-0,024	-0,033
-663,232	-49,895	-0,099	-0,034
-662,218	-200,000	-0,023	-0,085
-661,203	-110,714	-0,026	0,004
-660,189	158,406	-0,107	0,109
-659,174	800,000	0,050	-0,103
-658,159	663,192	0,079	-0,150
-657,145	-16,924	-0,145	0,067
-656,130	491,829	-0,056	0,094
-655,116	-167,860	0,062	-0,002
-654,101	298,392	-0,047	-0,064
-653,086	-19,578	0,156	0,071
-652,072	800,000	-0,046	-0,142
-651,057	0,985	-0,091	-0,048
-650,043	800,000	0,023	-0,053
-649,028	119,662	-0,132	0,120
-648,014	117,146	0,062	0,056
-646,999	37,836	0,032	-0,021
-645,984	25,252	-0,101	0,061
-644,970	29,464	0,059	0,037
-643,955	-72,211	-0,152	-0,041
-642,941	-200,000	0,009	-0,116
-641,926	-200,000	-0,028	-0,094
-640,911	117,635	-0,083	-0,075
-639,897	-200,000	-0,025	0,130
-638,882	211,396	-0,035	0,041
-637,868	-135,196	0,027	-0,002
-636,853	-26,942	-0,095	0,040
-635,838	119,563	0,091	0,083
-634,824	800,000	0,041	-0,112
-633,809	-124,831	0,063	-0,007
-632,795	131,010	0,113	0,107
-631,780	-200,000	0,015	0,210
-630,765	800,000	0,037	0,079
-629,751	-200,000	0,014	-0,142
-628,736	125,502	-0,024	-0,022
-627,722	99,162	-0,036	0,030
-626,707	-38,881	-0,049	0,019
-625,692	210,897	0,128	0,148
-624,678	-69,882	0,172	0,048
-623,663	800,000	-0,044	-0,110
-622,649	800,000	-0,017	0,043
-621,634	316,218	-0,019	-0,026
-620,619	-98,997	-0,052	-0,010
-619,605	-55,596	0,119	-0,039
-618,590	-200,000	-0,004	0,132
-617,576	-200,000	0,009	-0,052
-616,561	210,381	-0,097	-0,112
-615,546	-200,000	0,044	-0,149
-614,532	-34,106	-0,074	0,030
-613,517	96,831	0,105	-0,088
-612,503	201,828	-0,114	0,130
-611,488	-200,000	0,001	0,010
-610,474	139,379	0,104	0,101
-609,459	410,913	-0,061	0,096
-608,444	378,096	-0,018	-0,028
-607,430	95,733	-0,104	-0,087
-606,415	263,421	0,041	-0,053
-605,401	424,648	0,021	0,034
-604,386	102,697	-0,033	0,028
-603,371	353,263	0,042	0,062
-602,357	-75,135	-0,194	-0,050
-601,342	800,000	-0,026	0,062
-600,328	-105,445	-0,122	0,020
-599,313	143,688	-0,067	-0,065
-598,298	51,795	-0,044	0,030
-597,284	-98,389	0,174	0,032
-596,269	800,000	-0,030	0,091
-595,255	410,474	-0,124	-0,194
-594,240	382,240	0,088	-0,133
-593,225	-98,649	-0,170	-0,031
-592,211	45,252	-0,067	-0,045
-591,196	-156,949	-0,063	-0,003
-590,182	-24,586	0,127	-0,055
-589,167	-200,000	-0,006	0,022
-588,152	-10,983	0,103	0,050
-587,138	-138,947	-0,077	0,006
-586,123	-200,000	-0,031	-0,226
-585,109	438,677	-0,006	0,010
-584,094	-102,349	0,071	-0,012
-583,079	800,000	-0,053	-0,135
-582,065	-200,000	-0,007	0,028
-581,050	159,761	0,100	0,103
-580,036	-200,000	0,002	-0,008
-579,021	396,042	-0,047	-0,072
-578,006	492,789	-0,036	0,061
-576,992	-127,506	-0,185	-0,019
-575,977	86,035	0,043	0,035
-574,963	-10,999	0,101	0,049
-573,948	-200,000	0,024	0,120
-572,934	99,755	0,054	-0,046
-571,919	133,463	-0,113	-0,107
-570,904	125,934	-0,141	-0,131
-569,890	506,296	0,062	-0,106
-568,875	37,432	0,102	0,066
-567,861	134,035	-0,092	0,088
-566,846	-112,287	0,106	0,015
-565,831	-75,108	-0,065	-0,017
-564,817	-200,000	0,001	-0,106
-563,802	90,441	-0,131	-0,107
-562,788	-200,000	-0,019	-0,064
-561,773	256,983	0,024	-0,031
-560,758	-46,769	0,064	-0,023
-559,744	800,000	-0,019	-0,053
-558,729	277,303	-0,050	0,065
-557,715	51,766	0,074	-0,052
-556,700	91,599	0,065	0,053
-555,685	188,770	-0,044	0,048
-554,671	127,822	-0,019	0,018
-553,656	800,000	-0,015	0,040
-552,642	-123,504	0,128	0,015
-551,627	0,232	-0,106	-0,055
-550,612	-31,128	-0,098	0,040
-549,598	497,312	-0,065	-0,111
-548,583	-56,139	-0,054	-0,018
-547,569	-200,000	-0,002	0,012
-546,554	282,344	-0,048	0,063
-545,539	-85,580	-0,085	0,019
-544,525	86,041	0,028	0,023
-543,510	800,000	-0,051	0,143
-542,496	85,662	-0,045	0,036
-541,481	2,623	0,079	-0,042
-540,466	6,031	0,108	-0,059
-539,452	193,090	0,033	0,037
-538,437	135,901	0,054	0,051
-537,423	-200,000	0,009	0,067
-536,408	800,000	-0,044	-0,104
-535,393	-93,830	-0,099	-0,020
-534,379	88,337	0,096	0,078
-533,364	-111,189	-0,176	-0,026
-532,350	427,522	0,016	0,026
-531,335	-200,000	-0,022	0,155
-530,321	32,061	0,035	0,022
-529,306	137,549	0,046	0,044
-528,291	200,514	-0,064	0,072
-527,277	800,000	-0,022	-0,057
-526,262	-45,492	-0,149	-0,054
-525,248	800,000	0,041	-0,095
-524,233	144,557	0,086	0,084
-523,218	-140,054	0,053	-0,004
-522,204	56,203	-0,058	-0,041
-521,189	565,896	0,010	0,017
-520,175	35,529	-0,059	-0,038
-519,160	800,000	-0,031	-0,081
-518,145	47,549	0,043	-0,029
-517,131	-200,000	-0,002	-0,108
-516,116	48,978	-0,124	-0,085
-515,102	-30,230	-0,074	-0,031
-514,087	334,276	-0,049	-0,070
-513,072	-159,095	0,086	-0,003
-512,058	215,856	0,054	-0,063
-511,043	234,992	-0,058	-0,070
-510,029	-174,637	0,097	0,002
-509,014	32,654	0,134	0,085
-507,999	-200,000	-0,013	-0,051
-506,985	-100,786	0,021	0,004
-505,970	-135,076	0,057	-0,005
-504,956	51,582	0,020	-0,014
-503,941	-200,000	-0,008	0,027
-502,926	-47,026	0,162	-0,057
-501,912	303,066	0,064	-0,086
-500,897	61,209	-0,008	-0,006
-499,883	-11,675	0,049	-0,023
-498,868	-126,043	-0,111	-0,012
-497,853	418,117	-0,022	-0,034
-496,839	-25,245	0,142	-0,061
-495,824	512,945	-0,067	0,115
-494,810	800,000	0,027	-0,054
-493,795	-175,740	-0,044	-0,001
-492,781	800,000	0,046	0,108
-491,766	144,197	-0,040	0,039
-490,751	105,452	-0,048	0,042
-489,737	-54,614	-0,053	-0,017
-488,722	207,042	0,089	0,102
-487,708	-200,000	0,033	0,143
-486,693	-137,976	0,070	-0,006
-485,678	30,404	-0,138	-0,086
-484,664	800,000	-0,077	-0,180
-483,649	-94,979	0,042	-0,008
-482,635	-39,107	-0,075	0,029
-481,620	-113,887	-0,037	-0,005
-480,605	-200,000	0,046	0,148
-479,591	-91,906	-0,102	-0,021
-478,576	-200,000	-0,069	-0,228
-477,562	208,583	0,043	-0,049
-476,547	-60,667	0,083	0,026
-475,532	-127,582	-0,147	-0,015
-474,518	-200,000	0,011	0,126
-473,503	800,000	0,013	-0,034
-472,489	-15,972	0,127	-0,059
-471,474	358,347	-0,009	-0,013
-470,459	9,448	-0,037	-0,020
-469,445	-39,585	-0,115	0,044
-468,430	-143,911	-0,093	-0,006
-467,416	-200,000	-0,004	0,094
-466,401	309,776	0,043	-0,058
-465,386	-200,000	-0,016	0,062
-464,372	792,783	-0,033	0,067
-463,357	-65,422	-0,095	-0,028
-462,343	269,888	-0,019	-0,025
-461,328	131,737	-0,042	-0,039
-460,313	259,561	-0,032	-0,040
-459,299	-200,000	0,017	-0,150
-458,284	577,910	0,016	0,029
-457,270	-200,000	0,004	0,024
-456,255	96,320	-0,134	-0,112
-455,241	220,133	0,058	-0,068
-454,226	-58,569	0,034	-0,011
-453,211	800,000	0,019	-0,039
-452,197	-140,106	-0,050	-0,004
-451,182	-84,521	0,034	0,008
-450,168	360,172	0,062	0,090
-449,153	45,423	0,068	-0,046
-448,138	61,077	0,045	-0,032
-447,124	-14,155	0,104	-0,049
-446,109	169,135	-0,124	-0,129
-445,095	356,569	-0,019	-0,028
-444,080	-200,000	0,017	0,093
-443,065	148,171	-0,050	0,049
-442,051	-200,000	-0,032	-0,115
-441,036	-132,612	-0,087	0,008
-440,022	51,898	-0,058	-0,040
-439,007	-200,000	-0,017	0,135
-437,992	29,104	0,077	0,047
-436,978	-141,610	-0,157	0,011
-435,963	-83,532	0,047	-0,011
-434,949	629,435	-0,085	0,158
-433,934	128,589	-0,083	0,077
-432,919	-102,733	0,041	0,007
-431,905	-200,000	-0,009	-0,037
-430,890	-200,000	0,009	-0,049
-429,876	-200,000	0,004	0,063
-428,861	128,712	0,097	0,090
-427,846	-200,000	-0,016	-0,137
-426,832	238,899	0,100	-0,122
-425,817	-67,942	-0,064	0,018
-424,803	-136,626	0,150	0,012
-423,788	800,000	0,041	-0,103
-422,773	-200,000	-0,008	-0,089
-421,759	-200,000	0,020	0,134
-420,744	-58,562	0,155	-0,049
-419,730	255,175	-0,060	-0,075
-418,715	19,733	-0,022	0,013
-417,701	8,633	-0,079	-0,043
-416,686	-61,331	0,049	-0,015
-415,671	-200,000	0,052	0,169
-414,657	-37,133	0,127	0,049
-413,642	45,971	0,009	-0,006
-412,628	800,000	0,023	-0,072
-411,613	219,608	-0,072	-0,084
-410,598	454,140	-0,087	-0,141
-409,584	220,029	-0,036	-0,042
-408,569	319,515	-0,041	0,057
-407,555	-200,000	0,002	-0,008
-406,540	-200,000	0,010	0,064
-405,525	-63,699	0,043	0,013
-404,511	22,405	-0,073	-0,043
-403,496	-200,000	-0,027	-0,104
-402,482	800,000	0,015	0,043
-401,467	774,958	-0,022	0,044
-400,452	502,917	0,040	-0,067
-399,438	-144,771	0,107	-0,007
-398,423	-106,165	-0,158	0,026
-397,409	-200,000	-0,013	-0,084
-396,394	143,612	0,102	-0,099
-395,379	-9,915	0,082	-0,040
-394,365	-200,000	0,010	0,036
-393,350	-188,125	-0,075	-0,001
-392,336	-54,028	-0,062	-0,020
-391,321	101,464	-0,005	0,004
-390,306	-200,000	-0,009	-0,065
-389,292	-200,000	-0,006	0,022
-388,277	-102,436	0,080	0,014
-387,263	69,592	0,071	0,053
-386,248	102,934	0,082	0,069
-385,233	-150,006	-0,074	-0,004
-384,219	800,000	0,042	0,093
-383,204	-200,000	-0,009	-0,051
-382,190	57,708	-0,075	0,053
-381,175	-166,991	0,083	-0,002
-380,160	-200,000	-0,011	-0,064
-379,146	-15,894	0,078	-0,036
-378,131	595,934	-0,026	0,047
-377,117	198,120	-0,108	0,121
-376,102	-200,000	-0,019	0,095
-375,088	800,000	0,026	0,061
-374,073	276,831	-0,086	0,111
-373,058	-129,434	-0,073	-0,007
-372,044	-126,426	0,219	0,023
-371,029	-200,000	0,003	0,018
-370,015	-200,000	0,000	-0,068
-369,000	-111,398	-0,065	0,009
-367,985	536,998	-0,024	0,041
-366,971	-178,365	-0,096	0,002
-365,956	99,728	-0,038	0,032
-364,942	-200,000	-0,002	0,016
-363,927	264,812	-0,050	0,063
-362,912	-29,798	0,149	0,062
-361,898	13,506	-0,022	0,012
-360,883	800,000	-0,023	-0,066
-359,869	-200,000	0,025	-0,130
-358,854	-200,000	-0,007	0,042
-357,839	-200,000	0,009	0,072
-356,825	126,485	-0,026	0,024
-355,810	8,747	-0,049	0,027
-354,796	-8,469	0,052	-0,025
-353,781	420,790	0,072	-0,112
-352,766	-117,918	-0,093	0,012
-351,752	-200,000	0,017	-0,122
-350,737	172,049	-0,042	0,044
-349,723	196,026	-0,026	-0,028
-348,708	800,000	0,052	-0,120
-347,693	-200,000	-0,017	-0,076
-346,679	177,961	0,116	-0,123
-345,664	619,568	0,005	0,009
-344,650	-200,000	-0,007	-0,161
-343,635	-112,292	-0,041	-0,006
-342,620	-200,000	-0,013	0,171
-341,606	187,475	0,089	0,097
-340,591	391,184	0,092	0,139
-339,577	-44,839	0,035	0,013
-338,562	-200,000	-0,004	-0,054
-337,548	-58,812	0,102	-0,032
-336,533	107,236	0,072	0,062
-335,518	-200,000	0,003	0,281
-334,504	-69,907	0,063	0,017
-333,489	800,000	0,093	-0,236
-332,475	-153,401	-0,105	-0,005
-331,460	159,818	-0,020	-0,021
-330,445	-106,807	-0,067	0,011
-329,431	-2,483	0,058	-0,029
-328,416	-54,612	-0,048	-0,016
-327,402	419,866	0,096	0,149
-326,387	288,868	0,090	0,119
-325,372	-200,000	0,010	-0,095
-324,358	314,910	-0,074	-0,101
-323,343	106,961	-0,065	-0,056
-322,329	165,921	-0,039	-0,040
-321,314	-175,652	0,157	-0,003
-320,299	-76,697	0,117	0,030
-319,285	800,000	-0,021	-0,052
-318,270	-21,387	0,038	-0,017
-317,256	-200,000	0,018	0,089
-316,241	58,198	0,050	-0,035
-315,226	235,098	0,039	-0,047
-314,212	-200,000	-0,026	0,093
-313,197	-141,850	0,085	0,006
-312,183	800,000	-0,010	-0,030
-311,168	233,370	-0,046	-0,054
-310,153	71,086	-0,041	-0,031
-309,139	-37,198	0,032	-0,012
-308,124	-70,279	0,093	0,025
-307,110	800,000	0,043	-0,089
-306,095	141,216	0,061	0,059
-305,080	-200,000	0,011	0,042
-304,066	-200,000	0,000	0,049
-303,051	670,922	-0,031	0,059
-302,037	-200,000	-0,002	-0,024
-301,022	-125,472	-0,157	-0,017
-300,008	-144,016	0,053	0,004
-298,993	0,817	0,075	0,039
-297,978	800,000	0,039	0,107
-296,964	465,814	0,012	-0,019
-295,949	18,897	-0,114	-0,066
-294,935	185,344	-0,052	-0,056
-293,920	-111,896	-0,080	-0,012
-292,905	-200,000	-0,010	0,054
-291,891	-200,000	-0,030	0,162
-290,876	343,347	0,041	-0,059
-289,862	-22,740	-0,170	-0,074
-288,847	-144,223	0,010	0,001
-287,832	12,263	0,033	-0,019
-286,818	23,236	0,034	0,020
-285,803	41,003	-0,023	-0,015
-284,789	-153,722	0,121	-0,006
-283,774	119,413	0,066	0,059
-282,759	-10,940	-0,136	-0,065
-281,745	135,942	0,108	0,102
-280,730	-200,000	-0,005	-0,096
-279,716	167,907	-0,045	-0,047
-278,701	577,763	-0,069	0,123
-277,686	-200,000	-0,001	0,030
-276,672	-200,000	-0,011	-0,106
-275,657	-109,217	-0,150	0,023
-274,643	76,519	-0,064	0,049
-273,628	2,207	0,212	-0,110
-272,613	-138,215	-0,036	0,003
-271,599	275,197	0,019	0,024
-270,584	-200,000	0,001	0,040
-269,570	-200,000	0,023	0,100
-268,555	634,688	0,031	0,057
-267,540	352,236	-0,092	-0,132
-266,526	800,000	-0,068	-0,159
-265,511	800,000	0,052	-0,112
-264,497	41,181	0,050	0,033
-263,482	304,307	0,121	0,163
-262,467	-13,087	0,014	-0,006
-261,453	-88,802	0,084	0,018
-260,438	-200,000	-0,016	0,059
-259,424	91,227	-0,091	-0,074
-258,409	84,972	-0,060	-0,048
-257,395	159,264	0,046	0,046
-256,380	75,892	0,050	0,038
-255,365	93,364	0,116	-0,095
-254,351	561,853	-0,011	0,019
-253,336	11,474	-0,109	-0,061
-252,322	-200,000	-0,031	-0,167
-251,307	-186,871	-0,107	0,001
-250,292	465,997	0,032	0,052
-249,278	18,218	-0,002	0,001
-248,263	-9,305	0,076	0,037
-247,249	82,059	0,090	0,070
-246,234	19,756	0,039	-0,023
-245,219	-200,000	-0,001	-0,121
-244,205	51,016	-0,089	-0,061
-243,190	-200,000	0,033	0,146
-242,176	-43,013	0,093	0,034
-241,161	702,015	-0,045	-0,087
-240,146	587,334	0,032	-0,057
-239,132	169,477	-0,033	0,035
-238,117	649,271	0,032	-0,059
-237,103	795,902	-0,058	-0,116
-236,088	-97,735	0,081	0,015
-235,073	-200,000	0,016	0,090
-234,059	85,556	-0,035	0,028
-233,044	76,228	0,050	-0,038
-232,030	0,366	-0,130	0,067
-231,015	-12,669	-0,046	-0,021
-230,000	174,958	0,027	0,028
-228,986	295,287	0,049	-0,065
-227,971	-119,318	0,179	0,022
-226,957	131,413	0,088	0,082
-225,942	-200,000	0,014	0,082
-224,927	102,296	-0,092	0,078
-223,913	-200,000	0,011	0,055
-222,898	72,763	0,107	-0,081
-221,884	388,161	-0,043	-0,065
-220,869	-46,152	0,132	-0,047
-219,855	112,786	-0,072	0,063
-218,840	153,517	-0,011	-0,011
-217,825	383,695	-0,075	0,112
-216,811	129,185	0,063	-0,058
-215,796	-131,841	-0,199	-0,019
-214,782	601,783	-0,053	0,095
-213,767	-88,587	0,050	0,011
-212,752	-49,554	0,133	-0,045
-211,738	-200,000	0,006	0,103
-210,723	9,253	0,045	0,024
-209,709	800,000	0,083	-0,184
-208,694	-5,521	0,105	-0,052
-207,679	800,000	-0,044	0,101
-206,665	800,000	0,023	0,049
-205,650	800,000	-0,039	0,115
-204,636	-200,000	-0,016	0,093
-203,621	-9,107	0,104	-0,050
-202,606	109,321	-0,024	0,020
-201,592	-58,502	-0,044	0,014
-200,577	800,000	-0,015	0,046
-199,563	800,000	0,024	0,067
-198,548	284,793	0,011	0,015
-197,533	-200,000	0,010	0,103
-196,519	-52,860	-0,107	0,035
-195,504	-144,197	0,057	0,004
-194,490	800,000	0,045	0,117
-193,475	800,000	-0,032	-0,073
-192,460	-118,537	-0,111	-0,014
-191,446	164,128	0,061	0,062
-190,431	-18,560	-0,049	-0,022
-189,417	800,000	-0,021	0,061
-188,402	-121,105	-0,091	-0,011
-187,387	-119,606	-0,197	-0,024
-186,373	268,536	-0,025	0,031
-185,358	-200,000	0,015	-0,145
-184,344	-128,338	0,246	0,025
-183,329	-179,332	0,082	-0,001
-182,315	190,053	0,120	0,131
-181,300	-75,278	-0,041	-0,011
-180,285	-135,986	-0,054	0,005
-179,271	-200,000	0,004	0,038
-178,256	424,860	-0,040	-0,062
-177,242	-105,600	0,115	-0,019
-176,227	75,340	-0,007	0,006
-175,212	-200,000	-0,017	0,127
-174,198	19,378	0,026	0,015
-173,183	-51,947	-0,055	0,018
-172,169	800,000	0,051	-0,107
-171,154	3,355	-0,032	0,017
-170,139	430,917	0,042	-0,066
-169,125	636,668	0,060	0,110
-168,110	90,905	0,083	0,067
-167,096	-149,256	-0,114	-0,006
-166,081	-76,351	0,043	0,011
-165,066	-131,468	-0,153	0,014
-164,052	35,098	0,067	0,042
-163,037	-151,682	0,106	0,006
-162,023	-200,000	-0,014	0,147
-161,008	800,000	-0,041	0,090
-159,993	-87,633	-0,023	0,005
-158,979	391,597	-0,079	-0,119
-157,964	105,706	0,106	0,090
-156,950	800,000	0,007	0,022
-155,935	613,281	0,051	-0,093
-154,920	800,000	0,054	0,119
-153,906	-50,915	-0,181	-0,061
-152,891	-133,716	0,087	-0,008
-151,877	800,000	0,036	0,091
-150,862	800,000	0,024	-0,062
-149,847	363,182	0,052	0,076
-148,833	-200,000	0,019	-0,063
-147,818	-200,000	0,035	0,111
-146,804	-134,043	-0,043	-0,004
-145,789	-19,393	0,061	-0,027
-144,775	-200,000	0,000	-0,116
-143,760	-25,606	-0,091	-0,039
-142,745	710,280	-0,046	-0,088
-141,731	-9,012	0,059	0,028
-140,716	376,327	-0,037	0,054
-139,702	95,722	0,146	0,120
-138,687	-68,586	0,009	0,003
-137,672	226,098	0,039	-0,045
-136,658	-10,697	-0,015	-0,007
-135,643	204,173	-0,096	-0,107
-134,629	-200,000	0,035	0,180
-133,614	800,000	0,061	0,163
-132,599	513,010	-0,057	0,096
-131,585	-42,388	-0,066	-0,024
-130,570	485,911	-0,070	-0,116
-129,556	493,983	-0,019	0,032
-128,541	-200,000	0,022	-0,071
-127,526	-123,345	0,080	-0,009
-126,512	-136,538	-0,130	-0,011
-125,497	-200,000	-0,020	0,086
-124,483	58,293	0,068	0,048
-123,468	368,699	-0,096	0,140
-122,453	35,912	-0,062	0,039
-121,439	-200,000	-0,012	-0,064
-120,424	249,236	-0,046	-0,057
-119,410	787,194	0,021	-0,042
-118,395	-200,000	-0,013	0,126
-117,380	429,645	0,001	0,002
-116,366	0,810	-0,047	0,024
-115,351	22,548	0,178	0,105
-114,337	-106,372	0,036	-0,006
-113,322	-140,080	0,099	0,007
-112,307	-200,000	-0,006	-0,055
-111,293	800,000	0,027	0,059
-110,278	353,877	-0,056	-0,081
-109,264	-200,000	0,012	0,064
-108,249	83,599	0,120	-0,094
-107,234	-54,872	-0,149	0,048
-106,220	198,390	-0,063	0,070
-105,205	398,942	0,060	0,091
-104,191	-200,000	0,015	0,138
-103,176	350,079	-0,061	0,087
-102,162	-125,591	0,041	0,004
-101,147	-200,000	-0,009	0,043
-100,132	257,932	-0,103	-0,128
-99,118	-5,917	0,063	0,031
-98,103	-119,794	0,129	-0,016
-97,089	-200,000	0,000	0,036
-96,074	-135,787	0,022	0,002
-95,059	-200,000	0,011	-0,116
-94,045	-143,345	-0,105	-0,007
-93,030	41,675	0,029	0,019
-92,016	211,710	-0,081	0,092
-91,001	-200,000	-0,020	0,076
-89,986	-36,745	0,082	0,031
-88,972	800,000	0,031	0,087
-87,957	-159,903	0,083	-0,003
-86,943	194,314	-0,116	-0,127
-85,928	-200,000	-0,013	-0,139
-84,913	-41,865	0,015	-0,006
-83,899	231,779	-0,028	0,034
-82,884	-101,311	0,141	-0,024
-81,870	-50,405	0,090	0,030
-80,855	800,000	-0,017	-0,046
-79,840	226,167	-0,035	-0,041
-78,826	-64,934	-0,063	-0,018
-77,811	-114,340	0,056	0,008
-76,797	-82,375	0,069	-0,016
-75,782	250,465	-0,013	-0,016
-74,767	-200,000	-0,049	0,225
-73,753	175,681	0,094	-0,098
-72,738	598,647	-0,010	-0,019
-71,724	119,542	0,060	0,053
-70,709	800,000	0,030	0,069
-69,694	791,747	0,018	0,036
-68,680	800,000	0,036	0,073
-67,665	-82,570	-0,165	0,038
-66,651	-200,000	0,046	0,199
-65,636	-24,610	-0,041	0,018
-64,622	628,775	-0,071	-0,129
-63,607	-22,317	-0,099	-0,043
-62,592	-191,434	-0,020	-0,000
-61,578	252,943	0,042	-0,051
-60,563	-166,298	0,176	-0,005
-59,549	-200,000	0,003	0,158
-58,534	-22,363	-1,940	-0,840
-57,519	-200,000	-0,148	-1,013
-56,505	-200,000	-1,290	-4,828
-55,490	15,273	0,833	0,468
-54,476	800,000	5,212	12,145
-53,461	-200,000	17,446	283,348
-52,446	800,000	725,900	2217,445
-51,432	537,543	1641,620	2810,576
-50,417	110,280	1632,473	1407,213
-49,403	74,843	1285,927	970,811
-48,388	32,123	1027,644	634,691
-47,373	20,129	989,697	571,693
-46,359	18,538	977,595	559,460
-45,344	15,854	973,359	548,233
-44,330	16,057	972,083	548,155
-43,315	15,604	970,316	545,656
-42,300	15,544	969,208	544,818
-41,286	15,484	968,338	544,110
-40,271	15,471	967,096	543,348
-39,257	15,542	966,185	543,046
-38,242	15,543	965,222	542,486
-37,227	15,531	964,515	542,030
-36,213	15,558	963,602	541,583
-35,198	15,500	962,764	540,901
-34,184	15,525	962,149	540,615
-33,169	15,517	961,287	540,085
-32,154	15,614	960,133	539,728
-31,140	15,521	959,387	538,987
-30,125	15,588	958,495	538,679
-29,111	15,522	957,923	538,124
-28,096	15,558	957,202	537,814
-27,082	15,541	956,485	537,335
-26,067	15,538	955,878	536,963
-25,052	15,482	955,055	536,299
-24,038	15,528	954,284	535,994
-23,023	15,539	953,715	535,689
-22,009	15,510	952,911	535,121
-20,994	15,528	952,344	534,842
-19,979	15,582	951,680	534,619
-18,965	15,490	951,225	534,048
-17,950	15,545	950,524	533,807
-16,936	15,475	949,910	533,218
-15,921	15,468	949,286	532,824
-14,906	15,444	948,339	532,194
-13,892	15,379	947,869	531,702
-12,877	15,368	947,113	531,222
-11,863	15,354	946,658	530,902
-10,848	15,435	946,004	530,772
-9,833	15,478	945,497	530,603
-8,819	15,503	944,836	530,293
-7,804	15,459	944,335	529,850
-6,790	15,401	943,782	529,335
-5,775	15,487	943,134	529,222
-4,760	15,418	942,579	528,670
-3,746	15,421	941,913	528,285
-2,731	15,305	941,080	527,429
-1,717	15,248	940,488	526,899
-0,702	15,269	939,701	526,502
0,313	15,095	939,204	526,469
1,327	18,244	936,936	535,072
2,342	27,180	794,579	477,460
3,356	23,952	459,041	270,876
4,371	-3,250	314,413	156,616
5,386	-7,240	296,026	143,408
6,400	-9,255	289,910	138,434
7,415	-9,961	287,760	136,700
8,429	-9,886	286,114	135,979
9,444	-9,971	285,200	135,450
10,459	-9,965	284,654	135,184
11,473	-9,922	283,997	134,902
12,488	-9,825	283,530	134,762
13,502	-9,876	283,037	134,466
14,517	-9,936	282,630	134,203
15,531	-9,968	282,294	134,001
16,546	-9,677	281,827	134,048
17,561	-9,934	281,442	133,606
18,575	-9,738	281,081	133,611
19,590	-9,790	280,598	133,319
20,604	-9,729	280,401	133,272
21,619	-9,738	280,070	133,095
22,634	-9,931	279,727	132,735
23,648	-9,864	279,530	132,694
24,663	-9,844	279,222	132,554
25,677	-10,080	279,008	132,216
26,692	-9,726	278,650	132,372
27,707	-9,787	278,370	132,169
28,721	-9,875	278,149	131,969
29,736	-9,938	277,830	131,746
30,750	-9,790	277,486	131,711
31,765	-9,705	277,105	131,599
32,780	-10,049	277,176	131,295
33,794	-9,744	276,834	131,410
34,809	-9,809	276,649	131,249
35,823	-9,888	276,311	131,003
36,838	-9,888	276,096	130,889
37,853	-9,897	275,751	130,706
38,867	-9,750	275,583	130,753
39,882	-10,040	275,525	130,441
40,896	-9,904	275,143	130,375
41,911	-9,957	274,884	130,192
42,926	-9,872	274,574	130,113
43,940	-9,950	274,426	129,958
44,955	-9,962	274,132	129,796
45,969	-9,952	273,772	129,623
46,984	-10,108	273,642	129,405
47,999	-10,581	273,375	128,826
49,013	-10,428	273,175	128,863
50,028	-10,585	272,936	128,592
51,042	-10,510	272,558	128,472
52,057	-10,731	272,425	128,192
53,071	-10,536	272,155	128,235
54,086	-10,484	271,854	128,130
55,101	-10,267	271,848	128,317
56,115	-10,119	271,607	128,329
57,130	-9,849	271,507	128,520
58,144	-9,834	271,325	128,437
59,159	-9,695	270,979	128,390
60,174	-9,764	270,908	128,280
61,188	-9,859	270,614	128,042
62,203	-9,800	270,363	127,967
63,217	-9,788	270,124	127,853
64,232	-9,797	270,020	127,785
65,247	-9,983	269,736	127,468
66,261	-9,769	269,407	127,497
67,276	-9,996	269,258	127,207
68,290	-10,136	269,004	126,947
69,305	-10,026	268,629	126,860
70,320	-9,995	268,460	126,797
71,334	-10,073	268,428	126,699
72,349	-9,976	268,088	126,616
73,363	-9,876	267,973	126,641
74,378	-9,913	267,681	126,458
75,393	-9,695	267,552	126,585
76,407	-9,695	267,327	126,467
77,422	-9,860	267,101	126,199
78,436	-9,731	266,834	126,179
79,451	-9,770	266,592	126,017
80,466	-9,741	266,460	125,970
81,480	-9,981	266,042	125,544
82,495	-9,940	265,880	125,494
83,509	-9,809	265,774	125,551
84,524	-9,869	265,425	125,320
85,539	-10,052	265,223	125,049
86,553	-10,116	265,086	124,916
87,568	-9,758	264,791	125,087
88,582	-9,936	264,576	124,815
89,597	-9,956	264,514	124,757
90,611	-9,708	264,318	124,875
91,626	-9,854	264,303	124,726
92,641	-9,699	264,011	124,717
93,655	-9,691	263,759	124,594
94,670	-10,133	263,747	124,181
95,684	-9,978	263,512	124,198
96,699	-9,852	263,157	124,131
97,714	-9,941	263,063	123,997
98,728	-10,035	262,733	123,747
99,743	-10,230	262,574	123,486
100,757	-10,047	262,196	123,461
101,772	-9,910	262,238	123,592
102,787	-10,070	262,066	123,357
103,801	-9,838	261,788	123,421
104,816	-9,885	261,603	123,282
105,830	-9,967	261,410	123,107
106,845	-9,875	261,308	123,129
107,860	-9,806	261,025	123,046
108,874	-9,850	260,863	122,920
109,889	-9,928	260,781	122,802
110,903	-9,983	260,389	122,557
111,918	-9,947	260,195	122,487
112,933	-9,910	260,104	122,465
113,947	-9,714	259,823	122,495
114,962	-9,698	259,747	122,462
115,976	-9,823	259,387	122,172
116,991	-9,758	259,217	122,138
118,006	-9,809	259,170	122,060
119,020	-9,858	258,901	121,880
120,035	-9,597	258,753	122,028
121,049	-9,786	258,490	121,728
122,064	-9,548	258,316	121,843
123,079	-9,859	258,300	121,552
124,093	-9,949	258,030	121,336
125,108	-10,009	257,684	121,110
126,122	-10,391	257,546	120,701
127,137	-10,376	257,376	120,623
128,151	-10,137	257,183	120,731
129,166	-10,028	256,988	120,723
130,181	-10,037	256,705	120,571
131,195	-10,285	256,489	120,244
132,210	-10,022	256,523	120,478
133,224	-9,930	256,189	120,390
134,239	-9,696	256,101	120,541
135,254	-9,872	255,855	120,262
136,268	-9,876	255,531	120,095
137,283	-10,162	255,461	119,805
138,297	-10,208	255,143	119,605
139,312	-10,217	254,855	119,452
140,327	-10,167	254,959	119,532
141,341	-9,624	254,741	119,887
142,356	-9,722	254,575	119,715
143,370	-9,553	254,467	119,798
144,385	-9,424	254,322	119,830
145,400	-9,744	254,131	119,455
146,414	-9,744	253,833	119,303
147,429	-9,606	253,727	119,362
148,443	-9,533	253,391	119,256
149,458	-9,863	253,539	119,032
150,473	-9,525	253,044	119,078
151,487	-9,861	252,906	118,715
152,502	-9,797	252,789	118,705
153,516	-9,686	252,720	118,756
154,531	-9,742	252,395	118,545
155,546	-9,912	252,451	118,416
156,560	-9,503	252,196	118,634
157,575	-9,789	251,879	118,231
158,589	-9,705	251,761	118,236
159,604	-9,599	251,592	118,237
160,619	-9,717	251,334	118,005
161,633	-9,860	251,255	117,836
162,648	-9,822	251,009	117,743
163,662	-9,705	250,793	117,729
164,677	-9,704	250,726	117,688
165,692	-9,648	250,489	117,614
166,706	-9,721	250,472	117,534
167,721	-9,752	250,314	117,423
168,735	-9,571	249,990	117,413
169,750	-9,689	249,945	117,282
170,764	-9,607	249,792	117,269
171,779	-9,479	249,623	117,287
172,794	-9,674	249,457	117,035
173,808	-9,578	249,176	116,972
174,823	-9,948	248,858	116,502
175,837	-10,072	248,590	116,263
176,852	-9,702	248,692	116,611
177,867	-9,641	248,602	116,609
178,881	-9,576	248,434	116,574
179,896	-9,516	248,221	116,514
180,910	-9,743	247,966	116,195
181,925	-9,770	247,802	116,084
182,940	-9,725	247,717	116,072
183,954	-9,589	247,352	116,004
184,969	-9,764	247,310	115,828
185,983	-9,875	247,259	115,701
186,998	-9,588	246,994	115,806
188,013	-9,642	246,968	115,738
189,027	-9,538	246,729	115,702
190,042	-9,609	246,471	115,513
191,056	-9,529	246,303	115,489
192,071	-9,503	245,987	115,352
193,086	-9,603	245,906	115,222
194,100	-9,598	245,704	115,121
195,115	-9,711	245,740	115,034
196,129	-9,765	245,394	114,817
197,144	-9,667	245,143	114,771
198,159	-9,837	245,093	114,597
199,173	-9,693	244,898	114,613
200,188	-9,545	244,629	114,599
201,202	-9,934	244,489	114,203
202,217	-10,074	244,100	113,896
203,232	-10,208	243,917	113,691
204,246	-9,951	243,964	113,914
205,261	-9,575	243,686	114,082
206,275	-10,613	243,312	113,047
207,290	-7,616	244,706	116,150
208,304	0,108	247,101	123,677
209,319	4,052	248,273	127,525
210,334	4,562	248,116	127,855
211,348	4,706	247,961	127,883
212,363	4,999	247,879	128,072
213,377	4,985	247,940	128,080
214,392	4,827	247,659	127,793
215,407	4,744	247,438	127,599
216,421	4,731	247,250	127,480
217,436	4,951	247,181	127,614
218,450	5,144	247,017	127,677
219,465	4,632	246,736	127,099
220,480	4,534	246,524	126,899
221,494	4,304	246,317	126,592
222,509	4,381	246,196	126,581
223,523	4,633	246,010	126,681
224,538	4,016	245,749	126,030
225,553	4,237	245,726	126,188
226,567	4,366	245,417	126,124
227,582	4,404	245,329	126,098
228,596	4,539	245,132	126,097
229,611	4,225	244,968	125,744
230,626	3,923	244,753	125,376
231,640	4,209	244,572	125,506
232,655	4,266	244,603	125,557
233,669	4,152	244,384	125,340
234,684	4,014	244,038	125,039
235,699	4,338	244,199	125,374
236,713	4,696	244,002	125,553
237,728	4,338	243,706	125,099
238,742	3,967	243,562	124,713
239,757	4,153	243,274	124,705
240,772	3,982	243,263	124,550
241,786	4,285	243,007	124,653
242,801	4,120	242,781	124,392
243,815	4,073	242,733	124,319
244,830	4,193	242,665	124,370
245,844	4,275	242,561	124,372
246,859	4,030	242,376	124,068
247,874	4,171	242,034	123,995
248,888	4,387	241,993	124,137
249,903	4,346	241,868	124,029
250,917	4,246	241,655	123,828
251,932	4,577	241,652	124,081
252,947	4,265	241,599	123,793
253,961	4,014	241,342	123,449
254,976	4,449	241,077	123,651
255,990	4,579	240,881	123,643
257,005	4,041	240,698	123,108
258,020	3,909	240,564	122,923
259,034	4,078	240,416	122,971
260,049	4,395	240,299	123,153
261,063	4,152	240,065	122,829
262,078	4,236	240,000	122,852
263,093	4,487	239,771	122,923
264,107	4,361	239,755	122,804
265,122	4,228	239,566	122,590
266,136	4,310	239,441	122,581
267,151	4,521	239,321	122,676
268,166	4,233	238,980	122,262
269,180	3,958	238,926	122,005
270,195	4,506	238,917	122,424
271,209	4,897	238,874	122,701
272,224	4,356	238,420	122,029
273,239	3,719	238,249	121,427
274,253	4,043	238,034	121,563
275,268	4,415	237,815	121,733
276,282	4,390	237,735	121,662
277,297	4,020	237,678	121,330
278,312	3,959	237,631	121,247
279,326	4,338	237,367	121,400
280,341	4,212	237,277	121,244
281,355	4,161	237,136	121,121
282,370	4,336	236,901	121,127
283,384	4,314	236,792	121,043
284,399	4,278	236,506	120,858
285,414	4,002	236,248	120,500
286,428	4,111	236,362	120,633
287,443	4,011	236,317	120,520
288,457	4,193	236,145	120,565
289,472	4,456	235,921	120,645
290,487	4,335	235,672	120,412
291,501	4,022	235,537	120,089
292,516	3,979	235,367	119,958
293,530	4,084	235,055	119,869
294,545	4,376	235,029	120,073
295,560	4,348	234,973	120,012
296,574	4,122	234,731	119,702
297,589	4,075	234,566	119,571
298,603	4,199	234,712	119,731
299,618	4,461	234,461	119,795
300,633	4,355	234,393	119,668
301,647	4,415	234,240	119,626
302,662	4,684	234,084	119,743
303,676	4,670	233,764	119,558
304,691	4,588	233,771	119,487
305,706	4,783	233,601	119,540
306,720	4,526	233,511	119,286
307,735	4,385	233,332	119,075
308,749	4,346	233,082	118,907
309,764	3,940	233,008	118,545
310,779	4,050	232,711	118,469
311,793	3,741	232,551	118,139
312,808	4,046	232,287	118,228
313,822	3,809	232,144	117,963
314,837	3,881	231,992	117,931
315,852	3,797	231,614	117,664
316,866	3,739	231,693	117,648
317,881	4,357	231,690	118,109
318,895	4,858	231,581	118,427
319,910	4,843	231,624	118,427
320,925	4,476	231,265	117,953
321,939	3,962	231,060	117,445
322,954	4,076	230,958	117,470
323,968	3,976	230,798	117,301
324,983	4,372	230,783	117,586
325,997	4,552	230,682	117,661
327,012	4,641	230,409	117,578
328,027	4,263	230,307	117,229
329,041	4,723	230,213	117,520
330,056	4,883	230,270	117,660
331,070	4,950	230,050	117,588
332,085	4,730	229,821	117,293
333,100	4,401	229,661	116,952
334,114	4,466	229,358	116,836
335,129	4,740	229,325	117,017
336,143	4,837	229,173	117,002
337,158	4,650	228,985	116,754
338,173	4,455	228,646	116,424
339,187	4,379	228,553	116,309
340,202	4,365	228,594	116,309
341,216	4,347	228,559	116,267
342,231	4,408	228,223	116,132
343,246	4,281	228,069	115,948
344,260	4,495	227,976	116,051
345,275	4,553	227,941	116,066
346,289	4,490	227,771	115,922
347,304	4,432	227,659	115,811
348,319	4,576	227,395	115,775
349,333	4,480	227,224	115,605
350,348	4,409	227,153	115,506
351,362	4,478	227,040	115,489
352,377	4,187	226,829	115,154
353,392	3,952	226,641	114,873
354,406	4,040	226,624	114,920
355,421	195,921	1323,339	1401,721
356,435	157,068	1456,951	1401,705
