DTS Sentinel unit serial number:	SN410029Multiplexer serial number:	ORYXHardware model number:	OX2-SRSoftware version number:	ORYX F/W v4,00 Oryx Data Collector v3.7.2.0data status	okinstallation	B5 Nyhavnadifferential loss correction	single-endedforward channel	channel 2reverse channel	N/Adate	2023/12/12time	05:02:13forward acquisition time	300,00reverse acquisition time	0,00gamma	499,1914k internal	0,3157k external	0,3157temperature offset calibration	1,0000default loss term (dB/km)	0,3820temperature slope calibration	1,0000multiplexer offset coefficient	1,0000multiplexer slope coefficient	1,0000fibre end	0,00T internal ref (°C)	15,40T ext. ref 1 (°C)	-1,01T ext. ref 2 (°C)	-1,29length (m)	temperature (°C)	Stokes	anti-Stokes-744,400	-200,000	0,029	0,109
-743,385	-131,116	-0,151	-0,015
-742,371	10,727	0,060	-0,033
-741,356	-35,306	-0,130	-0,052
-740,342	-129,299	0,088	-0,009
-739,327	-85,187	-0,182	-0,042
-738,312	-200,000	-0,021	0,085
-737,298	-54,744	-0,262	0,087
-736,283	-200,000	-0,002	0,015
-735,269	-157,602	-0,156	-0,007
-734,254	44,289	0,053	-0,036
-733,239	-10,627	-0,496	-0,241
-732,225	106,306	0,085	0,075
-731,210	-200,000	0,001	-0,031
-730,196	-21,592	-0,076	0,034
-729,181	113,680	-0,047	-0,042
-728,167	31,291	0,093	-0,059
-727,152	-71,829	-0,097	-0,027
-726,137	45,159	-0,077	-0,052
-725,123	-200,000	-0,004	-0,233
-724,108	297,895	-0,017	-0,023
-723,094	-172,862	-0,153	-0,003
-722,079	201,695	-0,068	-0,077
-721,064	426,576	0,035	0,055
-720,050	68,010	-0,077	-0,058
-719,035	-37,794	-0,078	0,030
-718,021	800,000	-0,014	-0,029
-717,006	800,000	-0,003	0,006
-715,991	-198,271	0,081	0,000
-714,977	138,838	-0,080	-0,078
-713,962	653,621	-0,014	0,026
-712,948	392,200	0,018	-0,028
-711,933	-17,237	0,032	-0,015
-710,918	316,831	-0,061	-0,084
-709,904	-36,574	-0,171	-0,067
-708,889	800,000	-0,047	-0,139
-707,875	-103,109	-0,018	0,003
-706,860	55,837	-0,087	-0,062
-705,845	-200,000	0,004	0,090
-704,831	-80,887	0,111	0,027
-703,816	-124,133	-0,139	0,016
-702,802	35,990	0,077	0,050
-701,787	-83,474	-0,087	-0,020
-700,772	111,152	0,024	-0,021
-699,758	191,005	0,030	0,034
-698,743	800,000	0,051	0,111
-697,729	666,415	-0,085	0,162
-696,714	506,271	0,030	-0,052
-695,699	257,681	0,065	-0,082
-694,685	237,892	-0,068	-0,083
-693,670	-54,073	-0,072	-0,024
-692,656	-79,307	0,068	0,017
-691,641	-200,000	-0,017	-0,071
-690,627	132,344	-0,063	0,060
-689,612	-41,869	-0,168	0,063
-688,597	-200,000	-0,000	-0,004
-687,583	204,465	-0,062	-0,071
-686,568	800,000	-0,048	-0,120
-685,554	-200,000	0,027	-0,088
-684,539	167,421	0,054	-0,056
-683,524	794,291	-0,043	0,087
-682,510	579,906	-0,022	-0,040
-681,495	-130,248	-0,162	-0,016
-680,481	-200,000	-0,052	-0,212
-679,466	220,449	0,024	-0,028
-678,451	-200,000	0,054	0,179
-677,437	800,000	0,062	-0,156
-676,422	90,376	0,137	-0,113
-675,408	-44,948	-0,059	-0,022
-674,393	-88,770	0,004	0,001
-673,378	-200,000	-0,024	-0,084
-672,364	682,311	0,020	-0,039
-671,349	-42,756	-0,004	0,002
-670,335	-200,000	0,001	0,064
-669,320	145,804	0,104	0,102
-668,305	-200,000	-0,011	0,080
-667,291	-200,000	0,014	-0,096
-666,276	-48,167	-0,036	-0,013
-665,262	800,000	0,013	0,031
-664,247	-96,499	-0,172	-0,033
-663,232	4,417	-0,030	0,016
-662,218	-200,000	0,038	0,126
-661,203	-200,000	-0,005	0,152
-660,189	-96,247	0,113	0,022
-659,174	-200,000	-0,011	-0,211
-658,159	800,000	-0,024	-0,060
-657,145	385,269	-0,050	-0,076
-656,130	-200,000	-0,008	0,057
-655,116	11,529	0,181	0,101
-654,101	428,216	0,091	-0,145
-653,086	645,053	-0,035	-0,065
-652,072	-80,986	-0,059	-0,014
-651,057	-11,850	0,025	0,012
-650,043	-105,624	-0,128	-0,021
-649,028	480,392	-0,089	-0,149
-648,014	-120,048	-0,117	0,015
-646,999	233,326	-0,040	-0,049
-645,984	-200,000	-0,014	-0,065
-644,970	-200,000	-0,007	-0,089
-643,955	245,096	-0,094	-0,117
-642,941	-112,632	-0,133	-0,019
-641,926	-8,284	-0,057	-0,028
-640,911	322,415	0,008	0,011
-639,897	800,000	-0,069	-0,165
-638,882	-16,628	-0,093	0,043
-637,868	-27,411	-0,039	0,017
-636,853	-200,000	-0,037	-0,139
-635,838	-200,000	-0,012	0,044
-634,824	298,425	-0,051	-0,070
-633,809	-70,848	-0,103	0,028
-632,795	-96,831	-0,049	0,009
-631,780	-200,000	0,019	-0,100
-630,765	96,679	-0,063	-0,053
-629,751	-1,050	0,055	0,028
-628,736	133,192	0,050	-0,047
-627,722	239,608	0,051	0,063
-626,707	-14,458	0,042	-0,020
-625,692	-63,138	-0,027	-0,008
-624,678	-95,442	0,036	0,007
-623,663	354,725	-0,097	0,143
-622,649	35,308	0,131	-0,084
-621,634	482,771	-0,014	0,023
-620,619	-12,939	-0,041	0,020
-619,605	-200,000	-0,003	-0,149
-618,590	-200,000	0,027	0,120
-617,576	7,576	0,014	-0,008
-616,561	489,631	-0,034	0,057
-615,546	-200,000	-0,023	-0,087
-614,532	-136,862	-0,059	0,005
-613,517	193,274	0,056	0,062
-612,503	-200,000	-0,014	-0,104
-611,488	-35,945	0,073	-0,029
-610,474	-133,974	0,053	-0,005
-609,459	57,010	0,065	0,046
-608,444	-117,441	-0,248	-0,032
-607,430	5,595	0,061	-0,033
-606,415	111,288	0,053	-0,047
-605,401	-104,248	0,171	0,029
-604,386	-200,000	0,012	-0,067
-603,371	-200,000	-0,000	-0,029
-602,357	622,159	0,016	0,030
-601,342	24,091	0,109	0,066
-600,328	220,833	-0,122	-0,143
-599,313	-47,976	-0,118	0,042
-598,298	179,653	-0,064	0,069
-597,284	-80,289	0,197	-0,048
-596,269	800,000	-0,050	0,140
-595,255	95,734	0,007	-0,006
-594,240	-200,000	0,009	0,049
-593,225	48,476	-0,066	-0,045
-592,211	800,000	-0,007	-0,017
-591,196	330,331	-0,073	0,104
-590,182	148,822	-0,032	0,032
-589,167	-200,000	0,021	0,102
-588,152	800,000	-0,074	0,167
-587,138	-62,503	-0,107	0,032
-586,123	411,810	-0,017	0,027
-585,109	297,562	-0,061	-0,082
-584,094	-200,000	0,034	-0,115
-583,079	-14,391	-0,083	-0,039
-582,065	-36,508	0,073	-0,028
-581,050	177,853	0,048	-0,051
-580,036	800,000	-0,022	-0,069
-579,021	800,000	0,015	0,036
-578,006	192,810	-0,054	-0,060
-576,992	-164,435	-0,044	0,001
-575,977	800,000	0,031	-0,075
-574,963	-185,105	0,123	-0,001
-573,948	-102,468	-0,085	-0,015
-572,934	97,304	0,072	0,061
-571,919	-200,000	-0,014	-0,135
-570,904	-200,000	-0,008	-0,114
-569,890	-153,247	0,060	-0,003
-568,875	56,193	-0,040	-0,028
-567,861	-83,421	0,014	-0,003
-566,846	92,939	-0,045	-0,037
-565,831	144,485	0,188	-0,184
-564,817	96,145	-0,053	-0,044
-563,802	800,000	0,020	0,047
-562,788	506,653	-0,036	-0,062
-561,773	-193,604	0,069	-0,000
-560,758	59,327	-0,029	0,021
-559,744	800,000	0,053	-0,132
-558,729	195,512	-0,058	-0,065
-557,715	-32,998	0,038	0,016
-556,700	593,063	-0,092	-0,168
-555,685	70,651	0,176	-0,133
-554,671	282,500	0,051	0,067
-553,656	-28,544	-0,014	0,006
-552,642	-200,000	0,006	0,156
-551,627	48,398	0,065	0,044
-550,612	-63,946	-0,129	-0,038
-549,598	-200,000	-0,014	-0,074
-548,583	6,827	-0,145	0,079
-547,569	312,548	0,041	0,057
-546,554	-200,000	0,018	0,086
-545,539	96,240	-0,050	0,042
-544,525	-1,355	0,200	0,103
-543,510	756,194	0,069	-0,136
-542,496	-200,000	0,013	-0,058
-541,481	197,221	-0,066	-0,074
-540,466	52,239	-0,122	-0,085
-539,452	-200,000	0,026	0,096
-538,437	-200,000	-0,004	0,090
-537,423	-114,680	-0,038	0,005
-536,408	61,755	-0,033	0,024
-535,393	132,391	0,052	0,049
-534,379	537,260	0,020	0,035
-533,364	243,485	0,113	-0,138
-532,350	800,000	0,085	0,182
-531,335	-200,000	0,035	0,187
-530,321	-200,000	0,003	0,068
-529,306	162,615	-0,082	0,084
-528,291	-200,000	0,038	-0,141
-527,277	650,277	0,013	0,025
-526,262	-54,221	0,077	-0,025
-525,248	-200,000	0,007	0,055
-524,233	800,000	0,017	0,035
-523,218	-78,703	-0,122	0,030
-522,204	800,000	0,007	-0,019
-521,189	-75,031	0,047	0,012
-520,175	800,000	0,072	-0,176
-519,160	98,503	-0,066	0,056
-518,145	-200,000	-0,044	-0,182
-517,131	800,000	0,016	-0,040
-516,116	-57,059	0,165	0,053
-515,102	800,000	0,003	-0,007
-514,087	-200,000	-0,001	0,025
-513,072	294,496	0,030	0,040
-512,058	751,441	0,018	-0,035
-511,043	-200,000	-0,053	-0,178
-510,029	87,353	0,069	-0,056
-509,014	-25,600	-0,169	0,072
-507,999	78,395	-0,063	-0,049
-506,985	-129,330	-0,085	-0,009
-505,970	800,000	0,060	-0,128
-504,956	-166,790	-0,055	0,002
-503,941	195,039	0,091	-0,101
-502,926	-82,843	0,078	0,018
-501,912	-62,290	-0,043	-0,013
-500,897	-109,323	-0,073	-0,011
-499,883	-200,000	-0,026	0,144
-498,868	98,911	0,073	-0,062
-497,853	430,109	0,045	-0,072
-496,839	658,519	-0,045	0,085
-495,824	800,000	0,037	0,094
-494,810	800,000	-0,025	-0,053
-493,795	96,006	0,106	0,089
-492,781	-137,409	-0,040	-0,003
-491,766	210,869	-0,014	-0,016
-490,751	86,581	0,062	-0,050
-489,737	409,537	0,041	0,064
-488,722	-100,718	0,112	0,020
-487,708	54,255	-0,085	0,059
-486,693	20,075	-0,109	0,064
-485,678	800,000	0,024	0,072
-484,664	-200,000	0,034	-0,116
-483,649	-81,480	-0,091	-0,022
-482,635	-25,554	0,066	0,028
-481,620	-68,248	0,032	-0,009
-480,605	31,719	0,076	0,048
-479,591	-200,000	-0,013	0,183
-478,576	100,677	0,097	0,083
-477,562	-200,000	0,011	-0,178
-476,547	-200,000	0,040	-0,143
-475,532	-75,767	-0,107	-0,028
-474,518	-200,000	0,001	0,122
-473,503	-10,375	0,155	-0,074
-472,489	-200,000	-0,001	0,007
-471,474	-200,000	-0,001	0,106
-470,459	-55,842	0,045	-0,014
-469,445	157,969	0,107	-0,109
-468,430	-173,914	-0,112	-0,002
-467,416	698,625	-0,028	-0,054
-466,401	-200,000	-0,005	0,050
-465,386	170,804	0,099	0,104
-464,372	-22,174	-0,177	-0,078
-463,357	88,772	-0,095	-0,077
-462,343	800,000	-0,084	-0,180
-461,328	327,784	0,046	-0,065
-460,313	-44,747	0,123	-0,045
-459,299	-62,741	0,075	0,022
-458,284	-182,805	0,035	0,000
-457,270	800,000	-0,016	-0,042
-456,255	382,263	-0,022	0,034
-455,241	-161,636	-0,148	0,005
-454,226	-149,402	-0,072	0,004
-453,211	-80,493	0,091	0,022
-452,197	-200,000	-0,004	-0,085
-451,182	280,770	-0,058	0,075
-450,168	309,711	0,080	-0,110
-449,153	-89,002	0,021	-0,005
-448,138	13,495	-0,086	0,048
-447,124	-6,998	-0,168	-0,083
-446,109	676,583	0,036	0,069
-445,095	252,418	0,074	-0,093
-444,080	66,356	-0,095	0,070
-443,065	-200,000	-0,042	0,136
-442,051	154,582	0,114	0,114
-441,036	800,000	-0,041	0,118
-440,022	192,344	-0,063	-0,070
-439,007	-200,000	-0,016	0,063
-437,992	250,343	0,049	0,061
-436,978	-200,000	-0,005	0,204
-435,963	604,919	-0,032	0,059
-434,949	222,765	-0,023	0,027
-433,934	93,617	-0,023	-0,019
-432,919	59,502	-0,060	-0,043
-431,905	14,458	0,124	-0,070
-430,890	-73,056	0,051	-0,013
-429,876	-98,112	0,041	-0,008
-428,861	37,611	0,115	0,074
-427,846	-200,000	-0,000	-0,020
-426,832	-119,806	-0,108	-0,013
-425,817	16,712	-0,060	0,034
-424,803	634,660	-0,052	0,097
-423,788	-103,201	-0,056	-0,009
-422,773	800,000	0,080	0,185
-421,759	714,366	0,024	0,047
-420,744	614,052	-0,037	0,068
-419,730	161,284	-0,127	-0,129
-418,715	2,627	-0,071	0,038
-417,701	-200,000	-0,006	0,185
-416,686	-200,000	-0,011	0,114
-415,671	800,000	-0,049	0,121
-414,657	44,687	0,115	0,077
-413,642	33,909	-0,074	0,047
-412,628	-200,000	0,018	0,068
-411,613	-200,000	0,012	-0,044
-410,598	96,480	-0,096	0,080
-409,584	-200,000	0,030	0,141
-408,569	-200,000	-0,008	0,117
-407,555	-109,049	-0,073	0,011
-406,540	-182,156	0,062	-0,001
-405,525	-41,302	-0,013	-0,005
-404,511	399,301	0,061	-0,093
-403,496	-200,000	0,044	-0,155
-402,482	429,462	0,072	0,114
-401,467	-67,977	0,188	-0,053
-400,452	-200,000	0,018	0,138
-399,438	135,474	-0,070	0,066
-398,423	-119,029	0,040	0,005
-397,409	377,676	-0,060	-0,089
-396,394	800,000	-0,028	-0,088
-395,379	-139,149	-0,046	0,004
-394,365	650,902	0,037	0,069
-393,350	-5,605	0,040	0,020
-392,336	332,862	-0,049	-0,069
-391,321	50,986	0,066	-0,045
-390,306	800,000	-0,040	-0,084
-389,292	-130,836	-0,182	0,018
-388,277	-200,000	0,039	0,128
-387,263	-6,453	-0,107	-0,053
-386,248	-200,000	-0,021	0,076
-385,233	-200,000	0,010	0,250
-384,219	354,555	0,112	0,162
-383,204	-50,140	0,044	0,015
-382,190	-120,581	0,060	0,007
-381,175	800,000	-0,008	-0,018
-380,160	-200,000	0,027	0,149
-379,146	49,100	0,169	0,115
-378,131	724,833	-0,038	-0,074
-377,117	10,402	-0,067	-0,037
-376,102	-58,553	-0,089	-0,028
-375,088	796,383	-0,040	-0,081
-374,073	148,684	0,057	-0,056
-373,058	800,000	0,039	0,098
-372,044	-57,256	-0,091	0,029
-371,029	-200,000	0,020	0,170
-370,015	62,468	-0,055	0,040
-369,000	-200,000	0,016	-0,135
-367,985	-200,000	0,007	-0,071
-366,971	574,832	-0,035	-0,063
-365,956	164,516	-0,072	0,074
-364,942	14,525	0,039	-0,022
-363,927	629,597	0,083	0,152
-362,912	146,037	0,027	0,026
-361,898	492,780	-0,057	-0,096
-360,883	-200,000	0,009	0,040
-359,869	-69,381	0,127	-0,035
-358,854	800,000	0,024	-0,048
-357,839	-85,651	0,010	0,002
-356,825	68,706	0,099	0,074
-355,810	-200,000	0,006	0,039
-354,796	-98,050	0,031	-0,006
-353,781	427,030	-0,026	0,040
-352,766	361,911	-0,040	-0,059
-351,752	-200,000	0,003	-0,024
-350,737	91,759	0,047	-0,039
-349,723	237,109	0,052	0,062
-348,708	242,853	0,017	0,020
-347,693	-200,000	0,007	-0,130
-346,679	247,938	0,080	0,099
-345,664	-200,000	0,009	0,139
-344,650	-58,904	0,113	0,035
-343,635	56,314	0,080	-0,057
-342,620	-200,000	0,008	-0,052
-341,606	117,901	0,100	-0,090
-340,591	38,472	0,005	-0,003
-339,577	-92,593	0,053	-0,011
-338,562	800,000	0,030	-0,094
-337,548	-104,810	-0,122	-0,020
-336,533	-148,167	0,022	-0,001
-335,518	800,000	-0,025	-0,062
-334,504	51,909	0,062	-0,043
-333,489	-5,276	0,094	0,047
-332,475	22,214	-0,067	-0,040
-331,460	541,287	-0,081	-0,141
-330,445	800,000	0,085	-0,239
-329,431	-200,000	-0,024	0,103
-328,416	306,929	0,063	0,086
-327,402	89,781	-0,044	-0,036
-326,387	66,998	-0,058	-0,043
-325,372	259,015	-0,067	0,084
-324,358	-117,380	-0,052	0,007
-323,343	471,373	0,062	-0,101
-322,329	800,000	0,041	0,085
-321,314	62,914	0,067	0,049
-320,299	-82,134	0,037	-0,009
-319,285	306,876	0,074	-0,100
-318,270	573,893	0,008	-0,014
-317,256	269,122	-0,086	-0,109
-316,241	-200,000	-0,030	0,190
-315,226	800,000	0,024	0,056
-314,212	154,831	0,051	0,051
-313,197	-200,000	-0,010	-0,038
-312,183	292,847	0,037	0,049
-311,168	-200,000	0,002	0,035
-310,153	79,897	0,040	-0,031
-309,139	18,554	0,108	-0,062
-308,124	526,421	0,076	0,129
-307,110	800,000	0,022	0,068
-306,095	-35,347	0,073	0,029
-305,080	692,941	0,018	0,035
-304,066	-116,568	0,078	0,010
-303,051	-28,742	-0,168	-0,070
-302,037	-200,000	0,023	-0,112
-301,022	12,931	0,165	-0,092
-300,008	-95,419	-0,055	-0,011
-298,993	165,891	0,069	-0,071
-297,978	-200,000	0,011	-0,106
-296,964	-200,000	0,026	-0,128
-295,949	-200,000	0,013	-0,056
-294,935	11,146	-0,022	0,012
-293,920	103,230	0,071	-0,060
-292,905	84,864	0,044	0,035
-291,891	11,052	-0,108	0,060
-290,876	-83,383	-0,020	-0,005
-289,862	-74,218	-0,077	0,020
-288,847	38,325	-0,093	-0,060
-287,832	10,298	-0,010	0,006
-286,818	-133,192	0,075	-0,007
-285,803	-69,412	0,104	0,029
-284,789	-200,000	-0,030	-0,126
-283,774	800,000	-0,020	0,052
-282,759	228,031	0,037	-0,044
-281,745	800,000	-0,019	-0,056
-280,730	-200,000	-0,027	-0,099
-279,716	38,885	-0,032	0,021
-278,701	233,772	0,095	0,114
-277,686	-200,000	0,044	0,188
-276,672	-200,000	0,012	0,099
-275,657	-200,000	0,003	0,037
-274,643	485,451	-0,036	-0,059
-273,628	-114,140	-0,070	0,010
-272,613	-69,543	0,045	0,012
-271,599	-200,000	0,029	0,095
-270,584	136,731	0,050	-0,047
-269,570	359,324	0,064	0,092
-268,555	-174,147	0,054	0,001
-267,540	-44,434	0,043	0,015
-266,526	-200,000	-0,030	-0,125
-265,511	65,864	0,009	0,007
-264,497	136,241	0,016	-0,015
-263,482	800,000	0,024	0,066
-262,467	-200,000	-0,004	-0,062
-261,453	-200,000	-0,030	-0,104
-260,438	295,074	0,031	0,041
-259,424	-184,548	0,065	-0,001
-258,409	-200,000	-0,017	0,102
-257,395	-200,000	-0,012	-0,055
-256,380	-147,407	0,085	-0,005
-255,365	-200,000	0,028	0,139
-254,351	590,150	0,009	0,016
-253,336	-200,000	-0,010	-0,066
-252,322	212,326	-0,026	-0,030
-251,307	529,937	0,023	-0,040
-250,292	599,053	-0,071	-0,128
-249,278	384,396	-0,032	-0,048
-248,263	-44,620	0,100	0,036
-247,249	-145,158	-0,159	0,010
-246,234	800,000	0,037	0,111
-245,219	273,284	0,049	0,062
-244,205	800,000	-0,017	-0,052
-243,190	193,474	-0,038	-0,041
-242,176	394,547	0,032	-0,049
-241,161	-5,138	-0,094	0,046
-240,146	-126,827	-0,063	0,007
-239,132	-189,767	0,039	-0,000
-238,117	800,000	-0,033	-0,073
-237,103	-0,824	-0,029	0,015
-236,088	-52,465	0,029	-0,010
-235,073	150,244	0,073	0,071
-234,059	-155,117	0,077	0,004
-233,044	125,966	0,078	-0,071
-232,030	-200,000	-0,017	0,169
-231,015	55,038	-0,060	0,042
-230,000	-76,873	-0,080	-0,020
-228,986	221,649	0,066	-0,076
-227,971	-200,000	0,008	-0,114
-226,957	-66,776	-0,144	0,041
-225,942	-200,000	-0,000	-0,056
-224,927	800,000	0,027	0,057
-223,913	265,617	0,041	-0,051
-222,898	-200,000	0,000	-0,066
-221,884	-64,020	-0,190	-0,056
-220,869	-137,344	0,043	0,003
-219,855	187,922	-0,065	0,070
-218,840	-200,000	-0,006	0,154
-217,825	267,438	-0,051	-0,064
-216,811	255,644	0,084	-0,105
-215,796	195,744	-0,028	0,031
-214,782	270,727	0,043	-0,055
-213,767	-92,577	0,132	0,027
-212,752	390,883	0,052	-0,079
-211,738	-79,579	0,095	0,023
-210,723	217,698	0,085	0,098
-209,709	589,217	-0,042	-0,075
-208,694	-200,000	-0,026	-0,189
-207,679	195,280	-0,029	0,031
-206,665	32,853	-0,071	-0,044
-205,650	52,321	-0,042	0,029
-204,636	-200,000	-0,004	0,168
-203,621	-123,437	-0,008	0,001
-202,606	-200,000	0,008	0,080
-201,592	236,967	-0,109	0,131
-200,577	1,639	0,056	0,029
-199,563	78,000	-0,068	0,053
-198,548	-65,154	0,020	-0,006
-197,533	317,233	0,033	-0,045
-196,519	397,320	-0,076	0,115
-195,504	-200,000	0,008	0,036
-194,490	-0,634	-0,160	0,082
-193,475	800,000	-0,047	-0,136
-192,460	-119,622	0,062	0,008
-191,446	76,173	0,030	0,023
-190,431	368,157	0,112	0,164
-189,417	438,355	-0,034	-0,054
-188,402	-85,571	-0,157	0,035
-187,387	174,864	-0,079	0,082
-186,373	31,545	0,031	-0,019
-185,358	458,339	0,046	-0,074
-184,344	32,474	-0,078	-0,048
-183,329	-171,086	-0,233	-0,006
-182,315	134,489	0,038	0,035
-181,300	48,085	0,051	-0,034
-180,285	6,838	-0,114	-0,061
-179,271	800,000	0,044	0,103
-178,256	-76,741	0,041	-0,010
-177,242	497,790	0,063	0,104
-176,227	-38,279	-0,131	-0,050
-175,212	110,976	-0,052	-0,045
-174,198	-38,383	-0,037	-0,014
-173,183	-200,000	-0,004	-0,061
-172,169	-19,662	0,065	0,029
-171,154	416,771	-0,119	-0,184
-170,139	44,678	-0,106	0,070
-169,125	4,203	0,057	0,030
-168,110	800,000	-0,033	0,067
-167,096	-176,674	-0,214	-0,004
-166,081	272,763	-0,030	-0,038
-165,066	49,861	-0,109	-0,074
-164,052	417,916	0,032	0,049
-163,037	-66,232	0,093	0,026
-162,023	-92,649	0,072	-0,014
-161,008	-200,000	0,064	0,000
-159,993	60,254	-0,048	-0,034
-158,979	-9,853	-0,058	0,028
-157,964	-56,564	0,140	-0,045
-156,950	239,907	-0,042	0,051
-155,935	-147,795	0,111	-0,007
-154,920	800,000	0,041	0,101
-153,906	-155,472	-0,099	-0,005
-152,891	-200,000	-0,004	-0,217
-151,877	-38,636	-0,056	0,021
-150,862	-6,497	0,048	-0,023
-149,847	800,000	0,023	0,067
-148,833	57,750	0,062	-0,043
-147,818	305,176	0,050	0,067
-146,804	50,378	0,151	0,102
-145,789	471,708	0,041	0,066
-144,775	-200,000	0,010	-0,053
-143,760	182,098	-0,105	0,111
-142,745	264,543	0,045	0,056
-141,731	-200,000	0,023	-0,074
-140,716	58,074	-0,091	-0,064
-139,702	324,419	0,102	0,141
-138,687	749,023	-0,047	0,091
-137,672	-6,641	-0,065	-0,032
-136,658	391,864	-0,095	-0,143
-135,643	800,000	0,058	-0,137
-134,629	-19,056	-0,127	-0,057
-133,614	800,000	-0,072	0,183
-132,599	-152,781	0,059	-0,003
-131,585	-115,612	0,116	0,015
-130,570	-200,000	-0,009	-0,092
-129,556	-131,305	-0,138	0,013
-128,541	48,113	0,043	-0,029
-127,526	104,711	0,031	-0,026
-126,512	108,420	0,044	0,038
-125,497	-32,438	-0,031	0,013
-124,483	-62,028	-0,093	-0,028
-123,468	541,104	0,021	-0,036
-122,453	-200,000	-0,020	-0,066
-121,439	-0,246	-0,112	-0,057
-120,424	195,654	0,080	0,087
-119,410	-105,040	-0,050	0,008
-118,395	-114,518	0,081	-0,011
-117,380	800,000	-0,011	0,022
-116,366	208,756	-0,018	-0,020
-115,351	800,000	-0,035	-0,098
-114,337	28,432	-0,065	0,040
-113,322	-96,461	0,080	-0,015
-112,307	412,544	-0,064	0,098
-111,293	56,415	0,086	0,060
-110,278	-200,000	-0,047	0,224
-109,264	749,229	0,044	0,086
-108,249	800,000	-0,028	-0,085
-107,234	-89,167	-0,085	0,018
-106,220	800,000	-0,027	-0,061
-105,205	48,701	-0,083	-0,056
-104,191	113,929	0,051	-0,044
-103,176	-75,649	-0,105	-0,027
-102,162	-200,000	0,011	0,070
-101,147	103,020	0,069	-0,059
-100,132	360,983	0,040	-0,058
-99,118	-200,000	0,015	-0,099
-98,103	-137,493	0,064	0,005
-97,089	-145,494	0,058	0,004
-96,074	-200,000	0,023	0,075
-95,059	-24,290	-0,022	0,009
-94,045	789,640	0,020	-0,040
-93,030	141,562	0,071	0,068
-92,016	-173,028	-0,043	-0,001
-91,001	26,938	-0,118	-0,071
-89,986	548,665	0,027	0,047
-88,972	477,439	0,031	0,050
-87,957	318,502	0,035	0,048
-86,943	-38,656	0,063	-0,024
-85,928	-121,601	-0,126	-0,015
-84,913	-200,000	0,003	-0,070
-83,899	16,297	0,071	0,040
-82,884	-90,016	-0,072	0,015
-81,870	-10,740	0,118	0,056
-80,855	-97,308	-0,111	-0,021
-79,840	-200,000	-0,005	0,221
-78,826	317,663	-0,032	-0,044
-77,811	-200,000	0,006	0,039
-76,797	-200,000	-0,003	-0,111
-75,782	-48,071	0,122	-0,042
-74,767	800,000	-0,034	0,069
-73,753	5,625	-0,076	-0,040
-72,738	800,000	0,024	0,063
-71,724	-123,666	-0,160	-0,018
-70,709	-200,000	-0,023	-0,195
-69,694	-148,463	0,068	-0,004
-68,680	-87,429	0,088	0,019
-67,665	301,921	-0,078	-0,104
-66,651	564,325	0,093	-0,163
-65,636	-200,000	-0,007	0,030
-64,622	51,937	-0,122	-0,083
-63,607	12,057	-0,054	0,030
-62,592	-112,575	-0,095	0,013
-61,578	372,766	0,035	0,052
-60,563	-200,000	-0,033	0,188
-59,549	-200,000	-0,022	-0,086
-58,534	0,031	-1,973	-1,006
-57,519	-200,000	-0,226	-0,941
-56,505	-200,000	-1,311	-5,033
-55,490	30,223	0,786	0,480
-54,476	800,000	5,427	12,202
-53,461	-200,000	17,409	283,005
-52,446	800,000	727,015	2214,077
-51,432	535,221	1643,096	2808,017
-50,417	110,085	1633,878	1407,434
-49,403	75,408	1286,623	973,559
-48,388	32,098	1027,828	634,696
-47,373	20,131	989,882	571,781
-46,359	18,522	977,639	559,409
-45,344	15,729	973,594	547,930
-44,330	15,996	972,121	547,954
-43,315	15,528	970,230	545,338
-42,300	15,450	969,191	544,477
-41,286	15,416	968,184	543,781
-40,271	15,400	967,322	543,223
-39,257	15,451	966,192	542,733
-38,242	15,433	965,427	542,221
-37,227	15,427	964,673	541,757
-36,213	15,472	963,797	541,391
-35,198	15,377	962,851	540,530
-34,184	15,446	962,266	540,404
-33,169	15,411	961,263	539,705
-32,154	15,467	960,359	539,357
-31,140	15,449	959,445	538,764
-30,125	15,473	958,725	538,417
-29,111	15,406	957,904	537,718
-28,096	15,446	957,237	537,452
-27,082	15,411	956,697	537,012
-26,067	15,468	955,751	536,645
-25,052	15,441	954,924	536,071
-24,038	15,408	954,388	535,644
-23,023	15,395	953,826	535,265
-22,009	15,410	953,010	534,836
-20,994	15,477	952,342	534,652
-19,979	15,468	951,793	534,294
-18,965	15,421	951,076	533,720
-17,950	15,425	950,548	533,416
-16,936	15,405	949,931	532,985
-15,921	15,352	949,406	532,500
-14,906	15,281	948,539	531,767
-13,892	15,391	947,767	531,663
-12,877	15,313	947,221	531,088
-11,863	15,310	946,676	530,749
-10,848	15,367	945,974	530,517
-9,833	15,452	945,653	530,587
-8,819	15,422	944,858	530,024
-7,804	15,342	944,439	529,513
-6,790	15,314	943,859	529,079
-5,775	15,328	943,175	528,717
-4,760	15,371	942,576	528,499
-3,746	15,378	941,882	528,111
-2,731	15,221	941,184	527,201
-1,717	15,159	940,521	526,613
-0,702	15,147	939,997	526,261
0,313	14,961	939,347	526,102
1,327	18,211	936,943	534,950
2,342	27,154	794,402	477,265
3,356	23,736	459,716	270,931
4,371	-3,235	315,221	157,029
5,386	-7,411	297,034	143,717
6,400	-9,325	290,779	138,774
7,415	-9,699	288,598	137,352
8,429	-9,777	286,949	136,478
9,444	-10,032	286,243	135,880
10,459	-9,780	285,426	135,726
11,473	-9,921	284,946	135,348
12,488	-9,840	284,415	135,163
13,502	-9,945	283,956	134,830
14,517	-9,860	283,468	134,670
15,531	-9,943	283,094	134,399
16,546	-9,954	282,727	134,203
17,561	-9,971	282,297	133,970
18,575	-9,739	281,755	133,924
19,590	-9,797	281,476	133,724
20,604	-9,849	281,356	133,605
21,619	-9,645	280,784	133,517
22,634	-9,968	280,635	133,125
23,648	-10,034	280,228	132,856
24,663	-9,968	279,909	132,756
25,677	-9,787	279,599	132,770
26,692	-9,799	279,408	132,657
27,707	-10,013	279,329	132,404
28,721	-10,020	278,816	132,142
29,736	-10,074	278,680	132,014
30,750	-10,072	278,411	131,877
31,765	-9,997	278,044	131,762
32,780	-9,991	277,876	131,677
33,794	-9,878	277,445	131,567
34,809	-9,865	277,348	131,523
35,823	-9,905	277,154	131,380
36,838	-9,833	276,716	131,229
37,853	-9,913	276,551	131,064
38,867	-9,923	276,344	130,944
39,882	-10,038	276,206	130,760
40,896	-9,946	275,850	130,665
41,911	-10,040	275,753	130,519
42,926	-9,919	275,443	130,475
43,940	-9,868	275,153	130,373
44,955	-9,919	274,968	130,226
45,969	-10,080	274,800	129,984
46,984	-10,187	274,444	129,704
47,999	-10,232	274,025	129,453
49,013	-10,356	273,790	129,214
50,028	-10,647	273,644	128,862
51,042	-10,602	273,386	128,771
52,057	-10,562	273,117	128,670
53,071	-10,711	273,043	128,485
54,086	-10,711	272,887	128,400
55,101	-10,381	272,554	128,539
56,115	-10,259	272,543	128,636
57,130	-10,052	272,355	128,728
58,144	-9,910	272,161	128,757
59,159	-9,898	271,871	128,618
60,174	-9,858	271,582	128,507
61,188	-9,738	271,369	128,506
62,203	-9,835	271,346	128,395
63,217	-9,874	270,975	128,171
64,232	-9,814	270,769	128,117
65,247	-9,768	270,531	128,036
66,261	-9,872	270,349	127,842
67,276	-10,189	270,044	127,395
68,290	-10,186	269,719	127,233
69,305	-10,204	269,534	127,118
70,320	-10,109	269,297	127,082
71,334	-9,905	269,094	127,162
72,349	-10,005	269,158	127,089
73,363	-9,833	268,832	127,081
74,378	-9,935	268,499	126,819
75,393	-9,915	268,381	126,771
76,407	-9,865	268,016	126,632
77,422	-10,001	268,026	126,502
78,436	-9,837	267,731	126,501
79,451	-9,867	267,328	126,272
80,466	-10,016	267,232	126,080
81,480	-10,030	267,031	125,961
82,495	-10,109	266,923	125,827
83,509	-10,006	266,638	125,775
84,524	-10,014	266,470	125,677
85,539	-10,203	266,041	125,293
86,553	-10,268	265,937	125,174
87,568	-9,971	265,819	125,375
88,582	-9,792	265,486	125,369
89,597	-10,053	265,282	125,026
90,611	-10,112	265,272	124,956
91,626	-9,843	265,100	125,107
92,641	-9,898	264,753	124,882
93,655	-9,925	264,638	124,793
94,670	-9,949	264,303	124,603
95,684	-9,912	264,193	124,572
96,699	-10,049	263,911	124,305
97,714	-10,104	263,833	124,209
98,728	-9,876	263,419	124,207
99,743	-10,040	263,227	123,958
100,757	-10,155	263,010	123,743
101,772	-10,083	262,939	123,762
102,787	-10,054	262,765	123,696
103,801	-9,949	262,652	123,725
104,816	-10,082	262,458	123,504
105,830	-9,740	262,254	123,701
106,845	-9,954	262,141	123,447
107,860	-10,003	261,781	123,223
108,874	-9,757	261,534	123,314
109,889	-9,998	261,336	122,996
110,903	-9,920	261,117	122,950
111,918	-10,047	261,109	122,824
112,933	-9,963	260,747	122,717
113,947	-9,787	260,672	122,825
114,962	-9,876	260,402	122,609
115,976	-9,840	260,338	122,600
116,991	-9,968	260,039	122,335
118,006	-9,801	259,751	122,336
119,020	-10,002	259,849	122,194
120,035	-9,986	259,626	122,093
121,049	-9,978	259,489	122,024
122,064	-9,738	259,120	122,051
123,079	-9,793	258,974	121,922
124,093	-10,051	258,813	121,610
125,108	-10,154	258,567	121,393
126,122	-10,023	258,223	121,336
127,137	-10,271	257,998	121,002
128,151	-10,149	257,863	121,034
129,166	-10,082	257,621	120,969
130,181	-10,218	257,508	120,786
131,195	-10,161	257,209	120,685
132,210	-10,157	257,270	120,706
133,224	-9,941	257,145	120,824
134,239	-9,688	256,750	120,848
135,254	-9,749	256,684	120,753
136,268	-10,001	256,422	120,400
137,283	-10,173	256,189	120,131
138,297	-10,371	255,865	119,797
139,312	-10,394	255,750	119,712
140,327	-10,043	255,586	119,929
141,341	-9,788	255,603	120,147
142,356	-9,769	255,378	120,046
143,370	-9,778	255,161	119,927
144,385	-9,654	255,130	120,008
145,400	-9,784	254,924	119,788
146,414	-9,730	254,768	119,751
147,429	-9,674	254,296	119,566
148,443	-9,891	254,294	119,368
149,458	-9,767	254,127	119,386
150,473	-9,588	254,002	119,470
151,487	-9,790	253,666	119,128
152,502	-9,981	253,617	118,931
153,516	-9,838	253,588	119,029
154,531	-9,615	253,276	119,063
155,546	-9,699	253,117	118,905
156,560	-9,716	252,830	118,745
157,575	-9,889	252,658	118,507
158,589	-9,803	252,480	118,485
159,604	-9,657	252,283	118,508
160,619	-9,740	252,058	118,321
161,633	-9,780	251,916	118,209
162,648	-9,908	251,763	118,018
163,662	-9,753	251,728	118,123
164,677	-9,751	251,398	117,959
165,692	-9,716	251,363	117,962
166,706	-9,642	251,123	117,901
167,721	-9,508	250,858	117,880
168,735	-9,650	250,783	117,714
169,750	-9,602	250,669	117,691
170,764	-9,592	250,549	117,632
171,779	-9,640	250,318	117,473
172,794	-9,689	250,197	117,364
173,808	-9,641	249,893	117,251
174,823	-9,996	249,590	116,800
175,837	-10,141	249,302	116,533
176,852	-9,868	249,377	116,787
177,867	-9,647	249,337	116,944
178,881	-9,585	249,103	116,875
179,896	-9,583	249,010	116,824
180,910	-9,656	248,790	116,648
181,925	-9,737	248,536	116,451
182,940	-9,721	248,393	116,387
183,954	-9,558	248,213	116,429
184,969	-9,775	248,107	116,188
185,983	-9,728	247,961	116,148
186,998	-9,484	247,771	116,252
188,013	-9,806	247,611	115,898
189,027	-9,708	247,333	115,839
190,042	-9,598	247,137	115,829
191,056	-9,822	247,179	115,651
192,071	-9,590	246,912	115,709
193,086	-9,703	246,723	115,516
194,100	-9,766	246,524	115,361
195,115	-9,535	246,363	115,467
196,129	-9,728	246,198	115,219
197,144	-9,699	245,909	115,098
198,159	-9,583	245,755	115,111
199,173	-9,667	245,647	114,980
200,188	-9,571	245,432	114,950
201,202	-9,891	245,204	114,568
202,217	-10,204	244,990	114,200
203,232	-10,200	244,730	114,071
204,246	-9,898	244,771	114,330
205,261	-9,436	244,488	114,567
206,275	-10,527	244,218	113,534
207,290	-7,512	245,352	116,539
208,304	-0,704	247,584	123,241
209,319	3,181	248,680	127,006
210,334	3,490	248,709	127,266
211,348	3,805	248,588	127,454
212,363	4,282	248,342	127,712
213,377	4,035	248,378	127,515
214,392	3,952	248,170	127,328
215,407	4,013	247,838	127,196
216,421	3,977	247,682	127,075
217,436	4,074	247,595	127,099
218,450	4,250	247,464	127,166
219,465	3,737	247,164	126,577
220,480	3,640	247,115	126,461
221,494	3,598	246,942	126,327
222,509	3,783	246,713	126,350
223,523	3,743	246,440	126,166
224,538	3,427	246,239	125,793
225,553	3,373	246,119	125,676
226,567	3,497	245,896	125,653
227,582	3,866	245,724	125,855
228,596	3,796	245,721	125,786
229,611	3,611	245,368	125,443
230,626	3,227	245,237	125,050
231,640	3,525	245,177	125,252
232,655	3,461	244,946	125,070
233,669	3,486	244,901	125,057
234,684	3,282	244,563	124,707
235,699	3,619	244,725	125,054
236,713	3,914	244,516	125,176
237,728	3,498	244,092	124,609
238,742	3,219	243,956	124,303
239,757	3,325	243,830	124,313
240,772	3,545	243,696	124,412
241,786	3,577	243,585	124,370
242,801	3,455	243,286	124,107
243,815	3,351	243,222	123,979
244,830	3,509	243,104	124,036
245,844	3,645	242,915	124,039
246,859	3,339	242,878	123,761
247,874	3,183	242,572	123,468
248,888	3,583	242,360	123,672
249,903	3,701	242,205	123,677
250,917	3,567	242,211	123,561
251,932	3,648	242,249	123,635
252,947	3,555	241,950	123,396
253,961	3,441	241,697	123,165
254,976	3,574	241,660	123,242
255,990	3,577	241,498	123,150
257,005	3,457	241,194	122,888
258,020	3,270	241,074	122,666
259,034	3,340	240,899	122,622
260,049	3,699	240,764	122,830
261,063	3,371	240,534	122,440
262,078	3,384	240,397	122,369
263,093	3,676	240,294	122,539
264,107	3,498	240,195	122,336
265,122	3,314	239,932	122,045
266,136	3,681	239,766	122,242
267,151	3,705	239,775	122,254
268,166	3,552	239,406	121,934
269,180	3,353	239,288	121,705
270,195	4,148	239,289	122,325
271,209	4,072	239,227	122,222
272,224	3,693	238,832	121,709
273,239	3,194	238,677	121,224
274,253	3,119	238,561	121,095
275,268	3,473	238,510	121,339
276,282	3,528	238,278	121,253
277,297	3,428	238,049	121,047
278,312	3,297	237,994	120,904
279,326	3,480	237,880	120,980
280,341	3,491	237,730	120,902
281,355	3,628	237,556	120,911
282,370	3,662	237,576	120,937
283,384	3,297	237,338	120,518
284,399	3,320	237,033	120,370
285,414	3,231	236,870	120,206
286,428	3,360	236,718	120,220
287,443	3,492	236,541	120,223
288,457	3,797	236,273	120,314
289,472	3,654	236,340	120,226
290,487	3,591	236,156	120,073
291,501	3,526	236,001	119,933
292,516	3,233	235,683	119,531
293,530	3,087	235,688	119,409
294,545	3,327	235,569	119,525
295,560	3,478	235,370	119,531
296,574	3,366	235,094	119,293
297,589	3,508	235,193	119,443
298,603	3,760	235,017	119,539
299,618	3,843	234,798	119,482
300,633	3,770	234,662	119,346
301,647	3,775	234,623	119,319
302,662	4,075	234,564	119,511
303,676	4,097	234,383	119,425
304,691	4,008	234,179	119,242
305,706	3,990	234,061	119,158
306,720	3,827	233,880	118,928
307,735	3,857	233,730	118,864
308,749	3,504	233,568	118,498
309,764	3,412	233,347	118,306
310,779	3,338	233,088	118,107
311,793	3,237	232,921	117,934
312,808	3,224	232,801	117,852
313,822	3,258	232,660	117,796
314,837	3,366	232,320	117,697
315,852	3,370	232,359	117,708
316,866	3,601	232,297	117,844
317,881	3,719	232,290	117,921
318,895	3,813	232,089	117,880
319,910	3,948	231,943	117,899
320,925	3,703	231,731	117,594
321,939	3,494	231,466	117,288
322,954	3,582	231,548	117,387
323,968	3,306	231,265	117,022
324,983	3,197	231,116	116,853
325,997	3,704	230,959	117,150
327,012	4,075	230,922	117,404
328,027	3,660	230,631	116,929
329,041	3,711	230,631	116,958
330,056	4,333	230,532	117,371
331,070	3,899	230,472	116,999
332,085	3,946	230,117	116,844
333,100	4,005	230,021	116,830
334,114	3,784	229,877	116,579
335,129	3,969	229,724	116,632
336,143	3,814	229,550	116,415
337,158	4,120	229,373	116,546
338,173	3,971	229,302	116,388
339,187	3,944	229,192	116,301
340,202	4,017	229,015	116,255
341,216	4,008	228,898	116,179
342,231	3,694	228,697	115,830
343,246	3,624	228,568	115,702
344,260	3,885	228,454	115,829
345,275	3,926	228,410	115,828
346,289	3,888	228,264	115,715
347,304	4,094	228,072	115,763
348,319	4,104	227,937	115,691
349,333	3,874	227,683	115,379
350,348	3,599	227,619	115,130
351,362	3,570	227,500	115,038
352,377	3,569	227,191	114,871
353,392	3,193	227,071	114,518
354,406	3,487	226,802	114,592
355,421	195,694	1321,794	1399,304
356,435	156,891	1455,202	1399,296
