DTS Sentinel unit serial number:	SN410029Multiplexer serial number:	ORYXHardware model number:	OX2-SRSoftware version number:	ORYX F/W v4,00 Oryx Data Collector v3.7.2.0data status	okinstallation	B5 Nyhavnadifferential loss correction	single-endedforward channel	channel 2reverse channel	N/Adate	2023/12/12time	16:07:13forward acquisition time	300,00reverse acquisition time	0,00gamma	499,1914k internal	0,3156k external	0,3156temperature offset calibration	1,0000default loss term (dB/km)	0,3820temperature slope calibration	1,0000multiplexer offset coefficient	1,0000multiplexer slope coefficient	1,0000fibre end	0,00T internal ref (°C)	15,89T ext. ref 1 (°C)	-0,58T ext. ref 2 (°C)	-0,88length (m)	temperature (°C)	Stokes	anti-Stokes-744,400	202,916	0,041	0,046
-743,385	-114,041	-0,208	0,029
-742,371	150,946	-0,090	0,090
-741,356	12,067	-0,144	0,081
-740,342	175,979	0,136	0,146
-739,327	19,973	-0,265	0,157
-738,312	790,095	0,046	-0,094
-737,298	-67,153	-0,288	-0,083
-736,283	-151,227	0,082	-0,004
-735,269	-133,121	-0,337	0,031
-734,254	-144,880	0,100	-0,007
-733,239	-63,787	-0,564	-0,169
-732,225	-64,667	0,182	0,054
-731,210	-64,811	0,021	-0,006
-730,196	118,599	0,033	-0,030
-729,181	255,230	-0,081	-0,103
-728,167	75,315	-0,096	0,074
-727,152	-109,856	0,123	0,019
-726,137	76,496	-0,105	-0,082
-725,123	-69,382	-0,037	-0,010
-724,108	-200,000	0,008	0,055
-723,094	-174,737	0,049	-0,001
-722,079	-142,229	-0,132	0,009
-721,064	571,022	0,019	0,035
-720,050	-4,486	-0,076	0,039
-719,035	-112,859	0,057	0,008
-718,021	386,270	-0,034	-0,051
-717,006	-23,222	-0,132	-0,058
-715,991	591,110	-0,032	-0,058
-714,977	800,000	0,069	-0,150
-713,962	69,461	-0,098	-0,074
-712,948	783,290	0,032	0,065
-711,933	78,469	0,045	0,035
-710,918	587,186	0,029	0,053
-709,904	800,000	-0,006	0,012
-708,889	-200,000	-0,043	-0,190
-707,875	-200,000	-0,027	-0,141
-706,860	-200,000	0,022	-0,139
-705,845	-33,757	-0,082	0,033
-704,831	-27,136	0,069	-0,029
-703,816	189,854	-0,049	-0,054
-702,802	89,774	0,055	-0,046
-701,787	-200,000	-0,002	-0,039
-700,772	47,640	-0,074	-0,050
-699,758	-200,000	-0,015	-0,188
-698,743	800,000	0,019	-0,053
-697,729	145,868	0,026	0,025
-696,714	256,972	0,142	-0,180
-695,699	93,312	0,086	-0,071
-694,685	-161,123	-0,087	-0,003
-693,670	62,376	-0,154	0,113
-692,656	-200,000	-0,013	0,064
-691,641	-200,000	0,002	0,064
-690,627	-18,765	0,139	0,063
-689,612	197,672	-0,072	-0,081
-688,597	-131,305	-0,039	0,004
-687,583	4,182	-0,079	-0,042
-686,568	235,907	-0,044	0,054
-685,554	751,660	0,016	-0,033
-684,539	800,000	0,054	-0,122
-683,524	800,000	0,081	0,181
-682,510	-200,000	-0,014	-0,145
-681,495	-114,680	-0,053	0,007
-680,481	524,429	-0,114	-0,198
-679,466	-12,953	-0,044	-0,021
-678,451	-200,000	-0,000	0,082
-677,437	-91,674	-0,056	-0,012
-676,422	378,679	-0,040	-0,061
-675,408	-200,000	-0,001	0,061
-674,393	77,352	0,054	-0,042
-673,378	28,924	-0,145	-0,090
-672,364	-124,836	0,024	-0,003
-671,349	-200,000	0,009	-0,067
-670,335	30,030	0,109	-0,068
-669,320	17,362	0,045	-0,026
-668,305	234,818	0,031	-0,038
-667,291	-200,000	-0,008	-0,046
-666,276	9,272	-0,138	-0,077
-665,262	-67,406	0,090	0,026
-664,247	455,599	-0,024	-0,039
-663,232	-61,763	-0,044	-0,013
-662,218	-112,613	-0,050	0,007
-661,203	111,055	0,116	0,103
-660,189	-66,064	-0,064	-0,019
-659,174	800,000	0,025	-0,064
-658,159	-102,732	-0,126	-0,022
-657,145	204,401	-0,113	-0,129
-656,130	147,501	0,046	0,046
-655,116	256,059	0,023	0,030
-654,101	-200,000	0,012	0,068
-653,086	5,105	0,122	0,066
-652,072	-8,767	0,094	0,046
-651,057	-200,000	-0,028	-0,122
-650,043	-200,000	-0,004	-0,023
-649,028	-200,000	-0,001	0,021
-648,014	190,357	-0,109	-0,120
-646,999	20,003	0,134	0,079
-645,984	473,028	-0,080	0,132
-644,970	66,696	-0,163	0,122
-643,955	519,798	-0,053	-0,092
-642,941	400,944	-0,083	-0,129
-641,926	288,382	0,038	-0,051
-640,911	300,233	0,101	0,137
-639,897	-200,000	-0,022	-0,085
-638,882	60,934	0,100	-0,073
-637,868	14,651	-0,091	-0,052
-636,853	54,364	0,081	-0,057
-635,838	105,273	0,012	-0,011
-634,824	692,349	-0,081	-0,157
-633,809	-66,036	0,052	0,015
-632,795	-200,000	-0,020	0,101
-631,780	-97,770	0,070	0,013
-630,765	-200,000	0,003	0,093
-629,751	150,266	-0,082	-0,082
-628,736	11,031	-0,197	-0,110
-627,722	-57,562	-0,237	-0,076
-626,707	-200,000	0,003	0,032
-625,692	151,665	0,099	0,099
-624,678	-115,984	-0,052	-0,007
-623,663	190,072	0,108	0,119
-622,649	-200,000	0,008	-0,261
-621,634	-200,000	-0,007	0,047
-620,619	-200,000	-0,012	-0,111
-619,605	81,046	-0,049	-0,039
-618,590	62,460	0,113	0,083
-617,576	488,836	0,101	0,170
-616,561	2,961	0,047	0,025
-615,546	-12,525	-0,223	-0,106
-614,532	-6,288	-0,024	0,012
-613,517	146,545	0,098	-0,097
-612,503	133,447	-0,062	0,058
-611,488	-51,245	0,049	0,017
-610,474	26,555	-0,038	0,023
-609,459	26,777	0,022	-0,013
-608,444	-200,000	0,014	-0,045
-607,430	-169,980	-0,096	0,002
-606,415	800,000	0,047	0,103
-605,401	-37,198	0,020	0,008
-604,386	426,573	0,013	0,021
-603,371	800,000	0,035	0,085
-602,357	-10,129	0,016	0,008
-601,342	725,835	-0,040	0,079
-600,328	-200,000	-0,021	-0,082
-599,313	123,369	0,056	-0,051
-598,298	8,668	0,086	0,047
-597,284	800,000	-0,023	0,066
-596,269	35,749	0,024	0,015
-595,255	-109,118	0,088	-0,014
-594,240	800,000	0,011	0,030
-593,225	-160,117	-0,209	0,008
-592,211	379,060	-0,101	-0,153
-591,196	-109,460	0,081	0,012
-590,182	-200,000	0,027	0,181
-589,167	-72,009	0,072	0,020
-588,152	102,880	-0,066	0,057
-587,138	-82,011	0,021	-0,005
-586,123	53,672	0,069	0,048
-585,109	-200,000	0,021	-0,070
-584,094	-59,163	-0,054	-0,017
-583,079	13,143	-0,087	0,049
-582,065	-95,133	0,174	-0,034
-581,050	164,122	-0,108	0,112
-580,036	-78,220	-0,133	0,033
-579,021	800,000	0,017	-0,047
-578,006	225,255	-0,039	-0,047
-576,992	-200,000	-0,007	0,075
-575,977	102,076	-0,055	0,047
-574,963	100,466	-0,053	-0,045
-573,948	45,689	0,064	0,043
-572,934	-78,061	-0,096	0,024
-571,919	171,760	0,089	-0,094
-570,904	134,079	0,031	-0,029
-569,890	27,235	0,024	-0,015
-568,875	-200,000	0,012	0,195
-567,861	206,984	0,023	-0,027
-566,846	800,000	-0,033	-0,102
-565,831	51,381	0,022	0,015
-564,817	-49,306	-0,069	-0,024
-563,802	-55,630	-0,033	0,011
-562,788	-113,573	0,036	0,005
-561,773	-200,000	-0,012	0,099
-560,758	229,630	0,064	-0,077
-559,744	-118,315	-0,125	-0,016
-558,729	637,746	-0,066	0,123
-557,715	181,021	0,102	0,110
-556,700	-200,000	0,012	0,193
-555,685	-45,390	-0,094	-0,034
-554,671	-80,524	0,024	0,006
-553,656	-120,541	0,083	0,010
-552,642	-91,964	0,095	0,020
-551,627	77,779	0,101	0,079
-550,612	135,694	0,056	0,053
-549,598	676,450	-0,029	-0,055
-548,583	39,216	-0,052	0,034
-547,569	-89,767	0,019	-0,004
-546,554	-4,744	-0,073	-0,037
-545,539	101,812	-0,049	0,042
-544,525	-4,166	0,156	-0,079
-543,510	38,096	0,067	0,044
-542,496	800,000	0,023	0,060
-541,481	-7,694	-0,070	0,035
-540,466	-27,242	0,082	0,035
-539,452	-200,000	-0,009	-0,076
-538,437	-200,000	0,006	0,102
-537,423	800,000	-0,052	0,120
-536,408	95,946	0,040	0,033
-535,393	800,000	0,017	-0,038
-534,379	488,322	-0,071	-0,119
-533,364	11,709	-0,080	-0,045
-532,350	-77,345	-0,057	-0,014
-531,335	-64,069	0,049	-0,015
-530,321	35,786	0,044	-0,028
-529,306	100,817	0,119	0,102
-528,291	97,820	-0,113	0,095
-527,277	28,651	-0,037	-0,023
-526,262	730,997	0,009	-0,018
-525,248	800,000	-0,058	0,177
-524,233	-106,291	0,133	-0,022
-523,218	97,466	0,074	0,062
-522,204	128,241	-0,031	0,029
-521,189	-200,000	-0,003	-0,060
-520,175	-200,000	-0,012	-0,045
-519,160	800,000	-0,043	0,088
-518,145	800,000	0,026	-0,057
-517,131	800,000	-0,040	-0,107
-516,116	121,419	0,089	0,081
-515,102	364,738	-0,093	0,137
-514,087	191,342	0,013	0,014
-513,072	-200,000	-0,012	0,042
-512,058	-67,549	-0,122	0,035
-511,043	-200,000	0,017	0,090
-510,029	-33,721	0,181	0,072
-509,014	333,938	0,072	0,102
-507,999	800,000	0,072	0,154
-506,985	800,000	-0,041	-0,101
-505,970	-105,163	-0,109	-0,018
-504,956	299,583	-0,041	0,055
-503,941	118,189	0,062	-0,055
-502,926	98,226	0,089	-0,074
-501,912	-200,000	-0,004	0,175
-500,897	-200,000	0,012	0,058
-499,883	101,098	-0,074	-0,063
-498,868	-200,000	0,017	-0,075
-497,853	-200,000	0,001	-0,067
-496,839	-132,641	-0,031	0,003
-495,824	800,000	-0,025	0,069
-494,810	34,649	-0,008	0,005
-493,795	-159,536	-0,089	0,004
-492,781	800,000	0,062	-0,166
-491,766	-109,327	-0,031	-0,005
-490,751	414,713	-0,011	0,017
-489,737	35,270	0,085	0,055
-488,722	800,000	0,038	0,122
-487,708	800,000	0,052	0,134
-486,693	143,158	-0,108	0,105
-485,678	-97,508	-0,169	0,032
-484,664	-200,000	0,008	-0,104
-483,649	-10,360	0,016	-0,007
-482,635	-200,000	-0,007	0,061
-481,620	-61,017	0,113	0,035
-480,605	-81,868	0,097	0,023
-479,591	800,000	0,041	0,098
-478,576	-200,000	-0,041	-0,192
-477,562	-69,572	0,076	-0,021
-476,547	487,514	0,062	0,103
-475,532	-22,929	0,033	0,014
-474,518	-133,759	0,093	0,008
-473,503	-63,532	-0,010	0,003
-472,489	518,360	0,059	-0,102
-471,474	-170,979	-0,072	-0,002
-470,459	-30,060	-0,024	0,010
-469,445	-200,000	0,014	0,066
-468,430	-200,000	-0,038	-0,139
-467,416	-11,313	0,015	-0,007
-466,401	30,624	0,109	-0,068
-465,386	-112,134	-0,061	-0,009
-464,372	-200,000	-0,011	0,037
-463,357	-200,000	-0,014	-0,054
-462,343	-70,594	-0,181	-0,050
-461,328	158,695	-0,054	-0,055
-460,313	-106,789	0,087	0,014
-459,299	800,000	0,059	0,124
-458,284	67,179	-0,020	0,015
-457,270	-200,000	-0,027	-0,143
-456,255	-200,000	0,005	-0,046
-455,241	-200,000	0,015	0,055
-454,226	25,129	-0,041	-0,025
-453,211	-153,841	0,127	0,006
-452,197	170,597	-0,095	-0,099
-451,182	800,000	0,077	-0,157
-450,168	187,433	0,041	-0,045
-449,153	-63,419	-0,032	0,009
-448,138	43,051	-0,058	0,039
-447,124	76,259	0,120	0,093
-446,109	800,000	-0,005	-0,012
-445,095	-200,000	0,002	0,087
-444,080	258,152	0,086	-0,108
-443,065	800,000	0,044	0,099
-442,051	-90,558	-0,151	-0,032
-441,036	800,000	-0,020	-0,043
-440,022	272,066	0,046	0,059
-439,007	486,427	0,090	-0,151
-437,992	26,894	0,037	0,022
-436,978	800,000	0,052	0,122
-435,963	-200,000	-0,002	-0,032
-434,949	-200,000	-0,006	0,039
-433,934	-129,541	-0,072	-0,007
-432,919	-87,017	0,078	0,017
-431,905	-200,000	-0,007	0,031
-430,890	-85,609	0,012	-0,003
-429,876	330,767	0,086	0,121
-428,861	-200,000	0,002	0,098
-427,846	-200,000	0,003	0,014
-426,832	-10,457	-0,087	-0,042
-425,817	-142,951	-0,080	-0,006
-424,803	54,494	-0,043	-0,030
-423,788	-99,729	-0,067	0,012
-422,773	470,075	0,100	0,164
-421,759	701,402	0,020	0,038
-420,744	-200,000	0,012	0,068
-419,730	75,635	0,060	-0,046
-418,715	541,184	0,022	-0,039
-417,701	36,164	-0,098	-0,063
-416,686	154,245	0,094	0,094
-415,671	136,705	-0,102	-0,097
-414,657	800,000	-0,027	0,071
-413,642	-200,000	-0,000	0,050
-412,628	35,989	-0,114	-0,073
-411,613	-200,000	-0,001	0,054
-410,598	124,677	-0,066	0,060
-409,584	227,403	-0,020	-0,023
-408,569	82,537	0,056	-0,044
-407,555	125,193	0,043	0,040
-406,540	-200,000	0,011	-0,134
-405,525	-200,000	0,033	0,197
-404,511	0,340	0,009	-0,005
-403,496	-111,394	-0,119	0,017
-402,482	-200,000	-0,006	0,081
-401,467	-26,885	0,089	-0,038
-400,452	-92,603	0,187	0,038
-399,438	-21,698	-0,066	0,029
-398,423	-34,909	0,110	-0,043
-397,409	-47,804	-0,118	-0,041
-396,394	389,066	0,080	-0,120
-395,379	23,865	-0,089	0,053
-394,365	-200,000	0,006	-0,038
-393,350	153,626	-0,039	0,039
-392,336	-13,542	0,119	-0,056
-391,321	82,264	-0,066	-0,052
-390,306	713,454	-0,040	-0,077
-389,292	800,000	-0,018	0,047
-388,277	28,148	0,042	0,025
-387,263	290,186	-0,026	-0,035
-386,248	-15,697	0,175	-0,081
-385,233	261,937	0,084	0,106
-384,219	83,128	0,075	0,060
-383,204	-126,317	-0,152	0,016
-382,190	599,416	-0,024	-0,044
-381,175	-200,000	-0,045	0,238
-380,160	800,000	0,038	0,112
-379,146	-148,721	0,079	0,005
-378,131	-125,091	0,081	-0,009
-377,117	34,493	0,100	0,063
-376,102	37,702	-0,095	-0,061
-375,088	800,000	0,061	-0,166
-374,073	49,097	-0,107	-0,073
-373,058	251,059	0,081	0,100
-372,044	187,610	-0,024	0,026
-371,029	800,000	0,022	0,056
-370,015	-200,000	-0,017	-0,075
-369,000	-44,645	0,101	0,037
-367,985	-146,528	-0,155	-0,010
-366,971	-200,000	-0,025	-0,175
-365,956	-126,103	-0,084	0,009
-364,942	-184,906	0,092	0,001
-363,927	16,727	0,097	-0,056
-362,912	800,000	-0,017	-0,052
-361,898	-200,000	-0,010	-0,069
-360,883	-200,000	-0,014	-0,077
-359,869	-200,000	-0,003	-0,022
-358,854	203,728	0,033	0,038
-357,839	593,243	-0,060	0,108
-356,825	-200,000	0,004	-0,089
-355,810	9,331	0,104	-0,057
-354,796	295,361	0,091	-0,122
-353,781	800,000	0,051	-0,149
-352,766	40,623	-0,130	-0,085
-351,752	800,000	0,057	0,172
-350,737	591,117	-0,069	0,124
-349,723	69,556	-0,143	0,107
-348,708	218,758	-0,018	0,021
-347,693	-30,480	-0,089	-0,037
-346,679	-200,000	0,009	-0,084
-345,664	246,968	-0,077	-0,094
-344,650	800,000	-0,040	-0,088
-343,635	-200,000	-0,034	-0,136
-342,620	-200,000	0,016	0,078
-341,606	800,000	-0,020	-0,064
-340,591	177,511	-0,075	-0,079
-339,577	-200,000	-0,025	-0,125
-338,562	-36,762	-0,104	-0,040
-337,548	-51,489	-0,072	-0,024
-336,533	-200,000	-0,005	0,018
-335,518	576,855	-0,053	0,095
-334,504	219,368	-0,069	-0,080
-333,489	-40,812	-0,065	-0,024
-332,475	800,000	0,051	-0,161
-331,460	-110,850	-0,137	-0,020
-330,445	-166,751	0,119	-0,004
-329,431	800,000	0,020	0,041
-328,416	307,466	0,029	-0,039
-327,402	-200,000	-0,016	-0,082
-326,387	-10,732	-0,076	-0,036
-325,372	-200,000	0,022	-0,151
-324,358	800,000	-0,045	0,101
-323,343	205,742	0,038	0,043
-322,329	68,345	0,012	0,009
-321,314	-151,259	-0,095	0,005
-320,299	-200,000	0,003	0,135
-319,285	-61,195	-0,146	0,044
-318,270	329,466	0,033	0,047
-317,256	72,529	-0,118	-0,089
-316,241	-200,000	-0,022	-0,141
-315,226	-142,921	-0,156	-0,011
-314,212	65,475	0,199	0,146
-313,197	262,891	0,122	0,155
-312,183	108,412	-0,150	-0,130
-311,168	-17,340	-0,069	-0,031
-310,153	-91,520	-0,067	-0,014
-309,139	328,243	-0,043	-0,060
-308,124	110,085	0,002	0,002
-307,110	112,659	0,127	0,112
-306,095	-17,856	0,021	0,010
-305,080	-200,000	-0,020	0,068
-304,066	-200,000	-0,006	-0,020
-303,051	50,177	-0,029	0,020
-302,037	78,871	0,026	-0,020
-301,022	137,092	0,023	0,022
-300,008	193,681	-0,101	-0,111
-298,993	-138,319	0,009	0,001
-297,978	-200,000	0,003	0,026
-296,964	-142,730	-0,073	-0,005
-295,949	63,735	0,211	-0,153
-294,935	234,889	0,071	0,086
-293,920	33,437	-0,156	-0,098
-292,905	-126,983	0,166	-0,017
-291,891	-120,151	-0,125	-0,015
-290,876	-200,000	-0,005	0,057
-289,862	782,843	0,046	0,091
-288,847	-200,000	-0,027	-0,151
-287,832	800,000	0,040	0,105
-286,818	-10,004	0,086	-0,041
-285,803	519,202	0,026	-0,044
-284,789	-200,000	-0,004	0,039
-283,774	-23,762	0,168	0,073
-282,759	639,915	0,024	-0,045
-281,745	800,000	-0,075	-0,162
-280,730	-176,485	-0,081	0,001
-279,716	-200,000	0,007	0,067
-278,701	-13,794	0,112	-0,052
-277,686	-138,035	0,088	-0,007
-276,672	-64,423	0,150	0,044
-275,657	-29,257	0,063	0,026
-274,643	-200,000	-0,031	-0,102
-273,628	85,282	-0,065	0,052
-272,613	-5,480	0,095	0,047
-271,599	-19,254	0,118	0,053
-270,584	304,851	-0,029	0,039
-269,570	188,717	0,015	0,017
-268,555	-79,329	0,050	-0,012
-267,540	210,403	0,025	0,028
-266,526	25,294	-0,079	-0,047
-265,511	136,500	-0,053	0,050
-264,497	800,000	-0,057	0,123
-263,482	606,583	-0,048	0,087
-262,467	-200,000	0,029	0,111
-261,453	-200,000	-0,004	-0,035
-260,438	-119,375	-0,127	-0,016
-259,424	-200,000	-0,010	0,056
-258,409	-82,178	0,131	-0,031
-257,395	-200,000	-0,001	-0,041
-256,380	56,842	0,099	-0,070
-255,365	611,291	0,041	0,074
-254,351	-200,000	0,025	0,126
-253,336	270,522	0,045	-0,057
-252,322	51,840	-0,112	-0,077
-251,307	800,000	-0,048	-0,153
-250,292	258,266	-0,038	0,048
-249,278	800,000	0,057	0,137
-248,263	800,000	-0,034	0,108
-247,249	67,362	0,079	-0,058
-246,234	328,816	-0,076	0,106
-245,219	-60,058	0,046	0,014
-244,205	115,754	-0,048	0,043
-243,190	778,946	0,062	0,124
-242,176	390,163	0,018	-0,027
-241,161	800,000	0,031	-0,074
-240,146	261,863	0,028	0,035
-239,132	800,000	0,035	-0,074
-238,117	24,902	-0,112	-0,067
-237,103	349,489	0,115	-0,165
-236,088	-200,000	-0,026	-0,125
-235,073	800,000	0,042	0,100
-234,059	-10,767	-0,011	0,005
-233,044	-200,000	0,013	-0,055
-232,030	164,780	0,143	0,146
-231,015	800,000	-0,023	-0,063
-230,000	-72,227	0,053	-0,014
-228,986	-200,000	0,020	-0,082
-227,971	-200,000	0,031	-0,106
-226,957	-127,120	-0,056	-0,006
-225,942	-200,000	0,009	-0,071
-224,927	-200,000	0,005	-0,082
-223,913	139,631	-0,086	-0,082
-222,898	123,408	-0,092	-0,084
-221,884	-137,502	0,183	-0,015
-220,869	346,554	-0,013	0,018
-219,855	-43,174	0,060	0,022
-218,840	-157,825	0,256	0,011
-217,825	415,776	-0,068	-0,105
-216,811	464,492	-0,065	-0,105
-215,796	500,721	-0,068	-0,114
-214,782	-31,164	-0,027	0,011
-213,767	682,485	-0,082	0,155
-212,752	-200,000	0,000	0,061
-211,738	48,666	-0,076	-0,052
-210,723	800,000	0,075	0,162
-209,709	23,849	0,070	0,042
-208,694	10,280	0,068	-0,037
-207,679	462,644	-0,102	-0,165
-206,665	-72,931	-0,143	0,038
-205,650	-200,000	0,031	-0,106
-204,636	800,000	0,046	0,118
-203,621	-163,840	0,151	-0,005
-202,606	800,000	0,051	-0,121
-201,592	-3,837	0,007	-0,004
-200,577	294,484	0,024	-0,031
-199,563	-50,376	0,150	-0,051
-198,548	199,229	-0,057	0,063
-197,533	723,213	0,060	0,115
-196,519	800,000	-0,062	0,142
-195,504	800,000	-0,051	-0,115
-194,490	-200,000	0,038	0,142
-193,475	309,679	0,049	0,066
-192,460	50,861	-0,036	-0,025
-191,446	-63,406	0,119	0,035
-190,431	-200,000	-0,012	-0,068
-189,417	-200,000	0,026	-0,096
-188,402	461,947	-0,049	-0,078
-187,387	-176,967	-0,247	0,004
-186,373	-104,862	0,042	0,007
-185,358	569,610	0,028	0,050
-184,344	-127,340	-0,107	0,011
-183,329	-200,000	0,030	0,128
-182,315	800,000	0,051	-0,123
-181,300	-70,853	0,048	-0,013
-180,285	174,706	0,021	-0,022
-179,271	30,409	-0,073	-0,045
-178,256	-200,000	-0,005	0,025
-177,242	-85,956	0,075	-0,017
-176,227	-200,000	0,001	0,008
-175,212	-72,162	-0,032	0,008
-174,198	166,011	-0,058	-0,060
-173,183	800,000	-0,024	-0,066
-172,169	231,528	0,032	-0,037
-171,154	800,000	0,065	-0,156
-170,139	97,717	0,049	0,040
-169,125	800,000	0,033	0,066
-168,110	35,011	0,085	0,054
-167,096	800,000	-0,053	-0,148
-166,081	510,824	0,020	-0,034
-165,066	538,527	-0,057	-0,099
-164,052	800,000	-0,046	-0,118
-163,037	557,961	-0,063	-0,110
-162,023	24,330	-0,124	0,074
-161,008	-61,623	-0,106	0,032
-159,993	713,829	-0,023	0,045
-158,979	134,376	-0,086	0,080
-157,964	-119,259	-0,083	0,010
-156,950	800,000	-0,029	-0,089
-155,935	-200,000	-0,013	0,080
-154,920	-5,160	0,065	-0,032
-153,906	-51,820	0,026	0,009
-152,891	-134,452	-0,098	-0,009
-151,877	529,319	0,049	-0,084
-150,862	-126,979	-0,083	0,009
-149,847	800,000	-0,016	0,048
-148,833	-65,721	-0,052	-0,015
-147,818	800,000	-0,040	-0,100
-146,804	43,716	0,023	0,015
-145,789	800,000	-0,058	0,161
-144,775	54,606	-0,079	-0,055
-143,760	-141,540	-0,049	-0,004
-142,745	676,607	0,029	0,054
-141,731	-200,000	0,053	0,191
-140,716	-74,035	-0,070	-0,018
-139,702	800,000	-0,048	0,119
-138,687	800,000	0,015	0,033
-137,672	-35,931	0,099	0,039
-136,658	52,124	-0,094	-0,065
-135,643	-11,328	0,041	-0,019
-134,629	350,942	-0,055	-0,079
-133,614	800,000	0,025	-0,078
-132,599	584,705	0,047	0,083
-131,585	120,271	-0,016	0,015
-130,570	-19,967	-0,065	-0,029
-129,556	-51,170	-0,069	0,023
-128,541	-51,243	-0,049	-0,016
-127,526	118,841	-0,055	0,049
-126,512	-155,591	-0,061	0,003
-125,497	142,033	-0,084	0,081
-124,483	-98,057	-0,067	0,012
-123,468	800,000	-0,077	0,185
-122,453	-200,000	0,007	0,053
-121,439	-101,498	0,043	-0,007
-120,424	-11,424	-0,142	0,067
-119,410	800,000	0,002	0,005
-118,395	-200,000	-0,021	0,067
-117,380	-101,435	0,064	0,011
-116,366	313,530	-0,083	0,113
-115,351	-200,000	-0,009	0,039
-114,337	117,194	-0,051	-0,046
-113,322	118,751	-0,079	-0,070
-112,307	-200,000	0,014	0,074
-111,293	-200,000	0,004	0,157
-110,278	-200,000	-0,023	0,102
-109,264	-104,440	0,098	0,016
-108,249	585,719	0,008	0,014
-107,234	335,788	0,022	0,031
-106,220	-67,895	0,033	-0,009
-105,205	172,281	-0,030	-0,031
-104,191	-63,922	0,051	0,015
-103,176	100,357	-0,056	-0,047
-102,162	655,701	0,049	-0,092
-101,147	-173,195	0,072	-0,002
-100,132	-88,830	-0,043	-0,009
-99,118	88,900	0,027	0,022
-98,103	343,119	0,040	-0,057
-97,089	-88,071	0,040	-0,008
-96,074	126,392	0,102	0,093
-95,059	800,000	0,018	-0,046
-94,045	123,426	-0,061	0,055
-93,030	-67,166	0,078	-0,022
-92,016	-200,000	-0,006	-0,090
-91,001	89,053	-0,014	-0,011
-89,986	235,639	-0,034	-0,040
-88,972	-200,000	-0,025	0,108
-87,957	-173,847	0,100	-0,002
-86,943	176,959	0,058	0,060
-85,928	14,103	0,085	0,047
-84,913	800,000	-0,040	-0,098
-83,899	800,000	0,029	0,073
-82,884	800,000	-0,013	-0,026
-81,870	-200,000	0,034	0,116
-80,855	-200,000	0,015	-0,058
-79,840	11,028	0,097	-0,053
-78,826	-200,000	-0,004	0,056
-77,811	-69,172	0,125	-0,034
-76,797	181,211	0,026	0,028
-75,782	258,851	-0,019	0,023
-74,767	101,091	0,058	-0,048
-73,753	800,000	-0,042	-0,095
-72,738	-84,239	0,123	-0,028
-71,724	-200,000	-0,013	0,084
-70,709	412,999	0,059	-0,090
-69,694	-200,000	-0,012	0,074
-68,680	-200,000	-0,005	0,017
-67,665	411,744	0,056	0,085
-66,651	203,642	0,079	0,088
-65,636	-170,140	0,046	0,001
-64,622	398,463	-0,056	0,085
-63,607	199,260	-0,035	-0,038
-62,592	375,849	0,090	-0,132
-61,578	-200,000	0,006	-0,023
-60,563	398,806	-0,073	0,110
-59,549	57,359	-0,082	0,057
-58,534	8,894	-1,957	-1,057
-57,519	800,000	-0,344	-1,007
-56,505	-200,000	-1,190	-4,787
-55,490	-6,789	0,683	0,333
-54,476	800,000	5,231	12,029
-53,461	-200,000	17,282	284,491
-52,446	800,000	722,800	2230,427
-51,432	544,825	1638,465	2821,228
-50,417	112,169	1631,048	1415,304
-49,403	76,333	1286,331	977,296
-48,388	32,828	1028,818	637,960
-47,373	20,237	990,671	572,742
-46,359	18,760	978,910	561,069
-45,344	16,243	974,797	550,441
-44,330	16,452	973,329	550,274
-43,315	16,003	971,581	547,799
-42,300	15,885	970,668	546,874
-41,286	15,905	969,360	546,180
-40,271	15,914	968,294	545,589
-39,257	15,957	967,441	545,226
-38,242	15,982	966,573	544,795
-37,227	15,927	965,949	544,245
-36,213	15,924	964,942	543,645
-35,198	15,864	964,032	542,917
-34,184	15,946	963,401	542,807
-33,169	15,866	962,543	542,043
-32,154	15,925	961,469	541,608
-31,140	15,909	960,618	541,054
-30,125	15,966	959,997	540,866
-29,111	15,970	958,957	540,273
-28,096	15,892	958,505	539,745
-27,082	15,947	957,795	539,502
-26,067	15,963	956,878	539,014
-25,052	15,865	956,299	538,351
-24,038	15,939	955,478	538,106
-23,023	15,872	954,824	537,502
-22,009	15,967	954,095	537,374
-20,994	15,955	953,739	537,113
-19,979	15,963	953,055	536,732
-18,965	15,976	952,138	536,235
-17,950	15,932	951,686	535,822
-16,936	15,955	950,900	535,428
-15,921	15,859	950,554	534,907
-14,906	15,825	949,693	534,292
-13,892	15,795	949,135	533,862
-12,877	15,780	948,489	533,429
-11,863	15,748	947,917	532,984
-10,848	15,767	947,420	532,745
-9,833	15,843	946,883	532,663
-8,819	15,904	946,142	532,420
-7,804	15,866	945,498	531,914
-6,790	15,834	944,910	531,461
-5,775	15,860	944,297	531,179
-4,760	15,845	943,646	530,742
-3,746	15,798	943,184	530,313
-2,731	15,703	942,513	529,613
-1,717	15,647	941,799	529,015
-0,702	15,698	941,124	528,775
0,313	15,398	940,501	528,274
1,327	18,594	938,290	537,067
2,342	27,356	795,875	478,812
3,356	24,070	459,920	271,636
4,371	-2,821	314,227	157,019
5,386	-6,936	295,831	143,654
6,400	-9,009	289,963	138,735
7,415	-9,377	287,608	137,234
8,429	-9,542	285,996	136,290
9,444	-9,668	285,166	135,761
10,459	-9,491	284,574	135,638
11,473	-9,540	284,006	135,309
12,488	-9,531	283,313	134,975
13,502	-9,504	282,933	134,807
14,517	-9,603	282,449	134,469
15,531	-9,470	281,966	134,356
16,546	-9,466	281,575	134,161
17,561	-9,549	281,341	133,959
18,575	-9,347	280,925	133,943
19,590	-9,488	280,577	133,629
20,604	-9,503	280,216	133,431
21,619	-9,613	279,923	133,174
22,634	-9,496	279,631	133,135
23,648	-9,556	279,221	132,871
24,663	-9,543	279,042	132,786
25,677	-9,622	278,686	132,530
26,692	-9,503	278,547	132,565
27,707	-9,557	278,218	132,346
28,721	-9,370	277,911	132,365
29,736	-9,491	277,768	132,171
30,750	-9,432	277,346	132,014
31,765	-9,481	277,102	131,840
32,780	-9,507	276,876	131,695
33,794	-9,372	276,567	131,665
34,809	-9,413	276,493	131,579
35,823	-9,545	276,148	131,278
36,838	-9,676	275,921	131,035
37,853	-9,415	275,615	131,123
38,867	-9,472	275,432	130,971
39,882	-9,472	275,144	130,823
40,896	-9,485	274,931	130,697
41,911	-9,622	274,738	130,465
42,926	-9,750	274,570	130,254
43,940	-9,659	274,268	130,185
44,955	-9,617	273,801	129,991
45,969	-9,391	273,662	130,124
46,984	-9,801	273,548	129,675
47,999	-9,930	273,269	129,412
49,013	-10,013	273,062	129,224
50,028	-10,095	272,628	128,932
51,042	-10,189	272,498	128,771
52,057	-10,220	272,153	128,568
53,071	-10,155	272,012	128,550
54,086	-9,975	271,646	128,532
55,101	-10,033	271,607	128,449
56,115	-9,753	271,541	128,665
57,130	-9,395	271,358	128,899
58,144	-9,212	271,067	128,917
59,159	-9,311	270,829	128,702
60,174	-9,447	270,794	128,548
61,188	-9,460	270,609	128,437
62,203	-9,354	270,276	128,364
63,217	-9,412	269,986	128,162
64,232	-9,458	269,892	128,064
65,247	-9,466	269,787	127,995
66,261	-9,417	269,328	127,811
67,276	-9,737	269,307	127,496
68,290	-9,419	268,719	127,497
69,305	-9,804	268,741	127,144
70,320	-9,797	268,437	126,995
71,334	-9,577	268,308	127,125
72,349	-9,418	268,066	127,143
73,363	-9,406	267,882	127,056
74,378	-9,388	267,753	126,999
75,393	-9,388	267,543	126,889
76,407	-9,478	267,210	126,637
77,422	-9,362	267,069	126,665
78,436	-9,481	266,808	126,421
79,451	-9,335	266,579	126,434
80,466	-9,648	266,441	126,074
81,480	-9,436	266,087	126,087
82,495	-9,637	265,823	125,769
83,509	-9,578	265,752	125,777
84,524	-9,415	265,505	125,797
85,539	-9,792	265,202	125,302
86,553	-9,811	265,048	125,201
87,568	-9,520	264,795	125,333
88,582	-9,506	264,588	125,236
89,597	-9,523	264,418	125,129
90,611	-9,484	264,284	125,089
91,626	-9,376	264,148	125,110
92,641	-9,381	263,981	125,016
93,655	-9,498	263,671	124,752
94,670	-9,549	263,523	124,626
95,684	-9,481	263,291	124,566
96,699	-9,487	263,144	124,480
97,714	-9,515	262,772	124,268
98,728	-9,605	262,704	124,144
99,743	-9,785	262,521	123,886
100,757	-9,855	262,230	123,675
101,772	-9,749	262,083	123,690
102,787	-9,500	261,818	123,775
103,801	-9,494	261,593	123,663
104,816	-9,634	261,550	123,507
105,830	-9,368	261,388	123,656
106,845	-9,493	261,106	123,400
107,860	-9,520	260,987	123,309
108,874	-9,763	260,773	122,982
109,889	-9,614	260,449	122,950
110,903	-9,539	260,316	122,943
111,918	-9,492	260,007	122,827
112,933	-9,647	260,051	122,700
113,947	-9,394	259,633	122,714
114,962	-9,375	259,520	122,667
115,976	-9,524	259,508	122,519
116,991	-9,518	259,258	122,396
118,006	-9,353	258,959	122,389
119,020	-9,381	258,847	122,300
120,035	-9,540	258,838	122,145
121,049	-9,519	258,568	122,026
122,064	-9,342	258,300	122,043
123,079	-9,629	258,261	121,763
124,093	-9,540	257,946	121,681
125,108	-9,521	257,619	121,532
126,122	-9,698	257,490	121,307
127,137	-9,705	257,184	121,146
128,151	-9,747	257,024	121,023
129,166	-9,626	257,012	121,112
130,181	-9,847	256,704	120,763
131,195	-9,656	256,447	120,798
132,210	-9,750	256,531	120,745
133,224	-9,472	256,267	120,851
134,239	-9,486	256,194	120,794
135,254	-9,604	255,874	120,530
136,268	-9,568	255,691	120,464
137,283	-9,812	255,325	120,070
138,297	-9,968	255,072	119,806
139,312	-9,817	254,905	119,846
140,327	-9,717	254,851	119,897
141,341	-9,324	254,669	120,139
142,356	-9,362	254,565	120,047
143,370	-9,180	254,330	120,082
144,385	-9,107	254,067	120,010
145,400	-9,297	253,919	119,766
146,414	-9,208	253,728	119,742
147,429	-9,284	253,620	119,614
148,443	-9,219	253,460	119,585
149,458	-9,273	253,378	119,489
150,473	-9,199	252,908	119,320
151,487	-9,293	252,781	119,169
152,502	-9,184	252,717	119,221
153,516	-9,310	252,490	118,996
154,531	-9,236	252,327	118,971
155,546	-9,444	252,221	118,734
156,560	-9,307	252,066	118,766
157,575	-9,485	251,840	118,498
158,589	-9,411	251,576	118,427
159,604	-9,468	251,385	118,278
160,619	-9,239	251,229	118,388
161,633	-9,291	251,018	118,234
162,648	-9,199	251,042	118,313
163,662	-9,418	250,905	118,051
164,677	-9,153	250,681	118,160
165,692	-9,303	250,510	117,942
166,706	-9,317	250,192	117,770
167,721	-9,269	250,136	117,774
168,735	-9,115	249,886	117,775
169,750	-9,231	249,787	117,620
170,764	-9,232	249,670	117,554
171,779	-9,251	249,496	117,446
172,794	-8,968	249,252	117,558
173,808	-9,297	249,032	117,168
174,823	-9,571	248,779	116,808
175,837	-9,773	248,715	116,599
176,852	-9,448	248,538	116,778
177,867	-9,108	248,337	116,958
178,881	-9,417	248,317	116,679
179,896	-9,077	248,137	116,869
180,910	-9,151	247,957	116,711
181,925	-9,126	247,739	116,619
182,940	-9,322	247,825	116,485
183,954	-9,157	247,404	116,414
184,969	-9,262	247,319	116,277
185,983	-9,290	247,163	116,169
186,998	-9,227	247,044	116,156
188,013	-9,003	246,705	116,172
189,027	-9,299	246,644	115,887
190,042	-9,334	246,447	115,755
191,056	-9,230	246,140	115,687
192,071	-9,080	246,001	115,736
193,086	-9,363	245,838	115,414
194,100	-9,419	245,786	115,334
195,115	-9,118	245,538	115,456
196,129	-9,076	245,317	115,376
197,144	-9,293	245,164	115,115
198,159	-9,343	245,001	114,987
199,173	-9,349	244,820	114,887
200,188	-9,224	244,618	114,884
201,202	-9,456	244,343	114,554
202,217	-9,732	244,133	114,219
203,232	-9,607	243,855	114,181
204,246	-9,369	243,855	114,366
205,261	-9,141	243,767	114,501
206,275	-10,109	243,213	113,439
207,290	-7,210	244,639	116,479
208,304	0,198	246,760	123,609
209,319	3,728	247,856	127,071
210,334	4,155	247,758	127,363
211,348	4,254	247,697	127,402
212,363	4,552	247,640	127,608
213,377	4,662	247,433	127,580
214,392	4,483	247,312	127,359
215,407	4,383	247,107	127,159
216,421	4,584	246,795	127,153
217,436	4,663	246,799	127,209
218,450	4,871	246,621	127,276
219,465	4,484	246,441	126,854
220,480	4,247	246,325	126,588
221,494	4,436	246,091	126,612
222,509	4,186	246,127	126,415
223,523	4,214	245,712	126,213
224,538	3,771	245,527	125,744
225,553	3,942	245,311	125,762
226,567	3,961	245,256	125,738
227,582	4,069	245,051	125,710
228,596	4,204	244,958	125,762
229,611	3,868	244,676	125,331
230,626	3,892	244,364	125,180
231,640	4,149	244,339	125,365
232,655	4,022	244,284	125,222
233,669	3,898	243,990	124,960
234,684	3,882	243,787	124,832
235,699	4,257	243,783	125,123
236,713	4,165	243,793	125,042
237,728	3,913	243,426	124,638
238,742	3,719	243,231	124,371
239,757	3,751	243,066	124,301
240,772	3,801	242,881	124,236
241,786	4,089	242,642	124,335
242,801	3,836	242,578	124,087
243,815	3,922	242,484	124,097
244,830	4,178	242,434	124,267
245,844	4,056	242,276	124,077
246,859	3,924	241,939	123,787
247,874	3,832	241,802	123,631
248,888	4,056	241,758	123,778
249,903	3,998	241,704	123,693
250,917	4,247	241,313	123,682
251,932	4,231	241,343	123,673
252,947	4,248	241,215	123,610
253,961	4,118	240,885	123,326
254,976	4,114	240,805	123,271
255,990	4,191	240,578	123,205
257,005	3,910	240,413	122,885
258,020	3,784	240,251	122,691
259,034	4,053	240,044	122,789
260,049	4,111	239,991	122,797
261,063	3,989	239,684	122,531
262,078	3,894	239,646	122,426
263,093	4,285	239,566	122,685
264,107	4,324	239,439	122,640
265,122	3,844	239,117	122,083
266,136	4,095	239,114	122,270
267,151	4,181	239,093	122,317
268,166	3,997	238,811	122,016
269,180	3,908	238,492	121,771
270,195	4,252	238,596	122,086
271,209	4,527	238,632	122,312
272,224	4,088	238,216	121,740
273,239	3,649	237,954	121,248
274,253	3,773	237,637	121,174
275,268	3,822	237,666	121,217
276,282	3,959	237,577	121,268
277,297	3,830	237,290	121,010
278,312	3,740	237,159	120,861
279,326	4,145	237,121	121,149
280,341	4,021	236,956	120,957
281,355	4,063	236,831	120,915
282,370	4,090	236,707	120,862
283,384	4,156	236,382	120,737
284,399	3,945	236,350	120,545
285,414	3,830	236,167	120,351
286,428	3,747	235,966	120,173
287,443	4,102	235,888	120,400
288,457	3,966	235,674	120,173
289,472	4,171	235,596	120,284
290,487	4,069	235,393	120,089
291,501	3,840	235,250	119,827
292,516	3,654	235,038	119,564
293,530	3,493	234,950	119,382
294,545	3,869	234,927	119,653
295,560	3,847	234,790	119,556
296,574	3,772	234,357	119,266
297,589	3,720	234,325	119,199
298,603	4,200	234,259	119,528
299,618	4,297	234,135	119,529
300,633	4,004	234,175	119,311
301,647	4,211	234,057	119,401
302,662	4,609	233,704	119,518
303,676	4,523	233,751	119,464
304,691	4,388	233,515	119,230
305,706	4,394	233,316	119,121
306,720	4,485	233,101	119,071
307,735	4,253	233,118	118,890
308,749	4,115	232,853	118,638
309,764	3,877	232,502	118,266
310,779	3,804	232,382	118,138
311,793	3,714	232,212	117,972
312,808	3,761	231,939	117,859
313,822	3,860	231,764	117,835
314,837	3,745	231,760	117,734
315,852	3,536	231,775	117,571
316,866	4,004	231,607	117,834
317,881	4,044	231,449	117,774
318,895	3,808	231,352	117,534
319,910	4,305	231,279	117,866
320,925	4,476	231,100	117,895
321,939	3,978	230,982	117,444
322,954	4,217	230,713	117,479
323,968	3,770	230,561	117,051
324,983	3,969	230,155	116,985
325,997	3,995	230,377	117,107
327,012	4,345	230,226	117,287
328,027	4,110	229,977	116,971
329,041	4,492	229,939	117,231
330,056	4,792	229,994	117,476
331,070	4,739	229,762	117,307
332,085	4,412	229,535	116,933
333,100	4,127	229,298	116,586
334,114	4,109	229,105	116,464
335,129	4,191	229,032	116,478
336,143	4,505	228,885	116,631
337,158	4,444	228,885	116,574
338,173	4,316	228,585	116,315
339,187	4,138	228,347	116,049
340,202	4,414	228,169	116,155
341,216	4,211	228,168	115,992
342,231	4,171	227,896	115,814
343,246	4,086	227,829	115,706
344,260	4,338	227,752	115,845
345,275	4,476	227,679	115,901
346,289	4,576	227,513	115,881
347,304	4,573	227,365	115,794
348,319	4,371	227,159	115,527
349,333	4,385	226,969	115,430
350,348	4,153	226,726	115,123
351,362	4,335	226,509	115,139
352,377	3,992	226,565	114,900
353,392	4,054	226,295	114,799
354,406	3,972	226,246	114,703
355,421	194,540	1323,440	1397,742
356,435	155,898	1457,120	1397,753
