DTS Sentinel unit serial number:	SN410029Multiplexer serial number:	ORYXHardware model number:	OX2-SRSoftware version number:	ORYX F/W v4,00 Oryx Data Collector v3.7.2.0data status	okinstallation	B5 Nyhavnadifferential loss correction	single-endedforward channel	channel 2reverse channel	N/Adate	2023/12/14time	12:37:13forward acquisition time	300,00reverse acquisition time	0,00gamma	499,1914k internal	0,3158k external	0,3158temperature offset calibration	1,0000default loss term (dB/km)	0,3820temperature slope calibration	1,0000multiplexer offset coefficient	1,0000multiplexer slope coefficient	1,0000fibre end	0,00T internal ref (°C)	7,89T ext. ref 1 (°C)	-7,53T ext. ref 2 (°C)	-7,57length (m)	temperature (°C)	Stokes	anti-Stokes-744,400	-106,726	0,233	-0,038
-743,385	-125,414	-0,398	-0,044
-742,371	-112,081	0,255	0,037
-741,356	-87,112	-0,368	-0,082
-740,342	-3,867	0,270	0,138
-739,327	-87,870	-0,415	-0,091
-738,312	-91,048	0,242	0,051
-737,298	-37,974	-0,447	-0,174
-736,283	-72,837	0,214	0,058
-735,269	-144,282	-0,320	-0,022
-734,254	131,409	0,125	0,118
-733,239	-52,421	-0,542	-0,184
-732,225	-154,876	0,159	-0,008
-731,210	-96,867	-0,118	0,023
-730,196	-200,000	0,006	-0,087
-729,181	202,245	-0,083	-0,094
-728,167	-200,000	0,079	0,000
-727,152	-200,000	0,016	0,082
-726,137	95,426	0,044	-0,037
-725,123	-126,598	-0,133	-0,014
-724,108	385,135	-0,073	-0,111
-723,094	-200,000	-0,022	-0,072
-722,079	-109,528	-0,034	0,005
-721,064	800,000	-0,032	0,071
-720,050	81,205	0,052	-0,041
-719,035	-164,015	-0,145	0,005
-718,021	-29,754	0,073	-0,030
-717,006	-111,107	-0,133	-0,020
-715,991	-181,184	-0,175	-0,003
-714,977	-200,000	-0,008	-0,063
-713,962	-200,000	0,056	-0,203
-712,948	89,882	-0,014	-0,011
-711,933	-200,000	-0,023	-0,155
-710,918	-71,110	0,076	-0,021
-709,904	103,609	-0,140	-0,121
-708,889	658,467	-0,039	-0,075
-707,875	-200,000	0,007	-0,126
-706,860	-132,482	-0,035	-0,003
-705,845	422,956	-0,039	-0,062
-704,831	-200,000	0,003	0,122
-703,816	-73,280	-0,100	-0,027
-702,802	-98,776	-0,151	0,028
-701,787	-37,591	0,098	-0,038
-700,772	219,298	-0,044	-0,052
-699,758	56,147	0,055	-0,039
-698,743	76,721	-0,054	0,042
-697,729	-117,086	-0,093	0,012
-696,714	-47,395	0,096	0,034
-695,699	-26,149	-0,109	-0,047
-694,685	-30,562	-0,049	0,020
-693,670	-200,000	0,020	0,128
-692,656	-200,000	0,018	-0,107
-691,641	800,000	-0,009	-0,027
-690,627	-50,552	0,055	-0,019
-689,612	60,784	0,055	0,040
-688,597	800,000	-0,043	-0,109
-687,583	174,758	-0,031	-0,033
-686,568	-200,000	-0,001	-0,013
-685,554	291,551	0,058	-0,078
-684,539	-77,982	0,094	-0,024
-683,524	64,075	-0,067	0,049
-682,510	31,219	0,085	-0,054
-681,495	227,909	-0,081	0,097
-680,481	517,684	-0,071	-0,123
-679,466	745,173	-0,077	-0,153
-678,451	100,332	0,041	0,035
-677,437	-51,969	0,043	-0,015
-676,422	-141,148	0,048	0,004
-675,408	54,258	0,059	0,042
-674,393	-200,000	-0,003	-0,087
-673,378	59,433	-0,204	-0,148
-672,364	55,442	-0,050	-0,036
-671,349	30,807	0,089	-0,056
-670,335	629,412	0,021	-0,040
-669,320	-200,000	-0,022	0,120
-668,305	800,000	-0,057	-0,136
-667,291	-132,299	-0,078	0,007
-666,276	800,000	-0,043	-0,112
-665,262	-119,358	0,038	-0,005
-664,247	28,310	0,109	-0,068
-663,232	109,083	0,064	0,056
-662,218	-200,000	0,032	0,173
-661,203	800,000	-0,035	0,091
-660,189	-57,124	0,049	0,016
-659,174	-200,000	0,015	-0,141
-658,159	-200,000	0,006	-0,173
-657,145	-57,792	-0,152	0,049
-656,130	-200,000	-0,032	-0,107
-655,116	800,000	-0,021	-0,069
-654,101	-200,000	-0,025	-0,109
-653,086	23,119	0,038	0,023
-652,072	-25,505	-0,138	-0,060
-651,057	190,244	-0,129	-0,143
-650,043	800,000	0,066	-0,139
-649,028	312,992	-0,044	-0,061
-648,014	457,279	0,040	-0,066
-646,999	641,835	-0,052	0,098
-645,984	-200,000	-0,029	-0,162
-644,970	-200,000	-0,005	-0,058
-643,955	-200,000	-0,002	0,051
-642,941	147,341	-0,049	-0,049
-641,926	-200,000	0,031	0,118
-640,911	-40,898	0,067	-0,025
-639,897	58,409	-0,039	-0,028
-638,882	144,327	-0,033	-0,033
-637,868	-110,217	-0,181	0,027
-636,853	-200,000	-0,010	-0,071
-635,838	457,839	0,060	-0,098
-634,824	137,594	-0,095	-0,091
-633,809	53,784	-0,054	-0,038
-632,795	-56,995	0,063	-0,020
-631,780	-27,366	0,128	0,054
-630,765	373,421	-0,082	-0,123
-629,751	234,573	-0,059	0,072
-628,736	-30,777	-0,067	0,028
-627,722	-75,536	0,039	0,010
-626,707	48,603	0,124	-0,085
-625,692	80,048	0,067	-0,053
-624,678	103,446	-0,024	0,021
-623,663	147,814	-0,056	-0,055
-622,649	548,134	-0,088	-0,155
-621,634	-200,000	0,006	-0,173
-620,619	-136,407	-0,028	0,002
-619,605	-109,524	-0,061	-0,009
-618,590	665,845	0,057	-0,109
-617,576	152,166	-0,122	-0,122
-616,561	656,274	-0,073	-0,138
-615,546	-111,065	-0,120	-0,018
-614,532	-15,937	-0,123	-0,057
-613,517	94,236	0,112	0,093
-612,503	273,986	-0,049	-0,064
-611,488	648,304	-0,068	0,127
-610,474	-200,000	0,018	-0,108
-609,459	800,000	-0,012	0,034
-608,444	-200,000	-0,005	0,034
-607,430	399,645	0,069	-0,106
-606,415	-166,138	0,142	-0,004
-605,401	800,000	0,027	-0,084
-604,386	-200,000	-0,005	0,091
-603,371	-111,510	0,056	0,008
-602,357	82,735	-0,053	0,042
-601,342	800,000	0,021	-0,059
-600,328	303,866	0,048	0,066
-599,313	-200,000	-0,000	0,026
-598,298	-14,891	-0,054	0,025
-597,284	-151,388	0,062	-0,003
-596,269	800,000	0,051	-0,119
-595,255	-168,169	-0,120	-0,003
-594,240	-90,525	0,076	0,016
-593,225	-200,000	0,021	0,094
-592,211	-55,106	0,114	0,037
-591,196	-104,618	0,086	0,014
-590,182	112,319	-0,169	0,150
-589,167	556,821	-0,116	0,206
-588,152	160,914	-0,065	0,067
-587,138	-21,301	0,027	-0,012
-586,123	266,129	0,046	0,059
-585,109	-1,596	-0,147	-0,076
-584,094	800,000	0,035	-0,088
-583,079	-126,900	0,136	0,014
-582,065	-114,782	-0,108	-0,015
-581,050	-81,565	0,106	0,025
-580,036	197,590	0,026	0,029
-579,021	-200,000	-0,017	0,124
-578,006	56,981	0,036	0,026
-576,992	-11,603	-0,072	-0,034
-575,977	-72,622	-0,073	-0,020
-574,963	-47,923	-0,074	0,026
-573,948	193,556	-0,016	-0,018
-572,934	-9,629	-0,021	-0,010
-571,919	-126,687	0,048	0,005
-570,904	225,448	-0,048	-0,057
-569,890	-19,232	-0,237	-0,107
-568,875	112,630	0,076	0,067
-567,861	86,495	-0,030	0,024
-566,846	-28,977	0,098	-0,041
-565,831	-147,020	-0,192	0,012
-564,817	235,819	0,094	-0,114
-563,802	800,000	-0,015	-0,043
-562,788	473,660	-0,030	-0,050
-561,773	-200,000	0,028	0,101
-560,758	195,189	-0,044	0,048
-559,744	-200,000	0,014	0,108
-558,729	-71,652	-0,170	-0,046
-557,715	-200,000	-0,030	0,109
-556,700	80,122	-0,082	-0,064
-555,685	-50,862	-0,076	0,026
-554,671	200,267	0,099	0,112
-553,656	-200,000	0,010	0,077
-552,642	800,000	0,044	-0,100
-551,627	-200,000	0,015	-0,116
-550,612	-200,000	-0,010	-0,236
-549,598	0,577	-0,180	0,094
-548,583	-27,778	0,061	-0,026
-547,569	-200,000	0,002	-0,038
-546,554	-23,557	0,093	-0,041
-545,539	-200,000	0,032	0,190
-544,525	800,000	-0,014	-0,029
-543,510	800,000	-0,065	-0,146
-542,496	157,845	-0,027	0,028
-541,481	-200,000	-0,014	-0,184
-540,466	217,303	0,070	-0,081
-539,452	-200,000	0,026	0,099
-538,437	-91,435	-0,070	-0,015
-537,423	360,944	-0,005	0,008
-536,408	677,415	-0,039	-0,075
-535,393	138,688	0,099	0,095
-534,379	-103,102	0,038	0,007
-533,364	381,237	0,070	-0,105
-532,350	260,084	0,053	0,067
-531,335	-174,767	0,172	-0,003
-530,321	800,000	0,039	-0,094
-529,306	361,544	0,043	0,063
-528,291	800,000	-0,051	0,147
-527,277	800,000	-0,067	-0,188
-526,262	800,000	-0,037	-0,110
-525,248	800,000	0,028	-0,063
-524,233	-150,628	0,165	-0,009
-523,218	244,998	-0,023	0,028
-522,204	-38,930	0,168	0,064
-521,189	-55,502	-0,128	-0,042
-520,175	-113,349	0,065	0,009
-519,160	446,560	0,099	0,159
-518,145	800,000	-0,054	0,120
-517,131	211,286	0,049	0,056
-516,116	-200,000	0,013	0,155
-515,102	264,493	0,023	0,030
-514,087	139,226	0,016	-0,015
-513,072	-98,549	-0,108	-0,020
-512,058	-200,000	-0,008	0,126
-511,043	57,850	0,078	0,056
-510,029	800,000	0,028	-0,064
-509,014	800,000	0,058	0,152
-507,999	-72,097	-0,027	0,007
-506,985	785,908	-0,046	0,093
-505,970	45,221	-0,022	-0,015
-504,956	105,071	0,037	-0,032
-503,941	-25,307	-0,150	-0,064
-502,926	515,207	0,083	0,143
-501,912	-200,000	-0,021	-0,080
-500,897	-163,105	-0,081	0,003
-499,883	800,000	0,081	-0,169
-498,868	400,243	-0,091	-0,140
-497,853	420,877	0,021	-0,033
-496,839	-81,781	-0,058	0,014
-495,824	420,939	-0,111	-0,174
-494,810	-49,410	0,074	0,026
-493,795	800,000	-0,018	0,050
-492,781	219,596	-0,038	0,044
-491,766	-200,000	-0,050	-0,184
-490,751	-200,000	-0,013	0,063
-489,737	-72,543	-0,038	0,010
-488,722	-200,000	-0,002	-0,032
-487,708	59,554	0,114	0,082
-486,693	-14,821	-0,095	0,044
-485,678	-200,000	0,015	-0,058
-484,664	-128,525	-0,107	0,011
-483,649	800,000	-0,029	-0,091
-482,635	-53,739	0,137	0,045
-481,620	-54,491	0,013	0,004
-480,605	662,118	0,076	-0,144
-479,591	19,781	0,020	0,012
-478,576	135,335	-0,049	-0,046
-477,562	800,000	0,010	0,029
-476,547	629,506	0,028	-0,052
-475,532	-52,195	0,078	-0,026
-474,518	-200,000	0,029	-0,114
-473,503	-200,000	0,015	0,073
-472,489	499,312	0,079	-0,133
-471,474	-149,817	-0,104	0,006
-470,459	-84,356	-0,135	-0,031
-469,445	-49,250	-0,112	-0,039
-468,430	-156,876	0,209	-0,009
-467,416	-34,991	0,005	-0,002
-466,401	800,000	-0,022	0,060
-465,386	-162,557	0,101	-0,004
-464,372	75,629	0,091	0,070
-463,357	295,088	-0,088	-0,117
-462,343	204,017	-0,032	0,036
-461,328	166,765	0,029	-0,030
-460,313	-200,000	-0,007	-0,066
-459,299	-68,993	0,172	0,048
-458,284	800,000	-0,095	0,204
-457,270	-200,000	0,013	-0,062
-456,255	38,014	-0,091	-0,059
-455,241	800,000	-0,016	0,041
-454,226	725,302	0,013	0,025
-453,211	558,439	0,083	-0,147
-452,197	154,746	0,155	0,156
-451,182	76,944	-0,039	0,030
-450,168	-59,836	0,103	-0,032
-449,153	200,330	-0,031	-0,035
-448,138	800,000	0,035	-0,097
-447,124	-10,293	0,084	-0,040
-446,109	208,603	0,083	0,095
-445,095	128,048	-0,041	0,038
-444,080	81,537	0,119	-0,093
-443,065	-97,403	-0,079	0,015
-442,051	668,834	0,049	0,094
-441,036	-67,180	-0,093	-0,027
-440,022	-79,409	-0,128	0,031
-439,007	-200,000	-0,016	0,099
-437,992	60,867	-0,071	-0,051
-436,978	-200,000	0,019	0,093
-435,963	-200,000	-0,002	0,167
-434,949	-6,535	-0,129	-0,064
-433,934	501,506	-0,035	-0,059
-432,919	109,569	-0,077	-0,068
-431,905	-110,024	-0,090	-0,014
-430,890	43,434	-0,076	0,050
-429,876	549,342	-0,059	0,103
-428,861	-200,000	-0,011	0,085
-427,846	262,402	0,040	0,050
-426,832	44,727	0,056	-0,037
-425,817	242,002	-0,082	0,100
-424,803	4,693	-0,143	0,076
-423,788	-98,250	-0,099	-0,018
-422,773	122,021	0,051	0,046
-421,759	-129,410	0,067	0,007
-420,744	-200,000	0,006	0,042
-419,730	167,508	-0,128	0,132
-418,715	-46,659	-0,134	0,048
-417,701	530,793	0,022	0,037
-416,686	-97,138	0,121	0,023
-415,671	-200,000	0,047	0,163
-414,657	-200,000	-0,002	0,024
-413,642	-38,740	0,078	-0,030
-412,628	119,288	-0,031	0,028
-411,613	118,675	-0,075	0,067
-410,598	116,406	-0,085	0,076
-409,584	135,222	0,041	-0,039
-408,569	168,683	0,064	0,066
-407,555	-174,810	-0,085	0,002
-406,540	515,183	-0,023	0,040
-405,525	-200,000	-0,004	0,109
-404,511	264,108	-0,046	-0,059
-403,496	-200,000	0,018	-0,076
-402,482	583,249	0,035	-0,063
-401,467	142,298	0,065	-0,063
-400,452	-200,000	0,015	-0,133
-399,438	-3,982	0,095	-0,048
-398,423	-2,690	0,102	0,052
-397,409	255,919	0,051	-0,064
-396,394	269,922	-0,045	-0,058
-395,379	800,000	-0,046	-0,124
-394,365	-48,970	0,070	0,024
-393,350	-81,717	-0,059	-0,014
-392,336	-60,378	0,050	0,015
-391,321	-160,251	-0,184	0,007
-390,306	-142,941	0,093	0,006
-389,292	269,082	-0,096	-0,122
-388,277	-200,000	0,011	0,137
-387,263	-149,150	0,096	0,005
-386,248	-141,689	-0,071	-0,005
-385,233	213,504	-0,004	-0,004
-384,219	6,439	-0,045	-0,024
-383,204	546,893	0,091	-0,159
-382,190	-47,574	-0,083	-0,029
-381,175	-70,577	-0,135	-0,037
-380,160	-59,207	0,014	0,004
-379,146	65,679	-0,075	-0,055
-378,131	69,590	0,097	0,073
-377,117	-52,398	0,092	0,031
-376,102	-200,000	-0,007	-0,075
-375,088	-78,344	0,027	0,007
-374,073	-200,000	0,001	0,016
-373,058	-200,000	-0,000	0,137
-372,044	308,499	0,109	0,149
-371,029	-152,439	0,096	0,005
-370,015	-101,384	0,189	-0,033
-369,000	800,000	-0,075	-0,212
-367,985	-105,747	-0,106	-0,017
-366,971	-200,000	0,023	-0,092
-365,956	-150,920	0,044	0,002
-364,942	210,973	0,068	0,078
-363,927	-200,000	0,026	0,135
-362,912	-19,089	-0,083	-0,037
-361,898	-77,007	0,059	-0,015
-360,883	-104,778	-0,087	0,014
-359,869	-64,575	-0,041	0,012
-358,854	170,826	0,086	0,089
-357,839	-107,010	0,025	0,004
-356,825	-4,772	-0,032	0,016
-355,810	-33,641	0,109	-0,043
-354,796	-132,449	0,117	-0,011
-353,781	-113,767	-0,111	0,016
-352,766	800,000	0,013	0,027
-351,752	250,692	0,041	0,051
-350,737	-106,528	0,169	-0,027
-349,723	-0,201	0,071	0,036
-348,708	-200,000	0,030	-0,115
-347,693	800,000	0,047	-0,147
-346,679	-23,462	-0,124	-0,054
-345,664	-105,500	-0,142	0,023
-344,650	118,130	0,116	0,104
-343,635	90,035	-0,054	0,044
-342,620	134,134	-0,155	0,146
-341,606	-200,000	-0,013	0,090
-340,591	49,524	0,080	-0,054
-339,577	331,069	-0,062	-0,087
-338,562	-200,000	-0,035	-0,118
-337,548	-127,688	0,169	-0,018
-336,533	-200,000	-0,020	-0,161
-335,518	506,808	-0,071	0,120
-334,504	-79,138	-0,113	-0,028
-333,489	-144,510	0,093	0,006
-332,475	92,769	0,097	-0,080
-331,460	496,308	0,039	-0,066
-330,445	800,000	0,025	0,055
-329,431	-200,000	-0,014	0,122
-328,416	-147,621	0,139	-0,008
-327,402	70,983	0,076	0,057
-326,387	195,165	-0,088	-0,097
-325,372	800,000	-0,050	-0,130
-324,358	118,618	-0,027	0,024
-323,343	727,980	0,075	0,145
-322,329	-43,056	-0,077	-0,028
-321,314	-200,000	0,036	0,175
-320,299	288,200	0,040	-0,052
-319,285	125,252	-0,018	0,017
-318,270	-200,000	0,019	0,161
-317,256	68,186	-0,084	0,062
-316,241	-37,077	0,067	0,026
-315,226	-200,000	-0,016	-0,110
-314,212	-200,000	-0,001	0,187
-313,197	-135,632	-0,089	-0,008
-312,183	800,000	-0,050	-0,116
-311,168	-23,599	0,137	0,060
-310,153	-113,656	0,081	-0,011
-309,139	800,000	0,041	-0,104
-308,124	-200,000	0,002	0,073
-307,110	40,104	0,177	0,115
-306,095	2,102	0,136	0,071
-305,080	-115,967	0,058	0,008
-304,066	-86,551	0,035	0,008
-303,051	-55,571	-0,138	-0,045
-302,037	-13,104	0,039	0,018
-301,022	800,000	0,018	0,048
-300,008	-96,850	0,106	0,020
-298,993	36,013	0,066	0,042
-297,978	175,262	0,034	0,036
-296,964	217,550	0,052	0,060
-295,949	-200,000	-0,019	-0,111
-294,935	-104,470	-0,119	0,020
-293,920	-91,186	-0,070	-0,014
-292,905	-34,866	0,150	0,059
-291,891	258,881	0,090	0,112
-290,876	21,892	0,130	0,077
-289,862	124,583	-0,042	0,038
-288,847	161,962	-0,090	-0,092
-287,832	-52,279	-0,192	-0,064
-286,818	-177,798	0,114	-0,002
-285,803	47,260	0,105	-0,071
-284,789	95,889	-0,097	-0,080
-283,774	-132,020	0,131	0,012
-282,759	416,570	-0,085	-0,132
-281,745	800,000	-0,056	-0,119
-280,730	123,502	-0,145	-0,131
-279,716	-200,000	-0,018	0,080
-278,701	38,672	0,104	0,067
-277,686	-173,457	-0,041	-0,001
-276,672	-114,575	-0,096	-0,013
-275,657	163,804	-0,072	-0,073
-274,643	-88,031	-0,034	0,007
-273,628	741,977	-0,038	-0,075
-272,613	18,680	0,085	-0,049
-271,599	-200,000	-0,003	0,109
-270,584	-21,792	0,029	-0,013
-269,570	47,336	-0,109	0,073
-268,555	800,000	-0,057	0,168
-267,540	344,375	-0,041	-0,058
-266,526	155,866	-0,118	-0,118
-265,511	-138,544	-0,026	0,002
-264,497	-77,285	-0,023	-0,006
-263,482	80,749	0,101	0,079
-262,467	-18,032	-0,060	-0,027
-261,453	743,157	0,036	-0,071
-260,438	266,773	-0,059	-0,075
-259,424	-20,535	0,148	0,066
-258,409	-131,901	-0,039	0,004
-257,395	-200,000	-0,011	0,130
-256,380	82,595	-0,054	0,042
-255,365	786,300	-0,019	-0,039
-254,351	-200,000	-0,024	0,094
-253,336	152,176	0,090	-0,089
-252,322	-200,000	0,010	-0,063
-251,307	-133,159	0,041	-0,004
-250,292	-165,575	0,070	0,002
-249,278	64,669	0,015	-0,011
-248,263	-66,000	0,015	-0,004
-247,249	401,074	-0,069	-0,106
-246,234	256,151	-0,042	0,053
-245,219	-93,366	0,161	0,032
-244,205	-170,283	0,008	0,000
-243,190	800,000	0,027	0,075
-242,176	800,000	-0,016	-0,032
-241,161	129,529	0,043	0,039
-240,146	800,000	0,040	0,113
-239,132	800,000	-0,054	0,116
-238,117	-200,000	-0,021	-0,207
-237,103	36,632	0,119	-0,076
-236,088	73,337	-0,050	-0,038
-235,073	800,000	-0,058	-0,168
-234,059	-136,813	-0,092	0,008
-233,044	70,081	0,144	0,107
-232,030	-98,678	0,135	-0,025
-231,015	303,288	-0,050	-0,067
-230,000	-126,082	-0,101	-0,011
-228,986	-200,000	-0,027	-0,088
-227,971	-103,618	0,115	-0,019
-226,957	800,000	-0,029	0,059
-225,942	-200,000	-0,016	0,171
-224,927	162,003	-0,059	-0,060
-223,913	-103,901	-0,124	0,021
-222,898	97,006	-0,169	0,140
-221,884	-159,761	-0,116	0,005
-220,869	75,335	0,084	0,064
-219,855	-77,662	0,091	-0,023
-218,840	54,177	-0,015	-0,010
-217,825	42,104	0,036	-0,023
-216,811	-187,427	0,044	0,000
-215,796	129,926	-0,026	0,024
-214,782	551,938	-0,080	0,140
-213,767	-59,254	0,147	-0,045
-212,752	102,286	0,019	0,016
-211,738	-140,453	-0,084	0,006
-210,723	-200,000	-0,002	0,008
-209,709	56,675	-0,026	0,018
-208,694	73,516	0,111	-0,084
-207,679	133,750	0,093	-0,087
-206,665	-200,000	0,008	0,069
-205,650	800,000	0,039	-0,089
-204,636	-200,000	0,002	-0,130
-203,621	-31,160	0,085	0,034
-202,606	-4,354	-0,124	-0,062
-201,592	800,000	-0,051	-0,102
-200,577	130,753	-0,025	-0,023
-199,563	247,472	-0,038	-0,047
-198,548	800,000	0,069	0,171
-197,533	-47,916	-0,017	0,006
-196,519	-194,825	-0,044	-0,000
-195,504	16,922	-0,028	0,016
-194,490	110,749	-0,081	0,071
-193,475	-200,000	0,010	-0,088
-192,460	192,893	-0,036	0,040
-191,446	-200,000	0,016	0,079
-190,431	203,743	0,065	0,073
-189,417	800,000	-0,059	0,163
-188,402	-200,000	0,001	-0,038
-187,387	119,035	-0,121	-0,108
-186,373	-200,000	-0,019	-0,098
-185,358	-2,898	-0,068	-0,034
-184,344	-20,762	-0,045	0,020
-183,329	-150,743	0,142	0,008
-182,315	-99,337	0,040	0,007
-181,300	800,000	0,018	0,038
-180,285	-110,660	-0,057	-0,008
-179,271	740,592	0,036	0,071
-178,256	34,888	0,056	-0,036
-177,242	800,000	0,060	0,121
-176,227	359,315	0,058	-0,084
-175,212	-200,000	-0,006	0,063
-174,198	81,900	-0,056	-0,043
-173,183	274,131	-0,033	0,042
-172,169	-200,000	0,017	0,056
-171,154	5,876	0,087	0,046
-170,139	-200,000	0,050	-0,161
-169,125	88,671	0,042	-0,033
-168,110	-200,000	-0,002	-0,056
-167,096	72,241	0,024	0,018
-166,081	-67,416	0,108	0,030
-165,066	-173,656	-0,128	-0,003
-164,052	61,173	-0,049	0,035
-163,037	374,734	0,111	0,164
-162,023	-200,000	0,030	0,137
-161,008	-78,423	0,086	0,021
-159,993	-79,595	0,149	-0,036
-158,979	-141,653	-0,095	0,007
-157,964	-45,311	-0,089	-0,032
-156,950	-101,232	-0,035	-0,006
-155,935	-200,000	-0,001	0,017
-154,920	-105,832	-0,094	0,015
-153,906	314,122	0,108	0,147
-152,891	-91,337	-0,115	0,024
-151,877	-79,832	0,052	0,013
-150,862	-105,579	0,119	0,019
-149,847	-200,000	-0,020	-0,070
-148,833	95,194	-0,043	0,036
-147,818	409,956	0,016	-0,024
-146,804	-200,000	0,021	0,075
-145,789	-123,074	0,052	0,006
-144,775	168,373	-0,109	-0,112
-143,760	-29,580	-0,031	-0,013
-142,745	24,712	-0,021	-0,012
-141,731	520,304	0,114	-0,194
-140,716	344,937	-0,002	-0,003
-139,702	182,469	-0,111	0,118
-138,687	34,129	0,098	0,061
-137,672	-21,505	-0,105	0,046
-136,658	-159,965	-0,045	-0,002
-135,643	-33,042	0,098	0,039
-134,629	-200,000	-0,005	-0,115
-133,614	-200,000	0,007	-0,073
-132,599	-159,191	-0,108	0,004
-131,585	-200,000	-0,027	0,100
-130,570	-19,426	-0,072	-0,032
-129,556	52,148	-0,060	-0,041
-128,541	-99,507	-0,016	0,003
-127,526	-13,565	-0,074	-0,034
-126,512	-146,215	0,113	0,007
-125,497	270,736	-0,044	-0,056
-124,483	-200,000	-0,005	-0,038
-123,468	-200,000	-0,002	0,070
-122,453	185,954	-0,070	-0,075
-121,439	59,712	-0,149	0,106
-120,424	-200,000	0,000	0,020
-119,410	139,100	0,058	0,055
-118,395	-148,385	0,026	-0,002
-117,380	-68,043	-0,068	0,019
-116,366	252,151	0,061	0,075
-115,351	49,742	-0,051	-0,034
-114,337	624,926	0,021	-0,038
-113,322	660,036	-0,067	-0,125
-112,307	41,448	0,100	0,065
-111,293	-200,000	0,018	0,166
-110,278	115,647	0,198	0,174
-109,264	104,983	0,102	0,086
-108,249	-200,000	-0,007	-0,088
-107,234	6,155	-0,026	-0,014
-106,220	249,922	-0,089	-0,108
-105,205	61,031	0,123	0,087
-104,191	-135,899	-0,005	0,000
-103,176	101,592	-0,057	0,048
-102,162	7,214	0,129	-0,069
-101,147	480,468	-0,029	0,048
-100,132	-200,000	-0,011	-0,052
-99,118	-200,000	0,017	-0,091
-98,103	-100,691	-0,081	-0,014
-97,089	-200,000	0,018	0,107
-96,074	-24,900	0,112	0,048
-95,059	-36,878	-0,012	0,005
-94,045	-23,993	0,051	0,022
-93,030	-88,739	-0,027	-0,006
-92,016	278,126	0,126	-0,161
-91,001	70,761	0,059	0,044
-89,986	286,234	-0,085	-0,110
-88,972	445,230	0,117	0,185
-87,957	256,778	-0,097	0,121
-86,943	-200,000	0,036	0,124
-85,928	-158,792	-0,102	-0,004
-84,913	113,610	-0,015	-0,013
-83,899	418,040	0,063	-0,097
-82,884	-67,437	0,069	0,019
-81,870	362,500	-0,011	-0,016
-80,855	102,379	0,060	-0,051
-79,840	274,188	-0,060	-0,077
-78,826	800,000	0,012	-0,035
-77,811	165,972	0,015	-0,015
-76,797	152,381	-0,080	-0,078
-75,782	-127,589	-0,032	-0,003
-74,767	-12,288	0,165	-0,077
-73,753	-37,920	0,187	0,071
-72,738	-155,429	-0,087	0,004
-71,724	-200,000	-0,029	0,127
-70,709	234,480	-0,018	0,022
-69,694	316,778	-0,083	-0,113
-68,680	-51,988	-0,036	-0,012
-67,665	-200,000	0,011	0,048
-66,651	-91,214	0,090	-0,018
-65,636	69,294	0,154	0,114
-64,622	-74,102	-0,113	0,029
-63,607	166,345	0,027	-0,027
-62,592	334,729	0,065	-0,090
-61,578	54,256	0,099	0,068
-60,563	234,909	0,102	0,121
-59,549	-43,795	-0,105	0,038
-58,534	115,845	-2,521	-2,213
-57,519	128,375	0,348	-0,318
-56,505	800,000	-1,766	-5,368
-55,490	507,694	1,271	2,126
-54,476	800,000	5,106	11,212
-53,461	-200,000	22,178	346,970
-52,446	800,000	760,442	2292,385
-51,432	513,434	1645,191	2762,780
-50,417	97,090	1608,476	1323,091
-49,403	64,829	1265,427	915,171
-48,388	22,870	1017,220	596,677
-47,373	19,368	984,703	566,040
-46,359	12,829	971,381	536,991
-45,344	8,527	968,133	521,096
-44,330	9,017	966,206	521,638
-43,315	8,032	964,516	517,488
-42,300	7,999	963,261	516,690
-41,286	7,963	962,230	515,998
-40,271	7,965	961,259	515,464
-39,257	7,918	960,357	514,805
-38,242	7,887	959,598	514,279
-37,227	7,967	958,784	514,080
-36,213	7,866	958,011	513,317
-35,198	7,949	957,000	513,024
-34,184	7,936	956,240	512,555
-33,169	7,917	955,318	511,980
-32,154	7,964	954,494	511,669
-31,140	7,933	953,591	511,065
-30,125	8,018	952,670	510,827
-29,111	7,912	952,116	510,166
-28,096	7,929	951,533	509,890
-27,082	7,888	950,932	509,414
-26,067	7,875	950,146	508,932
-25,052	7,878	949,105	508,364
-24,038	7,852	948,609	507,993
-23,023	7,917	947,920	507,814
-22,009	7,913	947,304	507,450
-20,994	7,908	946,588	507,030
-19,979	7,980	945,873	506,857
-18,965	7,910	945,409	506,366
-17,950	7,896	944,805	505,976
-16,936	7,880	944,089	505,521
-15,921	7,907	943,383	505,211
-14,906	7,828	942,635	504,535
-13,892	7,807	942,169	504,200
-12,877	7,830	941,411	503,849
-11,863	7,784	940,862	503,387
-10,848	7,856	940,241	503,264
-9,833	7,886	939,937	503,177
-8,819	7,807	939,412	502,626
-7,804	7,828	938,421	502,141
-6,790	7,825	938,058	501,918
-5,775	7,872	937,257	501,618
-4,760	7,817	936,904	501,237
-3,746	7,872	936,196	501,012
-2,731	7,701	935,341	499,992
-1,717	7,652	934,939	499,602
-0,702	7,707	934,123	499,320
0,313	7,479	933,735	499,146
1,327	11,076	931,262	509,112
2,342	19,792	779,823	449,154
3,356	15,154	448,313	251,210
4,371	-10,969	312,877	147,524
5,386	-14,800	295,533	135,456
6,400	-16,873	289,285	130,524
7,415	-17,289	286,641	128,910
8,429	-18,145	284,658	127,172
9,444	-18,045	283,795	126,872
10,459	-18,142	283,181	126,492
11,473	-18,246	282,597	126,119
12,488	-18,038	282,007	126,046
13,502	-18,222	281,503	125,632
14,517	-18,057	281,018	125,564
15,531	-18,322	280,766	125,184
16,546	-18,182	280,162	125,039
17,561	-18,253	279,781	124,789
18,575	-18,357	279,450	124,531
19,590	-18,178	279,140	124,553
20,604	-18,043	278,807	124,522
21,619	-18,160	278,361	124,200
22,634	-18,217	278,226	124,074
23,648	-18,328	277,938	123,829
24,663	-18,258	277,600	123,734
25,677	-18,216	277,379	123,665
26,692	-18,131	277,090	123,605
27,707	-18,010	276,737	123,552
28,721	-18,197	276,458	123,238
29,736	-18,239	276,176	123,063
30,750	-18,290	276,037	122,941
31,765	-18,297	275,759	122,800
32,780	-18,361	275,454	122,593
33,794	-18,267	275,155	122,537
34,809	-18,155	274,951	122,541
35,823	-18,176	274,514	122,316
36,838	-18,033	274,190	122,294
37,853	-18,164	274,159	122,147
38,867	-18,283	273,890	121,905
39,882	-18,181	273,618	121,868
40,896	-18,261	273,414	121,692
41,911	-18,204	273,184	121,631
42,926	-18,126	272,839	121,540
43,940	-18,135	272,579	121,405
44,955	-18,107	272,233	121,266
45,969	-18,010	271,985	121,235
46,984	-18,136	272,057	121,139
47,999	-17,978	271,829	121,173
49,013	-18,070	271,645	120,996
50,028	-17,945	271,222	120,912
51,042	-18,210	271,189	120,641
52,057	-18,112	270,778	120,538
53,071	-18,101	270,691	120,499
54,086	-18,167	270,411	120,302
55,101	-18,158	270,225	120,217
56,115	-18,111	269,851	120,083
57,130	-18,217	269,738	119,925
58,144	-18,268	269,508	119,764
59,159	-18,037	269,183	119,822
60,174	-18,159	268,860	119,556
61,188	-18,149	268,939	119,589
62,203	-18,110	268,513	119,425
63,217	-18,098	268,368	119,361
64,232	-18,199	268,251	119,206
65,247	-17,982	267,785	119,186
66,261	-18,040	267,534	119,011
67,276	-18,168	267,413	118,830
68,290	-18,198	267,172	118,684
69,305	-18,284	267,101	118,564
70,320	-18,058	266,700	118,581
71,334	-18,105	266,487	118,433
72,349	-17,910	266,361	118,544
73,363	-18,124	266,035	118,194
74,378	-18,260	265,831	117,969
75,393	-18,069	265,551	118,008
76,407	-18,083	265,444	117,936
77,422	-18,110	265,188	117,788
78,436	-18,208	265,076	117,640
79,451	-17,969	264,607	117,637
80,466	-18,059	264,364	117,437
81,480	-18,215	264,068	117,154
82,495	-18,140	263,855	117,117
83,509	-18,106	263,876	117,147
84,524	-17,997	263,599	117,111
85,539	-18,089	263,257	116,866
86,553	-18,224	263,268	116,739
87,568	-18,067	262,959	116,732
88,582	-18,199	262,661	116,472
89,597	-18,012	262,464	116,541
90,611	-18,009	262,307	116,463
91,626	-17,983	262,124	116,395
92,641	-18,076	261,947	116,223
93,655	-18,027	261,850	116,213
94,670	-18,213	261,442	115,857
95,684	-18,169	261,291	115,818
96,699	-17,910	261,059	115,935
97,714	-17,982	260,796	115,745
98,728	-17,946	260,639	115,696
99,743	-18,037	260,558	115,569
100,757	-17,967	260,172	115,450
101,772	-17,985	260,082	115,384
102,787	-18,059	259,856	115,208
103,801	-17,950	259,498	115,135
104,816	-18,191	259,566	114,942
105,830	-18,110	259,352	114,908
106,845	-18,187	259,030	114,688
107,860	-17,890	258,862	114,865
108,874	-18,110	258,478	114,491
109,889	-17,983	258,376	114,547
110,903	-18,024	258,116	114,385
111,918	-18,005	257,930	114,309
112,933	-18,104	257,779	114,145
113,947	-18,136	257,586	114,022
114,962	-18,026	257,410	114,030
115,976	-17,968	257,228	113,990
116,991	-18,141	257,098	113,771
118,006	-18,144	256,775	113,615
119,020	-17,947	256,652	113,722
120,035	-17,868	256,619	113,767
121,049	-18,058	256,360	113,476
122,064	-18,047	256,211	113,410
123,079	-17,960	255,913	113,343
124,093	-17,919	255,677	113,265
125,108	-18,039	255,517	113,079
126,122	-18,206	255,313	112,834
127,137	-18,092	255,118	112,836
128,151	-17,986	255,077	112,900
129,166	-17,857	254,790	112,875
130,181	-17,948	254,456	112,638
131,195	-17,950	254,205	112,515
132,210	-17,921	254,027	112,452
133,224	-17,933	253,825	112,342
134,239	-17,855	253,750	112,365
135,254	-17,865	253,518	112,244
136,268	-17,764	253,171	112,167
137,283	-17,945	253,112	111,976
138,297	-17,915	253,040	111,959
139,312	-17,939	252,735	111,794
140,327	-17,879	252,430	111,700
141,341	-17,845	252,320	111,671
142,356	-17,849	252,217	111,612
143,370	-17,787	251,855	111,495
144,385	-17,656	251,629	111,496
145,400	-17,940	251,473	111,176
146,414	-18,103	251,396	110,992
147,429	-18,067	251,163	110,911
148,443	-17,990	250,962	110,878
149,458	-17,944	250,806	110,838
150,473	-17,925	250,764	110,825
151,487	-17,825	250,465	110,768
152,502	-17,844	250,215	110,632
153,516	-17,732	249,990	110,617
154,531	-18,039	249,987	110,346
155,546	-18,026	249,813	110,270
156,560	-17,784	249,410	110,287
157,575	-17,839	249,390	110,222
158,589	-17,946	249,100	109,994
159,604	-17,918	248,957	109,945
160,619	-17,927	248,731	109,827
161,633	-17,756	248,638	109,920
162,648	-17,697	248,340	109,828
163,662	-17,871	248,426	109,710
164,677	-17,907	248,231	109,584
165,692	-17,894	247,891	109,435
166,706	-17,768	247,783	109,483
167,721	-18,031	247,634	109,188
168,735	-18,083	247,519	109,083
169,750	-17,769	247,289	109,235
170,764	-17,885	247,190	109,084
171,779	-17,978	246,959	108,895
172,794	-17,799	246,708	108,924
173,808	-17,993	246,554	108,684
174,823	-17,801	246,345	108,742
175,837	-17,773	246,219	108,700
176,852	-17,830	246,122	108,601
177,867	-17,880	245,864	108,436
178,881	-17,695	245,661	108,490
179,896	-17,948	245,553	108,223
180,910	-17,970	245,484	108,164
181,925	-17,835	245,187	108,136
182,940	-17,795	245,040	108,094
183,954	-17,729	244,671	107,977
184,969	-17,730	244,763	108,007
185,983	-18,046	244,598	107,663
186,998	-17,954	244,463	107,671
188,013	-17,748	244,124	107,681
189,027	-17,976	243,969	107,415
190,042	-17,895	243,701	107,354
191,056	-17,758	243,700	107,457
192,071	-17,925	243,482	107,214
193,086	-17,866	243,295	107,170
194,100	-17,653	243,018	107,213
195,115	-17,707	242,813	107,070
196,129	-17,976	242,708	106,793
197,144	-17,875	242,549	106,797
198,159	-17,694	242,298	106,824
199,173	-17,823	242,313	106,715
200,188	-17,769	241,948	106,590
201,202	-17,683	241,738	106,558
202,217	-17,927	241,521	106,254
203,232	-17,816	241,483	106,318
204,246	-17,636	241,260	106,357
205,261	-17,654	241,276	106,340
206,275	-15,787	241,658	108,019
207,290	-10,862	243,703	112,964
208,304	-4,996	245,303	118,528
209,319	-2,978	245,695	120,369
210,334	-2,654	245,925	120,739
211,348	-1,648	246,012	121,598
212,363	-1,042	246,014	122,087
213,377	-0,450	246,191	122,652
214,392	0,362	246,081	123,255
215,407	0,579	246,241	123,502
216,421	0,512	246,052	123,341
217,436	0,702	245,874	123,397
218,450	0,795	245,568	123,309
219,465	0,849	245,504	123,310
220,480	0,846	245,418	123,254
221,494	0,695	245,287	123,053
222,509	0,312	245,003	122,586
223,523	0,484	244,563	122,495
224,538	0,360	244,617	122,410
225,553	0,207	244,384	122,158
226,567	0,174	243,890	121,873
227,582	0,273	243,923	121,959
228,596	0,026	244,082	121,827
229,611	0,392	243,770	121,958
230,626	0,279	243,563	121,752
231,640	0,235	243,417	121,632
232,655	0,064	243,155	121,352
233,669	-0,079	242,977	121,136
234,684	0,070	242,882	121,199
235,699	0,074	242,855	121,178
236,713	0,170	242,585	121,110
237,728	0,222	242,325	121,012
238,742	0,264	242,132	120,938
239,757	-0,032	242,209	120,727
240,772	0,352	241,782	120,812
241,786	0,173	241,743	120,639
242,801	0,227	241,577	120,588
243,815	0,006	241,574	120,398
244,830	0,397	241,198	120,514
245,844	0,181	241,218	120,340
246,859	0,149	241,006	120,198
247,874	0,330	240,798	120,228
248,888	-0,025	240,612	119,840
249,903	0,229	240,522	119,988
250,917	0,204	240,416	119,904
251,932	0,431	240,176	119,956
252,947	0,344	240,045	119,810
253,961	0,318	239,910	119,711
254,976	0,362	239,706	119,634
255,990	0,324	239,657	119,569
257,005	0,090	239,452	119,269
258,020	0,188	239,503	119,362
259,034	0,152	239,100	119,122
260,049	0,321	238,975	119,183
261,063	0,134	239,009	119,040
262,078	0,021	238,702	118,788
263,093	0,107	238,470	118,729
264,107	0,131	238,269	118,638
265,122	0,212	238,181	118,648
266,136	0,165	238,036	118,528
267,151	0,054	237,958	118,390
268,166	0,192	237,732	118,377
269,180	0,210	237,412	118,221
270,195	0,256	237,435	118,258
271,209	0,077	237,324	118,051
272,224	0,292	237,124	118,110
273,239	0,368	236,963	118,080
274,253	0,271	236,783	117,903
275,268	-0,009	236,836	117,698
276,282	0,275	236,450	117,720
277,297	0,356	236,285	117,690
278,312	0,201	236,171	117,502
279,326	0,232	236,046	117,453
280,341	0,229	235,983	117,409
281,355	0,327	235,825	117,396
282,370	0,405	235,494	117,282
283,384	0,253	235,407	117,110
284,399	0,183	235,330	117,006
285,414	0,229	235,054	116,894
286,428	0,484	235,041	117,077
287,443	0,355	234,844	116,867
288,457	0,421	234,597	116,785
289,472	0,168	234,682	116,620
290,487	0,451	234,401	116,690
291,501	0,192	234,352	116,454
292,516	0,109	234,228	116,318
293,530	0,328	234,054	116,391
294,545	0,342	233,932	116,331
295,560	0,308	233,780	116,219
296,574	0,303	233,573	116,101
297,589	0,347	233,425	116,052
298,603	0,404	233,294	116,020
299,618	0,550	232,853	115,903
300,633	0,391	233,033	115,860
301,647	0,501	232,735	115,786
302,662	0,421	232,670	115,681
303,676	0,404	232,515	115,581
304,691	0,455	232,335	115,521
305,706	0,270	232,250	115,326
306,720	0,405	232,094	115,342
307,735	0,631	231,819	115,368
308,749	0,542	231,818	115,289
309,764	0,514	231,687	115,192
310,779	0,537	231,495	115,105
311,793	0,519	231,259	114,963
312,808	0,597	231,176	114,971
313,822	0,412	230,895	114,679
314,837	0,500	230,780	114,679
315,852	0,508	230,770	114,671
316,866	0,525	230,767	114,672
317,881	0,532	230,481	114,525
318,895	0,610	230,314	114,491
319,910	0,481	230,137	114,295
320,925	0,598	229,986	114,298
321,939	0,735	229,803	114,301
322,954	0,494	229,665	114,039
323,968	0,613	229,443	114,009
324,983	0,494	229,480	113,927
325,997	0,546	229,224	113,829
327,012	0,598	229,034	113,764
328,027	0,753	228,844	113,777
329,041	0,544	228,822	113,598
330,056	0,516	228,677	113,495
331,070	0,703	228,550	113,563
332,085	0,815	228,388	113,557
333,100	0,670	228,124	113,306
334,114	0,709	227,979	113,253
335,129	0,733	227,826	113,185
336,143	0,435	227,924	112,999
337,158	0,693	227,700	113,072
338,173	0,617	227,533	112,922
339,187	0,831	227,455	113,035
340,202	0,669	227,298	112,824
341,216	0,739	227,217	112,827
342,231	0,760	226,975	112,712
343,246	0,658	226,857	112,568
344,260	0,621	226,712	112,458
345,275	0,649	226,657	112,441
346,289	0,822	226,495	112,480
347,304	0,597	226,287	112,198
348,319	0,734	226,181	112,238
349,333	0,830	225,980	112,200
350,348	0,755	225,814	112,052
351,362	0,904	225,729	112,111
352,377	0,736	225,496	111,860
353,392	0,914	225,286	111,878
354,406	0,652	225,378	111,719
355,421	192,127	1311,314	1376,359
356,435	153,899	1443,467	1376,203
