DTS Sentinel unit serial number:	SN410029Multiplexer serial number:	ORYXHardware model number:	OX2-SRSoftware version number:	ORYX F/W v4,00 Oryx Data Collector v3.7.2.0data status	okinstallation	B5 Nyhavnadifferential loss correction	single-endedforward channel	channel 2reverse channel	N/Adate	2023/12/12time	10:47:13forward acquisition time	300,00reverse acquisition time	0,00gamma	499,1914k internal	0,3158k external	0,3158temperature offset calibration	1,0000default loss term (dB/km)	0,3820temperature slope calibration	1,0000multiplexer offset coefficient	1,0000multiplexer slope coefficient	1,0000fibre end	0,00T internal ref (°C)	15,00T ext. ref 1 (°C)	-1,32T ext. ref 2 (°C)	-1,57length (m)	temperature (°C)	Stokes	anti-Stokes-744,400	-68,962	0,133	0,038
-743,385	62,504	-0,225	0,165
-742,371	-29,238	-0,053	0,022
-741,356	-190,322	-0,234	0,002
-740,342	442,113	0,098	0,158
-739,327	-27,666	-0,256	0,109
-738,312	163,151	0,047	-0,049
-737,298	24,858	-0,296	-0,180
-736,283	-200,000	0,033	0,132
-735,269	-117,129	-0,215	0,029
-734,254	-85,141	0,066	0,015
-733,239	-9,759	-0,380	-0,186
-732,225	-200,000	0,015	0,107
-731,210	504,233	0,045	0,076
-730,196	-164,963	-0,123	0,004
-729,181	158,355	-0,039	-0,040
-728,167	205,235	0,037	0,042
-727,152	-39,362	0,121	0,047
-726,137	241,755	-0,081	0,100
-725,123	415,960	-0,055	-0,087
-724,108	-67,498	-0,176	-0,051
-723,094	19,788	-0,070	-0,042
-722,079	261,761	-0,142	-0,181
-721,064	101,530	-0,129	-0,111
-720,050	30,249	-0,044	0,028
-719,035	800,000	-0,013	-0,031
-718,021	199,056	-0,072	0,082
-717,006	-7,789	-0,142	-0,071
-715,991	-200,000	-0,007	-0,037
-714,977	106,181	0,075	-0,065
-713,962	179,783	-0,059	0,064
-712,948	-124,657	0,057	0,006
-711,933	-200,000	-0,004	-0,097
-710,918	-200,000	-0,007	-0,087
-709,904	78,512	-0,055	-0,043
-708,889	800,000	0,043	0,090
-707,875	800,000	0,003	-0,007
-706,860	-200,000	0,005	-0,117
-705,845	745,072	0,018	0,036
-704,831	-130,294	-0,136	0,013
-703,816	-43,818	0,121	0,044
-702,802	800,000	-0,018	0,056
-701,787	-4,861	-0,104	0,053
-700,772	-85,237	-0,123	0,028
-699,758	-200,000	0,004	-0,045
-698,743	-200,000	0,005	0,085
-697,729	-100,416	-0,032	0,006
-696,714	-28,964	-0,118	0,050
-695,699	14,118	0,090	-0,051
-694,685	800,000	-0,087	-0,187
-693,670	-26,239	-0,095	-0,041
-692,656	-64,450	-0,020	0,006
-691,641	-93,924	0,080	0,016
-690,627	20,844	0,045	0,027
-689,612	800,000	-0,028	-0,075
-688,597	156,066	0,026	0,026
-687,583	-200,000	-0,011	-0,149
-686,568	-200,000	0,000	-0,081
-685,554	-156,984	-0,153	0,007
-684,539	687,198	0,012	-0,024
-683,524	-200,000	-0,014	0,055
-682,510	-172,353	-0,038	-0,001
-681,495	255,737	-0,105	-0,133
-680,481	800,000	-0,047	-0,103
-679,466	370,782	0,062	-0,092
-678,451	-155,752	0,117	0,005
-677,437	800,000	0,013	0,032
-676,422	774,132	0,056	-0,113
-675,408	-139,800	-0,111	-0,009
-674,393	-169,932	-0,168	-0,004
-673,378	465,408	-0,060	0,100
-672,364	-200,000	-0,004	0,023
-671,349	-67,330	-0,089	-0,026
-670,335	24,674	0,061	-0,037
-669,320	362,733	0,063	0,093
-668,305	-162,650	-0,137	-0,005
-667,291	-200,000	-0,016	0,056
-666,276	-89,414	0,052	0,011
-665,262	618,238	-0,075	-0,139
-664,247	-5,202	0,097	-0,049
-663,232	18,586	0,094	0,055
-662,218	-200,000	-0,008	0,054
-661,203	57,333	0,033	0,024
-660,189	-200,000	-0,002	0,092
-659,174	7,725	-0,021	0,011
-658,159	-15,135	-0,215	-0,101
-657,145	191,463	-0,070	-0,078
-656,130	674,347	0,045	-0,085
-655,116	-200,000	-0,004	0,024
-654,101	231,637	-0,057	-0,069
-653,086	-200,000	-0,002	0,047
-652,072	296,930	-0,078	-0,105
-651,057	-200,000	-0,018	-0,160
-650,043	-135,868	-0,056	-0,005
-649,028	-200,000	0,018	-0,100
-648,014	-120,654	-0,067	-0,008
-646,999	-53,444	-0,056	0,019
-645,984	71,839	-0,072	0,055
-644,970	-200,000	0,005	-0,118
-643,955	309,712	-0,059	-0,081
-642,941	800,000	-0,038	-0,095
-641,926	-112,078	-0,054	0,008
-640,911	-91,746	0,163	-0,034
-639,897	109,234	0,205	0,180
-638,882	6,374	0,098	-0,053
-637,868	369,360	-0,033	-0,049
-636,853	592,082	-0,047	-0,086
-635,838	-200,000	0,009	-0,114
-634,824	800,000	-0,017	-0,034
-633,809	171,464	0,130	-0,137
-632,795	-39,164	0,082	0,032
-631,780	-158,232	-0,054	0,002
-630,765	16,089	-0,147	-0,085
-629,751	420,778	0,023	0,037
-628,736	-200,000	-0,017	-0,088
-627,722	-200,000	-0,013	-0,105
-626,707	118,513	0,058	-0,053
-625,692	157,660	0,048	0,049
-624,678	800,000	0,032	0,091
-623,663	-200,000	-0,018	-0,064
-622,649	524,573	0,024	0,041
-621,634	-107,055	-0,137	-0,022
-620,619	-6,345	0,071	0,036
-619,605	-200,000	0,014	0,078
-618,590	800,000	0,029	0,086
-617,576	-76,556	-0,054	-0,014
-616,561	59,284	0,089	0,064
-615,546	-70,375	-0,055	0,015
-614,532	254,421	-0,095	-0,120
-613,517	-200,000	-0,003	0,090
-612,503	277,859	-0,088	-0,115
-611,488	87,923	0,053	-0,043
-610,474	-200,000	-0,012	0,047
-609,459	-200,000	0,077	0,000
-608,444	-35,060	-0,016	-0,006
-607,430	-46,911	0,027	-0,010
-606,415	-85,057	-0,093	-0,021
-605,401	51,558	0,143	-0,099
-604,386	-200,000	0,022	0,076
-603,371	118,383	0,133	-0,120
-602,357	800,000	-0,041	-0,100
-601,342	77,066	0,021	-0,016
-600,328	-86,775	-0,087	0,019
-599,313	-200,000	-0,015	-0,146
-598,298	-45,705	0,179	0,065
-597,284	154,587	-0,079	0,079
-596,269	669,816	-0,071	0,136
-595,255	-200,000	-0,011	0,062
-594,240	-200,000	0,011	-0,075
-593,225	-8,314	-0,123	-0,060
-592,211	190,949	-0,143	-0,158
-591,196	-200,000	0,003	0,028
-590,182	-200,000	-0,027	0,114
-589,167	-200,000	0,009	0,039
-588,152	462,647	0,013	-0,022
-587,138	-11,775	-0,066	0,032
-586,123	334,398	-0,095	-0,136
-585,109	-109,791	-0,177	-0,027
-584,094	-70,134	-0,033	0,009
-583,079	88,977	0,113	0,092
-582,065	36,456	0,133	-0,086
-581,050	218,239	-0,108	-0,127
-580,036	60,641	0,046	-0,033
-579,021	800,000	-0,013	-0,034
-578,006	-94,713	-0,074	-0,014
-576,992	-200,000	0,012	-0,056
-575,977	-200,000	0,016	0,135
-574,963	-200,000	0,011	0,039
-573,948	119,115	-0,090	-0,082
-572,934	-71,143	-0,273	0,075
-571,919	800,000	-0,022	0,046
-570,904	158,044	0,018	0,018
-569,890	-200,000	-0,019	-0,068
-568,875	800,000	-0,036	-0,108
-567,861	-34,906	0,071	0,028
-566,846	201,154	-0,047	0,054
-565,831	800,000	-0,017	0,046
-564,817	800,000	-0,013	-0,032
-563,802	62,616	-0,091	0,066
-562,788	221,554	-0,049	-0,058
-561,773	490,761	-0,043	-0,072
-560,758	-200,000	-0,007	0,085
-559,744	-133,202	0,115	-0,010
-558,729	800,000	0,051	-0,129
-557,715	-43,825	0,170	0,062
-556,700	-200,000	0,011	0,066
-555,685	-106,163	-0,104	-0,017
-554,671	-141,430	-0,102	-0,007
-553,656	-147,732	-0,010	0,001
-552,642	-138,437	-0,118	0,009
-551,627	370,945	-0,037	-0,055
-550,612	663,392	0,016	-0,031
-549,598	210,884	-0,009	0,010
-548,583	-200,000	0,024	-0,119
-547,569	-200,000	-0,010	-0,161
-546,554	248,585	-0,023	0,028
-545,539	-200,000	-0,014	0,183
-544,525	-200,000	0,007	-0,029
-543,510	261,998	0,024	0,030
-542,496	-113,550	-0,031	-0,004
-541,481	-200,000	-0,002	-0,047
-540,466	-200,000	0,002	0,033
-539,452	-200,000	0,025	0,139
-538,437	-200,000	0,010	0,133
-537,423	201,984	-0,020	-0,023
-536,408	1,633	-0,049	0,026
-535,393	-200,000	0,001	-0,072
-534,379	-93,866	0,095	-0,019
-533,364	-200,000	-0,001	-0,034
-532,350	42,029	-0,069	-0,046
-531,335	-93,937	0,081	-0,016
-530,321	134,238	-0,043	0,040
-529,306	-120,403	-0,017	0,002
-528,291	-108,318	0,019	0,003
-527,277	-7,446	0,154	0,076
-526,262	-10,336	0,068	0,033
-525,248	-200,000	0,015	0,085
-524,233	-161,782	-0,024	-0,001
-523,218	-48,249	-0,039	-0,014
-522,204	-117,236	0,054	-0,007
-521,189	-200,000	0,002	-0,089
-520,175	86,288	-0,128	-0,103
-519,160	-152,069	-0,089	-0,005
-518,145	-200,000	0,006	-0,122
-517,131	800,000	-0,049	0,100
-516,116	800,000	0,099	0,229
-515,102	81,613	0,068	0,054
-514,087	43,293	0,052	0,035
-513,072	800,000	-0,045	-0,143
-512,058	497,971	-0,023	-0,039
-511,043	559,728	-0,024	0,043
-510,029	719,865	-0,011	0,022
-509,014	-200,000	0,010	-0,034
-507,999	-200,000	0,006	0,041
-506,985	31,545	-0,182	0,114
-505,970	82,154	-0,096	-0,076
-504,956	150,355	-0,028	0,028
-503,941	800,000	0,047	-0,110
-502,926	-200,000	-0,004	0,098
-501,912	294,578	0,074	0,098
-500,897	-63,751	-0,107	-0,032
-499,883	73,051	-0,120	-0,091
-498,868	201,151	-0,028	0,032
-497,853	74,397	0,098	-0,075
-496,839	-43,538	0,118	-0,043
-495,824	30,551	0,081	0,051
-494,810	800,000	-0,040	-0,090
-493,795	163,824	0,040	0,041
-492,781	800,000	0,037	0,093
-491,766	210,243	0,073	-0,084
-490,751	25,756	-0,067	-0,040
-489,737	104,072	0,076	0,065
-488,722	-200,000	0,009	0,056
-487,708	-68,720	0,114	0,032
-486,693	131,381	-0,044	0,041
-485,678	-200,000	0,000	-0,008
-484,664	800,000	0,051	0,135
-483,649	-200,000	-0,003	-0,029
-482,635	89,896	-0,141	-0,115
-481,620	-44,036	0,049	-0,018
-480,605	-12,947	-0,077	0,036
-479,591	321,701	-0,069	0,096
-478,576	-157,817	0,020	0,001
-477,562	490,577	0,064	-0,106
-476,547	-107,945	-0,068	-0,011
-475,532	-200,000	0,114	0,000
-474,518	-25,994	0,040	0,017
-473,503	-200,000	0,031	-0,119
-472,489	-166,675	0,059	-0,002
-471,474	-93,727	-0,015	0,003
-470,459	-200,000	0,032	0,170
-469,445	-200,000	0,016	0,102
-468,430	80,468	0,074	0,058
-467,416	800,000	0,067	0,189
-466,401	800,000	0,031	-0,093
-465,386	-200,000	0,004	-0,044
-464,372	800,000	0,051	0,116
-463,357	23,684	0,157	0,094
-462,343	-200,000	0,008	-0,058
-461,328	800,000	0,011	-0,027
-460,313	6,443	0,110	-0,059
-459,299	7,340	0,074	0,040
-458,284	-26,068	0,091	0,039
-457,270	130,632	0,074	0,069
-456,255	-110,762	-0,046	-0,007
-455,241	-200,000	-0,007	-0,030
-454,226	-128,008	-0,107	-0,011
-453,211	-200,000	-0,032	0,124
-452,197	34,881	0,101	0,065
-451,182	-39,438	-0,053	-0,020
-450,168	-200,000	0,002	-0,046
-449,153	168,042	-0,024	-0,025
-448,138	467,504	-0,018	-0,030
-447,124	28,583	0,142	0,087
-446,109	-67,090	0,126	-0,036
-445,095	-120,101	0,089	0,011
-444,080	-200,000	0,170	0,001
-443,065	800,000	0,011	0,030
-442,051	800,000	0,028	-0,069
-441,036	-200,000	-0,023	-0,188
-440,022	259,921	-0,051	-0,064
-439,007	33,747	-0,077	-0,049
-437,992	-200,000	0,027	-0,114
-436,978	188,240	0,055	-0,059
-435,963	-200,000	-0,008	0,141
-434,949	-54,197	-0,128	0,042
-433,934	-151,009	-0,172	-0,009
-432,919	-167,050	-0,152	0,004
-431,905	-120,899	0,082	-0,010
-430,890	800,000	0,020	0,052
-429,876	-70,718	-0,084	-0,023
-428,861	-200,000	-0,001	0,036
-427,846	-114,061	-0,056	-0,008
-426,832	-24,935	-0,094	0,040
-425,817	-200,000	0,024	-0,168
-424,803	17,817	-0,136	-0,079
-423,788	-104,467	0,118	-0,020
-422,773	-116,311	-0,154	0,021
-421,759	236,901	0,027	0,032
-420,744	-1,121	0,152	-0,078
-419,730	270,383	-0,054	-0,069
-418,715	-200,000	-0,030	-0,112
-417,701	-51,315	-0,065	0,022
-416,686	-148,617	-0,181	0,011
-415,671	309,382	0,067	-0,091
-414,657	-140,815	0,056	0,004
-413,642	170,625	-0,123	-0,128
-412,628	501,891	-0,045	-0,076
-411,613	-200,000	-0,003	0,107
-410,598	-44,050	-0,103	-0,037
-409,584	347,729	-0,012	-0,018
-408,569	313,681	-0,074	0,101
-407,555	121,333	0,100	0,090
-406,540	800,000	0,025	-0,058
-405,525	199,857	0,103	-0,116
-404,511	-67,528	-0,104	-0,029
-403,496	712,468	-0,053	0,103
-402,482	166,340	0,067	-0,069
-401,467	-200,000	0,046	0,161
-400,452	13,219	-0,041	-0,023
-399,438	689,570	0,025	0,048
-398,423	-200,000	0,001	-0,015
-397,409	134,166	-0,084	-0,079
-396,394	-200,000	-0,021	-0,073
-395,379	-90,565	-0,068	0,014
-394,365	193,372	0,082	-0,090
-393,350	800,000	-0,021	-0,043
-392,336	66,564	0,053	-0,039
-391,321	800,000	-0,042	-0,089
-390,306	295,029	0,046	-0,062
-389,292	157,579	-0,064	-0,064
-388,277	-153,347	0,113	-0,006
-387,263	-111,224	-0,075	-0,011
-386,248	-67,893	0,195	0,055
-385,233	23,225	-0,022	0,013
-384,219	100,212	0,135	0,114
-383,204	130,056	-0,028	0,026
-382,190	-200,000	0,009	-0,053
-381,175	-200,000	0,003	0,025
-380,160	-200,000	-0,001	0,100
-379,146	55,197	0,091	0,064
-378,131	211,181	0,067	-0,076
-377,117	-129,755	-0,040	-0,004
-376,102	52,347	-0,076	-0,052
-375,088	189,114	-0,059	0,064
-374,073	-45,514	-0,075	0,027
-373,058	141,361	0,088	-0,085
-372,044	452,899	0,056	0,090
-371,029	34,770	-0,079	0,050
-370,015	800,000	0,027	-0,056
-369,000	-200,000	-0,013	-0,106
-367,985	800,000	-0,039	0,107
-366,971	-130,105	0,055	-0,005
-365,956	172,910	-0,026	0,027
-364,942	34,919	0,178	0,113
-363,927	159,524	-0,068	-0,069
-362,912	194,194	-0,047	0,051
-361,898	800,000	0,030	0,079
-360,883	-200,000	-0,003	-0,109
-359,869	-200,000	-0,016	-0,056
-358,854	800,000	0,053	0,123
-357,839	-200,000	0,027	0,093
-356,825	-95,197	0,019	0,004
-355,810	-16,935	0,051	0,023
-354,796	-200,000	-0,008	0,037
-353,781	-119,870	-0,030	0,004
-352,766	48,844	-0,063	0,043
-351,752	336,523	-0,082	0,115
-350,737	-144,476	-0,034	0,002
-349,723	245,497	0,063	0,077
-348,708	800,000	0,037	0,084
-347,693	483,332	-0,014	-0,024
-346,679	225,252	0,016	0,019
-345,664	607,848	0,050	0,092
-344,650	-200,000	-0,034	-0,215
-343,635	92,320	-0,034	0,028
-342,620	792,253	0,065	0,131
-341,606	-200,000	-0,019	0,111
-340,591	221,038	-0,089	0,104
-339,577	13,540	-0,112	-0,063
-338,562	-70,804	-0,094	0,026
-337,548	-200,000	-0,001	0,070
-336,533	800,000	0,021	0,064
-335,518	800,000	0,038	-0,082
-334,504	-200,000	0,003	0,009
-333,489	-200,000	0,029	-0,119
-332,475	-114,480	-0,071	0,010
-331,460	-200,000	-0,012	-0,049
-330,445	38,788	-0,014	-0,009
-329,431	-194,362	0,133	-0,001
-328,416	-42,030	0,040	-0,015
-327,402	800,000	-0,023	0,051
-326,387	-74,371	-0,063	0,016
-325,372	-119,677	0,153	0,019
-324,358	31,402	-0,077	0,048
-323,343	-200,000	-0,024	-0,131
-322,329	384,619	0,108	0,162
-321,314	-200,000	-0,005	0,214
-320,299	800,000	-0,029	0,084
-319,285	-200,000	-0,035	0,113
-318,270	62,166	-0,044	0,032
-317,256	800,000	0,032	0,091
-316,241	-56,238	-0,076	-0,024
-315,226	86,324	0,076	-0,060
-314,212	182,111	0,003	0,003
-313,197	136,286	0,122	0,115
-312,183	-200,000	0,004	0,111
-311,168	384,469	0,066	-0,100
-310,153	45,317	-0,176	-0,117
-309,139	127,380	0,049	0,045
-308,124	-200,000	-0,003	-0,048
-307,110	800,000	0,015	-0,043
-306,095	800,000	0,020	-0,052
-305,080	-128,627	-0,062	0,006
-304,066	73,365	-0,072	-0,055
-303,051	-200,000	-0,016	-0,154
-302,037	-83,732	-0,051	-0,012
-301,022	-200,000	-0,000	-0,024
-300,008	248,426	0,129	0,158
-298,993	-200,000	-0,023	0,166
-297,978	14,046	0,085	-0,048
-296,964	1,001	0,053	0,028
-295,949	800,000	0,020	-0,046
-294,935	647,418	-0,046	-0,085
-293,920	478,264	-0,036	0,059
-292,905	691,318	0,053	0,100
-291,891	-82,034	-0,049	-0,012
-290,876	-200,000	0,011	0,132
-289,862	-35,877	0,079	-0,031
-288,847	800,000	-0,075	-0,177
-287,832	-51,863	-0,101	-0,034
-286,818	-200,000	-0,001	-0,061
-285,803	800,000	0,021	0,053
-284,789	-19,409	0,129	-0,058
-283,774	112,996	0,052	0,045
-282,759	800,000	0,025	0,064
-281,745	303,416	-0,051	-0,068
-280,730	27,340	-0,053	-0,032
-279,716	-2,744	0,062	-0,031
-278,701	-200,000	0,001	-0,064
-277,686	-200,000	-0,000	-0,066
-276,672	-87,302	0,124	0,027
-275,657	64,248	0,069	0,050
-274,643	9,914	-0,156	0,086
-273,628	800,000	-0,028	-0,087
-272,613	-200,000	-0,019	0,065
-271,599	506,988	-0,034	0,057
-270,584	-200,000	0,006	0,036
-269,570	466,802	-0,063	0,103
-268,555	-69,218	0,150	0,042
-267,540	-200,000	0,004	-0,056
-266,526	-20,439	-0,231	-0,102
-265,511	-101,702	-0,096	0,017
-264,497	-200,000	0,014	0,122
-263,482	-148,629	0,029	0,002
-262,467	-157,996	0,101	0,004
-261,453	27,298	0,099	-0,060
-260,438	-60,921	-0,154	0,047
-259,424	172,790	-0,062	-0,064
-258,409	486,569	0,020	0,033
-257,395	-200,000	0,011	0,059
-256,380	800,000	0,035	-0,083
-255,365	302,189	0,032	-0,043
-254,351	-71,378	-0,086	0,023
-253,336	-200,000	-0,012	-0,088
-252,322	-200,000	-0,002	0,094
-251,307	-200,000	0,002	-0,079
-250,292	-71,990	0,047	-0,013
-249,278	-200,000	-0,004	0,088
-248,263	-200,000	0,011	0,246
-247,249	800,000	-0,049	0,106
-246,234	-200,000	0,013	0,122
-245,219	-106,063	0,042	0,007
-244,205	-200,000	0,003	-0,033
-243,190	4,867	-0,122	0,065
-242,176	-200,000	-0,010	-0,112
-241,161	-23,894	0,063	-0,027
-240,146	800,000	-0,021	0,065
-239,132	789,294	-0,030	-0,061
-238,117	-153,831	-0,195	0,010
-237,103	800,000	0,020	0,060
-236,088	-200,000	0,026	0,120
-235,073	-119,503	0,123	-0,015
-234,059	35,225	-0,077	-0,048
-233,044	-200,000	-0,015	-0,128
-232,030	413,200	-0,098	0,150
-231,015	312,154	0,026	-0,035
-230,000	800,000	-0,037	-0,074
-228,986	-112,811	-0,108	0,015
-227,971	-200,000	0,012	-0,107
-226,957	-49,901	-0,012	0,004
-225,942	219,415	-0,052	0,061
-224,927	-128,600	-0,087	-0,009
-223,913	800,000	0,052	-0,133
-222,898	116,767	-0,060	-0,053
-221,884	-200,000	0,014	-0,078
-220,869	-161,402	0,107	-0,004
-219,855	163,544	-0,093	0,095
-218,840	-154,922	-0,056	-0,003
-217,825	44,955	0,062	0,041
-216,811	197,147	-0,006	0,007
-215,796	17,682	-0,123	-0,071
-214,782	-2,656	-0,071	0,036
-213,767	-109,376	0,114	-0,017
-212,752	23,518	0,072	0,043
-211,738	-59,374	0,051	0,016
-210,723	-200,000	0,008	0,128
-209,709	154,599	0,063	-0,062
-208,694	-200,000	-0,008	-0,075
-207,679	-200,000	-0,023	-0,124
-206,665	85,567	-0,036	-0,028
-205,650	75,139	0,004	-0,003
-204,636	-200,000	0,016	-0,086
-203,621	279,689	0,080	0,104
-202,606	696,690	0,058	0,111
-201,592	-111,066	-0,083	0,012
-200,577	146,364	-0,105	-0,102
-199,563	202,303	0,050	0,056
-198,548	210,023	0,064	0,073
-197,533	-91,179	0,066	-0,013
-196,519	63,238	0,127	0,091
-195,504	-29,415	-0,163	-0,067
-194,490	-90,112	-0,024	-0,005
-193,475	-200,000	-0,001	-0,066
-192,460	199,313	-0,093	-0,103
-191,446	-200,000	-0,046	-0,172
-190,431	-200,000	0,029	-0,153
-189,417	-6,450	-0,009	-0,004
-188,402	-67,161	-0,045	0,013
-187,387	-200,000	0,006	-0,028
-186,373	8,054	0,150	0,081
-185,358	-200,000	0,007	-0,060
-184,344	111,617	0,103	0,090
-183,329	26,890	-0,063	0,038
-182,315	-102,718	0,107	-0,018
-181,300	-200,000	0,006	-0,055
-180,285	-131,881	0,150	0,014
-179,271	-73,060	0,058	-0,015
-178,256	266,726	0,058	-0,074
-177,242	800,000	-0,045	-0,092
-176,227	-0,780	0,159	0,081
-175,212	-80,600	0,138	0,033
-174,198	36,969	0,090	0,057
-173,183	-200,000	-0,033	-0,156
-172,169	-200,000	-0,012	-0,122
-171,154	800,000	0,037	0,097
-170,139	16,951	0,074	-0,042
-169,125	-13,811	-0,017	0,008
-168,110	-200,000	-0,038	0,152
-167,096	-200,000	-0,047	0,153
-166,081	16,832	0,097	-0,055
-165,066	173,562	0,049	-0,051
-164,052	-183,174	-0,019	-0,000
-163,037	98,425	0,143	0,119
-162,023	-152,094	0,092	0,005
-161,008	11,854	-0,093	-0,051
-159,993	-200,000	-0,011	0,065
-158,979	-32,979	-0,036	-0,014
-157,964	188,532	-0,025	-0,027
-156,950	-77,241	-0,040	-0,010
-155,935	-76,880	-0,045	-0,011
-154,920	-190,326	0,099	0,001
-153,906	92,519	-0,091	0,074
-152,891	388,806	-0,039	0,058
-151,877	212,722	-0,063	-0,071
-150,862	22,228	-0,070	0,041
-149,847	-17,174	-0,034	0,016
-148,833	606,113	0,009	-0,016
-147,818	559,686	0,018	-0,031
-146,804	-35,742	0,029	0,011
-145,789	-200,000	0,010	0,147
-144,775	800,000	0,079	0,180
-143,760	-132,662	-0,044	-0,004
-142,745	800,000	-0,017	-0,046
-141,731	-18,461	-0,095	-0,042
-140,716	800,000	-0,035	0,107
-139,702	-200,000	0,019	0,097
-138,687	202,164	0,080	0,088
-137,672	-102,249	0,075	-0,013
-136,658	800,000	-0,025	-0,057
-135,643	403,033	0,017	0,026
-134,629	269,697	-0,035	0,044
-133,614	-119,505	0,127	-0,016
-132,599	-200,000	-0,012	0,065
-131,585	-200,000	0,006	-0,037
-130,570	-19,239	0,036	0,016
-129,556	-200,000	-0,009	0,032
-128,541	-43,868	-0,105	-0,038
-127,526	385,977	-0,048	0,071
-126,512	772,029	0,062	-0,123
-125,497	46,197	0,065	0,043
-124,483	-200,000	0,004	0,030
-123,468	112,641	0,066	0,057
-122,453	87,088	0,019	0,015
-121,439	188,969	0,062	-0,067
-120,424	120,213	-0,052	0,046
-119,410	-171,432	0,093	-0,002
-118,395	-41,071	0,077	-0,028
-117,380	-200,000	0,041	-0,199
-116,366	-200,000	0,001	-0,010
-115,351	321,592	-0,069	-0,095
-114,337	800,000	-0,006	0,012
-113,322	362,435	0,075	0,108
-112,307	-18,424	0,112	-0,050
-111,293	349,214	-0,058	0,083
-110,278	150,836	-0,038	0,037
-109,264	-200,000	0,026	0,088
-108,249	-24,849	0,095	-0,040
-107,234	494,983	-0,050	-0,083
-106,220	379,199	0,019	0,029
-105,205	800,000	0,047	0,109
-104,191	-26,036	-0,130	-0,055
-103,176	-200,000	-0,014	-0,114
-102,162	-160,389	0,148	0,006
-101,147	-117,554	0,059	-0,008
-100,132	187,623	0,024	0,026
-99,118	-200,000	-0,023	-0,127
-98,103	-66,071	0,038	-0,011
-97,089	1,895	-0,115	0,059
-96,074	-4,775	0,077	-0,038
-95,059	-200,000	0,013	0,063
-94,045	81,875	0,113	0,088
-93,030	261,384	-0,107	-0,133
-92,016	394,340	0,017	-0,026
-91,001	80,255	0,086	-0,066
-89,986	-176,834	0,030	-0,001
-88,972	2,324	-0,038	-0,019
-87,957	241,758	0,041	-0,050
-86,943	318,718	0,107	0,146
-85,928	800,000	-0,012	-0,027
-84,913	-200,000	0,023	-0,079
-83,899	-200,000	-0,023	-0,093
-82,884	249,491	0,087	0,107
-81,870	423,317	-0,021	0,033
-80,855	-134,223	0,042	0,004
-79,840	800,000	0,005	0,015
-78,826	22,556	-0,081	0,048
-77,811	55,534	0,045	-0,032
-76,797	800,000	0,027	0,076
-75,782	82,336	-0,044	0,034
-74,767	-200,000	0,001	0,254
-73,753	-200,000	0,023	0,112
-72,738	-12,986	0,049	0,023
-71,724	343,888	-0,062	-0,087
-70,709	-200,000	-0,020	0,064
-69,694	150,767	0,039	-0,038
-68,680	800,000	0,073	0,167
-67,665	72,361	0,056	0,042
-66,651	352,050	0,087	0,124
-65,636	-200,000	0,022	-0,156
-64,622	338,285	-0,024	0,034
-63,607	800,000	-0,040	0,086
-62,592	-200,000	0,011	-0,168
-61,578	-200,000	0,008	-0,198
-60,563	-200,000	-0,021	0,117
-59,549	77,557	0,060	0,046
-58,534	21,042	-2,003	-1,163
-57,519	800,000	-0,311	-0,829
-56,505	-200,000	-1,267	-5,039
-55,490	87,836	0,781	0,621
-54,476	800,000	5,375	12,152
-53,461	-200,000	17,677	288,288
-52,446	800,000	729,159	2231,177
-51,432	538,057	1645,450	2817,263
-50,417	109,456	1635,714	1405,577
-49,403	75,371	1287,141	973,508
-48,388	31,765	1027,225	633,001
-47,373	20,113	988,995	571,038
-46,359	18,336	976,834	558,169
-45,344	15,384	972,771	546,172
-44,330	15,602	971,151	545,955
-43,315	15,073	969,314	543,174
-42,300	14,984	968,331	542,312
-41,286	14,971	967,460	541,760
-40,271	15,007	966,468	541,301
-39,257	15,033	965,460	540,798
-38,242	14,988	964,760	540,240
-37,227	15,041	963,787	539,844
-36,213	15,040	962,910	539,329
-35,198	14,957	961,876	538,459
-34,184	15,085	961,146	538,445
-33,169	15,037	960,250	537,763
-32,154	15,046	959,418	537,306
-31,140	15,016	958,335	536,583
-30,125	15,096	957,717	536,473
-29,111	15,039	956,863	535,790
-28,096	15,032	956,242	535,399
-27,082	15,086	955,410	535,084
-26,067	15,039	954,802	534,573
-25,052	15,024	954,118	534,119
-24,038	14,979	953,565	533,643
-23,023	14,996	952,898	533,305
-22,009	15,075	952,144	533,115
-20,994	15,057	951,490	532,670
-19,979	15,099	950,751	532,368
-18,965	15,075	950,129	531,922
-17,950	15,074	949,551	531,575
-16,936	14,976	948,921	530,887
-15,921	14,968	948,263	530,473
-14,906	14,849	947,702	529,759
-13,892	14,876	946,997	529,431
-12,877	14,868	946,282	528,983
-11,863	14,927	945,464	528,692
-10,848	14,935	945,214	528,559
-9,833	15,061	944,503	528,539
-8,819	14,991	944,036	528,035
-7,804	14,997	943,354	527,650
-6,790	14,920	943,025	527,201
-5,775	14,983	942,253	526,949
-4,760	14,939	941,567	526,405
-3,746	14,886	941,141	525,978
-2,731	14,830	940,113	525,207
-1,717	14,756	939,636	524,686
-0,702	14,837	938,856	524,486
0,313	14,622	938,142	524,199
1,327	17,807	936,237	533,115
2,342	26,654	792,748	474,810
3,356	23,502	457,322	269,082
4,371	-3,535	313,581	155,843
5,386	-7,601	295,455	142,718
6,400	-9,296	289,290	138,050
7,415	-9,872	286,899	136,332
8,429	-10,223	285,411	135,270
9,444	-10,261	284,517	134,797
10,459	-10,283	284,067	134,550
11,473	-10,191	283,267	134,249
12,488	-10,019	282,902	134,229
13,502	-10,152	282,185	133,750
14,517	-10,203	281,862	133,535
15,531	-10,266	281,344	133,217
16,546	-10,254	280,958	133,034
17,561	-10,248	280,451	132,788
18,575	-10,068	280,207	132,833
19,590	-10,206	279,815	132,503
20,604	-10,139	279,621	132,464
21,619	-10,226	279,206	132,173
22,634	-10,093	278,747	132,070
23,648	-10,214	278,433	131,794
24,663	-10,278	278,375	131,695
25,677	-10,352	278,007	131,439
26,692	-10,335	277,850	131,369
27,707	-10,171	277,499	131,347
28,721	-10,225	277,179	131,132
29,736	-10,186	276,952	131,049
30,750	-10,373	276,794	130,787
31,765	-10,182	276,217	130,682
32,780	-10,063	276,078	130,717
33,794	-10,193	275,924	130,510
34,809	-10,174	275,609	130,367
35,823	-10,126	275,246	130,229
36,838	-10,246	275,173	130,070
37,853	-10,350	274,849	129,807
38,867	-10,345	274,624	129,695
39,882	-10,286	274,556	129,706
40,896	-10,336	274,167	129,464
41,911	-10,280	273,963	129,409
42,926	-10,118	273,535	129,346
43,940	-10,245	273,393	129,149
44,955	-10,422	273,159	128,862
45,969	-10,568	273,017	128,647
46,984	-10,335	272,754	128,729
47,999	-10,777	272,483	128,179
49,013	-10,762	272,246	128,070
50,028	-10,819	271,847	127,818
51,042	-10,930	271,637	127,605
52,057	-10,976	271,505	127,489
53,071	-10,910	271,300	127,443
54,086	-11,019	271,180	127,274
55,101	-10,735	270,979	127,430
56,115	-10,422	270,774	127,611
57,130	-10,168	270,628	127,765
58,144	-10,073	270,451	127,758
59,159	-10,154	270,216	127,561
60,174	-10,059	269,867	127,472
61,188	-10,110	269,817	127,390
62,203	-10,156	269,620	127,244
63,217	-10,242	269,320	127,012
64,232	-10,031	269,028	127,056
65,247	-10,112	268,894	126,908
66,261	-10,127	268,639	126,762
67,276	-10,300	268,310	126,437
68,290	-10,540	268,035	126,078
69,305	-10,422	267,783	126,056
70,320	-10,500	267,726	125,947
71,334	-10,233	267,551	126,096
72,349	-10,015	267,105	126,072
73,363	-10,019	266,903	125,963
74,378	-10,092	266,710	125,794
75,393	-10,125	266,629	125,714
76,407	-10,181	266,553	125,617
77,422	-10,242	266,318	125,440
78,436	-9,936	265,859	125,489
79,451	-10,034	265,800	125,362
80,466	-10,243	265,441	124,992
81,480	-10,129	265,076	124,912
82,495	-10,449	265,161	124,653
83,509	-10,065	264,811	124,822
84,524	-10,214	264,532	124,546
85,539	-10,360	264,251	124,272
86,553	-10,540	264,204	124,076
87,568	-10,378	264,105	124,165
88,582	-10,375	263,560	123,900
89,597	-10,477	263,584	123,808
90,611	-10,466	263,567	123,799
91,626	-10,037	263,403	124,096
92,641	-10,137	263,076	123,840
93,655	-10,241	262,966	123,685
94,670	-10,096	262,620	123,641
95,684	-10,158	262,395	123,468
96,699	-10,077	262,212	123,443
97,714	-10,147	261,969	123,256
98,728	-10,241	261,899	123,128
99,743	-10,472	261,519	122,733
100,757	-10,509	261,410	122,639
101,772	-10,377	261,143	122,619
102,787	-10,103	261,007	122,787
103,801	-10,241	260,782	122,549
104,816	-10,027	260,570	122,627
105,830	-10,147	260,626	122,536
106,845	-10,082	260,476	122,512
107,860	-9,981	260,108	122,417
108,874	-10,147	259,983	122,201
109,889	-10,076	259,691	122,116
110,903	-10,320	259,511	121,805
111,918	-10,216	259,305	121,789
112,933	-10,015	259,062	121,841
113,947	-10,022	258,936	121,764
114,962	-10,173	258,773	121,545
115,976	-10,249	258,534	121,355
116,991	-10,162	258,375	121,346
118,006	-10,201	258,340	121,284
119,020	-10,189	258,161	121,200
120,035	-9,991	258,033	121,302
121,049	-9,976	257,717	121,156
122,064	-10,053	257,614	121,029
123,079	-10,007	257,278	120,901
124,093	-10,209	257,085	120,624
125,108	-10,408	256,907	120,356
126,122	-10,621	256,718	120,072
127,137	-10,687	256,548	119,924
128,151	-10,554	256,200	119,866
129,166	-10,406	256,101	119,937
130,181	-10,347	255,784	119,829
131,195	-10,525	255,700	119,625
132,210	-10,351	255,593	119,715
133,224	-10,147	255,328	119,756
134,239	-10,045	255,253	119,798
135,254	-10,114	255,028	119,623
136,268	-10,009	254,872	119,630
137,283	-10,355	254,574	119,181
138,297	-10,583	254,260	118,827
139,312	-10,522	253,955	118,726
140,327	-10,496	254,010	118,764
141,341	-9,974	253,971	119,183
142,356	-10,059	253,854	119,045
143,370	-9,828	253,383	119,012
144,385	-9,819	253,324	118,981
145,400	-9,988	253,183	118,760
146,414	-10,000	253,008	118,656
147,429	-9,976	252,823	118,580
148,443	-10,054	252,551	118,375
149,458	-9,803	252,328	118,474
150,473	-9,861	252,339	118,419
151,487	-10,020	252,014	118,120
152,502	-9,897	251,835	118,131
153,516	-10,093	251,783	117,929
154,531	-9,941	251,554	117,941
155,546	-9,970	251,475	117,868
156,560	-9,968	251,162	117,713
157,575	-10,164	250,935	117,430
158,589	-10,077	250,738	117,401
159,604	-10,082	250,602	117,323
160,619	-10,022	250,427	117,281
161,633	-10,150	250,232	117,071
162,648	-9,829	250,096	117,267
163,662	-9,944	249,990	117,111
164,677	-10,098	249,860	116,909
165,692	-10,087	249,700	116,833
166,706	-9,949	249,570	116,878
167,721	-9,943	249,285	116,740
168,735	-9,895	248,981	116,627
169,750	-9,842	248,923	116,634
170,764	-10,009	248,756	116,405
171,779	-9,998	248,650	116,355
172,794	-9,856	248,569	116,426
173,808	-9,921	248,236	116,205
174,823	-10,243	247,955	115,793
175,837	-10,552	247,788	115,447
176,852	-10,032	247,870	115,910
177,867	-9,872	247,589	115,901
178,881	-9,736	247,344	115,890
179,896	-9,850	247,277	115,752
180,910	-9,741	247,061	115,732
181,925	-9,731	246,982	115,693
182,940	-9,965	246,703	115,358
183,954	-9,724	246,474	115,440
184,969	-9,792	246,447	115,361
185,983	-9,875	246,186	115,159
186,998	-9,939	246,119	115,064
188,013	-9,750	245,933	115,124
189,027	-9,659	245,556	115,013
190,042	-9,886	245,516	114,796
191,056	-9,846	245,409	114,769
192,071	-9,821	245,254	114,707
193,086	-9,855	245,089	114,591
194,100	-9,645	244,791	114,614
195,115	-9,860	244,748	114,407
196,129	-9,773	244,552	114,377
197,144	-9,909	244,337	114,155
198,159	-9,825	244,216	114,156
199,173	-9,853	243,885	113,969
200,188	-9,963	243,737	113,800
201,202	-10,324	243,630	113,443
202,217	-10,311	243,272	113,278
203,232	-10,114	242,944	113,276
204,246	-9,990	243,091	113,435
205,261	-9,492	242,984	113,782
206,275	-9,489	242,756	113,668
207,290	-4,944	244,776	118,339
208,304	1,888	246,759	124,932
209,319	3,971	247,246	126,887
210,334	4,140	247,177	126,980
211,348	4,335	246,957	127,016
212,363	4,152	247,001	126,877
213,377	4,167	246,824	126,787
214,392	4,049	246,529	126,527
215,407	4,299	246,308	126,607
216,421	4,324	246,149	126,535
217,436	4,500	246,008	126,595
218,450	4,264	245,898	126,334
219,465	4,132	245,670	126,098
220,480	3,920	245,391	125,770
221,494	3,801	245,273	125,601
222,509	3,765	245,263	125,555
223,523	3,815	245,030	125,466
224,538	3,857	244,861	125,402
225,553	3,780	244,503	125,145
226,567	3,684	244,458	125,032
227,582	3,789	244,317	125,034
228,596	3,722	244,310	124,965
229,611	3,651	243,878	124,676
230,626	3,687	243,763	124,635
231,640	3,624	243,722	124,551
232,655	3,699	243,531	124,504
233,669	3,707	243,307	124,385
234,684	3,695	243,161	124,290
235,699	3,759	243,256	124,378
236,713	3,870	242,846	124,248
237,728	3,838	242,725	124,149
238,742	3,522	242,572	123,804
239,757	3,689	242,282	123,779
240,772	3,698	242,271	123,771
241,786	3,796	242,051	123,726
242,801	3,658	241,986	123,570
243,815	3,612	241,835	123,445
244,830	3,805	241,757	123,550
245,844	3,789	241,484	123,386
246,859	3,667	241,362	123,216
247,874	3,677	241,203	123,131
248,888	3,930	240,998	123,218
249,903	4,090	240,857	123,263
250,917	3,949	240,791	123,105
251,932	3,950	240,561	122,978
252,947	3,977	240,381	122,896
253,961	3,718	240,191	122,581
254,976	3,718	240,068	122,508
255,990	3,833	239,906	122,506
257,005	3,492	239,775	122,157
258,020	3,616	239,692	122,202
259,034	3,840	239,405	122,223
260,049	3,674	239,242	121,997
261,063	3,613	239,110	121,870
262,078	3,681	238,926	121,820
263,093	3,991	238,840	122,011
264,107	4,005	238,733	121,956
265,122	3,802	238,606	121,719
266,136	3,819	238,535	121,686
267,151	4,033	238,220	121,684
268,166	3,793	238,055	121,399
269,180	3,873	237,958	121,401
270,195	4,059	237,736	121,424
271,209	4,088	237,592	121,363
272,224	3,746	237,370	120,969
273,239	3,846	237,295	120,999
274,253	3,624	237,137	120,733
275,268	3,654	236,932	120,642
276,282	3,785	236,811	120,672
277,297	3,856	236,534	120,576
278,312	3,510	236,439	120,245
279,326	3,505	236,412	120,217
280,341	3,697	236,298	120,299
281,355	3,542	236,138	120,086
282,370	3,628	235,980	120,061
283,384	3,706	235,818	120,030
284,399	3,840	235,540	119,982
285,414	3,818	235,505	119,936
286,428	3,679	235,269	119,697
287,443	3,514	235,239	119,542
288,457	3,660	235,186	119,618
289,472	3,856	234,916	119,623
290,487	3,777	234,801	119,492
291,501	3,521	234,590	119,175
292,516	3,553	234,310	119,047
293,530	3,501	234,317	119,000
294,545	3,853	234,220	119,213
295,560	3,888	234,028	119,132
296,574	3,789	233,870	118,964
297,589	3,922	233,810	119,026
298,603	3,983	233,573	118,942
299,618	3,933	233,590	118,901
300,633	4,117	233,328	118,899
301,647	4,012	233,297	118,792
302,662	4,119	233,005	118,715
303,676	3,940	232,987	118,558
304,691	4,082	232,724	118,522
305,706	4,011	232,614	118,401
306,720	3,990	232,540	118,336
307,735	3,708	232,188	117,930
308,749	3,818	232,067	117,943
309,764	3,507	231,938	117,628
310,779	3,758	231,624	117,651
311,793	3,692	231,593	117,574
312,808	3,598	231,444	117,415
313,822	3,650	231,361	117,403
314,837	3,670	231,186	117,319
315,852	3,577	231,123	117,205
316,866	3,797	230,957	117,279
317,881	3,934	230,692	117,239
318,895	3,900	230,615	117,163
319,910	3,758	230,440	116,955
320,925	3,937	230,223	116,971
321,939	3,836	230,296	116,921
322,954	3,980	230,176	116,959
323,968	4,001	229,901	116,824
324,983	3,895	229,834	116,699
325,997	4,047	229,534	116,653
327,012	3,823	229,521	116,465
328,027	3,976	229,441	116,530
329,041	4,203	229,386	116,664
330,056	4,353	229,299	116,723
331,070	4,390	229,066	116,622
332,085	4,059	228,843	116,248
333,100	3,969	228,617	116,054
334,114	3,949	228,541	115,991
335,129	4,031	228,384	115,962
336,143	4,146	228,202	115,946
337,158	4,099	228,115	115,857
338,173	4,044	227,867	115,678
339,187	3,931	227,771	115,535
340,202	3,824	227,747	115,431
341,216	3,960	227,379	115,337
342,231	3,806	227,327	115,185
343,246	3,756	227,196	115,071
344,260	3,789	227,114	115,044
345,275	4,002	226,985	115,128
346,289	3,869	226,767	114,908
347,304	3,978	226,601	114,894
348,319	3,850	226,428	114,701
349,333	3,390	226,194	114,229
350,348	3,521	226,004	114,221
351,362	3,287	225,869	113,968
352,377	3,139	225,581	113,703
353,392	3,237	225,489	113,719
354,406	3,203	225,201	113,538
355,421	196,009	1321,117	1399,165
356,435	157,111	1454,630	1399,154
