DTS Sentinel unit serial number:	SN410029Multiplexer serial number:	ORYXHardware model number:	OX2-SRSoftware version number:	ORYX F/W v4,00 Oryx Data Collector v3.7.2.0data status	okinstallation	B5 Nyhavnadifferential loss correction	single-endedforward channel	channel 2reverse channel	N/Adate	2023/12/14time	15:47:13forward acquisition time	300,00reverse acquisition time	0,00gamma	499,1914k internal	0,3157k external	0,3157temperature offset calibration	1,0000default loss term (dB/km)	0,3820temperature slope calibration	1,0000multiplexer offset coefficient	1,0000multiplexer slope coefficient	1,0000fibre end	0,00T internal ref (°C)	7,89T ext. ref 1 (°C)	-8,05T ext. ref 2 (°C)	-8,08length (m)	temperature (°C)	Stokes	anti-Stokes-744,400	-14,503	0,080	-0,038
-743,385	-66,051	-0,364	-0,106
-742,371	108,414	0,107	0,094
-741,356	-87,893	-0,410	-0,090
-740,342	-166,063	0,185	0,006
-739,327	-130,108	-0,469	-0,047
-738,312	-97,715	0,204	0,039
-737,298	28,729	-0,261	-0,163
-736,283	-49,410	0,065	-0,023
-735,269	-103,455	-0,453	-0,078
-734,254	-108,518	0,221	-0,035
-733,239	-46,530	-0,559	-0,201
-732,225	35,299	0,202	0,130
-731,210	171,837	-0,121	0,129
-730,196	800,000	0,019	-0,045
-729,181	800,000	-0,023	-0,056
-728,167	-200,000	-0,009	-0,075
-727,152	393,606	0,022	0,034
-726,137	-39,356	-0,149	0,057
-725,123	1,031	0,014	-0,008
-724,108	-16,365	0,034	0,016
-723,094	144,735	0,059	-0,058
-722,079	150,211	-0,166	-0,166
-721,064	133,378	0,027	0,026
-720,050	800,000	0,028	-0,070
-719,035	-20,455	-0,119	0,054
-718,021	-181,089	0,145	-0,002
-717,006	-99,798	-0,093	0,017
-715,991	699,901	0,064	-0,125
-714,977	-31,116	-0,176	-0,073
-713,962	-200,000	0,014	-0,054
-712,948	800,000	0,063	0,198
-711,933	800,000	0,046	-0,145
-710,918	-23,815	-0,080	-0,035
-709,904	-170,668	-0,057	-0,001
-708,889	214,440	-0,103	-0,120
-707,875	85,208	-0,111	-0,090
-706,860	-200,000	-0,000	-0,086
-705,845	-95,924	-0,017	-0,003
-704,831	-178,354	0,021	-0,000
-703,816	-3,629	0,103	0,053
-702,802	623,350	-0,052	-0,096
-701,787	444,169	-0,068	-0,111
-700,772	-40,301	-0,091	0,035
-699,758	14,698	0,094	-0,054
-698,743	-200,000	-0,001	0,071
-697,729	25,135	0,052	-0,032
-696,714	163,105	-0,093	0,097
-695,699	34,400	-0,147	-0,094
-694,685	-134,043	-0,145	-0,013
-693,670	360,149	0,044	-0,065
-692,656	-92,269	-0,125	0,026
-691,641	-130,765	0,110	-0,011
-690,627	-200,000	0,026	0,087
-689,612	-138,871	-0,130	-0,010
-688,597	230,819	0,036	-0,043
-687,583	-200,000	0,029	-0,140
-686,568	-200,000	0,004	0,055
-685,554	218,799	-0,096	0,113
-684,539	-24,851	-0,095	-0,041
-683,524	-18,477	-0,107	-0,049
-682,510	800,000	-0,036	-0,098
-681,495	-200,000	0,002	-0,060
-680,481	-200,000	-0,014	-0,052
-679,466	-89,334	-0,116	-0,025
-678,451	-200,000	-0,025	0,083
-677,437	-37,384	0,171	-0,067
-676,422	-94,335	-0,121	0,024
-675,408	-47,644	-0,092	-0,033
-674,393	172,092	-0,024	-0,025
-673,378	-71,546	-0,077	0,021
-672,364	-55,557	-0,058	-0,019
-671,349	800,000	0,036	-0,087
-670,335	-200,000	0,009	-0,075
-669,320	-185,331	0,086	0,001
-668,305	331,748	-0,056	0,080
-667,291	202,316	0,042	0,047
-666,276	-47,059	-0,108	0,039
-665,262	237,627	0,087	-0,106
-664,247	-6,271	0,065	0,033
-663,232	-46,309	0,094	-0,034
-662,218	-89,395	-0,116	0,025
-661,203	-94,355	-0,095	0,019
-660,189	-200,000	-0,007	-0,052
-659,174	-50,994	-0,168	-0,057
-658,159	10,032	-0,151	-0,084
-657,145	268,012	-0,093	-0,120
-656,130	-112,004	-0,121	0,018
-655,116	-75,768	-0,092	0,024
-654,101	-200,000	-0,013	0,133
-653,086	800,000	-0,055	0,125
-652,072	-200,000	0,021	-0,085
-651,057	13,441	-0,114	0,065
-650,043	134,709	-0,106	-0,101
-649,028	99,098	0,138	-0,117
-648,014	-49,086	-0,093	0,032
-646,999	15,192	-0,077	-0,044
-645,984	83,242	-0,152	-0,122
-644,970	89,838	-0,074	-0,061
-643,955	-200,000	0,008	-0,071
-642,941	-200,000	0,005	0,024
-641,926	142,083	-0,056	-0,055
-640,911	-200,000	-0,001	0,096
-639,897	-179,401	-0,107	0,002
-638,882	-80,144	-0,099	0,024
-637,868	158,200	0,050	-0,051
-636,853	-200,000	-0,002	-0,028
-635,838	72,412	-0,136	-0,104
-634,824	-1,575	-0,020	-0,010
-633,809	-103,782	-0,030	0,005
-632,795	11,205	-0,099	-0,055
-631,780	239,292	0,031	-0,038
-630,765	39,738	0,017	0,011
-629,751	-200,000	0,019	-0,093
-628,736	800,000	0,015	-0,035
-627,722	800,000	0,038	-0,106
-626,707	109,281	0,077	-0,068
-625,692	-47,592	0,103	-0,037
-624,678	-69,154	0,077	-0,022
-623,663	-68,999	-0,039	-0,011
-622,649	800,000	-0,027	0,076
-621,634	465,437	0,055	-0,091
-620,619	800,000	-0,105	-0,225
-619,605	-200,000	0,023	0,080
-618,590	533,008	0,031	-0,054
-617,576	21,713	-0,065	-0,039
-616,561	800,000	0,031	0,075
-615,546	199,693	-0,069	-0,077
-614,532	230,403	0,031	-0,037
-613,517	-8,876	-0,064	-0,031
-612,503	63,138	-0,108	-0,079
-611,488	-19,119	-0,060	0,027
-610,474	229,245	-0,041	0,049
-609,459	-200,000	0,011	0,128
-608,444	800,000	-0,032	-0,077
-607,430	549,453	-0,033	-0,058
-606,415	800,000	-0,045	0,118
-605,401	610,956	-0,028	-0,051
-604,386	800,000	-0,025	0,058
-603,371	255,237	0,122	0,154
-602,357	-92,539	0,081	0,017
-601,342	378,665	0,095	-0,144
-600,328	2,443	-0,133	-0,071
-599,313	-128,127	-0,059	-0,006
-598,298	-87,043	0,057	-0,013
-597,284	360,031	-0,048	0,070
-596,269	19,204	0,081	-0,047
-595,255	469,090	0,016	-0,026
-594,240	142,972	-0,056	0,055
-593,225	-92,521	0,132	0,027
-592,211	245,190	0,066	-0,082
-591,196	21,016	-0,043	0,026
-590,182	-200,000	0,016	0,099
-589,167	111,505	0,081	-0,072
-588,152	-107,455	-0,041	-0,007
-587,138	800,000	0,038	-0,082
-586,123	-111,679	-0,127	-0,019
-585,109	-19,129	-0,169	0,077
-584,094	-154,907	-0,066	-0,003
-583,079	140,595	-0,111	0,108
-582,065	-74,829	0,128	-0,033
-581,050	800,000	-0,013	0,043
-580,036	57,666	-0,035	0,025
-579,021	-122,104	0,077	0,009
-578,006	-200,000	0,017	0,098
-576,992	-200,000	-0,002	0,063
-575,977	553,759	-0,089	-0,157
-574,963	-24,152	0,067	0,029
-573,948	-200,000	0,020	0,155
-572,934	-200,000	-0,036	-0,147
-571,919	-129,062	-0,010	0,001
-570,904	800,000	-0,010	-0,028
-569,890	668,022	0,017	-0,033
-568,875	-200,000	0,002	-0,076
-567,861	-200,000	0,014	0,098
-566,846	-200,000	0,002	0,139
-565,831	-141,663	-0,076	0,005
-564,817	800,000	-0,036	0,085
-563,802	31,527	-0,113	-0,071
-562,788	-109,918	0,075	-0,011
-561,773	120,704	-0,043	-0,039
-560,758	-13,097	0,104	0,049
-559,744	230,315	-0,022	0,026
-558,729	-150,272	-0,090	-0,005
-557,715	-191,650	-0,042	0,000
-556,700	114,854	-0,093	-0,083
-555,685	-136,954	-0,146	-0,012
-554,671	-200,000	-0,011	-0,139
-553,656	206,478	0,063	-0,071
-552,642	32,188	0,125	0,078
-551,627	85,095	0,078	0,062
-550,612	694,469	0,049	0,094
-549,598	430,772	-0,033	-0,053
-548,583	-132,509	-0,122	0,011
-547,569	-44,061	-0,113	-0,041
-546,554	800,000	-0,004	0,010
-545,539	-70,838	0,052	0,014
-544,525	-200,000	0,017	0,069
-543,510	23,875	0,036	0,022
-542,496	711,103	0,060	-0,117
-541,481	-200,000	0,011	-0,092
-540,466	-14,748	0,059	0,028
-539,452	761,993	-0,080	0,159
-538,437	-200,000	-0,013	-0,105
-537,423	-65,000	0,156	0,046
-536,408	312,328	0,037	-0,050
-535,393	-110,964	0,087	0,013
-534,379	-92,822	-0,128	-0,026
-533,364	800,000	-0,023	0,049
-532,350	800,000	0,046	-0,119
-531,335	-200,000	0,018	0,060
-530,321	-200,000	-0,016	0,058
-529,306	52,498	-0,114	0,079
-528,291	-200,000	0,024	-0,122
-527,277	-200,000	0,015	-0,072
-526,262	15,909	-0,083	-0,048
-525,248	166,939	0,038	0,039
-524,233	140,823	0,046	-0,044
-523,218	800,000	0,058	0,146
-522,204	223,597	-0,051	-0,060
-521,189	337,807	-0,101	-0,144
-520,175	407,345	0,083	-0,128
-519,160	800,000	-0,066	-0,208
-518,145	-200,000	0,001	-0,093
-517,131	179,950	-0,046	-0,049
-516,116	-200,000	0,027	0,088
-515,102	-92,599	-0,042	0,009
-514,087	625,286	0,063	-0,116
-513,072	-200,000	0,018	0,123
-512,058	-200,000	-0,013	-0,049
-511,043	110,878	-0,062	0,055
-510,029	-10,614	0,148	-0,071
-509,014	115,189	-0,050	-0,045
-507,999	86,337	0,118	0,095
-506,985	800,000	-0,022	0,069
-505,970	-62,697	-0,064	0,019
-504,956	-142,273	-0,196	-0,014
-503,941	94,336	0,085	0,071
-502,926	185,355	0,028	0,031
-501,912	369,455	0,015	-0,022
-500,897	800,000	0,031	-0,077
-499,883	312,059	-0,065	0,090
-498,868	-200,000	0,004	0,024
-497,853	-169,815	-0,064	-0,002
-496,839	-41,798	-0,045	0,017
-495,824	800,000	-0,026	-0,058
-494,810	143,653	0,126	-0,123
-493,795	800,000	-0,012	0,035
-492,781	453,756	-0,059	-0,096
-491,766	-200,000	-0,012	-0,112
-490,751	-41,293	-0,084	-0,032
-489,737	-61,451	-0,016	-0,005
-488,722	449,640	-0,037	0,060
-487,708	-37,279	-0,043	-0,017
-486,693	14,432	0,152	0,086
-485,678	31,530	0,121	0,076
-484,664	-155,108	-0,041	0,002
-483,649	6,080	-0,045	0,024
-482,635	-118,739	0,169	-0,022
-481,620	-200,000	-0,010	-0,077
-480,605	-89,544	0,057	-0,012
-479,591	800,000	0,095	0,213
-478,576	-101,687	-0,123	-0,022
-477,562	-33,019	-0,076	0,031
-476,547	-200,000	-0,000	-0,021
-475,532	-5,350	-0,118	0,059
-474,518	536,019	0,047	0,082
-473,503	-11,032	0,101	0,048
-472,489	-34,287	0,154	0,061
-471,474	-150,141	0,051	-0,003
-470,459	-200,000	-0,080	-0,000
-469,445	-200,000	0,038	-0,129
-468,430	800,000	0,007	-0,015
-467,416	800,000	0,034	-0,109
-466,401	-200,000	-0,010	0,168
-465,386	-200,000	0,000	0,084
-464,372	35,373	-0,069	-0,044
-463,357	-153,678	-0,071	-0,003
-462,343	-72,292	-0,055	-0,015
-461,328	-100,925	-0,076	-0,013
-460,313	40,734	-0,041	0,027
-459,299	-53,733	0,035	0,012
-458,284	800,000	-0,034	-0,101
-457,270	79,574	-0,022	0,017
-456,255	800,000	0,047	-0,112
-455,241	-200,000	-0,015	-0,124
-454,226	-6,680	-0,079	-0,039
-453,211	11,187	0,121	-0,067
-452,197	800,000	-0,081	0,213
-451,182	97,201	-0,035	0,030
-450,168	-165,802	0,078	-0,002
-449,153	-111,469	0,014	-0,002
-448,138	348,684	0,063	-0,091
-447,124	-200,000	0,009	-0,079
-446,109	540,432	0,061	-0,107
-445,095	-6,977	0,120	0,059
-444,080	40,836	-0,055	0,036
-443,065	-200,000	-0,026	0,090
-442,051	434,164	-0,060	0,096
-441,036	156,049	0,056	-0,057
-440,022	508,632	-0,067	-0,113
-439,007	452,993	-0,039	0,064
-437,992	-53,817	-0,048	-0,016
-436,978	42,625	0,022	0,014
-435,963	373,770	-0,022	0,032
-434,949	800,000	-0,062	-0,144
-433,934	800,000	-0,045	0,133
-432,919	107,833	0,070	0,061
-431,905	787,352	-0,032	0,064
-430,890	136,103	0,043	-0,041
-429,876	15,784	-0,066	0,038
-428,861	-109,492	0,126	-0,019
-427,846	45,225	-0,034	-0,022
-426,832	-200,000	-0,016	-0,073
-425,817	369,366	-0,061	-0,090
-424,803	788,857	-0,065	0,130
-423,788	-200,000	-0,018	-0,076
-422,773	343,263	0,036	0,052
-421,759	800,000	0,064	-0,134
-420,744	800,000	0,013	0,039
-419,730	-200,000	-0,001	-0,028
-418,715	449,969	0,040	-0,065
-417,701	-200,000	-0,103	-0,000
-416,686	-102,492	-0,111	0,019
-415,671	-200,000	-0,013	-0,102
-414,657	-200,000	0,000	0,106
-413,642	-116,318	-0,138	0,018
-412,628	-2,403	0,063	0,032
-411,613	-200,000	0,000	-0,134
-410,598	800,000	-0,068	0,167
-409,584	-183,473	0,072	-0,001
-408,569	-125,460	-0,020	-0,002
-407,555	-200,000	-0,004	-0,070
-406,540	-200,000	-0,016	-0,110
-405,525	-9,600	-0,166	0,080
-404,511	-200,000	0,018	-0,159
-403,496	73,304	-0,137	-0,104
-402,482	178,229	0,056	-0,060
-401,467	-173,059	-0,053	0,001
-400,452	-200,000	0,020	0,088
-399,438	174,399	0,071	-0,075
-398,423	206,379	-0,078	0,089
-397,409	183,320	0,148	0,160
-396,394	673,571	-0,046	-0,088
-395,379	77,529	0,118	0,091
-394,365	-123,208	0,019	-0,002
-393,350	524,985	0,089	0,153
-392,336	-0,850	-0,048	0,024
-391,321	99,611	-0,028	0,023
-390,306	49,757	-0,029	0,020
-389,292	495,473	-0,053	0,089
-388,277	-11,618	0,059	0,028
-387,263	-37,895	0,042	-0,016
-386,248	-200,000	-0,022	0,071
-385,233	800,000	0,051	0,107
-384,219	119,686	0,077	-0,070
-383,204	763,594	-0,052	-0,102
-382,190	112,221	0,054	0,048
-381,175	1,413	-0,100	-0,052
-380,160	800,000	0,057	-0,121
-379,146	-200,000	-0,019	0,147
-378,131	328,315	-0,052	0,072
-377,117	16,984	-0,037	0,021
-376,102	-96,699	-0,058	0,011
-375,088	-200,000	0,045	-0,150
-374,073	-200,000	-0,014	0,087
-373,058	-200,000	0,029	0,121
-372,044	579,817	0,043	0,076
-371,029	-21,882	0,183	0,081
-370,015	84,935	0,085	-0,068
-369,000	16,512	-0,083	0,047
-367,985	-200,000	-0,009	0,058
-366,971	-200,000	-0,010	-0,131
-365,956	-60,336	-0,136	-0,042
-364,942	7,635	0,143	0,077
-363,927	298,238	0,034	0,046
-362,912	-200,000	0,001	0,147
-361,898	-200,000	0,007	-0,082
-360,883	-200,000	0,026	-0,165
-359,869	-200,000	0,023	-0,080
-358,854	438,918	0,019	0,031
-357,839	800,000	0,036	0,094
-356,825	44,085	0,027	0,018
-355,810	40,981	-0,068	0,044
-354,796	-29,986	0,096	-0,039
-353,781	-19,933	-0,018	0,008
-352,766	-104,987	0,038	-0,006
-351,752	218,790	-0,094	0,109
-350,737	800,000	0,034	0,106
-349,723	191,798	-0,168	0,185
-348,708	241,249	0,013	-0,016
-347,693	5,332	-0,061	-0,032
-346,679	378,237	-0,059	-0,088
-345,664	800,000	0,039	-0,122
-344,650	-99,596	0,097	0,018
-343,635	-200,000	0,001	-0,023
-342,620	59,054	0,047	-0,034
-341,606	800,000	-0,017	-0,046
-340,591	-31,239	0,060	-0,024
-339,577	-69,620	0,099	-0,027
-338,562	2,282	-0,035	0,018
-337,548	-103,074	0,095	0,016
-336,533	-4,372	0,059	0,030
-335,518	390,595	0,022	-0,034
-334,504	-2,767	0,116	0,059
-333,489	144,235	-0,049	-0,048
-332,475	800,000	0,004	0,012
-331,460	800,000	-0,037	-0,106
-330,445	404,481	0,059	0,090
-329,431	11,761	0,078	-0,043
-328,416	-200,000	-0,005	-0,096
-327,402	347,705	0,053	0,075
-326,387	-200,000	0,000	-0,019
-325,372	16,736	0,036	0,020
-324,358	-160,645	-0,105	0,004
-323,343	800,000	0,023	-0,058
-322,329	-34,998	-0,066	0,026
-321,314	-36,457	0,137	0,053
-320,299	0,973	0,068	-0,035
-319,285	-200,000	0,022	0,092
-318,270	323,524	-0,010	-0,014
-317,256	-200,000	0,010	0,106
-316,241	-70,645	0,045	-0,012
-315,226	-200,000	-0,006	-0,106
-314,212	-200,000	0,012	-0,079
-313,197	49,226	0,136	0,093
-312,183	-200,000	-0,021	-0,087
-311,168	33,324	0,187	-0,118
-310,153	-200,000	-0,004	-0,159
-309,139	42,597	0,036	-0,024
-308,124	-50,476	-0,117	-0,040
-307,110	800,000	-0,026	0,063
-306,095	-200,000	-0,004	0,122
-305,080	408,738	0,049	0,075
-304,066	-71,621	-0,093	0,025
-303,051	-111,607	0,031	0,005
-302,037	105,433	0,076	-0,065
-301,022	-41,911	-0,132	-0,049
-300,008	-114,411	0,110	-0,015
-298,993	800,000	0,030	0,080
-297,978	-64,918	-0,027	-0,008
-296,964	-200,000	-0,007	0,041
-295,949	-15,318	0,045	0,021
-294,935	-200,000	-0,002	0,019
-293,920	-34,417	0,077	0,030
-292,905	-125,730	0,051	0,005
-291,891	-200,000	-0,003	0,050
-290,876	-46,185	-0,045	0,016
-289,862	84,969	0,077	-0,061
-288,847	-200,000	0,001	-0,037
-287,832	624,112	0,047	-0,086
-286,818	25,732	0,094	0,057
-285,803	800,000	0,019	-0,052
-284,789	-123,243	0,256	-0,029
-283,774	256,590	-0,048	0,060
-282,759	323,289	-0,087	-0,120
-281,745	-130,446	-0,074	-0,007
-280,730	432,697	-0,088	-0,138
-279,716	-200,000	0,028	0,138
-278,701	-200,000	-0,003	0,085
-277,686	192,085	-0,018	0,019
-276,672	-200,000	0,012	0,124
-275,657	-30,633	-0,050	0,020
-274,643	530,771	0,060	-0,102
-273,628	-40,889	-0,143	0,053
-272,613	-200,000	-0,045	0,172
-271,599	-200,000	0,021	-0,086
-270,584	163,522	0,110	0,112
-269,570	310,913	0,048	0,065
-268,555	-149,662	-0,134	0,008
-267,540	65,781	0,059	-0,044
-266,526	96,171	-0,072	0,060
-265,511	-63,403	-0,056	0,016
-264,497	103,648	0,025	-0,021
-263,482	381,371	0,118	0,176
-262,467	-152,945	-0,085	0,004
-261,453	72,565	0,096	0,072
-260,438	540,585	-0,027	-0,048
-259,424	-185,525	0,093	-0,001
-258,409	800,000	-0,058	-0,144
-257,395	-126,576	0,090	-0,010
-256,380	261,978	-0,075	-0,095
-255,365	-122,488	0,153	-0,018
-254,351	800,000	-0,055	-0,125
-253,336	500,794	-0,031	-0,051
-252,322	-99,972	-0,047	0,008
-251,307	800,000	-0,039	-0,107
-250,292	-65,432	0,096	0,028
-249,278	27,525	0,059	-0,036
-248,263	-40,566	0,048	-0,018
-247,249	-200,000	0,032	0,158
-246,234	109,723	0,024	-0,021
-245,219	-200,000	-0,006	0,042
-244,205	-200,000	-0,008	-0,038
-243,190	-43,180	0,144	0,053
-242,176	-200,000	-0,028	0,140
-241,161	-200,000	-0,025	-0,128
-240,146	800,000	0,019	0,058
-239,132	729,882	0,043	-0,083
-238,117	-200,000	0,033	-0,135
-237,103	56,340	-0,085	-0,060
-236,088	800,000	-0,026	0,062
-235,073	-200,000	0,002	-0,029
-234,059	-16,372	-0,130	0,059
-233,044	268,399	0,042	-0,053
-232,030	46,248	-0,184	-0,123
-231,015	-173,427	0,143	-0,003
-230,000	238,349	-0,029	0,035
-228,986	299,055	0,029	-0,039
-227,971	-16,901	-0,078	0,035
-226,957	800,000	-0,057	0,181
-225,942	565,307	0,056	0,099
-224,927	511,200	-0,031	0,052
-223,913	183,096	-0,049	0,053
-222,898	-125,522	-0,143	-0,015
-221,884	800,000	0,042	0,090
-220,869	306,671	0,076	0,102
-219,855	800,000	-0,093	0,204
-218,840	-25,419	-0,038	0,016
-217,825	-200,000	0,034	0,146
-216,811	738,675	-0,043	-0,084
-215,796	-44,393	0,107	0,039
-214,782	-7,265	0,035	0,017
-213,767	-0,144	-0,140	0,072
-212,752	85,829	0,171	0,136
-211,738	61,403	0,032	-0,023
-210,723	800,000	-0,039	0,078
-209,709	-48,449	-0,030	-0,010
-208,694	3,744	-0,065	0,034
-207,679	456,461	-0,024	0,038
-206,665	57,709	-0,073	0,052
-205,650	-71,554	0,142	-0,038
-204,636	-200,000	0,003	0,078
-203,621	299,066	-0,104	-0,139
-202,606	147,851	-0,043	-0,042
-201,592	800,000	-0,021	0,054
-200,577	800,000	-0,054	-0,121
-199,563	-23,081	0,073	-0,032
-198,548	-118,814	0,146	-0,018
-197,533	-9,954	0,114	0,055
-196,519	-128,953	0,042	-0,004
-195,504	-5,876	-0,104	-0,051
-194,490	-100,184	0,081	-0,014
-193,475	-200,000	0,010	0,046
-192,460	-58,915	-0,105	0,033
-191,446	800,000	0,059	0,155
-190,431	184,996	0,024	-0,026
-189,417	-45,462	0,047	-0,017
-188,402	-200,000	-0,004	-0,046
-187,387	-200,000	-0,010	-0,059
-186,373	475,934	-0,028	0,045
-185,358	-200,000	-0,001	-0,012
-184,344	199,436	-0,075	-0,083
-183,329	403,478	0,057	-0,087
-182,315	800,000	-0,039	-0,078
-181,300	345,312	0,039	0,055
-180,285	-200,000	0,011	0,097
-179,271	576,026	0,048	0,085
-178,256	-79,622	0,067	0,016
-177,242	-66,303	0,109	-0,031
-176,227	189,461	-0,080	-0,086
-175,212	-200,000	-0,004	-0,110
-174,198	-200,000	-0,010	0,068
-173,183	-46,435	-0,170	0,060
-172,169	-200,000	0,005	-0,122
-171,154	800,000	-0,040	0,119
-170,139	116,116	0,079	0,070
-169,125	20,679	-0,062	-0,036
-168,110	39,807	0,056	0,036
-167,096	-200,000	-0,020	0,092
-166,081	-31,416	-0,065	-0,026
-165,066	78,126	0,112	0,086
-164,052	800,000	-0,028	0,078
-163,037	-108,001	-0,080	0,012
-162,023	34,160	0,046	-0,029
-161,008	800,000	0,059	0,133
-159,993	-200,000	0,001	0,123
-158,979	202,040	-0,110	-0,122
-157,964	-4,378	0,047	-0,023
-156,950	-40,512	-0,163	-0,061
-155,935	-84,630	0,132	0,030
-154,920	558,036	0,029	0,050
-153,906	129,426	0,063	-0,058
-152,891	321,200	-0,049	-0,067
-151,877	-8,386	0,103	-0,050
-150,862	86,519	-0,123	-0,098
-149,847	800,000	0,017	0,038
-148,833	800,000	0,047	0,131
-147,818	147,414	0,057	0,055
-146,804	-106,730	0,044	0,007
-145,789	800,000	0,025	-0,057
-144,775	79,062	-0,101	-0,078
-143,760	-97,234	0,046	0,009
-142,745	12,523	0,077	0,043
-141,731	-8,323	-0,120	-0,058
-140,716	134,389	0,109	0,102
-139,702	-200,000	-0,016	0,183
-138,687	-186,709	0,047	-0,000
-137,672	251,791	0,025	-0,031
-136,658	78,343	-0,118	-0,090
-135,643	-161,663	0,114	-0,004
-134,629	530,932	-0,028	-0,049
-133,614	800,000	-0,040	0,096
-132,599	328,033	0,062	0,086
-131,585	-200,000	-0,037	0,127
-130,570	-200,000	0,019	-0,130
-129,556	47,415	0,129	-0,086
-128,541	-200,000	-0,003	0,047
-127,526	800,000	0,021	0,059
-126,512	54,461	0,112	-0,077
-125,497	391,464	-0,035	-0,053
-124,483	-107,049	0,180	0,028
-123,468	2,983	0,054	0,028
-122,453	-81,674	-0,152	-0,036
-121,439	552,766	-0,018	0,031
-120,424	279,522	0,049	0,063
-119,410	-96,160	-0,078	0,015
-118,395	-32,910	0,042	0,017
-117,380	-70,288	0,088	0,024
-116,366	-16,663	-0,129	0,059
-115,351	-200,000	0,003	0,050
-114,337	-67,054	-0,123	-0,035
-113,322	-200,000	0,040	-0,152
-112,307	-189,911	0,105	0,001
-111,293	73,892	0,072	-0,054
-110,278	-57,274	0,136	0,043
-109,264	-200,000	-0,014	0,062
-108,249	23,477	0,015	-0,009
-107,234	-131,443	-0,173	-0,016
-106,220	-3,738	-0,098	-0,049
-105,205	406,419	0,085	-0,129
-104,191	636,445	0,045	-0,083
-103,176	436,980	0,035	0,055
-102,162	81,140	-0,022	0,017
-101,147	-200,000	0,004	-0,064
-100,132	-200,000	0,029	-0,167
-99,118	4,381	-0,136	0,071
-98,103	-33,387	-0,034	-0,013
-97,089	24,003	0,088	0,052
-96,074	41,266	-0,092	0,060
-95,059	800,000	-0,003	-0,005
-94,045	-43,423	-0,035	0,013
-93,030	88,486	-0,062	-0,049
-92,016	11,154	0,016	-0,009
-91,001	661,715	-0,053	-0,099
-89,986	-6,867	0,147	-0,071
-88,972	800,000	0,033	-0,087
-87,957	800,000	0,015	0,034
-86,943	376,704	0,038	-0,056
-85,928	-94,779	-0,086	0,017
-84,913	55,187	-0,047	0,032
-83,899	800,000	-0,044	0,103
-82,884	84,653	-0,106	-0,083
-81,870	68,104	0,003	0,002
-80,855	-200,000	0,004	-0,147
-79,840	-143,695	0,034	-0,002
-78,826	256,556	-0,076	0,093
-77,811	193,587	-0,045	-0,049
-76,797	-75,460	0,068	0,017
-75,782	280,765	-0,029	0,037
-74,767	-200,000	0,016	-0,079
-73,753	-200,000	0,008	-0,072
-72,738	-200,000	-0,019	-0,135
-71,724	-147,014	-0,095	-0,006
-70,709	285,065	0,034	-0,044
-69,694	-147,427	0,093	0,006
-68,680	-76,030	-0,018	-0,004
-67,665	-34,702	-0,027	-0,011
-66,651	-200,000	0,010	0,108
-65,636	-167,584	-0,090	-0,003
-64,622	800,000	0,051	-0,118
-63,607	-200,000	-0,018	0,117
-62,592	-200,000	-0,012	-0,049
-61,578	-83,294	-0,173	-0,040
-60,563	53,519	-0,088	0,060
-59,549	-200,000	-0,008	0,137
-58,534	99,294	-2,554	-2,119
-57,519	-17,480	0,431	-0,194
-56,505	800,000	-1,809	-5,519
-55,490	340,080	1,410	1,980
-54,476	800,000	5,237	11,092
-53,461	-200,000	22,244	347,428
-52,446	800,000	760,604	2291,493
-51,432	512,613	1645,075	2761,431
-50,417	96,889	1607,909	1321,979
-49,403	64,688	1265,122	914,607
-48,388	22,873	1016,939	596,669
-47,373	19,391	984,476	566,123
-46,359	12,852	971,335	537,173
-45,344	8,623	968,133	521,538
-44,330	9,042	966,162	521,826
-43,315	8,012	964,444	517,512
-42,300	7,922	963,451	516,666
-41,286	7,979	962,275	516,199
-40,271	7,955	961,288	515,572
-39,257	7,912	960,528	515,005
-38,242	7,930	959,553	514,519
-37,227	7,940	958,530	513,981
-36,213	7,918	957,900	513,553
-35,198	7,933	957,022	513,112
-34,184	8,005	956,174	512,868
-33,169	7,866	955,463	512,018
-32,154	7,948	954,566	511,782
-31,140	7,949	953,674	511,286
-30,125	7,956	952,928	510,887
-29,111	7,935	952,002	510,305
-28,096	7,936	951,576	510,060
-27,082	7,979	950,751	509,736
-26,067	7,980	949,915	509,271
-25,052	7,886	949,293	508,614
-24,038	7,913	948,431	508,220
-23,023	7,885	947,912	507,829
-22,009	7,933	947,447	507,714
-20,994	7,954	946,611	507,314
-19,979	7,936	945,909	506,860
-18,965	7,871	945,405	506,362
-17,950	7,905	944,810	506,130
-16,936	7,870	943,933	505,531
-15,921	7,907	943,360	505,320
-14,906	7,848	942,606	504,709
-13,892	7,780	942,213	504,262
-12,877	7,823	941,328	503,905
-11,863	7,753	940,862	503,413
-10,848	7,842	940,201	503,323
-9,833	7,891	939,711	503,195
-8,819	7,858	939,150	502,771
-7,804	7,822	938,521	502,300
-6,790	7,744	937,928	501,714
-5,775	7,819	937,374	501,637
-4,760	7,866	936,833	501,475
-3,746	7,795	936,298	500,943
-2,731	7,692	935,467	500,153
-1,717	7,647	934,849	499,662
-0,702	7,664	934,211	499,353
0,313	7,516	933,496	499,257
1,327	11,016	931,083	508,952
2,342	19,759	779,474	448,975
3,356	14,789	448,096	250,599
4,371	-11,459	312,842	147,020
5,386	-14,987	295,259	135,173
6,400	-17,246	289,170	130,135
7,415	-17,423	286,380	128,693
8,429	-18,196	284,462	127,065
9,444	-18,274	283,760	126,665
10,459	-18,303	283,086	126,324
11,473	-18,291	282,488	126,058
12,488	-18,136	281,811	125,895
13,502	-18,189	281,420	125,657
14,517	-18,078	280,975	125,554
15,531	-18,152	280,617	125,312
16,546	-18,242	280,246	125,048
17,561	-18,066	279,642	124,937
18,575	-18,040	279,403	124,844
19,590	-18,169	279,129	124,587
20,604	-18,070	278,806	124,527
21,619	-18,109	278,457	124,321
22,634	-18,243	278,176	124,057
23,648	-18,081	277,736	124,004
24,663	-18,182	277,601	123,837
25,677	-18,114	277,248	123,733
26,692	-18,332	277,111	123,455
27,707	-18,128	276,742	123,472
28,721	-18,091	276,457	123,369
29,736	-18,188	276,088	123,101
30,750	-18,096	275,940	123,111
31,765	-18,109	275,588	122,931
32,780	-18,207	275,418	122,752
33,794	-18,044	275,139	122,771
34,809	-18,013	274,763	122,621
35,823	-18,182	274,718	122,430
36,838	-18,121	274,259	122,273
37,853	-18,249	274,066	122,055
38,867	-18,062	273,932	122,160
39,882	-18,173	273,541	121,871
40,896	-18,123	273,316	121,807
41,911	-17,994	273,207	121,868
42,926	-18,070	272,866	121,634
43,940	-17,967	272,498	121,555
44,955	-18,117	272,408	121,364
45,969	-18,239	272,154	121,127
46,984	-18,039	271,957	121,214
47,999	-18,065	271,968	121,184
49,013	-17,803	271,645	121,273
50,028	-17,857	271,379	121,093
51,042	-17,953	271,142	120,888
52,057	-17,893	270,921	120,834
53,071	-18,049	270,635	120,552
54,086	-18,036	270,511	120,497
55,101	-17,902	270,148	120,449
56,115	-17,769	269,926	120,461
57,130	-18,119	269,781	120,063
58,144	-18,265	269,490	119,789
59,159	-18,076	269,120	119,787
60,174	-18,012	269,078	119,817
61,188	-17,878	268,685	119,754
62,203	-18,105	268,579	119,488
63,217	-18,080	268,373	119,409
64,232	-17,938	267,958	119,344
65,247	-18,050	267,729	119,129
66,261	-18,092	267,632	119,036
67,276	-17,938	267,419	119,072
68,290	-18,069	267,152	118,822
69,305	-17,833	266,974	118,947
70,320	-17,988	266,757	118,699
71,334	-18,001	266,408	118,521
72,349	-17,959	266,182	118,449
73,363	-18,155	266,067	118,209
74,378	-18,260	265,869	118,015
75,393	-18,103	265,472	117,971
76,407	-18,051	265,370	117,962
77,422	-17,929	264,990	117,893
78,436	-18,031	264,757	117,686
79,451	-17,958	264,725	117,727
80,466	-18,130	264,475	117,451
81,480	-17,893	264,090	117,482
82,495	-17,952	263,942	117,353
83,509	-17,913	263,872	117,346
84,524	-17,972	263,490	117,114
85,539	-17,847	263,337	117,148
86,553	-17,908	263,189	117,016
87,568	-17,941	263,090	116,932
88,582	-17,882	262,748	116,822
89,597	-18,036	262,659	116,635
90,611	-17,904	262,333	116,597
91,626	-18,061	262,256	116,413
92,641	-18,012	261,991	116,329
93,655	-17,936	261,698	116,256
94,670	-18,241	261,574	115,919
95,684	-17,892	261,288	116,092
96,699	-17,863	261,048	116,001
97,714	-17,785	260,877	115,984
98,728	-17,943	260,812	115,804
99,743	-17,944	260,582	115,690
100,757	-17,923	260,354	115,598
101,772	-18,120	260,218	115,353
102,787	-17,958	259,769	115,286
103,801	-17,975	259,616	115,194
104,816	-17,956	259,488	115,143
105,830	-17,903	259,102	115,008
106,845	-17,736	258,873	115,043
107,860	-17,809	258,873	114,969
108,874	-17,936	258,505	114,684
109,889	-17,797	258,432	114,763
110,903	-17,955	258,260	114,538
111,918	-18,027	258,090	114,389
112,933	-17,877	257,757	114,363
113,947	-17,961	257,502	114,166
114,962	-17,746	257,401	114,299
115,976	-17,941	257,208	114,033
116,991	-17,878	256,970	113,972
118,006	-17,611	256,827	114,131
119,020	-18,030	256,700	113,700
120,035	-17,884	256,697	113,815
121,049	-17,941	256,276	113,569
122,064	-18,173	256,381	113,403
123,079	-17,869	255,899	113,444
124,093	-17,975	255,933	113,357
125,108	-17,919	255,539	113,221
126,122	-17,739	255,270	113,248
127,137	-17,687	255,057	113,188
128,151	-17,768	254,996	113,080
129,166	-17,773	254,702	112,936
130,181	-17,828	254,463	112,772
131,195	-17,859	254,244	112,638
132,210	-18,023	254,207	112,470
133,224	-17,946	253,997	112,434
134,239	-17,783	253,719	112,441
135,254	-17,813	253,603	112,354
136,268	-17,920	253,421	112,172
137,283	-17,824	253,023	112,068
138,297	-17,783	252,990	112,078
139,312	-17,816	252,640	111,885
140,327	-17,717	252,560	111,924
141,341	-17,980	252,253	111,553
142,356	-17,985	252,296	111,558
143,370	-17,826	251,891	111,505
144,385	-18,001	251,889	111,344
145,400	-17,912	251,624	111,293
146,414	-18,031	251,341	111,057
147,429	-17,796	251,145	111,160
148,443	-17,803	250,996	111,078
149,458	-18,006	250,799	110,808
150,473	-18,022	250,669	110,728
151,487	-17,855	250,430	110,754
152,502	-17,853	250,195	110,642
153,516	-17,910	249,920	110,463
154,531	-17,921	249,943	110,454
155,546	-17,942	249,682	110,311
156,560	-17,860	249,667	110,363
157,575	-17,708	249,295	110,318
158,589	-17,816	249,216	110,181
159,604	-17,735	248,937	110,116
160,619	-17,924	248,718	109,851
161,633	-17,929	248,453	109,720
162,648	-17,875	248,431	109,745
163,662	-18,039	248,299	109,539
164,677	-17,873	248,107	109,584
165,692	-17,914	247,901	109,449
166,706	-17,917	247,739	109,366
167,721	-17,915	247,597	109,295
168,735	-17,743	247,365	109,326
169,750	-17,906	247,192	109,104
170,764	-17,816	247,106	109,132
171,779	-17,853	246,919	109,009
172,794	-17,795	246,693	108,947
173,808	-17,772	246,561	108,899
174,823	-17,882	246,465	108,755
175,837	-17,847	246,297	108,700
176,852	-17,915	246,141	108,565
177,867	-17,828	245,972	108,553
178,881	-17,766	245,700	108,475
179,896	-17,888	245,611	108,324
180,910	-17,686	245,346	108,365
181,925	-17,924	245,251	108,117
182,940	-17,950	245,059	108,001
183,954	-17,992	244,944	107,906
184,969	-17,772	244,702	107,972
185,983	-17,877	244,525	107,797
186,998	-17,891	244,298	107,676
188,013	-17,980	244,267	107,579
189,027	-17,788	243,982	107,602
190,042	-17,859	243,828	107,466
191,056	-17,798	243,623	107,417
192,071	-17,713	243,506	107,425
193,086	-17,767	243,193	107,233
194,100	-17,940	243,131	107,054
195,115	-17,625	242,890	107,197
196,129	-17,861	242,701	106,910
197,144	-17,922	242,488	106,757
198,159	-17,636	242,234	106,870
199,173	-17,803	242,226	106,720
200,188	-17,853	242,025	106,581
201,202	-17,794	241,813	106,526
202,217	-17,547	241,510	106,585
203,232	-17,774	241,445	106,362
204,246	-17,591	241,187	106,387
205,261	-17,808	241,222	106,217
206,275	-16,171	241,802	107,797
207,290	-11,334	243,487	112,505
208,304	-5,370	245,002	118,104
209,319	-3,118	245,707	120,290
210,334	-2,518	245,762	120,799
211,348	-1,915	245,936	121,371
212,363	-1,358	245,789	121,746
213,377	-0,945	245,994	122,177
214,392	-0,406	246,193	122,708
215,407	0,450	246,021	123,316
216,421	0,367	246,071	123,262
217,436	0,422	245,712	123,116
218,450	0,297	245,582	122,938
219,465	0,470	245,496	123,026
220,480	0,528	245,285	122,956
221,494	0,726	245,117	123,023
222,509	0,232	244,808	122,453
223,523	0,150	244,829	122,386
224,538	0,145	244,488	122,200
225,553	0,071	244,314	122,042
226,567	0,003	244,105	121,872
227,582	0,192	243,968	121,946
228,596	0,113	243,927	121,850
229,611	0,055	243,885	121,771
230,626	-0,001	243,648	121,596
231,640	-0,041	243,452	121,455
232,655	-0,060	243,253	121,330
233,669	-0,011	242,932	121,198
234,684	-0,027	242,823	121,121
235,699	0,031	242,746	121,118
236,713	0,124	242,495	121,057
237,728	-0,078	242,494	120,882
238,742	-0,065	242,336	120,804
239,757	0,019	242,065	120,725
240,772	-0,080	241,880	120,543
241,786	-0,203	241,908	120,446
242,801	-0,077	241,704	120,436
243,815	-0,047	241,402	120,299
244,830	0,022	241,333	120,309
245,844	-0,016	241,157	120,180
246,859	-0,027	240,916	120,041
247,874	0,112	240,891	120,129
248,888	0,179	240,401	119,927
249,903	0,176	240,564	119,995
250,917	-0,092	240,390	119,684
251,932	0,100	240,244	119,754
252,947	0,136	240,070	119,686
253,961	0,006	239,741	119,407
254,976	0,253	239,564	119,505
255,990	0,128	239,565	119,395
257,005	0,105	239,420	119,294
258,020	0,101	239,339	119,240
259,034	-0,118	239,110	118,941
260,049	-0,055	239,003	118,927
261,063	0,036	238,791	118,883
262,078	0,120	238,518	118,804
263,093	0,120	238,455	118,762
264,107	0,058	238,281	118,614
265,122	0,155	238,104	118,593
266,136	0,056	238,141	118,523
267,151	0,179	237,713	118,396
268,166	0,072	237,627	118,258
269,180	-0,031	237,418	118,062
270,195	0,040	237,409	118,104
271,209	0,299	237,229	118,208
272,224	0,094	237,080	117,962
273,239	-0,016	236,954	117,802
274,253	0,008	236,858	117,762
275,268	-0,023	236,612	117,605
276,282	-0,023	236,451	117,514
277,297	0,150	236,388	117,608
278,312	0,267	236,205	117,599
279,326	0,098	236,090	117,398
280,341	0,199	235,912	117,378
281,355	-0,039	235,765	117,109
282,370	0,175	235,640	117,204
283,384	0,124	235,473	117,070
284,399	0,134	235,310	116,987
285,414	0,093	235,080	116,830
286,428	0,055	235,151	116,825
287,443	0,239	234,846	116,807
288,457	0,273	234,776	116,788
289,472	0,222	234,591	116,646
290,487	0,350	234,358	116,619
291,501	0,246	234,206	116,452
292,516	0,408	233,959	116,445
293,530	0,349	233,916	116,367
294,545	0,313	233,804	116,274
295,560	0,141	233,673	116,064
296,574	0,259	233,482	116,050
297,589	0,363	233,361	116,060
298,603	0,492	233,296	116,118
299,618	0,462	233,069	115,971
300,633	0,519	232,847	115,894
301,647	0,356	232,859	115,764
302,662	0,400	232,875	115,795
303,676	0,555	232,427	115,683
304,691	0,501	232,353	115,593
305,706	0,486	232,219	115,505
306,720	0,385	232,099	115,357
307,735	0,156	232,006	115,125
308,749	0,322	231,762	115,121
309,764	0,451	231,592	115,125
310,779	0,287	231,627	115,006
311,793	0,254	231,289	114,803
312,808	0,413	231,084	114,813
313,822	0,482	231,039	114,833
314,837	0,648	230,745	114,803
315,852	0,402	230,745	114,605
316,866	0,506	230,661	114,633
317,881	0,238	230,437	114,307
318,895	0,444	230,265	114,368
319,910	0,345	230,128	114,214
320,925	0,326	229,857	114,055
321,939	0,389	229,915	114,122
322,954	0,619	229,721	114,190
323,968	0,463	229,710	114,056
324,983	0,486	229,412	113,915
325,997	0,802	229,246	114,063
327,012	0,517	229,264	113,845
328,027	0,659	228,949	113,786
329,041	0,543	228,813	113,620
330,056	0,749	228,708	113,714
331,070	0,733	228,494	113,586
332,085	0,453	228,446	113,340
333,100	0,386	228,185	113,150
334,114	0,559	227,997	113,177
335,129	0,423	227,915	113,023
336,143	0,458	227,771	112,968
337,158	0,592	227,587	112,968
338,173	0,417	227,611	112,838
339,187	0,635	227,327	112,851
340,202	0,697	227,186	112,817
341,216	0,629	227,006	112,667
342,231	0,612	226,947	112,615
343,246	0,505	226,931	112,517
344,260	0,562	226,760	112,464
345,275	0,731	226,481	112,443
346,289	0,746	226,332	112,370
347,304	0,570	226,339	112,232
348,319	0,762	226,185	112,289
349,333	0,675	225,947	112,096
350,348	0,611	225,742	111,936
351,362	0,554	225,666	111,846
352,377	0,575	225,606	111,822
353,392	0,465	225,449	111,652
354,406	0,686	225,160	111,664
355,421	192,590	1313,155	1380,102
356,435	154,274	1445,551	1379,944
