DTS Sentinel unit serial number:	SN410029Multiplexer serial number:	ORYXHardware model number:	OX2-SRSoftware version number:	ORYX F/W v4,00 Oryx Data Collector v3.7.2.0data status	okinstallation	B5 Nyhavnadifferential loss correction	single-endedforward channel	channel 2reverse channel	N/Adate	2023/12/12time	05:32:13forward acquisition time	300,00reverse acquisition time	0,00gamma	499,1914k internal	0,3158k external	0,3158temperature offset calibration	1,0000default loss term (dB/km)	0,3820temperature slope calibration	1,0000multiplexer offset coefficient	1,0000multiplexer slope coefficient	1,0000fibre end	0,00T internal ref (°C)	15,37T ext. ref 1 (°C)	-1,04T ext. ref 2 (°C)	-1,31length (m)	temperature (°C)	Stokes	anti-Stokes-744,400	-200,000	0,010	0,036
-743,385	-121,368	-0,317	-0,038
-742,371	65,418	0,149	0,111
-741,356	-66,540	-0,203	0,059
-740,342	7,107	0,060	0,033
-739,327	-182,679	-0,277	0,004
-738,312	-162,193	0,170	-0,006
-737,298	-78,739	-0,260	-0,065
-736,283	-109,281	0,109	0,017
-735,269	-78,921	-0,346	-0,086
-734,254	-83,491	0,284	0,066
-733,239	-44,767	-0,452	-0,165
-732,225	-194,360	-0,017	0,000
-731,210	98,597	-0,049	-0,041
-730,196	-135,285	-0,062	0,005
-729,181	-200,000	0,002	-0,074
-728,167	-200,000	0,004	0,070
-727,152	73,577	-0,064	0,049
-726,137	637,517	0,022	-0,041
-725,123	800,000	0,030	-0,090
-724,108	-57,428	-0,201	-0,065
-723,094	800,000	-0,055	-0,121
-722,079	3,751	-0,051	0,027
-721,064	-62,078	-0,055	0,017
-720,050	8,263	-0,170	-0,094
-719,035	476,389	-0,038	-0,064
-718,021	76,882	-0,081	-0,063
-717,006	366,500	-0,042	-0,062
-715,991	132,341	-0,104	-0,099
-714,977	193,322	-0,106	-0,118
-713,962	42,384	-0,116	-0,077
-712,948	131,277	0,057	0,054
-711,933	-200,000	0,018	0,096
-710,918	250,166	-0,054	-0,067
-709,904	85,562	-0,063	0,051
-708,889	-48,005	-0,229	-0,081
-707,875	605,351	0,081	-0,150
-706,860	9,206	0,128	-0,071
-705,845	181,753	-0,067	0,073
-704,831	800,000	-0,021	0,048
-703,816	800,000	-0,002	0,006
-702,802	-86,999	0,132	-0,029
-701,787	-26,568	-0,010	0,004
-700,772	8,189	0,188	-0,104
-699,758	527,188	0,033	-0,058
-698,743	44,007	-0,107	0,072
-697,729	226,288	-0,104	0,124
-696,714	-200,000	-0,014	-0,166
-695,699	300,595	0,053	-0,072
-694,685	206,733	0,081	-0,093
-693,670	-200,000	-0,027	0,101
-692,656	-200,000	0,027	-0,089
-691,641	-114,016	-0,069	-0,010
-690,627	-132,844	0,110	0,010
-689,612	-200,000	-0,005	-0,083
-688,597	493,286	-0,136	-0,230
-687,583	244,735	-0,139	-0,172
-686,568	-51,664	0,101	-0,034
-685,554	-83,866	-0,094	0,022
-684,539	-100,917	-0,042	-0,008
-683,524	-75,718	0,099	-0,026
-682,510	-200,000	0,025	0,113
-681,495	-100,272	0,098	-0,018
-680,481	-200,000	0,011	-0,060
-679,466	47,476	-0,120	-0,082
-678,451	113,182	0,032	0,029
-677,437	208,982	-0,012	0,014
-676,422	-200,000	0,032	0,125
-675,408	177,282	0,072	0,077
-674,393	53,711	-0,103	-0,073
-673,378	300,405	-0,086	0,117
-672,364	774,782	-0,048	0,096
-671,349	-200,000	0,008	-0,066
-670,335	-32,057	-0,048	-0,020
-669,320	800,000	0,045	0,095
-668,305	32,559	-0,092	-0,058
-667,291	-167,561	0,060	0,002
-666,276	17,979	-0,043	-0,025
-665,262	331,448	-0,092	-0,131
-664,247	800,000	-0,052	0,127
-663,232	72,487	0,120	-0,092
-662,218	331,265	-0,049	-0,069
-661,203	87,056	-0,082	-0,066
-660,189	800,000	-0,061	-0,137
-659,174	-200,000	-0,019	-0,072
-658,159	-135,973	-0,078	-0,007
-657,145	480,051	0,014	0,024
-656,130	139,203	-0,071	-0,068
-655,116	158,618	-0,124	0,126
-654,101	12,824	-0,131	0,074
-653,086	-112,776	0,087	0,013
-652,072	-79,660	0,056	0,014
-651,057	-200,000	-0,001	-0,053
-650,043	-133,064	0,112	-0,010
-649,028	30,388	-0,037	0,023
-648,014	-200,000	0,001	0,011
-646,999	395,119	0,027	0,042
-645,984	172,937	-0,063	0,066
-644,970	180,173	0,048	-0,052
-643,955	223,357	-0,054	-0,064
-642,941	-200,000	0,035	-0,166
-641,926	428,774	0,033	0,053
-640,911	351,912	0,066	0,097
-639,897	779,558	0,042	0,084
-638,882	-106,182	-0,006	-0,001
-637,868	-10,947	-0,058	-0,028
-636,853	215,880	0,078	-0,091
-635,838	-200,000	-0,011	-0,080
-634,824	-200,000	-0,019	0,086
-633,809	164,959	-0,053	0,055
-632,795	292,285	0,080	0,108
-631,780	299,259	0,039	-0,052
-630,765	203,417	0,060	0,068
-629,751	-140,654	-0,171	-0,013
-628,736	89,734	-0,061	0,050
-627,722	-97,768	0,046	-0,009
-626,707	54,870	-0,146	-0,103
-625,692	-146,557	0,044	-0,003
-624,678	-102,682	-0,042	0,007
-623,663	37,150	-0,156	-0,101
-622,649	460,548	-0,028	-0,046
-621,634	595,832	0,076	0,138
-620,619	511,055	0,038	-0,065
-619,605	28,207	0,091	0,056
-618,590	302,863	-0,027	0,036
-617,576	-112,794	-0,161	0,023
-616,561	-82,504	-0,017	-0,004
-615,546	204,126	0,026	0,029
-614,532	76,241	-0,117	-0,090
-613,517	-149,803	0,083	0,005
-612,503	-64,222	0,048	0,014
-611,488	346,124	-0,087	0,126
-610,474	-200,000	-0,008	-0,098
-609,459	646,814	0,058	-0,109
-608,444	-135,975	-0,013	-0,001
-607,430	30,001	0,115	0,072
-606,415	800,000	0,037	-0,091
-605,401	-55,502	-0,009	-0,003
-604,386	354,545	-0,064	-0,094
-603,371	-164,882	-0,022	0,001
-602,357	195,463	-0,048	0,054
-601,342	253,018	0,030	-0,037
-600,328	-93,774	0,117	0,024
-599,313	-62,970	-0,083	-0,025
-598,298	3,259	0,127	-0,068
-597,284	-37,842	-0,023	-0,009
-596,269	28,852	0,045	0,028
-595,255	-53,306	0,160	-0,054
-594,240	69,390	-0,102	-0,077
-593,225	-103,689	0,074	-0,013
-592,211	-39,843	-0,071	-0,027
-591,196	174,343	-0,033	0,035
-590,182	-112,817	0,044	-0,006
-589,167	151,200	0,067	0,066
-588,152	-80,172	0,102	0,025
-587,138	277,551	0,015	-0,019
-586,123	-200,000	-0,043	-0,157
-585,109	-81,287	-0,030	-0,007
-584,094	226,060	-0,132	0,157
-583,079	-45,227	-0,108	0,039
-582,065	-200,000	0,024	-0,082
-581,050	84,176	0,118	0,095
-580,036	130,854	-0,124	-0,117
-579,021	-200,000	-0,014	-0,046
-578,006	-200,000	0,012	0,079
-576,992	-53,867	-0,071	0,024
-575,977	-37,472	-0,065	0,025
-574,963	134,385	-0,105	-0,100
-573,948	792,940	0,061	-0,123
-572,934	295,673	0,065	-0,088
-571,919	-136,910	-0,127	-0,010
-570,904	-200,000	0,002	-0,075
-569,890	-200,000	-0,040	-0,134
-568,875	107,011	0,088	-0,077
-567,861	344,276	-0,041	-0,059
-566,846	-86,818	0,110	-0,024
-565,831	-5,648	-0,090	-0,045
-564,817	615,441	-0,065	-0,119
-563,802	204,695	-0,014	0,016
-562,788	-200,000	-0,024	-0,116
-561,773	800,000	0,030	-0,089
-560,758	89,398	0,031	-0,025
-559,744	4,826	0,085	0,046
-558,729	800,000	0,050	-0,155
-557,715	800,000	0,096	-0,232
-556,700	232,143	0,095	-0,115
-555,685	193,677	0,043	-0,047
-554,671	-83,414	0,078	-0,018
-553,656	-79,922	-0,074	0,018
-552,642	606,407	-0,062	-0,113
-551,627	-200,000	0,021	-0,174
-550,612	50,133	0,032	-0,022
-549,598	-138,000	-0,047	0,004
-548,583	-24,166	-0,107	0,046
-547,569	-46,476	-0,076	-0,027
-546,554	-200,000	0,008	0,084
-545,539	253,090	0,081	0,102
-544,525	-146,085	0,106	0,007
-543,510	-40,984	-0,083	0,031
-542,496	167,775	0,073	0,076
-541,481	-143,767	-0,071	-0,005
-540,466	136,645	-0,060	-0,057
-539,452	-22,237	0,105	-0,047
-538,437	800,000	0,052	0,143
-537,423	800,000	-0,030	0,074
-536,408	223,268	0,116	-0,137
-535,393	-4,005	0,062	-0,032
-534,379	14,270	0,110	0,063
-533,364	-200,000	0,009	-0,119
-532,350	-200,000	0,020	-0,103
-531,335	-200,000	-0,042	0,213
-530,321	-70,702	-0,013	0,004
-529,306	-158,665	0,157	0,006
-528,291	800,000	-0,014	0,036
-527,277	-33,079	-0,060	-0,024
-526,262	800,000	-0,028	0,088
-525,248	285,812	-0,048	0,064
-524,233	553,999	0,040	0,071
-523,218	647,036	0,046	0,086
-522,204	-38,563	-0,146	0,056
-521,189	-135,804	-0,081	0,007
-520,175	-200,000	0,011	-0,053
-519,160	-136,767	-0,072	-0,006
-518,145	388,127	0,037	0,057
-517,131	101,654	0,073	0,062
-516,116	183,690	0,108	0,117
-515,102	293,875	0,016	-0,022
-514,087	1,710	-0,030	0,016
-513,072	-200,000	0,025	-0,091
-512,058	-200,000	-0,001	0,005
-511,043	-200,000	0,004	-0,036
-510,029	-90,642	0,074	-0,015
-509,014	-59,785	-0,063	0,020
-507,999	-113,482	-0,157	0,022
-506,985	-200,000	0,015	0,101
-505,970	-200,000	-0,017	-0,073
-504,956	-104,499	-0,052	0,009
-503,941	417,618	-0,013	-0,020
-502,926	-200,000	-0,016	-0,067
-501,912	-166,618	-0,136	-0,004
-500,897	800,000	0,071	0,159
-499,883	-123,018	-0,165	-0,019
-498,868	-22,039	-0,072	0,032
-497,853	-0,368	0,026	0,013
-496,839	-200,000	-0,010	0,092
-495,824	730,791	-0,025	0,048
-494,810	-67,870	0,054	-0,015
-493,795	-130,815	0,064	-0,006
-492,781	-200,000	0,014	-0,058
-491,766	-135,809	-0,062	0,005
-490,751	46,007	-0,054	0,036
-489,737	88,861	0,078	-0,063
-488,722	732,103	0,048	-0,094
-487,708	-200,000	-0,005	-0,063
-486,693	-187,197	-0,043	0,000
-485,678	-16,000	-0,026	-0,012
-484,664	107,225	-0,112	0,097
-483,649	-48,935	-0,023	-0,008
-482,635	-33,450	0,048	-0,019
-481,620	30,578	-0,069	-0,043
-480,605	800,000	0,036	-0,100
-479,591	-200,000	0,009	0,093
-478,576	-158,374	0,107	-0,004
-477,562	-27,712	-0,107	0,045
-476,547	159,885	-0,058	-0,059
-475,532	-59,199	0,209	-0,065
-474,518	41,693	0,056	0,037
-473,503	139,731	-0,041	0,040
-472,489	-200,000	-0,020	0,083
-471,474	800,000	0,042	0,095
-470,459	184,840	-0,073	0,079
-469,445	-185,184	-0,122	-0,001
-468,430	56,147	-0,126	-0,089
-467,416	196,473	0,105	0,117
-466,401	60,754	0,084	0,061
-465,386	-200,000	0,041	0,152
-464,372	-151,092	-0,066	0,004
-463,357	-4,997	-0,097	0,049
-462,343	800,000	0,023	-0,054
-461,328	36,536	-0,043	-0,027
-460,313	-200,000	0,004	0,172
-459,299	-1,222	-0,144	0,074
-458,284	541,467	0,034	-0,059
-457,270	165,775	0,069	0,071
-456,255	189,844	-0,087	0,096
-455,241	-22,091	-0,089	-0,039
-454,226	-0,098	0,022	-0,012
-453,211	87,540	0,048	0,038
-452,197	398,110	0,077	0,117
-451,182	556,815	-0,021	0,037
-450,168	-200,000	0,005	-0,106
-449,153	-96,027	0,081	-0,015
-448,138	-132,326	0,081	0,008
-447,124	121,687	-0,104	-0,094
-446,109	743,230	0,032	-0,062
-445,095	-168,127	-0,169	-0,005
-444,080	403,987	0,069	0,107
-443,065	-200,000	-0,017	0,059
-442,051	-200,000	0,020	-0,070
-441,036	-200,000	-0,032	-0,137
-440,022	40,403	-0,082	0,053
-439,007	42,256	0,124	-0,082
-437,992	284,998	0,071	0,093
-436,978	-47,294	0,059	-0,021
-435,963	723,094	-0,006	-0,011
-434,949	-200,000	0,012	-0,059
-433,934	270,088	0,135	-0,174
-432,919	-16,299	-0,063	0,029
-431,905	-22,603	-0,042	-0,018
-430,890	-142,616	0,032	-0,002
-429,876	15,373	0,027	-0,015
-428,861	-200,000	0,030	0,125
-427,846	170,746	0,082	0,086
-426,832	-40,195	-0,112	-0,042
-425,817	-36,641	-0,133	0,052
-424,803	-200,000	-0,053	-0,195
-423,788	156,347	0,054	0,055
-422,773	15,297	-0,078	-0,045
-421,759	342,623	0,028	-0,040
-420,744	800,000	0,062	-0,185
-419,730	-200,000	-0,010	-0,048
-418,715	223,769	0,035	-0,041
-417,701	103,687	-0,020	0,017
-416,686	-200,000	-0,014	0,111
-415,671	800,000	-0,014	0,032
-414,657	8,834	0,041	-0,023
-413,642	800,000	-0,047	0,125
-412,628	156,328	-0,028	0,028
-411,613	118,738	-0,036	0,033
-410,598	-200,000	-0,011	-0,055
-409,584	-111,842	0,051	-0,007
-408,569	67,866	-0,111	0,083
-407,555	-200,000	0,002	0,065
-406,540	-183,423	-0,031	-0,000
-405,525	-200,000	0,009	0,086
-404,511	-102,330	0,093	-0,016
-403,496	10,317	0,186	0,103
-402,482	-200,000	-0,012	-0,042
-401,467	-40,631	0,070	-0,026
-400,452	-200,000	-0,003	0,049
-399,438	44,898	0,101	-0,067
-398,423	248,590	-0,094	0,116
-397,409	-153,481	-0,052	0,003
-396,394	-128,304	-0,079	0,008
-395,379	-109,179	0,098	-0,015
-394,365	109,320	0,036	-0,031
-393,350	-83,324	0,103	0,024
-392,336	800,000	-0,035	0,072
-391,321	-35,286	-0,132	0,052
-390,306	-200,000	0,028	-0,192
-389,292	102,687	0,077	0,065
-388,277	-2,904	0,088	-0,045
-387,263	-59,603	0,146	0,045
-386,248	800,000	0,052	0,140
-385,233	68,612	-0,045	-0,033
-384,219	13,321	-0,025	-0,014
-383,204	354,507	-0,016	0,023
-382,190	155,065	-0,074	-0,074
-381,175	-200,000	-0,012	-0,104
-380,160	259,009	-0,079	-0,099
-379,146	-200,000	0,006	0,067
-378,131	316,245	0,102	0,140
-377,117	-145,760	-0,076	0,005
-376,102	158,542	-0,015	0,015
-375,088	-98,698	-0,134	0,025
-374,073	-41,661	-0,155	-0,057
-373,058	-200,000	-0,019	-0,071
-372,044	-82,694	0,045	-0,011
-371,029	40,675	0,050	-0,033
-370,015	606,130	0,066	0,120
-369,000	110,600	-0,050	0,044
-367,985	203,693	0,061	0,068
-366,971	333,569	-0,148	0,209
-365,956	-200,000	-0,003	0,113
-364,942	-117,488	0,044	-0,006
-363,927	800,000	0,034	0,093
-362,912	622,706	0,018	-0,033
-361,898	-165,971	-0,066	0,002
-360,883	82,783	-0,023	-0,018
-359,869	271,869	0,054	0,069
-358,854	800,000	-0,033	0,067
-357,839	14,046	0,113	0,064
-356,825	69,020	0,064	-0,048
-355,810	-114,694	0,138	0,019
-354,796	-200,000	0,004	0,071
-353,781	17,658	-0,122	0,070
-352,766	800,000	-0,006	0,015
-351,752	200,354	-0,063	-0,070
-350,737	118,288	-0,030	0,027
-349,723	-200,000	-0,010	0,090
-348,708	-200,000	-0,087	-0,000
-347,693	-144,801	-0,110	0,007
-346,679	288,556	-0,062	-0,081
-345,664	-200,000	0,001	-0,159
-344,650	-200,000	-0,004	-0,032
-343,635	-90,309	-0,030	0,006
-342,620	-90,328	0,146	0,031
-341,606	75,466	0,071	-0,054
-340,591	-164,187	-0,052	0,002
-339,577	52,964	0,067	0,047
-338,562	800,000	-0,022	-0,067
-337,548	169,324	-0,074	-0,077
-336,533	24,929	0,023	-0,014
-335,518	-20,965	0,172	0,076
-334,504	595,587	-0,026	0,047
-333,489	-21,484	-0,069	-0,031
-332,475	-200,000	0,007	-0,112
-331,460	218,335	0,108	0,126
-330,445	800,000	-0,014	0,031
-329,431	71,551	0,026	0,020
-328,416	-200,000	0,000	0,137
-327,402	-200,000	0,040	0,141
-326,387	247,862	-0,115	-0,141
-325,372	86,639	0,123	0,098
-324,358	26,018	-0,075	-0,045
-323,343	104,799	0,073	0,062
-322,329	-150,257	-0,094	-0,005
-321,314	81,866	0,099	0,078
-320,299	104,634	0,179	0,153
-319,285	800,000	-0,069	0,191
-318,270	-85,055	0,108	0,024
-317,256	582,098	-0,060	-0,108
-316,241	-80,899	0,103	0,025
-315,226	-200,000	-0,032	-0,107
-314,212	47,057	0,062	0,041
-313,197	-119,935	0,064	-0,008
-312,183	800,000	-0,074	-0,150
-311,168	85,126	0,027	-0,021
-310,153	151,575	-0,062	-0,061
-309,139	279,200	0,016	-0,021
-308,124	44,763	0,067	-0,044
-307,110	-49,228	0,094	-0,032
-306,095	800,000	0,054	-0,140
-305,080	72,076	-0,025	-0,019
-304,066	55,944	0,070	0,049
-303,051	81,614	-0,097	-0,076
-302,037	-200,000	-0,010	-0,079
-301,022	775,866	-0,044	-0,088
-300,008	-200,000	-0,013	-0,058
-298,993	800,000	0,039	0,119
-297,978	800,000	-0,037	-0,083
-296,964	251,324	-0,068	0,084
-295,949	466,077	-0,087	-0,142
-294,935	-99,884	-0,127	0,023
-293,920	-45,069	-0,040	0,014
-292,905	800,000	-0,029	-0,088
-291,891	-53,876	-0,075	-0,025
-290,876	180,600	0,075	0,080
-289,862	762,289	-0,047	0,093
-288,847	800,000	0,062	-0,149
-287,832	152,292	0,060	-0,059
-286,818	-200,000	0,007	-0,056
-285,803	-86,328	0,109	-0,024
-284,789	303,528	0,078	-0,105
-283,774	211,249	0,045	-0,052
-282,759	-183,912	0,086	-0,001
-281,745	85,114	-0,072	-0,057
-280,730	800,000	-0,022	-0,062
-279,716	61,113	0,069	0,050
-278,701	81,839	0,183	0,143
-277,686	323,914	0,040	0,056
-276,672	-129,029	-0,105	0,011
-275,657	288,404	-0,032	0,042
-274,643	-200,000	0,005	-0,051
-273,628	-200,000	-0,008	-0,061
-272,613	236,550	-0,035	0,042
-271,599	-200,000	0,010	0,154
-270,584	-200,000	-0,027	0,111
-269,570	80,873	-0,085	-0,066
-268,555	33,261	0,100	-0,063
-267,540	27,308	0,127	-0,077
-266,526	800,000	-0,053	-0,135
-265,511	-110,732	0,041	0,006
-264,497	-59,622	0,058	-0,018
-263,482	-79,966	0,208	0,050
-262,467	800,000	-0,026	0,053
-261,453	204,851	0,015	-0,017
-260,438	81,732	-0,155	0,121
-259,424	-200,000	0,005	-0,031
-258,409	-111,900	-0,124	-0,018
-257,395	79,172	-0,067	0,052
-256,380	-200,000	-0,013	0,117
-255,365	800,000	0,039	-0,097
-254,351	110,413	-0,100	-0,087
-253,336	-200,000	0,011	0,067
-252,322	46,674	-0,170	-0,114
-251,307	-200,000	0,005	-0,062
-250,292	-83,154	0,039	-0,009
-249,278	-200,000	-0,004	0,065
-248,263	-110,613	-0,105	0,016
-247,249	-14,781	0,117	0,054
-246,234	-76,504	-0,010	0,003
-245,219	-121,031	-0,050	0,006
-244,205	127,763	-0,088	-0,081
-243,190	52,136	0,014	0,010
-242,176	800,000	0,042	0,095
-241,161	-145,233	0,082	-0,005
-240,146	-78,884	0,032	0,008
-239,132	-200,000	-0,005	0,140
-238,117	-63,129	-0,131	-0,039
-237,103	151,639	0,044	-0,044
-236,088	-68,172	0,067	-0,019
-235,073	-200,000	0,001	0,090
-234,059	-72,674	0,199	-0,053
-233,044	-200,000	0,033	0,186
-232,030	-85,479	0,082	-0,018
-231,015	617,512	-0,040	0,073
-230,000	671,304	-0,063	-0,119
-228,986	-200,000	0,026	-0,152
-227,971	238,223	0,073	-0,088
-226,957	800,000	0,075	-0,188
-225,942	-33,317	0,107	0,043
-224,927	-45,011	-0,165	0,059
-223,913	-200,000	-0,002	-0,055
-222,898	-95,501	-0,039	-0,007
-221,884	-200,000	-0,028	-0,152
-220,869	-94,128	0,100	-0,020
-219,855	18,259	0,005	-0,003
-218,840	-200,000	-0,018	0,074
-217,825	-78,986	-0,128	-0,031
-216,811	308,649	-0,040	-0,054
-215,796	35,444	-0,030	0,019
-214,782	175,963	-0,060	-0,063
-213,767	210,715	-0,046	-0,052
-212,752	351,366	-0,026	-0,038
-211,738	-200,000	0,011	0,113
-210,723	155,048	0,089	0,088
-209,709	-16,436	0,043	0,019
-208,694	-200,000	0,010	-0,105
-207,679	-200,000	0,002	-0,145
-206,665	-63,215	-0,051	-0,015
-205,650	251,184	0,082	0,101
-204,636	-128,954	-0,108	0,011
-203,621	800,000	0,026	0,061
-202,606	226,546	0,043	0,050
-201,592	55,180	-0,075	-0,053
-200,577	-200,000	-0,002	-0,091
-199,563	187,562	-0,009	-0,009
-198,548	-200,000	0,002	-0,060
-197,533	-200,000	-0,005	0,076
-196,519	800,000	-0,008	0,020
-195,504	160,799	0,034	0,034
-194,490	-200,000	-0,006	0,040
-193,475	-200,000	-0,018	0,098
-192,460	800,000	0,025	-0,071
-191,446	-79,452	-0,004	-0,001
-190,431	-200,000	0,006	0,035
-189,417	-200,000	-0,007	0,026
-188,402	800,000	0,036	-0,085
-187,387	800,000	0,038	0,100
-186,373	53,710	0,051	-0,035
-185,358	800,000	-0,041	0,094
-184,344	-200,000	-0,014	0,056
-183,329	-200,000	-0,007	0,074
-182,315	76,098	-0,070	0,053
-181,300	122,787	0,090	-0,081
-180,285	800,000	-0,020	0,046
-179,271	279,559	-0,101	-0,131
-178,256	151,170	-0,048	0,047
-177,242	0,860	0,026	-0,013
-176,227	352,897	-0,065	-0,094
-175,212	90,695	0,083	0,067
-174,198	-200,000	0,017	0,057
-173,183	8,020	0,026	-0,014
-172,169	800,000	0,059	-0,147
-171,154	-200,000	0,003	-0,110
-170,139	241,336	-0,051	0,061
-169,125	-200,000	-0,003	0,048
-168,110	-200,000	-0,029	0,159
-167,096	-57,187	-0,016	-0,005
-166,081	-200,000	0,022	0,200
-165,066	-104,352	-0,004	-0,001
-164,052	-28,709	-0,148	0,061
-163,037	800,000	-0,023	0,072
-162,023	31,514	0,167	0,104
-161,008	-135,823	-0,083	-0,007
-159,993	141,432	-0,104	0,100
-158,979	-200,000	0,010	-0,102
-157,964	-116,864	-0,181	-0,024
-156,950	409,327	-0,041	-0,062
-155,935	-200,000	0,015	0,073
-154,920	-90,442	0,156	-0,032
-153,906	125,635	-0,073	-0,066
-152,891	-34,025	0,158	0,062
-151,877	23,115	-0,094	-0,056
-150,862	-60,625	-0,065	-0,020
-149,847	-99,535	0,056	-0,010
-148,833	-93,776	-0,097	-0,019
-147,818	-200,000	-0,015	-0,080
-146,804	-39,346	0,087	-0,033
-145,789	-200,000	0,006	0,149
-144,775	-137,268	-0,060	-0,005
-143,760	274,284	0,003	0,004
-142,745	800,000	-0,035	-0,079
-141,731	26,822	-0,019	-0,012
-140,716	-1,158	-0,146	-0,074
-139,702	800,000	-0,058	0,153
-138,687	351,886	0,021	0,030
-137,672	141,959	0,123	0,118
-136,658	51,035	-0,031	-0,021
-135,643	-189,441	-0,094	-0,001
-134,629	68,882	0,055	-0,041
-133,614	644,333	-0,087	0,160
-132,599	479,857	-0,071	-0,116
-131,585	-35,087	0,080	-0,031
-130,570	497,449	-0,033	0,054
-129,556	287,279	0,007	0,009
-128,541	800,000	-0,050	-0,134
-127,526	800,000	0,012	0,030
-126,512	-200,000	0,006	-0,139
-125,497	-35,082	0,120	0,047
-124,483	-99,486	0,036	0,006
-123,468	548,894	-0,051	0,089
-122,453	800,000	0,013	-0,029
-121,439	395,735	-0,030	-0,045
-120,424	105,252	0,007	-0,006
-119,410	-10,283	0,048	-0,023
-118,395	-200,000	0,035	-0,162
-117,380	-200,000	0,013	0,150
-116,366	179,129	-0,041	0,043
-115,351	-79,095	-0,138	0,034
-114,337	54,700	0,082	0,057
-113,322	70,330	-0,066	0,049
-112,307	45,090	-0,085	0,057
-111,293	-200,000	-0,029	0,098
-110,278	-0,274	0,067	-0,034
-109,264	-170,222	-0,169	0,004
-108,249	206,771	-0,082	-0,092
-107,234	109,743	-0,118	-0,102
-106,220	800,000	-0,028	0,075
-105,205	209,127	0,054	-0,061
-104,191	-200,000	0,014	-0,131
-103,176	800,000	-0,047	0,133
-102,162	-200,000	0,002	-0,106
-101,147	-82,043	0,058	0,013
-100,132	338,056	-0,096	-0,135
-99,118	-200,000	0,002	-0,064
-98,103	-148,110	0,067	-0,004
-97,089	-103,677	0,143	-0,024
-96,074	-42,507	0,174	0,064
-95,059	415,485	-0,042	0,065
-94,045	-117,855	0,103	-0,013
-93,030	-150,960	0,190	0,010
-92,016	348,944	-0,024	-0,034
-91,001	-17,693	-0,128	-0,058
-89,986	323,060	0,057	0,078
-88,972	800,000	0,041	0,101
-87,957	-200,000	0,016	-0,183
-86,943	800,000	0,023	0,048
-85,928	-200,000	0,020	-0,207
-84,913	100,220	-0,144	-0,120
-83,899	-11,078	-0,127	-0,060
-82,884	-52,913	-0,013	-0,004
-81,870	-200,000	0,030	0,100
-80,855	237,740	0,018	0,022
-79,840	-11,228	0,036	-0,017
-78,826	430,921	-0,056	-0,088
-77,811	410,251	0,102	-0,156
-76,797	146,556	-0,115	-0,111
-75,782	-200,000	0,012	-0,081
-74,767	-200,000	-0,006	-0,180
-73,753	800,000	-0,020	-0,049
-72,738	103,426	-0,047	0,040
-71,724	51,256	-0,127	-0,086
-70,709	800,000	-0,043	-0,113
-69,694	-79,475	-0,163	0,039
-68,680	-86,117	-0,192	0,042
-67,665	-75,758	-0,046	0,012
-66,651	529,655	-0,084	0,143
-65,636	-66,918	0,062	0,018
-64,622	28,555	-0,042	-0,026
-63,607	-80,668	-0,073	-0,017
-62,592	268,288	0,025	-0,032
-61,578	-40,718	0,069	0,026
-60,563	217,735	0,022	-0,025
-59,549	-102,979	-0,061	-0,010
-58,534	-0,109	-1,963	-1,000
-57,519	-200,000	-0,167	-0,908
-56,505	-200,000	-1,127	-4,879
-55,490	16,024	0,743	0,419
-54,476	800,000	5,374	12,148
-53,461	-200,000	17,616	283,714
-52,446	800,000	727,713	2214,813
-51,432	534,852	1643,699	2807,698
-50,417	110,096	1633,945	1407,267
-49,403	75,624	1286,630	974,234
-48,388	32,086	1027,661	634,426
-47,373	20,165	989,734	571,695
-46,359	18,493	977,569	559,164
-45,344	15,734	973,533	547,805
-44,330	15,935	972,127	547,648
-43,315	15,429	970,096	544,832
-42,300	15,339	969,175	544,000
-41,286	15,388	968,107	543,538
-40,271	15,421	966,971	542,986
-39,257	15,446	965,943	542,468
-38,242	15,362	965,299	541,813
-37,227	15,385	964,581	541,462
-36,213	15,363	963,612	540,827
-35,198	15,382	962,676	540,340
-34,184	15,437	962,010	540,122
-33,169	15,353	961,065	539,300
-32,154	15,423	960,090	538,956
-31,140	15,414	959,232	538,425
-30,125	15,380	958,445	537,852
-29,111	15,412	957,623	537,472
-28,096	15,422	957,182	537,236
-27,082	15,492	956,226	536,905
-26,067	15,421	955,553	536,277
-25,052	15,426	954,671	535,777
-24,038	15,415	954,105	535,401
-23,023	15,422	953,576	535,106
-22,009	15,451	952,729	534,701
-20,994	15,397	952,165	534,192
-19,979	15,365	951,625	533,766
-18,965	15,426	950,912	533,540
-17,950	15,418	950,372	533,190
-16,936	15,316	949,717	532,476
-15,921	15,298	949,004	531,995
-14,906	15,264	948,339	531,494
-13,892	15,306	947,718	531,258
-12,877	15,265	947,169	530,800
-11,863	15,254	946,495	530,367
-10,848	15,290	945,932	530,143
-9,833	15,389	945,175	530,013
-8,819	15,335	944,805	529,614
-7,804	15,311	944,252	529,205
-6,790	15,270	943,609	528,693
-5,775	15,279	943,181	528,461
-4,760	15,284	942,360	527,996
-3,746	15,346	941,809	527,862
-2,731	15,169	941,038	526,852
-1,717	15,150	940,351	526,384
-0,702	15,153	939,776	526,051
0,313	14,904	939,076	525,669
1,327	18,100	936,850	534,441
2,342	26,826	794,406	476,308
3,356	23,427	459,606	270,339
4,371	-3,403	315,503	156,957
5,386	-7,475	297,304	143,754
6,400	-9,469	291,146	138,778
7,415	-9,615	288,569	137,393
8,429	-10,134	287,301	136,267
9,444	-10,020	286,409	135,943
10,459	-10,001	285,751	135,638
11,473	-9,909	285,201	135,454
12,488	-9,933	284,655	135,160
13,502	-9,967	284,224	134,910
14,517	-10,009	283,890	134,698
15,531	-10,041	283,232	134,343
16,546	-9,793	282,889	134,409
17,561	-10,037	282,611	134,029
18,575	-9,822	282,050	133,959
19,590	-9,942	281,766	133,696
20,604	-9,800	281,378	133,636
21,619	-10,013	281,071	133,274
22,634	-10,060	280,844	133,109
23,648	-9,865	280,296	133,024
24,663	-9,796	280,094	132,983
25,677	-9,804	279,879	132,861
26,692	-9,917	279,606	132,612
27,707	-9,877	279,300	132,493
28,721	-9,966	279,243	132,369
29,736	-9,990	278,827	132,137
30,750	-10,137	278,597	131,877
31,765	-9,996	278,387	131,900
32,780	-9,924	278,082	131,812
33,794	-10,103	277,966	131,575
34,809	-9,902	277,474	131,521
35,823	-9,943	277,284	131,381
36,838	-9,921	277,199	131,349
37,853	-9,786	276,845	131,298
38,867	-10,162	276,662	130,844
39,882	-9,995	276,338	130,836
40,896	-9,905	276,132	130,812
41,911	-9,894	275,774	130,641
42,926	-9,952	275,574	130,480
43,940	-10,091	275,411	130,260
44,955	-10,128	275,233	130,131
45,969	-9,945	274,746	130,060
46,984	-10,256	274,729	129,749
47,999	-10,379	274,417	129,475
49,013	-10,601	274,188	129,147
50,028	-10,726	273,907	128,886
51,042	-10,746	273,637	128,730
52,057	-10,767	273,270	128,526
53,071	-10,767	273,109	128,439
54,086	-10,603	273,047	128,551
55,101	-10,295	272,591	128,611
56,115	-10,137	272,542	128,723
57,130	-10,074	272,571	128,784
58,144	-9,924	272,238	128,754
59,159	-9,857	272,036	128,709
60,174	-9,815	271,846	128,646
61,188	-9,879	271,594	128,457
62,203	-9,878	271,522	128,412
63,217	-9,944	271,161	128,169
64,232	-9,799	271,095	128,260
65,247	-9,950	270,687	127,917
66,261	-10,027	270,464	127,729
67,276	-10,082	270,130	127,510
68,290	-10,111	269,883	127,354
69,305	-10,373	269,736	127,033
70,320	-10,136	269,609	127,179
71,334	-9,943	269,372	127,234
72,349	-9,774	269,033	127,217
73,363	-9,883	268,894	127,040
74,378	-9,891	268,719	126,938
75,393	-9,834	268,433	126,844
76,407	-9,965	268,306	126,653
77,422	-9,894	268,095	126,608
78,436	-9,862	267,927	126,546
79,451	-9,787	267,590	126,443
80,466	-9,934	267,402	126,209
81,480	-9,939	267,126	126,064
82,495	-10,166	267,019	125,796
83,509	-9,939	266,754	125,866
84,524	-9,924	266,549	125,771
85,539	-10,083	266,302	125,500
86,553	-10,094	266,133	125,399
87,568	-10,138	265,857	125,217
88,582	-10,096	265,664	125,153
89,597	-9,868	265,529	125,285
90,611	-10,056	265,369	125,029
91,626	-9,900	265,236	125,095
92,641	-10,022	265,054	124,889
93,655	-9,854	264,758	124,889
94,670	-9,830	264,471	124,763
95,684	-10,147	264,421	124,444
96,699	-10,039	264,222	124,437
97,714	-9,931	263,955	124,396
98,728	-10,062	263,664	124,131
99,743	-10,317	263,534	123,830
100,757	-10,116	263,182	123,834
101,772	-10,225	263,017	123,648
102,787	-10,014	262,890	123,765
103,801	-9,995	262,706	123,685
104,816	-10,114	262,594	123,515
105,830	-9,847	262,479	123,687
106,845	-9,772	262,142	123,584
107,860	-9,905	261,947	123,363
108,874	-9,899	261,776	123,277
109,889	-9,995	261,660	123,126
110,903	-9,820	261,263	123,083
111,918	-10,167	261,255	122,761
112,933	-10,108	261,092	122,726
113,947	-9,738	260,856	122,931
114,962	-9,812	260,626	122,747
115,976	-9,777	260,350	122,637
116,991	-10,057	260,296	122,354
118,006	-9,805	260,029	122,439
119,020	-9,993	260,023	122,259
120,035	-9,849	259,804	122,272
121,049	-9,780	259,437	122,150
122,064	-9,816	259,374	122,077
123,079	-9,782	259,186	122,008
124,093	-9,934	259,099	121,822
125,108	-10,034	258,754	121,562
126,122	-10,257	258,565	121,267
127,137	-10,287	258,355	121,131
128,151	-9,997	257,963	121,190
129,166	-10,082	257,909	121,080
130,181	-10,130	257,800	120,976
131,195	-10,127	257,500	120,827
132,210	-9,908	257,437	120,977
133,224	-9,853	257,326	120,962
134,239	-9,850	257,085	120,841
135,254	-9,823	256,859	120,747
136,268	-10,024	256,616	120,447
137,283	-10,243	256,328	120,112
138,297	-10,257	256,292	120,072
139,312	-10,404	256,012	119,803
140,327	-9,991	255,748	120,026
141,341	-9,892	255,736	120,095
142,356	-9,741	255,594	120,148
143,370	-9,754	255,404	120,037
144,385	-9,487	255,158	120,141
145,400	-9,686	255,059	119,912
146,414	-9,750	254,840	119,744
147,429	-9,858	254,696	119,572
148,443	-9,707	254,488	119,594
149,458	-9,730	254,364	119,505
150,473	-9,704	254,088	119,387
151,487	-9,871	254,083	119,231
152,502	-9,559	253,658	119,288
153,516	-9,801	253,583	119,034
154,531	-9,617	253,266	119,033
155,546	-9,824	253,138	118,785
156,560	-9,624	253,004	118,883
157,575	-9,784	252,717	118,601
158,589	-9,733	252,540	118,550
159,604	-9,683	252,424	118,528
160,619	-9,744	252,185	118,353
161,633	-9,765	251,981	118,229
162,648	-9,759	251,978	118,222
163,662	-9,728	251,953	118,227
164,677	-9,668	251,581	118,092
165,692	-9,689	251,542	118,046
166,706	-9,610	251,285	117,981
167,721	-9,727	251,036	117,755
168,735	-9,797	250,962	117,650
169,750	-9,746	250,877	117,643
170,764	-9,558	250,536	117,632
171,779	-9,735	250,423	117,419
172,794	-9,749	250,338	117,356
173,808	-9,881	250,207	117,173
174,823	-10,131	249,839	116,779
175,837	-10,353	249,633	116,486
176,852	-9,811	249,581	116,907
177,867	-9,898	249,395	116,737
178,881	-9,560	249,131	116,887
179,896	-9,691	249,144	116,773
180,910	-9,307	248,787	116,916
181,925	-9,653	248,741	116,595
182,940	-9,737	248,644	116,468
183,954	-9,591	248,434	116,482
184,969	-9,645	248,328	116,376
185,983	-9,651	248,103	116,256
186,998	-9,484	247,831	116,257
188,013	-9,807	247,758	115,944
189,027	-9,563	247,448	115,991
190,042	-9,666	247,404	115,875
191,056	-9,584	247,258	115,864
192,071	-9,731	246,974	115,599
193,086	-9,802	246,874	115,482
194,100	-9,835	246,781	115,401
195,115	-9,683	246,553	115,410
196,129	-9,525	246,248	115,388
197,144	-9,724	246,135	115,160
198,159	-9,683	246,010	115,125
199,173	-9,591	245,696	115,044
200,188	-9,751	245,483	114,802
201,202	-9,872	245,332	114,620
202,217	-10,091	245,002	114,276
203,232	-10,137	244,684	114,080
204,246	-9,761	244,699	114,386
205,261	-9,472	244,681	114,605
206,275	-10,541	244,205	113,494
207,290	-7,582	245,446	116,503
208,304	-0,624	247,696	123,339
209,319	3,393	248,794	127,214
210,334	3,716	248,819	127,485
211,348	4,047	248,699	127,686
212,363	3,996	248,659	127,612
213,377	4,320	248,442	127,758
214,392	4,140	248,128	127,436
215,407	3,959	248,113	127,267
216,421	4,052	247,739	127,141
217,436	4,325	247,901	127,438
218,450	4,272	247,671	127,265
219,465	3,979	247,380	126,863
220,480	3,872	247,266	126,704
221,494	3,757	247,073	126,500
222,509	3,668	247,006	126,381
223,523	3,675	246,636	126,186
224,538	3,280	246,434	125,747
225,553	3,382	246,292	125,746
226,567	3,583	246,153	125,830
227,582	3,762	246,106	125,941
228,596	3,749	245,944	125,836
229,611	3,441	245,678	125,437
230,626	3,262	245,519	125,198
231,640	3,704	245,252	125,412
232,655	3,458	245,213	125,180
233,669	3,651	244,860	125,146
234,684	3,530	244,648	124,928
235,699	3,834	244,768	125,225
236,713	3,808	244,772	125,195
237,728	3,526	244,336	124,732
238,742	3,470	244,188	124,600
239,757	3,470	243,930	124,457
240,772	3,533	243,820	124,441
241,786	3,539	243,783	124,416
242,801	3,487	243,450	124,192
243,815	3,528	243,338	124,157
244,830	3,541	243,378	124,178
245,844	3,754	243,193	124,244
246,859	3,343	242,973	123,788
247,874	3,415	242,738	123,716
248,888	3,480	242,703	123,739
249,903	3,624	242,497	123,740
250,917	3,596	242,366	123,639
251,932	3,801	242,210	123,713
252,947	3,703	242,055	123,544
253,961	3,600	241,754	123,297
254,976	3,863	241,603	123,421
255,990	3,946	241,553	123,450
257,005	3,711	241,241	123,092
258,020	3,428	241,137	122,801
259,034	3,395	241,137	122,763
260,049	3,682	240,916	122,870
261,063	3,469	240,671	122,563
262,078	3,336	240,411	122,314
263,093	3,702	240,449	122,615
264,107	3,797	240,232	122,569
265,122	3,655	240,107	122,381
266,136	3,684	239,934	122,305
267,151	3,825	239,897	122,388
268,166	3,553	239,634	122,026
269,180	3,323	239,582	121,806
270,195	4,012	239,541	122,322
271,209	4,079	239,358	122,271
272,224	3,648	239,057	121,764
273,239	3,541	238,834	121,555
274,253	3,584	238,633	121,476
275,268	3,730	238,650	121,589
276,282	3,790	238,453	121,525
277,297	3,245	238,247	120,979
278,312	3,321	238,182	120,995
279,326	3,695	237,936	121,154
280,341	3,952	237,785	121,270
281,355	3,620	237,706	120,957
282,370	3,823	237,624	121,064
283,384	3,713	237,432	120,869
284,399	3,420	237,175	120,497
285,414	3,286	237,047	120,316
286,428	3,417	236,985	120,377
287,443	3,435	236,797	120,284
288,457	3,582	236,589	120,284
289,472	3,807	236,378	120,342
290,487	3,709	236,320	120,225
291,501	3,409	236,116	119,875
292,516	3,329	235,851	119,667
293,530	3,178	235,766	119,496
294,545	3,614	235,711	119,798
295,560	3,522	235,559	119,638
296,574	3,443	235,376	119,473
297,589	3,378	235,314	119,380
298,603	4,005	235,225	119,812
299,618	3,956	235,031	119,665
300,633	3,711	234,756	119,324
301,647	3,629	234,895	119,320
302,662	4,258	234,673	119,685
303,676	4,205	234,394	119,491
304,691	3,980	234,292	119,254
305,706	3,866	234,302	119,160
306,720	3,972	234,077	119,117
307,735	3,879	233,916	118,953
308,749	3,674	233,753	118,700
309,764	3,438	233,529	118,394
310,779	3,355	233,419	118,263
311,793	3,249	233,017	117,968
312,808	3,361	232,844	117,956
313,822	3,497	232,691	117,973
314,837	3,411	232,626	117,863
315,852	3,396	232,447	117,750
316,866	3,688	232,385	117,933
317,881	3,900	232,256	118,020
318,895	3,823	232,212	117,927
319,910	3,839	232,126	117,885
320,925	3,668	231,827	117,592
321,939	3,350	231,672	117,259
322,954	3,766	231,531	117,496
323,968	3,448	231,338	117,144
324,983	3,278	231,190	116,929
325,997	3,689	231,111	117,192
327,012	3,853	231,003	117,253
328,027	3,712	230,850	117,057
329,041	3,692	230,705	116,958
330,056	4,141	230,681	117,277
331,070	4,098	230,382	117,082
332,085	4,129	230,295	117,051
333,100	4,244	230,043	116,999
334,114	3,898	229,889	116,648
335,129	3,909	229,952	116,678
336,143	4,054	229,730	116,665
337,158	3,890	229,652	116,491
338,173	3,853	229,555	116,403
339,187	3,820	229,309	116,243
340,202	3,937	229,206	116,269
341,216	3,839	228,964	116,062
342,231	3,591	228,856	115,810
343,246	3,567	228,708	115,707
344,260	3,829	228,534	115,805
345,275	3,970	228,501	115,885
346,289	3,937	228,358	115,777
347,304	3,917	228,347	115,746
348,319	4,073	228,037	115,696
349,333	3,735	227,909	115,367
350,348	3,785	227,680	115,278
351,362	3,893	227,493	115,254
352,377	3,503	227,276	114,841
353,392	3,462	227,246	114,786
354,406	3,563	227,058	114,756
355,421	193,993	1323,620	1395,541
356,435	155,456	1457,220	1395,525
