DTS Sentinel unit serial number:	SN410029Multiplexer serial number:	ORYXHardware model number:	OX2-SRSoftware version number:	ORYX F/W v4,00 Oryx Data Collector v3.7.2.0data status	okinstallation	B5 Nyhavnadifferential loss correction	single-endedforward channel	channel 2reverse channel	N/Adate	2023/12/11time	22:27:13forward acquisition time	300,00reverse acquisition time	0,00gamma	499,1914k internal	0,3156k external	0,3156temperature offset calibration	1,0000default loss term (dB/km)	0,3820temperature slope calibration	1,0000multiplexer offset coefficient	1,0000multiplexer slope coefficient	1,0000fibre end	0,00T internal ref (°C)	16,31T ext. ref 1 (°C)	0,12T ext. ref 2 (°C)	-0,14length (m)	temperature (°C)	Stokes	anti-Stokes-744,400	333,619	0,054	0,078
-743,385	-16,606	-0,316	-0,147
-742,371	178,651	0,217	0,234
-741,356	-40,456	-0,222	0,085
-740,342	452,773	0,062	0,102
-739,327	-47,052	-0,313	0,112
-738,312	-74,127	0,060	0,016
-737,298	-107,703	-0,301	0,048
-736,283	115,921	0,075	0,068
-735,269	-118,680	-0,257	0,033
-734,254	36,186	0,063	0,041
-733,239	-78,644	-0,442	-0,110
-732,225	800,000	-0,020	0,059
-731,210	380,918	-0,008	-0,012
-730,196	-91,010	-0,055	0,012
-729,181	800,000	0,047	-0,113
-728,167	-200,000	0,019	0,119
-727,152	6,418	-0,126	-0,069
-726,137	21,074	-0,067	0,040
-725,123	540,441	-0,073	-0,129
-724,108	800,000	-0,058	-0,140
-723,094	-72,658	-0,026	-0,007
-722,079	-200,000	-0,017	-0,069
-721,064	-200,000	-0,016	-0,061
-720,050	254,759	-0,080	0,101
-719,035	-200,000	0,024	0,090
-718,021	-113,061	-0,131	-0,019
-717,006	-161,968	-0,213	-0,008
-715,991	-200,000	0,019	-0,092
-714,977	-31,701	-0,102	-0,042
-713,962	-50,077	-0,035	0,012
-712,948	467,172	0,039	-0,064
-711,933	220,196	-0,053	0,063
-710,918	228,435	-0,023	0,028
-709,904	-151,057	-0,123	-0,007
-708,889	40,724	0,082	-0,054
-707,875	800,000	0,011	-0,036
-706,860	-116,561	-0,079	-0,011
-705,845	205,973	0,087	0,100
-704,831	222,588	0,041	0,049
-703,816	-118,532	0,036	-0,005
-702,802	-92,707	0,082	-0,017
-701,787	67,696	0,109	-0,082
-700,772	44,332	0,064	-0,044
-699,758	45,724	0,027	-0,019
-698,743	19,457	0,068	0,040
-697,729	122,982	0,063	0,058
-696,714	377,514	0,048	-0,073
-695,699	-89,283	0,016	-0,003
-694,685	299,038	-0,067	0,091
-693,670	-128,508	-0,145	-0,015
-692,656	-148,179	0,076	0,005
-691,641	-200,000	-0,002	-0,051
-690,627	-200,000	0,012	-0,054
-689,612	80,058	-0,077	-0,061
-688,597	800,000	-0,013	0,036
-687,583	-200,000	0,023	-0,128
-686,568	181,787	-0,044	-0,047
-685,554	311,776	-0,031	-0,043
-684,539	193,149	0,027	-0,030
-683,524	-200,000	0,001	-0,053
-682,510	244,740	0,042	-0,052
-681,495	5,286	0,055	0,030
-680,481	41,311	-0,098	-0,065
-679,466	-200,000	0,031	-0,156
-678,451	438,730	-0,026	-0,042
-677,437	753,521	-0,049	0,097
-676,422	-99,102	0,081	-0,015
-675,408	-78,915	0,013	-0,003
-674,393	106,226	-0,103	-0,090
-673,378	199,948	-0,067	-0,076
-672,364	-61,002	-0,077	0,024
-671,349	-91,684	0,033	-0,007
-670,335	392,770	0,057	-0,087
-669,320	90,233	0,029	-0,024
-668,305	217,880	0,086	-0,101
-667,291	89,252	-0,045	-0,037
-666,276	-129,825	0,087	0,009
-665,262	147,846	-0,103	-0,103
-664,247	68,565	0,152	-0,115
-663,232	30,699	-0,083	0,052
-662,218	-40,959	0,091	-0,035
-661,203	680,144	-0,046	0,089
-660,189	800,000	-0,058	-0,174
-659,174	-200,000	-0,019	0,071
-658,159	-99,176	0,036	0,007
-657,145	-200,000	-0,013	0,055
-656,130	800,000	-0,010	0,024
-655,116	-200,000	0,010	-0,049
-654,101	0,283	0,171	0,089
-653,086	-179,518	-0,096	0,002
-652,072	-92,313	-0,112	-0,023
-651,057	562,590	-0,061	-0,109
-650,043	197,823	-0,050	-0,056
-649,028	-200,000	-0,011	-0,036
-648,014	-68,259	0,050	0,014
-646,999	800,000	-0,066	0,139
-645,984	-200,000	-0,005	-0,034
-644,970	800,000	-0,029	0,072
-643,955	-17,859	-0,119	-0,054
-642,941	800,000	0,037	-0,088
-641,926	137,581	-0,057	-0,054
-640,911	3,106	-0,085	-0,045
-639,897	-63,697	0,092	0,028
-638,882	-4,200	-0,127	-0,064
-637,868	239,780	0,035	0,043
-636,853	-92,963	-0,106	0,022
-635,838	64,269	-0,131	-0,096
-634,824	392,056	-0,064	-0,098
-633,809	-200,000	-0,007	0,036
-632,795	502,781	0,106	-0,181
-631,780	7,193	0,080	0,044
-630,765	-23,680	-0,085	0,037
-629,751	-200,000	0,009	-0,063
-628,736	131,893	-0,090	0,085
-627,722	13,318	-0,090	0,051
-626,707	12,785	-0,086	-0,048
-625,692	-200,000	-0,010	-0,055
-624,678	-21,564	-0,132	-0,059
-623,663	800,000	-0,078	-0,174
-622,649	486,212	0,038	-0,065
-621,634	332,281	-0,072	-0,103
-620,619	698,410	0,039	-0,076
-619,605	601,165	0,073	-0,134
-618,590	331,608	0,098	0,139
-617,576	-54,021	0,044	0,015
-616,561	-160,600	0,068	0,003
-615,546	-145,727	-0,081	-0,005
-614,532	-30,117	-0,030	-0,013
-613,517	171,877	0,017	0,018
-612,503	131,926	-0,085	-0,081
-611,488	-200,000	0,019	0,064
-610,474	-106,763	-0,118	0,019
-609,459	46,105	-0,118	-0,080
-608,444	800,000	-0,025	-0,072
-607,430	-200,000	0,014	0,080
-606,415	245,764	-0,019	-0,024
-605,401	-200,000	0,006	-0,072
-604,386	-13,629	0,137	-0,065
-603,371	449,831	-0,048	-0,078
-602,357	-75,781	0,168	-0,043
-601,342	234,663	-0,024	-0,029
-600,328	59,325	-0,020	0,015
-599,313	108,473	-0,122	-0,107
-598,298	-6,819	0,102	-0,051
-597,284	-154,382	0,091	0,004
-596,269	49,658	0,056	0,039
-595,255	192,380	0,091	0,101
-594,240	48,978	0,062	0,043
-593,225	23,881	-0,102	-0,061
-592,211	-199,226	0,058	0,000
-591,196	-165,487	-0,097	-0,003
-590,182	340,185	0,019	-0,027
-589,167	-28,257	0,101	0,043
-588,152	-200,000	-0,003	0,095
-587,138	-59,817	0,066	0,021
-586,123	-6,437	-0,161	-0,080
-585,109	-200,000	0,001	-0,164
-584,094	113,048	0,055	-0,049
-583,079	-200,000	0,002	0,025
-582,065	138,412	-0,056	0,054
-581,050	309,737	0,086	0,119
-580,036	-48,130	0,189	-0,067
-579,021	-113,007	0,012	-0,002
-578,006	108,460	-0,177	-0,155
-576,992	-43,657	-0,180	-0,066
-575,977	570,640	-0,065	0,117
-574,963	-200,000	-0,035	0,186
-573,948	629,701	0,060	-0,112
-572,934	-135,125	0,124	0,011
-571,919	-54,933	-0,209	0,069
-570,904	-200,000	0,004	0,068
-569,890	800,000	-0,042	0,122
-568,875	536,339	-0,087	-0,153
-567,861	-200,000	0,036	0,168
-566,846	-19,987	0,099	0,045
-565,831	-57,355	0,102	-0,033
-564,817	800,000	0,021	-0,055
-563,802	57,833	0,102	-0,073
-562,788	92,102	0,040	-0,033
-561,773	-102,770	0,054	-0,009
-560,758	-79,885	-0,063	0,015
-559,744	800,000	0,024	0,063
-558,729	-71,783	-0,121	0,033
-557,715	-200,000	0,008	-0,084
-556,700	-200,000	-0,020	-0,131
-555,685	-200,000	-0,001	0,084
-554,671	410,136	-0,019	0,030
-553,656	33,464	0,068	0,043
-552,642	-200,000	-0,005	0,134
-551,627	97,928	0,029	-0,025
-550,612	404,464	-0,004	-0,006
-549,598	56,201	-0,128	-0,091
-548,583	-121,493	-0,100	-0,012
-547,569	-200,000	-0,026	-0,159
-546,554	741,197	-0,030	-0,058
-545,539	211,997	0,062	-0,072
-544,525	800,000	-0,022	0,049
-543,510	-200,000	0,012	0,046
-542,496	-7,578	-0,064	0,032
-541,481	-200,000	0,021	-0,121
-540,466	800,000	0,016	-0,048
-539,452	-200,000	-0,010	-0,037
-538,437	32,553	0,139	0,088
-537,423	398,147	-0,085	0,130
-536,408	15,989	0,035	-0,020
-535,393	-200,000	-0,025	-0,111
-534,379	126,994	0,054	0,050
-533,364	86,014	-0,094	-0,076
-532,350	-0,319	0,082	-0,043
-531,335	-200,000	0,009	0,110
-530,321	800,000	0,011	0,026
-529,306	604,781	0,047	0,087
-528,291	-200,000	0,001	0,074
-527,277	41,297	-0,169	0,112
-526,262	-188,024	-0,107	-0,001
-525,248	-146,828	0,113	0,007
-524,233	-200,000	-0,016	0,109
-523,218	22,559	0,018	0,010
-522,204	337,702	-0,039	0,055
-521,189	56,182	-0,071	0,050
-520,175	133,169	-0,053	-0,050
-519,160	-200,000	-0,022	-0,078
-518,145	-200,000	-0,013	0,061
-517,131	-200,000	-0,014	-0,114
-516,116	800,000	0,010	0,030
-515,102	800,000	0,052	0,132
-514,087	-200,000	0,014	0,071
-513,072	58,220	-0,116	-0,083
-512,058	413,662	-0,053	-0,083
-511,043	34,676	-0,122	0,078
-510,029	-200,000	-0,001	-0,029
-509,014	-200,000	0,008	-0,086
-507,999	103,227	-0,059	0,051
-506,985	-138,467	-0,116	0,009
-505,970	206,358	0,027	-0,031
-504,956	-11,757	0,043	-0,021
-503,941	800,000	-0,015	-0,047
-502,926	297,087	-0,042	-0,056
-501,912	-200,000	0,023	0,077
-500,897	800,000	-0,054	0,124
-499,883	-120,670	0,037	0,005
-498,868	-200,000	-0,008	-0,080
-497,853	709,696	0,039	-0,076
-496,839	-200,000	0,021	-0,073
-495,824	-200,000	-0,013	0,103
-494,810	-43,153	0,157	-0,058
-493,795	13,136	-0,048	0,027
-492,781	-79,498	-0,067	-0,017
-491,766	140,446	0,041	0,039
-490,751	-8,454	-0,103	0,050
-489,737	800,000	-0,025	-0,058
-488,722	27,513	-0,051	0,031
-487,708	-107,192	0,065	0,010
-486,693	11,087	-0,048	-0,027
-485,678	-38,338	0,154	0,059
-484,664	45,793	-0,039	0,026
-483,649	106,932	0,049	-0,042
-482,635	-118,954	-0,103	-0,013
-481,620	-84,795	0,083	-0,019
-480,605	-113,335	0,027	-0,004
-479,591	-89,853	0,090	0,019
-478,576	-63,761	0,058	0,017
-477,562	-200,000	-0,016	-0,084
-476,547	-103,847	0,044	0,007
-475,532	106,823	0,045	-0,039
-474,518	-36,853	0,093	0,036
-473,503	-200,000	-0,037	0,139
-472,489	-200,000	-0,006	0,057
-471,474	132,461	-0,042	-0,039
-470,459	-200,000	-0,025	0,085
-469,445	-156,072	-0,005	-0,000
-468,430	189,283	-0,056	-0,062
-467,416	800,000	0,050	0,122
-466,401	526,608	0,023	0,040
-465,386	-200,000	-0,005	-0,028
-464,372	-200,000	-0,038	-0,148
-463,357	-200,000	-0,016	-0,081
-462,343	359,447	0,072	-0,105
-461,328	64,429	-0,031	-0,023
-460,313	24,610	0,091	0,055
-459,299	-200,000	0,032	-0,106
-458,284	37,137	0,059	0,038
-457,270	-200,000	-0,012	-0,054
-456,255	-86,494	0,026	-0,006
-455,241	-175,886	-0,131	-0,002
-454,226	-200,000	0,012	-0,153
-453,211	-200,000	-0,003	0,039
-452,197	-200,000	0,013	0,124
-451,182	-200,000	0,017	0,183
-450,168	-22,449	0,118	0,052
-449,153	18,163	-0,151	-0,088
-448,138	59,828	0,097	-0,070
-447,124	-200,000	0,006	0,093
-446,109	-47,239	-0,044	0,016
-445,095	-48,925	-0,065	-0,022
-444,080	-122,405	-0,035	-0,004
-443,065	141,514	-0,012	-0,011
-442,051	-200,000	0,013	-0,082
-441,036	-200,000	-0,009	0,063
-440,022	35,205	-0,031	-0,020
-439,007	262,381	0,017	0,021
-437,992	70,112	0,050	-0,037
-436,978	-200,000	0,049	0,165
-435,963	80,834	0,009	-0,007
-434,949	-200,000	-0,030	-0,119
-433,934	-122,629	-0,018	-0,002
-432,919	-200,000	-0,002	0,066
-431,905	-200,000	0,009	-0,108
-430,890	-200,000	-0,021	0,138
-429,876	324,726	0,076	0,106
-428,861	-200,000	0,016	-0,088
-427,846	-200,000	-0,015	-0,115
-426,832	800,000	0,016	-0,041
-425,817	-163,409	0,070	-0,002
-424,803	209,204	0,087	-0,099
-423,788	-110,981	-0,069	-0,010
-422,773	-200,000	-0,017	0,077
-421,759	-200,000	0,011	0,051
-420,744	-111,036	0,034	0,005
-419,730	-200,000	0,021	-0,132
-418,715	-200,000	-0,024	-0,138
-417,701	29,733	0,117	-0,073
-416,686	-200,000	0,018	0,203
-415,671	3,845	0,024	-0,013
-414,657	301,152	0,036	0,049
-413,642	177,388	-0,060	0,064
-412,628	161,391	0,061	-0,062
-411,613	-168,485	0,052	0,001
-410,598	162,608	-0,025	-0,026
-409,584	-25,791	0,115	0,049
-408,569	120,478	0,036	-0,033
-407,555	-200,000	-0,011	0,038
-406,540	57,017	0,037	-0,027
-405,525	141,742	-0,051	-0,049
-404,511	-200,000	0,017	-0,064
-403,496	348,982	0,074	-0,106
-402,482	-200,000	0,019	0,089
-401,467	800,000	0,022	0,063
-400,452	-86,076	0,204	0,045
-399,438	14,255	-0,063	0,036
-398,423	-108,623	0,049	-0,008
-397,409	106,213	-0,050	-0,044
-396,394	21,738	-0,027	-0,016
-395,379	800,000	-0,041	0,126
-394,365	-93,954	0,127	0,025
-393,350	-200,000	-0,001	-0,053
-392,336	797,238	-0,052	-0,105
-391,321	318,439	0,023	0,032
-390,306	800,000	-0,031	-0,085
-389,292	-84,179	0,079	-0,018
-388,277	377,644	0,068	-0,102
-387,263	-200,000	-0,021	-0,070
-386,248	-33,524	0,060	-0,024
-385,233	121,431	-0,050	0,045
-384,219	-109,072	-0,096	-0,015
-383,204	-200,000	-0,005	-0,118
-382,190	360,181	-0,042	0,061
-381,175	-116,126	-0,013	-0,002
-380,160	-133,656	0,104	-0,009
-379,146	130,571	0,092	-0,086
-378,131	281,060	0,051	0,067
-377,117	-200,000	0,013	0,079
-376,102	800,000	-0,081	-0,196
-375,088	-200,000	0,009	0,033
-374,073	-200,000	0,002	0,090
-373,058	-184,311	0,065	-0,001
-372,044	-200,000	0,028	-0,137
-371,029	-84,304	-0,070	-0,016
-370,015	-200,000	0,000	-0,097
-369,000	-128,142	-0,189	0,019
-367,985	59,130	-0,139	-0,099
-366,971	-116,004	0,210	-0,028
-365,956	39,460	0,022	-0,014
-364,942	-200,000	-0,016	-0,059
-363,927	-200,000	0,019	-0,117
-362,912	235,574	0,059	0,071
-361,898	68,578	0,045	0,033
-360,883	-10,321	-0,095	-0,045
-359,869	-23,518	0,061	-0,026
-358,854	82,212	0,097	0,076
-357,839	-200,000	0,018	0,110
-356,825	136,359	0,070	-0,066
-355,810	251,591	-0,044	-0,055
-354,796	-200,000	0,036	-0,211
-353,781	-141,483	-0,082	-0,006
-352,766	-200,000	0,014	0,063
-351,752	-42,346	0,051	0,019
-350,737	-200,000	0,023	0,081
-349,723	76,787	-0,070	0,054
-348,708	800,000	0,016	0,035
-347,693	-15,866	0,045	-0,021
-346,679	-200,000	-0,016	-0,058
-345,664	138,679	-0,059	0,056
-344,650	-200,000	0,005	-0,069
-343,635	-200,000	0,001	0,153
-342,620	-200,000	-0,005	-0,040
-341,606	283,551	-0,028	0,036
-340,591	-49,196	-0,112	0,039
-339,577	800,000	0,056	-0,126
-338,562	124,725	-0,050	0,045
-337,548	-165,284	-0,062	-0,002
-336,533	-200,000	-0,004	0,062
-335,518	23,737	-0,050	0,030
-334,504	-200,000	0,002	0,097
-333,489	800,000	0,020	0,050
-332,475	109,223	-0,049	-0,043
-331,460	251,675	-0,063	0,078
-330,445	218,423	-0,090	-0,105
-329,431	-6,021	0,073	0,036
-328,416	204,790	0,101	0,114
-327,402	-200,000	0,031	0,125
-326,387	800,000	-0,030	0,081
-325,372	61,101	-0,041	0,029
-324,358	-200,000	0,021	-0,114
-323,343	-56,992	-0,100	0,032
-322,329	147,941	-0,112	-0,109
-321,314	-200,000	0,016	0,053
-320,299	330,404	-0,092	0,129
-319,285	763,567	-0,040	-0,079
-318,270	186,235	-0,026	-0,028
-317,256	-54,885	-0,086	0,028
-316,241	-32,179	-0,090	-0,036
-315,226	247,171	0,028	-0,034
-314,212	-78,107	0,129	-0,032
-313,197	46,786	-0,119	-0,080
-312,183	84,970	0,116	0,093
-311,168	10,787	0,043	0,024
-310,153	564,780	-0,017	0,031
-309,139	44,198	-0,118	0,078
-308,124	800,000	-0,055	0,113
-307,110	-16,797	-0,129	0,059
-306,095	-25,986	-0,030	0,013
-305,080	-50,341	0,151	-0,052
-304,066	14,968	0,013	-0,007
-303,051	-62,622	-0,131	-0,039
-302,037	-10,166	0,057	0,027
-301,022	257,041	0,085	0,107
-300,008	366,788	0,075	0,111
-298,993	374,185	-0,048	-0,071
-297,978	670,635	0,047	0,090
-296,964	-19,567	-0,122	-0,055
-295,949	-93,081	-0,065	-0,013
-294,935	-6,874	-0,042	0,021
-293,920	597,715	0,033	0,060
-292,905	-143,921	0,148	0,010
-291,891	8,054	-0,039	0,021
-290,876	-38,647	0,160	0,061
-289,862	-200,000	-0,013	0,223
-288,847	-67,950	-0,033	-0,009
-287,832	-51,322	-0,146	-0,049
-286,818	-122,025	0,040	-0,005
-285,803	425,895	0,094	0,148
-284,789	464,188	0,038	0,062
-283,774	231,883	0,074	0,088
-282,759	66,271	-0,066	0,049
-281,745	-200,000	-0,016	0,085
-280,730	-200,000	-0,005	-0,020
-279,716	-29,260	-0,038	0,016
-278,701	-200,000	-0,010	0,112
-277,686	-200,000	0,000	0,055
-276,672	-18,686	0,151	0,068
-275,657	4,051	-0,058	-0,031
-274,643	47,784	-0,081	0,055
-273,628	433,256	-0,080	0,127
-272,613	143,684	0,075	-0,073
-271,599	-200,000	-0,016	0,167
-270,584	52,525	0,098	-0,068
-269,570	800,000	0,060	-0,189
-268,555	-158,141	0,057	0,002
-267,540	-200,000	0,002	-0,096
-266,526	-200,000	0,013	-0,102
-265,511	144,211	0,047	0,045
-264,497	-137,439	0,088	0,007
-263,482	35,238	0,213	0,135
-262,467	-200,000	-0,010	0,057
-261,453	-22,614	0,144	-0,063
-260,438	-200,000	-0,020	0,064
-259,424	-31,467	-0,093	0,038
-258,409	-35,820	0,041	-0,016
-257,395	17,908	0,076	0,044
-256,380	47,666	0,040	0,027
-255,365	-5,442	0,016	0,008
-254,351	-92,616	-0,098	-0,020
-253,336	-113,232	0,100	-0,014
-252,322	81,235	0,089	-0,069
-251,307	592,028	0,023	-0,041
-250,292	189,105	0,077	-0,084
-249,278	730,055	-0,041	-0,080
-248,263	-80,819	0,140	0,033
-247,249	47,406	0,122	0,082
-246,234	-71,805	0,042	0,011
-245,219	55,755	-0,142	-0,100
-244,205	-200,000	0,004	-0,078
-243,190	-200,000	-0,019	0,132
-242,176	-79,559	0,056	-0,014
-241,161	-200,000	0,033	0,132
-240,146	673,238	0,079	0,149
-239,132	800,000	-0,061	0,193
-238,117	56,311	0,122	0,086
-237,103	-81,701	-0,212	-0,050
-236,088	19,682	-0,052	0,030
-235,073	800,000	0,023	-0,054
-234,059	331,981	0,024	0,034
-233,044	-200,000	-0,027	0,086
-232,030	337,923	-0,102	0,144
-231,015	-200,000	0,005	-0,027
-230,000	5,539	-0,064	-0,034
-228,986	-123,385	-0,162	0,018
-227,971	-6,328	0,073	0,036
-226,957	274,165	-0,027	0,035
-225,942	800,000	-0,027	0,059
-224,927	19,100	-0,071	0,041
-223,913	-200,000	0,020	-0,251
-222,898	494,715	0,097	-0,162
-221,884	225,649	0,075	0,088
-220,869	-93,336	0,024	0,005
-219,855	83,395	-0,084	0,066
-218,840	800,000	0,012	0,036
-217,825	336,035	-0,068	-0,096
-216,811	-108,399	0,090	-0,014
-215,796	800,000	0,023	-0,050
-214,782	-200,000	-0,018	0,092
-213,767	74,510	0,136	-0,103
-212,752	6,293	0,007	0,004
-211,738	117,260	-0,023	0,021
-210,723	295,825	0,028	-0,037
-209,709	381,960	-0,099	-0,147
-208,694	-84,178	-0,016	-0,004
-207,679	-19,993	-0,082	0,036
-206,665	-124,720	-0,040	0,004
-205,650	-51,633	-0,052	-0,017
-204,636	-59,058	0,088	0,027
-203,621	-32,647	0,003	-0,001
-202,606	-83,119	0,099	0,023
-201,592	508,311	-0,034	-0,058
-200,577	166,960	-0,069	0,071
-199,563	246,824	-0,077	-0,094
-198,548	-200,000	-0,000	0,048
-197,533	683,508	0,041	0,077
-196,519	-200,000	-0,004	-0,057
-195,504	-200,000	-0,011	0,087
-194,490	-200,000	0,021	0,075
-193,475	214,070	0,053	-0,061
-192,460	-35,021	0,133	-0,052
-191,446	-200,000	-0,035	0,126
-190,431	-200,000	0,024	-0,179
-189,417	80,206	-0,115	-0,089
-188,402	-200,000	0,001	-0,108
-187,387	-145,978	-0,141	-0,009
-186,373	-200,000	0,011	-0,126
-185,358	100,878	-0,078	0,065
-184,344	141,581	0,026	0,025
-183,329	385,061	-0,116	0,173
-182,315	151,307	-0,054	-0,053
-181,300	800,000	0,032	0,078
-180,285	175,060	0,050	-0,052
-179,271	800,000	0,027	-0,087
-178,256	-85,064	0,053	-0,012
-177,242	179,599	0,084	0,088
-176,227	-200,000	0,013	0,106
-175,212	163,866	0,024	0,025
-174,198	-88,771	0,070	0,015
-173,183	-200,000	-0,017	-0,098
-172,169	-200,000	-0,003	-0,020
-171,154	72,827	-0,052	-0,039
-170,139	800,000	0,045	0,133
-169,125	-50,166	0,120	0,041
-168,110	-200,000	-0,006	0,054
-167,096	-18,709	-0,055	0,025
-166,081	-70,102	-0,112	-0,031
-165,066	-103,167	0,051	0,009
-164,052	133,601	-0,077	0,072
-163,037	-200,000	0,014	0,050
-162,023	-61,506	-0,039	0,012
-161,008	-200,000	0,007	-0,038
-159,993	-200,000	0,017	-0,202
-158,979	-200,000	0,007	0,125
-157,964	42,494	0,072	0,047
-156,950	-200,000	0,049	-0,188
-155,935	42,798	0,079	-0,052
-154,920	-200,000	0,011	-0,091
-153,906	-86,154	-0,141	0,031
-152,891	800,000	-0,025	-0,059
-151,877	800,000	-0,044	-0,088
-150,862	-200,000	0,033	-0,110
-149,847	10,087	-0,102	-0,056
-148,833	-200,000	0,009	-0,124
-147,818	-63,038	0,081	-0,024
-146,804	-162,711	0,103	0,004
-145,789	121,598	-0,014	0,013
-144,775	-200,000	-0,004	-0,021
-143,760	168,253	-0,130	-0,134
-142,745	800,000	-0,031	0,065
-141,731	-200,000	-0,014	0,146
-140,716	-200,000	-0,007	-0,043
-139,702	-99,547	0,132	0,024
-138,687	-200,000	0,003	-0,065
-137,672	-107,606	0,062	-0,010
-136,658	286,030	0,033	-0,044
-135,643	-104,353	-0,111	-0,018
-134,629	-112,569	-0,101	-0,014
-133,614	-54,681	0,073	-0,024
-132,599	22,102	0,098	0,058
-131,585	-200,000	-0,002	-0,013
-130,570	-200,000	0,002	0,092
-129,556	-18,822	-0,093	0,041
-128,541	-200,000	0,000	-0,140
-127,526	-200,000	0,026	-0,090
-126,512	-81,288	-0,029	-0,007
-125,497	156,003	-0,058	0,057
-124,483	114,457	-0,076	0,067
-123,468	-153,614	0,042	-0,002
-122,453	-44,898	-0,138	-0,049
-121,439	-0,915	-0,151	0,077
-120,424	58,359	0,079	0,056
-119,410	3,255	-0,033	0,017
-118,395	-200,000	0,006	-0,047
-117,380	21,310	-0,108	0,063
-116,366	512,242	-0,051	0,086
-115,351	-200,000	-0,004	-0,126
-114,337	426,604	-0,072	-0,113
-113,322	-47,876	0,055	-0,019
-112,307	-180,531	0,030	-0,000
-111,293	96,491	0,045	-0,037
-110,278	-8,568	-0,064	-0,031
-109,264	-200,000	-0,008	0,039
-108,249	-147,602	0,091	-0,005
-107,234	-35,956	0,061	0,024
-106,220	158,312	0,120	-0,120
-105,205	160,996	0,113	-0,114
-104,191	93,499	0,036	-0,029
-103,176	728,191	0,066	0,127
-102,162	-113,250	-0,045	-0,006
-101,147	-123,086	-0,160	0,018
-100,132	346,153	-0,060	0,085
-99,118	-200,000	0,016	0,056
-98,103	619,849	0,030	0,054
-97,089	-147,506	-0,088	-0,005
-96,074	293,077	-0,075	-0,099
-95,059	-132,446	0,118	-0,011
-94,045	-200,000	-0,010	-0,070
-93,030	-40,390	0,140	0,052
-92,016	800,000	0,039	-0,080
-91,001	488,517	-0,081	-0,134
-89,986	241,071	-0,053	0,064
-88,972	-94,294	0,165	-0,032
-87,957	800,000	-0,039	0,098
-86,943	800,000	0,031	0,067
-85,928	277,894	-0,094	-0,121
-84,913	800,000	0,035	0,104
-83,899	-78,248	0,047	0,011
-82,884	800,000	-0,026	0,061
-81,870	-200,000	-0,023	0,101
-80,855	568,138	-0,058	-0,101
-79,840	104,450	-0,033	-0,028
-78,826	238,658	-0,077	0,092
-77,811	254,696	-0,119	-0,147
-76,797	63,163	0,085	0,061
-75,782	-200,000	-0,009	0,063
-74,767	-121,288	0,101	0,012
-73,753	45,108	-0,009	-0,006
-72,738	-106,601	0,166	0,026
-71,724	-161,804	-0,060	0,002
-70,709	488,941	-0,028	0,045
-69,694	701,550	0,024	-0,046
-68,680	46,834	0,098	-0,066
-67,665	292,519	0,083	0,109
-66,651	-20,582	-0,080	0,035
-65,636	-163,774	0,088	-0,003
-64,622	182,540	-0,020	-0,022
-63,607	800,000	-0,012	0,026
-62,592	800,000	-0,051	-0,121
-61,578	100,906	0,102	-0,085
-60,563	571,984	0,029	0,052
-59,549	-145,140	-0,108	-0,007
-58,534	-6,888	-1,886	-0,917
-57,519	800,000	-0,333	-0,868
-56,505	-200,000	-1,113	-4,877
-55,490	15,357	0,643	0,361
-54,476	800,000	5,235	12,132
-53,461	-200,000	17,166	279,839
-52,446	800,000	719,590	2220,460
-51,432	545,094	1634,630	2815,612
-50,417	113,377	1630,160	1420,487
-49,403	76,773	1287,911	980,402
-48,388	33,429	1031,026	641,474
-47,373	20,451	992,666	574,694
-46,359	18,943	981,199	563,067
-45,344	16,642	976,982	553,069
-44,330	16,879	975,527	553,001
-43,315	16,401	973,723	550,392
-42,300	16,328	972,706	549,555
-41,286	16,349	971,747	549,061
-40,271	16,369	970,591	548,451
-39,257	16,366	969,813	547,982
-38,242	16,379	968,972	547,524
-37,227	16,340	968,087	546,875
-36,213	16,362	967,255	546,458
-35,198	16,332	966,308	545,803
-34,184	16,389	965,573	545,552
-33,169	16,248	964,759	544,610
-32,154	16,356	963,580	544,274
-31,140	16,356	962,654	543,730
-30,125	16,453	961,810	543,545
-29,111	16,354	961,281	542,904
-28,096	16,382	960,628	542,606
-27,082	16,401	959,837	542,197
-26,067	16,290	959,264	541,494
-25,052	16,316	958,281	541,001
-24,038	16,290	957,648	540,541
-23,023	16,342	957,050	540,349
-22,009	16,320	956,272	539,815
-20,994	16,313	955,882	539,552
-19,979	16,396	955,110	539,363
-18,965	16,382	954,401	538,895
-17,950	16,378	953,776	538,509
-16,936	16,288	953,292	537,925
-15,921	16,297	952,459	537,462
-14,906	16,270	951,791	536,977
-13,892	16,260	951,111	536,541
-12,877	16,218	950,582	536,088
-11,863	16,127	950,053	535,476
-10,848	16,239	949,569	535,538
-9,833	16,373	948,748	535,482
-8,819	16,293	948,316	534,962
-7,804	16,222	947,607	534,315
-6,790	16,177	946,964	533,789
-5,775	16,260	946,346	533,682
-4,760	16,254	945,696	533,277
-3,746	16,257	945,084	532,920
-2,731	16,122	944,497	532,138
-1,717	16,056	943,875	531,559
-0,702	16,120	943,225	531,372
0,313	15,909	942,463	531,077
1,327	19,245	940,277	540,341
2,342	28,406	797,748	482,797
3,356	25,307	461,292	274,391
4,371	-2,339	315,174	158,035
5,386	-6,585	296,913	144,558
6,400	-8,412	290,821	139,761
7,415	-9,135	288,360	137,852
8,429	-9,096	286,855	137,159
9,444	-9,079	285,766	136,642
10,459	-8,808	285,084	136,568
11,473	-9,054	284,739	136,151
12,488	-9,053	284,169	135,868
13,502	-9,239	283,721	135,460
14,517	-9,178	283,151	135,235
15,531	-9,089	282,739	135,113
16,546	-8,992	282,314	134,992
17,561	-9,208	281,827	134,538
18,575	-8,937	281,645	134,700
19,590	-9,210	281,363	134,291
20,604	-8,983	281,000	134,324
21,619	-9,065	280,618	134,050
22,634	-9,030	280,156	133,852
23,648	-9,233	279,895	133,520
24,663	-9,107	279,572	133,475
25,677	-9,090	279,446	133,419
26,692	-9,072	279,116	133,267
27,707	-9,142	278,831	133,052
28,721	-9,160	278,683	132,953
29,736	-9,129	278,313	132,793
30,750	-9,121	277,958	132,620
31,765	-9,193	277,871	132,499
32,780	-9,160	277,676	132,425
33,794	-9,141	277,419	132,309
34,809	-8,864	277,025	132,371
35,823	-9,322	276,863	131,848
36,838	-9,262	276,650	131,792
37,853	-9,106	276,297	131,760
38,867	-9,103	276,001	131,609
39,882	-9,239	275,805	131,376
40,896	-9,294	275,613	131,222
41,911	-9,196	275,441	131,219
42,926	-9,249	275,188	131,038
43,940	-9,261	274,847	130,852
44,955	-9,293	274,690	130,736
45,969	-9,308	274,408	130,576
46,984	-9,331	274,157	130,424
47,999	-9,698	273,831	129,914
49,013	-9,801	273,600	129,696
50,028	-9,772	273,344	129,591
51,042	-9,875	273,168	129,399
52,057	-9,939	272,831	129,169
53,071	-9,804	272,686	129,214
54,086	-9,796	272,664	129,200
55,101	-9,578	272,346	129,240
56,115	-9,300	272,163	129,399
57,130	-9,192	272,088	129,452
58,144	-8,879	271,810	129,599
59,159	-8,913	271,572	129,443
60,174	-8,992	271,355	129,254
61,188	-9,027	271,210	129,141
62,203	-9,058	271,119	129,058
63,217	-9,021	270,670	128,867
64,232	-9,030	270,534	128,782
65,247	-9,165	270,312	128,541
66,261	-9,289	270,123	128,325
67,276	-9,065	269,666	128,303
68,290	-9,298	269,421	127,960
69,305	-9,407	269,243	127,765
70,320	-9,402	269,028	127,656
71,334	-9,362	268,942	127,641
72,349	-9,025	268,614	127,782
73,363	-8,989	268,410	127,706
74,378	-8,854	268,184	127,710
75,393	-8,951	268,071	127,557
76,407	-8,929	267,763	127,419
77,422	-9,049	267,712	127,274
78,436	-8,976	267,430	127,195
79,451	-9,040	267,285	127,057
80,466	-8,996	266,770	126,840
81,480	-9,140	266,794	126,709
82,495	-9,099	266,478	126,585
83,509	-9,002	266,238	126,547
84,524	-9,296	266,151	126,229
85,539	-9,615	265,939	125,829
86,553	-9,319	265,590	125,920
87,568	-9,218	265,484	125,949
88,582	-9,490	265,363	125,635
89,597	-9,437	265,216	125,602
90,611	-9,060	264,897	125,780
91,626	-8,789	264,738	125,936
92,641	-9,054	264,677	125,659
93,655	-9,063	264,281	125,451
94,670	-9,254	264,162	125,212
95,684	-9,193	263,970	125,165
96,699	-9,095	263,698	125,112
97,714	-9,149	263,513	124,965
98,728	-9,389	263,267	124,623
99,743	-9,312	262,995	124,551
100,757	-9,649	262,973	124,228
101,772	-9,292	262,625	124,371
102,787	-9,247	262,510	124,346
103,801	-9,161	262,281	124,304
104,816	-9,116	262,103	124,248
105,830	-9,151	261,996	124,155
106,845	-9,117	261,926	124,140
107,860	-8,964	261,485	124,057
108,874	-8,830	261,154	124,008
109,889	-9,189	261,221	123,710
110,903	-9,220	260,991	123,562
111,918	-9,038	260,695	123,572
112,933	-9,256	260,601	123,324
113,947	-9,193	260,478	123,310
114,962	-9,173	260,259	123,213
115,976	-9,020	260,002	123,216
116,991	-9,194	259,779	122,945
118,006	-8,999	259,645	123,042
119,020	-9,187	259,529	122,812
120,035	-9,013	259,343	122,865
121,049	-8,997	259,073	122,741
122,064	-8,884	258,864	122,730
123,079	-9,118	258,655	122,414
124,093	-9,018	258,631	122,479
125,108	-9,278	258,410	122,137
126,122	-9,322	257,942	121,866
127,137	-9,525	257,925	121,670
128,151	-9,564	257,753	121,544
129,166	-9,286	257,498	121,656
130,181	-9,372	257,244	121,450
131,195	-9,384	257,032	121,328
132,210	-9,183	257,000	121,477
133,224	-9,003	256,776	121,517
134,239	-9,277	256,690	121,228
135,254	-9,225	256,491	121,167
136,268	-9,211	256,268	121,064
137,283	-9,517	255,867	120,599
138,297	-9,544	255,619	120,448
139,312	-9,437	255,385	120,419
140,327	-9,158	255,373	120,643
141,341	-8,931	255,338	120,812
142,356	-8,835	255,114	120,778
143,370	-8,937	254,967	120,610
144,385	-8,815	254,862	120,655
145,400	-8,808	254,720	120,582
146,414	-8,908	254,433	120,350
147,429	-8,930	254,125	120,175
148,443	-8,980	254,223	120,168
149,458	-8,834	253,816	120,089
150,473	-8,878	253,840	120,052
151,487	-8,894	253,525	119,879
152,502	-8,838	253,354	119,835
153,516	-9,027	253,191	119,586
154,531	-8,917	252,988	119,573
155,546	-9,012	252,771	119,379
156,560	-8,777	252,554	119,467
157,575	-8,965	252,374	119,211
158,589	-8,835	252,212	119,235
159,604	-8,884	251,989	119,077
160,619	-8,912	251,784	118,945
161,633	-8,818	251,826	119,034
162,648	-8,876	251,506	118,824
163,662	-8,990	251,425	118,678
164,677	-9,042	251,279	118,554
165,692	-8,655	251,041	118,759
166,706	-8,845	250,970	118,554
167,721	-8,889	250,797	118,424
168,735	-8,822	250,576	118,366
169,750	-8,961	250,554	118,227
170,764	-8,717	250,357	118,330
171,779	-8,822	250,154	118,136
172,794	-8,883	250,174	118,083
173,808	-8,850	249,813	117,929
174,823	-9,226	249,340	117,380
175,837	-9,463	249,245	117,125
176,852	-8,969	249,166	117,493
177,867	-8,779	249,049	117,587
178,881	-8,753	248,948	117,550
179,896	-8,730	248,730	117,455
180,910	-8,824	248,568	117,290
181,925	-8,824	248,327	117,166
182,940	-8,930	248,194	117,004
183,954	-8,904	248,062	116,953
184,969	-8,813	247,927	116,955
185,983	-8,682	247,688	116,941
186,998	-8,801	247,638	116,808
188,013	-8,893	247,468	116,641
189,027	-8,755	247,376	116,702
190,042	-8,883	247,006	116,410
191,056	-8,945	247,075	116,381
192,071	-8,888	246,828	116,301
193,086	-8,812	246,615	116,254
194,100	-8,827	246,291	116,079
195,115	-8,749	246,168	116,075
196,129	-8,737	246,045	116,017
197,144	-8,902	245,887	115,795
198,159	-8,865	245,597	115,679
199,173	-8,836	245,447	115,622
200,188	-9,083	245,368	115,370
201,202	-9,196	245,036	115,111
202,217	-9,375	244,716	114,803
203,232	-9,225	244,459	114,796
204,246	-9,035	244,503	114,962
205,261	-8,723	244,497	115,206
206,275	-9,573	244,025	114,275
207,290	-6,366	245,275	117,495
208,304	-0,332	247,029	123,324
209,319	1,882	247,719	125,493
210,334	2,391	247,568	125,826
211,348	2,677	247,596	126,065
212,363	2,799	247,568	126,141
213,377	3,011	247,536	126,288
214,392	2,946	247,461	126,185
215,407	2,989	247,032	125,991
216,421	2,810	246,929	125,780
217,436	3,133	246,871	126,005
218,450	3,142	246,696	125,912
219,465	2,919	246,382	125,557
220,480	2,704	246,163	125,257
221,494	2,856	246,188	125,384
222,509	3,112	245,961	125,467
223,523	3,058	245,768	125,313
224,538	2,532	245,383	124,675
225,553	2,612	245,327	124,701
226,567	2,947	245,057	124,826
227,582	2,887	245,138	124,808
228,596	2,834	244,854	124,609
229,611	2,840	244,735	124,542
230,626	2,486	244,475	124,109
231,640	2,767	244,314	124,246
232,655	2,793	244,170	124,183
233,669	2,470	244,044	123,844
234,684	2,589	243,806	123,810
235,699	2,888	243,848	124,063
236,713	2,842	243,769	123,975
237,728	2,850	243,445	123,805
238,742	2,944	243,140	123,715
239,757	2,412	243,220	123,314
240,772	2,683	242,936	123,378
241,786	2,716	242,953	123,402
242,801	2,563	242,641	123,110
243,815	2,437	242,389	122,868
244,830	2,607	242,366	122,983
245,844	2,981	242,205	123,192
246,859	2,806	241,948	122,910
247,874	2,746	241,920	122,836
248,888	2,772	241,749	122,759
249,903	2,828	241,520	122,677
250,917	2,832	241,541	122,680
251,932	3,066	241,460	122,816
252,947	2,928	241,153	122,538
253,961	2,738	240,781	122,186
254,976	2,658	240,932	122,187
255,990	3,009	240,689	122,335
257,005	2,500	240,627	121,884
258,020	2,344	240,245	121,556
259,034	2,557	240,045	121,613
260,049	2,750	240,007	121,738
261,063	2,606	239,736	121,474
262,078	2,548	239,657	121,377
263,093	2,847	239,550	121,551
264,107	2,913	239,385	121,509
265,122	2,643	239,115	121,146
266,136	2,752	239,187	121,259
267,151	2,898	239,105	121,322
268,166	2,742	238,783	121,024
269,180	2,741	238,523	120,881
270,195	3,154	238,605	121,239
271,209	3,129	238,517	121,163
272,224	2,780	238,146	120,688
273,239	2,507	237,916	120,345
274,253	2,396	237,676	120,125
275,268	2,779	237,724	120,441
276,282	2,811	237,486	120,335
277,297	2,533	237,289	120,005
278,312	2,610	237,344	120,083
279,326	2,697	237,147	120,041
280,341	2,775	236,843	119,938
281,355	2,848	236,808	119,967
282,370	2,759	236,743	119,854
283,384	2,823	236,436	119,738
284,399	2,750	236,216	119,558
285,414	2,491	236,077	119,274
286,428	2,588	236,005	119,303
287,443	2,758	235,846	119,345
288,457	2,928	235,783	119,436
289,472	2,894	235,686	119,349
290,487	2,834	235,540	119,218
291,501	2,432	235,318	118,782
292,516	2,351	235,004	118,549
293,530	2,350	234,856	118,463
294,545	2,798	234,879	118,812
295,560	2,882	234,702	118,778
296,574	2,636	234,480	118,464
297,589	2,953	234,261	118,589
298,603	3,221	234,220	118,765
299,618	2,963	234,143	118,515
300,633	2,711	233,999	118,237
301,647	3,157	233,762	118,452
302,662	3,317	233,861	118,616
303,676	3,276	233,695	118,489
304,691	3,049	233,418	118,163
305,706	3,005	233,383	118,100
306,720	3,252	233,045	118,109
307,735	2,945	233,050	117,865
308,749	2,639	232,902	117,543
309,764	2,789	232,528	117,459
310,779	2,353	232,536	117,117
311,793	2,277	232,223	116,891
312,808	2,409	232,008	116,873
313,822	2,494	231,827	116,837
314,837	2,355	231,887	116,750
315,852	2,556	231,522	116,710
316,866	2,844	231,627	116,973
317,881	2,890	231,543	116,956
318,895	2,959	231,411	116,931
319,910	2,968	231,321	116,882
320,925	2,814	231,064	116,624
321,939	2,718	230,862	116,438
322,954	2,901	230,880	116,577
323,968	2,813	230,592	116,355
324,983	2,697	230,460	116,189
325,997	3,004	230,237	116,300
327,012	2,727	229,906	115,912
328,027	2,638	229,975	115,868
329,041	3,299	230,007	116,377
330,056	3,592	230,079	116,626
331,070	3,656	229,672	116,457
332,085	3,045	229,433	115,862
333,100	3,024	229,214	115,726
334,114	2,916	229,169	115,611
335,129	3,204	229,072	115,770
336,143	3,186	228,916	115,667
337,158	3,005	228,787	115,455
338,173	3,171	228,588	115,470
339,187	2,752	228,557	115,127
340,202	2,955	228,423	115,203
341,216	3,102	228,138	115,159
342,231	3,024	227,877	114,958
343,246	2,974	227,867	114,906
344,260	3,071	227,817	114,944
345,275	3,505	227,522	115,110
346,289	3,119	227,515	114,806
347,304	3,356	227,353	114,892
348,319	3,201	227,223	114,700
349,333	3,075	226,966	114,466
350,348	2,796	226,812	114,169
351,362	2,919	226,746	114,217
352,377	2,949	226,541	114,126
353,392	2,915	226,350	113,995
354,406	2,873	226,309	113,933
355,421	196,496	1321,649	1402,282
356,435	157,553	1455,101	1402,282
