DTS Sentinel unit serial number:	SN410029Multiplexer serial number:	ORYXHardware model number:	OX2-SRSoftware version number:	ORYX F/W v4,00 Oryx Data Collector v3.7.2.0data status	okinstallation	B5 Nyhavnadifferential loss correction	single-endedforward channel	channel 2reverse channel	N/Adate	2023/12/12time	10:52:13forward acquisition time	300,00reverse acquisition time	0,00gamma	499,1914k internal	0,3158k external	0,3158temperature offset calibration	1,0000default loss term (dB/km)	0,3820temperature slope calibration	1,0000multiplexer offset coefficient	1,0000multiplexer slope coefficient	1,0000fibre end	0,00T internal ref (°C)	15,00T ext. ref 1 (°C)	-1,27T ext. ref 2 (°C)	-1,52length (m)	temperature (°C)	Stokes	anti-Stokes-744,400	-83,362	0,184	-0,043
-743,385	-139,148	-0,353	0,028
-742,371	174,762	0,058	0,062
-741,356	-104,762	-0,334	-0,056
-740,342	-24,162	0,081	-0,035
-739,327	-6,567	-0,274	-0,137
-738,312	258,747	0,070	-0,089
-737,298	-49,705	-0,277	0,097
-736,283	85,306	-0,038	0,031
-735,269	-54,181	-0,351	0,117
-734,254	479,842	0,061	0,102
-733,239	-52,684	-0,464	-0,157
-732,225	23,950	0,193	0,117
-731,210	-28,903	0,030	0,013
-730,196	-200,000	0,011	0,043
-729,181	-56,595	-0,236	0,077
-728,167	-111,693	0,092	-0,014
-727,152	-200,000	0,017	-0,216
-726,137	-39,683	-0,063	0,024
-725,123	92,590	-0,013	-0,011
-724,108	-100,971	-0,150	0,027
-723,094	123,299	-0,099	0,091
-722,079	630,852	-0,034	0,064
-721,064	116,546	0,067	0,060
-720,050	37,853	-0,024	0,016
-719,035	-200,000	-0,029	-0,131
-718,021	-133,731	0,153	0,014
-717,006	-200,000	0,055	-0,185
-715,991	-200,000	0,003	-0,124
-714,977	60,829	-0,071	-0,052
-713,962	258,043	0,030	-0,039
-712,948	244,024	0,037	0,046
-711,933	-180,963	-0,141	-0,002
-710,918	-196,509	0,102	-0,000
-709,904	254,051	-0,114	-0,144
-708,889	-200,000	0,001	0,128
-707,875	-52,630	-0,104	0,035
-706,860	-90,745	-0,139	-0,029
-705,845	-200,000	0,013	0,047
-704,831	-200,000	0,030	0,228
-703,816	-23,612	0,073	0,032
-702,802	-200,000	0,028	-0,100
-701,787	87,563	0,023	-0,019
-700,772	800,000	-0,022	0,069
-699,758	259,532	-0,036	0,045
-698,743	-200,000	0,003	0,103
-697,729	185,361	0,054	-0,059
-696,714	800,000	-0,049	0,139
-695,699	184,735	0,046	0,051
-694,685	-76,793	0,095	-0,024
-693,670	-8,893	-0,086	0,042
-692,656	186,528	-0,033	-0,037
-691,641	-200,000	-0,039	0,168
-690,627	800,000	-0,030	0,071
-689,612	-15,948	0,120	-0,056
-688,597	421,938	0,048	-0,077
-687,583	-200,000	-0,027	-0,172
-686,568	68,806	0,062	-0,047
-685,554	355,888	-0,015	0,022
-684,539	133,325	0,015	-0,014
-683,524	800,000	-0,018	-0,057
-682,510	-200,000	-0,005	0,090
-681,495	-158,366	-0,168	0,007
-680,481	428,400	0,013	0,020
-679,466	-200,000	0,005	-0,045
-678,451	800,000	-0,060	-0,141
-677,437	-200,000	0,001	-0,089
-676,422	-170,655	0,080	-0,002
-675,408	222,347	-0,025	0,030
-674,393	-200,000	0,021	-0,098
-673,378	-52,546	-0,091	-0,031
-672,364	54,910	-0,140	-0,099
-671,349	-200,000	0,003	0,018
-670,335	33,449	-0,048	-0,031
-669,320	800,000	-0,078	0,169
-668,305	-200,000	0,013	0,051
-667,291	40,332	-0,117	0,077
-666,276	-200,000	-0,011	-0,099
-665,262	195,857	-0,078	-0,088
-664,247	307,295	-0,053	-0,072
-663,232	78,492	0,057	0,045
-662,218	-200,000	0,000	-0,133
-661,203	-200,000	-0,005	0,036
-660,189	618,067	0,080	-0,149
-659,174	-200,000	0,005	-0,068
-658,159	-180,496	-0,084	-0,001
-657,145	754,266	-0,034	0,068
-656,130	191,940	0,098	-0,109
-655,116	-5,698	0,084	0,042
-654,101	-24,188	-0,035	0,015
-653,086	-200,000	-0,007	-0,155
-652,072	-200,000	-0,026	-0,094
-651,057	51,654	0,048	-0,034
-650,043	-23,975	0,079	0,034
-649,028	168,575	0,137	-0,143
-648,014	253,402	-0,103	-0,130
-646,999	-200,000	-0,021	0,121
-645,984	800,000	0,028	0,068
-644,970	-11,163	-0,060	-0,029
-643,955	445,608	-0,035	-0,057
-642,941	503,250	-0,069	-0,117
-641,926	-33,379	-0,149	0,060
-640,911	-200,000	-0,011	-0,041
-639,897	-200,000	-0,015	0,132
-638,882	-160,797	0,054	0,002
-637,868	-40,058	-0,074	-0,028
-636,853	335,459	0,045	0,064
-635,838	59,367	-0,121	-0,087
-634,824	-174,882	0,015	-0,000
-633,809	-91,449	-0,061	0,013
-632,795	-200,000	-0,001	0,040
-631,780	-200,000	0,013	0,054
-630,765	-25,604	-0,078	-0,033
-629,751	-200,000	-0,003	-0,058
-628,736	-200,000	-0,001	0,094
-627,722	-180,715	0,122	-0,002
-626,707	-200,000	0,008	-0,062
-625,692	-72,949	0,109	0,029
-624,678	-200,000	0,002	0,036
-623,663	24,463	-0,150	0,091
-622,649	123,730	-0,057	-0,052
-621,634	-1,766	0,024	0,012
-620,619	-30,400	-0,110	0,046
-619,605	-200,000	0,002	0,025
-618,590	-45,333	0,041	-0,015
-617,576	-35,208	0,118	-0,047
-616,561	-150,534	-0,141	0,008
-615,546	9,023	-0,049	0,027
-614,532	-39,854	-0,068	-0,026
-613,517	-63,340	0,117	-0,035
-612,503	-200,000	0,024	-0,134
-611,488	368,499	-0,043	0,063
-610,474	800,000	0,037	0,081
-609,459	-5,585	-0,066	-0,033
-608,444	-42,942	0,047	-0,017
-607,430	-97,681	0,097	-0,018
-606,415	-10,303	-0,044	-0,021
-605,401	175,823	0,012	0,013
-604,386	381,678	-0,023	0,035
-603,371	553,560	0,061	0,107
-602,357	-35,915	-0,032	0,013
-601,342	225,205	0,084	0,100
-600,328	-47,810	-0,102	0,036
-599,313	-84,443	0,081	0,019
-598,298	133,797	0,037	0,035
-597,284	89,235	0,065	0,053
-596,269	381,092	0,086	0,130
-595,255	47,610	0,043	-0,029
-594,240	800,000	-0,053	-0,171
-593,225	110,945	0,043	-0,038
-592,211	119,281	-0,038	-0,034
-591,196	201,626	-0,063	0,071
-590,182	-200,000	0,004	0,020
-589,167	110,909	-0,036	0,032
-588,152	390,825	0,049	0,075
-587,138	-147,253	-0,184	0,011
-586,123	-67,120	0,081	0,023
-585,109	50,342	-0,054	0,038
-584,094	-46,853	0,128	0,046
-583,079	800,000	-0,023	0,046
-582,065	800,000	0,026	0,057
-581,050	-200,000	-0,008	0,051
-580,036	55,878	0,046	-0,032
-579,021	-200,000	-0,014	-0,080
-578,006	800,000	0,062	-0,142
-576,992	800,000	0,014	0,045
-575,977	231,756	-0,024	-0,028
-574,963	800,000	-0,037	-0,087
-573,948	-200,000	0,020	0,102
-572,934	-81,679	-0,055	0,013
-571,919	-200,000	-0,006	-0,144
-570,904	-39,847	-0,093	0,035
-569,890	178,094	0,035	0,037
-568,875	800,000	0,050	-0,148
-567,861	243,071	0,070	-0,086
-566,846	-200,000	-0,006	0,050
-565,831	-138,106	0,082	0,007
-564,817	23,068	-0,151	-0,090
-563,802	800,000	0,052	-0,140
-562,788	-200,000	-0,010	-0,151
-561,773	800,000	0,015	-0,044
-560,758	-34,137	0,071	-0,028
-559,744	435,679	0,039	0,063
-558,729	-200,000	0,001	-0,126
-557,715	-124,788	-0,104	-0,012
-556,700	-200,000	0,013	0,122
-555,685	-5,555	-0,088	-0,044
-554,671	-200,000	0,027	0,089
-553,656	-89,969	0,166	0,035
-552,642	-96,933	0,135	0,026
-551,627	-47,982	0,112	-0,039
-550,612	800,000	-0,012	-0,039
-549,598	-200,000	-0,172	-0,000
-548,583	673,971	0,038	-0,073
-547,569	-49,461	0,158	-0,055
-546,554	-200,000	0,045	0,180
-545,539	-59,845	0,033	-0,010
-544,525	-126,929	-0,103	0,011
-543,510	-105,659	-0,115	0,019
-542,496	-125,649	-0,013	-0,001
-541,481	8,195	-0,108	-0,059
-540,466	-79,633	0,043	-0,010
-539,452	800,000	-0,015	0,036
-538,437	523,046	-0,041	-0,071
-537,423	-58,034	0,012	-0,004
-536,408	68,467	-0,047	0,035
-535,393	282,826	-0,035	-0,047
-534,379	-131,704	-0,069	0,007
-533,364	-181,523	0,123	-0,002
-532,350	-87,603	0,062	0,014
-531,335	397,764	0,018	0,027
-530,321	800,000	0,028	0,058
-529,306	-200,000	0,012	-0,045
-528,291	-27,804	-0,155	0,065
-527,277	401,572	0,025	-0,039
-526,262	800,000	0,026	0,067
-525,248	-200,000	-0,017	-0,090
-524,233	-59,398	0,109	0,034
-523,218	-171,662	-0,036	-0,001
-522,204	-200,000	0,014	-0,063
-521,189	800,000	0,011	-0,024
-520,175	176,839	-0,030	-0,032
-519,160	-200,000	-0,010	0,070
-518,145	483,187	0,070	0,117
-517,131	800,000	-0,039	0,100
-516,116	-200,000	0,020	0,119
-515,102	-85,941	-0,153	-0,034
-514,087	-200,000	0,013	-0,132
-513,072	91,314	0,076	0,062
-512,058	800,000	0,014	0,042
-511,043	548,319	0,010	-0,018
-510,029	106,983	0,058	-0,050
-509,014	-200,000	-0,028	0,125
-507,999	-81,241	0,049	0,012
-506,985	-31,725	-0,105	0,043
-505,970	-200,000	0,005	-0,067
-504,956	41,165	0,159	0,105
-503,941	-200,000	0,031	0,124
-502,926	-99,987	-0,062	-0,011
-501,912	-90,206	0,113	-0,024
-500,897	-16,680	-0,153	0,070
-499,883	-96,437	-0,121	-0,023
-498,868	800,000	0,017	-0,053
-497,853	800,000	-0,041	-0,131
-496,839	685,851	-0,035	-0,068
-495,824	5,966	0,160	0,086
-494,810	-200,000	-0,011	0,127
-493,795	-200,000	-0,023	-0,118
-492,781	230,521	-0,120	-0,143
-491,766	144,585	-0,054	-0,052
-490,751	-102,298	0,151	0,026
-489,737	-52,452	0,112	-0,038
-488,722	800,000	-0,026	-0,057
-487,708	386,877	-0,048	-0,073
-486,693	800,000	0,023	0,064
-485,678	478,964	-0,033	0,054
-484,664	-52,514	0,102	-0,034
-483,649	-7,514	-0,160	0,079
-482,635	96,302	0,109	0,091
-481,620	-200,000	-0,019	-0,077
-480,605	-13,774	-0,107	0,050
-479,591	99,198	0,067	0,057
-478,576	789,598	-0,041	-0,082
-477,562	-200,000	-0,024	-0,110
-476,547	800,000	-0,070	-0,159
-475,532	-101,971	0,134	0,023
-474,518	37,383	0,113	0,073
-473,503	-140,849	0,078	-0,006
-472,489	-191,406	0,078	0,001
-471,474	-200,000	0,042	-0,180
-470,459	106,742	0,054	-0,046
-469,445	185,027	-0,092	0,100
-468,430	16,604	0,054	0,031
-467,416	-200,000	0,011	0,079
-466,401	-40,465	0,042	-0,016
-465,386	-18,482	0,156	0,071
-464,372	146,898	-0,042	-0,042
-463,357	315,210	-0,088	-0,121
-462,343	-200,000	0,023	0,106
-461,328	30,314	-0,018	-0,011
-460,313	-200,000	-0,012	0,118
-459,299	800,000	0,050	-0,149
-458,284	800,000	0,061	0,175
-457,270	-200,000	-0,035	0,140
-456,255	668,541	0,035	-0,067
-455,241	-28,792	-0,078	-0,033
-454,226	63,104	-0,054	-0,039
-453,211	-156,135	0,037	0,002
-452,197	-200,000	-0,022	0,100
-451,182	-151,214	-0,047	-0,003
-450,168	-105,366	0,204	0,033
-449,153	179,528	-0,081	0,086
-448,138	-14,355	-0,080	0,037
-447,124	240,741	0,090	-0,109
-446,109	-27,935	0,155	-0,065
-445,095	-200,000	-0,014	0,057
-444,080	380,557	-0,030	0,045
-443,065	-200,000	-0,021	0,071
-442,051	194,197	0,060	0,066
-441,036	29,280	0,017	-0,010
-440,022	109,849	-0,053	-0,046
-439,007	800,000	-0,018	0,047
-437,992	336,555	0,051	0,072
-436,978	350,998	0,086	0,124
-435,963	-200,000	0,004	0,092
-434,949	115,941	0,042	-0,037
-433,934	2,370	-0,066	0,035
-432,919	85,573	0,068	0,054
-431,905	800,000	0,033	0,091
-430,890	-56,890	0,103	0,033
-429,876	71,663	0,134	-0,101
-428,861	-200,000	-0,004	-0,057
-427,846	-200,000	0,003	-0,084
-426,832	591,217	0,007	-0,012
-425,817	-200,000	-0,007	0,068
-424,803	-175,119	-0,090	0,002
-423,788	-200,000	-0,007	-0,086
-422,773	537,265	0,036	-0,062
-421,759	-200,000	-0,003	0,098
-420,744	800,000	-0,056	-0,134
-419,730	313,092	-0,089	-0,122
-418,715	535,241	-0,013	-0,023
-417,701	-65,752	-0,059	0,017
-416,686	-2,500	0,051	-0,026
-415,671	-163,403	0,039	0,001
-414,657	429,946	-0,034	0,054
-413,642	79,142	-0,093	0,072
-412,628	80,197	-0,090	0,071
-411,613	-131,188	-0,096	0,009
-410,598	133,059	-0,087	-0,081
-409,584	192,627	-0,051	-0,056
-408,569	214,978	0,134	0,155
-407,555	-200,000	-0,000	0,036
-406,540	800,000	0,042	0,099
-405,525	103,109	0,074	0,063
-404,511	800,000	-0,074	-0,170
-403,496	800,000	0,022	0,050
-402,482	800,000	-0,049	-0,117
-401,467	192,863	0,077	0,085
-400,452	-175,450	-0,108	0,002
-399,438	-200,000	0,006	0,077
-398,423	-193,466	-0,097	0,001
-397,409	-109,637	-0,033	-0,005
-396,394	800,000	0,055	0,119
-395,379	800,000	-0,049	-0,114
-394,365	-200,000	-0,002	-0,019
-393,350	255,959	0,021	-0,026
-392,336	-45,560	-0,052	0,019
-391,321	-14,448	-0,037	0,017
-390,306	800,000	0,020	-0,044
-389,292	-25,161	-0,174	-0,075
-388,277	74,583	0,093	0,071
-387,263	82,841	0,080	0,063
-386,248	287,860	0,045	-0,060
-385,233	44,607	-0,081	0,054
-384,219	202,909	-0,039	0,044
-383,204	-10,896	0,090	-0,043
-382,190	-121,876	-0,067	0,008
-381,175	-200,000	-0,003	0,052
-380,160	-154,384	0,080	0,004
-379,146	800,000	-0,015	-0,048
-378,131	-141,579	-0,068	-0,005
-377,117	122,883	-0,031	0,028
-376,102	35,941	-0,065	-0,042
-375,088	506,421	-0,046	-0,077
-374,073	569,135	-0,020	0,035
-373,058	-200,000	-0,010	0,048
-372,044	423,155	0,028	-0,043
-371,029	212,971	0,079	-0,091
-370,015	100,370	0,053	-0,045
-369,000	-200,000	0,003	-0,080
-367,985	70,922	-0,051	-0,038
-366,971	-200,000	-0,014	0,077
-365,956	215,093	0,063	0,073
-364,942	90,478	-0,040	0,033
-363,927	56,446	0,060	0,043
-362,912	-200,000	-0,032	-0,118
-361,898	-125,279	0,077	-0,008
-360,883	408,712	-0,031	-0,047
-359,869	8,738	-0,151	-0,082
-358,854	-39,639	0,055	-0,021
-357,839	50,233	0,029	0,020
-356,825	800,000	-0,037	0,095
-355,810	-31,066	-0,099	-0,040
-354,796	13,006	0,031	-0,018
-353,781	-151,665	-0,087	0,005
-352,766	-94,099	0,123	-0,024
-351,752	83,528	-0,094	0,074
-350,737	445,106	0,044	0,070
-349,723	-38,383	0,085	0,032
-348,708	800,000	0,025	0,068
-347,693	230,051	-0,078	-0,093
-346,679	121,377	-0,020	-0,018
-345,664	-200,000	0,005	-0,059
-344,650	84,593	0,063	0,050
-343,635	-200,000	-0,000	0,095
-342,620	189,877	0,035	0,038
-341,606	678,778	0,044	0,084
-340,591	-200,000	0,004	0,032
-339,577	144,805	-0,030	-0,029
-338,562	174,078	0,115	0,121
-337,548	5,507	0,095	-0,050
-336,533	-200,000	-0,025	0,095
-335,518	372,394	0,050	0,074
-334,504	-72,151	0,042	0,011
-333,489	-114,175	0,075	-0,010
-332,475	-19,899	0,033	-0,015
-331,460	-80,127	0,041	-0,010
-330,445	182,166	0,053	0,057
-329,431	-150,794	-0,073	-0,004
-328,416	800,000	-0,029	0,074
-327,402	369,597	-0,085	-0,125
-326,387	-200,000	-0,012	-0,044
-325,372	383,202	0,065	-0,097
-324,358	647,428	-0,082	-0,152
-323,343	-200,000	-0,001	-0,067
-322,329	-100,583	0,072	-0,013
-321,314	-77,940	-0,160	0,040
-320,299	-123,830	-0,080	-0,009
-319,285	-200,000	0,012	0,080
-318,270	-200,000	-0,015	-0,129
-317,256	-200,000	0,025	-0,081
-316,241	148,329	-0,138	-0,135
-315,226	32,501	-0,070	0,044
-314,212	83,773	0,074	0,058
-313,197	704,541	-0,060	0,115
-312,183	264,880	-0,007	0,009
-311,168	-200,000	-0,000	-0,004
-310,153	-200,000	0,008	-0,100
-309,139	-200,000	0,001	0,028
-308,124	-200,000	-0,001	-0,032
-307,110	800,000	0,023	0,068
-306,095	411,518	-0,033	0,051
-305,080	-91,158	-0,075	0,015
-304,066	-200,000	0,006	-0,033
-303,051	439,606	0,043	0,068
-302,037	-69,509	-0,145	0,040
-301,022	7,331	0,032	-0,017
-300,008	11,549	0,077	0,042
-298,993	-24,714	0,084	-0,036
-297,978	-200,000	-0,022	0,097
-296,964	800,000	0,019	-0,053
-295,949	-59,717	-0,075	-0,023
-294,935	-104,036	0,121	-0,020
-293,920	-200,000	0,006	0,054
-292,905	268,530	-0,060	0,076
-291,891	-200,000	0,001	-0,051
-290,876	800,000	0,021	0,052
-289,862	800,000	0,057	-0,122
-288,847	-160,533	-0,129	0,005
-287,832	-184,776	-0,008	0,000
-286,818	-37,492	0,079	-0,030
-285,803	-200,000	-0,009	0,060
-284,789	489,713	-0,047	-0,078
-283,774	171,632	0,054	-0,056
-282,759	625,948	-0,055	-0,102
-281,745	45,714	0,030	-0,020
-280,730	-27,847	0,083	-0,035
-279,716	-166,437	0,141	-0,004
-278,701	-93,203	0,081	0,016
-277,686	800,000	0,018	0,045
-276,672	596,278	-0,053	0,096
-275,657	141,879	-0,130	0,124
-274,643	-127,060	-0,116	0,012
-273,628	800,000	-0,024	0,057
-272,613	800,000	-0,044	0,103
-271,599	35,161	0,102	0,065
-270,584	-155,204	-0,045	0,002
-269,570	18,613	0,087	-0,050
-268,555	165,207	-0,065	-0,067
-267,540	-105,025	-0,119	0,019
-266,526	699,533	-0,037	-0,070
-265,511	533,833	0,052	-0,090
-264,497	84,402	-0,086	-0,068
-263,482	-78,535	0,107	0,026
-262,467	-43,394	0,083	0,030
-261,453	6,556	-0,081	0,043
-260,438	-200,000	-0,020	-0,105
-259,424	167,205	-0,083	-0,086
-258,409	-7,728	-0,135	-0,066
-257,395	180,009	-0,049	0,052
-256,380	-17,500	0,019	0,009
-255,365	30,343	0,090	0,056
-254,351	703,905	-0,055	0,105
-253,336	186,214	-0,039	-0,042
-252,322	175,171	-0,140	-0,147
-251,307	-200,000	0,026	-0,116
-250,292	800,000	-0,007	-0,014
-249,278	-166,631	0,109	-0,003
-248,263	22,444	0,071	0,042
-247,249	800,000	0,036	0,095
-246,234	-23,813	0,126	-0,054
-245,219	800,000	-0,011	-0,035
-244,205	20,791	-0,025	0,015
-243,190	126,932	-0,015	-0,014
-242,176	54,195	0,083	0,058
-241,161	61,130	0,075	0,054
-240,146	-83,770	0,075	0,017
-239,132	194,632	-0,079	0,087
-238,117	800,000	0,059	-0,134
-237,103	-18,339	-0,020	0,009
-236,088	303,019	0,082	0,110
-235,073	-85,129	-0,051	-0,012
-234,059	124,776	0,099	0,091
-233,044	-200,000	-0,022	0,132
-232,030	514,178	0,019	0,032
-231,015	800,000	0,058	-0,181
-230,000	-200,000	-0,016	-0,053
-228,986	57,188	-0,045	-0,032
-227,971	-86,269	0,095	0,021
-226,957	-200,000	0,016	0,140
-225,942	-94,967	0,075	0,015
-224,927	-200,000	0,007	-0,037
-223,913	257,969	-0,094	-0,117
-222,898	-150,795	-0,153	0,008
-221,884	13,622	0,204	0,114
-220,869	-158,434	0,044	-0,002
-219,855	-200,000	-0,011	0,162
-218,840	-200,000	0,030	0,161
-217,825	-30,431	-0,042	0,017
-216,811	800,000	0,064	-0,130
-215,796	28,763	0,056	-0,034
-214,782	580,637	-0,070	-0,124
-213,767	71,489	0,078	-0,059
-212,752	-200,000	-0,006	-0,165
-211,738	-26,283	-0,041	0,017
-210,723	175,220	0,058	-0,060
-209,709	-70,814	0,127	-0,034
-208,694	800,000	-0,045	-0,110
-207,679	539,661	-0,045	-0,078
-206,665	-101,772	0,079	0,014
-205,650	187,272	0,089	0,096
-204,636	-200,000	0,012	0,060
-203,621	692,852	-0,019	-0,037
-202,606	-98,679	-0,153	0,028
-201,592	-200,000	-0,008	-0,056
-200,577	800,000	0,033	-0,086
-199,563	386,654	-0,022	0,033
-198,548	-59,956	-0,076	-0,023
-197,533	-153,629	0,211	-0,010
-196,519	-200,000	0,005	0,015
-195,504	-142,316	-0,148	0,010
-194,490	-34,834	-0,195	-0,076
-193,475	800,000	0,013	-0,034
-192,460	800,000	0,029	-0,074
-191,446	-200,000	-0,001	0,101
-190,431	43,863	-0,087	0,057
-189,417	-11,134	-0,063	-0,030
-188,402	-200,000	0,012	-0,055
-187,387	-6,367	0,157	-0,077
-186,373	-48,508	-0,053	-0,018
-185,358	297,724	-0,086	0,114
-184,344	279,542	-0,088	0,114
-183,329	40,939	-0,072	0,047
-182,315	-86,217	0,013	0,003
-181,300	800,000	-0,020	-0,047
-180,285	-61,758	0,015	-0,005
-179,271	405,865	-0,074	0,113
-178,256	-65,516	-0,068	-0,019
-177,242	-200,000	-0,054	-0,228
-176,227	-200,000	0,012	-0,065
-175,212	3,725	0,113	-0,059
-174,198	334,246	-0,107	0,149
-173,183	-29,768	0,062	0,025
-172,169	-163,247	-0,055	0,002
-171,154	-25,864	-0,093	-0,039
-170,139	-200,000	-0,024	-0,094
-169,125	-200,000	0,012	0,113
-168,110	-155,555	-0,038	0,002
-167,096	67,260	-0,061	-0,045
-166,081	172,305	0,085	0,088
-165,066	751,832	0,032	-0,062
-164,052	87,678	-0,151	-0,121
-163,037	613,691	0,046	0,084
-162,023	41,318	0,069	0,045
-161,008	116,207	0,042	0,037
-159,993	104,941	0,056	-0,047
-158,979	61,232	-0,116	-0,083
-157,964	-129,982	0,042	-0,004
-156,950	-10,284	0,071	-0,034
-155,935	-43,131	-0,044	0,016
-154,920	800,000	-0,023	-0,051
-153,906	-176,672	0,119	-0,002
-152,891	207,199	-0,040	0,045
-151,877	800,000	-0,019	0,054
-150,862	800,000	0,036	-0,106
-149,847	-128,597	-0,141	-0,014
-148,833	681,813	-0,022	0,042
-147,818	-142,646	0,077	0,005
-146,804	-37,989	-0,154	0,058
-145,789	-200,000	-0,000	-0,011
-144,775	-5,862	0,100	-0,049
-143,760	106,588	-0,080	0,068
-142,745	12,489	-0,121	0,067
-141,731	601,450	0,034	0,060
-140,716	604,700	-0,073	0,132
-139,702	130,358	0,082	0,075
-138,687	93,652	-0,037	-0,031
-137,672	19,599	-0,086	-0,050
-136,658	-200,000	0,026	0,107
-135,643	19,810	-0,020	0,012
-134,629	55,157	-0,130	-0,090
-133,614	101,725	0,107	-0,090
-132,599	-200,000	-0,003	-0,164
-131,585	-34,974	-0,158	0,062
-130,570	544,884	0,055	-0,095
-129,556	354,871	-0,063	-0,091
-128,541	-200,000	0,005	-0,148
-127,526	20,338	0,113	0,066
-126,512	27,750	-0,068	-0,041
-125,497	-48,629	0,057	0,020
-124,483	77,091	0,035	-0,027
-123,468	800,000	0,029	0,075
-122,453	800,000	0,055	-0,118
-121,439	800,000	-0,113	0,227
-120,424	-200,000	0,017	-0,120
-119,410	305,271	0,085	-0,113
-118,395	399,767	-0,094	0,143
-117,380	-13,575	0,201	0,093
-116,366	408,824	-0,044	-0,067
-115,351	-0,519	-0,085	0,043
-114,337	340,486	0,081	-0,114
-113,322	-106,605	-0,038	0,006
-112,307	-34,099	0,084	0,033
-111,293	-200,000	-0,011	-0,052
-110,278	-144,073	0,037	-0,002
-109,264	255,413	0,048	0,059
-108,249	-5,877	-0,099	-0,049
-107,234	-200,000	0,010	-0,033
-106,220	1,466	-0,095	0,049
-105,205	552,358	0,065	0,112
-104,191	18,143	0,113	-0,065
-103,176	535,489	0,081	0,140
-102,162	800,000	-0,009	0,020
-101,147	-135,854	0,036	-0,003
-100,132	800,000	-0,009	0,023
-99,118	-49,982	-0,059	0,020
-98,103	445,986	-0,021	-0,033
-97,089	800,000	0,004	0,012
-96,074	-82,225	0,070	-0,016
-95,059	-200,000	0,024	0,089
-94,045	-200,000	0,006	-0,062
-93,030	-200,000	-0,010	0,035
-92,016	-160,016	-0,089	-0,003
-91,001	800,000	-0,036	0,074
-89,986	800,000	-0,071	-0,142
-88,972	459,398	0,062	0,100
-87,957	555,692	0,001	-0,002
-86,943	-67,466	0,116	0,033
-85,928	-127,122	-0,036	0,004
-84,913	-95,152	0,108	0,021
-83,899	-173,022	0,033	-0,001
-82,884	-129,702	-0,159	0,016
-81,870	49,737	0,085	0,057
-80,855	-200,000	-0,015	-0,071
-79,840	119,441	0,106	0,094
-78,826	4,166	-0,105	0,055
-77,811	800,000	-0,013	0,036
-76,797	-85,313	0,209	0,046
-75,782	-95,504	0,102	0,019
-74,767	-200,000	0,017	0,098
-73,753	633,524	-0,029	0,053
-72,738	41,274	-0,016	0,010
-71,724	-200,000	-0,001	-0,081
-70,709	800,000	0,018	0,040
-69,694	80,157	-0,029	-0,022
-68,680	-200,000	-0,000	0,008
-67,665	-200,000	-0,005	0,022
-66,651	-22,109	-0,054	-0,024
-65,636	96,242	-0,072	0,059
-64,622	263,887	-0,125	0,156
-63,607	-159,728	-0,199	-0,008
-62,592	-55,861	0,218	0,069
-61,578	8,739	0,052	-0,028
-60,563	-200,000	0,004	0,036
-59,549	188,189	-0,047	0,050
-58,534	-1,974	-2,110	-1,061
-57,519	-200,000	-0,277	-0,892
-56,505	-200,000	-1,308	-5,001
-55,490	76,809	0,756	0,575
-54,476	800,000	5,409	12,226
-53,461	-200,000	17,880	288,400
-52,446	800,000	729,056	2230,879
-51,432	538,351	1645,289	2817,411
-50,417	109,568	1635,775	1406,059
-49,403	75,384	1287,314	973,619
-48,388	31,673	1027,283	632,676
-47,373	20,073	989,173	570,966
-46,359	18,266	976,852	557,911
-45,344	15,279	972,957	545,892
-44,330	15,584	971,369	545,980
-43,315	15,023	969,466	543,057
-42,300	15,028	968,485	542,501
-41,286	14,960	967,490	541,702
-40,271	14,976	966,434	541,141
-39,257	15,016	965,627	540,797
-38,242	15,041	964,593	540,277
-37,227	15,022	963,931	539,823
-36,213	15,060	962,920	539,359
-35,198	15,024	961,987	538,700
-34,184	15,064	961,257	538,399
-33,169	15,014	960,235	537,642
-32,154	15,048	959,459	537,297
-31,140	15,054	958,457	536,732
-30,125	15,022	957,802	536,241
-29,111	15,066	956,708	535,752
-28,096	15,049	956,432	535,519
-27,082	14,992	955,807	534,964
-26,067	15,094	954,827	534,721
-25,052	15,034	954,003	534,048
-24,038	15,002	953,484	533,633
-23,023	15,001	952,896	533,280
-22,009	15,043	952,033	532,910
-20,994	15,070	951,510	532,683
-19,979	14,999	951,093	532,201
-18,965	15,030	950,182	531,769
-17,950	15,008	949,662	531,387
-16,936	14,949	949,059	530,841
-15,921	15,009	948,296	530,584
-14,906	14,898	947,618	529,830
-13,892	14,937	946,974	529,571
-12,877	14,892	946,317	529,041
-11,863	14,898	945,755	528,723
-10,848	14,945	945,019	528,440
-9,833	15,051	944,551	528,494
-8,819	14,953	944,012	527,860
-7,804	14,953	943,410	527,504
-6,790	14,915	942,918	527,089
-5,775	15,008	942,289	527,010
-4,760	14,887	941,734	526,295
-3,746	14,926	941,001	525,987
-2,731	14,810	940,073	525,081
-1,717	14,757	939,853	524,772
-0,702	14,822	938,944	524,449
0,313	14,570	938,427	524,156
1,327	17,798	936,254	533,058
2,342	26,775	792,828	475,141
3,356	23,524	457,696	269,315
4,371	-3,537	313,796	155,937
5,386	-7,580	295,574	142,786
6,400	-9,394	289,388	137,989
7,415	-9,922	287,064	136,351
8,429	-10,016	285,467	135,488
9,444	-10,153	284,625	134,943
10,459	-10,100	283,896	134,637
11,473	-10,115	283,206	134,283
12,488	-9,974	282,812	134,221
13,502	-10,185	282,304	133,764
14,517	-10,130	281,812	133,572
15,531	-10,114	281,294	133,330
16,546	-10,194	281,054	133,127
17,561	-10,111	280,553	132,958
18,575	-10,030	280,207	132,860
19,590	-10,246	279,820	132,458
20,604	-10,205	279,658	132,409
21,619	-10,165	279,313	132,272
22,634	-10,147	278,915	132,088
23,648	-10,308	278,647	131,796
24,663	-10,323	278,443	131,674
25,677	-10,261	278,130	131,573
26,692	-10,156	277,789	131,500
27,707	-10,375	277,598	131,190
28,721	-10,101	277,252	131,274
29,736	-10,411	277,055	130,876
30,750	-10,173	276,495	130,824
31,765	-10,032	276,354	130,879
32,780	-10,159	276,221	130,685
33,794	-10,362	275,978	130,367
34,809	-10,162	275,771	130,446
35,823	-10,250	275,485	130,216
36,838	-10,254	275,255	130,092
37,853	-10,306	274,901	129,864
38,867	-10,115	274,597	129,888
39,882	-10,281	274,487	129,669
40,896	-10,234	274,254	129,591
41,911	-10,331	274,082	129,407
42,926	-10,576	273,753	129,012
43,940	-10,234	273,463	129,183
44,955	-10,476	273,293	128,865
45,969	-10,258	272,931	128,886
46,984	-10,401	272,654	128,611
47,999	-10,664	272,370	128,221
49,013	-10,899	272,362	127,988
50,028	-10,826	271,786	127,773
51,042	-11,071	271,749	127,518
52,057	-10,826	271,486	127,609
53,071	-10,913	271,348	127,453
54,086	-10,768	271,192	127,503
55,101	-10,754	270,955	127,392
56,115	-10,327	270,793	127,699
57,130	-10,210	270,703	127,753
58,144	-10,012	270,487	127,822
59,159	-10,059	270,099	127,584
60,174	-10,030	269,974	127,540
61,188	-10,044	269,700	127,387
62,203	-10,148	269,576	127,221
63,217	-10,080	269,314	127,149
64,232	-10,181	269,085	126,937
65,247	-10,087	268,947	126,946
66,261	-10,091	268,654	126,793
67,276	-10,188	268,277	126,515
68,290	-10,314	267,986	126,251
69,305	-10,310	267,880	126,195
70,320	-10,446	267,665	125,957
71,334	-10,263	267,457	126,015
72,349	-10,130	267,307	126,054
73,363	-10,030	267,087	126,030
74,378	-10,017	266,870	125,928
75,393	-10,130	266,727	125,747
76,407	-10,059	266,368	125,631
77,422	-10,026	266,306	125,621
78,436	-10,033	265,938	125,429
79,451	-9,944	265,683	125,378
80,466	-10,113	265,578	125,164
81,480	-10,327	265,333	124,845
82,495	-10,242	265,042	124,773
83,509	-10,282	265,000	124,706
84,524	-10,337	264,736	124,522
85,539	-10,300	264,397	124,385
86,553	-10,500	264,152	124,079
87,568	-10,267	264,056	124,232
88,582	-10,323	263,885	124,090
89,597	-10,334	263,492	123,884
90,611	-10,179	263,613	124,069
91,626	-10,128	263,351	123,981
92,641	-10,106	263,146	123,892
93,655	-10,268	262,942	123,640
94,670	-10,132	262,639	123,608
95,684	-10,178	262,425	123,456
96,699	-10,338	262,382	123,281
97,714	-10,411	262,045	123,048
98,728	-10,450	261,774	122,875
99,743	-10,401	261,603	122,827
100,757	-10,504	261,455	122,655
101,772	-10,348	261,331	122,724
102,787	-10,320	261,045	122,604
103,801	-10,220	260,992	122,656
104,816	-10,153	260,796	122,613
105,830	-9,930	260,516	122,667
106,845	-9,942	260,422	122,602
107,860	-9,946	260,059	122,416
108,874	-10,204	259,969	122,135
109,889	-10,157	259,789	122,082
110,903	-10,079	259,468	121,988
111,918	-10,158	259,308	121,832
112,933	-10,127	259,147	121,773
113,947	-10,190	259,020	121,647
114,962	-9,990	258,828	121,722
115,976	-10,107	258,522	121,465
116,991	-10,153	258,418	121,365
118,006	-9,904	258,145	121,444
119,020	-10,138	258,145	121,228
120,035	-10,041	258,142	121,301
121,049	-10,174	257,741	120,985
122,064	-10,067	257,650	121,025
123,079	-10,202	257,266	120,716
124,093	-10,330	257,301	120,610
125,108	-10,489	256,847	120,249
126,122	-10,564	256,681	120,095
127,137	-10,586	256,383	119,926
128,151	-10,300	256,209	120,082
129,166	-10,404	256,321	120,033
130,181	-10,222	255,805	119,939
131,195	-10,291	255,664	119,802
132,210	-10,307	255,566	119,731
133,224	-10,323	255,428	119,642
134,239	-10,213	255,252	119,645
135,254	-10,163	254,984	119,552
136,268	-10,064	254,753	119,518
137,283	-10,468	254,524	119,052
138,297	-10,486	254,316	118,928
139,312	-10,577	254,193	118,782
140,327	-10,114	253,933	119,047
141,341	-10,057	254,144	119,185
142,356	-10,011	253,947	119,121
143,370	-10,075	253,652	118,917
144,385	-9,989	253,500	118,909
145,400	-9,994	253,111	118,712
146,414	-9,829	253,055	118,816
147,429	-9,727	252,751	118,750
148,443	-9,886	252,576	118,521
149,458	-9,947	252,521	118,433
150,473	-9,835	252,419	118,470
151,487	-10,034	252,047	118,116
152,502	-9,801	251,798	118,187
153,516	-9,848	251,670	118,076
154,531	-9,875	251,514	117,969
155,546	-9,956	251,502	117,884
156,560	-10,025	251,213	117,680
157,575	-10,009	250,893	117,533
158,589	-10,022	250,792	117,464
159,604	-9,855	250,582	117,496
160,619	-10,076	250,483	117,253
161,633	-10,050	250,247	117,153
162,648	-9,868	250,053	117,206
163,662	-9,932	250,027	117,130
164,677	-9,896	249,786	117,036
165,692	-9,901	249,644	116,955
166,706	-10,011	249,578	116,821
167,721	-9,869	249,351	116,824
168,735	-9,867	249,226	116,756
169,750	-9,912	249,025	116,614
170,764	-9,842	248,803	116,559
171,779	-9,745	248,734	116,598
172,794	-9,689	248,525	116,536
173,808	-9,941	248,362	116,238
174,823	-10,224	248,165	115,898
175,837	-10,547	247,854	115,473
176,852	-10,141	247,860	115,805
177,867	-9,972	247,789	115,902
178,881	-9,942	247,497	115,780
179,896	-10,038	247,396	115,643
180,910	-9,932	247,097	115,581
181,925	-9,833	246,846	115,536
182,940	-9,711	246,828	115,618
183,954	-9,988	246,777	115,354
184,969	-9,859	246,376	115,264
185,983	-9,906	246,284	115,171
186,998	-9,835	246,376	115,263
188,013	-10,027	246,030	114,932
189,027	-9,822	245,693	114,934
190,042	-9,937	245,593	114,782
191,056	-9,836	245,456	114,791
192,071	-9,736	245,093	114,693
193,086	-9,882	245,296	114,657
194,100	-9,709	244,959	114,633
195,115	-9,757	244,760	114,489
196,129	-9,803	244,593	114,363
197,144	-9,850	244,298	114,176
198,159	-9,784	244,129	114,141
199,173	-9,616	243,989	114,204
200,188	-9,750	243,847	114,017
201,202	-10,015	243,641	113,693
202,217	-10,170	243,161	113,332
203,232	-10,230	243,197	113,290
204,246	-10,156	243,248	113,364
205,261	-9,292	243,106	113,995
206,275	-9,516	242,944	113,725
207,290	-4,756	244,763	118,479
208,304	1,918	246,835	124,986
209,319	3,916	247,299	126,860
210,334	4,128	247,099	126,920
211,348	4,252	247,057	126,990
212,363	4,274	246,907	126,919
213,377	4,419	246,599	126,869
214,392	4,173	246,642	126,677
215,407	4,084	246,537	126,539
216,421	4,417	246,251	126,655
217,436	4,285	246,134	126,475
218,450	4,231	245,909	126,303
219,465	4,205	245,752	126,190
220,480	3,867	245,550	125,799
221,494	3,804	245,347	125,632
222,509	3,733	245,218	125,497
223,523	3,888	245,074	125,538
224,538	3,804	244,884	125,361
225,553	3,684	244,777	125,197
226,567	3,568	244,446	124,923
227,582	3,968	244,354	125,190
228,596	3,995	244,215	125,130
229,611	3,586	244,074	124,714
230,626	3,664	243,820	124,636
231,640	3,581	243,743	124,518
232,655	3,836	243,553	124,617
233,669	3,513	243,434	124,283
234,684	3,791	243,085	124,319
235,699	3,738	243,218	124,333
236,713	3,871	243,086	124,362
237,728	3,876	242,688	124,151
238,742	3,571	242,415	123,755
239,757	3,555	242,456	123,751
240,772	3,686	242,470	123,853
241,786	4,018	242,026	123,883
242,801	3,593	241,966	123,499
243,815	3,686	241,937	123,548
244,830	4,000	241,674	123,655
245,844	3,854	241,485	123,430
246,859	3,668	241,477	123,266
247,874	3,645	241,297	123,144
248,888	3,802	241,150	123,184
249,903	3,699	240,971	122,999
250,917	3,693	240,799	122,895
251,932	3,959	240,677	123,035
252,947	4,049	240,426	122,968
253,961	3,993	240,223	122,808
254,976	3,801	240,120	122,591
255,990	3,772	239,816	122,403
257,005	3,853	239,711	122,402
258,020	3,501	239,773	122,143
259,034	3,784	239,558	122,247
260,049	3,749	239,296	122,075
261,063	3,820	239,159	122,051
262,078	3,623	239,088	121,847
263,093	3,945	238,907	122,000
264,107	3,955	238,738	121,910
265,122	3,950	238,509	121,778
266,136	3,700	238,484	121,556
267,151	4,090	238,252	121,736
268,166	3,723	238,091	121,353
269,180	3,752	238,009	121,324
270,195	4,031	237,762	121,407
271,209	4,113	237,644	121,400
272,224	3,675	237,362	120,900
273,239	3,755	237,342	120,942
274,253	3,688	237,139	120,776
275,268	3,810	236,982	120,781
276,282	3,952	236,860	120,820
277,297	3,694	236,660	120,504
278,312	3,827	236,518	120,525
279,326	3,855	236,466	120,510
280,341	3,616	236,366	120,261
281,355	3,869	236,134	120,330
282,370	3,901	235,983	120,268
283,384	3,923	235,775	120,169
284,399	3,618	235,645	119,853
285,414	3,540	235,630	119,774
286,428	3,864	235,261	119,828
287,443	3,706	235,226	119,676
288,457	3,818	235,085	119,681
289,472	3,881	235,000	119,677
290,487	3,695	234,824	119,431
291,501	3,660	234,475	119,216
292,516	3,482	234,413	119,035
293,530	3,692	234,169	119,064
294,545	3,955	234,022	119,182
295,560	3,932	234,156	119,222
296,574	4,039	233,870	119,149
297,589	4,012	233,684	119,023
298,603	3,839	233,743	118,908
299,618	4,086	233,556	118,993
300,633	3,805	233,371	118,671
301,647	3,978	233,338	118,778
302,662	4,045	233,145	118,720
303,676	4,053	232,947	118,615
304,691	3,882	232,872	118,435
305,706	4,226	232,620	118,561
306,720	4,045	232,493	118,346
307,735	3,848	232,290	118,081
308,749	3,947	231,988	117,993
309,764	3,805	231,791	117,773
310,779	3,350	231,961	117,500
311,793	3,487	231,700	117,462
312,808	3,685	231,390	117,446
313,822	3,695	231,281	117,388
314,837	3,617	231,249	117,302
315,852	3,655	231,065	117,227
316,866	3,980	230,933	117,398
317,881	3,983	230,855	117,350
318,895	4,001	230,708	117,279
319,910	3,982	230,485	117,140
320,925	3,907	230,350	117,004
321,939	4,090	230,291	117,102
322,954	4,273	230,151	117,160
323,968	3,964	230,014	116,845
324,983	3,952	229,809	116,722
325,997	4,165	229,582	116,757
327,012	3,875	229,544	116,508
328,027	4,104	229,481	116,639
329,041	4,193	229,428	116,669
330,056	4,428	229,277	116,759
331,070	4,373	229,023	116,578
332,085	4,147	228,829	116,299
333,100	3,923	228,704	116,056
334,114	3,971	228,591	116,024
335,129	4,266	228,363	116,121
336,143	4,051	228,353	115,943
337,158	4,371	227,963	115,975
338,173	3,874	227,966	115,593
339,187	3,927	227,862	115,569
340,202	4,013	227,583	115,482
341,216	3,773	227,670	115,336
342,231	3,783	227,340	115,166
343,246	4,058	227,116	115,248
344,260	3,852	227,072	115,062
345,275	4,179	227,014	115,266
346,289	3,914	226,758	114,928
347,304	4,025	226,797	115,020
348,319	3,937	226,535	114,812
349,333	3,682	226,264	114,474
350,348	3,733	226,085	114,411
351,362	3,392	226,008	114,108
352,377	3,258	225,738	113,862
353,392	3,258	225,501	113,732
354,406	3,148	225,385	113,582
355,421	196,347	1321,470	1400,510
356,435	157,397	1455,002	1400,489
