DTS Sentinel unit serial number:	SN410029Multiplexer serial number:	ORYXHardware model number:	OX2-SRSoftware version number:	ORYX F/W v4,00 Oryx Data Collector v3.7.2.0data status	okinstallation	B5 Nyhavnadifferential loss correction	single-endedforward channel	channel 2reverse channel	N/Adate	2023/12/11time	19:57:13forward acquisition time	300,00reverse acquisition time	0,00gamma	499,1914k internal	0,3158k external	0,3158temperature offset calibration	1,0000default loss term (dB/km)	0,3820temperature slope calibration	1,0000multiplexer offset coefficient	1,0000multiplexer slope coefficient	1,0000fibre end	0,00T internal ref (°C)	15,82T ext. ref 1 (°C)	0,06T ext. ref 2 (°C)	-0,18length (m)	temperature (°C)	Stokes	anti-Stokes-744,400	-200,000	0,006	-0,047
-743,385	-65,609	-0,216	0,063
-742,371	101,728	0,078	0,067
-741,356	-110,212	-0,277	-0,042
-740,342	95,850	0,062	-0,052
-739,327	-46,221	-0,226	-0,082
-738,312	-39,971	0,115	-0,044
-737,298	-113,597	-0,295	0,042
-736,283	18,480	0,048	-0,028
-735,269	81,280	-0,192	-0,153
-734,254	-96,036	0,148	-0,029
-733,239	-36,008	-0,560	-0,222
-732,225	-68,894	0,148	-0,042
-731,210	-200,000	0,050	0,185
-730,196	464,221	0,065	-0,107
-729,181	800,000	-0,022	-0,059
-728,167	-138,904	-0,095	-0,008
-727,152	146,750	0,107	-0,106
-726,137	198,145	0,120	-0,135
-725,123	-200,000	-0,014	-0,057
-724,108	800,000	0,028	-0,082
-723,094	-200,000	0,003	-0,069
-722,079	800,000	-0,026	0,085
-721,064	-200,000	0,001	0,007
-720,050	-200,000	-0,016	-0,056
-719,035	-5,034	-0,081	0,041
-718,021	160,293	-0,077	-0,079
-717,006	79,251	-0,088	-0,069
-715,991	-200,000	0,026	-0,109
-714,977	800,000	0,025	-0,055
-713,962	49,876	-0,118	0,082
-712,948	40,207	0,140	0,092
-711,933	280,616	-0,140	-0,185
-710,918	-200,000	0,037	0,155
-709,904	29,678	-0,097	-0,061
-708,889	-200,000	0,026	0,137
-707,875	56,516	-0,113	-0,081
-706,860	222,540	0,032	0,038
-705,845	249,945	0,093	-0,117
-704,831	-200,000	0,026	0,110
-703,816	120,492	-0,044	-0,040
-702,802	117,573	-0,046	-0,041
-701,787	-200,000	-0,018	-0,078
-700,772	109,777	0,123	-0,109
-699,758	-200,000	0,015	-0,178
-698,743	179,394	0,033	0,036
-697,729	88,939	0,126	-0,103
-696,714	800,000	0,017	0,047
-695,699	19,042	-0,026	0,015
-694,685	800,000	0,035	0,083
-693,670	-200,000	-0,016	-0,165
-692,656	800,000	-0,047	-0,101
-691,641	-2,232	0,125	0,064
-690,627	-200,000	0,018	-0,085
-689,612	-200,000	-0,019	-0,067
-688,597	-200,000	-0,012	-0,094
-687,583	-200,000	-0,016	-0,133
-686,568	100,427	0,128	-0,109
-685,554	334,089	0,052	0,074
-684,539	-200,000	0,009	0,101
-683,524	156,944	0,064	0,065
-682,510	-200,000	0,019	0,076
-681,495	800,000	0,008	-0,019
-680,481	-95,961	-0,092	0,018
-679,466	800,000	0,041	-0,088
-678,451	-73,931	-0,027	-0,007
-677,437	336,325	0,056	-0,081
-676,422	46,536	0,069	0,047
-675,408	34,496	0,075	0,048
-674,393	-57,235	-0,139	0,045
-673,378	385,547	0,048	-0,073
-672,364	478,892	0,056	-0,093
-671,349	-38,390	-0,054	0,021
-670,335	155,175	-0,110	-0,111
-669,320	-50,606	0,101	-0,035
-668,305	-169,253	0,054	-0,001
-667,291	73,891	-0,114	-0,088
-666,276	105,059	0,023	0,020
-665,262	272,122	-0,027	-0,036
-664,247	748,785	-0,050	-0,099
-663,232	-179,760	0,123	-0,002
-662,218	800,000	0,052	-0,107
-661,203	205,584	-0,053	-0,060
-660,189	191,952	0,024	-0,026
-659,174	800,000	-0,018	-0,047
-658,159	800,000	-0,056	-0,172
-657,145	460,486	-0,154	-0,253
-656,130	-10,535	-0,145	0,070
-655,116	800,000	0,084	0,186
-654,101	-72,110	0,104	-0,028
-653,086	800,000	0,030	0,077
-652,072	-46,910	-0,068	0,024
-651,057	-40,350	-0,127	-0,048
-650,043	193,599	0,119	-0,133
-649,028	380,650	-0,024	-0,036
-648,014	203,618	0,051	0,058
-646,999	-79,648	0,139	0,034
-645,984	1,860	-0,169	-0,089
-644,970	800,000	-0,024	-0,056
-643,955	-200,000	0,008	-0,061
-642,941	-200,000	-0,014	-0,258
-641,926	-111,142	-0,100	-0,015
-640,911	-200,000	-0,003	-0,024
-639,897	-79,332	0,099	-0,024
-638,882	-200,000	-0,032	0,116
-637,868	-102,554	-0,117	-0,020
-636,853	334,704	0,046	0,065
-635,838	621,475	-0,051	0,094
-634,824	-74,420	-0,078	-0,020
-633,809	42,125	-0,065	-0,043
-632,795	682,427	0,045	-0,087
-631,780	339,690	0,099	0,141
-630,765	-130,688	-0,118	-0,012
-629,751	311,063	-0,070	-0,097
-628,736	-200,000	0,030	-0,123
-627,722	-3,117	-0,178	-0,091
-626,707	-200,000	-0,018	-0,097
-625,692	88,555	0,043	0,035
-624,678	-42,212	0,081	0,030
-623,663	-200,000	0,011	-0,117
-622,649	-200,000	-0,004	-0,024
-621,634	334,824	-0,076	0,108
-620,619	717,437	0,055	0,108
-619,605	-200,000	0,002	0,045
-618,590	-75,790	-0,031	0,008
-617,576	49,015	0,148	-0,102
-616,561	-32,711	-0,084	0,034
-615,546	-96,816	-0,005	0,001
-614,532	-16,753	-0,130	-0,060
-613,517	-21,174	-0,085	0,038
-612,503	-136,023	0,122	-0,010
-611,488	680,923	0,033	-0,064
-610,474	-56,894	-0,056	-0,018
-609,459	281,265	-0,009	0,012
-608,444	-118,742	-0,209	-0,027
-607,430	800,000	-0,052	-0,166
-606,415	225,378	-0,106	0,126
-605,401	25,764	-0,044	-0,027
-604,386	800,000	-0,022	0,067
-603,371	-92,106	0,141	0,029
-602,357	-200,000	0,004	-0,058
-601,342	171,633	-0,083	-0,087
-600,328	-200,000	0,027	-0,107
-599,313	-196,267	-0,075	-0,000
-598,298	800,000	0,038	0,083
-597,284	-98,353	0,058	0,011
-596,269	-177,679	0,064	0,001
-595,255	125,857	0,070	-0,065
-594,240	-144,499	0,064	-0,004
-593,225	-46,342	0,062	-0,022
-592,211	800,000	0,032	-0,097
-591,196	-200,000	-0,018	0,189
-590,182	193,541	-0,063	0,070
-589,167	-200,000	0,032	0,128
-588,152	578,770	0,051	0,093
-587,138	91,380	-0,061	0,050
-586,123	187,776	0,077	0,085
-585,109	50,939	-0,166	-0,115
-584,094	-5,627	0,048	0,024
-583,079	655,337	0,017	0,033
-582,065	-36,638	-0,048	-0,019
-581,050	-200,000	0,003	0,087
-580,036	-200,000	-0,042	0,161
-579,021	-70,293	-0,141	0,039
-578,006	87,346	0,069	-0,056
-576,992	687,723	0,032	-0,062
-575,977	-200,000	-0,008	-0,036
-574,963	-114,202	0,089	0,012
-573,948	-200,000	-0,017	0,056
-572,934	800,000	-0,034	-0,104
-571,919	60,404	-0,113	-0,082
-570,904	800,000	0,046	-0,117
-569,890	-141,822	0,034	-0,002
-568,875	-115,383	-0,057	0,008
-567,861	46,305	-0,038	0,026
-566,846	-200,000	0,008	-0,062
-565,831	259,030	-0,050	-0,063
-564,817	407,168	-0,032	0,049
-563,802	306,433	-0,037	-0,051
-562,788	-109,566	-0,141	0,022
-561,773	123,897	0,006	0,006
-560,758	760,495	0,033	-0,065
-559,744	202,798	0,121	-0,137
-558,729	-107,646	0,112	0,018
-557,715	191,272	-0,056	0,062
-556,700	-200,000	-0,033	-0,166
-555,685	415,999	0,035	-0,055
-554,671	-200,000	0,013	0,082
-553,656	169,191	0,084	0,088
-552,642	-75,736	0,126	-0,033
-551,627	476,563	0,068	0,113
-550,612	-200,000	-0,002	0,125
-549,598	6,819	0,039	0,021
-548,583	488,224	-0,070	-0,118
-547,569	-41,494	-0,066	0,025
-546,554	499,844	0,006	0,011
-545,539	-100,839	-0,041	-0,007
-544,525	144,211	-0,022	0,021
-543,510	21,382	-0,049	-0,029
-542,496	-109,608	-0,172	-0,026
-541,481	97,581	-0,103	-0,086
-540,466	800,000	0,029	0,069
-539,452	-200,000	-0,003	-0,037
-538,437	230,480	0,035	0,042
-537,423	-31,560	0,124	0,051
-536,408	-100,481	-0,114	0,020
-535,393	-54,641	-0,107	-0,035
-534,379	9,574	0,082	0,045
-533,364	-103,733	-0,027	-0,005
-532,350	-66,423	0,068	-0,020
-531,335	16,211	0,070	-0,040
-530,321	-44,292	0,066	0,024
-529,306	-200,000	-0,009	-0,074
-528,291	354,398	-0,022	-0,031
-527,277	800,000	-0,056	-0,136
-526,262	-200,000	0,028	-0,167
-525,248	-191,385	-0,085	-0,001
-524,233	649,651	0,072	0,135
-523,218	75,064	0,061	0,047
-522,204	-183,518	0,039	-0,000
-521,189	199,402	-0,098	-0,110
-520,175	-200,000	-0,008	-0,138
-519,160	482,210	-0,055	-0,092
-518,145	710,956	0,009	0,017
-517,131	143,098	0,088	-0,085
-516,116	-6,694	0,041	0,020
-515,102	-153,731	0,058	0,003
-514,087	6,495	0,047	-0,026
-513,072	-200,000	-0,006	0,141
-512,058	269,905	0,063	0,081
-511,043	21,163	-0,018	0,010
-510,029	-57,082	0,129	0,041
-509,014	800,000	0,049	0,124
-507,999	800,000	-0,039	0,087
-506,985	800,000	0,021	-0,048
-505,970	-200,000	-0,056	-0,236
-504,956	240,285	-0,004	-0,005
-503,941	244,245	0,070	0,086
-502,926	-200,000	0,021	0,148
-501,912	-200,000	-0,005	-0,028
-500,897	589,173	0,031	0,056
-499,883	344,450	-0,065	0,094
-498,868	-116,575	0,057	-0,008
-497,853	219,433	-0,048	-0,056
-496,839	17,643	-0,058	0,034
-495,824	767,475	0,015	0,030
-494,810	-49,259	-0,103	0,036
-493,795	314,410	-0,066	0,091
-492,781	-200,000	0,005	-0,036
-491,766	79,238	-0,128	0,100
-490,751	651,874	0,026	-0,050
-489,737	-200,000	0,007	-0,068
-488,722	800,000	0,069	0,154
-487,708	427,845	0,046	0,073
-486,693	-200,000	-0,010	0,159
-485,678	800,000	0,028	0,072
-484,664	-112,255	-0,211	-0,031
-483,649	-200,000	-0,042	-0,167
-482,635	800,000	0,039	-0,127
-481,620	19,740	0,146	-0,085
-480,605	74,181	-0,096	0,074
-479,591	-200,000	0,011	0,067
-478,576	-200,000	0,011	-0,102
-477,562	90,284	-0,048	-0,039
-476,547	3,575	-0,067	-0,035
-475,532	-200,000	0,016	-0,142
-474,518	-130,635	0,115	0,011
-473,503	-200,000	0,034	0,110
-472,489	72,474	0,100	0,076
-471,474	-77,539	0,167	0,042
-470,459	-200,000	0,011	-0,150
-469,445	800,000	-0,023	-0,072
-468,430	-133,794	-0,120	0,011
-467,416	-200,000	0,009	0,057
-466,401	-200,000	0,005	0,022
-465,386	21,207	0,137	0,081
-464,372	-141,556	-0,043	-0,003
-463,357	-200,000	0,012	0,092
-462,343	263,997	0,036	-0,046
-461,328	-143,214	-0,104	-0,007
-460,313	2,219	-0,106	0,056
-459,299	-200,000	-0,026	0,205
-458,284	-200,000	0,006	0,051
-457,270	265,416	-0,033	-0,042
-456,255	-200,000	-0,011	-0,054
-455,241	15,733	-0,023	-0,013
-454,226	-96,149	-0,069	0,013
-453,211	800,000	-0,041	0,100
-452,197	78,347	0,103	0,080
-451,182	-61,512	-0,046	-0,014
-450,168	-31,055	0,117	0,048
-449,153	-200,000	-0,003	-0,035
-448,138	800,000	0,033	0,104
-447,124	41,262	-0,097	-0,064
-446,109	-71,783	0,086	-0,023
-445,095	-38,322	-0,112	0,043
-444,080	-57,336	0,058	0,018
-443,065	-111,618	0,076	-0,011
-442,051	84,258	-0,081	-0,064
-441,036	-200,000	-0,005	-0,113
-440,022	-149,998	-0,162	-0,009
-439,007	-101,326	0,120	-0,021
-437,992	800,000	-0,065	-0,134
-436,978	-200,000	-0,001	0,029
-435,963	547,358	0,035	0,061
-434,949	-16,251	-0,073	-0,034
-433,934	-200,000	-0,004	-0,079
-432,919	21,057	-0,103	-0,061
-431,905	187,316	-0,037	-0,040
-430,890	-83,205	0,136	-0,032
-429,876	-84,317	0,037	0,008
-428,861	-163,554	0,129	-0,004
-427,846	-23,770	-0,090	-0,039
-426,832	332,298	-0,091	0,128
-425,817	-200,000	-0,015	-0,054
-424,803	-139,018	0,141	0,011
-423,788	-87,107	0,033	-0,007
-422,773	224,238	-0,018	0,021
-421,759	191,964	0,069	0,076
-420,744	800,000	0,035	-0,074
-419,730	159,478	-0,031	-0,031
-418,715	51,501	-0,067	0,046
-417,701	800,000	0,018	0,052
-416,686	-40,778	-0,035	0,013
-415,671	457,696	0,068	0,111
-414,657	-146,367	0,070	-0,004
-413,642	800,000	0,013	0,030
-412,628	-25,135	-0,070	0,030
-411,613	354,135	-0,053	-0,076
-410,598	-200,000	-0,013	0,176
-409,584	-200,000	0,034	-0,120
-408,569	800,000	0,004	-0,010
-407,555	-200,000	0,003	0,167
-406,540	-200,000	-0,025	0,179
-405,525	-104,423	-0,107	0,018
-404,511	387,183	-0,065	-0,098
-403,496	800,000	-0,045	-0,114
-402,482	-116,285	0,119	-0,016
-401,467	122,585	-0,026	-0,024
-400,452	125,554	0,129	0,119
-399,438	313,282	0,020	0,028
-398,423	215,207	0,052	0,060
-397,409	536,539	-0,010	-0,017
-396,394	-89,669	0,080	-0,017
-395,379	83,657	0,046	0,037
-394,365	800,000	0,051	-0,153
-393,350	-124,881	-0,070	0,008
-392,336	-22,881	-0,015	0,007
-391,321	129,502	-0,079	-0,074
-390,306	123,819	-0,074	-0,068
-389,292	-58,642	0,179	-0,056
-388,277	410,468	-0,045	-0,070
-387,263	-169,043	0,039	-0,001
-386,248	-39,013	0,096	0,037
-385,233	526,986	0,083	0,142
-384,219	234,120	0,038	0,046
-383,204	52,936	-0,079	0,055
-382,190	-200,000	0,008	-0,050
-381,175	-200,000	0,004	-0,094
-380,160	100,915	-0,072	0,061
-379,146	783,192	-0,024	-0,048
-378,131	800,000	-0,024	-0,076
-377,117	637,911	-0,071	0,132
-376,102	-200,000	-0,021	0,073
-375,088	-58,184	0,052	0,016
-374,073	800,000	0,077	-0,208
-373,058	-200,000	0,001	0,060
-372,044	616,229	0,054	0,100
-371,029	-177,334	0,057	0,001
-370,015	32,652	-0,108	0,067
-369,000	190,049	-0,022	-0,024
-367,985	-86,980	0,045	0,010
-366,971	54,980	-0,072	-0,050
-365,956	800,000	0,068	-0,156
-364,942	800,000	0,025	-0,060
-363,927	-105,373	0,154	0,025
-362,912	-23,489	-0,125	-0,054
-361,898	259,286	0,035	0,044
-360,883	33,576	-0,063	0,040
-359,869	800,000	-0,009	0,028
-358,854	800,000	-0,042	0,087
-357,839	210,377	0,041	0,047
-356,825	800,000	-0,023	0,060
-355,810	-200,000	0,024	-0,085
-354,796	192,201	-0,071	-0,078
-353,781	800,000	0,050	-0,117
-352,766	-200,000	0,039	-0,162
-351,752	-167,336	-0,093	0,003
-350,737	-84,400	0,089	-0,020
-349,723	228,400	0,070	0,082
-348,708	-200,000	0,003	-0,022
-347,693	-123,931	-0,092	-0,010
-346,679	-200,000	0,008	-0,139
-345,664	394,865	-0,074	0,112
-344,650	800,000	0,026	-0,054
-343,635	210,455	0,025	-0,029
-342,620	-200,000	-0,001	0,005
-341,606	-200,000	0,021	-0,078
-340,591	-107,049	-0,063	0,010
-339,577	-78,765	-0,092	-0,023
-338,562	800,000	-0,020	0,052
-337,548	321,063	0,075	-0,103
-336,533	12,223	0,032	0,018
-335,518	-168,290	0,215	0,006
-334,504	-200,000	-0,005	-0,071
-333,489	800,000	0,036	0,078
-332,475	-10,316	0,107	-0,051
-331,460	800,000	0,010	0,023
-330,445	53,609	-0,090	0,063
-329,431	73,506	0,023	0,018
-328,416	-200,000	0,011	0,102
-327,402	332,525	0,082	0,115
-326,387	-1,512	-0,070	-0,036
-325,372	-157,988	0,117	-0,005
-324,358	-149,364	-0,114	-0,006
-323,343	190,297	0,044	-0,048
-322,329	-9,444	0,160	-0,077
-321,314	101,867	0,114	-0,096
-320,299	152,585	0,034	0,034
-319,285	276,343	-0,056	0,072
-318,270	-200,000	-0,013	-0,155
-317,256	-200,000	0,023	-0,140
-316,241	800,000	-0,048	-0,131
-315,226	-10,979	-0,155	-0,074
-314,212	800,000	0,034	-0,107
-313,197	219,096	0,067	0,078
-312,183	221,582	-0,052	0,061
-311,168	-19,894	0,026	0,012
-310,153	34,604	0,079	-0,050
-309,139	-81,832	-0,037	0,009
-308,124	645,283	-0,044	0,081
-307,110	113,897	-0,022	0,019
-306,095	-200,000	0,039	0,149
-305,080	-200,000	0,000	-0,070
-304,066	3,344	-0,136	-0,072
-303,051	59,675	0,097	-0,069
-302,037	304,746	0,005	0,007
-301,022	-87,158	0,136	-0,030
-300,008	25,583	-0,087	0,052
-298,993	-20,862	0,054	-0,024
-297,978	-200,000	-0,009	0,102
-296,964	800,000	0,003	-0,009
-295,949	58,206	-0,104	0,074
-294,935	176,055	0,053	-0,056
-293,920	54,198	0,086	-0,060
-292,905	160,035	-0,024	0,024
-291,891	-200,000	0,022	0,086
-290,876	-1,212	-0,150	0,077
-289,862	466,249	0,027	-0,043
-288,847	-116,415	-0,083	-0,011
-287,832	727,766	0,036	-0,070
-286,818	93,656	-0,072	0,059
-285,803	49,021	0,041	-0,028
-284,789	81,490	-0,053	-0,042
-283,774	-84,701	0,056	-0,013
-282,759	292,682	-0,047	0,062
-281,745	50,940	-0,150	-0,103
-280,730	-35,251	-0,075	-0,030
-279,716	487,972	0,059	0,097
-278,701	248,104	-0,085	0,105
-277,686	-80,353	0,047	-0,011
-276,672	233,103	-0,085	0,101
-275,657	-36,074	-0,044	-0,017
-274,643	62,449	-0,062	-0,045
-273,628	800,000	0,050	0,120
-272,613	800,000	0,008	-0,023
-271,599	13,561	0,106	0,060
-270,584	-100,557	0,079	0,014
-269,570	235,874	0,043	-0,051
-268,555	224,153	0,143	-0,168
-267,540	-87,074	0,073	-0,016
-266,526	-49,150	0,046	-0,016
-265,511	800,000	0,007	-0,019
-264,497	-10,941	-0,032	0,015
-263,482	157,244	0,086	0,086
-262,467	-131,006	0,040	0,004
-261,453	-84,162	-0,033	-0,007
-260,438	41,528	-0,231	-0,151
-259,424	73,094	0,060	0,045
-258,409	-200,000	0,008	0,126
-257,395	-200,000	0,014	0,109
-256,380	800,000	0,073	0,148
-255,365	63,934	-0,083	0,060
-254,351	800,000	-0,032	0,071
-253,336	-68,243	-0,082	-0,023
-252,322	172,049	-0,083	-0,086
-251,307	45,451	0,040	0,027
-250,292	-24,985	0,080	0,034
-249,278	62,837	0,070	0,051
-248,263	-128,516	0,102	-0,010
-247,249	-84,410	0,145	-0,033
-246,234	800,000	0,025	-0,055
-245,219	153,760	0,068	-0,067
-244,205	114,446	-0,099	0,087
-243,190	116,780	0,105	-0,093
-242,176	81,153	0,005	-0,004
-241,161	-200,000	-0,023	0,092
-240,146	136,582	-0,053	0,050
-239,132	371,523	0,034	-0,050
-238,117	-123,407	-0,287	-0,033
-237,103	129,474	-0,063	0,058
-236,088	-54,349	0,041	-0,013
-235,073	293,556	0,112	0,149
-234,059	-200,000	-0,002	0,063
-233,044	166,198	-0,071	-0,073
-232,030	70,645	0,130	-0,097
-231,015	133,293	-0,048	0,045
-230,000	-37,499	0,084	-0,032
-228,986	22,413	0,146	0,086
-227,971	-200,000	-0,008	0,129
-226,957	-149,366	-0,108	-0,006
-225,942	-12,742	-0,073	0,034
-224,927	-122,290	0,152	-0,018
-223,913	-173,405	0,023	0,000
-222,898	118,205	0,020	-0,018
-221,884	6,944	0,107	0,058
-220,869	49,138	-0,035	-0,023
-219,855	72,666	-0,091	0,068
-218,840	685,591	-0,026	0,049
-217,825	174,917	-0,098	0,103
-216,811	-60,084	0,100	0,031
-215,796	-75,784	0,051	0,013
-214,782	-155,871	-0,092	0,004
-213,767	50,575	0,117	-0,080
-212,752	-200,000	0,006	0,114
-211,738	156,248	0,042	-0,041
-210,723	193,539	0,012	0,013
-209,709	-75,125	-0,100	0,026
-208,694	459,014	0,043	0,069
-207,679	-200,000	-0,001	-0,096
-206,665	800,000	-0,017	0,037
-205,650	-59,204	-0,059	0,018
-204,636	-53,969	0,093	-0,031
-203,621	800,000	-0,049	-0,140
-202,606	534,346	-0,053	-0,090
-201,592	7,779	-0,025	0,013
-200,577	-49,964	-0,037	-0,013
-199,563	613,268	0,032	0,059
-198,548	-200,000	0,006	0,034
-197,533	800,000	0,047	-0,097
-196,519	-200,000	0,005	0,051
-195,504	-39,492	0,166	0,062
-194,490	23,537	0,028	-0,016
-193,475	-55,224	-0,113	0,036
-192,460	85,082	0,081	-0,064
-191,446	-200,000	0,026	0,096
-190,431	-200,000	-0,000	-0,018
-189,417	800,000	-0,006	0,016
-188,402	371,824	0,096	0,141
-187,387	669,965	-0,036	-0,067
-186,373	59,510	-0,086	-0,061
-185,358	30,875	-0,025	-0,015
-184,344	-14,893	0,058	-0,027
-183,329	181,074	-0,022	0,023
-182,315	800,000	0,044	0,108
-181,300	253,852	-0,105	0,129
-180,285	22,228	-0,067	-0,039
-179,271	92,618	-0,066	-0,054
-178,256	-200,000	0,011	0,082
-177,242	57,428	-0,008	-0,006
-176,227	800,000	-0,036	-0,099
-175,212	281,372	0,041	0,053
-174,198	-106,786	0,087	0,014
-173,183	58,924	-0,034	-0,024
-172,169	-33,370	-0,056	-0,022
-171,154	-200,000	-0,003	-0,057
-170,139	107,481	0,071	0,061
-169,125	32,537	-0,103	0,064
-168,110	789,758	-0,010	-0,020
-167,096	57,590	-0,081	0,057
-166,081	-75,919	-0,079	0,020
-165,066	326,466	0,020	-0,027
-164,052	229,782	-0,071	-0,084
-163,037	338,249	0,075	-0,105
-162,023	-35,972	0,045	0,018
-161,008	-84,362	0,182	-0,041
-159,993	-200,000	0,001	0,080
-158,979	800,000	0,024	0,058
-157,964	736,265	0,051	-0,100
-156,950	-51,959	-0,209	-0,070
-155,935	-200,000	-0,001	-0,039
-154,920	-127,838	-0,086	-0,009
-153,906	-65,750	-0,066	0,019
-152,891	-91,806	0,097	-0,020
-151,877	21,913	-0,124	0,073
-150,862	-200,000	0,010	0,113
-149,847	-138,131	-0,157	-0,012
-148,833	-5,255	0,096	-0,047
-147,818	35,669	0,062	0,039
-146,804	-200,000	0,041	-0,153
-145,789	61,277	-0,142	0,102
-144,775	104,142	-0,086	0,073
-143,760	12,733	-0,005	0,003
-142,745	-71,466	-0,156	-0,042
-141,731	679,215	0,069	-0,130
-140,716	670,765	-0,022	-0,042
-139,702	-121,249	0,181	-0,022
-138,687	800,000	-0,070	0,150
-137,672	-14,513	-0,063	-0,029
-136,658	-200,000	-0,064	-0,215
-135,643	67,668	0,128	-0,094
-134,629	-200,000	0,003	0,097
-133,614	-84,002	0,128	0,029
-132,599	183,155	-0,095	0,101
-131,585	-200,000	-0,016	0,108
-130,570	327,040	-0,052	0,071
-129,556	-23,398	-0,129	-0,055
-128,541	321,050	-0,065	0,089
-127,526	88,077	0,069	-0,055
-126,512	-152,747	-0,094	0,005
-125,497	-200,000	-0,045	0,148
-124,483	-185,948	0,035	-0,000
-123,468	16,073	0,066	0,037
-122,453	-200,000	0,017	0,079
-121,439	-200,000	-0,028	-0,119
-120,424	207,278	-0,052	-0,058
-119,410	800,000	0,010	-0,028
-118,395	110,679	0,090	0,078
-117,380	163,104	0,020	0,021
-116,366	412,282	-0,080	0,123
-115,351	800,000	0,060	0,137
-114,337	-97,119	0,123	-0,023
-113,322	55,344	0,029	-0,020
-112,307	215,333	-0,065	0,075
-111,293	800,000	0,059	0,171
-110,278	-200,000	0,001	0,049
-109,264	-200,000	-0,006	0,084
-108,249	175,412	0,014	-0,015
-107,234	-68,760	-0,092	-0,025
-106,220	794,108	0,046	-0,092
-105,205	-84,469	0,187	-0,042
-104,191	-200,000	0,005	-0,043
-103,176	-146,236	-0,071	-0,004
-102,162	-200,000	-0,052	0,181
-101,147	632,300	-0,075	0,136
-100,132	0,357	-0,039	-0,020
-99,118	14,591	-0,035	0,020
-98,103	800,000	0,031	-0,088
-97,089	-200,000	0,000	-0,075
-96,074	-58,795	0,150	0,046
-95,059	800,000	-0,011	0,027
-94,045	-190,903	-0,156	0,001
-93,030	800,000	-0,018	0,038
-92,016	-41,622	0,068	-0,025
-91,001	800,000	-0,019	-0,044
-89,986	-6,732	0,062	-0,030
-88,972	108,337	0,044	0,038
-87,957	8,675	0,074	0,040
-86,943	-47,919	0,037	-0,013
-85,928	110,283	-0,088	0,076
-84,913	3,431	-0,133	-0,069
-83,899	137,120	-0,073	0,068
-82,884	-200,000	-0,015	0,126
-81,870	-200,000	-0,022	0,075
-80,855	800,000	-0,028	0,060
-79,840	135,380	-0,013	-0,012
-78,826	396,259	-0,074	-0,112
-77,811	163,143	-0,036	0,036
-76,797	-107,168	0,102	0,016
-75,782	800,000	0,015	0,038
-74,767	41,094	-0,076	0,049
-73,753	92,173	-0,114	0,092
-72,738	149,775	0,084	-0,082
-71,724	-200,000	-0,024	-0,111
-70,709	349,653	-0,064	-0,091
-69,694	107,178	-0,030	0,026
-68,680	-87,239	-0,045	-0,010
-67,665	-132,589	0,127	0,012
-66,651	247,488	-0,066	0,080
-65,636	-136,356	-0,097	-0,008
-64,622	236,522	0,038	-0,046
-63,607	543,101	0,115	-0,198
-62,592	800,000	0,055	-0,166
-61,578	-35,829	-0,029	0,011
-60,563	-200,000	-0,010	-0,102
-59,549	29,767	-0,057	0,035
-58,534	4,929	-1,806	-0,951
-57,519	800,000	-0,372	-0,993
-56,505	-200,000	-1,138	-4,938
-55,490	-1,490	0,673	0,340
-54,476	800,000	5,292	12,101
-53,461	-200,000	17,330	282,770
-52,446	800,000	722,683	2222,392
-51,432	541,162	1639,166	2812,669
-50,417	111,737	1631,670	1412,769
-49,403	75,875	1286,404	974,817
-48,388	32,725	1028,298	636,825
-47,373	20,169	990,393	571,941
-46,359	18,665	978,259	559,980
-45,344	16,171	974,283	549,518
-44,330	16,327	972,919	549,239
-43,315	15,847	971,229	546,695
-42,300	15,884	969,944	546,070
-41,286	15,832	969,048	545,375
-40,271	15,811	967,956	544,668
-39,257	15,811	967,135	544,185
-38,242	15,866	966,107	543,764
-37,227	15,787	965,452	543,116
-36,213	15,819	964,618	542,731
-35,198	15,802	963,673	542,121
-34,184	15,875	962,980	541,946
-33,169	15,844	961,988	541,268
-32,154	15,879	961,068	540,841
-31,140	15,894	960,062	540,303
-30,125	15,869	959,599	539,940
-29,111	15,884	958,512	539,354
-28,096	15,918	957,997	539,153
-27,082	15,892	957,220	538,611
-26,067	15,821	956,535	537,975
-25,052	15,834	955,776	537,571
-24,038	15,829	955,031	537,113
-23,023	15,809	954,662	536,820
-22,009	15,870	953,858	536,541
-20,994	15,881	953,240	536,209
-19,979	15,886	952,545	535,811
-18,965	15,793	952,099	535,241
-17,950	15,863	951,334	535,013
-16,936	15,797	950,815	534,490
-15,921	15,789	950,169	534,081
-14,906	15,768	949,234	533,467
-13,892	15,761	948,561	533,045
-12,877	15,725	948,046	532,620
-11,863	15,639	947,351	531,934
-10,848	15,683	946,991	531,851
-9,833	15,856	946,376	532,035
-8,819	15,794	945,906	531,551
-7,804	15,759	944,999	530,910
-6,790	15,770	944,584	530,693
-5,775	15,812	944,027	530,491
-4,760	15,769	943,329	529,941
-3,746	15,736	942,790	529,512
-2,731	15,608	941,971	528,627
-1,717	15,537	941,392	528,055
-0,702	15,566	940,810	527,801
0,313	15,361	940,174	527,593
1,327	18,541	937,808	536,239
2,342	27,449	795,406	478,431
3,356	24,340	459,100	271,370
4,371	-2,560	313,433	156,788
5,386	-6,603	295,187	143,573
6,400	-8,439	289,313	138,888
7,415	-9,074	286,841	137,067
8,429	-9,092	285,336	136,318
9,444	-9,250	284,538	135,770
10,459	-9,142	283,831	135,525
11,473	-9,322	283,186	135,031
12,488	-9,206	282,677	134,889
13,502	-9,270	282,341	134,654
14,517	-9,195	281,656	134,388
15,531	-9,331	281,273	134,062
16,546	-9,297	280,943	133,926
17,561	-9,419	280,369	133,524
18,575	-9,185	280,046	133,582
19,590	-9,393	279,565	133,142
20,604	-9,315	279,487	133,167
21,619	-9,257	278,903	132,932
22,634	-9,364	278,730	132,736
23,648	-9,348	278,397	132,580
24,663	-9,503	278,317	132,384
25,677	-9,367	277,940	132,322
26,692	-9,331	277,618	132,191
27,707	-9,190	277,256	132,140
28,721	-9,365	277,115	131,896
29,736	-9,326	276,614	131,682
30,750	-9,463	276,692	131,578
31,765	-9,422	276,287	131,413
32,780	-9,350	276,093	131,376
33,794	-9,351	275,781	131,215
34,809	-9,497	275,583	130,972
35,823	-9,433	275,233	130,854
36,838	-9,400	275,040	130,782
37,853	-9,388	274,734	130,635
38,867	-9,511	274,584	130,437
39,882	-9,492	274,322	130,319
40,896	-9,445	274,124	130,257
41,911	-9,320	273,801	130,209
42,926	-9,464	273,605	129,970
43,940	-9,591	273,271	129,682
44,955	-9,412	273,101	129,755
45,969	-9,449	272,912	129,620
46,984	-9,734	272,613	129,201
47,999	-9,951	272,443	128,908
49,013	-10,043	272,100	128,648
50,028	-10,120	272,010	128,524
51,042	-9,997	271,585	128,425
52,057	-10,089	271,306	128,196
53,071	-10,152	271,203	128,078
54,086	-9,803	270,938	128,264
55,101	-9,910	270,839	128,107
56,115	-9,610	270,659	128,287
57,130	-9,232	270,486	128,541
58,144	-9,239	270,355	128,461
59,159	-9,177	270,085	128,379
60,174	-9,198	269,917	128,268
61,188	-9,180	269,513	128,081
62,203	-9,140	269,344	128,027
63,217	-9,220	269,311	127,925
64,232	-9,402	268,995	127,597
65,247	-9,177	268,748	127,675
66,261	-9,272	268,590	127,501
67,276	-9,349	268,147	127,210
68,290	-9,444	268,079	127,080
69,305	-9,829	267,793	126,581
70,320	-9,697	267,714	126,653
71,334	-9,524	267,531	126,712
72,349	-9,240	267,199	126,802
73,363	-9,243	267,156	126,767
74,378	-9,211	266,910	126,669
75,393	-9,317	266,673	126,449
76,407	-9,310	266,566	126,394
77,422	-9,326	266,215	126,201
78,436	-9,306	265,935	126,075
79,451	-9,288	265,858	126,044
80,466	-9,364	265,634	125,858
81,480	-9,434	265,256	125,605
82,495	-9,571	265,149	125,419
83,509	-9,472	264,933	125,395
84,524	-9,656	264,627	125,073
85,539	-9,502	264,462	125,123
86,553	-9,452	264,172	125,019
87,568	-9,372	264,190	125,088
88,582	-9,578	263,776	124,696
89,597	-9,611	263,788	124,661
90,611	-9,373	263,578	124,764
91,626	-9,443	263,358	124,586
92,641	-9,279	263,177	124,636
93,655	-9,424	262,919	124,374
94,670	-9,425	262,716	124,265
95,684	-9,308	262,502	124,258
96,699	-9,398	262,356	124,097
97,714	-9,453	262,252	123,987
98,728	-9,610	261,929	123,685
99,743	-9,649	261,551	123,460
100,757	-9,581	261,413	123,444
101,772	-9,394	261,094	123,449
102,787	-9,440	261,028	123,365
103,801	-9,343	260,970	123,413
104,816	-9,291	260,799	123,367
105,830	-9,090	260,587	123,433
106,845	-9,280	260,447	123,188
107,860	-9,200	260,302	123,179
108,874	-9,218	259,900	122,962
109,889	-9,270	259,794	122,855
110,903	-9,369	259,674	122,700
111,918	-9,320	259,305	122,558
112,933	-9,125	259,122	122,632
113,947	-9,182	259,010	122,519
114,962	-9,250	258,838	122,366
115,976	-9,201	258,642	122,306
116,991	-9,378	258,457	122,052
118,006	-9,136	258,203	122,133
119,020	-9,476	258,169	121,808
120,035	-9,327	257,886	121,795
121,049	-9,289	257,919	121,832
122,064	-9,484	257,721	121,557
123,079	-9,394	257,466	121,506
124,093	-9,362	257,187	121,391
125,108	-9,423	256,893	121,188
126,122	-9,583	256,712	120,953
127,137	-9,750	256,453	120,675
128,151	-9,646	256,268	120,667
129,166	-9,438	256,094	120,755
130,181	-9,552	255,967	120,586
131,195	-9,661	255,831	120,416
132,210	-9,467	255,625	120,476
133,224	-9,286	255,544	120,584
134,239	-9,299	255,372	120,481
135,254	-9,107	255,024	120,472
136,268	-9,373	254,944	120,194
137,283	-9,537	254,527	119,845
138,297	-9,846	254,288	119,456
139,312	-9,689	254,128	119,505
140,327	-9,398	254,025	119,696
141,341	-9,185	253,973	119,844
142,356	-9,107	253,855	119,844
143,370	-9,125	253,693	119,742
144,385	-8,978	253,296	119,669
145,400	-9,205	253,180	119,410
146,414	-9,192	253,096	119,370
147,429	-9,106	252,854	119,320
148,443	-9,276	252,823	119,149
149,458	-9,046	252,506	119,185
150,473	-9,026	252,353	119,119
151,487	-9,139	252,082	118,884
152,502	-9,115	251,933	118,824
153,516	-8,988	251,702	118,812
154,531	-9,158	251,674	118,644
155,546	-9,077	251,416	118,581
156,560	-9,197	251,332	118,429
157,575	-9,291	250,999	118,181
158,589	-9,235	250,874	118,159
159,604	-9,079	250,662	118,181
160,619	-9,111	250,523	118,078
161,633	-9,002	250,298	118,053
162,648	-9,004	250,172	117,982
163,662	-9,230	250,151	117,771
164,677	-8,883	249,853	117,913
165,692	-8,954	249,741	117,790
166,706	-9,046	249,522	117,598
167,721	-9,051	249,380	117,517
168,735	-8,972	249,262	117,516
169,750	-9,014	249,222	117,452
170,764	-9,189	248,951	117,167
171,779	-8,941	248,738	117,264
172,794	-8,995	248,590	117,139
173,808	-9,187	248,456	116,905
174,823	-9,485	248,048	116,453
175,837	-9,529	247,862	116,318
176,852	-9,078	247,827	116,669
177,867	-9,153	247,738	116,553
178,881	-9,134	247,678	116,531
179,896	-8,934	247,330	116,523
180,910	-9,239	247,396	116,290
181,925	-8,923	246,967	116,341
182,940	-8,993	246,943	116,260
183,954	-8,974	246,694	116,149
184,969	-9,117	246,570	115,962
185,983	-9,036	246,278	115,881
186,998	-9,079	246,265	115,829
188,013	-8,872	245,950	115,841
189,027	-9,125	246,010	115,650
190,042	-8,930	245,733	115,671
191,056	-9,130	245,675	115,467
192,071	-8,726	245,305	115,617
193,086	-8,920	245,241	115,416
194,100	-8,804	244,958	115,368
195,115	-8,697	244,828	115,385
196,129	-8,955	244,775	115,138
197,144	-8,717	244,377	115,135
198,159	-8,940	244,302	114,907
199,173	-8,990	244,146	114,782
200,188	-9,017	243,926	114,647
201,202	-9,396	243,790	114,261
202,217	-9,649	243,474	113,896
203,232	-9,679	243,254	113,758
204,246	-9,079	243,161	114,195
205,261	-8,480	243,199	114,693
206,275	-9,231	242,826	113,894
207,290	-6,871	243,751	116,250
208,304	-1,423	245,440	121,528
209,319	1,321	246,008	124,056
210,334	1,693	246,125	124,410
211,348	1,809	246,141	124,502
212,363	2,213	246,130	124,818
213,377	2,356	245,963	124,839
214,392	2,397	245,760	124,758
215,407	2,329	245,531	124,575
216,421	2,285	245,475	124,500
217,436	2,567	245,291	124,627
218,450	2,687	245,136	124,635
219,465	2,296	244,956	124,212
220,480	2,241	244,772	124,063
221,494	2,362	244,757	124,143
222,509	2,452	244,627	124,139
223,523	2,660	244,387	124,177
224,538	2,031	243,971	123,443
225,553	2,091	243,769	123,378
226,567	2,240	243,687	123,446
227,582	2,285	243,643	123,450
228,596	2,246	243,423	123,295
229,611	2,281	243,215	123,208
230,626	2,116	243,173	123,041
231,640	2,081	242,952	122,890
232,655	2,277	242,861	122,992
233,669	2,274	242,649	122,871
234,684	1,957	242,651	122,605
235,699	2,528	242,461	122,959
236,713	2,709	242,274	123,000
237,728	2,375	242,052	122,606
238,742	2,199	241,809	122,331
239,757	1,966	241,715	122,084
240,772	2,268	241,386	122,151
241,786	2,304	241,259	122,105
242,801	1,837	241,232	121,704
243,815	1,813	240,826	121,469
244,830	2,063	240,976	121,735
245,844	2,256	240,876	121,829
246,859	2,254	240,599	121,676
247,874	2,176	240,308	121,455
248,888	2,360	240,302	121,589
249,903	2,413	240,110	121,523
250,917	2,541	240,141	121,630
251,932	2,786	239,976	121,731
252,947	2,433	239,669	121,284
253,961	1,837	239,487	120,705
254,976	2,254	239,413	120,990
255,990	2,296	239,262	120,936
257,005	2,253	238,893	120,704
258,020	1,658	238,791	120,169
259,034	2,125	238,672	120,470
260,049	2,419	238,588	120,650
261,063	2,265	238,212	120,327
262,078	1,940	238,246	120,076
263,093	2,308	238,084	120,275
264,107	2,302	237,965	120,199
265,122	2,081	237,894	119,978
266,136	2,173	237,745	119,965
267,151	2,570	237,601	120,195
268,166	2,257	237,441	119,857
269,180	2,236	237,178	119,696
270,195	2,585	237,178	119,961
271,209	2,850	236,947	120,042
272,224	2,230	236,708	119,423
273,239	1,859	236,537	119,034
274,253	1,967	236,488	119,084
275,268	2,353	236,229	119,245
276,282	2,425	236,169	119,260
277,297	2,010	235,817	118,747
278,312	2,149	235,914	118,895
279,326	2,215	235,804	118,881
280,341	2,357	235,677	118,917
281,355	2,327	235,440	118,763
282,370	2,603	235,206	118,850
283,384	2,385	235,054	118,593
284,399	2,205	234,888	118,358
285,414	2,019	234,657	118,086
286,428	2,288	234,572	118,242
287,443	2,351	234,413	118,200
288,457	2,561	234,527	118,410
289,472	2,475	234,322	118,230
290,487	2,495	233,904	118,024
291,501	2,215	233,759	117,723
292,516	1,966	233,512	117,395
293,530	1,854	233,380	117,232
294,545	2,314	233,382	117,578
295,560	2,382	233,233	117,545
296,574	2,025	233,076	117,180
297,589	2,052	232,929	117,117
298,603	2,444	232,790	117,339
299,618	2,576	232,829	117,449
300,633	2,326	232,545	117,103
301,647	2,661	232,369	117,262
302,662	2,857	232,486	117,461
303,676	2,903	232,267	117,376
304,691	2,743	231,984	117,099
305,706	2,582	231,906	116,925
306,720	2,636	231,886	116,947
307,735	2,783	231,525	116,867
308,749	2,530	231,363	116,581
309,764	2,239	231,254	116,293
310,779	2,128	230,934	116,037
311,793	2,096	230,703	115,886
312,808	2,137	230,650	115,880
313,822	1,898	230,505	115,615
314,837	1,947	230,256	115,517
315,852	1,839	230,356	115,475
316,866	2,152	230,238	115,644
317,881	2,490	230,129	115,836
318,895	2,618	229,993	115,854
319,910	2,885	229,765	115,932
320,925	2,697	229,548	115,669
321,939	2,388	229,282	115,291
322,954	2,547	229,487	115,504
323,968	2,632	229,254	115,441
324,983	2,479	229,054	115,215
325,997	2,670	228,965	115,304
327,012	2,382	228,807	114,996
328,027	2,129	228,585	114,683
329,041	2,513	228,301	114,820
330,056	2,768	228,525	115,115
331,070	3,205	228,436	115,390
332,085	2,802	228,184	114,948
333,100	2,666	227,876	114,681
334,114	2,525	227,676	114,464
335,129	2,641	227,501	114,453
336,143	2,470	227,527	114,327
337,158	2,667	227,425	114,414
338,173	2,640	227,142	114,241
339,187	2,472	227,051	114,059
340,202	2,811	226,850	114,202
341,216	2,664	226,600	113,956
342,231	2,508	226,685	113,871
343,246	2,582	226,514	113,831
344,260	2,482	226,363	113,670
345,275	2,820	226,281	113,871
346,289	2,856	226,261	113,878
347,304	3,022	225,984	113,851
348,319	2,683	225,899	113,546
349,333	2,708	225,583	113,396
350,348	2,571	225,397	113,191
351,362	2,481	225,391	113,111
352,377	2,260	225,236	112,859
353,392	2,409	224,984	112,833
354,406	2,651	224,872	112,945
355,421	197,409	1320,189	1402,399
356,435	158,286	1453,640	1402,413
