DTS Sentinel unit serial number:	SN410029Multiplexer serial number:	ORYXHardware model number:	OX2-SRSoftware version number:	ORYX F/W v4,00 Oryx Data Collector v3.7.2.0data status	okinstallation	B5 Nyhavnadifferential loss correction	single-endedforward channel	channel 2reverse channel	N/Adate	2023/12/13time	05:57:13forward acquisition time	300,00reverse acquisition time	0,00gamma	499,1914k internal	0,3160k external	0,3160temperature offset calibration	1,0000default loss term (dB/km)	0,3820temperature slope calibration	1,0000multiplexer offset coefficient	1,0000multiplexer slope coefficient	1,0000fibre end	0,00T internal ref (°C)	13,81T ext. ref 1 (°C)	-2,64T ext. ref 2 (°C)	-2,95length (m)	temperature (°C)	Stokes	anti-Stokes-744,400	-138,609	0,046	0,004
-743,385	-56,806	-0,298	0,096
-742,371	-44,268	0,233	0,085
-741,356	-56,070	-0,292	0,095
-740,342	-200,000	0,039	0,139
-739,327	-193,513	-0,325	-0,002
-738,312	-126,057	0,113	-0,012
-737,298	-120,520	-0,216	-0,027
-736,283	-115,391	0,108	-0,015
-735,269	-113,152	-0,258	0,037
-734,254	69,446	0,039	-0,030
-733,239	-54,834	-0,535	-0,177
-732,225	44,917	0,150	-0,101
-731,210	37,057	-0,046	-0,030
-730,196	35,366	-0,058	-0,037
-729,181	-97,218	-0,087	0,017
-728,167	65,523	-0,063	-0,047
-727,152	117,852	0,037	-0,033
-726,137	4,277	-0,101	0,055
-725,123	67,915	-0,047	-0,035
-724,108	-89,800	-0,150	-0,032
-723,094	141,463	0,068	-0,066
-722,079	800,000	0,033	0,069
-721,064	71,424	-0,210	-0,160
-720,050	155,602	0,071	0,072
-719,035	-19,031	-0,113	0,052
-718,021	145,314	-0,095	-0,094
-717,006	532,457	-0,028	-0,048
-715,991	142,329	-0,088	-0,086
-714,977	-143,108	-0,166	-0,012
-713,962	-200,000	-0,004	0,064
-712,948	305,073	-0,047	-0,065
-711,933	-200,000	0,013	-0,048
-710,918	-66,123	-0,169	0,049
-709,904	220,088	-0,073	-0,086
-708,889	-200,000	-0,050	-0,184
-707,875	-200,000	-0,006	-0,059
-706,860	302,012	0,048	-0,066
-705,845	-200,000	0,004	-0,015
-704,831	-95,574	0,088	0,017
-703,816	800,000	-0,047	0,137
-702,802	-67,454	-0,017	-0,005
-701,787	609,030	-0,103	-0,190
-700,772	-200,000	-0,002	-0,025
-699,758	65,188	0,027	-0,020
-698,743	314,698	-0,039	-0,054
-697,729	591,821	-0,011	-0,020
-696,714	24,200	0,050	0,030
-695,699	429,811	-0,060	-0,096
-694,685	313,117	-0,039	-0,054
-693,670	225,268	-0,031	0,037
-692,656	-169,462	0,051	-0,001
-691,641	-43,529	0,113	-0,042
-690,627	-196,490	-0,102	-0,000
-689,612	247,289	-0,025	0,031
-688,597	800,000	0,036	-0,096
-687,583	323,585	0,039	-0,055
-686,568	800,000	-0,026	-0,060
-685,554	116,045	0,075	-0,068
-684,539	76,795	-0,105	-0,082
-683,524	-149,652	0,089	-0,005
-682,510	800,000	-0,052	0,162
-681,495	-182,968	-0,117	-0,001
-680,481	47,792	-0,063	-0,043
-679,466	18,722	-0,079	0,046
-678,451	19,995	-0,059	-0,035
-677,437	-200,000	0,015	-0,079
-676,422	539,887	-0,022	-0,038
-675,408	-200,000	0,014	0,059
-674,393	285,686	0,122	-0,161
-673,378	-179,176	-0,122	0,002
-672,364	189,776	0,065	-0,072
-671,349	133,845	-0,108	-0,103
-670,335	-135,875	-0,028	0,002
-669,320	521,595	-0,069	0,120
-668,305	-83,712	0,084	-0,019
-667,291	-200,000	0,015	0,119
-666,276	730,257	0,042	-0,083
-665,262	-72,491	-0,147	-0,040
-664,247	-139,043	-0,119	-0,009
-663,232	-100,079	0,113	-0,021
-662,218	-48,763	0,076	0,027
-661,203	279,887	-0,056	-0,074
-660,189	-19,600	0,022	0,010
-659,174	-49,860	-0,035	0,012
-658,159	611,355	0,009	0,017
-657,145	35,088	0,075	-0,048
-656,130	-36,634	-0,061	0,024
-655,116	-112,550	-0,053	-0,008
-654,101	100,911	-0,006	0,005
-653,086	-200,000	-0,013	-0,042
-652,072	-116,198	0,050	-0,007
-651,057	-73,599	-0,154	0,041
-650,043	523,086	0,050	-0,087
-649,028	800,000	-0,039	-0,095
-648,014	-16,008	-0,045	0,021
-646,999	-200,000	-0,036	0,187
-645,984	800,000	-0,025	-0,059
-644,970	-121,259	-0,180	0,022
-643,955	763,429	-0,055	-0,110
-642,941	800,000	0,016	-0,044
-641,926	-76,566	0,069	0,018
-640,911	800,000	-0,009	-0,024
-639,897	-160,791	0,075	0,003
-638,882	-123,259	-0,091	-0,011
-637,868	142,264	-0,064	-0,062
-636,853	42,874	-0,066	0,044
-635,838	-200,000	-0,013	0,141
-634,824	112,934	0,103	0,091
-633,809	-200,000	0,002	0,035
-632,795	-200,000	0,024	-0,124
-631,780	6,561	0,073	-0,040
-630,765	-200,000	0,005	0,144
-629,751	-200,000	-0,019	-0,087
-628,736	-200,000	-0,004	0,034
-627,722	-81,065	-0,175	-0,042
-626,707	94,681	-0,030	-0,025
-625,692	-46,399	0,009	0,003
-624,678	800,000	0,023	0,061
-623,663	284,084	-0,059	0,078
-622,649	-200,000	0,031	-0,114
-621,634	-64,590	-0,046	0,014
-620,619	133,877	-0,082	0,078
-619,605	62,069	0,077	-0,056
-618,590	4,037	0,017	0,009
-617,576	-200,000	0,000	-0,023
-616,561	-22,756	-0,176	0,078
-615,546	-200,000	0,021	0,096
-614,532	-200,000	-0,012	0,045
-613,517	-200,000	0,014	-0,099
-612,503	-200,000	-0,019	0,214
-611,488	-48,142	-0,067	0,023
-610,474	119,694	-0,071	0,064
-609,459	240,549	-0,080	0,098
-608,444	-19,039	-0,034	0,015
-607,430	650,676	0,024	-0,046
-606,415	614,216	0,035	-0,064
-605,401	800,000	0,039	0,089
-604,386	-54,133	-0,029	-0,010
-603,371	406,446	0,032	-0,049
-602,357	-200,000	-0,023	0,099
-601,342	-200,000	0,014	-0,052
-600,328	-109,788	-0,105	0,016
-599,313	-200,000	0,046	0,000
-598,298	5,335	0,081	-0,044
-597,284	-105,218	0,124	-0,021
-596,269	-200,000	-0,025	0,106
-595,255	-200,000	-0,006	-0,042
-594,240	-200,000	0,005	-0,096
-593,225	-200,000	0,001	-0,138
-592,211	800,000	0,058	-0,139
-591,196	-200,000	-0,010	-0,064
-590,182	-62,049	0,050	-0,015
-589,167	465,164	0,053	0,087
-588,152	345,719	-0,061	0,088
-587,138	-200,000	-0,018	0,079
-586,123	-30,900	-0,216	0,089
-585,109	-123,556	-0,196	-0,023
-584,094	-200,000	-0,008	0,205
-583,079	80,910	0,060	0,047
-582,065	800,000	-0,027	0,061
-581,050	-183,841	-0,049	0,001
-580,036	186,768	-0,034	-0,037
-579,021	774,155	-0,031	0,061
-578,006	137,917	0,097	0,094
-576,992	-200,000	0,013	0,046
-575,977	-200,000	-0,027	0,139
-574,963	-108,380	0,097	0,015
-573,948	-200,000	0,020	-0,128
-572,934	270,976	0,079	-0,103
-571,919	-68,447	-0,100	0,028
-570,904	39,603	-0,086	0,056
-569,890	-200,000	-0,011	-0,113
-568,875	135,007	0,026	-0,024
-567,861	-24,193	-0,094	-0,041
-566,846	298,002	-0,028	-0,038
-565,831	12,625	-0,153	0,086
-564,817	447,667	0,023	0,038
-563,802	800,000	-0,048	-0,130
-562,788	25,213	-0,180	-0,109
-561,773	70,962	0,033	0,025
-560,758	-19,055	-0,105	-0,048
-559,744	-48,313	-0,075	0,026
-558,729	7,219	0,048	0,026
-557,715	-200,000	-0,010	-0,041
-556,700	-200,000	0,023	-0,077
-555,685	165,619	-0,072	-0,075
-554,671	-37,010	-0,070	-0,027
-553,656	153,272	0,091	-0,091
-552,642	-11,686	0,078	-0,037
-551,627	167,785	0,052	0,054
-550,612	2,465	-0,107	0,057
-549,598	-86,282	0,112	0,025
-548,583	-200,000	0,001	0,047
-547,569	-200,000	0,140	0,000
-546,554	139,180	0,070	0,068
-545,539	508,374	-0,070	0,120
-544,525	-111,680	0,112	-0,016
-543,510	-200,000	-0,004	0,046
-542,496	182,389	-0,043	0,047
-541,481	397,883	0,048	-0,073
-540,466	-147,747	-0,073	-0,004
-539,452	155,427	0,024	0,024
-538,437	132,496	0,088	-0,083
-537,423	-15,065	0,085	-0,040
-536,408	800,000	-0,029	0,082
-535,393	316,190	-0,075	0,104
-534,379	-65,363	-0,104	-0,030
-533,364	-150,930	0,070	0,004
-532,350	0,479	0,086	0,045
-531,335	-79,037	0,094	0,023
-530,321	319,552	0,052	-0,072
-529,306	133,094	-0,068	0,064
-528,291	-200,000	-0,021	-0,105
-527,277	-82,416	-0,078	0,018
-526,262	553,733	0,009	-0,016
-525,248	-200,000	-0,004	-0,058
-524,233	800,000	-0,013	0,032
-523,218	800,000	-0,030	-0,073
-522,204	-200,000	-0,010	0,043
-521,189	-193,564	0,140	-0,001
-520,175	-200,000	-0,010	-0,135
-519,160	800,000	-0,037	-0,096
-518,145	388,814	-0,047	-0,072
-517,131	3,811	0,062	0,033
-516,116	-200,000	-0,031	0,137
-515,102	26,586	0,062	0,038
-514,087	800,000	-0,016	-0,049
-513,072	800,000	0,043	-0,102
-512,058	-200,000	0,009	-0,073
-511,043	67,192	-0,121	-0,090
-510,029	-68,827	0,171	-0,048
-509,014	198,422	0,096	0,108
-507,999	-200,000	-0,010	0,032
-506,985	158,195	0,078	0,079
-505,970	707,399	0,029	0,057
-504,956	362,427	-0,110	-0,162
-503,941	-200,000	0,000	-0,072
-502,926	-27,781	-0,141	-0,059
-501,912	-200,000	-0,061	0,000
-500,897	131,746	-0,067	-0,063
-499,883	-67,727	-0,115	0,033
-498,868	800,000	-0,018	-0,044
-497,853	-172,796	0,056	-0,001
-496,839	-200,000	-0,011	-0,066
-495,824	-45,680	0,075	0,027
-494,810	-4,287	-0,074	-0,037
-493,795	800,000	0,029	0,061
-492,781	-121,509	0,074	0,009
-491,766	-200,000	0,034	-0,136
-490,751	-124,120	0,083	0,009
-489,737	-7,409	-0,088	-0,043
-488,722	-83,387	0,032	0,007
-487,708	800,000	0,020	-0,046
-486,693	187,560	0,095	-0,104
-485,678	800,000	-0,020	-0,054
-484,664	-147,859	-0,137	0,008
-483,649	-65,102	0,095	0,028
-482,635	-38,326	-0,060	-0,023
-481,620	-200,000	0,010	0,075
-480,605	800,000	-0,049	0,108
-479,591	-158,037	0,047	0,002
-478,576	121,731	0,019	-0,017
-477,562	45,304	-0,067	0,045
-476,547	-200,000	-0,046	-0,186
-475,532	7,913	-0,100	-0,054
-474,518	-200,000	0,002	0,010
-473,503	-200,000	0,018	0,104
-472,489	512,868	-0,049	0,084
-471,474	-129,318	0,025	-0,003
-470,459	195,175	0,014	-0,016
-469,445	-36,880	-0,156	-0,061
-468,430	-139,991	-0,086	0,006
-467,416	-67,035	0,038	0,011
-466,401	-143,788	-0,035	-0,002
-465,386	461,711	0,031	0,051
-464,372	-105,252	0,071	-0,012
-463,357	28,588	-0,068	0,042
-462,343	-36,962	-0,117	0,045
-461,328	61,231	-0,150	-0,109
-460,313	-200,000	-0,007	-0,112
-459,299	272,927	0,009	0,011
-458,284	-29,782	-0,055	-0,023
-457,270	202,472	-0,065	0,073
-456,255	-186,033	0,032	0,000
-455,241	-200,000	-0,012	-0,040
-454,226	178,445	-0,086	-0,091
-453,211	-102,952	0,126	-0,022
-452,197	245,253	-0,068	-0,083
-451,182	-200,000	-0,001	-0,011
-450,168	781,575	0,029	0,059
-449,153	-1,793	-0,080	0,041
-448,138	236,710	-0,043	-0,052
-447,124	-50,932	0,080	0,027
-446,109	800,000	-0,005	-0,015
-445,095	-29,806	0,037	0,015
-444,080	-62,272	0,080	0,024
-443,065	-38,738	0,095	-0,036
-442,051	-52,084	-0,068	-0,023
-441,036	276,523	-0,008	0,010
-440,022	520,222	0,094	-0,162
-439,007	-36,046	0,115	0,045
-437,992	-88,914	0,062	-0,013
-436,978	-83,963	-0,079	-0,018
-435,963	48,791	-0,111	0,075
-434,949	-189,024	0,096	-0,001
-433,934	189,296	-0,071	-0,078
-432,919	-200,000	-0,024	-0,144
-431,905	36,791	0,080	-0,051
-430,890	800,000	-0,011	-0,027
-429,876	183,707	0,072	0,077
-428,861	322,602	0,049	0,067
-427,846	-186,677	-0,064	-0,001
-426,832	-200,000	0,014	-0,089
-425,817	-200,000	-0,009	0,072
-424,803	-104,416	0,008	-0,001
-423,788	-138,185	-0,201	0,016
-422,773	-200,000	0,011	-0,044
-421,759	-58,507	-0,068	-0,021
-420,744	-51,896	-0,076	0,025
-419,730	54,123	0,022	-0,015
-418,715	748,569	-0,077	-0,152
-417,701	-200,000	0,003	0,047
-416,686	-147,794	0,123	0,007
-415,671	-200,000	0,004	0,026
-414,657	141,255	0,098	-0,094
-413,642	64,162	0,048	0,035
-412,628	800,000	-0,043	0,109
-411,613	131,801	-0,060	0,056
-410,598	-200,000	-0,031	0,106
-409,584	-42,281	-0,030	0,011
-408,569	-44,518	0,117	0,042
-407,555	800,000	0,070	0,179
-406,540	-105,487	0,156	0,026
-405,525	-116,767	-0,085	0,011
-404,511	-200,000	-0,037	-0,189
-403,496	5,510	0,048	-0,026
-402,482	-95,398	0,079	-0,015
-401,467	-200,000	-0,012	-0,064
-400,452	800,000	-0,022	-0,057
-399,438	-200,000	-0,019	0,136
-398,423	-111,210	-0,029	-0,004
-397,409	-200,000	-0,008	-0,083
-396,394	-68,438	-0,038	-0,011
-395,379	-103,670	0,137	-0,023
-394,365	9,754	0,111	-0,061
-393,350	-200,000	-0,007	-0,059
-392,336	185,431	-0,044	-0,048
-391,321	628,848	0,081	-0,149
-390,306	-132,715	-0,074	-0,007
-389,292	36,694	-0,072	-0,046
-388,277	19,019	-0,032	-0,018
-387,263	800,000	0,014	0,038
-386,248	163,988	0,051	0,052
-385,233	59,113	0,072	0,052
-384,219	-47,088	-0,065	-0,023
-383,204	-200,000	-0,001	-0,121
-382,190	-200,000	-0,013	-0,180
-381,175	-200,000	-0,020	-0,072
-380,160	27,008	-0,038	0,023
-379,146	221,670	0,125	-0,146
-378,131	561,801	-0,090	-0,159
-377,117	368,582	0,060	-0,089
-376,102	-34,770	-0,074	0,029
-375,088	584,483	0,067	-0,120
-374,073	-61,337	-0,030	0,009
-373,058	111,133	-0,032	0,028
-372,044	-200,000	0,043	0,138
-371,029	-12,803	0,050	-0,024
-370,015	92,568	0,034	-0,028
-369,000	422,879	0,057	-0,089
-367,985	-33,715	0,046	0,019
-366,971	-200,000	-0,016	-0,089
-365,956	732,955	-0,056	-0,109
-364,942	-6,071	0,067	-0,033
-363,927	-200,000	0,024	0,118
-362,912	-79,585	0,130	-0,032
-361,898	-200,000	0,007	-0,061
-360,883	-200,000	0,000	-0,005
-359,869	126,611	0,072	0,066
-358,854	475,363	0,085	-0,139
-357,839	-200,000	0,008	-0,048
-356,825	143,352	0,021	0,020
-355,810	174,400	0,089	-0,093
-354,796	-34,159	-0,097	-0,038
-353,781	-124,114	0,052	0,006
-352,766	28,756	-0,017	0,010
-351,752	88,201	0,065	0,052
-350,737	123,880	0,216	0,196
-349,723	-183,289	-0,039	0,000
-348,708	800,000	0,019	-0,055
-347,693	36,151	-0,097	-0,062
-346,679	-200,000	0,010	-0,069
-345,664	28,288	0,037	0,023
-344,650	129,507	0,028	-0,026
-343,635	92,200	0,111	0,091
-342,620	500,866	0,009	0,015
-341,606	-63,172	0,137	0,041
-340,591	-200,000	-0,003	-0,088
-339,577	248,592	-0,058	0,071
-338,562	303,213	-0,033	-0,044
-337,548	800,000	-0,060	-0,163
-336,533	-116,796	-0,085	0,011
-335,518	800,000	0,021	0,063
-334,504	258,552	-0,061	0,077
-333,489	800,000	-0,035	-0,075
-332,475	123,794	-0,068	-0,062
-331,460	800,000	-0,016	-0,045
-330,445	64,337	0,073	-0,053
-329,431	-66,452	0,038	0,011
-328,416	-81,671	0,021	-0,005
-327,402	441,145	-0,085	0,135
-326,387	284,982	0,097	0,127
-325,372	-200,000	0,013	-0,067
-324,358	85,202	-0,065	-0,052
-323,343	-200,000	0,038	0,136
-322,329	800,000	0,055	0,131
-321,314	-200,000	-0,014	0,108
-320,299	-196,255	0,025	0,000
-319,285	140,478	0,047	0,045
-318,270	-200,000	0,003	0,115
-317,256	248,515	-0,030	-0,037
-316,241	44,526	-0,091	-0,061
-315,226	-53,264	-0,104	0,034
-314,212	200,981	0,064	0,071
-313,197	669,740	-0,105	0,198
-312,183	245,086	-0,052	-0,064
-311,168	-26,625	-0,056	0,024
-310,153	-200,000	0,034	-0,110
-309,139	-134,669	0,020	0,002
-308,124	355,015	-0,045	-0,065
-307,110	787,829	-0,052	0,104
-306,095	3,070	-0,105	-0,055
-305,080	358,966	0,060	0,087
-304,066	388,025	0,064	0,096
-303,051	-101,481	-0,083	-0,015
-302,037	56,986	0,076	0,053
-301,022	330,148	0,031	0,043
-300,008	-133,201	0,068	0,006
-298,993	3,960	-0,090	0,047
-297,978	118,890	-0,053	0,047
-296,964	54,830	0,096	-0,067
-295,949	-200,000	-0,015	0,066
-294,935	-82,930	-0,128	0,030
-293,920	-140,531	-0,095	-0,007
-292,905	308,632	0,085	0,115
-291,891	-200,000	0,014	0,089
-290,876	92,492	-0,035	0,029
-289,862	-98,907	0,068	0,012
-288,847	64,509	-0,093	0,068
-287,832	79,313	0,030	0,023
-286,818	-5,333	-0,056	-0,028
-285,803	-200,000	0,042	-0,276
-284,789	-200,000	-0,040	-0,136
-283,774	-200,000	-0,014	0,080
-282,759	-62,305	-0,066	0,020
-281,745	231,568	0,089	-0,105
-280,730	94,876	-0,021	0,017
-279,716	369,682	-0,044	0,065
-278,701	800,000	-0,019	0,040
-277,686	-133,654	0,058	0,005
-276,672	369,132	-0,021	0,031
-275,657	254,329	0,030	0,038
-274,643	-29,590	-0,146	0,060
-273,628	-175,889	-0,074	-0,001
-272,613	-111,994	-0,125	-0,018
-271,599	89,606	0,076	-0,061
-270,584	224,647	0,129	-0,151
-269,570	89,303	0,116	-0,094
-268,555	-68,160	0,063	-0,018
-267,540	-113,780	0,122	-0,017
-266,526	-200,000	-0,007	-0,096
-265,511	800,000	0,032	0,095
-264,497	31,050	0,136	-0,084
-263,482	-200,000	0,028	0,145
-262,467	-200,000	0,034	0,197
-261,453	91,055	0,087	-0,071
-260,438	125,370	-0,074	0,068
-259,424	-200,000	-0,005	0,042
-258,409	-200,000	-0,018	0,129
-257,395	131,280	0,177	0,164
-256,380	133,460	0,021	-0,020
-255,365	800,000	-0,018	-0,038
-254,351	-200,000	-0,014	-0,070
-253,336	247,982	-0,067	-0,082
-252,322	-146,230	-0,058	-0,004
-251,307	-58,459	0,115	-0,036
-250,292	-45,048	0,126	-0,045
-249,278	800,000	-0,027	0,075
-248,263	-200,000	-0,029	0,144
-247,249	-77,575	0,038	-0,009
-246,234	228,463	-0,048	-0,057
-245,219	238,292	-0,086	0,103
-244,205	183,946	-0,035	-0,037
-243,190	-84,200	0,043	-0,010
-242,176	800,000	-0,025	-0,054
-241,161	-179,760	0,212	-0,003
-240,146	172,378	-0,098	0,102
-239,132	-38,119	0,077	-0,029
-238,117	-27,861	-0,085	-0,036
-237,103	-47,292	-0,106	-0,037
-236,088	-200,000	0,029	-0,188
-235,073	-119,895	0,088	0,011
-234,059	-145,040	0,092	0,006
-233,044	-14,006	0,141	0,065
-232,030	-81,511	0,055	-0,013
-231,015	258,966	0,069	0,086
-230,000	-109,937	-0,098	0,015
-228,986	375,352	-0,110	0,163
-227,971	-75,283	-0,061	0,016
-226,957	-200,000	0,003	0,156
-225,942	-200,000	-0,016	0,075
-224,927	-25,118	-0,086	0,037
-223,913	-200,000	0,001	0,204
-222,898	29,372	0,081	-0,050
-221,884	20,308	0,080	0,047
-220,869	-93,812	0,009	-0,002
-219,855	-157,474	0,088	-0,004
-218,840	-19,686	-0,072	-0,032
-217,825	61,561	0,056	-0,040
-216,811	-49,093	-0,065	0,022
-215,796	461,667	0,076	-0,122
-214,782	-200,000	-0,002	-0,043
-213,767	128,344	-0,062	0,057
-212,752	-48,159	-0,068	0,024
-211,738	-53,721	-0,137	-0,045
-210,723	-200,000	0,020	-0,072
-209,709	-200,000	-0,004	0,097
-208,694	120,359	-0,017	0,015
-207,679	-69,244	0,133	0,037
-206,665	225,926	0,044	-0,052
-205,650	299,402	0,067	0,090
-204,636	104,449	0,044	0,037
-203,621	75,288	0,051	0,039
-202,606	338,149	-0,034	-0,047
-201,592	-200,000	-0,011	-0,102
-200,577	-200,000	0,008	-0,064
-199,563	-99,685	0,083	0,015
-198,548	-2,568	-0,039	-0,020
-197,533	-128,893	0,100	0,010
-196,519	-200,000	-0,016	-0,084
-195,504	-98,469	-0,088	-0,016
-194,490	-200,000	-0,022	-0,164
-193,475	281,958	0,083	-0,107
-192,460	164,915	-0,079	0,081
-191,446	128,264	0,069	0,064
-190,431	-200,000	0,023	0,219
-189,417	339,774	0,048	0,067
-188,402	-200,000	0,030	-0,120
-187,387	-69,915	0,053	-0,014
-186,373	-200,000	-0,009	0,033
-185,358	432,413	0,026	-0,041
-184,344	800,000	0,031	0,085
-183,329	128,849	0,037	0,034
-182,315	800,000	-0,038	0,120
-181,300	593,719	-0,034	-0,061
-180,285	203,385	-0,095	0,106
-179,271	121,146	0,036	-0,033
-178,256	-63,705	0,120	0,035
-177,242	49,225	0,041	0,027
-176,227	50,526	-0,082	0,056
-175,212	-200,000	-0,026	0,097
-174,198	800,000	-0,026	0,079
-173,183	800,000	-0,040	0,120
-172,169	349,480	0,117	-0,166
-171,154	-200,000	0,024	-0,085
-170,139	-75,387	-0,062	-0,016
-169,125	800,000	0,025	0,067
-168,110	342,125	-0,083	0,117
-167,096	583,755	-0,025	0,045
-166,081	105,944	-0,033	-0,028
-165,066	800,000	-0,055	-0,113
-164,052	297,297	-0,103	0,136
-163,037	-200,000	0,015	0,065
-162,023	436,102	0,072	-0,114
-161,008	-121,461	0,097	-0,012
-159,993	98,969	0,057	0,047
-158,979	-200,000	-0,005	0,098
-157,964	343,261	0,051	-0,072
-156,950	223,828	-0,033	-0,038
-155,935	116,824	-0,060	0,053
-154,920	-54,942	0,077	0,025
-153,906	166,470	0,078	-0,079
-152,891	243,155	-0,064	-0,077
-151,877	-200,000	0,010	0,084
-150,862	-59,372	-0,100	0,031
-149,847	-200,000	0,001	-0,037
-148,833	-200,000	-0,036	-0,129
-147,818	103,572	0,135	0,114
-146,804	-200,000	0,020	-0,189
-145,789	160,815	0,064	0,065
-144,775	800,000	-0,043	-0,099
-143,760	-200,000	0,005	-0,023
-142,745	-29,183	-0,147	-0,060
-141,731	177,086	0,076	-0,080
-140,716	-200,000	0,017	0,066
-139,702	-200,000	-0,006	-0,061
-138,687	800,000	0,007	0,016
-137,672	180,137	0,077	-0,082
-136,658	422,105	-0,052	-0,081
-135,643	-102,664	-0,084	0,014
-134,629	-41,969	0,030	0,011
-133,614	-200,000	-0,016	0,106
-132,599	22,322	-0,012	-0,007
-131,585	289,066	-0,063	0,083
-130,570	446,140	0,023	-0,036
-129,556	800,000	0,022	-0,056
-128,541	73,911	-0,055	0,042
-127,526	-133,425	-0,040	0,004
-126,512	0,758	-0,070	0,036
-125,497	800,000	0,069	0,190
-124,483	-184,824	0,112	-0,001
-123,468	420,469	-0,032	0,049
-122,453	-200,000	-0,016	-0,092
-121,439	-200,000	-0,007	-0,053
-120,424	44,032	-0,104	0,068
-119,410	-200,000	-0,014	0,185
-118,395	156,589	0,063	0,062
-117,380	-67,635	0,036	-0,010
-116,366	-200,000	0,016	-0,068
-115,351	-73,408	-0,151	0,039
-114,337	13,253	-0,076	0,042
-113,322	-95,703	-0,052	-0,010
-112,307	178,445	-0,050	0,053
-111,293	277,902	0,110	0,141
-110,278	-200,000	0,007	0,024
-109,264	-200,000	-0,008	0,144
-108,249	-200,000	0,025	-0,099
-107,234	71,208	-0,163	-0,121
-106,220	165,681	0,077	0,078
-105,205	-200,000	-0,039	-0,156
-104,191	800,000	-0,079	0,168
-103,176	-97,879	0,241	0,044
-102,162	242,160	0,049	-0,059
-101,147	42,583	0,049	0,032
-100,132	-78,835	-0,070	0,017
-99,118	46,787	-0,053	0,035
-98,103	-127,970	0,157	-0,016
-97,089	-110,428	-0,081	-0,012
-96,074	-27,365	0,094	-0,039
-95,059	483,456	-0,013	0,021
-94,045	244,869	0,034	-0,041
-93,030	800,000	-0,052	0,124
-92,016	93,662	0,077	-0,062
-91,001	179,494	-0,049	0,051
-89,986	-200,000	0,218	-0,001
-88,972	42,013	0,064	0,042
-87,957	262,016	0,065	-0,081
-86,943	313,957	-0,017	-0,023
-85,928	136,470	-0,024	-0,023
-84,913	-200,000	0,005	0,050
-83,899	128,363	-0,127	0,116
-82,884	156,193	0,127	0,126
-81,870	-0,970	-0,051	0,026
-80,855	-68,241	-0,084	-0,023
-79,840	-127,786	-0,062	0,006
-78,826	18,595	-0,091	0,052
-77,811	461,301	-0,056	0,090
-76,797	800,000	0,019	0,043
-75,782	-76,545	0,093	0,023
-74,767	-144,534	0,093	0,006
-73,753	-160,880	0,080	0,003
-72,738	-35,304	0,067	-0,026
-71,724	-113,948	-0,080	0,011
-70,709	52,484	-0,103	0,070
-69,694	258,690	-0,065	-0,081
-68,680	-39,295	-0,133	0,050
-67,665	556,255	0,044	0,077
-66,651	46,556	0,035	0,023
-65,636	35,533	0,026	-0,017
-64,622	143,410	-0,071	0,068
-63,607	-200,000	-0,007	-0,041
-62,592	139,523	0,126	0,119
-61,578	800,000	0,024	-0,066
-60,563	176,082	0,108	0,113
-59,549	800,000	-0,052	0,154
-58,534	42,626	-2,139	-1,394
-57,519	-200,000	-0,063	-0,667
-56,505	-200,000	-1,355	-5,018
-55,490	171,416	0,786	0,810
-54,476	800,000	5,425	12,085
-53,461	-200,000	18,694	315,538
-52,446	800,000	741,165	2329,409
-51,432	557,874	1657,135	2877,436
-50,417	111,005	1640,979	1416,663
-49,403	75,432	1290,654	975,806
-48,388	30,424	1031,326	630,556
-47,373	20,016	993,830	573,153
-46,359	17,474	981,583	557,699
-45,344	14,124	977,823	544,522
-44,330	14,536	976,088	544,888
-43,315	13,880	974,329	541,732
-42,300	13,798	973,314	540,879
-41,286	13,846	972,297	540,450
-40,271	13,809	971,516	539,872
-39,257	13,795	970,584	539,287
-38,242	13,840	969,553	538,839
-37,227	13,824	968,723	538,304
-36,213	13,843	967,764	537,813
-35,198	13,767	966,890	537,057
-34,184	13,848	966,180	536,906
-33,169	13,818	965,292	536,293
-32,154	13,863	964,130	535,773
-31,140	13,817	963,563	535,289
-30,125	13,857	962,613	534,869
-29,111	13,821	961,944	534,360
-28,096	13,843	961,299	534,051
-27,082	13,878	960,526	533,714
-26,067	13,819	959,765	533,078
-25,052	13,862	958,940	532,737
-24,038	13,863	958,359	532,398
-23,023	13,846	957,807	532,014
-22,009	13,916	957,106	531,829
-20,994	13,853	956,401	531,214
-19,979	13,841	955,850	530,847
-18,965	13,831	955,014	530,331
-17,950	13,844	954,526	530,082
-16,936	13,779	953,969	529,541
-15,921	13,814	953,305	529,263
-14,906	13,766	952,483	528,631
-13,892	13,728	951,833	528,129
-12,877	13,753	951,018	527,735
-11,863	13,706	950,579	527,322
-10,848	13,656	950,037	526,838
-9,833	13,795	949,301	526,855
-8,819	13,796	948,782	526,549
-7,804	13,775	948,171	526,122
-6,790	13,751	947,587	525,699
-5,775	13,752	947,101	525,412
-4,760	13,751	946,639	525,133
-3,746	13,757	945,763	524,647
-2,731	13,589	945,343	523,857
-1,717	13,598	944,302	523,287
-0,702	13,579	943,678	522,861
0,313	13,398	943,216	522,819
1,327	16,581	941,009	531,627
2,342	25,497	795,609	473,167
3,356	21,706	460,369	267,948
4,371	-5,089	317,475	155,997
5,386	-8,806	299,347	143,275
6,400	-10,857	293,318	138,320
7,415	-11,237	290,691	136,691
8,429	-11,585	289,266	135,664
9,444	-11,581	288,361	135,231
10,459	-11,423	287,617	135,026
11,473	-11,554	287,159	134,670
12,488	-11,387	286,591	134,556
13,502	-11,437	286,015	134,225
14,517	-11,402	285,642	134,071
15,531	-11,333	285,055	133,852
16,546	-11,276	284,833	133,791
17,561	-11,409	284,352	133,424
18,575	-11,328	284,059	133,353
19,590	-11,400	283,671	133,089
20,604	-11,227	283,304	133,072
21,619	-11,366	283,013	132,789
22,634	-11,263	282,479	132,626
23,648	-11,430	282,269	132,355
24,663	-11,399	282,157	132,321
25,677	-11,273	281,722	132,226
26,692	-11,556	281,646	131,907
27,707	-11,433	281,232	131,819
28,721	-11,380	281,059	131,777
29,736	-11,507	280,712	131,481
30,750	-11,319	280,420	131,512
31,765	-11,536	280,235	131,206
32,780	-11,357	280,008	131,259
33,794	-11,311	279,554	131,079
34,809	-11,236	279,180	130,963
35,823	-11,482	279,036	130,649
36,838	-11,512	278,746	130,474
37,853	-11,525	278,731	130,443
38,867	-11,613	278,512	130,245
39,882	-11,370	277,971	130,210
40,896	-11,464	277,963	130,106
41,911	-11,277	277,584	130,094
42,926	-11,556	277,506	129,782
43,940	-11,457	277,130	129,688
44,955	-11,431	276,927	129,606
45,969	-11,632	276,800	129,346
46,984	-11,554	276,356	129,200
47,999	-11,849	276,304	128,886
49,013	-11,914	275,816	128,585
50,028	-12,037	275,599	128,358
51,042	-12,175	275,359	128,105
52,057	-12,382	275,039	127,751
53,071	-12,031	274,907	128,007
54,086	-11,999	274,736	127,946
55,101	-11,866	274,659	128,023
56,115	-11,551	274,427	128,197
57,130	-11,481	274,260	128,173
58,144	-11,174	273,969	128,313
59,159	-11,339	273,824	128,080
60,174	-11,420	273,466	127,826
61,188	-11,400	273,355	127,781
62,203	-11,114	273,011	127,874
63,217	-11,360	273,014	127,636
64,232	-11,405	272,699	127,435
65,247	-11,417	272,389	127,268
66,261	-11,462	272,105	127,083
67,276	-11,427	271,891	127,004
68,290	-11,716	271,846	126,703
69,305	-11,713	271,411	126,492
70,320	-11,524	271,157	126,537
71,334	-11,498	270,974	126,464
72,349	-11,495	270,868	126,406
73,363	-11,158	270,637	126,597
74,378	-11,232	270,422	126,417
75,393	-11,361	270,148	126,159
76,407	-11,483	270,032	125,983
77,422	-11,409	269,816	125,938
78,436	-11,193	269,569	126,009
79,451	-11,302	269,318	125,781
80,466	-11,383	269,047	125,569
81,480	-11,546	268,867	125,325
82,495	-11,427	268,630	125,312
83,509	-11,323	268,389	125,283
84,524	-11,460	268,201	125,059
85,539	-11,549	268,040	124,893
86,553	-11,671	267,801	124,659
87,568	-11,584	267,704	124,682
88,582	-11,548	267,432	124,576
89,597	-11,791	267,147	124,212
90,611	-11,212	266,964	124,641
91,626	-11,595	266,903	124,254
92,641	-11,285	266,685	124,423
93,655	-11,339	266,384	124,223
94,670	-11,493	266,207	123,989
95,684	-11,287	265,932	124,037
96,699	-11,325	265,723	123,893
97,714	-11,409	265,590	123,745
98,728	-11,598	265,426	123,486
99,743	-11,501	265,146	123,432
100,757	-11,659	264,905	123,168
101,772	-11,415	264,655	123,260
102,787	-11,351	264,501	123,234
103,801	-11,413	264,344	123,095
104,816	-11,423	264,275	123,042
105,830	-11,510	264,114	122,879
106,845	-11,206	263,766	122,978
107,860	-11,214	263,611	122,887
108,874	-11,366	263,503	122,690
109,889	-11,409	263,113	122,459
110,903	-11,483	262,945	122,305
111,918	-11,558	262,821	122,169
112,933	-11,436	262,549	122,139
113,947	-11,289	262,397	122,190
114,962	-11,286	262,281	122,127
115,976	-11,503	262,102	121,840
116,991	-11,328	261,795	121,842
118,006	-11,363	261,629	121,723
119,020	-11,309	261,477	121,689
120,035	-11,365	261,369	121,578
121,049	-11,351	261,181	121,492
122,064	-11,326	260,968	121,404
123,079	-11,132	260,614	121,400
124,093	-11,310	260,622	121,236
125,108	-11,592	260,257	120,806
126,122	-12,030	260,110	120,342
127,137	-11,702	259,793	120,473
128,151	-11,490	259,528	120,526
129,166	-11,436	259,461	120,531
130,181	-11,752	259,322	120,179
131,195	-11,765	258,996	120,005
132,210	-11,632	259,007	120,116
133,224	-11,458	258,892	120,205
134,239	-11,314	258,595	120,182
135,254	-11,493	258,558	119,998
136,268	-11,353	258,172	119,931
137,283	-11,585	257,817	119,552
138,297	-11,790	257,677	119,298
139,312	-11,774	257,478	119,209
140,327	-11,449	257,368	119,430
141,341	-11,392	257,331	119,452
142,356	-11,157	256,968	119,477
143,370	-11,354	256,946	119,285
144,385	-11,311	256,676	119,186
145,400	-11,114	256,467	119,249
146,414	-11,187	256,318	119,106
147,429	-11,311	256,186	118,927
148,443	-11,180	255,973	118,931
149,458	-11,324	255,773	118,703
150,473	-11,296	255,585	118,629
151,487	-11,315	255,357	118,496
152,502	-11,210	255,149	118,480
153,516	-11,189	255,185	118,504
154,531	-11,008	254,781	118,462
155,546	-11,070	254,612	118,319
156,560	-11,375	254,638	118,058
157,575	-11,287	254,149	117,896
158,589	-11,243	254,029	117,869
159,604	-11,233	253,996	117,851
160,619	-11,306	253,836	117,703
161,633	-11,218	253,459	117,594
162,648	-11,279	253,406	117,506
163,662	-11,050	253,222	117,606
164,677	-10,995	252,979	117,530
165,692	-11,114	252,854	117,359
166,706	-11,105	252,747	117,307
167,721	-11,130	252,606	117,211
168,735	-11,174	252,396	117,065
169,750	-11,306	252,365	116,928
170,764	-11,013	252,057	117,023
171,779	-11,366	251,936	116,657
172,794	-11,229	251,795	116,698
173,808	-11,359	251,731	116,548
174,823	-11,611	251,340	116,142
175,837	-11,764	250,978	115,836
176,852	-11,247	251,028	116,286
177,867	-11,133	250,818	116,274
178,881	-11,097	250,698	116,239
179,896	-11,000	250,460	116,200
180,910	-11,058	250,469	116,144
181,925	-11,062	250,100	115,960
182,940	-11,107	249,911	115,824
183,954	-11,127	249,819	115,754
184,969	-11,074	249,590	115,682
185,983	-11,004	249,397	115,642
186,998	-11,025	249,284	115,561
188,013	-11,040	249,097	115,451
189,027	-10,938	248,910	115,440
190,042	-11,212	248,783	115,141
191,056	-11,050	248,543	115,155
192,071	-11,200	248,451	114,977
193,086	-11,250	248,338	114,873
194,100	-11,001	247,962	114,897
195,115	-11,115	247,846	114,737
196,129	-11,144	247,754	114,660
197,144	-11,060	247,378	114,546
198,159	-11,195	247,169	114,327
199,173	-11,151	247,078	114,311
200,188	-11,245	246,954	114,165
201,202	-11,247	246,633	114,005
202,217	-11,607	246,316	113,550
203,232	-11,569	246,096	113,470
204,246	-11,280	246,239	113,765
205,261	-10,916	246,006	113,948
206,275	-12,048	245,666	112,845
207,290	-8,498	247,048	116,418
208,304	-0,265	249,908	124,651
209,319	4,314	250,891	128,965
210,334	4,683	251,042	129,340
211,348	4,991	250,810	129,466
212,363	5,081	250,882	129,567
213,377	5,135	250,672	129,492
214,392	5,164	250,434	129,382
215,407	4,813	250,257	128,987
216,421	4,632	250,230	128,810
217,436	5,045	250,045	129,047
218,450	4,959	249,966	128,924
219,465	4,788	249,618	128,590
220,480	4,836	249,326	128,468
221,494	4,794	249,186	128,350
222,509	4,706	249,138	128,241
223,523	4,875	248,779	128,185
224,538	4,432	248,587	127,707
225,553	4,589	248,494	127,778
226,567	4,533	248,340	127,641
227,582	4,404	248,190	127,446
228,596	4,466	248,183	127,482
229,611	4,176	247,923	127,098
230,626	4,244	247,523	126,938
231,640	4,318	247,469	126,960
232,655	4,682	247,302	127,162
233,669	4,484	247,057	126,863
234,684	4,138	246,906	126,489
235,699	4,603	246,841	126,827
236,713	4,706	246,850	126,904
237,728	4,363	246,575	126,471
238,742	4,292	246,211	126,214
239,757	4,329	246,056	126,154
240,772	4,294	245,982	126,076
241,786	4,337	245,854	126,035
242,801	4,330	245,661	125,918
243,815	4,201	245,518	125,728
244,830	4,741	245,371	126,082
245,844	4,442	245,298	125,790
246,859	4,417	244,962	125,586
247,874	4,291	244,845	125,412
248,888	4,287	244,734	125,341
249,903	4,358	244,660	125,350
250,917	4,637	244,447	125,456
251,932	4,559	244,388	125,351
252,947	4,662	244,198	125,326
253,961	4,479	244,011	125,071
254,976	4,571	243,795	125,024
255,990	4,558	243,788	124,998
257,005	4,380	243,434	124,661
258,020	4,156	243,258	124,380
259,034	4,313	243,240	124,486
260,049	4,643	243,005	124,621
261,063	4,337	242,669	124,191
262,078	4,098	242,746	124,027
263,093	4,486	242,624	124,265
264,107	4,550	242,415	124,199
265,122	4,251	242,127	123,800
266,136	4,570	242,121	124,042
267,151	4,733	241,992	124,096
268,166	4,230	241,743	123,554
269,180	4,161	241,553	123,390
270,195	4,861	241,694	124,012
271,209	5,191	241,536	124,184
272,224	4,513	241,158	123,438
273,239	4,010	240,871	122,877
274,253	4,144	240,781	122,928
275,268	4,357	240,756	123,074
276,282	4,396	240,538	122,982
277,297	4,050	240,430	122,640
278,312	4,240	240,212	122,670
279,326	4,241	240,207	122,657
280,341	4,140	240,077	122,499
281,355	4,281	239,942	122,532
282,370	4,567	239,778	122,665
283,384	4,150	239,453	122,156
284,399	4,326	239,328	122,221
285,414	4,021	239,176	121,891
286,428	4,237	239,043	121,983
287,443	4,149	238,826	121,792
288,457	4,521	238,777	122,051
289,472	4,496	238,473	121,864
290,487	4,388	238,420	121,741
291,501	4,158	238,247	121,461
292,516	3,983	237,955	121,163
293,530	3,948	237,935	121,115
294,545	4,443	237,863	121,457
295,560	4,511	237,657	121,394
296,574	4,328	237,562	121,191
297,589	4,238	237,383	121,019
298,603	4,535	237,323	121,210
299,618	4,386	237,195	121,016
300,633	4,412	237,046	120,950
301,647	4,551	236,903	120,976
302,662	4,842	236,786	121,133
303,676	4,715	236,541	120,897
304,691	4,529	236,391	120,665
305,706	4,660	236,410	120,765
306,720	4,764	236,046	120,650
307,735	4,689	235,941	120,528
308,749	4,537	235,783	120,317
309,764	4,367	235,473	120,016
310,779	4,134	235,390	119,783
311,793	3,869	235,243	119,491
312,808	4,025	234,920	119,437
313,822	4,127	234,811	119,450
314,837	4,293	234,632	119,477
315,852	3,960	234,618	119,201
316,866	4,188	234,467	119,290
317,881	4,216	234,443	119,289
318,895	4,285	234,055	119,135
319,910	4,809	234,240	119,623
320,925	4,414	234,070	119,220
321,939	4,058	233,792	118,794
322,954	4,428	233,787	119,066
323,968	4,264	233,565	118,816
324,983	4,431	233,394	118,847
325,997	4,650	233,369	118,993
327,012	4,438	233,140	118,702
328,027	4,585	232,956	118,710
329,041	4,707	232,795	118,711
330,056	5,086	232,853	119,021
331,070	4,996	232,768	118,898
332,085	4,747	232,438	118,528
333,100	4,644	232,145	118,289
334,114	4,490	232,055	118,116
335,129	4,880	231,934	118,341
336,143	5,033	231,848	118,404
337,158	4,906	231,675	118,208
338,173	4,528	231,482	117,811
339,187	4,333	231,324	117,571
340,202	4,522	231,219	117,651
341,216	4,316	231,136	117,442
342,231	4,371	230,759	117,281
343,246	4,489	230,685	117,322
344,260	4,520	230,534	117,259
345,275	4,667	230,613	117,401
346,289	4,917	230,476	117,510
347,304	4,675	230,285	117,219
348,319	4,700	230,100	117,133
349,333	4,592	229,948	116,963
350,348	4,482	229,703	116,745
351,362	4,368	229,565	116,579
352,377	4,224	229,313	116,332
353,392	4,121	229,124	116,148
354,406	4,143	229,116	116,150
355,421	194,153	1319,886	1391,107
356,435	155,677	1452,746	1391,072
