DTS Sentinel unit serial number:	SN410029Multiplexer serial number:	ORYXHardware model number:	OX2-SRSoftware version number:	ORYX F/W v4,00 Oryx Data Collector v3.7.2.0data status	okinstallation	B5 Nyhavnadifferential loss correction	single-endedforward channel	channel 2reverse channel	N/Adate	2023/12/12time	18:37:13forward acquisition time	300,00reverse acquisition time	0,00gamma	499,1914k internal	0,3156k external	0,3156temperature offset calibration	1,0000default loss term (dB/km)	0,3820temperature slope calibration	1,0000multiplexer offset coefficient	1,0000multiplexer slope coefficient	1,0000fibre end	0,00T internal ref (°C)	15,58T ext. ref 1 (°C)	-0,96T ext. ref 2 (°C)	-1,26length (m)	temperature (°C)	Stokes	anti-Stokes-744,400	-70,838	0,136	0,037
-743,385	-98,602	-0,334	0,062
-742,371	-20,693	0,057	-0,025
-741,356	-89,237	-0,178	0,038
-740,342	-138,601	0,073	-0,006
-739,327	-94,315	-0,435	-0,087
-738,312	155,953	0,097	-0,099
-737,298	-64,380	-0,287	0,085
-736,283	250,587	-0,018	-0,022
-735,269	-91,042	-0,278	-0,058
-734,254	-56,110	0,091	-0,030
-733,239	-33,484	-0,459	-0,186
-732,225	-124,857	0,207	0,023
-731,210	367,119	-0,069	0,103
-730,196	-200,000	-0,024	0,085
-729,181	40,754	-0,017	0,011
-728,167	-131,736	-0,115	0,011
-727,152	80,766	0,023	-0,018
-726,137	132,732	0,048	-0,045
-725,123	350,105	-0,079	-0,115
-724,108	21,547	-0,087	-0,052
-723,094	132,988	-0,169	-0,160
-722,079	800,000	-0,038	-0,099
-721,064	-110,734	-0,037	-0,006
-720,050	100,779	-0,051	0,044
-719,035	-200,000	-0,015	-0,092
-718,021	-200,000	0,010	0,071
-717,006	-172,837	-0,096	0,002
-715,991	-57,351	-0,234	0,075
-714,977	-200,000	-0,025	-0,085
-713,962	-43,481	0,029	-0,011
-712,948	-200,000	0,001	0,021
-711,933	-40,365	-0,093	-0,036
-710,918	800,000	-0,045	0,116
-709,904	-134,735	-0,066	-0,006
-708,889	-36,757	-0,134	-0,053
-707,875	-65,482	-0,132	0,039
-706,860	-200,000	-0,014	0,095
-705,845	-123,674	0,048	0,006
-704,831	117,874	0,026	0,023
-703,816	11,076	0,088	-0,050
-702,802	67,132	-0,145	-0,108
-701,787	-82,962	-0,170	-0,040
-700,772	571,573	-0,029	-0,052
-699,758	-128,234	-0,105	0,011
-698,743	591,025	0,092	-0,168
-697,729	90,337	-0,057	0,047
-696,714	192,915	-0,040	-0,044
-695,699	740,951	0,016	-0,032
-694,685	-84,206	-0,103	-0,024
-693,670	-133,181	-0,048	0,004
-692,656	557,642	-0,006	-0,012
-691,641	178,454	-0,058	0,062
-690,627	800,000	-0,027	0,061
-689,612	-200,000	-0,018	0,068
-688,597	182,257	-0,166	-0,180
-687,583	-200,000	-0,000	-0,075
-686,568	-200,000	-0,038	-0,157
-685,554	-200,000	-0,003	-0,049
-684,539	567,246	-0,033	0,059
-683,524	800,000	0,053	-0,122
-682,510	-200,000	0,009	0,061
-681,495	227,894	-0,057	-0,068
-680,481	163,272	-0,022	-0,022
-679,466	65,049	0,090	0,067
-678,451	800,000	-0,034	-0,101
-677,437	800,000	-0,037	0,081
-676,422	-49,631	-0,093	-0,032
-675,408	-200,000	0,018	-0,092
-674,393	128,703	0,023	0,021
-673,378	-129,919	-0,149	0,015
-672,364	255,996	-0,074	-0,093
-671,349	-200,000	-0,002	0,010
-670,335	103,374	-0,011	0,010
-669,320	-28,646	0,192	-0,081
-668,305	303,674	-0,019	0,026
-667,291	49,715	0,074	-0,052
-666,276	16,467	0,081	-0,047
-665,262	-200,000	0,020	-0,101
-664,247	586,439	-0,026	0,047
-663,232	800,000	-0,051	-0,140
-662,218	-130,863	-0,190	0,018
-661,203	249,621	-0,061	-0,077
-660,189	-73,121	-0,060	-0,016
-659,174	172,515	-0,076	-0,080
-658,159	129,192	-0,093	-0,087
-657,145	-6,102	0,050	0,025
-656,130	3,366	0,164	-0,088
-655,116	-5,688	0,015	0,007
-654,101	-51,676	0,134	-0,046
-653,086	-107,018	-0,146	-0,023
-652,072	800,000	0,030	-0,095
-651,057	16,940	-0,028	-0,017
-650,043	15,314	0,065	0,037
-649,028	-200,000	-0,030	0,097
-648,014	6,180	-0,034	-0,018
-646,999	48,944	0,098	-0,067
-645,984	-74,773	-0,087	0,023
-644,970	713,629	0,039	-0,077
-643,955	800,000	0,057	0,159
-642,941	800,000	-0,033	-0,081
-641,926	-141,224	0,099	0,007
-640,911	55,560	0,021	-0,015
-639,897	800,000	-0,009	-0,022
-638,882	-112,268	0,122	-0,018
-637,868	-200,000	-0,004	-0,025
-636,853	203,545	-0,049	-0,056
-635,838	307,277	-0,055	-0,075
-634,824	-200,000	0,038	0,133
-633,809	-200,000	0,035	0,181
-632,795	-63,061	0,089	-0,027
-631,780	800,000	-0,021	-0,046
-630,765	-200,000	0,011	-0,086
-629,751	-24,179	0,102	-0,045
-628,736	-200,000	-0,049	0,272
-627,722	-81,116	0,180	-0,043
-626,707	8,936	0,145	-0,080
-625,692	285,290	0,044	0,058
-624,678	297,911	-0,049	-0,066
-623,663	-1,576	0,092	0,048
-622,649	-76,202	-0,063	-0,016
-621,634	467,394	0,005	-0,009
-620,619	2,717	0,071	0,038
-619,605	800,000	0,038	-0,116
-618,590	-28,231	0,078	-0,033
-617,576	800,000	-0,028	0,080
-616,561	-80,886	-0,024	-0,006
-615,546	-200,000	-0,027	-0,127
-614,532	-62,737	-0,158	0,048
-613,517	199,744	0,101	-0,114
-612,503	570,145	-0,080	-0,143
-611,488	10,981	0,051	-0,029
-610,474	800,000	-0,042	0,134
-609,459	593,387	-0,033	0,060
-608,444	186,532	-0,028	-0,031
-607,430	413,215	0,028	-0,045
-606,415	800,000	0,031	-0,076
-605,401	-200,000	-0,009	0,040
-604,386	-200,000	-0,002	0,038
-603,371	-91,334	0,118	0,025
-602,357	800,000	-0,043	0,091
-601,342	-200,000	-0,011	0,105
-600,328	-200,000	0,048	0,165
-599,313	-142,839	-0,094	0,007
-598,298	-13,596	0,013	0,006
-597,284	173,141	0,080	-0,085
-596,269	-105,358	-0,032	0,005
-595,255	-84,207	0,085	0,020
-594,240	78,756	-0,134	0,105
-593,225	800,000	-0,042	-0,100
-592,211	80,150	0,078	-0,061
-591,196	-131,416	-0,079	0,008
-590,182	-170,948	0,088	-0,002
-589,167	-17,825	0,066	0,030
-588,152	-106,995	0,057	-0,009
-587,138	-200,000	-0,003	-0,012
-586,123	-108,646	-0,119	0,018
-585,109	3,589	0,053	-0,028
-584,094	-200,000	-0,027	0,109
-583,079	-200,000	-0,007	0,040
-582,065	-151,143	0,064	-0,003
-581,050	14,212	-0,059	0,033
-580,036	-200,000	0,002	-0,053
-579,021	800,000	0,036	0,082
-578,006	54,075	0,056	-0,040
-576,992	556,789	-0,042	-0,074
-575,977	-9,193	0,139	-0,068
-574,963	6,338	0,023	0,012
-573,948	-72,081	-0,068	0,018
-572,934	-200,000	0,000	-0,006
-571,919	-200,000	-0,015	-0,102
-570,904	100,490	0,020	-0,017
-569,890	478,492	0,028	-0,047
-568,875	-200,000	-0,028	-0,112
-567,861	601,288	0,050	-0,091
-566,846	800,000	0,040	0,091
-565,831	47,949	0,078	-0,053
-564,817	-28,534	0,037	-0,016
-563,802	-200,000	-0,005	0,180
-562,788	100,187	-0,041	0,035
-561,773	311,021	0,079	-0,109
-560,758	800,000	0,066	0,145
-559,744	-200,000	0,004	-0,022
-558,729	-19,531	0,080	-0,036
-557,715	-200,000	0,011	-0,055
-556,700	800,000	0,039	-0,102
-555,685	526,814	-0,117	-0,202
-554,671	44,063	-0,054	-0,036
-553,656	17,301	0,114	0,066
-552,642	-69,979	0,067	-0,019
-551,627	-60,801	-0,048	-0,015
-550,612	-200,000	0,010	-0,077
-549,598	-47,949	0,043	-0,015
-548,583	-104,473	-0,048	0,008
-547,569	109,383	-0,130	-0,114
-546,554	-200,000	0,003	-0,047
-545,539	-23,844	0,037	-0,016
-544,525	-200,000	-0,001	-0,010
-543,510	228,307	-0,063	-0,075
-542,496	-97,309	-0,101	0,019
-541,481	800,000	-0,085	-0,240
-540,466	608,045	-0,053	-0,096
-539,452	-49,601	0,065	0,023
-538,437	611,934	0,021	0,039
-537,423	-200,000	-0,017	0,165
-536,408	95,519	0,048	0,040
-535,393	497,587	-0,082	-0,138
-534,379	-38,649	0,100	-0,038
-533,364	-75,570	-0,044	-0,011
-532,350	81,895	0,089	0,070
-531,335	-200,000	-0,013	0,080
-530,321	800,000	-0,027	-0,059
-529,306	-35,845	-0,214	-0,084
-528,291	732,409	-0,035	0,070
-527,277	305,573	-0,069	-0,094
-526,262	198,556	0,062	0,069
-525,248	-29,308	0,037	0,016
-524,233	146,219	-0,061	0,060
-523,218	-200,000	0,009	-0,092
-522,204	-200,000	-0,019	0,144
-521,189	-65,241	-0,097	0,028
-520,175	659,111	-0,017	-0,032
-519,160	800,000	0,058	-0,159
-518,145	-200,000	-0,003	-0,083
-517,131	-94,255	0,160	-0,032
-516,116	-16,318	0,010	-0,004
-515,102	-200,000	-0,021	0,097
-514,087	97,334	-0,010	-0,008
-513,072	-109,254	-0,027	-0,004
-512,058	800,000	-0,022	0,060
-511,043	-200,000	-0,023	-0,091
-510,029	-83,898	-0,116	0,027
-509,014	-26,442	0,082	-0,035
-507,999	-136,725	-0,040	-0,003
-506,985	95,051	-0,081	0,067
-505,970	-110,150	-0,135	-0,020
-504,956	19,500	0,025	-0,015
-503,941	314,907	0,045	0,062
-502,926	-16,906	0,023	0,011
-501,912	254,295	0,063	-0,079
-500,897	231,131	-0,072	-0,086
-499,883	-153,367	0,127	0,006
-498,868	800,000	-0,049	-0,114
-497,853	-26,280	0,042	0,018
-496,839	-149,344	-0,057	0,003
-495,824	800,000	-0,021	-0,046
-494,810	242,434	0,008	-0,010
-493,795	344,513	0,085	-0,122
-492,781	275,264	0,025	-0,033
-491,766	-200,000	-0,008	0,099
-490,751	-166,850	-0,121	-0,004
-489,737	71,574	-0,011	-0,008
-488,722	90,972	-0,038	0,031
-487,708	537,919	0,052	0,090
-486,693	205,435	-0,064	0,073
-485,678	800,000	0,026	0,078
-484,664	800,000	-0,026	-0,081
-483,649	-183,726	0,054	-0,001
-482,635	-90,950	-0,086	-0,018
-481,620	-174,341	0,079	-0,002
-480,605	306,097	0,014	0,019
-479,591	800,000	0,023	0,066
-478,576	-3,552	-0,031	-0,016
-477,562	-101,511	0,054	0,009
-476,547	-156,516	-0,080	-0,004
-475,532	-86,198	0,097	0,022
-474,518	184,913	-0,055	-0,059
-473,503	303,736	0,053	0,072
-472,489	-200,000	-0,007	0,086
-471,474	-200,000	-0,004	-0,172
-470,459	-200,000	-0,012	-0,070
-469,445	24,603	-0,036	0,022
-468,430	800,000	-0,019	-0,055
-467,416	322,982	-0,039	0,055
-466,401	163,355	0,209	0,215
-465,386	-154,532	0,090	-0,004
-464,372	561,130	0,027	-0,048
-463,357	-49,918	-0,131	0,045
-462,343	-10,127	0,049	-0,023
-461,328	739,634	-0,033	-0,066
-460,313	56,259	-0,143	-0,101
-459,299	117,812	0,038	0,034
-458,284	-136,630	0,070	0,006
-457,270	583,613	0,022	-0,039
-456,255	-200,000	0,037	-0,165
-455,241	679,503	0,051	-0,097
-454,226	417,335	-0,031	-0,049
-453,211	800,000	0,020	0,041
-452,197	488,464	0,062	0,103
-451,182	-200,000	-0,005	0,106
-450,168	239,278	0,051	0,062
-449,153	-112,328	0,104	-0,015
-448,138	-104,370	-0,148	-0,025
-447,124	46,439	-0,113	0,077
-446,109	741,863	0,044	-0,087
-445,095	-84,680	-0,161	-0,037
-444,080	151,125	0,035	0,035
-443,065	84,760	0,083	-0,066
-442,051	86,935	0,010	-0,008
-441,036	301,565	-0,147	-0,199
-440,022	644,029	0,036	-0,067
-439,007	-47,181	0,116	-0,041
-437,992	800,000	-0,070	-0,170
-436,978	-200,000	-0,023	0,075
-435,963	-83,694	0,144	-0,033
-434,949	48,136	-0,062	0,042
-433,934	16,515	-0,038	-0,022
-432,919	-145,308	0,052	0,003
-431,905	544,163	0,019	0,033
-430,890	-200,000	0,011	0,040
-429,876	295,929	0,016	0,022
-428,861	-200,000	-0,028	-0,173
-427,846	800,000	-0,027	-0,065
-426,832	123,715	0,159	0,145
-425,817	137,800	0,020	0,019
-424,803	800,000	-0,020	-0,051
-423,788	418,220	0,058	-0,090
-422,773	112,188	0,007	0,006
-421,759	25,334	-0,119	0,072
-420,744	1,771	-0,062	0,032
-419,730	-123,495	-0,059	0,007
-418,715	-56,900	-0,054	0,017
-417,701	-200,000	-0,046	0,159
-416,686	-200,000	-0,001	-0,056
-415,671	-130,713	0,220	-0,021
-414,657	-200,000	-0,001	0,134
-413,642	64,109	0,032	0,023
-412,628	416,647	0,064	0,100
-411,613	800,000	0,041	0,107
-410,598	780,938	0,064	0,127
-409,584	29,053	0,077	0,047
-408,569	-200,000	-0,046	-0,168
-407,555	12,133	0,053	-0,030
-406,540	1,904	-0,101	0,053
-405,525	800,000	0,039	0,121
-404,511	445,613	-0,050	-0,080
-403,496	91,790	0,057	0,046
-402,482	800,000	0,029	0,083
-401,467	800,000	0,057	0,168
-400,452	-200,000	0,001	0,031
-399,438	-200,000	0,052	0,243
-398,423	9,856	-0,147	-0,081
-397,409	-91,347	-0,095	-0,020
-396,394	800,000	-0,054	0,145
-395,379	-134,966	0,117	0,010
-394,365	-200,000	0,011	-0,036
-393,350	351,508	0,057	-0,082
-392,336	-29,418	0,063	0,026
-391,321	-58,983	0,061	0,019
-390,306	-149,233	-0,145	0,008
-389,292	-200,000	0,006	0,034
-388,277	-180,696	0,090	-0,001
-387,263	260,673	0,032	0,040
-386,248	-3,366	0,112	0,057
-385,233	-200,000	-0,015	-0,074
-384,219	97,880	-0,025	-0,021
-383,204	47,968	-0,119	-0,081
-382,190	-200,000	0,008	-0,029
-381,175	-200,000	-0,009	0,040
-380,160	97,985	0,092	0,077
-379,146	-136,391	-0,127	-0,011
-378,131	21,420	0,034	-0,020
-377,117	619,966	0,013	-0,024
-376,102	-200,000	-0,033	-0,121
-375,088	68,503	0,073	-0,054
-374,073	-200,000	-0,012	0,038
-373,058	800,000	0,023	0,052
-372,044	-200,000	0,004	0,204
-371,029	-117,867	0,019	0,002
-370,015	-200,000	-0,001	0,027
-369,000	133,577	0,054	0,050
-367,985	-200,000	-0,012	-0,174
-366,971	-200,000	0,012	0,052
-365,956	-200,000	0,031	0,160
-364,942	665,586	-0,040	0,075
-363,927	800,000	0,010	0,023
-362,912	-200,000	0,004	0,049
-361,898	-103,416	-0,120	-0,020
-360,883	248,513	0,032	0,040
-359,869	-13,643	-0,120	-0,056
-358,854	-200,000	-0,043	0,146
-357,839	-89,577	0,140	-0,030
-356,825	-86,035	-0,177	-0,039
-355,810	191,529	0,053	-0,058
-354,796	547,834	-0,026	0,045
-353,781	800,000	-0,042	-0,131
-352,766	179,177	-0,033	-0,035
-351,752	800,000	0,017	-0,035
-350,737	-200,000	-0,007	0,069
-349,723	-200,000	-0,007	-0,092
-348,708	-18,829	0,075	-0,034
-347,693	-79,772	0,061	-0,015
-346,679	-200,000	-0,028	-0,135
-345,664	-82,582	0,142	-0,033
-344,650	34,677	0,041	0,026
-343,635	-29,231	-0,045	0,019
-342,620	-80,454	-0,094	0,023
-341,606	800,000	-0,043	0,095
-340,591	-200,000	-0,002	0,023
-339,577	8,413	-0,014	0,008
-338,562	-200,000	0,007	-0,092
-337,548	54,624	0,076	-0,053
-336,533	420,921	-0,041	-0,064
-335,518	-108,035	0,032	0,005
-334,504	-194,247	0,076	0,000
-333,489	27,863	-0,119	-0,073
-332,475	800,000	-0,032	-0,079
-331,460	-200,000	-0,029	-0,094
-330,445	-200,000	-0,024	0,140
-329,431	160,235	0,036	-0,036
-328,416	-52,180	0,151	0,051
-327,402	800,000	0,065	-0,188
-326,387	800,000	-0,036	-0,092
-325,372	35,576	-0,063	-0,040
-324,358	253,483	-0,095	-0,118
-323,343	800,000	-0,020	-0,063
-322,329	1,606	0,017	-0,009
-321,314	54,905	-0,068	-0,048
-320,299	39,608	0,093	-0,060
-319,285	-200,000	-0,012	-0,130
-318,270	-67,956	-0,103	-0,029
-317,256	349,451	0,057	-0,083
-316,241	-200,000	-0,024	0,096
-315,226	359,425	0,038	0,055
-314,212	-200,000	-0,039	0,161
-313,197	68,334	0,049	0,037
-312,183	73,063	0,091	-0,069
-311,168	-200,000	0,010	-0,102
-310,153	-149,595	0,075	0,004
-309,139	62,966	-0,043	-0,031
-308,124	-87,017	-0,050	-0,011
-307,110	-94,131	-0,012	-0,002
-306,095	141,296	-0,034	-0,032
-305,080	-40,798	0,039	0,015
-304,066	544,205	-0,071	-0,124
-303,051	800,000	0,011	-0,029
-302,037	399,442	0,076	0,116
-301,022	711,244	0,052	0,100
-300,008	-200,000	0,032	0,122
-298,993	-40,130	-0,048	-0,018
-297,978	197,782	-0,042	-0,047
-296,964	-24,950	0,017	0,007
-295,949	-191,912	-0,126	-0,001
-294,935	22,617	-0,156	0,093
-293,920	-33,032	0,136	0,054
-292,905	382,749	0,081	0,122
-291,891	371,273	0,043	0,064
-290,876	353,264	-0,050	0,072
-289,862	-200,000	-0,004	0,058
-288,847	-200,000	-0,013	-0,052
-287,832	147,305	-0,137	-0,133
-286,818	800,000	-0,035	-0,102
-285,803	659,483	0,047	0,087
-284,789	-200,000	0,012	0,109
-283,774	-200,000	-0,013	0,055
-282,759	487,710	0,060	0,099
-281,745	-77,093	-0,099	0,025
-280,730	-34,362	0,081	-0,032
-279,716	-200,000	-0,007	0,058
-278,701	800,000	-0,020	-0,059
-277,686	-14,760	0,045	0,021
-276,672	131,402	-0,057	0,053
-275,657	800,000	-0,037	0,083
-274,643	330,551	-0,031	0,044
-273,628	800,000	-0,021	0,049
-272,613	79,192	-0,066	-0,051
-271,599	-39,057	-0,076	0,029
-270,584	-3,685	0,074	0,037
-269,570	-200,000	0,008	-0,121
-268,555	-34,911	0,097	0,038
-267,540	-95,383	-0,131	0,025
-266,526	-200,000	-0,006	-0,135
-265,511	-104,469	0,027	0,005
-264,497	-78,939	0,200	-0,049
-263,482	420,695	0,042	-0,065
-262,467	-200,000	0,033	0,124
-261,453	143,125	-0,099	0,095
-260,438	115,703	-0,050	0,044
-259,424	-200,000	-0,032	-0,131
-258,409	-91,640	-0,038	-0,008
-257,395	-200,000	0,004	-0,134
-256,380	15,921	0,110	-0,063
-255,365	-200,000	-0,017	0,094
-254,351	800,000	0,023	0,048
-253,336	-53,073	-0,074	-0,024
-252,322	-197,333	-0,218	0,001
-251,307	-165,815	0,103	0,003
-250,292	-200,000	-0,002	-0,013
-249,278	215,882	0,054	0,062
-248,263	-18,257	-0,026	-0,012
-247,249	81,259	0,124	0,097
-246,234	-28,884	-0,113	-0,047
-245,219	87,082	-0,097	-0,077
-244,205	-72,199	-0,043	-0,012
-243,190	-62,861	-0,069	-0,020
-242,176	-0,048	-0,077	-0,040
-241,161	4,919	0,157	-0,083
-240,146	404,275	-0,036	0,054
-239,132	118,382	-0,039	-0,034
-238,117	245,343	-0,078	-0,095
-237,103	-112,450	0,123	-0,018
-236,088	-55,670	-0,044	0,014
-235,073	-75,501	-0,032	-0,008
-234,059	515,361	0,031	0,052
-233,044	-88,063	0,173	0,037
-232,030	12,275	0,076	-0,042
-231,015	800,000	-0,039	-0,123
-230,000	-60,853	-0,007	-0,002
-228,986	800,000	0,036	-0,111
-227,971	28,234	0,104	0,064
-226,957	-200,000	-0,001	0,059
-225,942	800,000	-0,028	-0,057
-224,927	-200,000	-0,036	-0,139
-223,913	-61,976	0,097	-0,029
-222,898	-8,792	-0,099	0,048
-221,884	-52,171	0,157	0,052
-220,869	-200,000	-0,058	0,263
-219,855	100,805	0,104	0,088
-218,840	-122,816	-0,108	-0,012
-217,825	800,000	-0,052	0,127
-216,811	-61,799	-0,042	0,013
-215,796	129,555	-0,059	-0,055
-214,782	169,498	0,058	-0,060
-213,767	304,112	0,018	0,025
-212,752	-38,839	0,148	-0,056
-211,738	-94,923	-0,054	0,010
-210,723	54,687	-0,062	-0,043
-209,709	-81,432	-0,047	0,011
-208,694	52,449	-0,071	0,049
-207,679	-141,528	-0,152	0,011
-206,665	-23,592	0,105	-0,045
-205,650	283,005	0,046	0,059
-204,636	800,000	-0,010	0,024
-203,621	800,000	0,021	-0,055
-202,606	-200,000	0,011	-0,070
-201,592	-59,574	-0,049	0,015
-200,577	-200,000	-0,010	-0,076
-199,563	-27,727	-0,092	-0,038
-198,548	766,775	0,051	0,100
-197,533	-149,366	-0,021	0,001
-196,519	-132,319	-0,038	-0,003
-195,504	-117,440	-0,182	0,024
-194,490	800,000	0,051	0,106
-193,475	-80,084	-0,046	-0,011
-192,460	800,000	0,047	0,114
-191,446	-86,527	0,032	-0,007
-190,431	-200,000	0,030	-0,100
-189,417	-35,921	-0,134	-0,052
-188,402	-200,000	-0,005	-0,139
-187,387	-36,902	-0,066	0,026
-186,373	-16,136	-0,069	-0,032
-185,358	800,000	-0,005	0,011
-184,344	217,639	-0,064	0,074
-183,329	235,523	-0,088	0,105
-182,315	623,653	0,102	0,187
-181,300	-94,121	-0,143	0,028
-180,285	74,287	0,047	0,036
-179,271	-20,908	-0,182	-0,080
-178,256	385,750	-0,012	0,018
-177,242	650,390	0,051	0,095
-176,227	-200,000	0,023	0,087
-175,212	-83,180	-0,050	-0,011
-174,198	93,859	0,035	0,029
-173,183	-200,000	0,008	0,094
-172,169	155,390	-0,075	0,074
-171,154	673,587	-0,025	-0,047
-170,139	-200,000	0,011	0,185
-169,125	-44,763	-0,106	0,038
-168,110	8,846	0,213	0,115
-167,096	255,202	0,009	0,011
-166,081	149,994	-0,058	-0,057
-165,066	-200,000	0,029	-0,171
-164,052	154,632	-0,079	-0,079
-163,037	456,167	0,044	0,070
-162,023	-117,865	0,063	-0,008
-161,008	312,951	-0,058	0,079
-159,993	-74,034	-0,119	0,031
-158,979	-200,000	0,015	-0,106
-157,964	31,358	-0,065	0,040
-156,950	800,000	0,026	-0,074
-155,935	-200,000	-0,025	0,121
-154,920	368,933	-0,083	0,121
-153,906	-95,214	0,130	0,025
-152,891	155,706	0,047	-0,047
-151,877	-200,000	-0,007	0,025
-150,862	-13,453	-0,073	-0,034
-149,847	-200,000	-0,002	0,124
-148,833	-200,000	0,014	0,050
-147,818	175,584	0,062	0,065
-146,804	127,671	0,073	0,067
-145,789	-84,552	0,140	-0,032
-144,775	387,849	-0,015	0,023
-143,760	286,919	-0,083	0,108
-142,745	-18,369	-0,133	-0,060
-141,731	-29,738	0,078	0,032
-140,716	-200,000	-0,016	-0,077
-139,702	-200,000	-0,001	-0,079
-138,687	-200,000	-0,011	0,070
-137,672	800,000	0,069	0,148
-136,658	91,516	-0,188	-0,152
-135,643	315,032	-0,043	0,058
-134,629	444,212	-0,092	-0,146
-133,614	-200,000	0,001	-0,017
-132,599	579,994	-0,071	0,126
-131,585	-200,000	0,001	0,024
-130,570	800,000	0,046	-0,099
-129,556	-178,439	-0,139	0,002
-128,541	-200,000	-0,043	-0,156
-127,526	-200,000	-0,006	-0,129
-126,512	-47,132	-0,127	-0,045
-125,497	-65,424	-0,122	-0,035
-124,483	-152,196	0,065	0,003
-123,468	-75,415	0,098	0,025
-122,453	-50,188	-0,048	-0,016
-121,439	-200,000	-0,038	-0,152
-120,424	326,825	0,034	0,047
-119,410	-200,000	0,019	0,204
-118,395	-200,000	0,002	-0,035
-117,380	-102,687	0,107	0,018
-116,366	-200,000	-0,009	0,102
-115,351	800,000	-0,085	-0,195
-114,337	173,859	0,071	-0,073
-113,322	-140,279	0,087	-0,006
-112,307	800,000	0,062	0,138
-111,293	643,383	-0,065	0,120
-110,278	-200,000	0,008	0,061
-109,264	-200,000	-0,010	0,126
-108,249	-25,234	0,021	-0,009
-107,234	-200,000	0,019	0,160
-106,220	-200,000	-0,020	-0,118
-105,205	-200,000	-0,007	-0,141
-104,191	-67,794	0,049	-0,014
-103,176	19,361	-0,155	0,089
-102,162	-169,527	-0,148	-0,004
-101,147	800,000	0,031	0,069
-100,132	29,376	-0,003	0,002
-99,118	-200,000	-0,025	-0,099
-98,103	-79,722	0,023	0,006
-97,089	109,854	0,033	0,028
-96,074	-46,242	-0,102	0,036
-95,059	-200,000	0,012	0,071
-94,045	-200,000	0,015	-0,061
-93,030	6,441	-0,129	-0,069
-92,016	669,119	-0,040	-0,074
-91,001	34,730	0,101	-0,063
-89,986	-200,000	0,012	-0,042
-88,972	-200,000	-0,001	0,043
-87,957	8,078	0,066	-0,035
-86,943	-40,020	0,116	-0,043
-85,928	108,620	-0,060	-0,052
-84,913	-195,057	-0,122	-0,001
-83,899	-200,000	-0,007	-0,045
-82,884	800,000	-0,012	-0,038
-81,870	223,705	0,079	0,092
-80,855	800,000	0,041	0,124
-79,840	-200,000	-0,017	0,095
-78,826	2,398	-0,063	-0,033
-77,811	-200,000	-0,013	-0,048
-76,797	294,885	-0,039	0,051
-75,782	-200,000	0,003	0,173
-74,767	-200,000	0,001	0,045
-73,753	800,000	0,034	0,071
-72,738	-200,000	-0,003	0,063
-71,724	60,262	-0,081	-0,058
-70,709	165,722	0,054	0,055
-69,694	-200,000	0,028	0,114
-68,680	800,000	0,019	0,041
-67,665	68,135	-0,054	-0,040
-66,651	228,718	-0,038	0,045
-65,636	-200,000	0,025	-0,094
-64,622	-200,000	-0,007	0,033
-63,607	521,823	-0,025	-0,042
-62,592	-200,000	0,009	-0,062
-61,578	96,338	-0,064	0,052
-60,563	800,000	0,023	0,050
-59,549	206,826	0,069	-0,077
-58,534	-0,227	-1,820	-0,927
-57,519	800,000	-0,340	-0,855
-56,505	-200,000	-1,260	-4,942
-55,490	-5,513	0,912	0,448
-54,476	800,000	5,180	11,991
-53,461	-200,000	17,335	284,362
-52,446	800,000	725,565	2221,843
-51,432	538,495	1641,376	2812,541
-50,417	110,624	1632,417	1408,984
-49,403	75,015	1286,343	971,936
-48,388	32,254	1028,070	635,480
-47,373	20,227	989,808	572,154
-46,359	18,540	978,011	559,775
-45,344	15,893	973,851	548,705
-44,330	16,147	972,475	548,739
-43,315	15,674	970,669	546,153
-42,300	15,621	969,518	545,312
-41,286	15,579	968,709	544,695
-40,271	15,554	967,445	543,882
-39,257	15,628	966,646	543,653
-38,242	15,581	965,959	543,094
-37,227	15,593	965,026	542,584
-36,213	15,587	964,178	542,066
-35,198	15,553	963,338	541,465
-34,184	15,648	962,485	541,270
-33,169	15,526	961,678	540,400
-32,154	15,657	960,429	540,099
-31,140	15,652	959,674	539,637
-30,125	15,650	958,940	539,196
-29,111	15,634	958,151	538,682
-28,096	15,672	957,613	538,480
-27,082	15,633	956,939	537,953
-26,067	15,660	956,117	537,556
-25,052	15,593	955,328	536,877
-24,038	15,605	954,688	536,533
-23,023	15,607	954,115	536,197
-22,009	15,635	953,305	535,811
-20,994	15,600	952,844	535,419
-19,979	15,645	952,125	535,138
-18,965	15,636	951,328	534,638
-17,950	15,632	951,041	534,442
-16,936	15,583	950,407	533,910
-15,921	15,531	949,599	533,269
-14,906	15,519	948,936	532,837
-13,892	15,507	948,237	532,385
-12,877	15,559	947,355	532,034
-11,863	15,477	947,084	531,598
-10,848	15,458	946,541	531,213
-9,833	15,595	946,154	531,412
-8,819	15,532	945,367	530,748
-7,804	15,458	944,943	530,252
-6,790	15,541	944,177	530,065
-5,775	15,524	943,553	529,641
-4,760	15,496	943,015	529,230
-3,746	15,478	942,313	528,756
-2,731	15,393	941,510	528,015
-1,717	15,387	940,764	527,559
-0,702	15,338	940,191	527,060
0,313	15,178	939,654	527,050
1,327	18,261	937,692	535,624
2,342	27,086	794,725	477,359
3,356	23,767	459,142	270,685
4,371	-3,242	314,377	156,627
5,386	-7,407	296,007	143,248
6,400	-9,418	290,052	138,358
7,415	-9,793	287,514	136,766
8,429	-9,876	286,139	136,018
9,444	-9,933	285,285	135,544
10,459	-9,879	284,536	135,229
11,473	-9,841	283,928	134,964
12,488	-10,046	283,567	134,582
13,502	-9,922	282,948	134,397
14,517	-9,911	282,569	134,215
15,531	-9,983	282,174	133,946
16,546	-9,827	281,783	133,898
17,561	-9,733	281,238	133,719
18,575	-9,643	280,974	133,667
19,590	-9,717	280,567	133,391
20,604	-9,804	280,436	133,234
21,619	-9,845	279,991	132,971
22,634	-9,882	279,750	132,810
23,648	-9,884	279,350	132,606
24,663	-9,840	279,017	132,478
25,677	-9,757	278,832	132,456
26,692	-9,736	278,514	132,314
27,707	-9,804	278,464	132,214
28,721	-9,856	277,923	131,896
29,736	-9,901	277,863	131,813
30,750	-9,862	277,557	131,693
31,765	-9,891	277,242	131,504
32,780	-9,721	276,922	131,501
33,794	-9,682	276,671	131,407
34,809	-9,813	276,559	131,218
35,823	-9,770	276,301	131,125
36,838	-9,933	276,083	130,856
37,853	-9,881	275,845	130,781
38,867	-9,764	275,447	130,691
39,882	-9,952	275,283	130,424
40,896	-9,925	275,100	130,352
41,911	-9,905	274,816	130,224
42,926	-9,903	274,591	130,108
43,940	-9,888	274,271	129,959
44,955	-10,226	274,134	129,566
45,969	-9,846	273,688	129,698
46,984	-10,227	273,584	129,282
47,999	-10,331	273,327	129,051
49,013	-10,226	273,044	129,005
50,028	-10,406	272,726	128,676
51,042	-10,484	272,596	128,531
52,057	-10,561	272,221	128,271
53,071	-10,490	272,205	128,317
54,086	-10,368	271,816	128,235
55,101	-10,206	271,648	128,295
56,115	-9,957	271,501	128,445
57,130	-9,839	271,424	128,506
58,144	-9,867	271,409	128,461
59,159	-9,727	270,839	128,309
60,174	-9,896	270,765	128,107
61,188	-9,788	270,620	128,126
62,203	-9,781	270,252	127,947
63,217	-9,477	270,044	128,117
64,232	-9,876	270,106	127,768
65,247	-9,616	269,700	127,803
66,261	-9,808	269,503	127,523
67,276	-9,745	269,090	127,373
68,290	-10,019	268,833	126,990
69,305	-10,140	268,700	126,805
70,320	-10,024	268,391	126,754
71,334	-9,916	268,232	126,766
72,349	-9,788	268,049	126,785
73,363	-9,904	267,876	126,586
74,378	-9,928	267,639	126,441
75,393	-9,701	267,497	126,569
76,407	-9,680	267,265	126,467
77,422	-9,938	267,240	126,209
78,436	-9,772	266,670	126,079
79,451	-9,716	266,475	126,026
80,466	-9,883	266,404	125,831
81,480	-9,927	266,203	125,685
82,495	-9,980	265,919	125,491
83,509	-9,886	265,791	125,505
84,524	-10,051	265,580	125,246
85,539	-10,059	265,402	125,143
86,553	-10,011	265,131	125,047
87,568	-9,981	264,829	124,920
88,582	-9,944	264,736	124,899
89,597	-10,065	264,527	124,680
90,611	-9,769	264,385	124,868
91,626	-9,791	264,115	124,710
92,641	-9,712	264,067	124,747
93,655	-9,882	263,680	124,401
94,670	-9,875	263,561	124,340
95,684	-10,144	263,398	124,011
96,699	-10,004	263,166	124,015
97,714	-9,908	263,037	124,029
98,728	-9,982	262,602	123,747
99,743	-10,064	262,437	123,586
100,757	-10,134	262,226	123,413
101,772	-9,784	262,067	123,639
102,787	-9,902	261,870	123,430
103,801	-9,860	261,787	123,417
104,816	-9,918	261,531	123,233
105,830	-9,744	261,476	123,351
106,845	-9,915	261,124	123,023
107,860	-9,788	261,038	123,083
108,874	-9,872	260,830	122,900
109,889	-9,811	260,645	122,856
110,903	-9,749	260,387	122,778
111,918	-9,902	260,289	122,586
112,933	-9,815	259,842	122,441
113,947	-9,734	259,854	122,507
114,962	-9,849	259,714	122,329
115,976	-9,926	259,363	122,085
116,991	-9,832	259,235	122,097
118,006	-9,893	258,959	121,903
119,020	-9,842	258,960	121,936
120,035	-9,693	258,758	121,961
121,049	-9,700	258,579	121,859
122,064	-9,729	258,433	121,755
123,079	-9,765	258,250	121,626
124,093	-9,809	258,059	121,487
125,108	-9,867	257,545	121,183
126,122	-10,097	257,460	120,932
127,137	-10,080	257,266	120,845
128,151	-10,177	257,131	120,686
129,166	-10,125	256,882	120,604
130,181	-10,134	256,743	120,520
131,195	-9,996	256,397	120,466
132,210	-10,063	256,348	120,375
133,224	-9,806	256,127	120,483
134,239	-9,842	256,056	120,408
135,254	-9,792	255,791	120,316
136,268	-9,899	255,556	120,102
137,283	-10,103	255,383	119,833
138,297	-10,195	255,110	119,615
139,312	-10,115	254,912	119,581
140,327	-9,932	254,867	119,707
141,341	-9,953	254,894	119,691
142,356	-9,855	254,668	119,658
143,370	-9,556	254,335	119,748
144,385	-9,610	254,328	119,688
145,400	-9,661	254,007	119,483
146,414	-9,730	253,931	119,377
147,429	-9,704	253,687	119,274
148,443	-9,590	253,543	119,293
149,458	-9,500	253,269	119,231
150,473	-9,539	253,218	119,163
151,487	-9,729	252,807	118,797
152,502	-9,708	252,788	118,795
153,516	-9,643	252,589	118,746
154,531	-9,547	252,324	118,693
155,546	-9,508	252,122	118,620
156,560	-9,672	252,110	118,464
157,575	-9,796	251,770	118,189
158,589	-9,654	251,748	118,289
159,604	-9,573	251,421	118,193
160,619	-9,486	251,237	118,170
161,633	-9,642	251,164	117,993
162,648	-9,567	251,058	117,996
163,662	-9,483	250,673	117,876
164,677	-9,642	250,659	117,724
165,692	-9,705	250,419	117,547
166,706	-9,617	250,227	117,522
167,721	-9,564	250,227	117,556
168,735	-9,673	250,003	117,348
169,750	-9,586	249,866	117,346
170,764	-9,514	249,632	117,287
171,779	-9,354	249,493	117,346
172,794	-9,668	249,402	117,028
173,808	-9,459	249,102	117,053
174,823	-9,956	248,784	116,476
175,837	-10,095	248,575	116,250
176,852	-9,823	248,597	116,479
177,867	-9,622	248,481	116,583
178,881	-9,430	248,324	116,659
179,896	-9,588	248,197	116,457
180,910	-9,616	247,920	116,293
181,925	-9,647	247,868	116,233
182,940	-9,297	247,441	116,314
183,954	-9,587	247,488	116,084
184,969	-9,569	247,316	116,007
185,983	-9,651	247,198	115,874
186,998	-9,247	246,880	116,050
188,013	-9,526	246,817	115,779
189,027	-9,435	246,496	115,693
190,042	-9,730	246,487	115,433
191,056	-9,690	246,272	115,355
192,071	-9,635	246,093	115,307
193,086	-9,794	245,906	115,078
194,100	-9,517	245,705	115,203
195,115	-9,528	245,589	115,129
196,129	-9,656	245,438	114,942
197,144	-9,512	245,171	114,926
198,159	-9,666	245,103	114,756
199,173	-9,649	244,879	114,655
200,188	-9,487	244,499	114,600
201,202	-9,873	244,426	114,238
202,217	-10,042	244,163	113,966
203,232	-10,011	243,944	113,880
204,246	-9,679	243,955	114,147
205,261	-9,244	243,632	114,342
206,275	-10,591	243,223	113,038
207,290	-7,719	244,670	116,063
208,304	-0,064	247,138	123,569
209,319	4,079	248,048	127,448
210,334	4,464	247,940	127,699
211,348	4,658	247,994	127,876
212,363	4,791	248,027	127,992
213,377	4,981	247,738	127,988
214,392	4,782	247,493	127,686
215,407	4,637	247,443	127,530
216,421	4,488	247,186	127,262
217,436	4,994	247,014	127,579
218,450	4,986	246,908	127,507
219,465	4,597	246,729	127,083
220,480	4,410	246,494	126,797
221,494	4,624	246,129	126,774
222,509	4,188	246,266	126,475
223,523	4,150	245,965	126,278
224,538	3,754	245,717	125,814
225,553	4,181	245,525	126,055
226,567	4,301	245,397	126,076
227,582	4,296	245,446	126,086
228,596	4,474	245,171	126,079
229,611	4,211	244,841	125,683
230,626	3,973	244,684	125,397
231,640	3,951	244,604	125,327
232,655	4,338	244,328	125,490
233,669	4,109	244,114	125,183
234,684	4,040	244,076	125,095
235,699	4,532	244,050	125,471
236,713	4,415	243,826	125,250
237,728	4,104	243,642	124,892
238,742	4,063	243,370	124,708
239,757	4,030	243,132	124,549
240,772	4,137	242,941	124,526
241,786	4,050	243,105	124,529
242,801	3,978	242,949	124,379
243,815	4,102	242,606	124,293
244,830	4,345	242,462	124,404
245,844	4,323	242,498	124,393
246,859	4,052	242,138	123,979
247,874	3,961	242,157	123,905
248,888	3,963	241,995	123,812
249,903	4,194	241,833	123,904
250,917	4,463	241,659	124,021
251,932	4,293	241,749	123,918
252,947	4,295	241,392	123,726
253,961	4,046	241,135	123,384
254,976	4,335	241,064	123,568
255,990	4,383	240,910	123,517
257,005	4,171	240,684	123,220
258,020	3,860	240,448	122,840
259,034	4,025	240,299	122,884
260,049	4,231	240,222	122,998
261,063	3,946	240,047	122,670
262,078	3,953	239,811	122,545
263,093	4,359	239,851	122,878
264,107	4,266	239,699	122,714
265,122	3,923	239,444	122,300
266,136	4,047	239,444	122,388
267,151	4,612	239,181	122,691
268,166	4,107	238,887	122,129
269,180	4,024	238,846	122,032
270,195	4,360	238,835	122,282
271,209	4,859	238,722	122,608
272,224	4,242	238,391	121,939
273,239	3,828	238,147	121,476
274,253	3,868	237,968	121,406
275,268	4,244	237,746	121,578
276,282	4,208	237,816	121,575
277,297	3,840	237,366	121,044
278,312	3,966	237,472	121,187
279,326	4,171	237,354	121,277
280,341	4,165	237,226	121,196
281,355	4,009	236,988	120,941
282,370	4,438	236,941	121,243
283,384	4,314	236,554	120,937
284,399	3,892	236,468	120,551
285,414	3,877	236,241	120,414
286,428	4,099	236,256	120,584
287,443	4,283	236,006	120,590
288,457	4,353	235,955	120,607
289,472	4,497	235,743	120,600
290,487	4,235	235,676	120,351
291,501	4,155	235,390	120,132
292,516	3,945	235,283	119,903
293,530	4,019	234,931	119,770
294,545	4,303	235,079	120,057
295,560	4,145	234,952	119,858
296,574	3,914	234,639	119,508
297,589	4,042	234,480	119,516
298,603	4,227	234,521	119,670
299,618	4,369	234,479	119,748
300,633	4,314	234,225	119,565
301,647	4,473	234,132	119,630
302,662	4,584	234,104	119,691
303,676	4,711	233,802	119,624
304,691	4,601	233,673	119,462
305,706	4,642	233,567	119,429
306,720	4,600	233,425	119,314
307,735	4,372	233,233	119,029
308,749	4,206	233,102	118,823
309,764	4,192	232,865	118,681
310,779	3,965	232,583	118,352
311,793	3,973	232,372	118,240
312,808	4,036	232,243	118,212
313,822	3,844	232,120	117,992
314,837	4,060	231,931	118,051
315,852	3,809	231,697	117,729
316,866	3,830	231,821	117,798
317,881	4,122	231,727	117,963
318,895	4,289	231,631	118,032
319,910	4,914	231,415	118,389
320,925	4,406	231,130	117,845
321,939	4,150	230,947	117,546
322,954	4,013	230,971	117,443
323,968	4,092	230,722	117,366
324,983	4,015	230,699	117,285
325,997	4,510	230,692	117,648
327,012	4,379	230,519	117,450
328,027	4,238	230,153	117,146
329,041	4,645	230,150	117,443
330,056	4,895	230,139	117,617
331,070	5,077	229,932	117,638
332,085	4,343	229,824	117,017
333,100	4,355	229,585	116,893
334,114	4,683	229,321	116,997
335,129	4,650	229,282	116,941
336,143	4,703	229,231	116,945
337,158	4,619	228,973	116,739
338,173	4,265	228,824	116,385
339,187	4,120	228,600	116,152
340,202	4,470	228,376	116,292
341,216	4,414	228,400	116,252
342,231	4,103	228,305	115,958
343,246	4,111	228,008	115,803
344,260	4,205	228,002	115,860
345,275	4,730	227,765	116,124
346,289	4,625	227,698	116,000
347,304	4,807	227,511	116,032
348,319	4,581	227,411	115,801
349,333	4,357	227,237	115,534
350,348	4,326	226,883	115,321
351,362	4,295	226,998	115,346
352,377	3,933	226,643	114,885
353,392	3,779	226,666	114,771
354,406	4,105	226,420	114,880
355,421	195,853	1321,203	1399,418
356,435	157,022	1454,575	1399,420
