DTS Sentinel unit serial number:	SN410029Multiplexer serial number:	ORYXHardware model number:	OX2-SRSoftware version number:	ORYX F/W v4,00 Oryx Data Collector v3.7.2.0data status	okinstallation	B5 Nyhavnadifferential loss correction	single-endedforward channel	channel 2reverse channel	N/Adate	2023/12/14time	06:22:13forward acquisition time	300,00reverse acquisition time	0,00gamma	499,1914k internal	0,3158k external	0,3158temperature offset calibration	1,0000default loss term (dB/km)	0,3820temperature slope calibration	1,0000multiplexer offset coefficient	1,0000multiplexer slope coefficient	1,0000fibre end	0,00T internal ref (°C)	7,51T ext. ref 1 (°C)	-8,94T ext. ref 2 (°C)	-9,02length (m)	temperature (°C)	Stokes	anti-Stokes-744,400	-48,374	0,174	0,062
-743,385	-171,788	-0,467	0,011
-742,371	-108,406	0,203	0,032
-741,356	-112,681	-0,290	-0,042
-740,342	-57,927	0,234	0,075
-739,327	-92,226	-0,398	-0,082
-738,312	-200,000	0,018	0,080
-737,298	-102,769	-0,380	0,066
-736,283	691,044	0,163	0,317
-735,269	-58,691	-0,413	-0,131
-734,254	-200,000	0,041	0,190
-733,239	88,089	-0,518	-0,423
-732,225	74,547	0,203	0,157
-731,210	42,401	-0,059	0,040
-730,196	-200,000	-0,009	0,033
-729,181	-40,661	-0,036	-0,014
-728,167	158,513	-0,050	0,051
-727,152	169,049	-0,024	-0,025
-726,137	-164,418	-0,119	-0,004
-725,123	73,253	-0,028	0,022
-724,108	690,245	-0,016	0,030
-723,094	396,673	0,048	-0,074
-722,079	-84,470	0,084	0,019
-721,064	290,902	0,077	-0,103
-720,050	-12,609	0,070	-0,033
-719,035	530,651	-0,033	-0,057
-718,021	-50,794	0,059	0,020
-717,006	-72,468	0,053	-0,014
-715,991	-33,370	-0,020	0,008
-714,977	-69,601	0,153	0,043
-713,962	8,432	-0,059	-0,033
-712,948	80,042	-0,061	0,048
-711,933	40,246	-0,033	-0,022
-710,918	-59,711	0,057	-0,018
-709,904	207,971	-0,082	-0,095
-708,889	-85,361	0,030	-0,007
-707,875	275,837	0,103	-0,134
-706,860	-141,202	-0,066	0,005
-705,845	-47,121	-0,044	-0,016
-704,831	-28,545	0,116	-0,049
-703,816	286,753	0,070	-0,094
-702,802	-200,000	-0,018	-0,060
-701,787	-200,000	0,030	-0,164
-700,772	-200,000	0,004	0,050
-699,758	-134,660	-0,126	-0,011
-698,743	83,721	0,097	0,078
-697,729	200,863	0,064	-0,073
-696,714	-53,652	-0,083	-0,028
-695,699	-135,484	-0,096	-0,008
-694,685	257,431	-0,035	-0,044
-693,670	51,284	-0,070	-0,049
-692,656	510,147	0,046	0,080
-691,641	173,590	-0,004	-0,004
-690,627	800,000	-0,029	0,082
-689,612	45,604	0,019	0,013
-688,597	59,695	0,080	-0,058
-687,583	-24,144	-0,139	-0,061
-686,568	-97,343	-0,058	-0,011
-685,554	-47,864	0,113	-0,040
-684,539	21,985	0,064	-0,038
-683,524	-19,390	-0,121	-0,055
-682,510	-64,333	0,091	-0,027
-681,495	-200,000	0,005	-0,116
-680,481	189,757	-0,132	-0,146
-679,466	557,532	0,028	-0,050
-678,451	-200,000	-0,003	0,043
-677,437	47,643	0,062	-0,043
-676,422	9,913	0,029	-0,016
-675,408	10,141	-0,092	-0,051
-674,393	-200,000	-0,008	0,048
-673,378	-200,000	-0,000	-0,104
-672,364	-152,767	-0,075	-0,004
-671,349	-200,000	0,002	-0,064
-670,335	49,132	-0,031	0,021
-669,320	800,000	0,018	0,043
-668,305	563,744	-0,014	0,025
-667,291	-200,000	0,000	0,101
-666,276	-200,000	0,008	0,059
-665,262	-130,813	-0,202	-0,020
-664,247	-20,363	0,038	0,017
-663,232	85,117	-0,109	-0,087
-662,218	247,763	-0,061	0,076
-661,203	-200,000	0,004	-0,044
-660,189	86,193	0,084	0,068
-659,174	377,672	0,051	-0,076
-658,159	-116,557	0,102	-0,014
-657,145	68,294	-0,050	0,037
-656,130	800,000	0,036	0,111
-655,116	-200,000	-0,007	0,071
-654,101	-200,000	0,031	0,135
-653,086	-30,757	-0,135	-0,056
-652,072	116,251	0,020	0,018
-651,057	168,911	-0,061	-0,064
-650,043	-114,492	0,058	-0,008
-649,028	-16,302	-0,016	-0,007
-648,014	61,008	0,087	-0,063
-646,999	-6,941	0,089	-0,044
-645,984	434,510	0,013	-0,021
-644,970	70,951	-0,066	0,050
-643,955	106,831	0,071	-0,062
-642,941	-159,046	-0,098	-0,004
-641,926	-200,000	-0,007	-0,054
-640,911	800,000	0,021	-0,057
-639,897	-33,632	-0,052	0,021
-638,882	-16,740	0,040	-0,018
-637,868	-56,961	-0,064	-0,020
-636,853	208,449	0,054	-0,062
-635,838	124,007	-0,004	0,004
-634,824	-200,000	-0,017	-0,128
-633,809	-90,053	-0,125	0,026
-632,795	-36,070	-0,039	-0,015
-631,780	722,286	-0,039	-0,077
-630,765	-56,190	0,080	-0,026
-629,751	-76,540	-0,162	-0,041
-628,736	84,409	-0,103	0,082
-627,722	672,870	-0,057	0,110
-626,707	328,184	-0,059	-0,084
-625,692	-200,000	0,015	0,065
-624,678	-137,284	-0,176	-0,014
-623,663	-61,222	-0,143	0,044
-622,649	800,000	-0,040	-0,124
-621,634	-76,223	0,092	-0,024
-620,619	615,720	-0,057	-0,105
-619,605	134,219	0,072	0,068
-618,590	244,975	-0,059	-0,073
-617,576	289,106	0,055	0,074
-616,561	50,222	-0,155	-0,107
-615,546	41,064	-0,003	0,002
-614,532	291,557	-0,126	-0,168
-613,517	-32,312	0,057	-0,023
-612,503	79,669	0,037	0,029
-611,488	-35,941	-0,058	0,023
-610,474	32,326	0,112	-0,071
-609,459	54,900	0,079	0,056
-608,444	-22,100	-0,048	-0,021
-607,430	-68,800	-0,100	-0,028
-606,415	250,675	-0,056	0,069
-605,401	-94,558	0,071	-0,014
-604,386	660,744	0,023	0,044
-603,371	267,937	0,111	0,143
-602,357	-172,450	-0,053	-0,001
-601,342	-159,512	-0,053	-0,002
-600,328	800,000	0,030	0,073
-599,313	393,060	0,045	-0,069
-598,298	55,117	-0,042	-0,030
-597,284	-7,430	0,082	0,040
-596,269	120,483	0,033	0,030
-595,255	179,525	0,041	0,044
-594,240	-13,707	-0,128	0,061
-593,225	7,180	0,053	-0,029
-592,211	-98,706	0,162	0,030
-591,196	93,987	0,018	0,015
-590,182	-9,389	0,016	-0,008
-589,167	110,677	-0,083	0,073
-588,152	-3,209	0,086	-0,044
-587,138	177,401	-0,069	-0,074
-586,123	-200,000	0,024	-0,123
-585,109	-200,000	-0,009	-0,079
-584,094	-120,176	-0,128	0,016
-583,079	168,031	0,035	-0,036
-582,065	800,000	-0,021	-0,055
-581,050	2,913	-0,079	0,042
-580,036	-83,274	-0,053	0,012
-579,021	455,662	0,033	-0,053
-578,006	-79,388	-0,187	-0,046
-576,992	-125,177	0,048	-0,005
-575,977	782,648	0,032	0,065
-574,963	-200,000	0,012	0,088
-573,948	159,396	0,130	0,133
-572,934	151,982	-0,061	-0,061
-571,919	800,000	0,033	-0,107
-570,904	315,079	-0,073	-0,101
-569,890	-157,885	-0,054	-0,002
-568,875	-72,024	0,167	-0,045
-567,861	125,135	-0,015	-0,014
-566,846	-164,423	0,143	0,005
-565,831	-6,732	0,068	-0,034
-564,817	-200,000	-0,002	-0,031
-563,802	-51,225	0,063	0,022
-562,788	-200,000	0,006	-0,078
-561,773	63,108	-0,053	0,039
-560,758	-11,759	0,112	-0,054
-559,744	800,000	0,015	0,031
-558,729	-200,000	-0,015	0,104
-557,715	-200,000	0,008	-0,060
-556,700	203,719	-0,099	-0,113
-555,685	-200,000	-0,007	0,023
-554,671	94,125	-0,107	0,088
-553,656	335,212	0,085	0,121
-552,642	-200,000	0,027	0,111
-551,627	800,000	-0,044	-0,125
-550,612	16,999	-0,079	-0,046
-549,598	-71,272	-0,087	0,024
-548,583	-70,496	-0,036	-0,010
-547,569	800,000	0,011	-0,027
-546,554	-70,361	0,022	0,006
-545,539	-85,066	0,074	0,017
-544,525	-138,312	-0,037	0,003
-543,510	150,313	-0,119	0,118
-542,496	-200,000	0,013	-0,068
-541,481	800,000	-0,065	-0,167
-540,466	800,000	0,029	-0,087
-539,452	-40,045	0,188	-0,071
-538,437	192,637	0,066	0,073
-537,423	-200,000	0,011	0,092
-536,408	-200,000	-0,028	-0,108
-535,393	419,459	-0,034	-0,053
-534,379	-33,323	-0,233	-0,094
-533,364	137,316	0,047	-0,045
-532,350	800,000	-0,022	0,051
-531,335	-120,859	0,028	0,003
-530,321	-55,445	-0,041	0,013
-529,306	-33,993	0,051	0,020
-528,291	800,000	-0,049	-0,103
-527,277	124,339	0,009	-0,008
-526,262	-150,076	-0,082	0,005
-525,248	-180,136	0,206	0,003
-524,233	435,286	-0,087	0,140
-523,218	319,285	-0,023	-0,032
-522,204	-200,000	0,023	-0,100
-521,189	-200,000	-0,022	-0,088
-520,175	-197,470	-0,055	0,000
-519,160	800,000	-0,033	-0,085
-518,145	-42,167	-0,087	-0,032
-517,131	-50,153	0,053	-0,018
-516,116	800,000	-0,019	-0,058
-515,102	79,153	0,114	-0,089
-514,087	-76,969	-0,057	0,014
-513,072	-20,531	-0,078	0,035
-512,058	641,763	0,027	-0,051
-511,043	-200,000	-0,021	0,113
-510,029	29,257	0,030	-0,018
-509,014	800,000	-0,013	-0,032
-507,999	800,000	-0,037	0,112
-506,985	86,659	-0,091	-0,073
-505,970	-19,764	-0,158	-0,071
-504,956	164,733	0,121	-0,125
-503,941	476,322	0,069	0,114
-502,926	296,937	0,087	0,117
-501,912	106,646	-0,071	-0,061
-500,897	116,032	-0,051	-0,045
-499,883	70,768	-0,055	-0,042
-498,868	513,937	-0,028	-0,049
-497,853	201,878	-0,061	-0,069
-496,839	77,526	0,015	-0,012
-495,824	-31,350	0,109	0,045
-494,810	-61,673	0,053	0,016
-493,795	142,830	0,019	-0,018
-492,781	800,000	0,044	-0,089
-491,766	258,536	-0,099	-0,125
-490,751	357,221	-0,062	-0,091
-489,737	689,749	-0,033	-0,063
-488,722	-7,261	0,058	0,029
-487,708	-200,000	0,009	0,076
-486,693	179,077	0,048	0,052
-485,678	-18,012	-0,078	0,036
-484,664	-5,034	-0,053	0,027
-483,649	211,808	0,080	0,092
-482,635	800,000	0,033	-0,088
-481,620	-64,749	0,088	0,026
-480,605	-200,000	0,073	0,310
-479,591	800,000	-0,028	-0,064
-478,576	800,000	-0,029	-0,077
-477,562	49,536	-0,022	-0,015
-476,547	-200,000	-0,013	-0,069
-475,532	148,598	0,063	-0,062
-474,518	72,574	0,173	0,131
-473,503	-200,000	0,005	-0,089
-472,489	-200,000	-0,033	0,136
-471,474	230,250	0,096	0,115
-470,459	677,550	-0,022	-0,042
-469,445	47,944	-0,103	-0,070
-468,430	-200,000	0,032	0,190
-467,416	-200,000	0,034	0,154
-466,401	45,605	0,063	0,042
-465,386	476,745	0,030	-0,050
-464,372	-200,000	0,010	-0,041
-463,357	280,670	0,055	-0,072
-462,343	800,000	-0,051	-0,159
-461,328	-200,000	-0,004	0,021
-460,313	-0,928	-0,073	-0,038
-459,299	99,283	0,032	-0,027
-458,284	409,966	-0,081	0,125
-457,270	-56,556	-0,090	0,029
-456,255	-200,000	-0,014	0,065
-455,241	50,947	0,080	0,055
-454,226	351,384	0,031	-0,045
-453,211	800,000	0,025	-0,054
-452,197	336,965	0,050	0,071
-451,182	34,916	0,158	0,100
-450,168	-200,000	-0,007	0,089
-449,153	259,616	0,088	-0,111
-448,138	581,221	0,034	0,061
-447,124	-200,000	0,021	-0,110
-446,109	800,000	0,013	0,040
-445,095	254,293	0,043	0,053
-444,080	-67,272	0,087	-0,025
-443,065	800,000	0,040	0,092
-442,051	-194,778	-0,074	0,000
-441,036	260,487	-0,052	0,065
-440,022	12,962	-0,073	0,041
-439,007	-134,525	0,075	-0,007
-437,992	800,000	-0,007	-0,016
-436,978	19,574	-0,103	0,060
-435,963	-63,395	-0,142	-0,042
-434,949	94,990	0,139	-0,115
-433,934	-200,000	0,002	-0,104
-432,919	-70,702	0,032	0,009
-431,905	343,956	0,063	-0,090
-430,890	-155,128	-0,093	0,004
-429,876	169,676	-0,045	-0,047
-428,861	173,091	-0,041	0,043
-427,846	47,586	-0,071	0,048
-426,832	150,714	0,023	-0,023
-425,817	800,000	0,051	-0,110
-424,803	235,094	-0,022	-0,026
-423,788	213,594	-0,019	-0,022
-422,773	142,342	0,167	0,162
-421,759	-149,513	0,052	-0,003
-420,744	-82,197	0,123	0,029
-419,730	147,445	-0,088	-0,087
-418,715	-200,000	-0,025	-0,093
-417,701	36,492	0,093	-0,060
-416,686	61,161	-0,033	-0,024
-415,671	90,040	0,040	-0,032
-414,657	800,000	0,032	0,078
-413,642	199,729	0,078	-0,087
-412,628	-200,000	-0,005	0,039
-411,613	-200,000	0,021	-0,090
-410,598	486,028	0,035	-0,058
-409,584	-89,102	0,062	-0,013
-408,569	-46,999	-0,088	-0,031
-407,555	-200,000	-0,002	-0,010
-406,540	34,624	0,154	-0,097
-405,525	-32,676	-0,059	0,024
-404,511	24,339	-0,088	-0,053
-403,496	193,262	-0,064	-0,071
-402,482	-82,796	0,050	0,012
-401,467	28,000	0,169	-0,104
-400,452	-75,953	0,189	0,048
-399,438	800,000	0,021	-0,058
-398,423	800,000	-0,030	-0,069
-397,409	-77,591	-0,088	0,022
-396,394	-71,807	-0,162	-0,044
-395,379	-200,000	0,013	0,069
-394,365	-200,000	0,024	0,136
-393,350	68,954	0,008	0,006
-392,336	24,897	0,079	-0,047
-391,321	800,000	-0,045	0,128
-390,306	-171,712	-0,052	0,001
-389,292	-200,000	0,037	-0,179
-388,277	186,897	-0,037	-0,040
-387,263	168,251	0,044	0,046
-386,248	-146,365	0,072	-0,005
-385,233	-200,000	-0,017	0,101
-384,219	800,000	-0,029	0,078
-383,204	-200,000	-0,012	-0,079
-382,190	18,063	-0,040	0,023
-381,175	-6,498	0,014	-0,007
-380,160	9,433	0,136	0,074
-379,146	183,403	0,077	0,083
-378,131	-81,860	0,034	0,008
-377,117	-19,826	-0,084	-0,038
-376,102	-200,000	0,013	0,056
-375,088	-200,000	0,002	0,026
-374,073	86,878	0,086	-0,069
-373,058	-187,760	0,067	0,001
-372,044	-200,000	-0,023	0,090
-371,029	-25,486	-0,042	-0,018
-370,015	210,751	0,047	-0,053
-369,000	-200,000	0,026	-0,135
-367,985	-94,144	-0,185	-0,036
-366,971	-200,000	-0,011	0,063
-365,956	800,000	-0,063	0,135
-364,942	800,000	0,043	0,116
-363,927	-118,479	0,007	-0,001
-362,912	-200,000	0,004	-0,163
-361,898	-200,000	0,014	0,083
-360,883	182,573	-0,113	-0,121
-359,869	435,505	-0,072	-0,115
-358,854	256,310	0,057	0,071
-357,839	226,242	-0,026	0,031
-356,825	800,000	0,014	-0,034
-355,810	198,692	0,064	0,072
-354,796	-188,219	-0,082	0,001
-353,781	-200,000	-0,015	-0,051
-352,766	199,844	0,092	0,103
-351,752	800,000	0,059	0,129
-350,737	-200,000	0,011	0,078
-349,723	150,206	-0,045	0,044
-348,708	-200,000	-0,035	0,126
-347,693	312,004	0,038	-0,052
-346,679	-200,000	-0,008	-0,149
-345,664	-161,231	0,084	-0,003
-344,650	-128,795	0,104	0,010
-343,635	-181,422	-0,041	0,001
-342,620	12,946	0,106	0,059
-341,606	16,308	0,079	0,045
-340,591	302,396	0,072	0,097
-339,577	23,335	0,093	-0,055
-338,562	266,596	0,022	-0,027
-337,548	-40,986	0,033	-0,012
-336,533	-200,000	-0,003	0,101
-335,518	-45,563	0,061	-0,022
-334,504	417,773	0,051	-0,079
-333,489	-91,294	-0,042	0,009
-332,475	-39,937	-0,078	0,029
-331,460	800,000	0,033	-0,080
-330,445	373,624	-0,020	0,029
-329,431	-24,484	0,079	0,034
-328,416	-79,247	0,122	0,030
-327,402	800,000	-0,030	-0,074
-326,387	-194,682	-0,035	0,000
-325,372	-155,600	-0,120	-0,005
-324,358	235,933	-0,051	0,062
-323,343	-200,000	-0,007	-0,138
-322,329	30,564	-0,031	0,019
-321,314	393,908	0,025	0,039
-320,299	-100,700	0,082	0,015
-319,285	-76,710	-0,122	-0,031
-318,270	65,121	0,051	-0,037
-317,256	-50,517	0,064	0,022
-316,241	57,894	-0,073	-0,052
-315,226	-200,000	0,032	0,178
-314,212	800,000	-0,023	0,059
-313,197	663,273	-0,043	-0,081
-312,183	800,000	-0,017	0,046
-311,168	170,433	-0,087	0,090
-310,153	-189,279	-0,042	-0,000
-309,139	800,000	-0,009	0,027
-308,124	39,715	-0,067	-0,044
-307,110	452,373	0,098	0,157
-306,095	800,000	0,042	0,110
-305,080	-41,656	-0,102	0,038
-304,066	-59,852	-0,096	0,030
-303,051	800,000	-0,066	-0,149
-302,037	366,716	-0,031	-0,045
-301,022	-36,616	-0,051	0,020
-300,008	56,397	0,093	0,065
-298,993	-200,000	0,021	-0,082
-297,978	86,542	-0,065	0,052
-296,964	307,896	0,104	0,140
-295,949	-66,357	-0,024	0,007
-294,935	-200,000	0,027	0,248
-293,920	180,622	-0,063	-0,067
-292,905	323,954	0,012	0,016
-291,891	2,694	-0,011	0,006
-290,876	-200,000	-0,017	0,129
-289,862	-32,338	0,074	-0,030
-288,847	-200,000	0,011	-0,065
-287,832	19,049	-0,166	0,096
-286,818	-200,000	0,000	-0,016
-285,803	-200,000	-0,017	0,100
-284,789	-62,426	0,132	-0,040
-283,774	721,194	-0,065	0,126
-282,759	-101,440	-0,100	-0,017
-281,745	140,772	-0,018	0,017
-280,730	-6,718	0,026	0,013
-279,716	-68,602	-0,135	-0,037
-278,701	-200,000	0,004	0,040
-277,686	490,857	-0,068	0,113
-276,672	138,751	0,114	0,109
-275,657	-200,000	-0,011	-0,036
-274,643	166,383	-0,094	0,097
-273,628	-200,000	-0,015	-0,048
-272,613	-200,000	0,017	-0,113
-271,599	-166,433	0,036	0,001
-270,584	212,824	-0,044	-0,050
-269,570	-76,691	0,093	0,024
-268,555	-87,832	-0,099	-0,021
-267,540	-81,074	-0,074	-0,018
-266,526	240,784	-0,050	-0,060
-265,511	800,000	0,031	-0,089
-264,497	-30,567	0,145	-0,059
-263,482	100,250	0,156	0,131
-262,467	-200,000	0,010	0,244
-261,453	179,834	-0,099	0,105
-260,438	-12,354	-0,152	0,072
-259,424	800,000	-0,030	0,087
-258,409	-200,000	-0,012	-0,150
-257,395	-108,335	-0,056	0,009
-256,380	-58,107	0,067	0,021
-255,365	-67,090	0,029	0,008
-254,351	800,000	0,069	0,160
-253,336	800,000	0,028	0,087
-252,322	-200,000	-0,010	-0,081
-251,307	-200,000	-0,007	0,209
-250,292	-68,836	0,081	0,022
-249,278	69,695	0,121	0,090
-248,263	-84,058	0,053	-0,012
-247,249	-101,608	0,111	0,019
-246,234	-200,000	0,018	0,144
-245,219	800,000	-0,041	0,094
-244,205	-200,000	-0,004	-0,098
-243,190	800,000	-0,029	0,070
-242,176	414,045	0,061	0,094
-241,161	-141,762	-0,105	-0,007
-240,146	-55,730	-0,101	-0,032
-239,132	800,000	-0,025	-0,063
-238,117	-200,000	0,017	-0,132
-237,103	-56,279	0,128	0,041
-236,088	800,000	-0,045	0,103
-235,073	312,043	-0,098	0,133
-234,059	-200,000	-0,009	0,042
-233,044	97,442	-0,130	-0,108
-232,030	-200,000	0,009	-0,091
-231,015	-167,102	-0,070	0,002
-230,000	800,000	-0,055	-0,144
-228,986	-22,640	0,052	0,023
-227,971	117,082	-0,051	-0,046
-226,957	168,732	-0,086	-0,088
-225,942	361,847	0,048	0,070
-224,927	-200,000	-0,002	0,016
-223,913	85,796	-0,073	-0,058
-222,898	17,385	-0,087	-0,050
-221,884	-200,000	0,000	0,016
-220,869	339,720	0,008	-0,011
-219,855	-200,000	-0,026	0,140
-218,840	-45,951	0,127	0,045
-217,825	800,000	0,040	-0,124
-216,811	114,738	0,124	-0,109
-215,796	3,458	-0,102	-0,053
-214,782	33,920	0,033	0,021
-213,767	800,000	0,006	0,013
-212,752	-45,980	0,099	0,035
-211,738	-200,000	-0,009	-0,066
-210,723	800,000	0,015	0,032
-209,709	-200,000	-0,016	-0,073
-208,694	-33,083	-0,052	-0,021
-207,679	626,726	0,040	-0,073
-206,665	9,544	0,063	0,034
-205,650	-200,000	0,031	0,151
-204,636	158,235	0,097	0,097
-203,621	193,438	-0,097	0,106
-202,606	-200,000	-0,018	-0,091
-201,592	-192,205	-0,157	-0,001
-200,577	-182,381	0,134	-0,002
-199,563	-74,540	-0,063	0,016
-198,548	-40,060	0,137	-0,051
-197,533	-105,440	-0,222	-0,036
-196,519	-200,000	0,048	0,162
-195,504	28,617	-0,075	-0,046
-194,490	-127,175	-0,120	-0,013
-193,475	219,052	0,107	0,124
-192,460	-29,154	-0,099	0,041
-191,446	-80,011	0,094	-0,023
-190,431	800,000	0,069	0,138
-189,417	-102,835	-0,063	-0,011
-188,402	800,000	-0,040	-0,112
-187,387	220,397	-0,068	-0,079
-186,373	-200,000	-0,001	0,012
-185,358	-200,000	0,006	-0,024
-184,344	497,697	-0,030	0,050
-183,329	201,723	0,064	0,072
-182,315	174,192	-0,062	0,065
-181,300	-71,086	0,087	-0,024
-180,285	1,448	-0,066	0,034
-179,271	800,000	0,040	-0,093
-178,256	405,622	0,034	-0,051
-177,242	88,951	0,084	0,068
-176,227	-200,000	0,017	-0,116
-175,212	466,644	-0,035	-0,057
-174,198	-162,663	0,050	-0,002
-173,183	670,991	-0,039	-0,073
-172,169	39,027	0,071	-0,046
-171,154	-71,381	0,122	-0,033
-170,139	-154,693	0,043	0,002
-169,125	22,936	0,088	0,052
-168,110	-173,490	-0,052	-0,001
-167,096	129,332	-0,110	0,101
-166,081	135,786	-0,046	0,043
-165,066	800,000	0,036	-0,083
-164,052	6,949	-0,094	-0,050
-163,037	-200,000	-0,004	-0,043
-162,023	800,000	-0,034	-0,068
-161,008	800,000	-0,020	-0,054
-159,993	800,000	0,048	-0,095
-158,979	-9,435	0,084	0,040
-157,964	29,023	-0,043	0,026
-156,950	-20,957	-0,073	0,032
-155,935	-200,000	-0,002	0,039
-154,920	123,801	0,116	-0,105
-153,906	-74,909	0,062	-0,016
-152,891	-200,000	0,001	-0,033
-151,877	-117,341	-0,017	0,002
-150,862	-71,665	-0,059	-0,016
-149,847	-148,447	0,062	-0,004
-148,833	25,631	-0,131	0,078
-147,818	137,376	0,081	0,077
-146,804	-200,000	0,005	0,037
-145,789	800,000	0,033	0,074
-144,775	64,605	-0,069	0,050
-143,760	-97,861	0,029	0,005
-142,745	-200,000	0,019	0,119
-141,731	-200,000	-0,016	0,108
-140,716	163,246	0,114	0,115
-139,702	410,264	0,128	0,197
-138,687	-200,000	0,015	-0,122
-137,672	-200,000	-0,022	-0,091
-136,658	558,779	0,024	-0,041
-135,643	800,000	-0,048	-0,104
-134,629	192,855	0,052	-0,057
-133,614	-200,000	-0,016	0,061
-132,599	58,757	0,072	0,051
-131,585	-200,000	0,000	0,227
-130,570	234,180	0,050	0,059
-129,556	19,537	-0,129	-0,074
-128,541	-104,256	0,018	0,003
-127,526	-200,000	-0,024	0,081
-126,512	35,513	0,068	-0,043
-125,497	-23,252	0,109	-0,047
-124,483	444,156	0,058	-0,093
-123,468	-69,928	-0,039	-0,010
-122,453	96,931	-0,072	-0,059
-121,439	76,274	-0,053	-0,041
-120,424	175,584	0,016	0,016
-119,410	800,000	-0,013	0,033
-118,395	217,581	-0,088	-0,101
-117,380	147,831	0,040	-0,038
-116,366	-200,000	0,009	0,117
-115,351	273,522	-0,078	-0,099
-114,337	800,000	0,009	0,024
-113,322	-56,305	-0,123	-0,039
-112,307	306,431	0,031	0,041
-111,293	-200,000	0,007	-0,030
-110,278	-200,000	0,046	0,146
-109,264	-102,261	0,112	-0,019
-108,249	-200,000	-0,020	-0,217
-107,234	-27,695	0,063	-0,026
-106,220	-46,452	-0,075	-0,026
-105,205	11,499	0,033	0,018
-104,191	-74,176	-0,078	0,020
-103,176	800,000	-0,031	0,097
-102,162	-4,691	-0,073	0,036
-101,147	800,000	-0,015	0,031
-100,132	800,000	0,007	0,019
-99,118	342,796	0,048	0,068
-98,103	-200,000	0,004	0,055
-97,089	-200,000	-0,018	-0,069
-96,074	48,403	0,086	-0,058
-95,059	13,286	0,043	0,024
-94,045	-16,071	0,075	-0,034
-93,030	-200,000	-0,025	-0,101
-92,016	-200,000	-0,002	-0,100
-91,001	800,000	-0,038	-0,107
-89,986	-200,000	-0,030	-0,117
-88,972	546,901	0,047	0,081
-87,957	-200,000	-0,010	-0,062
-86,943	-200,000	-0,019	0,174
-85,928	-4,254	-0,130	-0,065
-84,913	116,639	-0,075	-0,066
-83,899	-147,884	0,112	0,007
-82,884	-200,000	0,008	0,127
-81,870	800,000	0,121	0,262
-80,855	800,000	0,028	-0,072
-79,840	-200,000	-0,007	-0,048
-78,826	-200,000	-0,030	-0,118
-77,811	-200,000	-0,027	-0,122
-76,797	12,576	0,175	-0,097
-75,782	-200,000	0,003	0,071
-74,767	800,000	0,058	0,128
-73,753	3,108	0,089	-0,046
-72,738	-132,838	0,137	0,012
-71,724	-67,861	-0,075	0,021
-70,709	25,452	0,097	-0,058
-69,694	46,811	0,086	-0,058
-68,680	800,000	-0,028	0,062
-67,665	-95,981	0,061	-0,012
-66,651	79,941	-0,067	0,052
-65,636	-18,033	0,127	0,057
-64,622	-200,000	-0,013	-0,192
-63,607	800,000	0,020	-0,050
-62,592	800,000	0,026	-0,060
-61,578	407,301	-0,055	0,083
-60,563	-200,000	0,048	0,164
-59,549	53,453	0,041	-0,028
-58,534	76,431	-2,847	-2,164
-57,519	48,879	0,440	-0,296
-56,505	-200,000	-1,619	-5,463
-55,490	436,690	1,272	1,996
-54,476	800,000	5,221	11,251
-53,461	-200,000	22,679	348,837
-52,446	800,000	763,426	2279,377
-51,432	504,332	1645,041	2742,205
-50,417	94,677	1604,106	1307,937
-49,403	62,797	1261,454	904,226
-48,388	22,009	1013,397	591,545
-47,373	18,972	980,895	562,572
-46,359	12,422	967,829	533,721
-45,344	8,153	964,736	518,069
-44,330	8,614	962,538	518,370
-43,315	7,621	960,854	514,212
-42,300	7,592	959,730	513,494
-41,286	7,578	958,777	512,918
-40,271	7,605	957,712	512,416
-39,257	7,632	956,742	511,965
-38,242	7,536	956,096	511,288
-37,227	7,554	955,337	510,918
-36,213	7,538	954,431	510,362
-35,198	7,530	953,576	509,860
-34,184	7,598	952,708	509,595
-33,169	7,508	951,832	508,816
-32,154	7,569	951,092	508,597
-31,140	7,576	950,068	508,051
-30,125	7,584	949,403	507,702
-29,111	7,565	948,712	507,250
-28,096	7,569	948,039	506,885
-27,082	7,565	947,458	506,541
-26,067	7,488	946,607	505,818
-25,052	7,523	945,825	505,493
-24,038	7,478	945,028	504,902
-23,023	7,489	944,647	504,714
-22,009	7,571	943,735	504,468
-20,994	7,575	943,033	504,086
-19,979	7,511	942,692	503,680
-18,965	7,531	941,963	503,334
-17,950	7,593	941,239	503,124
-16,936	7,486	940,681	502,465
-15,921	7,517	939,980	502,168
-14,906	7,451	939,315	501,584
-13,892	7,419	938,643	501,105
-12,877	7,367	938,236	500,703
-11,863	7,383	937,463	500,321
-10,848	7,433	936,853	500,135
-9,833	7,544	936,420	500,235
-8,819	7,475	935,857	499,695
-7,804	7,434	935,149	499,167
-6,790	7,429	934,784	498,938
-5,775	7,548	933,909	498,828
-4,760	7,539	933,287	498,445
-3,746	7,504	932,817	498,065
-2,731	7,356	932,062	497,174
-1,717	7,312	931,498	496,715
-0,702	7,281	930,826	496,240
0,313	7,125	930,152	496,138
1,327	10,440	927,737	505,215
2,342	18,923	775,783	444,588
3,356	13,892	445,097	247,527
4,371	-12,233	310,748	145,183
5,386	-15,945	293,387	133,327
6,400	-18,071	287,210	128,414
7,415	-18,079	284,512	127,188
8,429	-18,897	282,963	125,690
9,444	-18,923	281,947	125,202
10,459	-18,654	281,352	125,187
11,473	-18,806	280,808	124,787
12,488	-18,705	280,184	124,595
13,502	-18,755	279,667	124,307
14,517	-18,630	279,350	124,275
15,531	-18,571	279,024	124,176
16,546	-18,521	278,640	124,041
17,561	-18,504	277,992	123,758
18,575	-18,536	277,947	123,696
19,590	-18,570	277,466	123,438
20,604	-18,250	277,134	123,584
21,619	-18,505	276,785	123,175
22,634	-18,566	276,515	122,987
23,648	-18,514	276,170	122,871
24,663	-18,464	275,906	122,790
25,677	-18,404	275,707	122,747
26,692	-18,422	275,528	122,639
27,707	-18,546	275,216	122,373
28,721	-18,439	274,712	122,239
29,736	-18,430	274,587	122,181
30,750	-18,517	274,331	121,974
31,765	-18,490	274,204	121,931
32,780	-18,361	273,727	121,830
33,794	-18,339	273,545	121,759
34,809	-18,431	273,174	121,497
35,823	-18,387	273,151	121,517
36,838	-18,570	272,710	121,138
37,853	-18,492	272,487	121,102
38,867	-18,415	272,141	121,008
39,882	-18,400	272,099	120,993
40,896	-18,412	271,808	120,842
41,911	-18,567	271,628	120,608
42,926	-18,484	271,356	120,553
43,940	-18,347	270,927	120,478
44,955	-18,568	270,905	120,253
45,969	-18,410	270,667	120,283
46,984	-18,303	270,413	120,258
47,999	-18,273	270,323	120,235
49,013	-18,090	269,974	120,238
50,028	-18,135	269,769	120,094
51,042	-18,304	269,694	119,895
52,057	-18,248	269,198	119,715
53,071	-18,309	269,213	119,654
54,086	-18,283	269,030	119,587
55,101	-18,269	268,727	119,454
56,115	-18,315	268,550	119,323
57,130	-18,396	268,230	119,095
58,144	-18,505	267,993	118,880
59,159	-18,562	267,556	118,624
60,174	-18,436	267,344	118,634
61,188	-18,534	267,246	118,491
62,203	-18,363	267,014	118,533
63,217	-18,382	266,817	118,418
64,232	-18,336	266,530	118,321
65,247	-18,337	266,145	118,139
66,261	-18,587	266,016	117,845
67,276	-18,335	265,698	117,922
68,290	-18,391	265,544	117,792
69,305	-18,478	265,549	117,705
70,320	-18,394	265,257	117,641
71,334	-18,409	265,079	117,538
72,349	-18,353	264,749	117,432
73,363	-18,417	264,365	117,193
74,378	-18,403	264,116	117,085
75,393	-18,594	264,119	116,904
76,407	-18,451	263,904	116,927
77,422	-18,377	263,589	116,844
78,436	-18,291	263,432	116,841
79,451	-18,426	263,098	116,561
80,466	-18,590	262,834	116,287
81,480	-18,469	262,701	116,326
82,495	-18,364	262,409	116,280
83,509	-18,354	262,382	116,267
84,524	-18,279	262,018	116,162
85,539	-18,348	261,852	116,017
86,553	-18,277	261,698	116,001
87,568	-18,318	261,433	115,837
88,582	-18,308	261,173	115,720
89,597	-18,363	260,955	115,564
90,611	-18,202	260,824	115,639
91,626	-18,330	260,705	115,463
92,641	-18,430	260,427	115,240
93,655	-18,436	260,151	115,103
94,670	-18,313	260,001	115,134
95,684	-18,439	259,882	114,960
96,699	-18,420	259,646	114,862
97,714	-18,499	259,425	114,684
98,728	-18,267	259,192	114,776
99,743	-18,148	258,970	114,773
100,757	-18,300	258,709	114,513
101,772	-18,209	258,558	114,515
102,787	-18,506	258,338	114,147
103,801	-18,370	258,138	114,168
104,816	-18,477	258,111	114,052
105,830	-18,370	257,793	113,995
106,845	-18,331	257,556	113,914
107,860	-18,325	257,331	113,810
108,874	-18,493	257,174	113,584
109,889	-18,436	256,811	113,463
110,903	-18,253	256,586	113,513
111,918	-18,344	256,438	113,357
112,933	-18,226	256,247	113,366
113,947	-18,261	256,131	113,274
114,962	-18,237	255,794	113,136
115,976	-18,494	255,896	112,948
116,991	-18,455	255,438	112,769
118,006	-18,483	255,452	112,741
119,020	-18,269	255,131	112,775
120,035	-18,396	255,050	112,618
121,049	-18,531	254,758	112,363
122,064	-18,464	254,504	112,299
123,079	-18,466	254,407	112,244
124,093	-18,236	254,208	112,345
125,108	-18,379	254,080	112,155
126,122	-18,326	253,875	112,100
127,137	-18,289	253,639	112,018
128,151	-18,244	253,491	111,981
129,166	-18,135	253,181	111,928
130,181	-18,405	253,025	111,617
131,195	-18,077	252,828	111,802
132,210	-18,328	252,646	111,496
133,224	-18,178	252,293	111,459
134,239	-18,515	252,201	111,120
135,254	-18,382	251,992	111,131
136,268	-18,091	251,779	111,277
137,283	-17,999	251,495	111,220
138,297	-18,313	251,529	110,956
139,312	-18,473	251,307	110,713
140,327	-18,366	251,066	110,688
141,341	-18,196	250,875	110,738
142,356	-18,402	250,754	110,499
143,370	-18,367	250,328	110,331
144,385	-18,244	250,254	110,393
145,400	-18,308	250,105	110,263
146,414	-18,328	249,777	110,092
147,429	-18,322	249,676	110,043
148,443	-18,188	249,403	110,026
149,458	-18,373	249,328	109,827
150,473	-18,345	249,084	109,734
151,487	-18,296	248,867	109,670
152,502	-18,210	248,652	109,637
153,516	-18,406	248,556	109,420
154,531	-18,519	248,338	109,220
155,546	-18,442	248,179	109,204
156,560	-18,317	248,010	109,225
157,575	-18,320	247,737	109,093
158,589	-18,248	247,587	109,077
159,604	-18,359	247,204	108,806
160,619	-18,301	247,117	108,806
161,633	-18,341	247,010	108,717
162,648	-18,105	246,831	108,825
163,662	-18,278	246,842	108,675
164,677	-18,233	246,627	108,609
165,692	-18,224	246,460	108,533
166,706	-18,269	246,111	108,333
167,721	-18,249	246,046	108,310
168,735	-18,310	245,917	108,194
169,750	-18,486	245,776	107,976
170,764	-18,446	245,723	107,975
171,779	-18,430	245,498	107,881
172,794	-18,270	245,146	107,849
173,808	-18,320	245,019	107,742
174,823	-18,105	244,799	107,813
175,837	-18,048	244,790	107,848
176,852	-18,152	244,501	107,624
177,867	-18,242	244,360	107,478
178,881	-18,129	244,272	107,523
179,896	-18,287	244,189	107,347
180,910	-18,341	243,759	107,104
181,925	-18,321	243,544	107,016
182,940	-18,205	243,447	107,059
183,954	-18,292	243,245	106,890
184,969	-18,118	243,010	106,920
185,983	-18,028	242,923	106,946
186,998	-18,370	242,819	106,610
188,013	-18,128	242,609	106,706
189,027	-18,329	242,272	106,384
190,042	-18,253	242,216	106,412
191,056	-18,340	242,066	106,266
192,071	-18,184	241,787	106,261
193,086	-18,515	241,634	105,914
194,100	-18,351	241,332	105,906
195,115	-18,124	241,309	106,072
196,129	-18,243	241,216	105,924
197,144	-18,293	241,049	105,801
198,159	-18,283	240,675	105,636
199,173	-18,315	240,545	105,543
200,188	-18,435	240,412	105,378
201,202	-18,125	240,130	105,496
202,217	-18,087	240,018	105,468
203,232	-18,020	239,793	105,414
204,246	-18,323	239,564	105,060
205,261	-18,536	239,288	104,757
206,275	-17,100	239,726	106,100
207,290	-12,813	241,412	110,321
208,304	-5,963	243,589	116,915
209,319	-2,307	244,616	120,396
210,334	-1,027	244,974	121,612
211,348	-0,306	245,037	122,223
212,363	-0,025	244,988	122,418
213,377	0,201	244,853	122,524
214,392	0,569	244,840	122,808
215,407	0,868	244,809	123,026
216,421	1,208	244,650	123,213
217,436	0,938	244,547	122,930
218,450	0,978	244,494	122,925
219,465	1,189	244,171	122,924
220,480	1,239	244,090	122,912
221,494	1,084	243,862	122,660
222,509	0,702	243,414	122,114
223,523	0,753	243,219	122,046
224,538	0,519	243,038	121,755
225,553	0,460	242,975	121,665
226,567	0,488	242,844	121,610
227,582	0,588	242,608	121,563
228,596	0,398	242,497	121,343
229,611	0,596	242,344	121,415
230,626	0,576	242,059	121,245
231,640	0,316	242,022	121,006
232,655	0,189	241,781	120,772
233,669	0,391	241,697	120,883
234,684	0,321	241,495	120,714
235,699	0,461	241,551	120,844
236,713	0,672	241,170	120,813
237,728	0,306	240,957	120,401
238,742	0,436	240,935	120,484
239,757	0,529	240,848	120,504
240,772	0,266	240,612	120,164
241,786	0,442	240,291	120,135
242,801	0,454	240,187	120,082
243,815	0,578	240,044	120,098
244,830	0,453	240,033	119,982
245,844	0,567	239,710	119,901
246,859	0,480	239,549	119,740
247,874	0,605	239,399	119,754
248,888	0,627	239,230	119,677
249,903	0,611	239,084	119,581
250,917	0,616	239,064	119,564
251,932	0,519	238,978	119,432
252,947	0,410	238,754	119,223
253,961	0,477	238,608	119,193
254,976	0,659	238,384	119,215
255,990	0,423	238,248	118,950
257,005	0,557	238,169	119,006
258,020	0,537	237,880	118,835
259,034	0,631	237,679	118,798
260,049	0,403	237,577	118,556
261,063	0,411	237,457	118,492
262,078	0,645	237,129	118,502
263,093	0,589	237,233	118,499
264,107	0,745	236,967	118,479
265,122	0,680	236,766	118,317
266,136	0,633	236,641	118,207
267,151	0,580	236,571	118,120
268,166	0,621	236,303	118,008
269,180	0,590	236,222	117,933
270,195	0,545	236,210	117,881
271,209	0,392	236,047	117,668
272,224	0,527	235,849	117,665
273,239	0,372	235,562	117,390
274,253	0,497	235,473	117,433
275,268	0,760	235,209	117,496
276,282	0,430	235,162	117,205
277,297	0,391	235,095	117,130
278,312	0,528	234,795	117,077
279,326	0,628	234,751	117,122
280,341	0,539	234,639	116,987
281,355	0,809	234,379	117,057
282,370	0,539	234,348	116,821
283,384	0,538	234,192	116,733
284,399	0,478	233,994	116,577
285,414	0,429	233,872	116,467
286,428	0,561	233,602	116,425
287,443	0,598	233,640	116,462
288,457	0,538	233,461	116,316
289,472	0,691	233,241	116,314
290,487	0,541	233,106	116,121
291,501	0,469	232,986	115,995
292,516	0,344	232,843	115,817
293,530	0,488	232,748	115,871
294,545	0,581	232,507	115,811
295,560	0,568	232,379	115,728
296,574	0,667	232,275	115,742
297,589	0,848	231,971	115,720
298,603	0,722	231,895	115,574
299,618	0,715	231,807	115,515
300,633	0,790	231,579	115,448
301,647	0,766	231,463	115,361
302,662	0,612	231,402	115,203
303,676	0,780	231,229	115,236
304,691	0,611	231,084	115,024
305,706	0,572	230,812	114,848
306,720	0,890	230,721	115,036
307,735	0,798	230,477	114,833
308,749	0,783	230,534	114,840
309,764	1,033	230,287	114,897
310,779	0,870	230,201	114,720
311,793	0,910	230,141	114,710
312,808	0,781	229,818	114,441
313,822	0,775	229,640	114,338
314,837	0,936	229,376	114,318
315,852	0,735	229,385	114,160
316,866	0,884	229,389	114,265
317,881	0,908	229,205	114,181
318,895	0,885	228,895	113,999
319,910	0,884	228,740	113,911
320,925	0,898	228,683	113,883
321,939	0,753	228,558	113,701
322,954	0,838	228,441	113,697
323,968	0,989	228,298	113,730
324,983	0,798	228,151	113,502
325,997	0,978	227,927	113,517
327,012	0,634	227,823	113,195
328,027	0,773	227,543	113,150
329,041	0,881	227,581	113,240
330,056	0,918	227,459	113,197
331,070	1,063	227,243	113,189
332,085	0,728	227,174	112,893
333,100	0,901	226,933	112,893
334,114	0,893	226,867	112,844
335,129	0,743	226,656	112,616
336,143	0,598	226,617	112,478
337,158	0,908	226,364	112,575
338,173	1,100	226,240	112,647
339,187	1,048	226,116	112,536
340,202	0,872	226,050	112,362
341,216	0,855	225,830	112,229
342,231	0,940	225,652	112,195
343,246	0,978	225,568	112,171
344,260	0,711	225,340	111,849
345,275	1,177	225,187	112,109
346,289	0,983	225,150	111,937
347,304	1,130	224,954	111,939
348,319	0,767	224,868	111,617
349,333	0,965	224,549	111,595
350,348	0,841	224,645	111,541
351,362	1,206	224,304	111,632
352,377	1,026	224,147	111,410
353,392	1,066	224,005	111,360
354,406	1,198	223,901	111,396
355,421	192,125	1311,105	1376,197
356,435	153,849	1443,424	1376,041
