DTS Sentinel unit serial number:	SN410029Multiplexer serial number:	ORYXHardware model number:	OX2-SRSoftware version number:	ORYX F/W v4,00 Oryx Data Collector v3.7.2.0data status	okinstallation	B5 Nyhavnadifferential loss correction	single-endedforward channel	channel 2reverse channel	N/Adate	2023/12/11time	17:27:13forward acquisition time	300,00reverse acquisition time	0,00gamma	499,1914k internal	0,3163k external	0,3163temperature offset calibration	1,0000default loss term (dB/km)	0,3820temperature slope calibration	1,0000multiplexer offset coefficient	1,0000multiplexer slope coefficient	1,0000fibre end	0,00T internal ref (°C)	14,68T ext. ref 1 (°C)	-0,65T ext. ref 2 (°C)	-0,84length (m)	temperature (°C)	Stokes	anti-Stokes-744,400	-200,000	0,006	-0,065
-743,385	-75,082	-0,254	0,066
-742,371	499,454	0,050	0,085
-741,356	12,299	-0,181	0,103
-740,342	-200,000	-0,012	0,159
-739,327	-154,005	-0,298	0,015
-738,312	-38,377	0,099	0,038
-737,298	-139,191	-0,301	-0,024
-736,283	-200,000	-0,021	-0,086
-735,269	-94,544	-0,315	0,063
-734,254	-99,391	0,105	0,019
-733,239	10,150	-0,459	-0,256
-732,225	-80,911	0,159	-0,038
-731,210	-200,000	-0,002	0,007
-730,196	-200,000	-0,003	0,062
-729,181	-200,000	0,006	-0,103
-728,167	-200,000	-0,002	-0,080
-727,152	-38,120	-0,195	0,076
-726,137	598,727	-0,069	-0,126
-725,123	-52,979	-0,089	-0,030
-724,108	174,995	-0,146	-0,156
-723,094	649,590	-0,018	-0,035
-722,079	-151,854	-0,105	-0,006
-721,064	-138,551	-0,064	-0,005
-720,050	156,544	-0,109	-0,111
-719,035	36,349	-0,161	0,104
-718,021	-89,304	-0,085	-0,018
-717,006	800,000	-0,026	-0,055
-715,991	2,389	0,024	-0,012
-714,977	366,088	-0,108	-0,160
-713,962	-136,635	0,114	0,010
-712,948	43,307	-0,076	-0,051
-711,933	-18,184	0,069	-0,032
-710,918	118,016	-0,075	-0,068
-709,904	-200,000	0,027	0,139
-708,889	-99,630	-0,054	-0,010
-707,875	605,371	-0,064	-0,118
-706,860	130,397	-0,080	0,076
-705,845	-200,000	0,043	0,148
-704,831	-162,541	-0,076	-0,003
-703,816	496,708	0,062	-0,105
-702,802	800,000	-0,039	-0,083
-701,787	42,437	-0,091	-0,061
-700,772	378,918	0,086	-0,130
-699,758	-66,733	0,018	0,005
-698,743	-62,290	-0,049	0,015
-697,729	-200,000	-0,001	0,084
-696,714	-45,638	0,025	0,009
-695,699	80,215	-0,073	-0,058
-694,685	-19,889	-0,098	-0,044
-693,670	396,939	-0,061	-0,095
-692,656	800,000	0,042	0,114
-691,641	800,000	0,044	0,112
-690,627	495,324	0,088	0,149
-689,612	-200,000	-0,009	0,063
-688,597	800,000	-0,052	-0,124
-687,583	800,000	-0,007	-0,021
-686,568	104,681	-0,086	-0,074
-685,554	13,047	-0,218	-0,123
-684,539	-151,534	0,037	-0,002
-683,524	229,936	0,062	-0,074
-682,510	-4,658	-0,113	0,057
-681,495	151,685	-0,026	0,026
-680,481	130,758	-0,061	-0,057
-679,466	-175,064	0,100	-0,002
-678,451	-200,000	0,001	-0,015
-677,437	467,982	-0,046	0,076
-676,422	-200,000	0,019	0,062
-675,408	497,448	-0,033	0,055
-674,393	-105,864	-0,065	-0,011
-673,378	36,242	-0,096	0,062
-672,364	-48,189	-0,079	-0,028
-671,349	201,885	-0,024	-0,027
-670,335	-55,769	0,058	0,019
-669,320	136,869	0,133	0,127
-668,305	-170,702	-0,073	0,002
-667,291	-78,179	-0,058	-0,014
-666,276	800,000	0,026	-0,058
-665,262	-27,030	-0,055	0,023
-664,247	80,653	-0,201	-0,159
-663,232	29,921	0,117	-0,073
-662,218	-148,336	0,032	0,002
-661,203	683,905	-0,068	0,132
-660,189	-196,729	-0,119	-0,001
-659,174	-2,457	0,115	-0,059
-658,159	224,727	0,066	-0,078
-657,145	33,036	-0,040	0,025
-656,130	403,546	0,038	0,059
-655,116	152,448	0,035	-0,035
-654,101	-6,676	0,052	0,026
-653,086	53,781	0,122	-0,086
-652,072	240,614	-0,051	-0,062
-651,057	-200,000	-0,008	-0,064
-650,043	170,522	-0,098	-0,103
-649,028	263,965	-0,034	0,044
-648,014	800,000	-0,039	0,120
-646,999	357,378	-0,091	0,133
-645,984	441,575	-0,054	0,087
-644,970	800,000	-0,028	-0,060
-643,955	-200,000	-0,008	0,091
-642,941	-50,969	0,019	-0,007
-641,926	-200,000	-0,017	-0,118
-640,911	800,000	-0,074	-0,155
-639,897	-73,274	-0,106	0,028
-638,882	398,095	0,041	0,064
-637,868	-144,794	-0,118	-0,008
-636,853	800,000	0,021	-0,051
-635,838	800,000	0,014	-0,042
-634,824	-132,705	-0,138	0,013
-633,809	-77,993	0,127	0,032
-632,795	9,058	0,071	-0,039
-631,780	-96,201	0,080	-0,015
-630,765	154,890	-0,072	-0,072
-629,751	-200,000	-0,005	0,025
-628,736	-112,975	0,080	0,011
-627,722	800,000	0,009	-0,020
-626,707	-200,000	0,021	-0,082
-625,692	800,000	0,027	0,076
-624,678	-84,166	0,159	0,037
-623,663	-200,000	0,041	0,155
-622,649	-200,000	-0,004	-0,048
-621,634	587,071	-0,063	-0,114
-620,619	229,354	-0,017	0,020
-619,605	-29,212	0,114	-0,047
-618,590	-196,194	-0,099	-0,000
-617,576	-108,449	0,053	-0,008
-616,561	-200,000	0,026	0,139
-615,546	140,495	-0,083	0,080
-614,532	-95,098	0,102	-0,020
-613,517	-200,000	-0,016	0,141
-612,503	26,331	-0,028	0,017
-611,488	62,434	-0,041	0,030
-610,474	-200,000	0,012	-0,062
-609,459	491,762	0,018	-0,030
-608,444	99,632	0,045	-0,038
-607,430	29,515	0,071	-0,044
-606,415	-200,000	-0,037	-0,123
-605,401	169,099	0,083	-0,087
-604,386	-200,000	-0,034	0,123
-603,371	223,638	0,056	0,066
-602,357	87,653	0,033	-0,026
-601,342	-200,000	0,011	0,058
-600,328	596,189	-0,065	-0,118
-599,313	340,765	-0,028	0,040
-598,298	800,000	-0,036	0,110
-597,284	188,404	-0,051	0,055
-596,269	-75,015	0,113	-0,029
-595,255	800,000	-0,037	0,096
-594,240	800,000	0,017	-0,049
-593,225	385,800	-0,042	-0,064
-592,211	800,000	-0,046	-0,129
-591,196	-200,000	-0,001	-0,110
-590,182	-56,840	0,115	0,037
-589,167	-200,000	-0,007	0,091
-588,152	-81,497	0,079	-0,019
-587,138	-200,000	-0,022	0,104
-586,123	-200,000	-0,009	-0,050
-585,109	-200,000	0,002	-0,009
-584,094	-21,151	-0,066	-0,029
-583,079	122,347	0,072	0,066
-582,065	-200,000	0,006	0,022
-581,050	-13,524	-0,037	0,018
-580,036	-200,000	0,014	0,189
-579,021	-84,771	0,262	-0,060
-578,006	-66,928	-0,028	-0,008
-576,992	-200,000	-0,005	0,028
-575,977	800,000	-0,046	-0,146
-574,963	567,277	0,048	-0,085
-573,948	198,624	0,071	0,080
-572,934	-200,000	-0,080	-0,000
-571,919	800,000	-0,010	0,029
-570,904	-200,000	-0,012	-0,093
-569,890	-200,000	-0,017	-0,058
-568,875	66,887	0,065	-0,048
-567,861	-56,928	0,064	0,021
-566,846	399,288	-0,070	0,107
-565,831	-65,025	-0,111	0,033
-564,817	-200,000	-0,006	-0,040
-563,802	567,813	-0,021	-0,038
-562,788	-200,000	0,022	-0,105
-561,773	244,151	0,068	0,084
-560,758	-80,913	-0,068	-0,016
-559,744	-200,000	-0,005	0,030
-558,729	44,846	0,041	0,027
-557,715	-200,000	-0,026	-0,219
-556,700	161,768	0,019	-0,019
-555,685	-70,583	-0,150	-0,041
-554,671	-200,000	0,010	0,092
-553,656	-30,589	-0,119	0,049
-552,642	469,871	0,067	0,111
-551,627	29,676	-0,113	0,070
-550,612	52,470	0,165	-0,115
-549,598	151,529	-0,090	-0,090
-548,583	-200,000	0,029	-0,104
-547,569	128,181	0,051	0,048
-546,554	672,545	0,087	0,165
-545,539	243,826	0,070	0,085
-544,525	800,000	-0,060	0,156
-543,510	-200,000	-0,013	0,092
-542,496	646,225	0,045	-0,085
-541,481	-127,266	-0,118	-0,012
-540,466	56,145	-0,026	-0,018
-539,452	-200,000	0,013	-0,221
-538,437	-51,687	-0,033	-0,011
-537,423	225,955	-0,066	0,079
-536,408	-53,906	0,106	0,035
-535,393	-32,484	-0,051	0,021
-534,379	-158,193	-0,152	0,006
-533,364	393,137	-0,046	0,070
-532,350	-200,000	-0,038	0,138
-531,335	-58,172	0,124	0,039
-530,321	46,569	0,124	0,084
-529,306	-157,938	0,027	0,001
-528,291	-91,101	-0,008	-0,002
-527,277	-86,510	-0,111	-0,025
-526,262	45,354	-0,075	0,050
-525,248	-8,086	-0,083	-0,040
-524,233	609,780	0,036	-0,065
-523,218	-200,000	0,001	0,095
-522,204	-200,000	0,001	-0,022
-521,189	257,999	0,065	-0,082
-520,175	-31,844	-0,159	-0,065
-519,160	664,145	-0,060	0,113
-518,145	-200,000	0,006	0,039
-517,131	-158,656	0,093	-0,004
-516,116	-200,000	0,003	0,009
-515,102	34,345	-0,016	-0,010
-514,087	543,024	0,025	-0,043
-513,072	-6,414	0,096	-0,048
-512,058	143,426	-0,071	-0,069
-511,043	-0,873	-0,072	-0,037
-510,029	-200,000	0,022	0,082
-509,014	800,000	0,014	0,038
-507,999	21,908	-0,105	0,063
-506,985	270,451	-0,022	0,028
-505,970	-18,416	-0,054	-0,025
-504,956	-200,000	0,038	-0,153
-503,941	25,316	-0,091	0,055
-502,926	-200,000	0,002	0,036
-501,912	-200,000	0,011	0,054
-500,897	272,209	0,074	0,096
-499,883	59,233	-0,180	0,129
-498,868	171,670	0,040	-0,042
-497,853	-37,333	0,049	0,019
-496,839	-118,824	-0,124	-0,016
-495,824	-200,000	-0,013	0,060
-494,810	-153,645	0,126	-0,006
-493,795	601,521	-0,016	0,028
-492,781	87,580	0,008	-0,006
-491,766	-18,720	-0,040	0,018
-490,751	-200,000	0,002	-0,092
-489,737	160,868	0,004	0,005
-488,722	-200,000	0,019	0,071
-487,708	354,909	0,028	0,041
-486,693	800,000	0,018	0,050
-485,678	-200,000	0,016	-0,056
-484,664	35,640	0,088	-0,056
-483,649	103,231	-0,124	-0,106
-482,635	-93,311	0,137	0,027
-481,620	-132,016	-0,116	0,011
-480,605	800,000	-0,019	-0,041
-479,591	800,000	-0,022	-0,047
-478,576	-112,396	-0,136	0,020
-477,562	-35,224	-0,071	0,028
-476,547	-200,000	-0,005	-0,101
-475,532	31,116	0,058	0,036
-474,518	-200,000	0,005	0,066
-473,503	-171,076	0,041	-0,001
-472,489	-162,815	0,070	-0,002
-471,474	113,204	-0,057	0,050
-470,459	-200,000	0,002	-0,010
-469,445	153,993	-0,106	-0,106
-468,430	-14,783	0,031	0,015
-467,416	17,572	-0,026	0,015
-466,401	-200,000	0,004	0,050
-465,386	-116,726	-0,117	0,016
-464,372	-107,025	0,041	0,007
-463,357	108,483	-0,073	0,063
-462,343	-200,000	0,017	-0,076
-461,328	229,543	-0,050	0,060
-460,313	-4,260	0,056	0,028
-459,299	238,638	0,051	0,062
-458,284	112,915	-0,024	-0,022
-457,270	-200,000	0,037	-0,126
-456,255	-200,000	0,040	-0,131
-455,241	-64,306	0,040	0,012
-454,226	31,608	-0,129	0,081
-453,211	162,597	0,129	-0,132
-452,197	800,000	0,043	-0,107
-451,182	622,157	-0,050	-0,091
-450,168	-47,089	0,120	0,042
-449,153	800,000	-0,061	-0,146
-448,138	-200,000	0,008	0,044
-447,124	-107,785	-0,076	0,012
-446,109	418,352	-0,054	-0,084
-445,095	-118,004	0,087	-0,011
-444,080	187,748	-0,060	0,065
-443,065	-140,764	-0,132	-0,010
-442,051	800,000	-0,013	0,038
-441,036	432,173	-0,044	-0,070
-440,022	-77,532	-0,068	0,017
-439,007	76,680	0,133	-0,102
-437,992	-200,000	-0,034	0,150
-436,978	59,943	-0,037	-0,026
-435,963	-37,854	-0,104	-0,040
-434,949	-178,824	-0,122	-0,002
-433,934	800,000	-0,038	-0,085
-432,919	56,245	-0,021	0,015
-431,905	-31,004	0,008	-0,003
-430,890	-200,000	0,005	0,128
-429,876	317,717	0,024	-0,033
-428,861	238,852	0,079	-0,096
-427,846	800,000	-0,038	-0,083
-426,832	221,689	-0,062	0,073
-425,817	-200,000	-0,004	-0,047
-424,803	-200,000	-0,005	-0,154
-423,788	800,000	-0,060	-0,122
-422,773	800,000	-0,027	0,086
-421,759	-37,363	0,043	-0,016
-420,744	-200,000	-0,037	0,130
-419,730	-79,735	0,140	-0,034
-418,715	-200,000	0,006	0,075
-417,701	460,852	-0,037	0,060
-416,686	-200,000	-0,019	0,130
-415,671	-200,000	-0,014	0,158
-414,657	92,406	-0,021	-0,017
-413,642	-30,011	0,123	-0,051
-412,628	-11,007	-0,018	0,009
-411,613	19,206	-0,045	-0,026
-410,598	-11,761	0,099	-0,047
-409,584	-200,000	-0,021	-0,130
-408,569	202,590	0,068	0,077
-407,555	69,421	-0,060	0,045
-406,540	800,000	-0,052	0,119
-405,525	53,787	0,012	0,008
-404,511	-200,000	-0,012	0,061
-403,496	115,169	-0,056	-0,050
-402,482	-9,012	-0,030	-0,014
-401,467	800,000	-0,015	0,031
-400,452	-200,000	-0,010	-0,096
-399,438	230,728	0,044	-0,052
-398,423	93,447	-0,080	-0,066
-397,409	217,685	-0,072	-0,083
-396,394	-149,269	-0,076	-0,004
-395,379	800,000	0,060	-0,135
-394,365	75,099	0,030	0,023
-393,350	-200,000	0,018	-0,083
-392,336	-10,396	0,128	0,061
-391,321	800,000	-0,020	0,044
-390,306	-50,948	-0,117	0,040
-389,292	19,660	0,096	0,056
-388,277	-97,202	0,090	0,017
-387,263	599,943	-0,076	0,137
-386,248	125,730	0,105	-0,096
-385,233	-200,000	-0,037	0,128
-384,219	353,395	0,064	0,092
-383,204	215,227	0,041	-0,048
-382,190	-200,000	0,017	-0,057
-381,175	114,957	-0,078	-0,069
-380,160	727,805	0,052	-0,100
-379,146	18,080	-0,056	0,032
-378,131	-99,262	-0,027	-0,005
-377,117	69,801	0,104	0,078
-376,102	-29,823	-0,123	0,051
-375,088	147,699	0,101	-0,099
-374,073	-32,998	-0,034	0,014
-373,058	120,533	-0,035	-0,031
-372,044	800,000	-0,051	-0,111
-371,029	-200,000	-0,023	0,098
-370,015	310,603	0,081	-0,111
-369,000	800,000	-0,017	-0,044
-367,985	-49,841	-0,050	-0,017
-366,971	-200,000	0,002	-0,042
-365,956	800,000	0,022	-0,048
-364,942	38,180	-0,029	-0,019
-363,927	-49,940	-0,134	-0,046
-362,912	481,521	0,054	0,090
-361,898	800,000	0,007	0,020
-360,883	-200,000	0,016	-0,105
-359,869	800,000	-0,048	-0,114
-358,854	-50,074	0,095	0,032
-357,839	37,423	-0,038	0,024
-356,825	124,346	-0,012	0,011
-355,810	90,309	0,069	-0,056
-354,796	-122,962	-0,133	-0,015
-353,781	-200,000	-0,020	-0,103
-352,766	-200,000	0,035	-0,160
-351,752	585,668	0,030	-0,054
-350,737	135,157	0,040	0,038
-349,723	-118,390	0,122	0,016
-348,708	97,753	0,112	0,093
-347,693	800,000	0,023	-0,059
-346,679	800,000	-0,040	-0,119
-345,664	-200,000	0,017	-0,066
-344,650	97,054	0,048	-0,040
-343,635	-64,429	0,059	0,017
-342,620	-108,088	0,036	-0,006
-341,606	-149,300	0,035	-0,002
-340,591	-200,000	0,006	0,096
-339,577	227,252	-0,006	-0,007
-338,562	-200,000	-0,002	0,014
-337,548	-93,213	-0,149	0,030
-336,533	-200,000	-0,024	-0,215
-335,518	196,589	-0,096	-0,106
-334,504	-155,487	-0,088	-0,004
-333,489	-146,365	0,002	-0,000
-332,475	-179,627	-0,095	0,001
-331,460	724,956	-0,023	0,045
-330,445	239,808	-0,024	-0,029
-329,431	-200,000	-0,002	0,016
-328,416	132,180	0,089	-0,083
-327,402	251,814	-0,121	0,150
-326,387	494,183	0,037	-0,062
-325,372	199,817	-0,031	-0,034
-324,358	535,871	0,007	0,012
-323,343	-200,000	0,010	0,061
-322,329	-200,000	-0,028	0,114
-321,314	-200,000	-0,006	-0,144
-320,299	-200,000	-0,001	0,023
-319,285	800,000	0,026	0,063
-318,270	434,992	0,044	0,069
-317,256	22,445	0,016	-0,010
-316,241	-154,521	0,067	-0,003
-315,226	103,698	-0,080	-0,068
-314,212	-16,273	0,044	0,020
-313,197	-200,000	-0,006	0,069
-312,183	-200,000	0,039	0,183
-311,168	526,766	0,028	-0,048
-310,153	207,166	0,047	-0,053
-309,139	574,690	0,029	-0,052
-308,124	89,973	0,068	-0,055
-307,110	-200,000	0,008	0,072
-306,095	-7,974	-0,064	-0,031
-305,080	-200,000	-0,001	0,083
-304,066	442,056	-0,042	0,066
-303,051	165,533	-0,065	-0,066
-302,037	40,729	-0,046	-0,030
-301,022	648,225	-0,075	0,140
-300,008	316,714	-0,023	-0,032
-298,993	743,648	-0,038	0,075
-297,978	56,460	0,056	0,040
-296,964	-168,306	0,130	0,004
-295,949	-67,261	-0,061	0,017
-294,935	-200,000	0,027	-0,122
-293,920	91,029	0,078	0,064
-292,905	45,455	-0,072	0,048
-291,891	-38,320	0,193	0,073
-290,876	-200,000	-0,014	-0,055
-289,862	24,692	0,058	0,035
-288,847	-108,980	-0,090	0,014
-287,832	-200,000	-0,003	-0,040
-286,818	800,000	0,055	-0,118
-285,803	-180,200	0,113	-0,002
-284,789	-39,210	-0,055	0,021
-283,774	-115,988	0,021	0,003
-282,759	-200,000	-0,004	0,057
-281,745	27,247	-0,086	-0,052
-280,730	-51,477	0,068	-0,023
-279,716	-27,296	0,047	0,019
-278,701	800,000	0,027	-0,055
-277,686	93,403	0,057	0,047
-276,672	579,288	-0,043	0,077
-275,657	-149,228	-0,088	0,005
-274,643	-135,096	0,108	0,009
-273,628	-34,142	-0,040	-0,016
-272,613	-159,231	0,064	0,003
-271,599	-86,290	0,114	0,025
-270,584	800,000	-0,038	0,115
-269,570	533,462	0,049	0,084
-268,555	184,575	0,093	0,099
-267,540	-33,037	-0,040	0,016
-266,526	-47,099	0,058	-0,020
-265,511	800,000	-0,026	0,056
-264,497	-49,321	0,103	0,035
-263,482	-200,000	0,012	0,041
-262,467	-144,038	0,155	0,010
-261,453	-51,747	0,051	-0,017
-260,438	-200,000	-0,001	0,073
-259,424	-94,107	-0,171	0,034
-258,409	182,449	0,041	0,043
-257,395	228,990	0,015	0,018
-256,380	526,584	0,038	-0,064
-255,365	800,000	-0,043	0,111
-254,351	417,154	-0,042	0,065
-253,336	43,235	0,072	-0,047
-252,322	-200,000	-0,016	-0,065
-251,307	469,227	-0,032	-0,051
-250,292	-110,775	0,105	0,016
-249,278	-81,895	0,010	-0,002
-248,263	-200,000	0,006	0,098
-247,249	-97,952	-0,059	-0,011
-246,234	349,377	0,105	-0,151
-245,219	-97,145	-0,039	-0,007
-244,205	800,000	-0,015	-0,047
-243,190	-200,000	0,015	0,063
-242,176	-130,036	0,103	0,010
-241,161	587,915	-0,025	0,044
-240,146	-200,000	0,011	0,109
-239,132	5,072	0,077	0,041
-238,117	502,611	-0,089	0,149
-237,103	200,398	-0,056	0,062
-236,088	-200,000	0,035	-0,117
-235,073	168,651	0,076	0,079
-234,059	397,070	0,079	0,119
-233,044	546,813	0,026	0,046
-232,030	77,887	-0,070	0,053
-231,015	-200,000	0,003	-0,009
-230,000	-200,000	-0,032	-0,134
-228,986	-105,147	-0,042	-0,007
-227,971	-200,000	-0,018	-0,059
-226,957	-200,000	0,000	0,083
-225,942	-143,573	-0,302	0,020
-224,927	557,251	-0,117	0,205
-223,913	-200,000	-0,006	-0,040
-222,898	-200,000	0,029	-0,107
-221,884	-200,000	0,009	-0,060
-220,869	20,599	0,074	0,043
-219,855	323,255	-0,033	0,046
-218,840	800,000	0,049	0,114
-217,825	-98,482	0,065	0,012
-216,811	94,855	-0,024	0,020
-215,796	397,292	-0,129	-0,195
-214,782	15,132	0,019	0,011
-213,767	-93,647	0,136	-0,027
-212,752	-123,473	0,116	0,013
-211,738	204,485	0,021	-0,023
-210,723	278,977	-0,066	-0,085
-209,709	-200,000	-0,010	-0,056
-208,694	-97,674	-0,098	-0,018
-207,679	-200,000	-0,017	-0,103
-206,665	-55,936	0,127	-0,041
-205,650	469,392	0,119	-0,193
-204,636	-200,000	-0,014	-0,061
-203,621	-200,000	-0,007	-0,183
-202,606	58,193	-0,075	-0,053
-201,592	91,232	0,202	-0,164
-200,577	144,952	-0,137	-0,132
-199,563	-200,000	-0,014	-0,059
-198,548	-54,732	-0,080	-0,026
-197,533	456,875	-0,021	-0,033
-196,519	-200,000	0,002	0,018
-195,504	-160,504	-0,079	0,003
-194,490	-29,987	0,052	0,021
-193,475	-200,000	0,000	-0,061
-192,460	-154,885	-0,045	0,002
-191,446	-200,000	0,011	-0,057
-190,431	800,000	0,045	-0,121
-189,417	341,011	0,040	0,056
-188,402	-102,687	-0,094	0,016
-187,387	272,831	0,063	0,080
-186,373	-200,000	-0,002	-0,037
-185,358	-150,530	0,044	-0,002
-184,344	-200,000	-0,016	0,091
-183,329	797,868	-0,023	0,047
-182,315	471,305	-0,058	0,094
-181,300	186,782	-0,032	0,034
-180,285	420,979	-0,069	0,107
-179,271	-200,000	-0,001	-0,031
-178,256	-108,177	0,196	0,030
-177,242	58,848	-0,165	0,117
-176,227	-29,452	-0,068	-0,028
-175,212	135,931	0,105	0,099
-174,198	227,971	-0,011	0,013
-173,183	-100,329	-0,104	0,018
-172,169	166,703	-0,032	-0,032
-171,154	-186,059	0,096	-0,001
-170,139	-74,834	0,123	0,031
-169,125	59,331	0,179	0,127
-168,110	-103,328	0,040	0,007
-167,096	284,809	0,057	-0,074
-166,081	-200,000	0,021	0,087
-165,066	596,571	-0,034	0,062
-164,052	-43,458	0,078	-0,028
-163,037	514,835	0,034	0,057
-162,023	-48,796	-0,073	-0,025
-161,008	4,539	0,152	-0,080
-159,993	297,523	-0,062	-0,083
-158,979	-200,000	-0,001	-0,048
-157,964	45,034	-0,126	0,084
-156,950	-183,214	-0,042	0,001
-155,935	425,904	0,011	-0,018
-154,920	132,266	0,087	-0,081
-153,906	800,000	0,021	0,043
-152,891	-102,059	0,053	0,009
-151,877	77,767	-0,056	-0,043
-150,862	-54,002	-0,057	-0,018
-149,847	-200,000	-0,018	0,156
-148,833	800,000	0,006	0,018
-147,818	70,172	-0,110	-0,082
-146,804	289,557	0,016	-0,021
-145,789	800,000	-0,033	0,067
-144,775	800,000	0,024	0,053
-143,760	-200,000	0,010	0,056
-142,745	-36,380	-0,131	0,050
-141,731	-118,356	0,104	-0,013
-140,716	-200,000	-0,006	0,089
-139,702	324,117	0,082	0,113
-138,687	459,667	-0,106	0,170
-137,672	-200,000	0,010	0,075
-136,658	23,463	-0,075	-0,045
-135,643	-116,652	-0,059	-0,008
-134,629	-200,000	0,020	0,073
-133,614	-39,318	0,073	0,027
-132,599	-98,269	0,075	-0,014
-131,585	-200,000	-0,012	0,071
-130,570	223,312	-0,113	0,132
-129,556	-135,055	-0,180	0,015
-128,541	-200,000	-0,012	0,051
-127,526	-68,983	0,180	0,049
-126,512	-71,696	-0,057	0,015
-125,497	504,902	0,016	0,027
-124,483	-200,000	-0,031	0,174
-123,468	78,440	0,027	0,020
-122,453	4,123	-0,093	-0,049
-121,439	-151,202	0,030	0,002
-120,424	-35,801	-0,137	0,053
-119,410	-200,000	-0,006	0,107
-118,395	-92,749	0,126	-0,025
-117,380	207,192	0,100	0,112
-116,366	114,486	0,069	-0,060
-115,351	-87,311	-0,097	-0,021
-114,337	22,765	0,105	0,062
-113,322	-86,638	-0,092	0,020
-112,307	219,315	-0,093	-0,107
-111,293	181,172	0,072	-0,076
-110,278	16,467	0,079	0,044
-109,264	-200,000	0,028	-0,149
-108,249	-145,274	0,085	-0,005
-107,234	-200,000	0,008	-0,063
-106,220	-181,403	-0,046	0,001
-105,205	-50,864	0,044	0,015
-104,191	422,028	0,073	-0,114
-103,176	-24,809	0,094	0,040
-102,162	-200,000	0,010	0,048
-101,147	-200,000	0,001	0,059
-100,132	-200,000	-0,004	-0,154
-99,118	-157,581	-0,058	0,002
-98,103	800,000	-0,036	-0,112
-97,089	750,956	0,058	0,114
-96,074	66,451	-0,025	0,018
-95,059	-83,304	-0,118	0,027
-94,045	-200,000	-0,009	-0,086
-93,030	-200,000	-0,009	0,084
-92,016	-129,906	-0,063	0,006
-91,001	800,000	-0,044	0,101
-89,986	458,832	-0,043	0,070
-88,972	95,925	-0,062	-0,051
-87,957	262,066	-0,038	-0,047
-86,943	418,699	-0,005	-0,007
-85,928	2,898	-0,098	0,051
-84,913	-10,709	0,043	-0,020
-83,899	15,891	0,137	0,077
-82,884	664,479	0,051	0,095
-81,870	62,384	0,142	0,101
-80,855	-200,000	0,057	0,203
-79,840	-20,088	0,105	0,046
-78,826	-48,291	-0,168	-0,058
-77,811	89,399	-0,065	-0,052
-76,797	333,668	-0,033	0,046
-75,782	327,743	0,048	-0,066
-74,767	36,691	0,108	-0,069
-73,753	800,000	-0,027	0,080
-72,738	116,602	0,143	0,126
-71,724	227,554	-0,057	-0,067
-70,709	42,825	-0,143	-0,093
-69,694	-1,073	-0,017	0,009
-68,680	133,456	0,093	0,086
-67,665	142,511	-0,130	0,123
-66,651	-200,000	0,043	0,207
-65,636	-168,220	-0,079	0,002
-64,622	395,741	-0,051	-0,077
-63,607	408,924	-0,036	0,055
-62,592	800,000	-0,047	0,097
-61,578	39,704	0,018	-0,012
-60,563	32,985	-0,174	0,108
-59,549	800,000	-0,029	0,075
-58,534	-13,352	-2,079	-0,963
-57,519	-200,000	-0,144	-0,909
-56,505	-200,000	-1,354	-5,056
-55,490	33,238	0,788	0,489
-54,476	800,000	5,375	12,136
-53,461	-200,000	17,776	293,421
-52,446	800,000	730,852	2241,507
-51,432	536,215	1647,312	2812,025
-50,417	108,737	1636,650	1400,696
-49,403	73,505	1287,271	964,591
-48,388	31,061	1027,374	629,692
-47,373	19,975	988,987	569,668
-46,359	18,090	976,651	556,372
-45,344	14,974	972,741	543,947
-44,330	15,284	971,123	544,034
-43,315	14,803	969,168	541,349
-42,300	14,701	968,303	540,510
-41,286	14,664	967,555	539,953
-40,271	14,668	966,370	539,282
-39,257	14,697	965,384	538,804
-38,242	14,740	964,540	538,451
-37,227	14,782	963,637	538,062
-36,213	14,669	962,832	537,226
-35,198	14,672	961,996	536,748
-34,184	14,762	961,372	536,669
-33,169	14,648	960,461	535,770
-32,154	14,733	959,424	535,447
-31,140	14,726	958,436	534,851
-30,125	14,742	957,847	534,553
-29,111	14,710	957,063	533,991
-28,096	14,768	956,290	533,725
-27,082	14,719	955,633	533,179
-26,067	14,692	954,869	532,646
-25,052	14,736	954,076	532,322
-24,038	14,684	953,668	531,906
-23,023	14,672	952,943	531,442
-22,009	14,680	952,249	531,062
-20,994	14,717	951,524	530,755
-19,979	14,739	950,904	530,459
-18,965	14,711	950,239	529,975
-17,950	14,704	949,584	529,565
-16,936	14,735	948,814	529,215
-15,921	14,675	948,227	528,676
-14,906	14,613	947,569	528,092
-13,892	14,597	947,041	527,726
-12,877	14,600	946,484	527,403
-11,863	14,567	945,752	526,870
-10,848	14,579	945,236	526,599
-9,833	14,759	944,470	526,724
-8,819	14,692	944,004	526,227
-7,804	14,631	943,310	525,627
-6,790	14,582	943,039	525,301
-5,775	14,680	942,231	525,140
-4,760	14,648	941,514	524,619
-3,746	14,632	940,834	524,168
-2,731	14,445	940,326	523,275
-1,717	14,481	939,562	522,943
-0,702	14,477	938,949	522,567
0,313	14,240	938,384	522,293
1,327	17,495	936,279	531,310
2,342	26,536	792,703	473,717
3,356	23,287	457,617	268,499
4,371	-3,604	313,933	155,696
5,386	-7,153	295,714	143,068
6,400	-9,354	289,913	138,070
7,415	-9,690	287,276	136,472
8,429	-10,079	285,979	135,464
9,444	-10,249	285,035	134,839
10,459	-10,051	284,230	134,639
11,473	-10,081	283,577	134,288
12,488	-10,124	283,220	134,065
13,502	-10,262	282,843	133,742
14,517	-10,273	282,148	133,390
15,531	-10,290	281,575	133,091
16,546	-10,370	281,291	132,869
17,561	-10,265	280,794	132,723
18,575	-10,283	280,348	132,483
19,590	-10,437	280,146	132,228
20,604	-10,300	279,879	132,221
21,619	-10,409	279,442	131,899
22,634	-10,560	279,095	131,580
23,648	-10,438	278,738	131,515
24,663	-10,408	278,407	131,376
25,677	-10,490	278,336	131,253
26,692	-10,671	278,139	130,977
27,707	-10,422	277,711	131,000
28,721	-10,461	277,527	130,864
29,736	-10,255	276,987	130,792
30,750	-10,545	276,835	130,435
31,765	-10,451	276,571	130,388
32,780	-10,489	276,498	130,306
33,794	-10,579	276,265	130,100
34,809	-10,671	276,074	129,911
35,823	-10,440	275,649	129,917
36,838	-10,615	275,434	129,640
37,853	-10,690	275,003	129,355
38,867	-10,567	275,019	129,467
39,882	-10,608	274,771	129,300
40,896	-10,703	274,565	129,103
41,911	-10,684	274,320	128,993
42,926	-10,524	273,946	128,956
43,940	-10,678	273,596	128,636
44,955	-10,688	273,418	128,531
45,969	-10,717	273,257	128,418
46,984	-10,731	272,940	128,243
47,999	-10,718	272,778	128,168
49,013	-10,925	272,576	127,869
50,028	-10,882	272,243	127,742
51,042	-10,983	272,003	127,524
52,057	-10,977	271,903	127,471
53,071	-10,877	271,595	127,409
54,086	-10,916	271,441	127,289
55,101	-10,701	271,123	127,327
56,115	-10,671	270,903	127,240
57,130	-10,406	270,900	127,471
58,144	-10,411	270,723	127,371
59,159	-10,449	270,533	127,236
60,174	-10,440	270,294	127,121
61,188	-10,340	270,130	127,124
62,203	-10,346	269,715	126,912
63,217	-10,447	269,460	126,688
64,232	-10,520	269,434	126,598
65,247	-10,367	269,053	126,547
66,261	-10,420	268,948	126,439
67,276	-10,683	268,618	126,032
68,290	-10,549	268,409	126,045
69,305	-10,614	268,118	125,837
70,320	-10,625	267,919	125,723
71,334	-10,275	267,752	125,952
72,349	-10,305	267,463	125,777
73,363	-10,343	267,431	125,717
74,378	-10,339	267,052	125,531
75,393	-10,270	266,860	125,492
76,407	-10,330	266,643	125,325
77,422	-10,357	266,542	125,241
78,436	-10,423	266,396	125,102
79,451	-10,413	266,056	124,940
80,466	-10,355	265,930	124,922
81,480	-10,487	265,695	124,682
82,495	-10,669	265,361	124,349
83,509	-10,593	265,338	124,396
84,524	-10,717	264,975	124,103
85,539	-10,642	264,908	124,128
86,553	-10,600	264,544	123,984
87,568	-10,488	264,147	123,888
88,582	-10,453	264,111	123,892
89,597	-10,815	264,162	123,579
90,611	-10,518	263,846	123,686
91,626	-10,479	263,586	123,589
92,641	-10,487	263,381	123,474
93,655	-10,440	263,218	123,429
94,670	-10,427	262,867	123,265
95,684	-10,383	262,870	123,294
96,699	-10,373	262,578	123,156
97,714	-10,398	262,346	123,013
98,728	-10,429	262,112	122,865
99,743	-10,702	262,078	122,596
100,757	-10,576	261,755	122,546
101,772	-10,473	261,641	122,573
102,787	-10,374	261,435	122,553
103,801	-10,247	261,141	122,516
104,816	-10,396	260,966	122,292
105,830	-10,380	260,885	122,257
106,845	-10,245	260,596	122,229
107,860	-10,512	260,483	121,930
108,874	-10,451	260,162	121,823
109,889	-10,358	260,021	121,828
110,903	-10,387	259,943	121,755
111,918	-10,337	259,660	121,655
112,933	-10,241	259,380	121,598
113,947	-10,504	259,388	121,360
114,962	-10,256	259,105	121,434
115,976	-10,360	258,894	121,234
116,991	-10,471	258,696	121,033
118,006	-10,406	258,547	121,009
119,020	-10,220	258,406	121,094
120,035	-10,447	258,262	120,819
121,049	-10,322	258,076	120,830
122,064	-10,319	257,822	120,702
123,079	-10,376	257,566	120,522
124,093	-10,485	257,493	120,383
125,108	-10,386	257,093	120,271
126,122	-10,635	256,931	119,968
127,137	-10,686	256,763	119,834
128,151	-10,732	256,562	119,690
129,166	-10,483	256,374	119,808
130,181	-10,688	256,198	119,537
131,195	-10,545	256,127	119,617
132,210	-10,397	255,787	119,575
133,224	-10,369	255,614	119,508
134,239	-10,126	255,483	119,646
135,254	-10,290	255,235	119,378
136,268	-10,317	255,100	119,280
137,283	-10,529	254,632	118,869
138,297	-10,704	254,601	118,693
139,312	-10,792	254,331	118,481
140,327	-10,243	254,312	118,933
141,341	-10,315	254,349	118,878
142,356	-10,099	253,983	118,882
143,370	-10,155	253,835	118,754
144,385	-10,025	253,782	118,830
145,400	-10,115	253,404	118,565
146,414	-10,140	253,340	118,503
147,429	-10,315	253,053	118,209
148,443	-10,133	252,770	118,222
149,458	-10,216	252,753	118,133
150,473	-10,079	252,499	118,120
151,487	-10,059	252,272	118,020
152,502	-9,919	252,122	118,059
153,516	-9,995	251,899	117,879
154,531	-10,093	251,843	117,759
155,546	-10,346	251,549	117,396
156,560	-10,280	251,465	117,403
157,575	-10,356	251,329	117,264
158,589	-10,094	251,001	117,323
159,604	-9,955	250,899	117,382
160,619	-9,943	250,751	117,312
161,633	-10,089	250,537	117,078
162,648	-9,948	250,347	117,099
163,662	-9,988	250,133	116,954
164,677	-10,301	250,088	116,659
165,692	-10,094	250,011	116,786
166,706	-10,279	249,630	116,443
167,721	-10,213	249,511	116,433
168,735	-10,199	249,448	116,405
169,750	-9,943	249,337	116,557
170,764	-10,083	249,187	116,360
171,779	-10,058	249,113	116,335
172,794	-9,988	248,862	116,266
173,808	-10,056	248,626	116,089
174,823	-10,434	248,372	115,644
175,837	-10,684	248,223	115,355
176,852	-10,268	248,055	115,614
177,867	-9,953	247,869	115,779
178,881	-10,127	247,787	115,587
179,896	-10,039	247,651	115,586
180,910	-10,036	247,586	115,547
181,925	-10,108	247,247	115,319
182,940	-10,077	247,172	115,300
183,954	-10,093	246,946	115,171
184,969	-10,032	246,753	115,121
185,983	-9,774	246,669	115,286
186,998	-9,991	246,424	114,981
188,013	-9,933	246,344	114,981
189,027	-9,898	246,095	114,884
190,042	-9,873	245,798	114,756
191,056	-9,960	245,892	114,718
192,071	-9,993	245,617	114,552
193,086	-10,013	245,475	114,459
194,100	-9,985	245,143	114,317
195,115	-9,785	245,001	114,405
196,129	-9,765	244,932	114,379
197,144	-9,888	244,743	114,180
198,159	-10,069	244,450	113,884
199,173	-9,889	244,335	113,968
200,188	-9,909	244,221	113,888
201,202	-10,086	243,968	113,615
202,217	-10,614	243,689	113,043
203,232	-10,495	243,532	113,057
204,246	-9,932	243,358	113,427
205,261	-9,159	243,494	114,112
206,275	-9,714	243,325	113,569
207,290	-7,681	244,008	115,543
208,304	-3,180	245,291	119,838
209,319	-0,366	246,084	122,530
210,334	-0,255	246,070	122,603
211,348	0,087	245,940	122,808
212,363	0,256	245,907	122,920
213,377	0,806	245,947	123,380
214,392	0,922	245,808	123,394
215,407	0,813	245,576	123,178
216,421	0,827	245,430	123,105
217,436	1,109	245,078	123,148
218,450	1,057	245,111	123,111
219,465	0,751	244,768	122,678
220,480	0,800	244,853	122,750
221,494	0,882	244,660	122,709
222,509	0,796	244,645	122,621
223,523	0,651	244,373	122,355
224,538	0,785	244,152	122,343
225,553	1,053	243,881	122,414
226,567	0,717	243,833	122,105
227,582	0,922	243,691	122,190
228,596	0,805	243,572	122,024
229,611	0,892	243,352	121,974
230,626	0,784	243,170	121,785
231,640	0,984	243,058	121,879
232,655	1,041	242,913	121,841
233,669	0,828	242,765	121,585
234,684	0,833	242,511	121,450
235,699	1,119	242,633	121,732
236,713	1,216	242,167	121,566
237,728	0,869	242,098	121,240
238,742	0,828	241,930	121,112
239,757	0,825	241,718	120,993
240,772	0,825	241,594	120,920
241,786	0,861	241,265	120,774
242,801	0,529	241,179	120,453
243,815	0,559	241,030	120,392
244,830	0,865	240,919	120,571
245,844	1,002	240,805	120,613
246,859	0,832	240,642	120,385
247,874	0,813	240,455	120,266
248,888	0,873	240,286	120,218
249,903	0,728	240,245	120,071
250,917	1,305	240,148	120,473
251,932	1,239	240,054	120,362
252,947	1,044	239,664	120,000
253,961	0,611	239,625	119,625
254,976	0,977	239,440	119,813
255,990	0,975	239,360	119,761
257,005	0,871	239,023	119,499
258,020	0,629	238,818	119,194
259,034	0,632	238,715	119,134
260,049	0,934	238,640	119,325
261,063	0,667	238,444	119,005
262,078	0,907	238,209	119,067
263,093	0,875	238,108	118,981
264,107	1,097	237,977	119,081
265,122	1,020	237,763	118,902
266,136	1,062	237,836	118,961
267,151	1,190	237,603	118,935
268,166	0,745	237,466	118,505
269,180	0,758	237,061	118,303
270,195	1,513	237,335	119,024
271,209	1,334	237,145	118,777
272,224	0,802	236,724	118,137
273,239	0,643	236,549	117,915
274,253	1,004	236,457	118,141
275,268	0,934	236,189	117,942
276,282	1,011	235,993	117,894
277,297	0,753	235,915	117,643
278,312	0,831	235,775	117,623
279,326	0,784	235,682	117,530
280,341	0,988	235,633	117,654
281,355	0,981	235,418	117,531
282,370	1,293	235,402	117,756
283,384	1,143	235,037	117,446
284,399	0,780	234,933	117,101
285,414	0,768	234,715	116,972
286,428	1,119	234,663	117,209
287,443	0,920	234,656	117,040
288,457	1,265	234,430	117,185
289,472	1,273	234,430	117,181
290,487	0,988	234,119	116,794
291,501	0,831	233,728	116,467
292,516	0,532	233,589	116,156
293,530	0,609	233,506	116,164
294,545	1,002	233,505	116,457
295,560	0,952	233,243	116,277
296,574	0,818	232,914	115,999
297,589	0,572	233,000	115,842
298,603	1,260	232,931	116,328
299,618	1,381	232,729	116,310
300,633	1,446	232,597	116,284
301,647	1,303	232,693	116,211
302,662	1,719	232,435	116,392
303,676	1,533	232,296	116,169
304,691	1,261	232,078	115,841
305,706	1,347	232,074	115,895
306,720	1,273	231,832	115,706
307,735	1,120	231,547	115,436
308,749	0,976	231,336	115,211
309,764	1,134	231,103	115,206
310,779	0,943	231,045	115,020
311,793	0,734	230,923	114,790
312,808	0,854	230,648	114,734
313,822	0,679	230,395	114,465
314,837	0,499	230,328	114,284
315,852	0,786	230,115	114,387
316,866	0,881	230,170	114,476
317,881	1,152	230,101	114,637
318,895	1,334	230,019	114,726
319,910	1,496	229,864	114,760
320,925	1,235	229,686	114,464
321,939	0,802	229,511	114,037
322,954	1,605	229,404	114,583
323,968	1,439	229,226	114,358
324,983	1,399	229,029	114,219
325,997	1,494	229,037	114,285
327,012	1,224	228,855	113,980
328,027	1,009	228,544	113,652
329,041	1,177	228,558	113,777
330,056	1,802	228,574	114,246
331,070	2,005	228,320	114,262
332,085	1,998	228,044	114,108
333,100	1,623	228,039	113,813
334,114	1,701	227,708	113,697
335,129	1,497	227,723	113,541
336,143	1,685	227,601	113,611
337,158	1,346	227,506	113,299
338,173	1,396	227,233	113,190
339,187	1,409	226,938	113,043
340,202	1,254	226,924	112,910
341,216	1,591	226,859	113,120
342,231	1,489	226,610	112,909
343,246	1,408	226,493	112,780
344,260	1,355	226,430	112,699
345,275	1,645	226,363	112,872
346,289	1,716	226,206	112,836
347,304	1,663	226,059	112,713
348,319	1,828	225,780	112,687
349,333	1,820	225,668	112,616
350,348	1,755	225,473	112,460
351,362	1,403	225,434	112,169
352,377	0,985	225,281	111,772
353,392	1,096	225,003	111,707
354,406	1,392	224,978	111,904
355,421	196,288	1317,547	1394,045
356,435	157,359	1450,637	1394,026
