DTS Sentinel unit serial number:	SN410029Multiplexer serial number:	ORYXHardware model number:	OX2-SRSoftware version number:	ORYX F/W v4,00 Oryx Data Collector v3.7.2.0data status	okinstallation	B5 Nyhavnadifferential loss correction	single-endedforward channel	channel 2reverse channel	N/Adate	2023/12/13time	08:57:13forward acquisition time	300,00reverse acquisition time	0,00gamma	499,1914k internal	0,3160k external	0,3160temperature offset calibration	1,0000default loss term (dB/km)	0,3820temperature slope calibration	1,0000multiplexer offset coefficient	1,0000multiplexer slope coefficient	1,0000fibre end	0,00T internal ref (°C)	13,64T ext. ref 1 (°C)	-2,73T ext. ref 2 (°C)	-3,03length (m)	temperature (°C)	Stokes	anti-Stokes-744,400	83,892	0,163	0,131
-743,385	-109,189	-0,244	-0,038
-742,371	-162,332	0,198	0,007
-741,356	-186,708	-0,348	0,004
-740,342	-61,509	0,245	0,075
-739,327	-154,795	-0,454	-0,022
-738,312	-74,285	0,161	-0,043
-737,298	-100,183	-0,330	-0,060
-736,283	-55,032	0,072	-0,024
-735,269	-115,699	-0,192	0,026
-734,254	-200,000	0,006	0,123
-733,239	-14,782	-0,481	-0,227
-732,225	122,363	0,139	0,128
-731,210	135,671	-0,069	-0,066
-730,196	-200,000	0,012	-0,114
-729,181	-200,000	0,008	0,049
-728,167	-106,285	-0,023	-0,004
-727,152	-200,000	-0,008	-0,033
-726,137	-75,139	-0,163	0,043
-725,123	-81,853	-0,032	-0,008
-724,108	444,287	-0,065	-0,105
-723,094	110,550	-0,138	-0,122
-722,079	-200,000	-0,026	-0,144
-721,064	380,076	0,039	0,060
-720,050	36,830	-0,181	-0,118
-719,035	122,371	-0,042	-0,039
-718,021	-101,954	-0,088	0,016
-717,006	-67,898	-0,151	0,043
-715,991	360,862	-0,059	0,088
-714,977	-200,000	-0,002	0,058
-713,962	-167,694	-0,088	-0,003
-712,948	-200,000	-0,017	-0,117
-711,933	800,000	0,014	-0,036
-710,918	260,337	0,052	-0,066
-709,904	64,894	0,025	0,019
-708,889	-5,045	0,019	0,010
-707,875	-200,000	-0,033	-0,111
-706,860	-200,000	-0,001	-0,005
-705,845	291,312	0,072	-0,096
-704,831	36,725	-0,127	0,082
-703,816	-109,583	-0,095	-0,015
-702,802	120,423	0,035	-0,032
-701,787	-200,000	-0,001	-0,156
-700,772	107,584	-0,016	0,014
-699,758	560,841	0,025	-0,045
-698,743	283,729	-0,016	0,021
-697,729	231,990	-0,124	0,150
-696,714	-200,000	0,004	-0,021
-695,699	67,479	-0,124	-0,093
-694,685	-200,000	0,003	-0,129
-693,670	238,129	0,015	0,018
-692,656	-10,527	-0,027	0,013
-691,641	-45,626	0,249	0,090
-690,627	453,583	-0,055	0,090
-689,612	-78,228	0,030	0,008
-688,597	126,602	-0,093	-0,086
-687,583	-16,462	0,100	-0,046
-686,568	-200,000	-0,015	-0,141
-685,554	408,709	-0,058	-0,090
-684,539	800,000	0,049	0,151
-683,524	-200,000	0,003	0,048
-682,510	-140,897	-0,060	-0,004
-681,495	19,483	0,036	0,021
-680,481	-38,107	-0,136	0,053
-679,466	198,076	0,035	-0,039
-678,451	-200,000	0,030	-0,187
-677,437	-200,000	-0,013	-0,079
-676,422	-81,981	0,074	0,018
-675,408	598,579	-0,042	0,077
-674,393	-177,983	-0,035	0,001
-673,378	268,550	-0,014	0,017
-672,364	127,499	-0,020	-0,018
-671,349	-200,000	-0,016	-0,062
-670,335	-127,722	-0,020	0,002
-669,320	-132,617	0,124	-0,012
-668,305	164,929	0,057	-0,059
-667,291	146,331	-0,050	-0,050
-666,276	-200,000	0,001	-0,073
-665,262	44,842	-0,207	-0,140
-664,247	-163,054	0,029	-0,001
-663,232	800,000	-0,040	-0,104
-662,218	18,637	-0,103	-0,060
-661,203	-200,000	-0,005	-0,053
-660,189	-136,155	0,148	-0,013
-659,174	800,000	-0,059	0,134
-658,159	126,744	-0,048	-0,045
-657,145	323,689	-0,087	0,122
-656,130	800,000	-0,046	0,103
-655,116	673,435	0,048	0,091
-654,101	-71,690	0,089	-0,024
-653,086	800,000	0,015	-0,037
-652,072	-130,440	-0,231	0,023
-651,057	-21,815	-0,113	-0,050
-650,043	762,151	-0,026	-0,052
-649,028	78,659	-0,078	0,061
-648,014	-200,000	-0,038	0,139
-646,999	-109,244	-0,061	0,009
-645,984	-98,117	0,111	-0,021
-644,970	-71,880	-0,196	-0,053
-643,955	-13,511	0,048	-0,023
-642,941	105,217	-0,087	-0,076
-641,926	-200,000	0,004	-0,036
-640,911	-200,000	0,046	0,163
-639,897	-123,960	0,170	0,019
-638,882	260,030	-0,065	-0,083
-637,868	-200,000	-0,001	-0,015
-636,853	300,701	-0,039	0,053
-635,838	151,912	-0,100	-0,101
-634,824	120,984	-0,079	0,072
-633,809	65,638	0,082	0,061
-632,795	-93,515	0,124	0,025
-631,780	-200,000	-0,001	-0,043
-630,765	146,267	-0,062	0,061
-629,751	-99,980	-0,138	-0,025
-628,736	800,000	0,058	-0,120
-627,722	-67,579	-0,004	-0,001
-626,707	-96,251	-0,052	-0,010
-625,692	-30,045	0,104	0,043
-624,678	800,000	-0,006	0,017
-623,663	283,543	-0,057	-0,075
-622,649	-108,833	-0,139	-0,022
-621,634	-5,429	-0,049	0,025
-620,619	41,226	-0,051	-0,034
-619,605	-30,547	-0,048	-0,020
-618,590	-200,000	0,012	-0,136
-617,576	800,000	0,038	-0,080
-616,561	-71,090	0,091	0,025
-615,546	-69,115	-0,063	0,018
-614,532	-200,000	-0,005	-0,021
-613,517	270,445	-0,034	0,043
-612,503	-200,000	-0,002	-0,091
-611,488	-62,508	0,137	0,041
-610,474	-138,465	-0,050	-0,004
-609,459	-61,629	0,034	-0,010
-608,444	109,496	0,062	-0,055
-607,430	637,113	-0,032	0,060
-606,415	-73,874	-0,110	0,029
-605,401	85,537	-0,055	0,044
-604,386	-133,320	0,037	0,003
-603,371	134,470	0,076	0,073
-602,357	-200,000	-0,025	0,133
-601,342	-200,000	0,004	0,032
-600,328	-200,000	0,018	-0,107
-599,313	-94,664	0,038	0,007
-598,298	-151,317	0,043	-0,002
-597,284	-200,000	0,044	-0,165
-596,269	-200,000	-0,008	-0,105
-595,255	-200,000	-0,023	0,159
-594,240	-200,000	-0,017	-0,088
-593,225	-5,570	-0,045	0,023
-592,211	-200,000	-0,009	-0,089
-591,196	-125,795	0,015	-0,002
-590,182	-200,000	-0,047	-0,168
-589,167	35,588	-0,036	0,023
-588,152	75,072	-0,067	0,052
-587,138	800,000	0,024	-0,057
-586,123	-59,513	-0,086	-0,027
-585,109	-200,000	-0,015	-0,092
-584,094	31,498	0,060	-0,038
-583,079	-200,000	0,027	-0,090
-582,065	207,728	0,093	0,106
-581,050	414,045	0,065	-0,101
-580,036	800,000	0,018	-0,041
-579,021	46,578	0,043	0,029
-578,006	197,283	-0,060	-0,067
-576,992	-31,538	0,035	-0,015
-575,977	-88,637	0,150	-0,032
-574,963	-200,000	-0,009	0,116
-573,948	-200,000	-0,006	0,048
-572,934	16,340	0,095	-0,055
-571,919	-136,384	-0,149	0,013
-570,904	-31,900	-0,081	-0,033
-569,890	259,935	0,030	-0,038
-568,875	76,216	0,121	-0,094
-567,861	-101,966	0,132	-0,023
-566,846	-5,900	0,026	-0,013
-565,831	53,414	0,125	0,088
-564,817	572,491	-0,056	-0,101
-563,802	46,933	0,120	-0,081
-562,788	800,000	0,039	-0,088
-561,773	-200,000	0,005	-0,135
-560,758	-68,348	-0,112	0,032
-559,744	-200,000	-0,007	-0,060
-558,729	-82,550	0,116	0,027
-557,715	-114,484	-0,068	0,009
-556,700	-200,000	-0,001	0,005
-555,685	-85,520	0,069	0,016
-554,671	348,892	0,042	-0,061
-553,656	-36,670	0,046	0,018
-552,642	-48,435	0,075	0,026
-551,627	111,906	0,050	-0,044
-550,612	-108,509	-0,077	0,012
-549,598	652,926	-0,048	-0,090
-548,583	228,042	0,040	-0,048
-547,569	65,957	0,056	-0,041
-546,554	317,010	0,050	-0,069
-545,539	-200,000	-0,025	0,113
-544,525	-158,602	0,035	-0,001
-543,510	45,093	0,045	-0,030
-542,496	800,000	-0,022	-0,062
-541,481	390,876	-0,082	-0,125
-540,466	-200,000	0,019	0,091
-539,452	-200,000	-0,002	0,073
-538,437	169,528	0,096	-0,101
-537,423	-150,845	0,063	0,003
-536,408	129,517	-0,066	0,061
-535,393	-27,328	0,081	-0,034
-534,379	78,231	-0,106	0,083
-533,364	20,534	-0,072	0,042
-532,350	12,179	0,020	0,011
-531,335	-128,655	0,128	0,013
-530,321	800,000	0,056	0,158
-529,306	-200,000	-0,005	-0,044
-528,291	128,197	0,052	-0,049
-527,277	3,412	0,093	-0,049
-526,262	398,188	-0,088	-0,134
-525,248	46,857	0,072	0,049
-524,233	-137,320	0,106	0,009
-523,218	800,000	-0,037	0,097
-522,204	-200,000	-0,004	0,120
-521,189	88,117	-0,137	-0,111
-520,175	18,011	-0,114	0,066
-519,160	54,339	-0,038	0,027
-518,145	138,202	0,028	-0,027
-517,131	9,063	0,106	-0,058
-516,116	800,000	0,014	0,037
-515,102	800,000	-0,102	0,227
-514,087	800,000	0,026	0,081
-513,072	92,465	0,068	-0,056
-512,058	1,784	-0,027	-0,014
-511,043	204,967	0,017	0,019
-510,029	-59,620	0,082	0,026
-509,014	800,000	0,005	-0,015
-507,999	800,000	0,019	0,042
-506,985	800,000	0,032	0,095
-505,970	28,965	-0,024	-0,015
-504,956	-200,000	0,009	0,100
-503,941	-13,202	0,114	0,054
-502,926	72,528	-0,082	-0,062
-501,912	689,737	-0,043	-0,083
-500,897	-56,010	0,069	0,022
-499,883	0,416	-0,064	-0,033
-498,868	297,186	-0,100	0,134
-497,853	-67,878	0,016	-0,004
-496,839	449,597	0,120	-0,193
-495,824	139,111	0,067	0,064
-494,810	-15,448	0,144	-0,067
-493,795	359,436	0,087	0,127
-492,781	-152,828	-0,068	0,003
-491,766	-67,613	0,103	0,029
-490,751	-177,506	-0,234	0,004
-489,737	-140,851	0,055	0,004
-488,722	-200,000	-0,002	0,110
-487,708	-200,000	0,005	0,028
-486,693	-200,000	-0,020	-0,079
-485,678	800,000	-0,017	-0,048
-484,664	-94,650	0,073	-0,014
-483,649	-200,000	-0,008	0,038
-482,635	800,000	0,018	-0,049
-481,620	76,283	0,060	0,046
-480,605	-200,000	0,022	0,101
-479,591	64,284	-0,139	0,102
-478,576	44,884	0,089	-0,059
-477,562	343,550	-0,030	-0,042
-476,547	-121,679	0,056	0,007
-475,532	-71,309	-0,161	0,044
-474,518	-200,000	0,003	0,044
-473,503	800,000	-0,048	0,108
-472,489	-200,000	0,012	0,121
-471,474	-200,000	0,007	0,208
-470,459	231,089	-0,094	0,112
-469,445	332,408	0,072	-0,102
-468,430	800,000	-0,032	-0,088
-467,416	457,267	0,066	-0,107
-466,401	65,573	0,034	0,025
-465,386	-200,000	-0,015	0,158
-464,372	596,074	-0,062	0,112
-463,357	120,783	-0,068	0,062
-462,343	-149,275	0,079	0,005
-461,328	100,637	-0,077	-0,065
-460,313	-26,857	0,071	-0,030
-459,299	-200,000	0,012	0,072
-458,284	107,911	0,066	0,057
-457,270	307,128	-0,086	0,116
-456,255	-200,000	-0,008	0,129
-455,241	-200,000	0,008	-0,070
-454,226	-121,674	-0,037	-0,004
-453,211	230,329	-0,023	-0,028
-452,197	135,553	0,105	-0,100
-451,182	-200,000	-0,007	0,091
-450,168	-200,000	0,002	0,065
-449,153	-7,118	0,061	-0,030
-448,138	-200,000	0,030	-0,218
-447,124	112,237	0,034	-0,030
-446,109	-2,352	-0,063	0,032
-445,095	-142,824	0,029	-0,002
-444,080	-28,263	0,108	0,045
-443,065	-200,000	0,041	0,194
-442,051	-200,000	0,044	0,168
-441,036	-119,417	0,031	0,004
-440,022	-44,889	-0,134	-0,048
-439,007	-200,000	-0,006	0,070
-437,992	1,724	0,147	0,077
-436,978	-35,801	0,072	-0,028
-435,963	800,000	0,070	0,164
-434,949	27,059	0,128	0,078
-433,934	3,315	0,064	-0,034
-432,919	800,000	-0,050	-0,153
-431,905	800,000	0,021	-0,048
-430,890	-161,816	0,076	-0,003
-429,876	-30,459	0,092	0,038
-428,861	-200,000	-0,012	-0,040
-427,846	131,173	-0,050	-0,047
-426,832	-78,171	-0,038	0,009
-425,817	800,000	-0,066	-0,171
-424,803	72,174	0,059	0,044
-423,788	-200,000	0,007	-0,066
-422,773	249,839	-0,052	0,065
-421,759	800,000	0,054	0,128
-420,744	-200,000	0,002	0,029
-419,730	-89,650	-0,061	-0,013
-418,715	367,577	0,070	-0,104
-417,701	-160,351	-0,059	-0,002
-416,686	-12,576	-0,086	0,041
-415,671	-28,161	0,057	0,024
-414,657	102,934	0,090	0,077
-413,642	-200,000	-0,022	0,091
-412,628	68,058	-0,106	0,079
-411,613	787,261	0,039	-0,079
-410,598	223,536	-0,087	-0,103
-409,584	-32,005	0,062	-0,025
-408,569	-133,986	0,137	-0,012
-407,555	406,910	-0,022	0,034
-406,540	-200,000	0,004	0,121
-405,525	-121,324	-0,080	0,010
-404,511	-200,000	-0,025	-0,112
-403,496	-84,877	0,040	-0,009
-402,482	-200,000	0,012	0,063
-401,467	-177,204	0,060	0,001
-400,452	192,481	-0,046	0,050
-399,438	145,663	-0,035	-0,034
-398,423	800,000	-0,063	0,166
-397,409	-89,454	-0,095	-0,020
-396,394	-200,000	0,003	-0,017
-395,379	-200,000	0,014	0,068
-394,365	503,525	0,043	0,072
-393,350	-104,982	0,116	0,019
-392,336	-76,236	-0,023	0,006
-391,321	-0,848	-0,037	-0,019
-390,306	17,350	-0,143	-0,082
-389,292	-200,000	-0,014	-0,051
-388,277	33,306	-0,085	-0,054
-387,263	78,480	0,116	0,090
-386,248	-120,344	0,109	-0,013
-385,233	23,904	-0,052	0,031
-384,219	-9,612	0,060	0,029
-383,204	35,516	-0,156	0,100
-382,190	800,000	0,040	-0,116
-381,175	800,000	0,028	0,079
-380,160	3,866	0,087	0,046
-379,146	148,632	0,050	-0,050
-378,131	-200,000	0,019	0,091
-377,117	-0,977	-0,164	0,084
-376,102	120,544	-0,062	-0,056
-375,088	-50,073	0,164	-0,056
-374,073	128,685	-0,116	-0,108
-373,058	-18,873	0,052	-0,024
-372,044	26,965	-0,043	0,026
-371,029	-200,000	-0,001	0,033
-370,015	-69,707	-0,137	-0,038
-369,000	181,916	-0,050	-0,054
-367,985	-96,176	0,100	-0,019
-366,971	97,870	0,076	-0,064
-365,956	-200,000	-0,040	0,139
-364,942	446,834	0,091	0,146
-363,927	800,000	0,027	0,073
-362,912	723,605	-0,012	-0,024
-361,898	-128,973	-0,042	-0,004
-360,883	310,273	-0,024	-0,032
-359,869	374,830	-0,028	0,041
-358,854	-3,096	0,020	-0,010
-357,839	800,000	-0,013	0,033
-356,825	312,455	-0,034	0,047
-355,810	800,000	-0,006	-0,018
-354,796	800,000	-0,030	0,084
-353,781	-179,052	-0,213	-0,003
-352,766	16,610	-0,139	-0,080
-351,752	224,456	0,064	0,075
-350,737	30,297	0,182	0,112
-349,723	-200,000	-0,011	0,074
-348,708	263,921	-0,063	0,079
-347,693	491,935	-0,020	0,033
-346,679	59,594	-0,015	-0,011
-345,664	-200,000	-0,003	-0,090
-344,650	-200,000	0,029	-0,156
-343,635	-200,000	0,017	-0,152
-342,620	-30,013	0,185	-0,076
-341,606	-200,000	-0,015	0,077
-340,591	93,826	-0,046	0,038
-339,577	265,058	-0,049	-0,062
-338,562	191,374	0,030	0,033
-337,548	216,920	-0,048	-0,056
-336,533	92,453	0,030	-0,025
-335,518	800,000	0,051	-0,116
-334,504	-200,000	-0,039	-0,145
-333,489	-102,103	0,030	-0,005
-332,475	-200,000	-0,004	0,021
-331,460	-200,000	-0,037	-0,133
-330,445	-200,000	-0,011	-0,061
-329,431	-200,000	0,006	0,145
-328,416	7,915	-0,087	0,047
-327,402	300,483	-0,037	0,049
-326,387	-40,694	-0,136	-0,051
-325,372	-200,000	-0,007	-0,051
-324,358	274,865	-0,099	0,128
-323,343	-118,571	-0,194	0,025
-322,329	211,367	0,070	0,080
-321,314	93,471	0,042	-0,034
-320,299	21,175	-0,147	0,086
-319,285	430,663	-0,010	-0,015
-318,270	11,936	-0,081	0,045
-317,256	-200,000	-0,005	-0,020
-316,241	800,000	-0,047	-0,106
-315,226	-200,000	0,000	-0,022
-314,212	56,898	0,062	0,044
-313,197	118,084	0,077	-0,068
-312,183	800,000	0,046	0,103
-311,168	710,430	-0,075	-0,144
-310,153	692,078	0,030	-0,058
-309,139	-200,000	0,008	-0,121
-308,124	800,000	0,032	0,093
-307,110	800,000	-0,065	0,205
-306,095	216,940	0,056	0,065
-305,080	-100,296	0,073	-0,013
-304,066	226,212	-0,094	0,111
-303,051	56,332	-0,148	-0,104
-302,037	-200,000	-0,006	0,085
-301,022	-57,351	0,065	0,021
-300,008	-106,079	0,170	-0,027
-298,993	68,450	0,088	0,065
-297,978	234,635	-0,071	0,085
-296,964	112,734	-0,075	-0,065
-295,949	180,455	0,079	0,084
-294,935	348,372	-0,035	0,050
-293,920	-200,000	0,006	0,053
-292,905	-200,000	-0,021	-0,072
-291,891	368,059	0,054	-0,079
-290,876	-200,000	0,001	0,063
-289,862	-61,905	-0,126	0,038
-288,847	16,517	-0,126	-0,072
-287,832	-200,000	0,031	-0,180
-286,818	-200,000	0,052	-0,190
-285,803	800,000	-0,058	0,125
-284,789	-142,625	0,106	-0,007
-283,774	-30,082	-0,124	-0,051
-282,759	-200,000	-0,004	-0,038
-281,745	172,596	-0,066	-0,068
-280,730	-1,186	-0,154	0,079
-279,716	-120,962	-0,110	-0,013
-278,701	-118,354	-0,140	0,018
-277,686	-200,000	0,027	0,136
-276,672	-1,267	0,103	0,053
-275,657	-200,000	-0,005	0,047
-274,643	800,000	0,031	0,075
-273,628	-200,000	0,009	0,046
-272,613	-48,144	-0,039	0,013
-271,599	-200,000	-0,001	-0,040
-270,584	-200,000	0,028	0,127
-269,570	132,599	-0,112	0,105
-268,555	-36,832	0,038	0,015
-267,540	800,000	0,025	-0,075
-266,526	-200,000	-0,003	0,027
-265,511	15,676	0,053	0,030
-264,497	800,000	0,037	-0,090
-263,482	800,000	-0,024	-0,071
-262,467	-124,635	0,080	0,009
-261,453	-200,000	0,002	-0,067
-260,438	800,000	0,046	-0,127
-259,424	-102,891	0,065	0,011
-258,409	-146,844	0,089	0,005
-257,395	800,000	-0,051	-0,114
-256,380	-42,012	0,094	0,035
-255,365	259,781	-0,099	-0,124
-254,351	94,728	-0,090	0,074
-253,336	-57,589	0,129	-0,041
-252,322	694,183	0,047	0,089
-251,307	-200,000	-0,008	-0,056
-250,292	166,406	-0,061	0,062
-249,278	-127,594	0,019	0,002
-248,263	-23,338	0,061	0,026
-247,249	-156,778	-0,091	0,004
-246,234	-200,000	-0,015	-0,219
-245,219	98,480	-0,096	-0,080
-244,205	-200,000	-0,028	-0,144
-243,190	313,324	0,081	-0,110
-242,176	-200,000	-0,008	-0,036
-241,161	-1,561	0,048	-0,024
-240,146	282,144	0,027	0,034
-239,132	-88,389	0,061	-0,013
-238,117	200,437	0,032	-0,036
-237,103	31,062	-0,094	-0,058
-236,088	-200,000	0,003	0,024
-235,073	-200,000	0,050	0,176
-234,059	800,000	-0,012	0,027
-233,044	-200,000	-0,021	-0,130
-232,030	800,000	0,024	-0,062
-231,015	800,000	-0,029	0,062
-230,000	99,272	-0,027	-0,023
-228,986	800,000	0,020	0,054
-227,971	-200,000	-0,003	-0,042
-226,957	311,153	0,063	-0,086
-225,942	-37,107	-0,057	-0,022
-224,927	-60,040	0,051	0,016
-223,913	279,533	0,044	0,057
-222,898	477,152	-0,119	-0,194
-221,884	-200,000	-0,029	0,101
-220,869	185,687	-0,022	-0,023
-219,855	-13,143	0,096	-0,045
-218,840	150,059	-0,065	-0,064
-217,825	547,541	-0,079	-0,137
-216,811	800,000	0,033	0,075
-215,796	800,000	-0,055	-0,113
-214,782	333,295	-0,077	-0,108
-213,767	94,800	-0,080	-0,066
-212,752	495,957	0,030	0,050
-211,738	-200,000	-0,027	0,117
-210,723	98,474	0,049	-0,041
-209,709	-42,049	0,125	0,046
-208,694	749,900	0,015	-0,029
-207,679	-200,000	0,021	-0,127
-206,665	73,254	-0,142	0,107
-205,650	-200,000	-0,013	0,205
-204,636	66,021	0,043	0,032
-203,621	38,415	-0,028	0,018
-202,606	-200,000	0,012	-0,044
-201,592	-200,000	0,005	-0,122
-200,577	525,133	-0,101	0,172
-199,563	-106,710	0,083	0,013
-198,548	473,533	0,060	-0,099
-197,533	-103,979	0,134	0,022
-196,519	0,458	0,047	-0,024
-195,504	-200,000	-0,010	-0,037
-194,490	-48,671	-0,120	-0,041
-193,475	573,106	-0,050	-0,088
-192,460	353,290	0,010	-0,014
-191,446	800,000	0,007	-0,015
-190,431	-200,000	-0,007	-0,056
-189,417	-200,000	0,027	0,129
-188,402	-66,625	-0,073	0,021
-187,387	113,180	-0,142	0,124
-186,373	31,066	0,035	0,022
-185,358	-180,520	0,145	0,002
-184,344	114,098	-0,059	0,052
-183,329	-200,000	-0,013	0,121
-182,315	142,830	0,084	-0,081
-181,300	800,000	-0,028	-0,075
-180,285	-16,193	0,061	0,028
-179,271	-200,000	0,002	-0,084
-178,256	-200,000	-0,028	0,106
-177,242	-18,676	0,010	-0,004
-176,227	-200,000	0,034	0,130
-175,212	-48,080	-0,128	-0,044
-174,198	-200,000	0,018	0,178
-173,183	-12,012	-0,074	0,035
-172,169	-200,000	0,020	-0,100
-171,154	800,000	-0,051	-0,129
-170,139	4,940	0,019	0,010
-169,125	-200,000	-0,003	-0,040
-168,110	-84,716	-0,184	0,041
-167,096	419,153	0,032	-0,050
-166,081	-200,000	0,034	0,000
-165,066	24,252	-0,139	-0,083
-164,052	800,000	0,049	-0,134
-163,037	-200,000	0,028	-0,138
-162,023	-131,924	0,097	-0,009
-161,008	160,509	-0,057	0,057
-159,993	800,000	-0,025	-0,066
-158,979	-200,000	-0,018	-0,139
-157,964	800,000	0,041	0,085
-156,950	125,604	-0,056	-0,051
-155,935	102,436	0,075	-0,063
-154,920	207,420	0,079	0,089
-153,906	-200,000	-0,012	0,054
-152,891	-200,000	0,014	0,055
-151,877	-200,000	-0,023	0,079
-150,862	-58,888	-0,107	-0,033
-149,847	-42,738	0,083	-0,030
-148,833	-31,441	-0,104	-0,042
-147,818	326,671	0,104	0,144
-146,804	324,173	-0,074	-0,102
-145,789	-102,586	-0,064	0,011
-144,775	-200,000	-0,018	-0,086
-143,760	800,000	0,044	-0,108
-142,745	6,074	0,081	0,043
-141,731	800,000	0,027	-0,069
-140,716	249,103	-0,060	0,074
-139,702	-200,000	-0,018	-0,100
-138,687	145,524	-0,024	0,023
-137,672	396,802	-0,076	-0,115
-136,658	-143,665	0,116	-0,008
-135,643	800,000	0,005	0,013
-134,629	-53,325	-0,085	0,028
-133,614	-80,509	0,052	0,012
-132,599	532,044	-0,057	0,098
-131,585	-200,000	0,010	0,038
-130,570	-200,000	-0,018	-0,073
-129,556	11,987	0,072	-0,040
-128,541	424,582	-0,035	-0,054
-127,526	800,000	-0,039	-0,097
-126,512	31,471	-0,076	-0,047
-125,497	-37,562	0,097	0,037
-124,483	28,451	-0,042	0,026
-123,468	209,950	0,022	-0,025
-122,453	-200,000	0,025	-0,089
-121,439	-200,000	0,022	0,096
-120,424	800,000	0,029	0,071
-119,410	12,041	-0,091	0,050
-118,395	152,375	-0,091	0,089
-117,380	-200,000	0,014	0,165
-116,366	-200,000	-0,026	-0,102
-115,351	153,021	-0,075	-0,073
-114,337	410,008	-0,126	0,193
-113,322	42,453	0,076	-0,050
-112,307	378,549	0,029	-0,043
-111,293	800,000	-0,035	0,081
-110,278	800,000	-0,070	0,167
-109,264	-25,688	0,138	0,058
-108,249	12,636	-0,131	0,073
-107,234	800,000	-0,051	-0,138
-106,220	26,307	-0,046	0,028
-105,205	124,322	-0,051	0,046
-104,191	111,201	-0,070	-0,061
-103,176	133,395	0,119	0,110
-102,162	141,688	-0,100	0,095
-101,147	176,100	0,052	0,054
-100,132	800,000	-0,027	0,085
-99,118	-200,000	0,020	0,070
-98,103	-200,000	-0,034	0,110
-97,089	89,124	0,081	-0,064
-96,074	333,889	-0,036	-0,051
-95,059	-79,715	0,126	-0,030
-94,045	24,626	-0,066	0,039
-93,030	-200,000	0,006	-0,261
-92,016	-13,752	-0,085	-0,039
-91,001	-66,690	-0,053	0,015
-89,986	800,000	0,064	0,135
-88,972	-110,655	-0,075	0,011
-87,957	-67,136	-0,066	-0,019
-86,943	-200,000	0,050	-0,164
-85,928	446,104	-0,108	-0,171
-84,913	235,677	0,073	-0,087
-83,899	-200,000	0,002	0,010
-82,884	-200,000	-0,045	-0,000
-81,870	261,638	-0,053	-0,065
-80,855	511,355	-0,022	0,037
-79,840	-69,779	0,024	0,007
-78,826	-75,258	-0,081	0,021
-77,811	-57,134	-0,087	-0,027
-76,797	62,043	-0,067	0,048
-75,782	108,563	-0,033	-0,029
-74,767	436,358	0,066	-0,103
-73,753	-200,000	0,019	0,088
-72,738	249,698	0,056	0,068
-71,724	120,894	0,105	0,094
-70,709	23,921	-0,203	-0,120
-69,694	-200,000	-0,018	-0,093
-68,680	233,566	-0,085	0,100
-67,665	679,915	0,026	-0,048
-66,651	800,000	0,025	0,077
-65,636	-46,295	-0,138	0,048
-64,622	-62,663	-0,137	-0,041
-63,607	-200,000	0,007	-0,095
-62,592	-200,000	-0,038	-0,130
-61,578	-118,363	0,030	0,004
-60,563	-143,793	0,100	-0,007
-59,549	-200,000	-0,027	0,125
-58,534	29,191	-2,104	-1,278
-57,519	-200,000	-0,017	-0,831
-56,505	-200,000	-1,256	-5,155
-55,490	247,084	0,666	0,808
-54,476	800,000	5,288	11,962
-53,461	-200,000	18,756	316,994
-52,446	800,000	741,122	2333,987
-51,432	558,730	1657,188	2879,128
-50,417	111,097	1641,385	1417,365
-49,403	75,328	1291,242	975,773
-48,388	30,244	1031,800	630,193
-47,373	19,875	994,262	572,894
-46,359	17,332	982,084	557,479
-45,344	14,020	978,210	544,362
-44,330	14,375	976,415	544,507
-43,315	13,786	974,541	541,510
-42,300	13,671	973,598	540,585
-41,286	13,621	972,741	539,925
-40,271	13,647	971,865	539,502
-39,257	13,702	970,827	539,086
-38,242	13,648	969,973	538,411
-37,227	13,628	969,184	537,887
-36,213	13,689	968,194	537,516
-35,198	13,619	967,306	536,775
-34,184	13,704	966,493	536,578
-33,169	13,599	965,465	535,646
-32,154	13,687	964,595	535,425
-31,140	13,631	963,829	534,797
-30,125	13,748	962,966	534,676
-29,111	13,673	962,112	533,938
-28,096	13,674	961,586	533,630
-27,082	13,686	960,807	533,214
-26,067	13,707	960,164	532,905
-25,052	13,719	959,215	532,395
-24,038	13,634	958,706	531,817
-23,023	13,574	958,061	531,246
-22,009	13,689	957,463	531,265
-20,994	13,676	956,634	530,740
-19,979	13,687	956,044	530,428
-18,965	13,682	955,410	530,038
-17,950	13,659	954,942	529,684
-16,936	13,624	954,248	529,165
-15,921	13,638	953,722	528,896
-14,906	13,568	952,720	528,097
-13,892	13,582	952,178	527,820
-12,877	13,537	951,483	527,269
-11,863	13,594	950,743	527,022
-10,848	13,512	950,401	526,548
-9,833	13,712	949,767	526,813
-8,819	13,629	949,180	526,204
-7,804	13,623	948,365	525,713
-6,790	13,514	948,062	525,176
-5,775	13,584	947,618	525,131
-4,760	13,584	946,928	524,728
-3,746	13,589	946,125	524,280
-2,731	13,489	945,415	523,545
-1,717	13,422	944,920	523,037
-0,702	13,419	944,053	522,529
0,313	13,137	943,627	522,185
1,327	16,547	941,069	531,520
2,342	25,548	795,824	473,400
3,356	21,900	460,326	268,204
4,371	-4,778	317,176	156,177
5,386	-8,892	298,997	143,011
6,400	-10,731	292,843	138,214
7,415	-11,035	290,535	136,809
8,429	-11,345	288,789	135,669
9,444	-11,513	287,998	135,119
10,459	-11,462	287,355	134,856
11,473	-11,384	286,768	134,646
12,488	-11,254	286,150	134,471
13,502	-11,545	285,857	134,037
14,517	-11,305	285,355	134,023
15,531	-11,348	284,715	133,669
16,546	-11,581	284,489	133,324
17,561	-11,317	283,917	133,301
18,575	-11,396	283,684	133,102
19,590	-11,468	283,316	132,848
20,604	-11,353	282,962	132,782
21,619	-11,287	282,462	132,599
22,634	-11,435	282,175	132,309
23,648	-11,590	282,038	132,085
24,663	-11,549	281,683	131,946
25,677	-11,347	281,404	131,998
26,692	-11,474	281,219	131,776
27,707	-11,535	280,912	131,563
28,721	-11,333	280,671	131,632
29,736	-11,532	280,320	131,265
30,750	-11,571	280,045	131,087
31,765	-11,315	279,769	131,191
32,780	-11,374	279,681	131,082
33,794	-11,477	279,318	130,801
34,809	-11,641	279,107	130,535
35,823	-11,587	278,827	130,444
36,838	-11,523	278,482	130,331
37,853	-11,573	278,328	130,200
38,867	-11,339	278,015	130,264
39,882	-11,323	277,820	130,176
40,896	-11,505	277,489	129,837
41,911	-11,399	277,193	129,787
42,926	-11,492	276,999	129,598
43,940	-11,527	276,819	129,468
44,955	-11,408	276,597	129,465
45,969	-11,398	276,350	129,347
46,984	-11,694	276,076	128,929
47,999	-12,139	275,864	128,400
49,013	-12,102	275,541	128,273
50,028	-12,090	275,404	128,209
51,042	-12,313	275,081	127,837
52,057	-12,203	274,733	127,768
53,071	-12,194	274,633	127,719
54,086	-12,161	274,478	127,666
55,101	-11,936	274,171	127,721
56,115	-11,833	273,975	127,715
57,130	-11,436	273,900	128,040
58,144	-11,373	273,503	127,901
59,159	-11,171	273,531	128,091
60,174	-11,429	273,164	127,668
61,188	-11,222	272,965	127,756
62,203	-11,396	272,848	127,528
63,217	-11,281	272,570	127,494
64,232	-11,404	272,383	127,281
65,247	-11,328	272,236	127,271
66,261	-11,377	271,915	127,064
67,276	-11,509	271,630	126,798
68,290	-11,672	271,286	126,475
69,305	-11,786	271,078	126,261
70,320	-11,550	270,919	126,395
71,334	-11,476	270,731	126,363
72,349	-11,273	270,481	126,422
73,363	-11,262	270,206	126,292
74,378	-11,369	270,011	126,092
75,393	-11,388	269,973	126,045
76,407	-11,345	269,631	125,914
77,422	-11,159	269,502	126,013
78,436	-11,357	269,247	125,701
79,451	-11,382	268,994	125,549
80,466	-11,409	268,786	125,416
81,480	-11,361	268,384	125,261
82,495	-11,630	268,366	124,996
83,509	-11,623	268,121	124,877
84,524	-11,620	267,870	124,751
85,539	-11,632	267,534	124,573
86,553	-11,816	267,594	124,422
87,568	-11,714	267,269	124,353
88,582	-11,525	266,943	124,362
89,597	-11,641	266,652	124,110
90,611	-11,454	266,605	124,247
91,626	-11,355	266,531	124,290
92,641	-11,337	266,253	124,166
93,655	-11,277	266,065	124,122
94,670	-11,489	265,999	123,889
95,684	-11,387	265,626	123,795
96,699	-11,282	265,474	123,808
97,714	-11,463	265,275	123,542
98,728	-11,618	265,083	123,302
99,743	-11,692	264,854	123,117
100,757	-11,684	264,518	122,957
101,772	-11,454	264,364	123,081
102,787	-11,494	264,077	122,901
103,801	-11,236	263,969	123,071
104,816	-11,416	263,818	122,828
105,830	-11,482	263,784	122,742
106,845	-11,348	263,488	122,714
107,860	-11,269	263,132	122,607
108,874	-11,352	263,017	122,468
109,889	-11,453	262,903	122,314
110,903	-11,391	262,469	122,157
111,918	-11,542	262,461	122,008
112,933	-11,518	262,345	121,965
113,947	-11,376	262,063	121,949
114,962	-11,363	261,831	121,842
115,976	-11,459	261,603	121,639
116,991	-11,456	261,415	121,543
118,006	-11,562	261,446	121,453
119,020	-11,188	261,092	121,609
120,035	-11,257	261,246	121,609
121,049	-11,427	260,866	121,271
122,064	-11,387	260,705	121,221
123,079	-11,391	260,409	121,069
124,093	-11,546	260,107	120,780
125,108	-11,525	259,795	120,643
126,122	-11,729	259,560	120,345
127,137	-11,781	259,396	120,212
128,151	-11,636	259,286	120,278
129,166	-11,502	259,174	120,333
130,181	-11,637	258,824	120,041
131,195	-11,635	258,619	119,937
132,210	-11,313	258,577	120,188
133,224	-11,463	258,449	119,987
134,239	-11,498	258,265	119,860
135,254	-11,410	258,044	119,824
136,268	-11,325	257,736	119,745
137,283	-11,647	257,500	119,343
138,297	-11,887	257,279	119,022
139,312	-11,882	257,091	118,928
140,327	-11,627	257,010	119,102
141,341	-11,299	256,902	119,326
142,356	-11,269	256,720	119,257
143,370	-11,213	256,616	119,247
144,385	-11,240	256,362	119,095
145,400	-11,306	256,104	118,907
146,414	-11,110	255,812	118,930
147,429	-11,159	255,782	118,863
148,443	-11,318	255,520	118,594
149,458	-11,109	255,497	118,753
150,473	-11,258	255,297	118,521
151,487	-11,211	255,055	118,439
152,502	-11,269	254,863	118,289
153,516	-11,228	254,610	118,196
154,531	-11,230	254,468	118,118
155,546	-11,300	254,325	117,981
156,560	-11,168	254,074	117,967
157,575	-11,371	253,824	117,666
158,589	-11,268	253,779	117,723
159,604	-11,151	253,508	117,688
160,619	-11,086	253,289	117,631
161,633	-11,150	253,128	117,491
162,648	-11,208	253,041	117,390
163,662	-11,102	252,829	117,372
164,677	-11,215	252,733	117,220
165,692	-11,223	252,620	117,151
166,706	-11,309	252,325	116,931
167,721	-11,216	252,093	116,892
168,735	-10,999	252,006	117,026
169,750	-11,262	251,894	116,739
170,764	-10,989	251,798	116,917
171,779	-11,017	251,564	116,774
172,794	-10,979	251,341	116,692
173,808	-11,115	251,276	116,536
174,823	-11,527	250,962	116,032
175,837	-11,572	250,721	115,872
176,852	-11,318	250,641	116,040
177,867	-11,243	250,701	116,120
178,881	-10,962	250,399	116,207
179,896	-11,054	250,146	116,002
180,910	-10,822	249,846	116,047
181,925	-11,135	249,811	115,757
182,940	-11,186	249,697	115,651
183,954	-11,123	249,462	115,585
184,969	-11,027	249,292	115,576
185,983	-11,086	249,126	115,440
186,998	-11,035	248,936	115,384
188,013	-11,057	248,776	115,281
189,027	-11,125	248,641	115,151
190,042	-11,001	248,349	115,110
191,056	-11,018	248,278	115,052
192,071	-11,127	248,167	114,900
193,086	-11,116	247,723	114,693
194,100	-11,167	247,739	114,648
195,115	-11,080	247,619	114,654
196,129	-11,249	247,409	114,406
197,144	-11,054	247,098	114,414
198,159	-11,096	246,836	114,248
199,173	-11,169	246,703	114,115
200,188	-11,046	246,445	114,088
201,202	-11,243	246,286	113,841
202,217	-11,569	246,079	113,465
203,232	-11,464	245,750	113,390
204,246	-11,185	245,858	113,660
205,261	-10,752	245,728	113,948
206,275	-11,809	245,480	112,950
207,290	-7,707	247,103	117,093
208,304	0,419	249,759	125,140
209,319	4,330	250,610	128,825
210,334	4,925	250,574	129,293
211,348	4,820	250,626	129,220
212,363	5,303	250,467	129,530
213,377	5,372	250,430	129,556
214,392	4,940	250,276	129,106
215,407	4,967	250,084	129,017
216,421	5,018	249,918	128,963
217,436	5,195	249,873	129,075
218,450	5,148	249,775	128,974
219,465	4,874	249,455	128,569
220,480	4,876	249,038	128,345
221,494	4,704	249,032	128,187
222,509	4,822	248,846	128,178
223,523	4,806	248,611	128,033
224,538	4,347	248,259	127,461
225,553	4,481	248,381	127,623
226,567	4,697	248,067	127,628
227,582	4,588	247,866	127,424
228,596	4,702	247,770	127,457
229,611	4,367	247,465	127,013
230,626	4,199	247,373	126,816
231,640	4,426	247,107	126,855
232,655	4,686	247,050	127,028
233,669	4,375	246,779	126,622
234,684	4,242	246,658	126,440
235,699	4,549	246,673	126,688
236,713	4,844	246,422	126,789
237,728	4,653	246,170	126,492
238,742	4,306	245,918	126,068
239,757	4,405	245,690	126,020
240,772	4,208	245,669	125,837
241,786	4,393	245,643	125,964
242,801	4,214	245,452	125,709
243,815	4,339	245,146	125,643
244,830	4,592	245,175	125,853
245,844	4,694	245,126	125,899
246,859	4,577	244,780	125,615
247,874	4,716	244,488	125,567
248,888	4,377	244,510	125,292
249,903	4,567	244,369	125,363
250,917	4,547	244,257	125,278
251,932	5,006	244,066	125,540
252,947	4,775	243,819	125,215
253,961	4,611	243,595	124,956
254,976	4,763	243,509	125,024
255,990	4,722	243,392	124,919
257,005	4,549	243,188	124,665
258,020	4,286	242,986	124,338
259,034	4,361	242,922	124,354
260,049	4,651	242,698	124,462
261,063	4,711	242,489	124,392
262,078	4,297	242,336	123,969
263,093	4,453	242,294	124,062
264,107	4,519	242,206	124,059
265,122	4,313	242,073	123,815
266,136	4,650	241,791	123,930
267,151	4,704	241,912	124,024
268,166	4,425	241,425	123,540
269,180	4,421	241,237	123,429
270,195	4,918	241,334	123,865
271,209	4,992	241,276	123,884
272,224	4,561	240,986	123,380
273,239	4,200	240,637	122,902
274,253	4,263	240,441	122,842
275,268	4,672	240,354	123,111
276,282	4,573	240,310	122,999
277,297	4,275	240,099	122,644
278,312	4,576	239,881	122,760
279,326	4,496	239,822	122,655
280,341	4,531	239,709	122,615
281,355	4,556	239,569	122,552
282,370	4,522	239,521	122,489
283,384	4,513	239,231	122,323
284,399	4,383	239,012	122,097
285,414	4,126	238,881	121,816
286,428	4,377	238,786	121,955
287,443	4,282	238,737	121,844
288,457	4,591	238,420	121,916
289,472	4,756	238,298	121,972
290,487	4,508	238,196	121,714
291,501	4,301	237,938	121,408
292,516	3,946	237,737	121,015
293,530	4,104	237,591	121,055
294,545	4,549	237,554	121,375
295,560	4,633	237,418	121,360
296,574	4,219	237,293	120,961
297,589	4,196	237,104	120,836
298,603	4,654	237,069	121,166
299,618	4,570	236,870	120,988
300,633	4,436	236,775	120,824
301,647	4,724	236,646	120,972
302,662	4,878	236,453	120,983
303,676	5,029	236,325	121,025
304,691	4,911	236,150	120,832
305,706	5,007	236,136	120,889
306,720	4,850	235,878	120,624
307,735	4,953	235,640	120,571
308,749	4,607	235,426	120,182
309,764	4,515	235,284	120,028
310,779	4,334	234,994	119,729
311,793	4,095	234,900	119,485
312,808	4,248	234,762	119,522
313,822	4,154	234,448	119,279
314,837	4,260	234,259	119,254
315,852	4,105	234,257	119,123
316,866	4,349	234,222	119,282
317,881	4,798	234,182	119,599
318,895	4,897	234,124	119,635
319,910	4,979	233,895	119,571
320,925	4,637	233,542	119,116
321,939	4,103	233,520	118,683
322,954	4,489	233,462	118,940
323,968	4,606	233,303	118,938
324,983	4,624	233,172	118,875
325,997	4,891	233,063	119,014
327,012	4,735	232,837	118,768
328,027	4,678	232,579	118,582
329,041	5,002	232,588	118,825
330,056	5,205	232,710	119,032
331,070	5,249	232,418	118,906
332,085	4,769	232,171	118,402
333,100	4,708	231,993	118,254
334,114	4,589	231,843	118,076
335,129	4,788	231,811	118,201
336,143	4,980	231,737	118,299
337,158	5,061	231,220	118,086
338,173	4,670	231,115	117,725
339,187	4,420	230,945	117,437
340,202	4,742	230,823	117,610
341,216	4,612	230,863	117,520
342,231	4,524	230,590	117,305
343,246	4,487	230,561	117,251
344,260	4,625	230,403	117,265
345,275	4,857	230,186	117,320
346,289	4,717	230,234	117,228
347,304	4,951	230,165	117,359
348,319	4,885	229,866	117,147
349,333	4,513	229,669	116,754
350,348	4,446	229,526	116,621
351,362	4,622	229,351	116,654
352,377	4,537	229,128	116,466
353,392	4,334	228,921	116,198
354,406	4,277	228,903	116,135
355,421	195,115	1319,319	1393,476
356,435	156,484	1452,126	1393,434
