DTS Sentinel unit serial number:	SN410029Multiplexer serial number:	ORYXHardware model number:	OX2-SRSoftware version number:	ORYX F/W v4,00 Oryx Data Collector v3.7.2.0data status	okinstallation	B5 Nyhavnadifferential loss correction	single-endedforward channel	channel 2reverse channel	N/Adate	2023/12/12time	05:27:13forward acquisition time	300,00reverse acquisition time	0,00gamma	499,1914k internal	0,3157k external	0,3157temperature offset calibration	1,0000default loss term (dB/km)	0,3820temperature slope calibration	1,0000multiplexer offset coefficient	1,0000multiplexer slope coefficient	1,0000fibre end	0,00T internal ref (°C)	15,37T ext. ref 1 (°C)	-1,04T ext. ref 2 (°C)	-1,35length (m)	temperature (°C)	Stokes	anti-Stokes-744,400	-145,250	0,131	0,009
-743,385	-77,869	-0,227	0,057
-742,371	-45,919	0,014	0,005
-741,356	-195,379	-0,285	0,002
-740,342	-200,000	-0,001	-0,136
-739,327	-108,109	-0,257	0,041
-738,312	589,591	0,026	-0,048
-737,298	-22,645	-0,278	-0,123
-736,283	-79,408	0,211	-0,052
-735,269	122,064	-0,203	0,187
-734,254	-200,000	0,033	0,109
-733,239	-61,300	-0,560	-0,173
-732,225	-108,345	0,096	0,015
-731,210	-75,636	-0,054	-0,014
-730,196	243,704	-0,026	-0,033
-729,181	250,854	0,065	0,081
-728,167	67,077	-0,105	-0,079
-727,152	800,000	-0,010	0,029
-726,137	384,110	-0,085	0,129
-725,123	193,970	-0,068	-0,076
-724,108	-200,000	0,051	-0,203
-723,094	800,000	0,011	-0,031
-722,079	476,037	-0,085	-0,142
-721,064	-85,081	0,073	-0,017
-720,050	-200,000	-0,003	-0,125
-719,035	72,253	-0,019	0,015
-718,021	399,275	0,038	-0,059
-717,006	-48,936	-0,065	-0,023
-715,991	-200,000	-0,002	-0,008
-714,977	-200,000	-0,003	0,058
-713,962	-59,614	-0,178	-0,056
-712,948	-38,061	0,141	0,055
-711,933	-200,000	0,013	-0,157
-710,918	-96,685	-0,167	-0,032
-709,904	-129,786	0,034	-0,003
-708,889	-21,093	0,020	-0,009
-707,875	800,000	-0,011	0,025
-706,860	-92,220	-0,080	0,016
-705,845	189,301	-0,018	-0,019
-704,831	-145,872	0,134	0,009
-703,816	-200,000	-0,011	-0,103
-702,802	761,549	-0,033	0,066
-701,787	190,255	0,111	-0,123
-700,772	-177,964	-0,183	0,003
-699,758	800,000	0,052	0,108
-698,743	240,873	0,118	0,145
-697,729	-200,000	-0,006	0,132
-696,714	-200,000	-0,016	0,113
-695,699	-59,952	-0,088	0,027
-694,685	145,821	-0,042	0,041
-693,670	800,000	-0,074	-0,206
-692,656	-26,407	0,098	-0,042
-691,641	-113,451	0,032	-0,005
-690,627	-53,104	-0,077	-0,026
-689,612	-30,000	0,071	0,029
-688,597	97,587	-0,192	0,162
-687,583	-36,331	0,120	0,047
-686,568	-103,481	0,077	0,013
-685,554	-61,848	-0,093	-0,029
-684,539	32,048	0,019	-0,012
-683,524	144,086	-0,106	0,104
-682,510	-55,477	0,091	-0,030
-681,495	-200,000	-0,009	-0,033
-680,481	528,651	0,025	-0,043
-679,466	238,394	-0,072	-0,089
-678,451	34,575	-0,159	-0,102
-677,437	-58,737	0,051	0,016
-676,422	231,740	-0,074	-0,090
-675,408	13,786	-0,173	-0,099
-674,393	265,955	0,035	-0,045
-673,378	-200,000	-0,011	0,077
-672,364	-101,736	0,039	-0,007
-671,349	-200,000	0,017	-0,090
-670,335	44,900	0,060	-0,040
-669,320	-86,220	0,061	0,014
-668,305	-48,496	0,080	-0,028
-667,291	32,089	-0,066	-0,042
-666,276	-101,019	0,082	0,015
-665,262	117,977	-0,058	-0,053
-664,247	-18,329	-0,105	-0,048
-663,232	69,505	0,062	-0,047
-662,218	-90,692	0,085	0,018
-661,203	-20,068	-0,091	0,041
-660,189	-94,930	0,045	0,009
-659,174	-132,017	-0,122	-0,011
-658,159	85,671	0,057	0,046
-657,145	-200,000	-0,019	-0,102
-656,130	-200,000	0,010	-0,158
-655,116	800,000	-0,092	-0,211
-654,101	-139,384	0,225	-0,017
-653,086	-200,000	0,016	-0,053
-652,072	546,317	-0,028	0,050
-651,057	-53,551	-0,147	-0,049
-650,043	-165,715	-0,024	0,001
-649,028	800,000	-0,056	-0,127
-648,014	102,745	-0,044	-0,038
-646,999	-200,000	-0,033	-0,121
-645,984	-198,240	0,131	0,001
-644,970	800,000	-0,070	0,145
-643,955	-77,877	-0,184	-0,046
-642,941	244,844	0,066	-0,081
-641,926	219,084	-0,194	-0,228
-640,911	37,927	0,087	0,057
-639,897	-200,000	0,010	0,036
-638,882	476,115	0,023	-0,038
-637,868	-100,536	-0,228	0,041
-636,853	-75,440	0,082	-0,021
-635,838	-128,152	-0,274	0,028
-634,824	502,489	0,012	0,021
-633,809	-72,494	0,096	-0,026
-632,795	-200,000	0,001	-0,042
-631,780	-200,000	0,003	-0,036
-630,765	109,310	-0,100	0,088
-629,751	-161,681	-0,164	0,006
-628,736	800,000	-0,010	-0,023
-627,722	-169,769	-0,121	0,003
-626,707	800,000	0,054	0,159
-625,692	-82,881	0,029	-0,007
-624,678	-156,841	-0,123	0,005
-623,663	-200,000	-0,003	0,033
-622,649	374,723	-0,022	-0,034
-621,634	-78,525	-0,255	0,063
-620,619	600,465	-0,084	0,153
-619,605	-119,682	0,096	-0,012
-618,590	800,000	0,017	-0,036
-617,576	-122,732	-0,068	0,008
-616,561	-200,000	0,036	-0,161
-615,546	-29,145	-0,167	0,070
-614,532	-200,000	-0,007	-0,027
-613,517	-200,000	0,042	0,159
-612,503	258,274	-0,050	-0,064
-611,488	-106,655	0,102	0,016
-610,474	-77,736	0,071	0,018
-609,459	45,198	0,120	-0,081
-608,444	-200,000	0,009	-0,051
-607,430	-107,003	0,122	0,020
-606,415	-36,260	-0,130	0,051
-605,401	129,353	-0,034	0,032
-604,386	7,531	-0,131	0,072
-603,371	-129,245	0,075	-0,008
-602,357	189,344	0,027	-0,029
-601,342	-92,009	-0,172	0,035
-600,328	-67,413	-0,049	0,014
-599,313	247,353	-0,038	0,047
-598,298	-11,460	0,082	0,039
-597,284	-12,822	-0,027	-0,013
-596,269	41,548	-0,109	-0,072
-595,255	800,000	0,027	0,066
-594,240	377,704	0,038	0,056
-593,225	-196,584	0,068	-0,000
-592,211	800,000	-0,031	-0,073
-591,196	109,970	-0,039	-0,035
-590,182	-31,363	0,110	-0,045
-589,167	-94,232	-0,035	-0,007
-588,152	-200,000	-0,003	-0,023
-587,138	800,000	-0,034	0,104
-586,123	800,000	0,011	0,034
-585,109	175,107	-0,050	-0,053
-584,094	-1,565	-0,126	-0,065
-583,079	-50,048	-0,111	-0,038
-582,065	-79,420	0,052	-0,013
-581,050	-154,698	-0,052	0,002
-580,036	197,471	-0,085	-0,095
-579,021	-64,363	-0,031	-0,009
-578,006	65,694	0,038	-0,028
-576,992	-200,000	-0,004	0,023
-575,977	-19,685	0,151	0,068
-574,963	800,000	-0,022	0,047
-573,948	22,513	-0,074	-0,044
-572,934	185,293	0,040	-0,044
-571,919	195,097	-0,108	-0,121
-570,904	698,719	0,013	-0,025
-569,890	800,000	0,007	-0,019
-568,875	154,373	-0,036	-0,036
-567,861	-200,000	-0,004	0,031
-566,846	-30,949	0,097	0,040
-565,831	800,000	-0,061	0,126
-564,817	8,765	0,063	0,035
-563,802	476,986	0,035	-0,059
-562,788	367,429	-0,054	-0,080
-561,773	-200,000	-0,023	-0,075
-560,758	800,000	-0,061	0,139
-559,744	35,804	0,068	0,043
-558,729	524,777	-0,026	0,045
-557,715	123,264	-0,061	-0,056
-556,700	-78,539	-0,172	-0,043
-555,685	77,899	-0,043	-0,033
-554,671	374,268	-0,062	0,093
-553,656	-86,713	0,147	0,033
-552,642	-162,309	0,085	0,003
-551,627	-15,849	0,025	0,012
-550,612	-60,880	-0,154	0,047
-549,598	192,230	-0,056	0,061
-548,583	800,000	0,062	-0,144
-547,569	152,905	0,083	-0,084
-546,554	-111,061	-0,033	0,005
-545,539	80,427	0,098	0,077
-544,525	-200,000	-0,001	0,048
-543,510	87,057	-0,080	0,064
-542,496	-200,000	0,040	-0,225
-541,481	-97,191	-0,108	0,020
-540,466	0,875	-0,031	-0,016
-539,452	-200,000	0,017	-0,180
-538,437	-124,938	-0,140	-0,016
-537,423	102,958	0,069	0,059
-536,408	-200,000	0,020	0,072
-535,393	-126,663	-0,101	-0,011
-534,379	-138,296	-0,171	0,014
-533,364	-118,279	0,123	0,016
-532,350	-182,909	0,135	0,002
-531,335	-84,017	-0,162	-0,037
-530,321	267,160	-0,035	0,045
-529,306	-27,829	0,077	0,033
-528,291	-200,000	-0,016	-0,107
-527,277	-122,040	0,079	-0,009
-526,262	800,000	0,012	-0,033
-525,248	-200,000	0,047	-0,153
-524,233	383,353	-0,030	0,045
-523,218	-12,166	0,013	0,006
-522,204	262,590	-0,047	-0,060
-521,189	-200,000	0,003	0,100
-520,175	452,883	0,033	-0,054
-519,160	800,000	-0,036	-0,114
-518,145	-18,716	0,132	0,060
-517,131	587,050	0,081	0,146
-516,116	-9,894	0,104	0,050
-515,102	-200,000	-0,009	0,042
-514,087	800,000	-0,032	-0,086
-513,072	-66,601	-0,118	0,034
-512,058	545,240	0,045	-0,080
-511,043	-169,787	-0,006	-0,000
-510,029	85,935	0,058	0,047
-509,014	39,106	0,092	-0,060
-507,999	27,163	-0,110	0,067
-506,985	154,081	-0,087	0,087
-505,970	-50,085	0,124	0,043
-504,956	-200,000	0,030	-0,110
-503,941	800,000	-0,048	0,127
-502,926	102,883	0,195	0,167
-501,912	-200,000	-0,004	0,126
-500,897	96,505	0,082	-0,068
-499,883	-68,344	-0,115	0,032
-498,868	152,814	-0,090	-0,090
-497,853	650,498	-0,032	-0,060
-496,839	4,974	0,038	-0,020
-495,824	402,898	0,037	-0,057
-494,810	189,991	0,053	0,058
-493,795	800,000	0,023	-0,061
-492,781	800,000	-0,050	-0,158
-491,766	48,456	0,072	0,049
-490,751	-43,134	-0,103	0,038
-489,737	60,414	0,058	0,042
-488,722	27,414	-0,116	-0,071
-487,708	253,182	0,016	-0,020
-486,693	800,000	-0,024	0,068
-485,678	-101,362	0,037	-0,007
-484,664	-41,501	-0,004	-0,002
-483,649	67,674	0,026	0,020
-482,635	114,064	-0,133	0,118
-481,620	-48,640	0,096	0,033
-480,605	-112,139	0,131	0,019
-479,591	510,239	0,001	-0,002
-478,576	57,100	0,133	-0,094
-477,562	-78,698	-0,170	-0,042
-476,547	-200,000	-0,003	-0,059
-475,532	-200,000	0,029	-0,104
-474,518	118,580	0,037	0,033
-473,503	-83,229	0,181	0,042
-472,489	224,662	0,040	0,048
-471,474	525,499	0,048	0,082
-470,459	-120,698	-0,091	0,011
-469,445	-96,949	-0,220	-0,042
-468,430	-160,031	0,062	0,002
-467,416	-55,866	-0,071	-0,023
-466,401	800,000	-0,062	0,196
-465,386	-62,631	-0,095	-0,029
-464,372	222,297	0,047	0,056
-463,357	204,166	0,099	0,112
-462,343	-128,217	-0,116	-0,012
-461,328	69,752	0,118	0,089
-460,313	-200,000	0,013	-0,056
-459,299	241,282	0,098	-0,120
-458,284	91,765	0,014	0,012
-457,270	604,158	0,054	0,099
-456,255	800,000	0,010	-0,029
-455,241	-96,450	-0,024	0,005
-454,226	115,536	0,064	-0,057
-453,211	-129,723	0,135	-0,013
-452,197	10,054	-0,084	0,047
-451,182	157,431	0,034	-0,034
-450,168	127,913	0,020	-0,018
-449,153	278,963	0,078	-0,102
-448,138	-200,000	0,011	-0,188
-447,124	800,000	0,035	-0,098
-446,109	-200,000	0,006	0,102
-445,095	-16,999	0,034	-0,015
-444,080	198,606	0,014	0,015
-443,065	800,000	-0,038	-0,089
-442,051	614,552	-0,059	-0,107
-441,036	68,639	-0,059	0,044
-440,022	-83,477	0,039	0,009
-439,007	146,460	0,036	-0,035
-437,992	-124,384	0,088	0,010
-436,978	-67,177	-0,113	-0,032
-435,963	795,214	-0,046	0,093
-434,949	5,778	0,045	0,024
-433,934	-200,000	-0,029	-0,140
-432,919	-122,438	0,067	0,008
-431,905	-169,965	-0,036	0,001
-430,890	-193,247	0,121	-0,001
-429,876	217,183	0,117	0,136
-428,861	-1,511	0,059	-0,030
-427,846	-127,791	-0,158	-0,016
-426,832	-200,000	-0,006	0,165
-425,817	-4,103	-0,048	-0,024
-424,803	57,709	-0,020	0,014
-423,788	800,000	0,075	-0,197
-422,773	-200,000	0,009	-0,067
-421,759	225,054	0,055	0,065
-420,744	-200,000	0,000	0,028
-419,730	46,678	-0,059	-0,040
-418,715	-200,000	0,008	-0,112
-417,701	-200,000	0,027	-0,092
-416,686	-52,215	0,080	0,027
-415,671	800,000	0,043	0,090
-414,657	-200,000	0,011	0,174
-413,642	269,408	0,083	0,106
-412,628	-107,982	-0,072	-0,011
-411,613	128,248	-0,110	0,102
-410,598	119,302	-0,095	0,085
-409,584	-200,000	0,005	-0,060
-408,569	-118,007	0,161	0,021
-407,555	-34,757	0,101	0,040
-406,540	-127,985	0,075	-0,008
-405,525	243,138	-0,049	-0,060
-404,511	434,460	0,060	-0,095
-403,496	228,637	-0,018	-0,021
-402,482	1,514	-0,138	-0,072
-401,467	629,203	0,064	-0,117
-400,452	159,624	0,135	-0,137
-399,438	-20,918	0,140	-0,062
-398,423	-200,000	0,028	0,159
-397,409	-65,699	-0,077	0,022
-396,394	286,234	-0,084	0,111
-395,379	0,064	-0,109	0,056
-394,365	285,385	0,037	-0,048
-393,350	-200,000	-0,012	0,041
-392,336	710,548	-0,037	0,072
-391,321	-170,020	-0,032	0,001
-390,306	-200,000	-0,059	0,000
-389,292	23,594	-0,139	-0,083
-388,277	-106,361	0,158	-0,025
-387,263	-50,484	0,086	-0,029
-386,248	13,212	0,081	0,045
-385,233	17,978	0,146	-0,085
-384,219	800,000	-0,031	-0,075
-383,204	319,567	0,015	0,020
-382,190	-14,325	-0,058	0,027
-381,175	179,916	0,045	0,048
-380,160	145,004	0,051	0,050
-379,146	800,000	0,034	0,104
-378,131	39,162	0,130	0,085
-377,117	-73,825	-0,138	0,036
-376,102	20,826	-0,070	-0,041
-375,088	151,144	0,105	-0,104
-374,073	-56,997	-0,226	0,072
-373,058	783,445	0,035	-0,070
-372,044	52,911	-0,165	0,115
-371,029	-155,279	0,080	-0,004
-370,015	567,199	0,053	0,094
-369,000	497,791	-0,017	0,028
-367,985	-150,693	-0,145	-0,008
-366,971	-200,000	-0,015	0,103
-365,956	-200,000	-0,040	0,199
-364,942	-70,391	0,114	0,031
-363,927	-200,000	0,024	0,139
-362,912	139,786	-0,030	0,029
-361,898	-200,000	0,002	0,100
-360,883	-120,783	0,064	0,008
-359,869	470,808	0,074	0,121
-358,854	-9,322	0,116	0,056
-357,839	452,625	-0,021	-0,034
-356,825	-200,000	-0,024	0,123
-355,810	-66,020	-0,040	0,012
-354,796	800,000	0,055	0,135
-353,781	-67,236	-0,077	-0,022
-352,766	-117,343	-0,050	-0,007
-351,752	-2,260	0,118	-0,060
-350,737	-200,000	-0,004	0,019
-349,723	-90,496	0,079	0,017
-348,708	-108,214	-0,038	-0,006
-347,693	17,204	-0,076	-0,044
-346,679	121,998	-0,106	-0,096
-345,664	55,522	0,133	-0,093
-344,650	800,000	-0,045	0,115
-343,635	-200,000	0,004	0,098
-342,620	-89,419	0,069	-0,015
-341,606	-35,878	0,136	0,053
-340,591	784,927	-0,032	0,064
-339,577	16,112	0,034	-0,019
-338,562	800,000	0,009	-0,029
-337,548	800,000	0,054	-0,136
-336,533	-200,000	0,031	0,121
-335,518	800,000	0,036	0,099
-334,504	706,027	0,015	0,029
-333,489	70,744	0,086	-0,065
-332,475	136,116	-0,102	-0,096
-331,460	49,266	0,040	-0,027
-330,445	-200,000	-0,002	0,058
-329,431	435,948	0,021	-0,033
-328,416	29,382	0,033	0,020
-327,402	-200,000	0,019	0,121
-326,387	-200,000	-0,015	0,140
-325,372	-200,000	-0,003	-0,070
-324,358	224,935	-0,007	0,009
-323,343	286,626	0,052	-0,069
-322,329	195,708	-0,066	0,073
-321,314	-90,531	0,104	-0,022
-320,299	-2,250	-0,051	0,026
-319,285	-76,891	0,132	-0,033
-318,270	-200,000	0,011	-0,130
-317,256	450,908	0,038	-0,062
-316,241	-109,964	-0,201	0,030
-315,226	-200,000	-0,011	-0,090
-314,212	-37,138	0,135	0,052
-313,197	-200,000	0,011	-0,084
-312,183	321,834	-0,077	-0,106
-311,168	800,000	-0,031	0,081
-310,153	-200,000	-0,011	-0,184
-309,139	45,443	-0,107	-0,071
-308,124	602,359	-0,039	0,070
-307,110	142,060	0,056	-0,054
-306,095	574,030	0,061	-0,108
-305,080	-72,004	-0,066	0,018
-304,066	29,332	0,016	0,010
-303,051	201,897	-0,044	0,050
-302,037	-11,373	0,045	0,021
-301,022	-200,000	0,007	-0,071
-300,008	-65,442	0,060	-0,017
-298,993	317,318	0,097	0,133
-297,978	325,806	0,027	-0,038
-296,964	228,938	0,083	0,099
-295,949	-200,000	0,012	0,131
-294,935	146,927	-0,107	-0,105
-293,920	-165,631	-0,037	0,001
-292,905	-103,105	0,068	-0,012
-291,891	24,040	0,130	0,077
-290,876	-67,920	-0,196	0,055
-289,862	-47,062	0,077	0,027
-288,847	800,000	-0,080	-0,220
-287,832	-94,291	0,037	-0,007
-286,818	250,666	-0,056	0,069
-285,803	-39,525	0,041	0,015
-284,789	800,000	-0,004	-0,011
-283,774	-47,727	-0,107	-0,037
-282,759	-200,000	-0,020	0,119
-281,745	-97,486	-0,078	-0,015
-280,730	800,000	-0,011	-0,033
-279,716	-200,000	0,019	-0,105
-278,701	317,600	-0,040	0,056
-277,686	-200,000	0,018	0,071
-276,672	480,260	0,011	-0,019
-275,657	-66,770	-0,067	0,019
-274,643	147,800	0,041	0,040
-273,628	-128,164	-0,015	0,002
-272,613	-200,000	0,010	0,104
-271,599	-75,103	-0,033	-0,008
-270,584	-70,844	0,153	0,041
-269,570	311,050	-0,004	-0,005
-268,555	-41,591	0,069	0,025
-267,540	-61,832	-0,036	-0,011
-266,526	-27,648	-0,072	-0,030
-265,511	615,043	0,031	-0,056
-264,497	-200,000	0,021	-0,084
-263,482	619,639	0,018	0,033
-262,467	222,411	0,036	0,042
-261,453	-148,165	-0,050	-0,003
-260,438	751,914	-0,029	-0,058
-259,424	800,000	0,042	-0,105
-258,409	22,064	0,072	-0,042
-257,395	-124,423	0,065	0,007
-256,380	83,735	0,087	0,069
-255,365	-139,428	0,091	-0,007
-254,351	-200,000	0,005	-0,059
-253,336	-89,053	0,041	0,009
-252,322	800,000	-0,016	-0,046
-251,307	-200,000	-0,003	-0,079
-250,292	9,675	0,050	-0,027
-249,278	43,833	0,050	0,033
-248,263	-200,000	0,006	0,051
-247,249	636,344	-0,079	0,146
-246,234	477,332	0,024	-0,040
-245,219	-79,320	0,021	0,005
-244,205	57,211	0,126	0,089
-243,190	262,886	0,061	0,076
-242,176	10,802	0,023	0,012
-241,161	800,000	0,027	0,075
-240,146	114,883	-0,121	0,106
-239,132	-200,000	-0,001	0,097
-238,117	83,277	0,091	0,071
-237,103	114,002	-0,091	0,080
-236,088	-113,663	0,060	-0,008
-235,073	499,270	0,060	0,101
-234,059	-200,000	0,055	0,187
-233,044	800,000	-0,026	0,078
-232,030	124,863	0,067	-0,061
-231,015	43,201	-0,069	-0,045
-230,000	421,857	0,049	-0,077
-228,986	-185,156	-0,064	-0,001
-227,971	800,000	0,029	0,059
-226,957	231,307	-0,029	0,034
-225,942	-200,000	0,015	0,089
-224,927	-107,691	-0,081	0,013
-223,913	800,000	-0,053	-0,133
-222,898	358,588	-0,076	-0,110
-221,884	-200,000	0,020	-0,081
-220,869	-39,772	-0,051	-0,019
-219,855	94,434	0,058	-0,047
-218,840	134,806	-0,045	-0,042
-217,825	637,742	-0,046	0,085
-216,811	-36,416	0,110	0,043
-215,796	6,128	0,034	0,018
-214,782	-193,092	0,027	0,000
-213,767	-200,000	-0,036	-0,139
-212,752	-200,000	0,010	0,063
-211,738	295,294	0,116	0,154
-210,723	46,380	-0,111	-0,074
-209,709	-184,388	0,028	0,000
-208,694	7,615	-0,185	-0,099
-207,679	225,250	-0,041	-0,048
-206,665	700,195	0,104	0,198
-205,650	126,599	-0,078	0,072
-204,636	-94,718	0,098	0,019
-203,621	199,332	-0,030	-0,033
-202,606	460,271	0,049	-0,079
-201,592	-200,000	0,025	-0,125
-200,577	695,875	0,028	-0,053
-199,563	-111,964	0,094	-0,013
-198,548	-200,000	0,004	-0,043
-197,533	-156,422	-0,071	-0,003
-196,519	268,364	-0,021	-0,027
-195,504	800,000	-0,023	0,057
-194,490	800,000	-0,042	-0,107
-193,475	-97,124	-0,094	0,018
-192,460	-200,000	-0,014	0,168
-191,446	70,645	0,065	0,048
-190,431	-200,000	0,039	-0,209
-189,417	507,942	-0,022	-0,036
-188,402	82,028	-0,025	0,020
-187,387	800,000	0,061	-0,191
-186,373	15,837	0,110	-0,062
-185,358	694,682	0,034	-0,065
-184,344	-200,000	-0,006	0,078
-183,329	800,000	-0,025	-0,077
-182,315	328,568	0,033	-0,045
-181,300	-89,053	-0,119	0,025
-180,285	175,037	-0,081	0,085
-179,271	384,823	-0,062	0,093
-178,256	800,000	0,024	-0,069
-177,242	116,687	0,186	-0,164
-176,227	150,214	0,027	0,026
-175,212	-200,000	0,028	0,099
-174,198	305,617	0,081	-0,109
-173,183	279,973	-0,075	-0,097
-172,169	800,000	0,014	0,035
-171,154	-42,649	-0,151	-0,055
-170,139	-200,000	-0,017	-0,147
-169,125	800,000	0,035	-0,100
-168,110	672,287	0,028	0,052
-167,096	800,000	-0,067	-0,156
-166,081	-91,837	-0,133	0,027
-165,066	-200,000	-0,015	-0,098
-164,052	-200,000	-0,010	-0,125
-163,037	713,971	0,049	-0,095
-162,023	-52,390	0,130	0,043
-161,008	91,508	-0,095	-0,077
-159,993	-102,257	0,097	0,017
-158,979	212,546	0,017	-0,020
-157,964	-147,114	-0,127	0,008
-156,950	-66,498	-0,150	0,043
-155,935	800,000	-0,040	0,107
-154,920	351,630	0,066	0,094
-153,906	800,000	0,010	-0,031
-152,891	464,392	0,062	-0,100
-151,877	-21,928	-0,181	0,079
-150,862	-200,000	0,029	-0,102
-149,847	76,541	0,027	0,021
-148,833	-130,104	-0,062	-0,006
-147,818	800,000	0,047	0,100
-146,804	-200,000	-0,011	0,048
-145,789	-38,592	0,017	0,006
-144,775	-200,000	-0,006	0,082
-143,760	800,000	-0,031	-0,064
-142,745	-200,000	0,007	-0,026
-141,731	-40,508	0,104	-0,039
-140,716	15,919	0,041	-0,023
-139,702	196,343	0,024	-0,026
-138,687	167,773	-0,065	-0,067
-137,672	-121,085	0,159	-0,019
-136,658	-79,323	-0,010	-0,002
-135,643	-31,456	0,079	-0,032
-134,629	-74,494	0,029	0,007
-133,614	-118,071	-0,069	0,009
-132,599	51,053	0,092	0,062
-131,585	205,052	-0,057	0,064
-130,570	-200,000	0,023	-0,073
-129,556	-200,000	0,003	-0,124
-128,541	-129,575	-0,055	-0,005
-127,526	-189,921	-0,047	-0,000
-126,512	800,000	0,038	0,116
-125,497	-200,000	0,010	0,175
-124,483	800,000	0,024	-0,072
-123,468	-53,807	0,053	-0,017
-122,453	178,650	-0,029	-0,030
-121,439	7,789	-0,056	0,030
-120,424	800,000	-0,024	-0,061
-119,410	-200,000	-0,019	-0,076
-118,395	800,000	-0,032	-0,101
-117,380	-200,000	0,017	0,064
-116,366	533,132	0,011	-0,018
-115,351	385,056	-0,040	0,060
-114,337	81,717	0,128	-0,100
-113,322	-200,000	0,000	0,025
-112,307	409,019	0,010	0,015
-111,293	-102,955	-0,059	0,010
-110,278	-98,501	0,105	0,019
-109,264	800,000	-0,033	-0,078
-108,249	800,000	0,026	-0,074
-107,234	-120,100	-0,142	-0,017
-106,220	-52,996	-0,025	-0,008
-105,205	-200,000	0,016	-0,165
-104,191	-121,052	0,101	0,012
-103,176	-99,981	0,068	-0,012
-102,162	-160,487	0,043	0,002
-101,147	179,725	0,093	-0,098
-100,132	-56,933	0,016	0,005
-99,118	36,880	0,131	0,083
-98,103	-48,645	-0,056	0,019
-97,089	261,098	-0,018	-0,022
-96,074	-162,448	0,083	0,003
-95,059	800,000	-0,028	-0,061
-94,045	-172,425	-0,072	-0,002
-93,030	-110,512	0,079	-0,012
-92,016	125,793	0,078	-0,070
-91,001	-26,108	0,092	0,039
-89,986	28,029	-0,057	-0,034
-88,972	308,483	0,039	-0,053
-87,957	147,804	0,039	0,037
-86,943	-72,939	0,009	-0,002
-85,928	60,062	-0,044	-0,031
-84,913	-107,492	-0,117	0,018
-83,899	-200,000	0,010	-0,139
-82,884	9,301	-0,092	-0,050
-81,870	-200,000	-0,012	0,044
-80,855	447,339	0,007	0,011
-79,840	557,270	0,024	0,042
-78,826	790,529	0,058	0,116
-77,811	117,038	-0,030	-0,027
-76,797	800,000	-0,042	0,089
-75,782	-119,612	0,161	0,020
-74,767	-34,593	0,024	0,009
-73,753	-75,442	0,076	-0,019
-72,738	91,904	0,048	-0,039
-71,724	63,387	-0,080	-0,057
-70,709	-52,594	-0,020	-0,007
-69,694	265,053	-0,083	0,104
-68,680	-200,000	0,004	-0,155
-67,665	-200,000	-0,018	-0,079
-66,651	-96,853	0,090	0,017
-65,636	-42,396	-0,036	-0,013
-64,622	-23,128	-0,109	0,047
-63,607	-29,385	0,132	0,054
-62,592	800,000	0,037	-0,089
-61,578	-152,658	0,052	0,003
-60,563	13,361	0,077	-0,043
-59,549	-7,891	-0,085	-0,041
-58,534	-31,643	-2,083	-0,836
-57,519	800,000	-0,279	-0,739
-56,505	-200,000	-1,266	-4,866
-55,490	-12,847	0,730	0,340
-54,476	800,000	5,520	12,216
-53,461	-200,000	17,475	283,106
-52,446	800,000	727,038	2214,271
-51,432	535,062	1643,428	2807,896
-50,417	110,113	1633,948	1407,452
-49,403	75,573	1286,606	974,087
-48,388	32,106	1027,619	634,515
-47,373	20,182	989,605	571,720
-46,359	18,521	977,449	559,229
-45,344	15,736	973,510	547,841
-44,330	15,938	972,069	547,668
-43,315	15,435	970,204	544,952
-42,300	15,360	969,128	544,082
-41,286	15,350	968,189	543,502
-40,271	15,316	967,166	542,794
-39,257	15,379	966,141	542,402
-38,242	15,458	965,176	542,097
-37,227	15,392	964,447	541,452
-36,213	15,403	963,594	540,986
-35,198	15,347	962,713	540,288
-34,184	15,457	961,976	540,209
-33,169	15,360	961,144	539,407
-32,154	15,412	960,205	539,026
-31,140	15,411	959,280	538,484
-30,125	15,428	958,488	538,072
-29,111	15,415	957,598	537,508
-28,096	15,451	957,023	537,279
-27,082	15,394	956,527	536,798
-26,067	15,371	955,593	536,178
-25,052	15,426	954,807	535,893
-24,038	15,439	954,144	535,539
-23,023	15,408	953,497	535,056
-22,009	15,374	952,862	534,569
-20,994	15,436	952,320	534,444
-19,979	15,417	951,635	533,977
-18,965	15,408	950,941	533,539
-17,950	15,400	950,395	533,183
-16,936	15,399	949,586	532,708
-15,921	15,331	949,027	532,154
-14,906	15,244	948,265	531,429
-13,892	15,318	947,677	531,315
-12,877	15,300	946,852	530,773
-11,863	15,292	946,302	530,418
-10,848	15,258	945,982	530,111
-9,833	15,381	945,251	530,071
-8,819	15,377	944,812	529,790
-7,804	15,371	944,030	529,310
-6,790	15,313	943,649	528,893
-5,775	15,341	942,968	528,579
-4,760	15,410	942,081	528,281
-3,746	15,343	941,596	527,774
-2,731	15,196	941,040	526,978
-1,717	15,085	940,485	526,293
-0,702	15,213	939,579	526,171
0,313	14,914	939,045	525,721
1,327	18,057	936,871	534,357
2,342	26,849	794,467	476,439
3,356	23,453	459,783	270,503
4,371	-3,367	315,348	156,931
5,386	-7,439	297,276	143,788
6,400	-9,453	291,203	138,831
7,415	-9,784	288,711	137,305
8,429	-9,977	287,307	136,435
9,444	-10,198	286,369	135,761
10,459	-9,978	285,728	135,659
11,473	-9,920	285,139	135,424
12,488	-9,955	284,656	135,148
13,502	-10,029	284,170	134,834
14,517	-9,845	283,690	134,773
15,531	-9,883	283,374	134,574
16,546	-10,046	282,878	134,168
17,561	-10,008	282,436	133,983
18,575	-9,842	282,068	133,957
19,590	-10,015	281,791	133,648
20,604	-9,729	281,443	133,745
21,619	-9,874	281,193	133,475
22,634	-9,819	280,744	133,302
23,648	-10,045	280,353	132,889
24,663	-9,988	280,187	132,853
25,677	-10,149	280,052	132,623
26,692	-9,850	279,758	132,757
27,707	-9,939	279,549	132,562
28,721	-9,781	278,955	132,419
29,736	-10,109	278,976	132,104
30,750	-9,990	278,461	131,962
31,765	-9,886	278,226	131,938
32,780	-9,869	278,246	131,952
33,794	-9,823	277,866	131,804
34,809	-9,962	277,641	131,553
35,823	-10,054	277,339	131,311
36,838	-10,031	277,213	131,261
37,853	-9,992	276,968	131,171
38,867	-9,949	276,612	131,031
39,882	-9,890	276,255	130,906
40,896	-10,090	276,091	130,628
41,911	-9,995	275,850	130,592
42,926	-10,089	275,693	130,417
43,940	-10,081	275,254	130,206
44,955	-9,971	275,051	130,201
45,969	-10,133	274,890	129,961
46,984	-10,043	274,559	129,877
47,999	-10,335	274,235	129,439
49,013	-10,420	274,113	129,291
50,028	-10,440	273,707	129,069
51,042	-10,602	273,588	128,850
52,057	-10,955	273,326	128,386
53,071	-10,786	273,140	128,446
54,086	-10,575	273,040	128,583
55,101	-10,408	272,765	128,597
56,115	-10,086	272,499	128,759
57,130	-9,960	272,381	128,809
58,144	-9,899	272,369	128,849
59,159	-9,729	271,993	128,817
60,174	-9,943	271,830	128,530
61,188	-9,790	271,562	128,533
62,203	-9,977	271,444	128,294
63,217	-9,721	271,029	128,322
64,232	-9,864	270,909	128,122
65,247	-9,640	270,458	128,104
66,261	-9,927	270,464	127,831
67,276	-9,782	270,006	127,736
68,290	-10,040	269,885	127,430
69,305	-10,294	269,794	127,143
70,320	-10,269	269,636	127,079
71,334	-10,169	269,330	127,016
72,349	-10,125	269,286	127,024
73,363	-10,039	268,946	126,931
74,378	-9,734	268,711	127,088
75,393	-10,100	268,587	126,683
76,407	-9,798	268,231	126,780
77,422	-9,738	268,151	126,786
78,436	-9,872	267,872	126,520
79,451	-9,913	267,570	126,329
80,466	-9,900	267,278	126,191
81,480	-10,081	267,153	125,957
82,495	-9,974	266,922	125,934
83,509	-9,867	266,799	125,961
84,524	-10,094	266,568	125,635
85,539	-10,099	266,293	125,491
86,553	-10,193	266,171	125,336
87,568	-10,218	265,947	125,197
88,582	-9,889	265,609	125,323
89,597	-10,187	265,453	124,971
90,611	-10,014	265,374	125,078
91,626	-9,897	265,245	125,112
92,641	-9,760	264,985	125,101
93,655	-9,787	264,789	124,973
94,670	-9,919	264,465	124,691
95,684	-9,796	264,226	124,677
96,699	-10,175	264,207	124,317
97,714	-9,979	263,944	124,358
98,728	-10,108	263,764	124,146
99,743	-9,929	263,333	124,093
100,757	-10,087	263,217	123,886
101,772	-10,221	263,159	123,727
102,787	-10,032	262,841	123,735
103,801	-9,822	262,633	123,814
104,816	-9,922	262,534	123,667
105,830	-9,870	262,291	123,587
106,845	-9,828	262,175	123,559
107,860	-10,062	262,050	123,281
108,874	-10,157	261,920	123,125
109,889	-9,901	261,583	123,182
110,903	-9,858	261,322	123,087
111,918	-10,029	261,117	122,828
112,933	-10,031	260,932	122,728
113,947	-9,959	260,810	122,723
114,962	-9,976	260,779	122,683
115,976	-9,909	260,392	122,549
116,991	-10,118	260,273	122,298
118,006	-9,819	260,011	122,427
119,020	-9,831	259,950	122,377
120,035	-9,878	259,865	122,285
121,049	-9,892	259,786	122,224
122,064	-9,820	259,401	122,096
123,079	-9,784	259,114	121,981
124,093	-9,951	258,951	121,747
125,108	-10,050	258,615	121,491
126,122	-10,243	258,519	121,267
127,137	-10,380	258,214	120,993
128,151	-10,226	258,210	121,115
129,166	-10,269	257,992	120,964
130,181	-10,251	257,772	120,866
131,195	-10,289	257,490	120,690
132,210	-10,029	257,287	120,811
133,224	-9,907	257,048	120,794
134,239	-10,040	257,014	120,651
135,254	-9,897	256,989	120,753
136,268	-10,111	256,596	120,372
137,283	-10,044	256,193	120,230
138,297	-10,399	256,093	119,865
139,312	-10,323	255,908	119,834
140,327	-10,001	255,807	120,054
141,341	-9,750	255,796	120,255
142,356	-9,798	255,442	120,036
143,370	-9,877	255,521	119,995
144,385	-9,631	255,271	120,079
145,400	-9,712	254,880	119,815
146,414	-9,638	254,690	119,778
147,429	-9,720	254,652	119,679
148,443	-9,609	254,350	119,622
149,458	-9,741	254,287	119,469
150,473	-9,688	254,070	119,401
151,487	-9,816	253,862	119,183
152,502	-9,715	253,777	119,219
153,516	-9,780	253,446	118,998
154,531	-9,677	253,408	119,057
155,546	-9,597	253,229	119,031
156,560	-9,726	253,104	118,851
157,575	-9,868	252,747	118,551
158,589	-9,970	252,550	118,362
159,604	-9,584	252,435	118,626
160,619	-9,620	252,154	118,453
161,633	-9,733	252,112	118,327
162,648	-9,715	251,956	118,258
163,662	-9,745	251,774	118,137
164,677	-9,834	251,697	118,014
165,692	-9,809	251,324	117,850
166,706	-9,701	251,256	117,899
167,721	-9,775	251,008	117,710
168,735	-9,646	250,711	117,669
169,750	-9,566	250,773	117,755
170,764	-9,581	250,602	117,652
171,779	-9,574	250,516	117,607
172,794	-9,518	250,357	117,569
173,808	-9,865	249,998	117,098
174,823	-10,258	249,815	116,670
175,837	-10,066	249,495	116,671
176,852	-9,615	249,447	117,018
177,867	-9,729	249,454	116,915
178,881	-9,629	249,157	116,850
179,896	-9,753	249,098	116,707
180,910	-9,476	248,872	116,824
181,925	-9,687	248,701	116,556
182,940	-9,622	248,650	116,576
183,954	-9,765	248,385	116,322
184,969	-9,593	248,263	116,399
185,983	-9,637	248,109	116,279
186,998	-9,758	247,954	116,095
188,013	-9,686	247,747	116,048
189,027	-9,619	247,373	115,918
190,042	-9,684	247,391	115,862
191,056	-9,605	247,216	115,836
192,071	-9,589	247,089	115,779
193,086	-9,852	246,843	115,434
194,100	-9,746	246,574	115,386
195,115	-9,535	246,632	115,578
196,129	-9,618	246,337	115,361
197,144	-9,849	246,102	115,050
198,159	-9,755	245,952	115,047
199,173	-9,611	245,789	115,080
200,188	-9,702	245,505	114,861
201,202	-9,994	245,288	114,508
202,217	-10,128	245,103	114,302
203,232	-10,002	244,741	114,226
204,246	-10,015	244,873	114,267
205,261	-9,500	244,564	114,536
206,275	-10,557	244,311	113,538
207,290	-7,835	245,494	116,325
208,304	-0,732	247,761	123,292
209,319	3,169	248,739	127,011
210,334	3,860	248,531	127,466
211,348	4,021	248,610	127,629
212,363	4,320	248,458	127,787
213,377	4,148	248,410	127,608
214,392	3,823	248,403	127,325
215,407	3,970	248,151	127,305
216,421	4,061	247,896	127,238
217,436	4,210	247,724	127,262
218,450	3,940	247,707	127,019
219,465	3,997	247,484	126,940
220,480	3,777	247,181	126,592
221,494	3,758	246,990	126,467
222,509	3,945	246,736	126,480
223,523	3,791	246,669	126,308
224,538	3,395	246,458	125,863
225,553	3,466	246,405	125,883
226,567	3,661	246,195	125,924
227,582	3,664	246,002	125,817
228,596	3,712	245,889	125,788
229,611	3,554	245,530	125,463
230,626	3,316	245,449	125,216
231,640	3,647	245,291	125,394
232,655	3,514	245,087	125,171
233,669	3,340	244,991	124,968
234,684	3,346	244,731	124,830
235,699	3,941	244,705	125,290
236,713	4,049	244,723	125,376
237,728	3,482	244,440	124,759
238,742	3,450	244,170	124,584
239,757	3,426	243,950	124,441
240,772	3,643	243,745	124,501
241,786	3,604	243,786	124,479
242,801	3,519	243,561	124,285
243,815	3,447	243,403	124,135
244,830	3,631	243,338	124,239
245,844	3,575	243,161	124,092
246,859	3,575	242,997	123,998
247,874	3,434	242,893	123,819
248,888	3,835	242,598	123,982
249,903	3,580	242,644	123,789
250,917	3,708	242,348	123,730
251,932	3,863	242,331	123,834
252,947	3,603	242,037	123,464
253,961	3,529	241,947	123,348
254,976	3,687	241,725	123,351
255,990	3,801	241,537	123,335
257,005	3,513	241,333	122,989
258,020	3,439	241,164	122,833
259,034	3,300	241,123	122,689
260,049	3,638	240,980	122,877
261,063	3,354	240,608	122,448
262,078	3,567	240,442	122,523
263,093	3,725	240,486	122,661
264,107	3,581	240,375	122,478
265,122	3,395	240,137	122,198
266,136	3,549	240,052	122,267
267,151	3,765	239,918	122,359
268,166	3,384	239,780	121,975
269,180	3,641	239,372	121,961
270,195	3,996	239,463	122,278
271,209	4,079	239,423	122,312
272,224	3,572	238,971	121,669
273,239	3,102	238,831	121,215
274,253	3,381	238,745	121,381
275,268	3,738	238,569	121,563
276,282	3,618	238,507	121,426
277,297	3,515	238,202	121,179
278,312	3,364	238,050	120,971
279,326	3,750	238,043	121,262
280,341	3,418	237,948	120,940
281,355	3,739	237,622	121,017
282,370	3,740	237,507	120,948
283,384	3,744	237,375	120,873
284,399	3,319	237,316	120,498
285,414	3,386	236,898	120,327
286,428	3,583	236,921	120,483
287,443	3,446	236,903	120,356
288,457	3,640	236,472	120,278
289,472	3,877	236,533	120,484
290,487	3,538	236,281	120,080
291,501	3,479	236,064	119,913
292,516	3,284	235,877	119,654
293,530	3,322	235,836	119,653
294,545	3,563	235,788	119,806
295,560	3,616	235,566	119,724
296,574	3,211	235,371	119,298
297,589	3,589	235,100	119,445
298,603	3,854	235,219	119,701
299,618	3,847	235,040	119,594
300,633	3,701	234,926	119,412
301,647	3,723	234,717	119,312
302,662	4,085	234,807	119,628
303,676	4,045	234,536	119,448
304,691	3,719	234,249	119,039
305,706	4,190	234,208	119,372
306,720	4,047	234,043	119,166
307,735	3,664	233,806	118,739
308,749	3,585	233,591	118,558
309,764	3,476	233,396	118,365
310,779	3,279	233,338	118,173
311,793	3,072	233,184	117,924
312,808	3,278	232,952	117,955
313,822	3,019	232,866	117,702
314,837	3,407	232,514	117,812
315,852	3,266	232,508	117,690
316,866	3,569	232,453	117,885
317,881	3,896	232,337	118,066
318,895	3,765	232,293	117,933
319,910	3,941	232,041	117,929
320,925	3,540	231,821	117,500
321,939	3,559	231,609	117,397
322,954	3,889	231,483	117,574
323,968	3,476	231,409	117,210
324,983	3,323	231,157	116,956
325,997	3,653	231,194	117,216
327,012	3,836	231,078	117,286
328,027	3,515	230,852	116,916
329,041	3,700	230,775	117,008
330,056	3,938	230,647	117,114
331,070	4,078	230,554	117,163
332,085	3,903	230,393	116,938
333,100	4,087	230,144	116,940
334,114	3,870	230,048	116,716
335,129	3,939	229,924	116,695
336,143	3,678	229,754	116,400
337,158	3,698	229,652	116,354
338,173	3,996	229,439	116,462
339,187	3,825	229,238	116,220
340,202	4,014	229,116	116,290
341,216	3,800	229,013	116,066
342,231	3,657	229,043	115,963
343,246	3,676	228,789	115,838
344,260	4,020	228,574	115,978
345,275	4,098	228,369	115,923
346,289	3,955	228,366	115,803
347,304	4,007	228,315	115,806
348,319	4,010	228,009	115,643
349,333	3,747	227,766	115,312
350,348	3,759	227,638	115,246
351,362	3,885	227,580	115,301
352,377	3,668	227,289	114,980
353,392	3,428	227,189	114,740
354,406	3,532	227,041	114,733
355,421	194,229	1322,642	1395,366
356,435	155,663	1456,122	1395,361
