DTS Sentinel unit serial number:	SN410029Multiplexer serial number:	ORYXHardware model number:	OX2-SRSoftware version number:	ORYX F/W v4,00 Oryx Data Collector v3.7.2.0data status	okinstallation	B5 Nyhavnadifferential loss correction	single-endedforward channel	channel 2reverse channel	N/Adate	2023/12/12time	16:47:13forward acquisition time	300,00reverse acquisition time	0,00gamma	499,1914k internal	0,3156k external	0,3156temperature offset calibration	1,0000default loss term (dB/km)	0,3820temperature slope calibration	1,0000multiplexer offset coefficient	1,0000multiplexer slope coefficient	1,0000fibre end	0,00T internal ref (°C)	15,81T ext. ref 1 (°C)	-0,74T ext. ref 2 (°C)	-1,04length (m)	temperature (°C)	Stokes	anti-Stokes-744,400	-105,828	0,117	0,019
-743,385	-157,368	-0,301	0,013
-742,371	-200,000	0,020	0,102
-741,356	-112,954	-0,335	-0,048
-740,342	-177,060	0,100	0,002
-739,327	-162,055	-0,261	-0,010
-738,312	-133,968	-0,049	0,004
-737,298	-155,808	-0,488	-0,023
-736,283	-33,292	0,063	0,026
-735,269	-55,176	-0,311	0,103
-734,254	-127,569	0,094	0,010
-733,239	-70,707	-0,473	-0,131
-732,225	32,723	0,117	0,075
-731,210	-200,000	0,014	0,064
-730,196	-200,000	-0,006	-0,079
-729,181	33,065	-0,039	-0,025
-728,167	480,370	-0,059	-0,099
-727,152	-34,478	-0,125	0,050
-726,137	631,687	0,020	-0,037
-725,123	-200,000	-0,024	-0,084
-724,108	-52,912	-0,062	-0,021
-723,094	-200,000	-0,005	-0,068
-722,079	-63,024	0,061	0,018
-721,064	-58,390	0,012	-0,004
-720,050	-55,692	-0,086	0,028
-719,035	-104,989	-0,035	0,006
-718,021	-200,000	0,001	0,083
-717,006	-130,257	-0,070	0,007
-715,991	101,994	0,050	-0,043
-714,977	199,063	0,074	0,083
-713,962	-61,258	-0,073	0,023
-712,948	19,946	0,055	-0,033
-711,933	-200,000	0,038	-0,194
-710,918	508,088	-0,038	0,065
-709,904	735,239	-0,039	-0,078
-708,889	-30,498	-0,112	0,047
-707,875	161,472	-0,109	-0,112
-706,860	-200,000	0,020	0,095
-705,845	-87,318	0,069	0,015
-704,831	800,000	0,007	-0,017
-703,816	511,161	0,010	0,016
-702,802	207,071	-0,079	-0,091
-701,787	-200,000	0,001	-0,133
-700,772	131,388	-0,038	-0,036
-699,758	204,016	0,092	-0,105
-698,743	-71,387	-0,080	0,022
-697,729	-30,287	-0,039	-0,016
-696,714	-77,673	-0,116	-0,029
-695,699	491,064	-0,057	0,096
-694,685	-153,015	-0,189	-0,010
-693,670	326,070	0,042	-0,059
-692,656	-200,000	-0,019	-0,136
-691,641	16,044	0,033	-0,019
-690,627	315,377	-0,046	0,063
-689,612	800,000	0,035	-0,099
-688,597	-200,000	-0,034	0,110
-687,583	-123,446	-0,076	-0,009
-686,568	647,050	0,033	0,061
-685,554	800,000	-0,020	-0,050
-684,539	-200,000	0,008	-0,139
-683,524	47,093	0,057	0,039
-682,510	-40,410	0,064	-0,024
-681,495	-146,830	-0,115	0,007
-680,481	-200,000	0,025	-0,097
-679,466	-1,031	0,079	-0,041
-678,451	-90,355	-0,080	0,017
-677,437	-200,000	0,035	-0,180
-676,422	-200,000	-0,020	0,077
-675,408	330,060	0,022	0,032
-674,393	800,000	-0,016	-0,048
-673,378	375,561	0,060	-0,090
-672,364	-39,222	-0,060	-0,023
-671,349	800,000	-0,034	-0,105
-670,335	800,000	-0,040	-0,083
-669,320	-71,038	0,106	-0,029
-668,305	29,174	-0,061	-0,038
-667,291	108,859	-0,093	0,082
-666,276	0,851	-0,080	-0,042
-665,262	-200,000	-0,020	-0,180
-664,247	-155,792	0,056	0,003
-663,232	-83,502	-0,034	0,008
-662,218	-161,865	-0,015	-0,001
-661,203	-200,000	-0,005	0,066
-660,189	-30,639	0,030	-0,012
-659,174	47,532	-0,112	-0,077
-658,159	-39,552	-0,061	0,023
-657,145	-124,943	-0,128	-0,014
-656,130	-9,928	0,043	-0,021
-655,116	-170,439	0,115	0,003
-654,101	-200,000	0,003	0,139
-653,086	-200,000	0,009	-0,086
-652,072	156,646	-0,050	-0,050
-651,057	498,494	-0,059	-0,101
-650,043	435,414	0,051	-0,081
-649,028	8,236	-0,089	-0,049
-648,014	-75,284	0,051	0,013
-646,999	41,258	0,047	-0,031
-645,984	789,966	0,093	0,188
-644,970	800,000	-0,006	-0,012
-643,955	215,891	0,002	0,003
-642,941	76,210	-0,040	0,031
-641,926	-141,274	0,068	-0,005
-640,911	194,252	0,038	0,043
-639,897	166,601	-0,034	0,035
-638,882	800,000	0,039	0,086
-637,868	-68,911	-0,135	0,038
-636,853	-15,236	0,052	0,024
-635,838	144,132	-0,076	-0,074
-634,824	800,000	-0,017	-0,054
-633,809	-118,047	0,109	0,014
-632,795	-200,000	-0,013	-0,047
-631,780	-200,000	-0,017	-0,155
-630,765	800,000	-0,046	-0,121
-629,751	46,155	-0,147	-0,100
-628,736	67,530	-0,115	-0,086
-627,722	-200,000	0,020	0,066
-626,707	-49,381	-0,084	-0,029
-625,692	-200,000	0,002	0,080
-624,678	-200,000	-0,003	0,020
-623,663	214,094	0,042	-0,049
-622,649	-150,564	0,139	-0,008
-621,634	29,739	-0,154	0,096
-620,619	800,000	0,040	-0,098
-619,605	-92,695	0,037	0,008
-618,590	-86,112	0,158	0,035
-617,576	71,284	-0,062	0,047
-616,561	288,223	-0,080	-0,107
-615,546	-167,591	-0,147	0,004
-614,532	-200,000	0,006	-0,151
-613,517	-180,111	-0,114	-0,002
-612,503	-2,948	-0,114	0,058
-611,488	298,804	-0,049	0,067
-610,474	-200,000	0,082	0,000
-609,459	-200,000	-0,001	0,114
-608,444	-86,247	-0,037	0,008
-607,430	-200,000	0,004	0,015
-606,415	-79,113	0,070	-0,017
-605,401	32,642	-0,063	0,040
-604,386	-79,786	0,077	0,019
-603,371	-50,826	0,159	0,055
-602,357	667,317	-0,061	-0,115
-601,342	-160,105	-0,124	0,005
-600,328	-200,000	-0,034	-0,208
-599,313	-200,000	-0,001	-0,067
-598,298	44,903	0,087	0,059
-597,284	125,745	0,097	0,090
-596,269	582,621	0,077	-0,139
-595,255	52,361	0,101	0,070
-594,240	521,894	-0,068	-0,118
-593,225	76,044	0,058	0,045
-592,211	-116,986	-0,169	0,022
-591,196	86,088	0,100	0,081
-590,182	115,647	-0,102	-0,091
-589,167	4,611	0,075	-0,040
-588,152	505,837	0,026	0,045
-587,138	52,703	0,024	-0,017
-586,123	800,000	0,008	-0,021
-585,109	153,831	-0,165	-0,165
-584,094	-200,000	-0,020	0,115
-583,079	-62,432	0,079	-0,024
-582,065	-200,000	-0,014	-0,085
-581,050	52,129	0,098	0,068
-580,036	192,000	-0,078	0,086
-579,021	-200,000	-0,024	-0,085
-578,006	74,604	-0,060	-0,046
-576,992	-200,000	0,019	-0,075
-575,977	-200,000	-0,003	0,029
-574,963	-66,953	0,066	0,019
-573,948	-45,778	-0,156	-0,056
-572,934	31,156	0,099	0,062
-571,919	800,000	0,021	-0,049
-570,904	-59,695	-0,094	0,029
-569,890	405,780	0,034	0,053
-568,875	-145,669	-0,065	-0,004
-567,861	248,326	-0,070	0,086
-566,846	-200,000	0,019	-0,067
-565,831	-24,463	-0,121	-0,052
-564,817	800,000	0,028	-0,066
-563,802	152,727	-0,065	0,065
-562,788	452,489	-0,057	0,092
-561,773	508,453	0,058	0,099
-560,758	7,511	0,072	0,040
-559,744	800,000	-0,046	-0,122
-558,729	104,906	-0,140	-0,121
-557,715	199,617	-0,073	0,082
-556,700	-200,000	0,005	-0,191
-555,685	800,000	0,014	0,038
-554,671	-200,000	-0,016	0,164
-553,656	-200,000	0,008	0,030
-552,642	284,306	-0,047	-0,062
-551,627	-200,000	-0,025	0,138
-550,612	655,438	-0,049	-0,092
-549,598	49,086	0,066	-0,045
-548,583	128,534	-0,054	0,051
-547,569	83,596	-0,101	0,080
-546,554	800,000	0,034	0,104
-545,539	-52,937	0,082	-0,027
-544,525	-200,000	-0,000	0,063
-543,510	60,454	0,033	0,024
-542,496	-176,491	0,058	0,001
-541,481	-142,682	-0,100	-0,007
-540,466	334,161	-0,061	0,087
-539,452	800,000	0,039	-0,093
-538,437	-200,000	-0,020	-0,142
-537,423	-130,606	-0,123	-0,012
-536,408	800,000	0,020	0,050
-535,393	25,938	-0,078	0,047
-534,379	482,064	0,093	-0,156
-533,364	214,784	-0,138	-0,160
-532,350	-33,151	-0,185	0,075
-531,335	-2,369	0,074	0,038
-530,321	-32,618	0,148	-0,060
-529,306	-200,000	0,012	0,078
-528,291	-163,394	0,038	-0,001
-527,277	800,000	-0,020	0,064
-526,262	-200,000	-0,015	-0,064
-525,248	-48,996	0,071	-0,025
-524,233	-72,791	0,098	-0,026
-523,218	798,127	-0,036	-0,072
-522,204	-32,690	0,038	-0,015
-521,189	333,342	0,070	-0,099
-520,175	51,876	-0,116	-0,081
-519,160	-23,451	-0,106	0,046
-518,145	800,000	0,033	0,068
-517,131	-134,273	0,102	0,009
-516,116	364,871	-0,026	0,038
-515,102	647,711	-0,033	-0,062
-514,087	800,000	-0,042	-0,127
-513,072	-60,632	0,111	0,034
-512,058	800,000	0,056	0,139
-511,043	453,729	-0,008	0,013
-510,029	-200,000	-0,016	0,136
-509,014	800,000	0,026	0,070
-507,999	-200,000	-0,008	-0,080
-506,985	366,851	-0,065	0,096
-505,970	126,879	-0,055	-0,051
-504,956	-17,312	0,065	-0,030
-503,941	15,816	0,066	-0,038
-502,926	241,057	-0,034	-0,041
-501,912	275,425	0,078	0,101
-500,897	115,930	-0,054	0,048
-499,883	-55,928	-0,092	-0,030
-498,868	367,532	-0,027	-0,039
-497,853	107,857	0,078	-0,068
-496,839	-68,839	0,046	-0,013
-495,824	26,093	0,075	-0,045
-494,810	800,000	0,056	-0,149
-493,795	27,562	0,121	0,074
-492,781	-200,000	-0,019	-0,070
-491,766	13,084	-0,094	-0,053
-490,751	55,074	-0,058	-0,041
-489,737	24,538	0,123	0,074
-488,722	-138,984	-0,097	-0,008
-487,708	-32,010	0,034	-0,014
-486,693	-200,000	0,018	0,073
-485,678	-21,271	-0,069	-0,030
-484,664	-200,000	0,025	0,140
-483,649	-158,105	0,054	-0,002
-482,635	239,814	-0,020	-0,024
-481,620	-149,470	0,093	-0,005
-480,605	-150,660	0,029	0,002
-479,591	748,575	0,069	0,137
-478,576	800,000	0,021	-0,066
-477,562	-200,000	0,017	0,065
-476,547	564,310	-0,038	-0,068
-475,532	-200,000	-0,016	-0,062
-474,518	-200,000	0,021	0,140
-473,503	162,612	0,029	0,030
-472,489	103,921	-0,059	0,051
-471,474	134,235	-0,074	0,070
-470,459	-200,000	0,033	-0,109
-469,445	92,613	-0,135	-0,111
-468,430	1,839	0,089	0,047
-467,416	51,570	0,092	0,064
-466,401	-27,034	0,097	-0,041
-465,386	800,000	0,038	-0,091
-464,372	-99,541	-0,114	-0,021
-463,357	-129,125	0,020	-0,002
-462,343	800,000	-0,047	-0,106
-461,328	-149,850	-0,033	0,002
-460,313	-200,000	0,001	0,067
-459,299	667,958	-0,062	0,118
-458,284	41,627	0,051	0,034
-457,270	-200,000	0,050	0,188
-456,255	-97,162	0,084	0,016
-455,241	102,893	-0,053	-0,045
-454,226	369,896	-0,111	0,165
-453,211	114,759	-0,015	0,014
-452,197	116,380	0,169	0,151
-451,182	63,865	-0,062	0,046
-450,168	-200,000	-0,002	0,122
-449,153	800,000	0,035	0,090
-448,138	-146,421	0,025	0,002
-447,124	203,263	-0,053	0,060
-446,109	-200,000	-0,018	-0,074
-445,095	-168,403	0,047	-0,001
-444,080	-5,595	0,050	-0,025
-443,065	800,000	0,026	0,079
-442,051	168,766	0,076	-0,079
-441,036	368,760	0,045	-0,066
-440,022	4,905	-0,072	-0,038
-439,007	-105,482	0,094	0,015
-437,992	248,361	0,075	0,093
-436,978	-77,818	0,008	-0,002
-435,963	328,264	0,045	0,063
-434,949	-200,000	-0,005	0,120
-433,934	-131,557	0,038	-0,004
-432,919	-29,512	-0,095	-0,040
-431,905	530,942	-0,041	-0,071
-430,890	-200,000	-0,012	0,111
-429,876	-75,427	0,123	0,032
-428,861	-138,916	-0,057	0,004
-427,846	-49,910	-0,084	0,029
-426,832	-192,598	-0,065	0,000
-425,817	0,608	-0,125	-0,065
-424,803	-200,000	0,018	-0,085
-423,788	15,379	0,159	0,091
-422,773	208,686	0,058	0,066
-421,759	-49,811	0,077	0,027
-420,744	-59,528	0,056	-0,017
-419,730	-198,436	0,047	0,000
-418,715	-200,000	0,048	-0,189
-417,701	-200,000	-0,016	-0,087
-416,686	800,000	0,040	0,085
-415,671	43,004	-0,018	-0,012
-414,657	119,986	0,114	0,103
-413,642	-200,000	-0,009	-0,116
-412,628	800,000	0,025	-0,067
-411,613	388,809	-0,066	0,100
-410,598	17,073	-0,091	0,052
-409,584	-115,684	-0,141	0,019
-408,569	-182,335	0,049	0,001
-407,555	-191,106	0,070	0,001
-406,540	-26,411	-0,142	0,060
-405,525	11,171	0,028	-0,015
-404,511	80,863	-0,166	-0,130
-403,496	234,480	0,090	0,108
-402,482	800,000	0,018	0,055
-401,467	-200,000	0,024	0,210
-400,452	-200,000	-0,022	0,106
-399,438	82,408	-0,113	0,089
-398,423	-200,000	0,039	-0,177
-397,409	10,442	0,006	-0,004
-396,394	478,368	0,058	0,096
-395,379	-64,264	0,092	0,027
-394,365	526,188	0,058	-0,099
-393,350	-197,881	0,134	-0,001
-392,336	5,201	0,080	-0,043
-391,321	-66,397	0,059	0,017
-390,306	-200,000	-0,031	-0,146
-389,292	753,051	-0,023	-0,045
-388,277	800,000	-0,021	0,055
-387,263	19,431	-0,110	0,064
-386,248	-200,000	-0,006	-0,102
-385,233	-144,519	0,145	0,010
-384,219	-57,676	0,123	0,039
-383,204	800,000	0,028	-0,082
-382,190	188,211	-0,048	0,052
-381,175	32,722	0,087	-0,054
-380,160	-13,788	0,083	-0,039
-379,146	800,000	-0,021	-0,045
-378,131	-49,082	0,105	0,036
-377,117	-200,000	-0,023	-0,077
-376,102	71,725	-0,097	-0,073
-375,088	-200,000	-0,005	-0,061
-374,073	112,427	0,040	0,035
-373,058	391,719	0,039	0,060
-372,044	800,000	-0,020	0,047
-371,029	-62,127	0,038	0,012
-370,015	-173,642	0,087	-0,002
-369,000	18,416	-0,179	-0,104
-367,985	800,000	-0,031	0,085
-366,971	-128,387	-0,119	0,012
-365,956	337,664	0,050	-0,071
-364,942	57,771	-0,056	0,040
-363,927	800,000	0,043	0,111
-362,912	800,000	0,020	0,051
-361,898	-200,000	0,001	-0,120
-360,883	161,242	-0,145	-0,148
-359,869	646,085	0,034	0,064
-358,854	-40,773	0,115	-0,043
-357,839	3,346	0,011	0,006
-356,825	-9,013	-0,057	-0,028
-355,810	-200,000	-0,049	-0,181
-354,796	174,391	-0,028	-0,030
-353,781	-200,000	-0,015	0,083
-352,766	345,573	-0,071	-0,101
-351,752	-8,026	0,078	0,038
-350,737	-124,320	0,120	0,013
-349,723	-200,000	0,001	0,081
-348,708	-200,000	-0,045	-0,221
-347,693	732,407	-0,044	0,086
-346,679	193,596	-0,046	-0,050
-345,664	-81,611	-0,028	0,007
-344,650	-15,987	0,035	0,016
-343,635	11,494	-0,088	-0,049
-342,620	-200,000	-0,008	0,070
-341,606	-200,000	0,037	0,128
-340,591	-169,445	-0,086	0,002
-339,577	177,027	-0,109	-0,115
-338,562	-35,678	-0,125	0,049
-337,548	218,785	0,054	-0,063
-336,533	-186,209	0,123	0,001
-335,518	-119,440	0,143	0,018
-334,504	-87,757	-0,118	-0,026
-333,489	68,236	0,100	-0,075
-332,475	74,648	0,045	-0,034
-331,460	800,000	0,024	-0,069
-330,445	-148,043	-0,135	-0,008
-329,431	800,000	-0,036	-0,073
-328,416	-200,000	0,015	0,091
-327,402	62,982	-0,048	-0,035
-326,387	-0,092	0,117	-0,060
-325,372	-200,000	-0,166	-0,000
-324,358	-200,000	0,006	0,096
-323,343	-200,000	-0,017	-0,107
-322,329	800,000	0,027	0,079
-321,314	728,288	0,023	-0,044
-320,299	605,772	-0,086	0,156
-319,285	445,651	0,090	-0,144
-318,270	-200,000	-0,006	0,035
-317,256	40,465	-0,051	0,033
-316,241	-82,949	-0,049	-0,011
-315,226	-200,000	0,024	0,077
-314,212	800,000	-0,016	-0,043
-313,197	-4,937	-0,023	0,011
-312,183	77,482	0,080	-0,061
-311,168	-63,906	-0,119	0,035
-310,153	-13,257	-0,076	-0,035
-309,139	-157,822	-0,082	-0,003
-308,124	-200,000	-0,010	-0,062
-307,110	15,088	-0,017	0,010
-306,095	-200,000	-0,028	-0,113
-305,080	-200,000	-0,032	0,151
-304,066	800,000	-0,012	-0,025
-303,051	-99,918	-0,029	-0,005
-302,037	255,294	-0,005	-0,006
-301,022	-33,211	0,042	0,017
-300,008	66,235	0,082	0,060
-298,993	37,504	0,112	-0,072
-297,978	800,000	-0,076	-0,162
-296,964	-200,000	0,014	0,204
-295,949	22,961	0,022	-0,013
-294,935	157,634	0,045	-0,045
-293,920	-200,000	0,015	-0,118
-292,905	-134,357	0,144	-0,013
-291,891	-18,187	0,131	0,059
-290,876	444,083	0,053	0,085
-289,862	121,909	0,043	-0,039
-288,847	800,000	-0,069	-0,215
-287,832	-38,361	-0,088	0,034
-286,818	-200,000	0,003	-0,163
-285,803	-200,000	-0,023	0,116
-284,789	189,442	-0,102	-0,111
-283,774	800,000	0,048	-0,113
-282,759	800,000	0,052	-0,121
-281,745	-200,000	-0,007	0,072
-280,730	-77,378	0,041	0,010
-279,716	-68,267	-0,102	0,028
-278,701	-51,560	0,099	0,033
-277,686	-24,145	0,109	-0,047
-276,672	-200,000	0,001	-0,012
-275,657	-200,000	0,025	0,109
-274,643	-200,000	0,026	-0,117
-273,628	235,634	-0,088	-0,105
-272,613	-200,000	-0,008	0,053
-271,599	125,690	0,083	-0,076
-270,584	-181,459	0,164	0,002
-269,570	-200,000	0,034	0,206
-268,555	800,000	0,055	0,135
-267,540	85,173	0,070	-0,056
-266,526	800,000	-0,040	-0,092
-265,511	35,261	0,085	0,054
-264,497	68,998	-0,091	0,068
-263,482	800,000	-0,069	0,152
-262,467	-23,292	-0,052	0,022
-261,453	788,782	-0,074	0,148
-260,438	-39,921	0,048	0,018
-259,424	249,627	0,122	-0,150
-258,409	109,856	-0,124	0,108
-257,395	233,891	-0,037	-0,044
-256,380	13,817	-0,012	-0,007
-255,365	451,105	-0,064	0,103
-254,351	-200,000	0,013	-0,077
-253,336	711,684	-0,036	-0,070
-252,322	19,780	0,114	-0,066
-251,307	-11,454	-0,122	-0,058
-250,292	532,816	-0,036	0,062
-249,278	-200,000	-0,001	0,121
-248,263	800,000	-0,003	-0,008
-247,249	-200,000	-0,002	0,061
-246,234	10,892	-0,079	-0,043
-245,219	-200,000	0,007	-0,098
-244,205	100,393	-0,028	-0,024
-243,190	192,019	0,042	-0,046
-242,176	800,000	0,030	-0,090
-241,161	27,668	-0,005	-0,003
-240,146	-12,649	-0,127	0,060
-239,132	-91,478	-0,014	0,003
-238,117	-101,917	-0,075	-0,013
-237,103	128,503	-0,058	-0,054
-236,088	-200,000	-0,019	-0,124
-235,073	-41,500	0,135	0,050
-234,059	-34,063	0,076	-0,030
-233,044	-21,880	0,073	0,032
-232,030	21,622	-0,173	0,102
-231,015	800,000	-0,032	0,087
-230,000	-115,016	-0,063	-0,009
-228,986	-57,595	-0,041	-0,013
-227,971	-200,000	0,002	0,030
-226,957	-72,204	0,023	0,006
-225,942	-152,005	0,058	-0,003
-224,927	-200,000	-0,004	-0,036
-223,913	445,567	-0,055	-0,088
-222,898	-38,901	-0,072	0,027
-221,884	-36,892	0,100	-0,039
-220,869	-29,322	0,077	0,032
-219,855	457,066	0,043	0,069
-218,840	159,598	0,106	0,107
-217,825	250,951	0,033	0,040
-216,811	58,188	0,115	-0,081
-215,796	-200,000	0,001	-0,045
-214,782	17,884	0,015	0,009
-213,767	159,474	0,103	-0,103
-212,752	800,000	-0,035	0,080
-211,738	132,194	0,060	-0,055
-210,723	-134,689	0,112	0,010
-209,709	800,000	0,041	-0,116
-208,694	-161,129	0,024	-0,001
-207,679	-200,000	0,003	-0,043
-206,665	279,332	0,099	-0,128
-205,650	-98,699	0,075	-0,014
-204,636	63,699	-0,061	0,044
-203,621	800,000	-0,080	0,165
-202,606	298,451	-0,009	-0,011
-201,592	27,506	-0,105	0,064
-200,577	-1,784	-0,038	0,019
-199,563	-89,356	0,095	0,020
-198,548	118,263	0,046	0,041
-197,533	800,000	-0,061	0,159
-196,519	-134,829	-0,138	0,012
-195,504	604,622	-0,098	0,177
-194,490	171,564	0,041	-0,042
-193,475	-200,000	-0,010	-0,132
-192,460	-200,000	-0,002	0,043
-191,446	-106,827	-0,119	0,019
-190,431	-88,761	0,136	0,029
-189,417	-46,006	0,052	0,018
-188,402	-200,000	-0,018	0,058
-187,387	-199,963	-0,094	-0,000
-186,373	-69,455	0,093	0,026
-185,358	101,333	0,065	0,055
-184,344	-75,895	-0,039	-0,010
-183,329	79,966	0,104	-0,081
-182,315	41,067	0,101	0,066
-181,300	118,003	-0,095	-0,085
-180,285	134,390	-0,099	-0,092
-179,271	559,558	-0,057	0,099
-178,256	-20,048	-0,132	0,059
-177,242	800,000	0,031	0,076
-176,227	-200,000	-0,010	0,101
-175,212	-200,000	-0,037	0,125
-174,198	-200,000	-0,011	0,080
-173,183	-200,000	-0,029	-0,129
-172,169	-166,057	-0,024	0,001
-171,154	59,994	-0,049	0,035
-170,139	-200,000	0,004	-0,027
-169,125	339,253	0,015	0,021
-168,110	-81,434	0,100	0,024
-167,096	-200,000	-0,007	-0,034
-166,081	-200,000	0,026	-0,110
-165,066	-200,000	0,014	-0,117
-164,052	800,000	0,020	-0,046
-163,037	800,000	0,015	-0,033
-162,023	404,359	0,027	0,041
-161,008	261,679	0,058	0,073
-159,993	84,764	0,169	0,133
-158,979	-38,057	-0,153	0,058
-157,964	-177,215	-0,029	0,001
-156,950	50,121	-0,103	-0,070
-155,935	-200,000	-0,005	0,149
-154,920	58,191	-0,118	-0,083
-153,906	-3,054	0,056	-0,028
-152,891	-200,000	0,026	-0,099
-151,877	-20,613	0,094	-0,041
-150,862	550,381	-0,057	-0,099
-149,847	-86,420	0,086	0,019
-148,833	800,000	-0,033	-0,090
-147,818	800,000	-0,016	-0,042
-146,804	-69,017	-0,096	0,027
-145,789	-200,000	-0,006	-0,023
-144,775	568,407	0,047	-0,083
-143,760	-130,933	-0,155	-0,015
-142,745	800,000	-0,029	-0,067
-141,731	-200,000	-0,014	-0,135
-140,716	16,101	0,130	-0,074
-139,702	-107,285	0,100	-0,016
-138,687	466,337	-0,040	-0,065
-137,672	76,748	0,130	-0,099
-136,658	197,774	-0,095	-0,104
-135,643	800,000	0,049	-0,101
-134,629	338,331	0,039	0,055
-133,614	-200,000	0,026	0,183
-132,599	-142,978	-0,080	0,006
-131,585	112,801	0,161	0,140
-130,570	-200,000	-0,116	0,000
-129,556	-110,808	-0,019	-0,003
-128,541	74,127	-0,020	-0,015
-127,526	157,467	-0,023	-0,022
-126,512	134,548	-0,044	-0,041
-125,497	-200,000	-0,006	0,109
-124,483	800,000	-0,025	0,053
-123,468	-200,000	-0,026	0,147
-122,453	800,000	-0,031	-0,062
-121,439	79,430	0,006	-0,004
-120,424	165,469	-0,077	0,079
-119,410	-200,000	-0,020	0,107
-118,395	-200,000	-0,019	0,222
-117,380	-200,000	0,045	-0,213
-116,366	-91,408	-0,091	0,018
-115,351	-95,486	0,034	0,006
-114,337	-158,373	-0,150	-0,006
-113,322	13,177	-0,068	-0,038
-112,307	799,898	0,057	0,113
-111,293	-200,000	0,036	-0,153
-110,278	-2,518	0,112	0,056
-109,264	-200,000	0,000	0,021
-108,249	-37,591	-0,134	-0,051
-107,234	74,492	0,139	0,105
-106,220	-148,554	-0,125	-0,007
-105,205	44,639	0,029	0,019
-104,191	-122,503	0,031	0,004
-103,176	-76,085	0,059	-0,015
-102,162	-176,237	0,058	0,001
-101,147	761,234	-0,048	0,095
-100,132	-163,550	-0,103	0,003
-99,118	271,795	-0,056	-0,072
-98,103	-200,000	-0,003	-0,051
-97,089	-200,000	-0,012	0,069
-96,074	735,137	0,044	0,086
-95,059	-200,000	0,044	0,197
-94,045	-87,733	-0,105	-0,023
-93,030	60,321	-0,012	0,009
-92,016	-200,000	0,003	-0,092
-91,001	24,333	0,019	-0,011
-89,986	-17,302	-0,105	0,047
-88,972	-95,286	-0,025	-0,005
-87,957	425,673	-0,040	-0,062
-86,943	178,017	-0,054	0,057
-85,928	245,303	-0,059	-0,072
-84,913	1,976	-0,116	-0,060
-83,899	800,000	0,052	-0,112
-82,884	-35,538	-0,024	0,009
-81,870	24,570	0,098	0,058
-80,855	-18,658	0,038	0,017
-79,840	322,144	-0,079	-0,109
-78,826	694,387	-0,049	-0,093
-77,811	-42,683	-0,040	0,015
-76,797	316,744	-0,077	0,105
-75,782	114,464	0,074	0,065
-74,767	-200,000	0,019	0,101
-73,753	272,714	0,076	-0,097
-72,738	555,060	0,030	0,052
-71,724	-121,651	-0,190	-0,022
-70,709	800,000	0,046	-0,117
-69,694	-200,000	-0,008	-0,037
-68,680	-200,000	-0,015	0,116
-67,665	-200,000	-0,051	0,204
-66,651	-200,000	-0,014	0,047
-65,636	-200,000	0,005	-0,153
-64,622	713,658	0,019	0,037
-63,607	-200,000	-0,140	0,000
-62,592	176,043	0,126	-0,132
-61,578	255,751	0,022	-0,027
-60,563	7,420	0,105	-0,056
-59,549	-200,000	0,007	0,135
-58,534	3,070	-1,867	-0,972
-57,519	-200,000	-0,325	-1,051
-56,505	-200,000	-1,229	-5,033
-55,490	0,450	0,790	0,404
-54,476	800,000	5,201	12,108
-53,461	-200,000	17,343	284,749
-52,446	800,000	723,237	2228,914
-51,432	543,385	1639,227	2819,328
-50,417	111,889	1631,077	1413,908
-49,403	76,121	1286,060	976,180
-48,388	32,738	1028,230	637,248
-47,373	20,236	990,126	572,387
-46,359	18,722	978,475	560,660
-45,344	16,143	974,412	549,862
-44,330	16,384	972,725	549,678
-43,315	15,811	971,406	547,036
-42,300	15,771	970,276	546,246
-41,286	15,819	969,010	545,669
-40,271	15,807	968,076	545,083
-39,257	15,853	967,176	544,705
-38,242	15,883	966,044	544,144
-37,227	15,856	965,355	543,647
-36,213	15,830	964,756	543,202
-35,198	15,812	963,722	542,539
-34,184	15,861	962,985	542,262
-33,169	15,773	962,113	541,466
-32,154	15,878	961,001	541,156
-31,140	15,839	960,157	540,535
-30,125	15,844	959,497	540,158
-29,111	15,824	958,876	539,721
-28,096	15,901	957,941	539,422
-27,082	15,822	957,329	538,803
-26,067	15,887	956,635	538,598
-25,052	15,794	955,813	537,815
-24,038	15,843	955,237	537,628
-23,023	15,819	954,523	537,128
-22,009	15,866	953,900	536,907
-20,994	15,867	953,007	536,386
-19,979	15,821	952,632	536,007
-18,965	15,845	951,973	535,692
-17,950	15,823	951,492	535,327
-16,936	15,792	950,676	534,749
-15,921	15,750	950,254	534,357
-14,906	15,714	949,355	533,715
-13,892	15,731	948,754	533,408
-12,877	15,702	948,172	532,969
-11,863	15,756	947,346	532,657
-10,848	15,731	946,996	532,357
-9,833	15,793	946,477	532,242
-8,819	15,833	945,713	531,918
-7,804	15,735	945,130	531,257
-6,790	15,691	944,634	530,819
-5,775	15,786	943,912	530,692
-4,760	15,793	943,351	530,378
-3,746	15,727	942,895	529,892
-2,731	15,597	942,080	529,001
-1,717	15,567	941,463	528,538
-0,702	15,581	940,730	528,151
0,313	15,378	940,116	527,961
1,327	18,529	937,869	536,588
2,342	27,361	795,374	478,493
3,356	24,119	459,406	271,391
4,371	-2,992	313,973	156,699
5,386	-7,165	295,716	143,357
6,400	-9,111	289,766	138,531
7,415	-9,497	287,251	136,937
8,429	-9,516	285,757	136,194
9,444	-9,609	284,884	135,675
10,459	-9,394	284,263	135,576
11,473	-9,521	283,491	135,073
12,488	-9,638	283,087	134,755
13,502	-9,742	282,793	134,502
14,517	-9,579	282,290	134,408
15,531	-9,574	281,964	134,246
16,546	-9,487	281,547	134,120
17,561	-9,562	281,033	133,790
18,575	-9,313	280,808	133,910
19,590	-9,388	280,299	133,584
20,604	-9,378	280,102	133,488
21,619	-9,592	279,642	133,053
22,634	-9,436	279,379	133,065
23,648	-9,594	279,309	132,868
24,663	-9,347	278,924	132,909
25,677	-9,591	278,567	132,494
26,692	-9,655	278,311	132,300
27,707	-9,572	278,036	132,236
28,721	-9,530	277,766	132,136
29,736	-9,685	277,612	131,904
30,750	-9,609	277,363	131,846
31,765	-9,618	276,951	131,629
32,780	-9,604	276,783	131,551
33,794	-9,643	276,550	131,392
34,809	-9,633	276,160	131,204
35,823	-9,391	275,850	131,273
36,838	-9,557	275,711	131,039
37,853	-9,594	275,519	130,901
38,867	-9,832	275,460	130,638
39,882	-9,509	275,077	130,748
40,896	-9,665	274,760	130,439
41,911	-9,493	274,508	130,469
42,926	-9,523	274,203	130,284
43,940	-9,687	274,134	130,086
44,955	-9,740	273,923	129,925
45,969	-9,799	273,575	129,694
46,984	-9,823	273,268	129,514
47,999	-10,008	273,085	129,243
49,013	-10,160	272,800	128,956
50,028	-10,073	272,511	128,889
51,042	-10,146	272,244	128,683
52,057	-10,171	271,993	128,530
53,071	-10,203	271,924	128,456
54,086	-9,982	271,673	128,531
55,101	-9,996	271,476	128,413
56,115	-9,865	271,306	128,442
57,130	-9,743	271,279	128,531
58,144	-9,437	271,048	128,693
59,159	-9,472	270,682	128,476
60,174	-9,527	270,534	128,342
61,188	-9,664	270,432	128,156
62,203	-9,500	270,160	128,167
63,217	-9,478	269,826	128,018
64,232	-9,277	269,554	128,062
65,247	-9,342	269,445	127,939
66,261	-9,521	269,047	127,575
67,276	-9,630	268,945	127,415
68,290	-9,681	268,665	127,224
69,305	-9,941	268,485	126,890
70,320	-9,819	268,319	126,911
71,334	-9,674	268,029	126,895
72,349	-9,520	267,953	126,989
73,363	-9,614	267,931	126,881
74,378	-9,506	267,646	126,833
75,393	-9,435	267,323	126,734
76,407	-9,508	267,146	126,571
77,422	-9,382	266,786	126,505
78,436	-9,502	266,572	126,283
79,451	-9,471	266,460	126,246
80,466	-9,546	266,022	125,960
81,480	-9,581	265,887	125,853
82,495	-9,818	265,688	125,534
83,509	-9,614	265,568	125,650
84,524	-9,611	265,331	125,529
85,539	-9,561	265,072	125,441
86,553	-9,733	264,901	125,194
87,568	-9,946	264,799	124,943
88,582	-9,795	264,436	124,896
89,597	-9,849	264,348	124,795
90,611	-9,549	264,247	125,005
91,626	-9,557	264,070	124,903
92,641	-9,504	263,765	124,795
93,655	-9,540	263,618	124,683
94,670	-9,542	263,235	124,488
95,684	-9,695	263,109	124,280
96,699	-9,416	262,843	124,394
97,714	-9,622	262,712	124,137
98,728	-9,454	262,439	124,146
99,743	-9,806	262,286	123,749
100,757	-9,787	262,137	123,684
101,772	-9,834	261,973	123,555
102,787	-9,667	261,667	123,547
103,801	-9,697	261,608	123,482
104,816	-9,657	261,463	123,438
105,830	-9,471	261,114	123,427
106,845	-9,450	261,104	123,430
107,860	-9,476	260,817	123,260
108,874	-9,561	260,602	123,072
109,889	-9,604	260,373	122,915
110,903	-9,597	260,117	122,789
111,918	-9,678	259,894	122,602
112,933	-9,657	259,828	122,578
113,947	-9,481	259,692	122,659
114,962	-9,762	259,505	122,312
115,976	-9,509	259,200	122,379
116,991	-9,485	259,055	122,322
118,006	-9,391	258,861	122,301
119,020	-9,595	258,718	122,044
120,035	-9,524	258,625	122,051
121,049	-9,648	258,625	121,932
122,064	-9,436	258,063	121,841
123,079	-9,624	258,009	121,641
124,093	-9,373	257,737	121,720
125,108	-9,695	257,671	121,398
126,122	-9,764	257,316	121,159
127,137	-9,902	257,040	120,898
128,151	-9,668	256,893	121,022
129,166	-9,831	256,875	120,861
130,181	-10,011	256,747	120,633
131,195	-9,904	256,340	120,525
132,210	-9,720	256,285	120,648
133,224	-9,496	255,996	120,694
134,239	-9,576	255,771	120,509
135,254	-9,461	255,599	120,516
136,268	-9,792	255,547	120,195
137,283	-9,648	255,205	120,148
138,297	-9,893	255,113	119,882
139,312	-9,970	254,781	119,649
140,327	-9,711	254,748	119,846
141,341	-9,503	254,666	119,976
142,356	-9,655	254,417	119,717
143,370	-9,422	254,144	119,778
144,385	-9,433	254,141	119,756
145,400	-9,044	253,833	119,935
146,414	-9,359	253,728	119,604
147,429	-9,359	253,446	119,461
148,443	-9,403	253,362	119,373
149,458	-9,482	253,195	119,216
150,473	-9,386	252,959	119,176
151,487	-9,234	252,676	119,162
152,502	-9,549	252,721	118,904
153,516	-9,386	252,354	118,860
154,531	-9,412	252,324	118,812
155,546	-9,417	252,134	118,708
156,560	-9,487	251,930	118,542
157,575	-9,563	251,650	118,335
158,589	-9,343	251,471	118,427
159,604	-9,171	251,187	118,429
160,619	-9,362	251,245	118,283
161,633	-9,360	250,947	118,134
162,648	-9,532	250,819	117,917
163,662	-9,362	250,587	117,942
164,677	-9,322	250,731	118,034
165,692	-9,317	250,471	117,904
166,706	-9,398	250,255	117,724
167,721	-9,159	249,812	117,707
168,735	-9,394	249,984	117,579
169,750	-9,202	249,804	117,646
170,764	-9,317	249,604	117,444
171,779	-9,517	249,575	117,251
172,794	-9,225	249,248	117,333
173,808	-9,485	249,028	117,000
174,823	-9,781	248,736	116,605
175,837	-9,865	248,565	116,444
176,852	-9,706	248,528	116,549
177,867	-9,378	248,433	116,769
178,881	-9,414	248,155	116,597
179,896	-9,229	248,015	116,676
180,910	-9,400	247,918	116,478
181,925	-9,438	247,747	116,355
182,940	-9,193	247,296	116,336
183,954	-9,359	247,340	116,209
184,969	-9,319	247,295	116,211
185,983	-9,303	246,949	116,050
186,998	-9,183	246,845	116,091
188,013	-9,199	246,565	115,936
189,027	-9,306	246,496	115,804
190,042	-9,285	246,232	115,688
191,056	-9,330	246,185	115,618
192,071	-9,292	245,931	115,520
193,086	-9,247	245,701	115,438
194,100	-9,436	245,583	115,217
195,115	-9,359	245,453	115,209
196,129	-9,402	245,302	115,092
197,144	-9,367	245,048	114,992
198,159	-9,383	244,852	114,877
199,173	-9,338	244,561	114,767
200,188	-9,583	244,425	114,491
201,202	-9,619	244,322	114,403
202,217	-9,766	243,954	114,100
203,232	-9,870	243,775	113,920
204,246	-9,648	243,757	114,084
205,261	-9,273	243,571	114,294
206,275	-10,168	243,071	113,318
207,290	-7,429	244,466	116,209
208,304	0,067	246,904	123,565
209,319	4,074	247,637	127,237
210,334	4,300	247,798	127,495
211,348	4,296	247,824	127,495
212,363	4,621	247,638	127,656
213,377	4,673	247,531	127,632
214,392	4,614	247,241	127,422
215,407	4,570	247,047	127,275
216,421	4,518	246,924	127,157
217,436	4,764	246,891	127,331
218,450	4,775	246,723	127,242
219,465	4,597	246,424	126,931
220,480	4,401	246,173	126,630
221,494	4,252	246,148	126,483
222,509	4,259	245,948	126,374
223,523	4,292	245,676	126,250
224,538	3,927	245,444	125,822
225,553	4,359	245,267	126,072
226,567	4,146	245,180	125,843
227,582	4,302	245,000	125,867
228,596	4,364	244,713	125,759
229,611	4,141	244,567	125,490
230,626	4,199	244,465	125,474
231,640	4,034	244,342	125,266
232,655	3,950	244,271	125,149
233,669	4,103	243,842	125,043
234,684	3,756	243,940	124,800
235,699	4,228	243,863	125,133
236,713	4,293	243,766	125,125
237,728	4,104	243,357	124,750
238,742	4,051	243,111	124,570
239,757	3,897	243,041	124,399
240,772	3,954	242,872	124,347
241,786	4,220	242,732	124,480
242,801	3,915	242,480	124,093
243,815	3,894	242,376	124,011
244,830	4,021	242,366	124,098
245,844	4,225	242,180	124,156
246,859	4,172	242,002	124,011
247,874	4,189	241,836	123,929
248,888	4,072	241,594	123,700
249,903	4,233	241,488	123,764
250,917	4,121	241,365	123,599
251,932	4,456	241,256	123,801
252,947	4,370	241,015	123,598
253,961	4,040	240,903	123,265
254,976	4,039	240,747	123,173
255,990	4,289	240,668	123,322
257,005	4,202	240,330	123,068
258,020	3,832	240,229	122,710
259,034	3,990	240,220	122,821
260,049	4,229	239,906	122,840
261,063	3,982	239,681	122,517
262,078	3,989	239,699	122,520
263,093	4,299	239,541	122,676
264,107	4,287	239,371	122,568
265,122	4,167	239,167	122,357
266,136	4,351	239,089	122,453
267,151	4,565	238,958	122,545
268,166	4,034	238,747	122,005
269,180	4,088	238,429	121,874
270,195	4,338	238,585	122,140
271,209	4,615	238,480	122,295
272,224	4,226	238,126	121,796
273,239	3,727	237,921	121,286
274,253	3,751	237,808	121,236
275,268	4,200	237,696	121,522
276,282	4,250	237,539	121,471
277,297	3,756	237,457	121,029
278,312	3,855	237,342	121,037
279,326	4,074	237,067	121,058
280,341	3,912	237,011	120,892
281,355	3,970	236,803	120,821
282,370	4,345	236,588	120,994
283,384	4,072	236,517	120,732
284,399	4,041	236,148	120,510
285,414	3,937	235,970	120,326
286,428	4,083	235,931	120,410
287,443	4,047	235,862	120,337
288,457	4,101	235,851	120,362
289,472	4,576	235,533	120,559
290,487	4,018	235,345	120,018
291,501	4,077	235,127	119,942
292,516	3,748	235,161	119,692
293,530	3,644	234,951	119,493
294,545	4,024	234,824	119,713
295,560	4,081	234,634	119,651
296,574	4,003	234,389	119,454
297,589	3,841	234,307	119,276
298,603	4,168	234,248	119,489
299,618	4,204	234,078	119,420
300,633	4,069	233,983	119,256
301,647	4,469	233,829	119,477
302,662	4,610	233,774	119,547
303,676	4,310	233,669	119,250
304,691	4,196	233,526	119,079
305,706	4,676	233,365	119,357
306,720	4,590	233,145	119,167
307,735	4,340	232,918	118,848
308,749	4,150	232,805	118,633
309,764	4,033	232,408	118,331
310,779	4,205	232,274	118,384
311,793	3,796	232,152	117,998
312,808	3,711	232,008	117,848
313,822	3,885	231,859	117,895
314,837	3,754	231,760	117,735
315,852	3,876	231,572	117,722
316,866	3,774	231,552	117,623
317,881	3,942	231,519	117,724
318,895	4,072	231,252	117,677
319,910	4,141	231,348	117,769
320,925	4,251	231,065	117,698
321,939	4,157	230,842	117,502
322,954	4,053	230,761	117,371
323,968	4,047	230,403	117,174
324,983	3,798	230,265	116,904
325,997	4,305	230,247	117,270
327,012	4,551	230,221	117,433
328,027	4,350	230,055	117,185
329,041	4,568	230,041	117,334
330,056	4,821	229,926	117,457
331,070	4,945	229,807	117,479
332,085	4,437	229,588	116,972
333,100	4,279	229,328	116,709
334,114	4,196	229,200	116,571
335,129	4,509	228,993	116,691
336,143	4,318	229,084	116,584
337,158	4,586	228,726	116,593
338,173	4,383	228,623	116,377
339,187	4,074	228,361	116,000
340,202	4,174	228,262	116,015
341,216	4,108	228,157	115,901
342,231	3,920	227,979	115,659
343,246	4,281	227,722	115,790
344,260	4,521	227,679	115,938
345,275	4,622	227,682	116,005
346,289	4,515	227,568	115,857
347,304	4,625	227,432	115,859
348,319	4,560	227,218	115,691
349,333	4,506	227,049	115,554
350,348	4,322	226,738	115,248
351,362	4,255	226,675	115,156
352,377	4,011	226,493	114,871
353,392	3,966	226,278	114,718
354,406	4,032	226,157	114,695
355,421	194,959	1323,413	1398,963
356,435	156,252	1457,086	1398,973
