DTS Sentinel unit serial number:	SN410029Multiplexer serial number:	ORYXHardware model number:	OX2-SRSoftware version number:	ORYX F/W v4,00 Oryx Data Collector v3.7.2.0data status	okinstallation	B5 Nyhavnadifferential loss correction	single-endedforward channel	channel 2reverse channel	N/Adate	2023/12/12time	14:17:13forward acquisition time	300,00reverse acquisition time	0,00gamma	499,1914k internal	0,3157k external	0,3157temperature offset calibration	1,0000default loss term (dB/km)	0,3820temperature slope calibration	1,0000multiplexer offset coefficient	1,0000multiplexer slope coefficient	1,0000fibre end	0,00T internal ref (°C)	15,82T ext. ref 1 (°C)	-0,31T ext. ref 2 (°C)	-0,53length (m)	temperature (°C)	Stokes	anti-Stokes-744,400	-10,506	0,066	0,032
-743,385	-169,778	-0,282	-0,007
-742,371	29,697	0,181	0,113
-741,356	-149,736	-0,210	-0,012
-740,342	-110,988	0,179	0,027
-739,327	-123,132	-0,157	-0,018
-738,312	286,440	0,039	-0,053
-737,298	-80,718	-0,373	-0,091
-736,283	-58,521	0,170	-0,054
-735,269	56,499	-0,201	0,144
-734,254	-200,000	0,038	-0,130
-733,239	5,941	-0,505	-0,275
-732,225	-125,075	0,188	0,021
-731,210	14,070	-0,103	0,059
-730,196	438,398	0,052	0,084
-729,181	800,000	-0,005	-0,012
-728,167	163,794	-0,027	-0,029
-727,152	800,000	0,036	-0,086
-726,137	6,610	-0,054	0,030
-725,123	-21,329	-0,147	0,066
-724,108	800,000	-0,019	-0,055
-723,094	-52,646	0,026	0,009
-722,079	-200,000	0,005	0,032
-721,064	28,642	0,030	0,019
-720,050	27,678	0,094	0,058
-719,035	156,209	0,054	0,055
-718,021	168,084	-0,128	-0,135
-717,006	-200,000	-0,024	-0,233
-715,991	-200,000	-0,025	-0,089
-714,977	-128,452	-0,108	0,011
-713,962	-89,600	0,134	-0,029
-712,948	0,598	-0,076	-0,040
-711,933	-80,415	0,043	-0,011
-710,918	800,000	0,051	-0,105
-709,904	-200,000	-0,019	0,064
-708,889	178,835	-0,052	-0,056
-707,875	2,364	0,014	0,007
-706,860	-113,023	0,116	0,017
-705,845	89,437	0,114	0,094
-704,831	-13,156	-0,034	-0,016
-703,816	327,191	-0,049	0,069
-702,802	12,202	-0,054	0,030
-701,787	60,038	0,085	-0,062
-700,772	126,657	0,050	-0,047
-699,758	-200,000	0,006	-0,115
-698,743	115,981	0,023	0,021
-697,729	13,188	-0,081	-0,046
-696,714	-200,000	-0,040	0,188
-695,699	-1,084	-0,129	-0,067
-694,685	800,000	0,046	-0,113
-693,670	-200,000	0,002	0,044
-692,656	164,176	-0,035	0,036
-691,641	182,215	-0,030	-0,032
-690,627	298,664	0,079	0,107
-689,612	196,715	-0,068	0,077
-688,597	800,000	0,059	-0,184
-687,583	-200,000	0,007	-0,024
-686,568	528,003	0,078	-0,136
-685,554	-200,000	0,008	-0,136
-684,539	267,919	0,057	-0,073
-683,524	800,000	-0,060	-0,157
-682,510	157,681	-0,023	0,024
-681,495	159,278	0,010	0,010
-680,481	-200,000	0,005	0,044
-679,466	-66,676	-0,149	-0,043
-678,451	800,000	0,026	-0,057
-677,437	-200,000	0,015	-0,088
-676,422	-200,000	0,003	0,169
-675,408	-119,201	-0,021	0,003
-674,393	-9,238	0,102	-0,050
-673,378	171,273	-0,134	-0,142
-672,364	-200,000	-0,004	-0,082
-671,349	-200,000	0,009	-0,130
-670,335	-53,569	-0,017	-0,006
-669,320	-200,000	-0,021	0,104
-668,305	800,000	0,021	0,063
-667,291	-200,000	0,007	0,031
-666,276	-200,000	-0,006	-0,064
-665,262	109,221	-0,115	0,101
-664,247	-200,000	0,009	0,060
-663,232	195,041	-0,046	-0,051
-662,218	-35,364	0,057	0,023
-661,203	-127,380	0,032	-0,003
-660,189	205,051	-0,056	-0,064
-659,174	-5,185	-0,102	-0,051
-658,159	-61,543	-0,113	-0,035
-657,145	-92,849	0,076	-0,015
-656,130	-200,000	0,002	-0,038
-655,116	27,857	-0,044	0,027
-654,101	23,935	0,049	-0,030
-653,086	-103,673	-0,068	-0,012
-652,072	-200,000	0,017	-0,070
-651,057	312,481	-0,027	-0,037
-650,043	-129,792	-0,044	-0,004
-649,028	61,489	-0,125	0,091
-648,014	-200,000	0,002	0,156
-646,999	-13,168	-0,039	-0,019
-645,984	-140,509	-0,055	-0,004
-644,970	-200,000	-0,023	-0,114
-643,955	162,641	-0,120	-0,124
-642,941	-200,000	0,031	0,120
-641,926	800,000	-0,014	-0,042
-640,911	-200,000	-0,007	0,035
-639,897	-200,000	0,027	-0,091
-638,882	271,390	0,104	-0,135
-637,868	308,439	-0,081	-0,111
-636,853	210,418	-0,058	-0,067
-635,838	204,706	-0,117	-0,133
-634,824	484,547	-0,028	-0,048
-633,809	-200,000	0,006	-0,043
-632,795	30,518	-0,108	0,068
-631,780	46,959	-0,042	0,028
-630,765	374,730	-0,016	0,023
-629,751	91,348	-0,050	-0,041
-628,736	-15,542	0,164	-0,076
-627,722	221,306	-0,031	0,036
-626,707	800,000	-0,030	-0,095
-625,692	42,070	0,070	0,047
-624,678	297,198	-0,064	0,086
-623,663	74,061	0,109	-0,084
-622,649	216,859	0,053	-0,062
-621,634	322,325	0,004	-0,006
-620,619	800,000	-0,038	-0,089
-619,605	-160,400	0,100	0,004
-618,590	63,864	0,138	0,102
-617,576	-200,000	0,001	0,093
-616,561	-73,781	-0,081	0,021
-615,546	207,475	0,020	0,023
-614,532	60,091	0,025	0,018
-613,517	-200,000	-0,010	-0,140
-612,503	-146,846	-0,065	0,004
-611,488	317,464	0,047	-0,065
-610,474	800,000	0,035	-0,072
-609,459	229,051	0,046	-0,055
-608,444	-200,000	-0,004	-0,137
-607,430	-103,121	-0,184	0,032
-606,415	-31,125	0,047	-0,019
-605,401	-200,000	-0,001	-0,012
-604,386	-200,000	0,004	-0,039
-603,371	-180,560	0,109	0,002
-602,357	-41,998	0,004	0,001
-601,342	800,000	-0,044	-0,136
-600,328	-86,365	-0,037	-0,008
-599,313	-200,000	0,022	-0,200
-598,298	52,839	-0,076	-0,053
-597,284	-200,000	0,023	0,131
-596,269	91,494	0,138	-0,114
-595,255	143,953	-0,068	-0,066
-594,240	-42,129	-0,059	0,022
-593,225	-200,000	-0,021	-0,099
-592,211	-200,000	-0,014	-0,104
-591,196	119,479	-0,086	-0,078
-590,182	376,306	0,060	-0,090
-589,167	55,651	-0,070	0,049
-588,152	-1,149	-0,047	0,024
-587,138	-105,391	0,114	-0,019
-586,123	102,709	-0,071	0,061
-585,109	11,878	0,103	-0,058
-584,094	800,000	0,025	-0,067
-583,079	-200,000	0,016	-0,071
-582,065	238,926	-0,054	-0,066
-581,050	28,424	-0,055	0,034
-580,036	498,614	-0,032	-0,054
-579,021	580,144	-0,037	0,067
-578,006	-200,000	0,001	-0,037
-576,992	690,956	-0,093	-0,180
-575,977	-200,000	0,001	0,032
-574,963	-200,000	-0,010	0,142
-573,948	92,795	-0,081	0,067
-572,934	-63,893	0,064	0,019
-571,919	-99,621	0,029	-0,005
-570,904	169,489	-0,124	-0,130
-569,890	613,119	0,040	-0,073
-568,875	66,381	0,040	-0,029
-567,861	800,000	0,034	-0,108
-566,846	-34,529	0,062	-0,025
-565,831	-200,000	0,008	0,054
-564,817	120,233	0,091	-0,082
-563,802	-116,662	0,118	-0,016
-562,788	-121,295	-0,100	0,012
-561,773	-31,388	0,031	-0,013
-560,758	-16,797	-0,209	0,096
-559,744	8,962	0,049	-0,027
-558,729	406,927	-0,030	0,047
-557,715	237,922	-0,069	0,083
-556,700	800,000	-0,051	-0,160
-555,685	-200,000	-0,047	-0,175
-554,671	-200,000	0,005	-0,133
-553,656	-72,503	0,039	0,011
-552,642	248,110	-0,024	-0,029
-551,627	-200,000	-0,012	-0,078
-550,612	37,493	0,059	0,038
-549,598	-34,490	0,065	0,026
-548,583	-118,361	-0,081	-0,010
-547,569	186,288	-0,054	-0,058
-546,554	-200,000	-0,012	0,097
-545,539	243,632	0,092	0,113
-544,525	308,821	0,040	-0,055
-543,510	800,000	-0,065	-0,208
-542,496	434,034	-0,026	0,041
-541,481	-109,575	-0,058	-0,009
-540,466	-200,000	-0,034	-0,129
-539,452	276,352	-0,063	0,082
-538,437	-200,000	0,054	0,219
-537,423	209,085	-0,082	0,094
-536,408	-29,290	-0,119	-0,050
-535,393	-27,357	0,026	-0,011
-534,379	-200,000	-0,035	0,118
-533,364	-97,677	-0,072	0,014
-532,350	708,577	0,046	0,090
-531,335	426,887	-0,039	0,061
-530,321	638,238	0,046	-0,086
-529,306	67,475	0,076	0,056
-528,291	800,000	-0,056	-0,147
-527,277	800,000	-0,045	-0,105
-526,262	300,430	-0,033	-0,044
-525,248	254,302	-0,097	-0,121
-524,233	87,802	0,063	0,051
-523,218	-200,000	-0,007	-0,033
-522,204	-96,970	0,072	0,014
-521,189	800,000	-0,025	-0,065
-520,175	-200,000	-0,029	-0,217
-519,160	-200,000	-0,017	-0,161
-518,145	-27,065	0,117	-0,050
-517,131	-39,990	-0,208	0,079
-516,116	169,740	0,146	0,153
-515,102	-18,369	0,078	-0,036
-514,087	4,984	-0,065	-0,035
-513,072	-200,000	-0,038	-0,220
-512,058	800,000	-0,045	-0,102
-511,043	52,015	-0,069	0,048
-510,029	398,210	-0,082	0,126
-509,014	559,296	-0,030	0,053
-507,999	800,000	-0,042	0,113
-506,985	340,575	-0,010	0,014
-505,970	119,326	-0,013	-0,012
-504,956	207,585	-0,074	0,084
-503,941	146,517	0,068	0,067
-502,926	-200,000	-0,007	-0,065
-501,912	-117,181	0,137	0,018
-500,897	-45,169	0,022	-0,008
-499,883	-200,000	0,002	-0,098
-498,868	76,403	0,047	-0,036
-497,853	335,047	0,075	-0,106
-496,839	41,198	-0,012	0,008
-495,824	753,105	0,029	0,058
-494,810	-130,407	-0,048	-0,005
-493,795	272,079	-0,031	0,039
-492,781	251,876	0,106	0,132
-491,766	800,000	0,023	-0,062
-490,751	11,128	-0,106	-0,059
-489,737	138,259	-0,118	-0,113
-488,722	231,421	0,122	-0,147
-487,708	316,954	0,049	0,068
-486,693	184,770	-0,062	0,067
-485,678	-200,000	-0,034	-0,118
-484,664	221,375	-0,053	-0,062
-483,649	-142,812	-0,148	-0,010
-482,635	724,248	-0,019	-0,036
-481,620	800,000	-0,077	0,159
-480,605	-92,216	0,085	0,017
-479,591	800,000	0,028	-0,059
-478,576	800,000	0,039	-0,088
-477,562	-25,703	-0,078	-0,034
-476,547	-36,762	-0,109	0,043
-475,532	-123,159	0,165	-0,019
-474,518	-39,994	-0,071	0,027
-473,503	-69,014	-0,043	0,012
-472,489	80,982	0,097	0,076
-471,474	2,141	-0,068	0,036
-470,459	-200,000	0,006	0,039
-469,445	-200,000	-0,016	-0,056
-468,430	119,786	-0,023	-0,021
-467,416	-9,526	0,048	0,023
-466,401	699,267	0,020	-0,038
-465,386	485,979	0,038	0,063
-464,372	434,168	0,015	0,024
-463,357	273,416	-0,081	-0,105
-462,343	-200,000	-0,011	0,097
-461,328	-75,918	-0,144	-0,037
-460,313	75,963	-0,089	0,068
-459,299	-200,000	0,000	0,018
-458,284	-124,808	0,107	-0,012
-457,270	-200,000	-0,003	0,133
-456,255	-13,995	0,004	0,002
-455,241	-73,659	-0,188	-0,050
-454,226	-200,000	0,010	0,041
-453,211	-157,300	0,072	0,003
-452,197	800,000	0,009	-0,020
-451,182	-200,000	0,030	0,166
-450,168	8,895	0,064	0,035
-449,153	689,791	0,044	-0,083
-448,138	235,511	0,040	0,048
-447,124	800,000	-0,027	-0,079
-446,109	-200,000	-0,013	-0,126
-445,095	800,000	0,028	0,065
-444,080	-200,000	-0,001	0,025
-443,065	97,416	-0,116	0,097
-442,051	62,061	0,042	-0,030
-441,036	-200,000	0,003	0,041
-440,022	182,207	0,015	0,016
-439,007	144,428	0,010	0,009
-437,992	0,557	0,099	-0,051
-436,978	62,532	0,065	0,048
-435,963	371,163	0,043	0,064
-434,949	-200,000	0,017	0,074
-433,934	-200,000	0,031	-0,142
-432,919	-143,882	0,056	0,004
-431,905	501,542	-0,032	-0,054
-430,890	-81,176	0,095	-0,023
-429,876	800,000	-0,028	0,083
-428,861	-200,000	0,017	-0,092
-427,846	268,659	0,044	0,056
-426,832	132,515	-0,053	-0,050
-425,817	680,735	-0,031	-0,059
-424,803	421,551	0,048	-0,075
-423,788	-0,851	0,151	0,078
-422,773	111,810	-0,024	-0,021
-421,759	-109,301	0,080	-0,012
-420,744	800,000	0,021	-0,061
-419,730	-84,294	-0,140	0,032
-418,715	73,612	-0,074	-0,056
-417,701	800,000	0,010	0,022
-416,686	-200,000	0,006	-0,113
-415,671	104,064	-0,065	0,055
-414,657	-200,000	-0,000	-0,017
-413,642	305,145	-0,006	-0,008
-412,628	800,000	0,035	0,098
-411,613	-76,565	-0,041	0,010
-410,598	-143,048	0,095	0,007
-409,584	-109,622	0,046	0,007
-408,569	800,000	0,038	0,081
-407,555	178,961	0,071	0,076
-406,540	143,324	-0,073	-0,070
-405,525	123,528	0,084	-0,077
-404,511	14,435	-0,139	0,079
-403,496	-56,868	0,102	-0,033
-402,482	62,823	0,007	0,005
-401,467	-30,159	0,039	0,016
-400,452	267,741	-0,094	0,120
-399,438	-96,477	0,068	-0,013
-398,423	-199,276	0,031	-0,000
-397,409	182,929	-0,159	-0,171
-396,394	187,921	-0,047	-0,051
-395,379	18,580	0,064	-0,037
-394,365	214,996	0,086	0,099
-393,350	-200,000	0,047	0,188
-392,336	800,000	0,029	-0,093
-391,321	155,378	-0,097	-0,097
-390,306	166,711	-0,044	-0,046
-389,292	-31,908	-0,115	0,046
-388,277	800,000	0,021	-0,062
-387,263	-98,762	0,125	0,023
-386,248	145,999	-0,071	0,069
-385,233	-200,000	-0,008	-0,059
-384,219	-200,000	0,003	0,023
-383,204	517,552	0,050	-0,085
-382,190	-71,893	-0,052	0,014
-381,175	138,337	0,071	-0,068
-380,160	76,253	0,035	0,027
-379,146	412,868	0,065	0,101
-378,131	-104,467	0,144	0,024
-377,117	438,898	0,098	-0,155
-376,102	566,625	-0,072	-0,128
-375,088	-200,000	-0,008	-0,033
-374,073	61,223	-0,088	-0,064
-373,058	-200,000	-0,005	0,135
-372,044	800,000	0,052	0,155
-371,029	-46,014	0,079	0,028
-370,015	-200,000	-0,121	0,000
-369,000	-200,000	-0,044	0,219
-367,985	800,000	0,038	0,099
-366,971	-126,573	0,058	-0,006
-365,956	-200,000	0,008	0,048
-364,942	28,593	0,116	0,071
-363,927	150,476	-0,049	-0,048
-362,912	-38,414	0,065	0,025
-361,898	-140,442	0,029	0,002
-360,883	764,723	-0,064	-0,126
-359,869	-4,434	0,058	0,029
-358,854	-200,000	-0,051	0,171
-357,839	191,881	0,041	-0,045
-356,825	-200,000	0,003	0,025
-355,810	-24,562	0,082	-0,035
-354,796	-17,991	0,111	-0,050
-353,781	-95,732	0,047	0,009
-352,766	-79,329	-0,198	0,048
-351,752	189,031	-0,039	-0,043
-350,737	-200,000	0,046	0,163
-349,723	-78,493	-0,071	-0,017
-348,708	-200,000	0,002	0,018
-347,693	-125,043	-0,095	-0,010
-346,679	59,170	0,061	-0,044
-345,664	113,807	-0,049	0,044
-344,650	800,000	-0,035	0,074
-343,635	-108,416	0,011	-0,002
-342,620	201,673	0,030	0,033
-341,606	45,105	-0,041	0,027
-340,591	-85,145	-0,037	-0,008
-339,577	773,750	0,016	-0,032
-338,562	-200,000	0,015	-0,090
-337,548	-36,790	0,150	0,058
-336,533	438,840	0,058	0,093
-335,518	-94,002	0,155	0,031
-334,504	79,786	-0,044	0,034
-333,489	-200,000	-0,003	0,114
-332,475	22,763	-0,062	-0,037
-331,460	-200,000	0,006	-0,099
-330,445	-200,000	-0,012	-0,104
-329,431	22,332	0,149	0,088
-328,416	-200,000	-0,005	0,183
-327,402	-8,078	-0,046	0,022
-326,387	-200,000	0,014	0,123
-325,372	-200,000	0,014	0,080
-324,358	-76,081	0,055	0,014
-323,343	-200,000	0,034	0,150
-322,329	-200,000	-0,020	0,110
-321,314	86,157	0,037	-0,030
-320,299	27,763	-0,065	-0,040
-319,285	800,000	0,029	0,089
-318,270	16,207	-0,029	0,017
-317,256	-40,792	-0,116	-0,044
-316,241	-200,000	0,029	-0,175
-315,226	800,000	-0,028	-0,074
-314,212	-200,000	-0,019	0,142
-313,197	-200,000	-0,021	0,110
-312,183	800,000	-0,009	-0,022
-311,168	-200,000	0,023	-0,073
-310,153	800,000	-0,036	-0,109
-309,139	-69,013	0,087	-0,024
-308,124	97,242	0,144	0,120
-307,110	194,319	0,056	0,061
-306,095	180,418	0,074	0,078
-305,080	229,150	0,043	0,051
-304,066	-137,419	-0,073	-0,006
-303,051	117,282	-0,055	0,049
-302,037	-72,358	-0,035	-0,009
-301,022	-200,000	0,008	0,085
-300,008	800,000	0,010	-0,029
-298,993	9,381	0,047	0,026
-297,978	-200,000	-0,006	-0,050
-296,964	800,000	0,028	0,064
-295,949	-200,000	0,020	-0,073
-294,935	-200,000	-0,020	-0,106
-293,920	-148,943	0,185	0,011
-292,905	32,083	0,088	0,055
-291,891	800,000	0,027	0,060
-290,876	-7,612	-0,027	0,013
-289,862	681,697	0,040	0,075
-288,847	107,690	-0,047	0,040
-287,832	-200,000	-0,004	-0,038
-286,818	-72,268	0,063	0,017
-285,803	-53,893	0,103	0,034
-284,789	312,632	0,062	0,084
-283,774	301,249	0,116	0,156
-282,759	356,585	0,060	0,086
-281,745	495,012	-0,050	0,083
-280,730	266,233	-0,031	0,040
-279,716	-200,000	-0,031	0,176
-278,701	281,600	0,058	0,076
-277,686	-200,000	-0,014	-0,097
-276,672	800,000	-0,017	-0,045
-275,657	-3,355	-0,051	0,026
-274,643	-62,248	0,027	0,008
-273,628	105,453	-0,077	-0,066
-272,613	-200,000	0,005	0,032
-271,599	-48,443	0,097	-0,034
-270,584	-200,000	-0,013	0,153
-269,570	-200,000	0,059	0,237
-268,555	377,105	0,002	-0,004
-267,540	-87,526	-0,041	0,009
-266,526	-150,549	-0,174	0,009
-265,511	-25,840	-0,109	-0,046
-264,497	44,634	0,083	-0,055
-263,482	-158,557	0,067	-0,003
-262,467	-200,000	0,024	-0,112
-261,453	-8,424	0,016	-0,008
-260,438	-200,000	0,013	-0,167
-259,424	800,000	0,058	0,116
-258,409	-16,585	-0,118	-0,054
-257,395	-0,164	-0,082	-0,042
-256,380	-101,014	0,113	0,020
-255,365	-55,927	0,115	0,037
-254,351	-12,285	-0,126	-0,059
-253,336	-61,832	0,043	0,013
-252,322	-179,731	0,063	0,001
-251,307	800,000	0,020	0,051
-250,292	800,000	-0,039	-0,111
-249,278	800,000	-0,055	0,160
-248,263	186,767	0,067	0,072
-247,249	120,932	-0,030	0,027
-246,234	-200,000	0,008	-0,042
-245,219	-120,659	-0,067	-0,008
-244,205	735,816	-0,070	0,137
-243,190	742,588	-0,025	-0,049
-242,176	332,696	-0,045	0,063
-241,161	69,504	0,065	0,048
-240,146	-2,034	-0,026	0,013
-239,132	-6,049	-0,116	-0,057
-238,117	-44,389	0,061	0,022
-237,103	566,447	0,019	0,033
-236,088	800,000	0,016	0,050
-235,073	162,460	-0,049	-0,050
-234,059	-53,935	0,015	0,005
-233,044	2,129	-0,046	0,024
-232,030	-100,879	-0,061	0,011
-231,015	-46,797	0,068	-0,024
-230,000	-200,000	-0,021	-0,125
-228,986	-116,466	0,041	0,005
-227,971	98,863	0,070	-0,058
-226,957	16,528	0,053	0,030
-225,942	408,883	0,043	0,067
-224,927	-70,514	-0,133	-0,036
-223,913	-89,591	-0,077	0,016
-222,898	115,959	-0,129	-0,114
-221,884	-166,700	-0,110	0,003
-220,869	800,000	0,056	-0,149
-219,855	675,953	0,030	0,056
-218,840	800,000	-0,024	-0,054
-217,825	800,000	0,036	0,074
-216,811	-200,000	-0,003	0,063
-215,796	-200,000	0,011	0,038
-214,782	229,511	-0,081	-0,095
-213,767	-11,555	-0,043	-0,021
-212,752	-22,793	0,114	0,049
-211,738	-200,000	0,006	-0,045
-210,723	800,000	0,044	0,089
-209,709	-118,494	0,171	0,022
-208,694	800,000	-0,031	0,075
-207,679	-108,223	-0,134	0,021
-206,665	760,393	-0,045	0,089
-205,650	413,790	0,078	0,120
-204,636	-29,033	0,059	0,024
-203,621	245,828	-0,036	-0,044
-202,606	37,234	0,137	0,088
-201,592	-17,249	0,036	-0,016
-200,577	225,902	-0,121	-0,141
-199,563	225,795	-0,015	0,018
-198,548	-90,482	0,093	0,019
-197,533	-200,000	0,017	0,127
-196,519	175,574	-0,192	0,201
-195,504	-200,000	0,024	0,115
-194,490	800,000	-0,037	-0,075
-193,475	226,194	0,049	0,057
-192,460	-85,400	-0,134	0,030
-191,446	-53,582	-0,164	0,054
-190,431	-6,381	0,094	-0,046
-189,417	-200,000	0,019	-0,068
-188,402	704,763	0,010	0,019
-187,387	-15,167	0,086	-0,039
-186,373	163,184	0,053	0,053
-185,358	800,000	-0,032	-0,093
-184,344	746,867	-0,046	-0,089
-183,329	800,000	0,053	0,149
-182,315	109,283	-0,071	-0,062
-181,300	57,494	0,068	-0,048
-180,285	-200,000	-0,008	-0,158
-179,271	-200,000	0,036	-0,154
-178,256	-96,764	-0,032	0,006
-177,242	800,000	-0,048	0,128
-176,227	-122,025	0,085	-0,010
-175,212	-37,582	0,143	0,055
-174,198	-22,557	0,074	-0,032
-173,183	-200,000	-0,014	-0,069
-172,169	-200,000	-0,016	-0,078
-171,154	-84,000	0,034	0,008
-170,139	-11,763	-0,154	-0,072
-169,125	60,982	0,106	0,076
-168,110	800,000	0,072	0,159
-167,096	-200,000	0,003	0,034
-166,081	24,391	-0,115	0,068
-165,066	-89,837	0,158	-0,033
-164,052	-165,897	-0,134	0,004
-163,037	-200,000	-0,017	0,099
-162,023	83,310	-0,060	0,047
-161,008	800,000	-0,058	-0,144
-159,993	-44,914	0,124	0,044
-158,979	-121,431	-0,111	-0,013
-157,964	800,000	0,007	-0,016
-156,950	800,000	0,029	-0,082
-155,935	-104,212	0,057	0,009
-154,920	-89,352	0,046	0,010
-153,906	-51,792	-0,063	-0,021
-152,891	-200,000	-0,013	0,049
-151,877	127,435	-0,066	-0,061
-150,862	-200,000	-0,000	-0,020
-149,847	-200,000	-0,013	-0,060
-148,833	232,116	0,020	0,023
-147,818	-16,729	0,063	-0,029
-146,804	149,688	0,062	-0,061
-145,789	333,193	0,076	0,106
-144,775	-200,000	0,022	-0,124
-143,760	-20,556	0,048	-0,021
-142,745	-200,000	0,014	-0,088
-141,731	324,243	-0,059	-0,081
-140,716	582,447	-0,015	0,027
-139,702	800,000	-0,031	0,083
-138,687	20,492	-0,033	0,019
-137,672	-200,000	0,038	0,149
-136,658	40,362	-0,112	-0,073
-135,643	268,512	-0,052	-0,066
-134,629	-31,946	0,042	-0,017
-133,614	514,081	0,024	0,040
-132,599	-165,922	-0,043	0,001
-131,585	282,244	-0,042	-0,054
-130,570	-200,000	0,007	-0,040
-129,556	471,957	0,031	-0,050
-128,541	-44,986	-0,111	-0,040
-127,526	183,401	0,085	-0,090
-126,512	120,123	0,044	0,039
-125,497	-200,000	0,020	0,075
-124,483	204,925	-0,132	0,148
-123,468	-164,647	0,080	0,003
-122,453	-71,099	0,053	-0,014
-121,439	316,383	-0,017	-0,023
-120,424	-125,151	-0,107	-0,012
-119,410	47,079	-0,075	-0,050
-118,395	86,560	0,079	0,062
-117,380	342,051	-0,017	0,024
-116,366	202,790	0,066	0,074
-115,351	8,998	-0,042	-0,023
-114,337	237,776	0,078	-0,093
-113,322	112,796	0,058	0,050
-112,307	-53,151	0,180	-0,059
-111,293	-200,000	0,017	-0,079
-110,278	-92,368	-0,070	-0,014
-109,264	-37,467	0,026	-0,010
-108,249	-0,338	-0,070	-0,035
-107,234	800,000	0,008	0,020
-106,220	-137,634	-0,050	0,004
-105,205	-200,000	-0,004	-0,179
-104,191	-200,000	-0,023	0,101
-103,176	800,000	0,030	0,062
-102,162	100,450	0,089	-0,074
-101,147	-33,999	-0,082	0,032
-100,132	82,452	-0,060	-0,047
-99,118	-200,000	-0,028	-0,107
-98,103	800,000	0,030	-0,086
-97,089	358,112	-0,096	0,138
-96,074	38,805	0,053	0,034
-95,059	-2,363	0,106	0,053
-94,045	71,677	-0,079	0,059
-93,030	800,000	-0,028	-0,084
-92,016	309,438	0,041	-0,055
-91,001	-200,000	0,015	-0,050
-89,986	-91,302	0,212	0,043
-88,972	-178,214	-0,128	0,002
-87,957	-23,863	0,057	0,024
-86,943	-28,404	-0,041	0,017
-85,928	800,000	0,057	-0,171
-84,913	-25,950	0,124	0,052
-83,899	34,971	-0,169	-0,106
-82,884	-109,108	-0,144	-0,022
-81,870	-80,362	0,095	0,023
-80,855	475,562	0,041	-0,067
-79,840	-5,903	0,028	-0,014
-78,826	228,355	0,068	-0,079
-77,811	211,051	0,016	-0,018
-76,797	-9,962	0,010	-0,005
-75,782	800,000	-0,020	0,053
-74,767	-200,000	0,035	0,139
-73,753	26,021	0,027	-0,016
-72,738	271,227	0,088	0,112
-71,724	11,742	-0,131	-0,072
-70,709	-28,420	-0,122	-0,050
-69,694	174,317	0,051	-0,053
-68,680	-200,000	-0,019	-0,158
-67,665	415,616	0,046	0,071
-66,651	-123,222	0,151	0,017
-65,636	-42,933	-0,083	-0,030
-64,622	-62,603	-0,057	0,017
-63,607	244,094	0,056	-0,068
-62,592	-199,844	0,106	-0,000
-61,578	-169,628	-0,051	-0,001
-60,563	-111,388	0,036	0,005
-59,549	-12,350	-0,144	-0,067
-58,534	-8,890	-1,872	-0,897
-57,519	-200,000	-0,286	-0,956
-56,505	-200,000	-1,130	-4,921
-55,490	33,586	0,836	0,521
-54,476	800,000	5,159	11,941
-53,461	-200,000	17,444	284,807
-52,446	800,000	722,833	2229,715
-51,432	544,354	1638,691	2820,211
-50,417	111,947	1631,349	1414,300
-49,403	76,097	1286,473	976,318
-48,388	32,736	1028,436	637,316
-47,373	20,305	990,333	572,688
-46,359	18,743	978,521	560,709
-45,344	16,117	974,597	549,835
-44,330	16,270	973,224	549,540
-43,315	15,927	971,120	547,210
-42,300	15,816	970,128	546,264
-41,286	15,813	969,095	545,650
-40,271	15,811	968,148	545,091
-39,257	15,882	967,186	544,759
-38,242	15,817	966,419	544,092
-37,227	15,880	965,462	543,738
-36,213	15,861	964,779	543,271
-35,198	15,846	963,770	542,630
-34,184	15,901	963,077	542,398
-33,169	15,762	962,259	541,467
-32,154	15,893	961,197	541,271
-31,140	15,832	960,401	540,603
-30,125	15,863	959,572	540,214
-29,111	15,849	958,849	539,740
-28,096	15,917	958,172	539,559
-27,082	15,857	957,621	539,034
-26,067	15,834	956,617	538,373
-25,052	15,823	955,866	537,893
-24,038	15,835	955,311	537,600
-23,023	15,823	954,616	537,148
-22,009	15,854	953,924	536,835
-20,994	15,904	953,235	536,586
-19,979	15,860	952,837	536,201
-18,965	15,840	952,212	535,765
-17,950	15,801	951,670	535,312
-16,936	15,795	950,838	534,805
-15,921	15,722	950,116	534,143
-14,906	15,685	949,496	533,658
-13,892	15,737	948,800	533,410
-12,877	15,745	948,181	533,065
-11,863	15,687	947,647	532,559
-10,848	15,732	947,147	532,400
-9,833	15,869	946,395	532,392
-8,819	15,821	945,810	531,889
-7,804	15,769	945,271	531,400
-6,790	15,746	944,551	530,902
-5,775	15,833	943,977	530,836
-4,760	15,762	943,478	530,309
-3,746	15,732	942,850	529,837
-2,731	15,576	942,193	528,954
-1,717	15,546	941,665	528,543
-0,702	15,589	940,838	528,194
0,313	15,380	940,174	527,957
1,327	18,504	938,049	536,569
2,342	27,484	795,685	478,966
3,356	24,401	459,732	271,992
4,371	-2,713	314,196	157,096
5,386	-6,516	295,888	144,085
6,400	-8,539	289,933	139,166
7,415	-8,998	287,366	137,471
8,429	-9,159	285,870	136,585
9,444	-9,286	284,992	136,030
10,459	-9,162	284,351	135,833
11,473	-9,272	283,821	135,460
12,488	-9,103	283,345	135,385
13,502	-9,249	282,833	134,987
14,517	-9,243	282,419	134,783
15,531	-9,322	281,951	134,472
16,546	-9,123	281,490	134,432
17,561	-9,437	281,002	133,884
18,575	-9,219	280,827	133,999
19,590	-9,472	280,436	133,557
20,604	-9,170	280,087	133,668
21,619	-9,396	279,901	133,351
22,634	-9,178	279,378	133,299
23,648	-9,422	279,255	132,995
24,663	-9,389	278,856	132,825
25,677	-9,526	278,687	132,602
26,692	-9,205	278,289	132,706
27,707	-9,458	278,036	132,333
28,721	-9,366	277,854	132,322
29,736	-9,256	277,374	132,186
30,750	-9,329	277,302	132,071
31,765	-9,477	277,001	131,776
32,780	-9,425	276,754	131,695
33,794	-9,340	276,472	131,630
34,809	-9,428	276,211	131,411
35,823	-9,432	275,961	131,277
36,838	-9,150	275,636	131,375
37,853	-9,559	275,630	130,976
38,867	-9,466	275,268	130,880
39,882	-9,455	275,052	130,776
40,896	-9,376	274,856	130,745
41,911	-9,414	274,547	130,550
42,926	-9,508	274,326	130,346
43,940	-9,548	274,003	130,143
44,955	-9,441	273,929	130,197
45,969	-9,528	273,623	129,959
46,984	-9,753	273,422	129,642
47,999	-9,873	273,155	129,392
49,013	-9,905	272,759	129,163
50,028	-10,202	272,566	128,784
51,042	-10,269	272,207	128,540
52,057	-10,367	272,150	128,411
53,071	-10,093	271,877	128,524
54,086	-10,067	271,750	128,478
55,101	-9,830	271,414	128,527
56,115	-9,839	271,355	128,479
57,130	-9,392	271,269	128,840
58,144	-9,221	271,117	128,915
59,159	-9,258	270,791	128,714
60,174	-9,203	270,505	128,617
61,188	-9,056	270,345	128,664
62,203	-9,278	270,098	128,331
63,217	-9,173	269,803	128,276
64,232	-9,298	269,733	128,116
65,247	-9,281	269,579	128,048
66,261	-9,342	269,166	127,784
67,276	-9,383	268,960	127,637
68,290	-9,656	268,809	127,304
69,305	-9,714	268,515	127,101
70,320	-9,553	268,150	127,064
71,334	-9,395	268,058	127,153
72,349	-9,224	267,967	127,255
73,363	-9,073	267,752	127,279
74,378	-9,229	267,544	127,026
75,393	-9,212	267,358	126,942
76,407	-9,226	267,057	126,775
77,422	-9,217	266,796	126,648
78,436	-9,313	266,667	126,488
79,451	-9,199	266,463	126,483
80,466	-9,239	266,026	126,229
81,480	-9,430	265,917	125,993
82,495	-9,526	265,769	125,825
83,509	-9,377	265,455	125,799
84,524	-9,316	265,288	125,764
85,539	-9,491	265,122	125,517
86,553	-9,854	264,918	125,082
87,568	-9,558	264,748	125,257
88,582	-9,516	264,597	125,213
89,597	-9,643	264,354	124,972
90,611	-9,462	264,293	125,095
91,626	-9,421	264,167	125,061
92,641	-9,341	263,875	124,983
93,655	-9,407	263,609	124,786
94,670	-9,400	263,416	124,690
95,684	-9,456	263,282	124,565
96,699	-9,279	262,903	124,534
97,714	-9,268	262,838	124,501
98,728	-9,287	262,479	124,303
99,743	-9,819	262,277	123,722
100,757	-9,717	261,924	123,636
101,772	-9,572	261,912	123,748
102,787	-9,531	261,709	123,677
103,801	-9,479	261,522	123,624
104,816	-9,233	261,362	123,756
105,830	-9,228	261,251	123,697
106,845	-9,221	261,070	123,606
107,860	-9,298	260,877	123,436
108,874	-9,333	260,551	123,239
109,889	-9,252	260,446	123,250
110,903	-9,243	260,174	123,119
111,918	-9,492	259,979	122,796
112,933	-9,364	259,939	122,878
113,947	-9,287	259,723	122,834
114,962	-9,340	259,620	122,727
115,976	-9,301	259,258	122,579
116,991	-9,356	259,142	122,465
118,006	-9,306	258,894	122,381
119,020	-9,249	258,730	122,343
120,035	-9,412	258,650	122,152
121,049	-9,100	258,363	122,278
122,064	-9,338	258,244	122,003
123,079	-9,196	258,150	122,071
124,093	-9,295	257,770	121,794
125,108	-9,368	257,583	121,631
126,122	-9,653	257,248	121,214
127,137	-9,808	257,250	121,069
128,151	-9,764	256,958	120,959
129,166	-9,606	256,685	120,957
130,181	-9,513	256,583	120,979
131,195	-9,713	256,328	120,674
132,210	-9,403	256,333	120,935
133,224	-9,409	256,218	120,865
134,239	-9,137	255,786	120,886
135,254	-9,385	255,823	120,678
136,268	-9,153	255,455	120,694
137,283	-9,535	255,210	120,238
138,297	-9,497	254,880	120,104
139,312	-9,699	254,825	119,893
140,327	-9,318	254,563	120,087
141,341	-9,123	254,620	120,272
142,356	-9,216	254,456	120,103
143,370	-9,103	254,382	120,155
144,385	-8,900	254,117	120,193
145,400	-8,923	253,895	120,057
146,414	-9,023	253,726	119,882
147,429	-9,168	253,605	119,690
148,443	-9,069	253,378	119,657
149,458	-9,038	253,331	119,650
150,473	-9,056	252,965	119,451
151,487	-9,411	252,832	119,074
152,502	-9,178	252,681	119,191
153,516	-9,276	252,591	119,055
154,531	-9,068	252,369	119,117
155,546	-9,200	252,105	118,869
156,560	-9,128	251,944	118,844
157,575	-9,252	251,708	118,617
158,589	-9,440	251,572	118,382
159,604	-9,194	251,392	118,496
160,619	-9,110	251,083	118,411
161,633	-8,992	250,898	118,413
162,648	-9,021	250,905	118,382
163,662	-9,064	250,728	118,250
164,677	-8,937	250,525	118,252
165,692	-8,963	250,260	118,094
166,706	-8,962	250,238	118,074
167,721	-8,969	249,968	117,930
168,735	-9,042	249,967	117,857
169,750	-9,044	249,835	117,783
170,764	-9,010	249,625	117,703
171,779	-8,922	249,392	117,656
172,794	-8,899	249,345	117,643
173,808	-9,109	249,152	117,365
174,823	-9,342	248,780	116,984
175,837	-9,565	248,388	116,602
176,852	-9,190	248,549	116,981
177,867	-8,940	248,385	117,103
178,881	-8,964	248,264	117,016
179,896	-8,969	248,028	116,890
180,910	-8,991	247,832	116,768
181,925	-9,015	247,769	116,708
182,940	-9,066	247,673	116,610
183,954	-8,834	247,255	116,596
184,969	-8,913	247,202	116,495
185,983	-9,015	247,152	116,376
186,998	-8,723	246,781	116,434
188,013	-8,947	246,662	116,181
189,027	-8,965	246,550	116,103
190,042	-9,050	246,388	115,946
191,056	-8,960	246,236	115,939
192,071	-8,974	246,146	115,874
193,086	-9,038	246,021	115,752
194,100	-8,897	245,745	115,729
195,115	-8,774	245,557	115,732
196,129	-9,119	245,448	115,385
197,144	-8,983	245,119	115,332
198,159	-9,130	244,972	115,132
199,173	-9,067	244,780	115,083
200,188	-8,897	244,569	115,114
201,202	-9,131	244,190	114,732
202,217	-9,526	244,070	114,342
203,232	-9,383	243,803	114,323
204,246	-9,160	243,910	114,547
205,261	-8,436	243,787	115,072
206,275	-9,403	243,600	114,181
207,290	-5,971	244,892	117,602
208,304	0,973	246,934	124,318
209,319	3,841	247,700	127,066
210,334	4,098	247,774	127,306
211,348	4,321	247,660	127,420
212,363	4,565	247,604	127,581
213,377	4,542	247,436	127,464
214,392	4,578	247,226	127,375
215,407	4,455	247,175	127,236
216,421	4,423	246,867	127,039
217,436	4,742	246,801	127,256
218,450	4,967	246,488	127,268
219,465	4,353	246,372	126,692
220,480	4,352	246,040	126,510
221,494	4,297	245,994	126,430
222,509	4,335	245,785	126,342
223,523	4,499	245,542	126,340
224,538	3,905	245,280	125,708
225,553	3,924	245,356	125,752
226,567	4,092	244,999	125,695
227,582	4,140	244,929	125,687
228,596	4,236	244,793	125,685
229,611	3,956	244,463	125,276
230,626	3,706	244,332	124,994
231,640	3,896	244,246	125,094
232,655	4,095	244,033	125,135
233,669	3,929	243,917	124,929
234,684	3,813	243,788	124,759
235,699	4,355	243,677	125,130
236,713	4,279	243,616	125,026
237,728	4,023	243,333	124,662
238,742	4,045	243,048	124,523
239,757	3,863	242,980	124,330
240,772	3,944	242,892	124,339
241,786	3,946	242,752	124,257
242,801	4,111	242,503	124,253
243,815	3,597	242,439	123,794
244,830	3,981	242,407	124,076
245,844	4,141	242,143	124,059
246,859	4,018	242,013	123,882
247,874	3,970	241,781	123,714
248,888	4,005	241,656	123,667
249,903	4,046	241,444	123,581
250,917	4,237	241,342	123,670
251,932	4,305	241,281	123,682
252,947	4,452	241,031	123,661
253,961	4,247	240,686	123,309
254,976	3,929	240,764	123,084
255,990	4,362	240,554	123,312
257,005	4,106	240,323	122,977
258,020	3,791	240,111	122,607
259,034	3,709	239,931	122,439
260,049	4,156	239,921	122,779
261,063	3,832	239,743	122,419
262,078	4,050	239,513	122,464
263,093	4,234	239,446	122,565
264,107	4,289	239,167	122,455
265,122	4,008	239,091	122,182
266,136	4,159	239,004	122,246
267,151	4,357	238,895	122,337
268,166	3,990	238,671	121,921
269,180	3,924	238,391	121,715
270,195	4,633	238,369	122,253
271,209	4,707	238,412	122,323
272,224	4,252	237,995	121,739
273,239	3,590	237,832	121,122
274,253	3,784	237,730	121,212
275,268	4,080	237,518	121,327
276,282	4,206	237,342	121,325
277,297	3,951	237,015	120,947
278,312	3,797	237,136	120,877
279,326	4,063	236,941	120,975
280,341	3,802	236,820	120,698
281,355	3,992	236,667	120,758
282,370	4,049	236,642	120,780
283,384	3,859	236,490	120,542
284,399	3,805	236,252	120,368
285,414	3,635	236,001	120,096
286,428	3,870	235,845	120,189
287,443	3,897	235,829	120,192
288,457	4,202	235,645	120,325
289,472	4,323	235,423	120,296
290,487	4,084	235,332	120,052
291,501	3,959	235,113	119,833
292,516	3,810	234,916	119,605
293,530	3,485	234,787	119,276
294,545	4,092	234,615	119,650
295,560	4,243	234,484	119,690
296,574	3,898	234,328	119,332
297,589	3,767	234,170	119,139
298,603	4,077	234,196	119,382
299,618	4,092	233,952	119,259
300,633	4,130	233,911	119,257
301,647	4,320	233,810	119,341
302,662	4,408	233,835	119,412
303,676	4,253	233,623	119,173
304,691	4,185	233,338	118,965
305,706	4,371	233,247	119,051
306,720	4,208	233,163	118,872
307,735	4,168	232,898	118,695
308,749	4,103	232,757	118,563
309,764	4,170	232,481	118,463
310,779	3,841	232,299	118,107
311,793	3,787	232,067	117,937
312,808	3,981	231,864	117,972
313,822	3,702	231,969	117,801
314,837	3,756	231,700	117,695
315,852	3,790	231,510	117,614
316,866	3,962	231,527	117,744
317,881	4,244	231,375	117,872
318,895	3,885	231,067	117,430
319,910	4,317	231,012	117,722
320,925	4,450	230,941	117,777
321,939	4,115	230,661	117,368
322,954	4,191	230,677	117,423
323,968	3,931	230,453	117,101
324,983	3,806	230,232	116,883
325,997	3,881	230,019	116,822
327,012	4,250	230,083	117,124
328,027	4,327	229,998	117,129
329,041	4,479	229,955	117,212
330,056	4,754	229,860	117,361
331,070	4,965	229,682	117,420
332,085	4,422	229,394	116,852
333,100	4,323	229,279	116,708
334,114	4,148	229,069	116,458
335,129	4,395	228,938	116,568
336,143	4,510	228,959	116,655
337,158	4,515	228,602	116,466
338,173	4,335	228,407	116,221
339,187	4,281	228,360	116,146
340,202	4,325	228,218	116,097
341,216	4,310	228,000	115,964
342,231	4,214	227,767	115,763
343,246	4,220	227,698	115,723
344,260	4,353	227,491	115,706
345,275	4,241	227,596	115,665
346,289	4,360	227,422	115,656
347,304	4,567	227,279	115,728
348,319	4,206	227,202	115,408
349,333	4,323	226,972	115,369
350,348	4,123	226,691	115,066
351,362	4,189	226,550	115,033
352,377	4,264	226,381	114,993
353,392	3,979	226,202	114,680
354,406	3,789	226,061	114,457
355,421	195,876	1322,507	1400,803
356,435	157,019	1456,096	1400,807
