DTS Sentinel unit serial number:	SN410029Multiplexer serial number:	ORYXHardware model number:	OX2-SRSoftware version number:	ORYX F/W v4,00 Oryx Data Collector v3.7.2.0data status	okinstallation	B5 Nyhavnadifferential loss correction	single-endedforward channel	channel 2reverse channel	N/Adate	2023/12/12time	02:57:13forward acquisition time	300,00reverse acquisition time	0,00gamma	499,1914k internal	0,3156k external	0,3156temperature offset calibration	1,0000default loss term (dB/km)	0,3820temperature slope calibration	1,0000multiplexer offset coefficient	1,0000multiplexer slope coefficient	1,0000fibre end	0,00T internal ref (°C)	15,75T ext. ref 1 (°C)	-0,71T ext. ref 2 (°C)	-1,00length (m)	temperature (°C)	Stokes	anti-Stokes-744,400	-77,767	0,080	0,020
-743,385	-88,421	-0,304	0,066
-742,371	-66,593	0,215	0,063
-741,356	-19,511	-0,275	0,125
-740,342	159,867	0,033	0,033
-739,327	-145,774	-0,224	0,014
-738,312	-76,814	0,237	0,061
-737,298	-129,099	-0,319	-0,032
-736,283	195,742	0,094	-0,105
-735,269	-157,906	-0,293	0,013
-734,254	-13,616	0,246	0,117
-733,239	-70,723	-0,602	-0,166
-732,225	47,232	0,121	0,083
-731,210	-200,000	0,004	-0,030
-730,196	-40,273	-0,054	-0,020
-729,181	797,538	-0,043	0,088
-728,167	-87,998	0,059	0,013
-727,152	2,455	-0,094	-0,050
-726,137	50,559	-0,130	-0,091
-725,123	651,743	0,011	-0,021
-724,108	800,000	-0,043	-0,090
-723,094	-200,000	0,002	-0,044
-722,079	-82,836	-0,139	-0,033
-721,064	-200,000	-0,014	0,067
-720,050	48,099	-0,121	0,083
-719,035	-133,263	-0,210	0,019
-718,021	300,132	-0,062	-0,085
-717,006	19,192	-0,021	0,013
-715,991	-142,129	-0,054	0,004
-714,977	161,872	-0,056	-0,058
-713,962	-200,000	0,022	-0,126
-712,948	800,000	-0,047	-0,121
-711,933	-172,526	-0,143	-0,003
-710,918	-36,926	-0,110	0,043
-709,904	224,623	-0,027	0,032
-708,889	314,363	-0,091	-0,126
-707,875	800,000	-0,056	-0,117
-706,860	14,294	0,008	0,005
-705,845	17,947	-0,037	-0,022
-704,831	800,000	0,013	0,032
-703,816	201,405	-0,057	0,064
-702,802	147,699	0,085	-0,084
-701,787	-200,000	0,014	-0,125
-700,772	-16,860	0,081	-0,038
-699,758	270,173	-0,007	0,009
-698,743	800,000	0,005	0,013
-697,729	-200,000	-0,006	0,057
-696,714	45,675	0,068	-0,046
-695,699	-137,192	-0,129	0,011
-694,685	22,440	-0,121	0,072
-693,670	-61,197	-0,039	-0,012
-692,656	-18,325	-0,025	-0,011
-691,641	154,754	-0,093	-0,094
-690,627	-27,685	0,167	-0,071
-689,612	166,481	-0,084	0,087
-688,597	-200,000	-0,026	0,088
-687,583	-153,057	-0,208	-0,011
-686,568	-165,956	0,022	0,001
-685,554	-200,000	0,011	0,143
-684,539	-200,000	0,002	-0,019
-683,524	233,979	-0,059	0,071
-682,510	800,000	-0,031	-0,072
-681,495	-200,000	0,016	0,084
-680,481	43,854	0,058	-0,039
-679,466	-200,000	0,027	-0,218
-678,451	65,284	-0,053	0,039
-677,437	-200,000	0,012	-0,067
-676,422	-200,000	0,012	0,045
-675,408	800,000	-0,003	-0,007
-674,393	-122,601	-0,102	-0,012
-673,378	189,145	-0,103	-0,114
-672,364	800,000	-0,088	-0,239
-671,349	800,000	-0,022	-0,059
-670,335	-200,000	-0,004	0,174
-669,320	325,870	-0,105	0,148
-668,305	800,000	-0,030	0,085
-667,291	-6,269	0,084	0,042
-666,276	470,394	0,027	0,044
-665,262	336,999	-0,122	-0,175
-664,247	454,977	-0,077	-0,126
-663,232	-36,995	0,020	0,008
-662,218	-113,790	-0,078	-0,011
-661,203	800,000	0,070	-0,150
-660,189	800,000	0,021	-0,052
-659,174	383,795	0,069	-0,104
-658,159	0,362	0,042	0,022
-657,145	96,593	0,088	0,074
-656,130	2,498	-0,128	-0,068
-655,116	-46,544	0,136	-0,049
-654,101	-200,000	-0,008	0,126
-653,086	278,740	-0,046	-0,060
-652,072	-200,000	-0,015	-0,067
-651,057	-101,215	-0,101	-0,018
-650,043	63,953	0,108	0,080
-649,028	-200,000	-0,007	0,108
-648,014	-200,000	-0,027	0,098
-646,999	-35,542	-0,064	0,025
-645,984	-200,000	0,019	-0,067
-644,970	-200,000	0,010	-0,188
-643,955	-200,000	0,007	-0,050
-642,941	-200,000	0,018	0,091
-641,926	-161,356	-0,099	0,004
-640,911	18,537	-0,056	0,033
-639,897	113,112	0,040	0,035
-638,882	-132,965	-0,077	0,007
-637,868	339,273	-0,109	-0,156
-636,853	-57,006	-0,090	0,029
-635,838	-112,314	0,035	-0,005
-634,824	800,000	-0,066	-0,134
-633,809	-137,374	0,024	0,002
-632,795	525,532	0,008	0,013
-631,780	-200,000	-0,011	-0,145
-630,765	-102,816	-0,047	0,008
-629,751	-161,172	-0,081	0,003
-628,736	-156,266	-0,147	0,007
-627,722	225,828	0,068	-0,081
-626,707	800,000	0,019	-0,052
-625,692	-200,000	0,011	-0,103
-624,678	-29,183	0,026	0,011
-623,663	417,869	-0,140	-0,221
-622,649	800,000	0,018	-0,054
-621,634	406,445	-0,074	-0,115
-620,619	53,306	-0,163	0,115
-619,605	50,053	-0,013	-0,009
-618,590	189,636	0,086	0,095
-617,576	84,307	-0,063	-0,051
-616,561	-129,959	-0,031	-0,003
-615,546	73,915	-0,035	-0,027
-614,532	-200,000	-0,006	-0,076
-613,517	800,000	0,045	0,108
-612,503	-8,354	0,110	0,054
-611,488	-19,312	-0,029	-0,013
-610,474	-200,000	-0,004	0,113
-609,459	103,246	-0,043	0,037
-608,444	-44,415	-0,074	0,027
-607,430	29,626	-0,019	0,012
-606,415	-23,887	-0,096	0,042
-605,401	307,697	-0,064	0,087
-604,386	324,972	0,086	0,121
-603,371	133,716	-0,104	0,099
-602,357	184,617	-0,131	-0,143
-601,342	33,096	0,018	-0,012
-600,328	-200,000	0,007	-0,084
-599,313	-200,000	0,003	0,065
-598,298	680,823	-0,010	0,019
-597,284	-41,505	0,055	-0,021
-596,269	553,769	0,016	-0,028
-595,255	800,000	0,032	0,078
-594,240	-137,562	-0,164	-0,013
-593,225	279,280	-0,087	-0,115
-592,211	-200,000	-0,001	0,061
-591,196	-11,385	0,072	-0,035
-590,182	28,405	-0,089	0,055
-589,167	-55,947	0,162	-0,053
-588,152	-200,000	-0,016	0,113
-587,138	-144,509	-0,080	-0,005
-586,123	326,844	-0,108	-0,153
-585,109	67,383	-0,150	0,112
-584,094	752,638	-0,056	0,111
-583,079	165,070	0,077	-0,079
-582,065	-96,248	-0,078	-0,015
-581,050	24,411	0,066	-0,040
-580,036	-200,000	-0,011	-0,169
-579,021	-116,681	-0,091	0,012
-578,006	-14,686	-0,035	0,016
-576,992	145,889	0,054	-0,053
-575,977	-79,741	0,063	-0,015
-574,963	199,487	0,170	0,191
-573,948	20,118	0,050	0,030
-572,934	-200,000	-0,032	0,117
-571,919	-103,217	-0,055	0,009
-570,904	-95,056	-0,084	-0,016
-569,890	-200,000	-0,026	-0,168
-568,875	-200,000	-0,027	-0,093
-567,861	0,756	0,059	-0,031
-566,846	-46,317	0,081	-0,029
-565,831	79,277	-0,120	-0,094
-564,817	696,926	0,085	-0,165
-563,802	800,000	-0,061	-0,136
-562,788	-120,828	-0,121	-0,015
-561,773	0,418	-0,042	-0,022
-560,758	-135,598	0,141	-0,012
-559,744	107,660	-0,067	-0,058
-558,729	800,000	-0,021	-0,054
-557,715	-50,084	-0,089	-0,031
-556,700	291,110	-0,018	0,023
-555,685	-84,697	0,102	0,023
-554,671	-129,207	-0,038	-0,004
-553,656	-200,000	-0,002	-0,039
-552,642	62,682	-0,055	0,040
-551,627	-200,000	-0,006	0,099
-550,612	-32,485	0,090	0,037
-549,598	20,781	-0,132	-0,078
-548,583	-168,679	0,146	-0,004
-547,569	-200,000	0,022	-0,082
-546,554	54,182	-0,057	-0,040
-545,539	3,751	-0,154	0,082
-544,525	-200,000	0,010	-0,065
-543,510	367,886	-0,073	-0,108
-542,496	-55,009	-0,042	-0,014
-541,481	-11,146	-0,099	-0,048
-540,466	-27,834	0,049	0,021
-539,452	242,582	-0,049	0,060
-538,437	537,274	-0,078	0,135
-537,423	163,465	0,075	-0,078
-536,408	800,000	0,037	-0,087
-535,393	-200,000	0,006	-0,082
-534,379	-200,000	0,008	-0,229
-533,364	-200,000	-0,010	0,136
-532,350	24,534	0,104	0,063
-531,335	-200,000	-0,024	-0,151
-530,321	-200,000	0,003	-0,051
-529,306	-200,000	-0,005	0,043
-528,291	-200,000	0,019	-0,089
-527,277	-13,499	0,095	0,045
-526,262	-184,412	0,141	0,002
-525,248	-98,552	-0,061	-0,011
-524,233	-200,000	0,100	-0,000
-523,218	210,036	-0,066	0,076
-522,204	216,763	0,018	-0,021
-521,189	-95,034	-0,136	0,027
-520,175	-91,612	-0,061	-0,013
-519,160	-36,313	0,108	0,042
-518,145	-134,962	-0,117	0,010
-517,131	-200,000	0,013	0,169
-516,116	647,433	0,031	0,058
-515,102	-49,292	0,144	0,050
-514,087	800,000	0,018	-0,046
-513,072	331,926	-0,027	0,038
-512,058	-19,146	-0,097	0,044
-511,043	118,257	-0,064	0,058
-510,029	-200,000	-0,000	0,103
-509,014	-123,058	0,039	-0,005
-507,999	-63,819	-0,169	0,050
-506,985	145,647	0,070	-0,069
-505,970	154,620	-0,048	-0,048
-504,956	-46,080	0,116	-0,042
-503,941	-200,000	0,020	-0,103
-502,926	21,090	0,117	-0,069
-501,912	-51,290	-0,097	0,033
-500,897	37,369	-0,044	-0,029
-499,883	800,000	-0,078	-0,182
-498,868	72,211	-0,127	-0,096
-497,853	326,302	-0,028	-0,039
-496,839	800,000	0,020	0,044
-495,824	-200,000	-0,005	0,049
-494,810	36,922	0,081	0,052
-493,795	-200,000	0,011	-0,058
-492,781	-200,000	0,006	-0,019
-491,766	118,255	-0,011	-0,010
-490,751	-12,497	-0,043	0,021
-489,737	-200,000	-0,020	0,135
-488,722	149,897	-0,041	-0,041
-487,708	-200,000	0,007	0,033
-486,693	228,182	-0,118	-0,141
-485,678	-200,000	-0,003	0,079
-484,664	-13,523	-0,060	0,028
-483,649	-200,000	0,009	0,065
-482,635	-200,000	-0,005	0,102
-481,620	-200,000	0,018	0,073
-480,605	-200,000	-0,003	0,136
-479,591	551,540	-0,077	0,136
-478,576	-200,000	-0,005	-0,068
-477,562	637,796	-0,019	-0,035
-476,547	335,499	-0,026	0,036
-475,532	-200,000	0,031	0,115
-474,518	-50,755	0,071	0,024
-473,503	-65,559	0,176	0,051
-472,489	624,040	0,029	-0,054
-471,474	336,760	0,049	0,070
-470,459	-200,000	-0,008	0,029
-469,445	496,745	-0,044	0,073
-468,430	800,000	0,027	0,058
-467,416	-81,226	0,094	-0,023
-466,401	-121,916	0,064	0,008
-465,386	5,890	0,169	0,091
-464,372	-200,000	0,011	-0,076
-463,357	224,171	-0,044	-0,052
-462,343	225,727	0,023	0,027
-461,328	800,000	-0,009	0,027
-460,313	-30,251	-0,084	-0,034
-459,299	-200,000	0,007	-0,024
-458,284	-101,238	-0,054	0,009
-457,270	52,506	-0,090	-0,063
-456,255	-110,941	0,074	-0,011
-455,241	1,396	0,136	-0,071
-454,226	-100,657	0,034	0,006
-453,211	333,807	-0,028	0,039
-452,197	399,157	0,011	0,017
-451,182	-200,000	0,004	-0,041
-450,168	-200,000	-0,018	-0,133
-449,153	318,458	-0,072	-0,100
-448,138	58,009	-0,102	-0,073
-447,124	155,154	0,074	-0,075
-446,109	67,781	0,095	-0,071
-445,095	194,937	0,081	-0,090
-444,080	-12,946	0,114	0,054
-443,065	-200,000	0,033	0,126
-442,051	244,266	-0,016	0,019
-441,036	-200,000	-0,046	-0,158
-440,022	-24,476	-0,094	-0,041
-439,007	-34,779	-0,100	-0,040
-437,992	800,000	-0,052	0,126
-436,978	-90,236	0,152	0,032
-435,963	-67,548	-0,086	-0,024
-434,949	800,000	0,014	0,039
-433,934	353,722	-0,062	0,090
-432,919	-51,453	0,076	-0,026
-431,905	-78,608	-0,137	-0,034
-430,890	21,555	-0,021	-0,013
-429,876	644,476	0,037	-0,069
-428,861	-47,075	0,014	-0,005
-427,846	-200,000	0,001	0,076
-426,832	134,176	-0,070	-0,066
-425,817	494,528	-0,058	0,097
-424,803	489,918	-0,039	0,066
-423,788	619,958	0,056	0,104
-422,773	-200,000	0,014	0,055
-421,759	-200,000	-0,021	0,136
-420,744	159,016	-0,128	0,129
-419,730	800,000	0,059	-0,178
-418,715	-200,000	0,004	-0,046
-417,701	49,609	0,026	0,017
-416,686	800,000	-0,041	0,089
-415,671	205,667	0,023	0,026
-414,657	-200,000	-0,013	0,157
-413,642	41,168	0,052	0,034
-412,628	246,859	0,042	0,051
-411,613	-19,121	-0,134	-0,060
-410,598	800,000	0,065	-0,144
-409,584	-200,000	0,006	0,024
-408,569	-110,104	0,129	0,019
-407,555	165,921	-0,025	0,026
-406,540	-32,125	0,069	-0,028
-405,525	-114,438	0,146	-0,020
-404,511	546,937	-0,060	-0,105
-403,496	-200,000	0,042	-0,167
-402,482	178,464	0,053	-0,057
-401,467	-71,093	0,034	0,009
-400,452	79,963	0,126	0,098
-399,438	172,472	-0,061	0,064
-398,423	800,000	-0,041	0,128
-397,409	-38,267	-0,034	0,013
-396,394	-72,547	-0,090	0,024
-395,379	-136,921	0,076	-0,006
-394,365	285,627	0,034	0,044
-393,350	383,705	-0,018	0,027
-392,336	-200,000	0,035	0,137
-391,321	62,682	0,178	-0,129
-390,306	69,370	-0,016	-0,012
-389,292	-12,522	-0,150	0,071
-388,277	196,648	-0,087	-0,097
-387,263	-200,000	0,003	0,095
-386,248	-200,000	0,016	0,193
-385,233	66,964	0,111	0,082
-384,219	-200,000	0,015	-0,052
-383,204	-200,000	-0,009	-0,065
-382,190	-7,700	0,072	-0,035
-381,175	-65,124	-0,064	0,019
-380,160	-200,000	0,017	-0,057
-379,146	137,817	0,069	-0,066
-378,131	800,000	-0,006	-0,017
-377,117	-200,000	0,051	-0,212
-376,102	-200,000	0,008	-0,109
-375,088	-200,000	0,017	-0,128
-374,073	56,680	-0,008	0,006
-373,058	-22,235	0,111	-0,049
-372,044	302,284	0,030	-0,040
-371,029	8,554	0,086	0,047
-370,015	800,000	0,071	0,179
-369,000	-200,000	-0,059	0,230
-367,985	800,000	-0,030	0,093
-366,971	-200,000	0,005	-0,103
-365,956	67,022	0,083	0,062
-364,942	-200,000	0,035	0,134
-363,927	-200,000	-0,012	0,061
-362,912	-15,391	0,098	0,045
-361,898	642,817	0,024	-0,044
-360,883	59,400	0,042	0,030
-359,869	-150,388	0,049	-0,003
-358,854	-159,259	0,005	0,000
-357,839	800,000	-0,035	0,076
-356,825	-167,077	0,135	-0,004
-355,810	-116,243	0,062	-0,008
-354,796	103,975	-0,085	-0,073
-353,781	247,552	0,039	0,048
-352,766	21,013	0,024	0,014
-351,752	10,484	0,193	-0,107
-350,737	329,245	0,052	0,072
-349,723	-81,250	0,130	-0,031
-348,708	44,354	0,121	-0,080
-347,693	-4,506	0,134	-0,067
-346,679	-200,000	-0,022	-0,074
-345,664	800,000	-0,074	-0,222
-344,650	754,636	0,039	0,077
-343,635	-112,341	-0,088	-0,013
-342,620	-200,000	0,004	-0,025
-341,606	174,341	0,022	-0,024
-340,591	-200,000	-0,031	0,160
-339,577	262,236	0,052	0,066
-338,562	62,316	-0,114	-0,083
-337,548	536,929	0,024	-0,041
-336,533	-95,043	0,031	0,006
-335,518	-159,394	0,124	-0,005
-334,504	-153,804	0,091	-0,004
-333,489	128,069	-0,033	0,031
-332,475	173,911	0,010	0,010
-331,460	138,783	0,071	-0,068
-330,445	-142,757	0,090	-0,006
-329,431	800,000	-0,040	-0,114
-328,416	-166,670	0,176	-0,005
-327,402	86,297	0,111	0,088
-326,387	-134,047	-0,084	0,007
-325,372	-81,875	-0,092	0,022
-324,358	-200,000	-0,003	-0,080
-323,343	-200,000	-0,017	-0,062
-322,329	258,306	0,021	-0,026
-321,314	75,087	0,078	-0,060
-320,299	-31,442	-0,113	0,046
-319,285	322,255	0,027	-0,038
-318,270	43,213	-0,084	-0,055
-317,256	19,646	0,015	0,009
-316,241	-54,354	0,040	-0,013
-315,226	-29,009	0,006	0,002
-314,212	800,000	0,048	-0,122
-313,197	145,056	-0,026	-0,025
-312,183	215,429	0,116	0,133
-311,168	512,430	-0,044	0,074
-310,153	-200,000	0,016	0,059
-309,139	277,744	-0,099	0,128
-308,124	738,478	0,042	-0,082
-307,110	800,000	-0,050	0,157
-306,095	800,000	0,033	0,086
-305,080	594,677	-0,070	0,125
-304,066	537,152	-0,037	0,064
-303,051	93,031	-0,095	-0,078
-302,037	246,666	0,039	0,047
-301,022	800,000	0,070	0,143
-300,008	72,794	-0,007	-0,006
-298,993	63,857	0,058	-0,042
-297,978	-200,000	0,013	-0,072
-296,964	-22,291	0,074	0,032
-295,949	-72,280	0,099	0,026
-294,935	240,042	-0,097	-0,118
-293,920	800,000	-0,028	0,066
-292,905	-94,300	-0,050	0,010
-291,891	-10,088	0,075	-0,036
-290,876	23,275	0,032	-0,019
-289,862	122,411	0,089	0,080
-288,847	-200,000	-0,013	-0,117
-287,832	-112,806	0,106	-0,015
-286,818	-86,233	0,068	-0,015
-285,803	-77,735	-0,145	0,036
-284,789	-92,779	-0,024	-0,005
-283,774	-141,867	0,067	-0,005
-282,759	506,082	-0,044	0,074
-281,745	508,613	0,025	-0,043
-280,730	258,229	-0,057	0,071
-279,716	-200,000	-0,027	0,109
-278,701	-39,978	0,148	-0,056
-277,686	800,000	-0,014	0,028
-276,672	-24,115	0,068	0,029
-275,657	109,182	0,041	-0,035
-274,643	75,702	-0,050	0,038
-273,628	340,787	0,064	-0,090
-272,613	-173,936	-0,094	0,002
-271,599	800,000	0,015	-0,034
-270,584	53,597	0,081	0,056
-269,570	800,000	0,036	0,076
-268,555	-109,235	0,106	0,016
-267,540	-165,761	-0,123	0,004
-266,526	-120,155	0,062	-0,008
-265,511	270,169	0,020	0,025
-264,497	-21,022	0,116	0,051
-263,482	-60,270	-0,130	-0,040
-262,467	-73,737	-0,069	0,018
-261,453	119,022	0,074	-0,066
-260,438	206,818	-0,058	-0,065
-259,424	-86,241	-0,106	0,023
-258,409	223,318	-0,067	-0,078
-257,395	-200,000	-0,021	0,132
-256,380	-180,775	0,114	0,002
-255,365	77,174	0,063	0,049
-254,351	91,696	-0,068	-0,055
-253,336	-200,000	0,020	0,072
-252,322	-94,396	-0,154	0,030
-251,307	514,357	-0,022	-0,037
-250,292	-93,273	-0,165	0,033
-249,278	-34,590	0,123	0,048
-248,263	341,922	0,013	-0,018
-247,249	415,425	0,044	0,069
-246,234	284,829	-0,098	-0,128
-245,219	579,230	-0,029	-0,051
-244,205	44,698	-0,045	-0,030
-243,190	450,806	-0,104	-0,166
-242,176	800,000	0,025	0,078
-241,161	36,633	0,047	-0,030
-240,146	19,080	0,020	-0,012
-239,132	-200,000	0,025	-0,090
-238,117	48,824	-0,120	-0,081
-237,103	-200,000	0,006	-0,025
-236,088	484,777	0,004	0,006
-235,073	269,555	0,035	0,045
-234,059	-200,000	-0,008	-0,110
-233,044	45,152	0,030	0,020
-232,030	-200,000	0,008	0,066
-231,015	-32,947	-0,114	-0,045
-230,000	-200,000	0,009	0,149
-228,986	-33,455	0,090	0,036
-227,971	211,862	-0,066	-0,075
-226,957	-18,095	-0,145	0,065
-225,942	-200,000	0,040	0,180
-224,927	218,056	0,011	0,013
-223,913	-185,757	-0,054	0,001
-222,898	800,000	-0,014	-0,036
-221,884	64,804	0,037	0,027
-220,869	-200,000	0,014	-0,057
-219,855	-200,000	0,021	0,134
-218,840	-12,405	0,118	0,055
-217,825	62,587	-0,096	0,069
-216,811	-85,034	-0,068	0,015
-215,796	-38,866	-0,083	-0,032
-214,782	800,000	-0,010	-0,030
-213,767	-200,000	0,039	0,133
-212,752	25,843	0,123	0,074
-211,738	-104,304	0,063	0,011
-210,723	-40,749	-0,095	0,035
-209,709	253,398	-0,051	-0,063
-208,694	261,030	-0,052	0,065
-207,679	800,000	0,006	-0,018
-206,665	263,390	-0,057	-0,071
-205,650	57,335	-0,084	-0,059
-204,636	800,000	0,027	0,065
-203,621	598,151	-0,033	-0,059
-202,606	-22,834	0,045	-0,020
-201,592	712,775	-0,049	-0,095
-200,577	-200,000	-0,025	-0,119
-199,563	-169,527	-0,187	-0,005
-198,548	-69,422	0,138	-0,038
-197,533	-45,825	0,068	-0,024
-196,519	23,118	0,057	-0,034
-195,504	-200,000	0,012	0,079
-194,490	428,198	0,061	-0,096
-193,475	194,298	-0,021	-0,024
-192,460	255,916	0,079	0,098
-191,446	7,104	-0,118	0,064
-190,431	295,090	0,030	0,040
-189,417	202,198	0,023	0,026
-188,402	588,953	0,026	0,047
-187,387	-200,000	0,003	-0,039
-186,373	8,918	0,010	-0,005
-185,358	-41,142	0,100	0,037
-184,344	-200,000	0,003	0,073
-183,329	-200,000	0,008	0,180
-182,315	-200,000	0,000	0,025
-181,300	234,471	0,025	-0,030
-180,285	-77,260	0,030	0,008
-179,271	-58,333	0,077	-0,024
-178,256	-200,000	0,055	-0,237
-177,242	113,576	0,040	-0,035
-176,227	-44,831	0,027	-0,010
-175,212	-200,000	0,007	0,075
-174,198	-79,208	-0,035	0,008
-173,183	-27,667	-0,061	0,026
-172,169	258,751	0,075	-0,093
-171,154	-200,000	0,016	0,058
-170,139	490,853	0,052	0,086
-169,125	800,000	-0,026	-0,061
-168,110	800,000	-0,069	0,153
-167,096	-200,000	0,014	-0,170
-166,081	194,021	-0,027	0,029
-165,066	478,491	-0,055	-0,090
-164,052	-200,000	0,023	-0,132
-163,037	-200,000	0,005	-0,115
-162,023	54,182	0,156	0,108
-161,008	675,732	-0,037	0,069
-159,993	-37,454	-0,125	0,048
-158,979	270,989	-0,078	0,099
-157,964	-200,000	0,000	-0,082
-156,950	271,771	-0,029	0,037
-155,935	-200,000	0,024	0,075
-154,920	800,000	0,016	-0,043
-153,906	244,884	-0,053	-0,065
-152,891	-200,000	0,035	0,112
-151,877	87,540	0,073	-0,058
-150,862	-116,331	-0,090	0,012
-149,847	43,424	-0,121	-0,079
-148,833	-93,588	0,070	-0,014
-147,818	-122,971	0,156	-0,018
-146,804	-200,000	0,026	0,138
-145,789	-200,000	0,001	0,021
-144,775	20,380	-0,061	-0,036
-143,760	-151,209	-0,175	-0,009
-142,745	113,977	-0,105	-0,092
-141,731	367,268	-0,052	0,075
-140,716	-200,000	-0,015	0,083
-139,702	-0,337	-0,110	0,056
-138,687	-40,964	0,060	0,022
-137,672	-200,000	0,020	-0,106
-136,658	488,854	-0,077	-0,126
-135,643	490,769	0,024	0,040
-134,629	-76,139	-0,038	-0,009
-133,614	-47,213	0,053	0,019
-132,599	-200,000	0,035	0,175
-131,585	-19,068	0,043	-0,019
-130,570	800,000	0,032	0,074
-129,556	419,218	0,023	-0,035
-128,541	-89,221	-0,088	0,018
-127,526	-11,390	0,075	0,035
-126,512	-200,000	0,015	-0,081
-125,497	647,288	0,107	0,197
-124,483	68,809	-0,040	0,030
-123,468	-200,000	0,003	-0,098
-122,453	-147,424	0,104	-0,006
-121,439	800,000	0,033	-0,087
-120,424	46,204	-0,010	-0,006
-119,410	-200,000	0,038	-0,143
-118,395	-119,976	-0,050	-0,006
-117,380	133,257	-0,023	0,021
-116,366	168,998	0,053	-0,054
-115,351	181,792	-0,093	0,099
-114,337	-200,000	0,002	-0,024
-113,322	-200,000	-0,022	-0,075
-112,307	350,692	-0,051	0,073
-111,293	-200,000	0,011	0,095
-110,278	800,000	0,018	-0,046
-109,264	108,883	-0,080	-0,069
-108,249	104,491	-0,032	-0,028
-107,234	404,027	-0,085	-0,129
-106,220	-200,000	0,009	0,035
-105,205	-200,000	-0,027	0,091
-104,191	-148,093	0,169	-0,010
-103,176	-200,000	-0,034	0,154
-102,162	326,393	-0,031	0,043
-101,147	-48,659	0,115	-0,040
-100,132	585,891	-0,024	-0,043
-99,118	71,143	0,051	-0,038
-98,103	-46,075	0,069	0,024
-97,089	-84,335	0,060	-0,014
-96,074	-49,167	0,093	-0,032
-95,059	-200,000	-0,021	0,078
-94,045	258,208	0,066	-0,082
-93,030	26,292	0,165	-0,099
-92,016	317,340	-0,075	-0,102
-91,001	196,953	0,107	0,117
-89,986	98,776	-0,038	-0,032
-88,972	-167,605	-0,078	-0,002
-87,957	351,356	-0,081	0,115
-86,943	178,082	0,094	0,099
-85,928	-153,538	-0,070	-0,003
-84,913	96,109	0,131	-0,108
-83,899	346,172	0,063	-0,089
-82,884	347,938	0,040	0,057
-81,870	569,098	0,062	-0,109
-80,855	-24,597	-0,080	0,034
-79,840	800,000	-0,041	0,085
-78,826	101,556	-0,016	-0,014
-77,811	790,134	0,005	-0,010
-76,797	303,121	0,042	0,056
-75,782	-61,646	0,142	0,043
-74,767	-200,000	0,011	0,067
-73,753	-64,697	-0,099	0,029
-72,738	800,000	0,052	0,128
-71,724	203,399	-0,002	-0,002
-70,709	-26,870	0,101	-0,042
-69,694	800,000	-0,023	-0,065
-68,680	402,426	0,017	0,025
-67,665	313,866	0,024	0,033
-66,651	29,888	-0,080	-0,049
-65,636	-200,000	-0,027	-0,202
-64,622	800,000	0,029	0,088
-63,607	-200,000	-0,004	0,089
-62,592	104,482	-0,016	-0,013
-61,578	107,723	-0,016	-0,014
-60,563	100,423	0,090	0,075
-59,549	800,000	0,054	0,167
-58,534	0,984	-1,962	-1,007
-57,519	-200,000	-0,226	-0,997
-56,505	-200,000	-1,221	-5,001
-55,490	29,211	0,634	0,386
-54,476	800,000	5,340	12,236
-53,461	-200,000	17,351	284,325
-52,446	800,000	724,382	2224,439
-51,432	540,750	1640,404	2815,880
-50,417	111,319	1631,991	1412,038
-49,403	75,800	1286,254	975,081
-48,388	32,611	1028,025	636,715
-47,373	20,238	990,127	572,418
-46,359	18,696	978,180	560,425
-45,344	16,026	974,430	549,508
-44,330	16,231	972,967	549,332
-43,315	15,793	971,135	546,846
-42,300	15,782	969,994	546,146
-41,286	15,759	968,885	545,422
-40,271	15,730	967,928	544,770
-39,257	15,781	966,891	544,331
-38,242	15,740	966,182	543,776
-37,227	15,755	965,179	543,239
-36,213	15,691	964,706	542,744
-35,198	15,754	963,591	542,297
-34,184	15,807	962,985	542,107
-33,169	15,756	961,818	541,264
-32,154	15,776	961,012	540,852
-31,140	15,852	960,060	540,541
-30,125	15,838	959,262	540,024
-29,111	15,816	958,374	539,433
-28,096	15,777	957,916	539,029
-27,082	15,809	957,306	538,767
-26,067	15,831	956,352	538,279
-25,052	15,815	955,764	537,876
-24,038	15,732	955,196	537,268
-23,023	15,790	954,176	536,859
-22,009	15,789	953,664	536,547
-20,994	15,824	953,053	536,294
-19,979	15,793	952,596	535,915
-18,965	15,792	952,019	535,569
-17,950	15,790	951,255	535,110
-16,936	15,772	950,679	534,707
-15,921	15,739	949,960	534,175
-14,906	15,637	949,392	533,509
-13,892	15,740	948,519	533,327
-12,877	15,619	948,261	532,774
-11,863	15,644	947,344	532,317
-10,848	15,600	946,873	531,890
-9,833	15,758	946,428	532,123
-8,819	15,760	945,618	531,654
-7,804	15,699	944,912	531,040
-6,790	15,680	944,502	530,730
-5,775	15,707	943,814	530,409
-4,760	15,710	943,178	530,039
-3,746	15,696	942,487	529,586
-2,731	15,538	942,002	528,789
-1,717	15,530	941,341	528,374
-0,702	15,461	940,820	527,841
0,313	15,293	940,055	527,677
1,327	18,396	937,731	536,112
2,342	27,289	795,054	478,128
3,356	23,970	458,923	270,888
4,371	-3,221	313,771	156,358
5,386	-7,201	295,357	143,152
6,400	-9,221	289,435	138,269
7,415	-9,709	287,177	136,698
8,429	-9,657	285,569	135,972
9,444	-9,752	284,668	135,438
10,459	-9,596	284,049	135,282
11,473	-9,873	283,579	134,778
12,488	-9,786	282,928	134,541
13,502	-9,709	282,399	134,352
14,517	-9,631	281,973	134,213
15,531	-9,597	281,433	133,976
16,546	-9,821	281,133	133,606
17,561	-9,701	280,709	133,508
18,575	-9,612	280,460	133,463
19,590	-9,719	280,089	133,172
20,604	-9,493	279,802	133,240
21,619	-9,925	279,580	132,709
22,634	-9,671	279,130	132,726
23,648	-9,660	278,834	132,584
24,663	-9,648	278,539	132,444
25,677	-9,698	278,325	132,282
26,692	-9,657	278,048	132,178
27,707	-9,703	277,820	132,013
28,721	-9,630	277,480	131,910
29,736	-9,772	277,225	131,643
30,750	-9,711	276,867	131,518
31,765	-9,602	276,629	131,497
32,780	-9,834	276,526	131,217
33,794	-9,754	276,221	131,136
34,809	-9,790	276,036	131,003
35,823	-9,732	275,675	130,874
36,838	-9,715	275,547	130,818
37,853	-9,624	275,120	130,689
38,867	-9,822	275,003	130,435
39,882	-9,784	274,747	130,338
40,896	-9,723	274,535	130,283
41,911	-9,711	274,251	130,148
42,926	-9,530	274,016	130,194
43,940	-9,815	273,802	129,815
44,955	-9,756	273,537	129,733
45,969	-9,909	273,330	129,480
46,984	-9,929	273,062	129,323
47,999	-9,882	272,830	129,245
49,013	-10,260	272,624	128,784
50,028	-10,411	272,295	128,477
51,042	-10,425	271,839	128,238
52,057	-10,386	271,764	128,227
53,071	-10,504	271,620	128,038
54,086	-10,272	271,328	128,104
55,101	-10,021	271,100	128,217
56,115	-10,076	271,170	128,188
57,130	-9,645	270,874	128,434
58,144	-9,571	270,723	128,420
59,159	-9,638	270,456	128,220
60,174	-9,607	270,229	128,129
61,188	-9,708	270,104	127,966
62,203	-9,653	269,870	127,893
63,217	-9,711	269,670	127,734
64,232	-9,764	269,435	127,563
65,247	-9,470	269,075	127,651
66,261	-9,616	268,989	127,465
67,276	-9,827	268,672	127,110
68,290	-9,995	268,317	126,778
69,305	-9,944	268,089	126,705
70,320	-9,900	267,875	126,633
71,334	-9,742	267,897	126,776
72,349	-9,708	267,729	126,716
73,363	-9,548	267,435	126,711
74,378	-9,599	267,166	126,526
75,393	-9,549	267,063	126,512
76,407	-9,730	266,811	126,217
77,422	-9,476	266,498	126,287
78,436	-9,515	266,401	126,195
79,451	-9,562	266,222	126,056
80,466	-9,845	265,841	125,609
81,480	-9,749	265,625	125,583
82,495	-10,013	265,507	125,277
83,509	-9,693	265,287	125,450
84,524	-9,652	265,014	125,346
85,539	-9,745	264,674	125,091
86,553	-9,805	264,658	125,018
87,568	-9,881	264,479	124,855
88,582	-9,858	264,157	124,712
89,597	-9,914	263,919	124,539
90,611	-9,633	263,814	124,729
91,626	-9,668	263,713	124,639
92,641	-9,707	263,563	124,523
93,655	-9,698	263,195	124,346
94,670	-9,671	263,022	124,276
95,684	-9,736	262,767	124,087
96,699	-9,715	262,600	124,016
97,714	-9,763	262,355	123,847
98,728	-9,705	262,079	123,757
99,743	-9,917	261,954	123,498
100,757	-9,986	261,805	123,356
101,772	-10,034	261,700	123,252
102,787	-9,792	261,374	123,302
103,801	-9,561	261,210	123,419
104,816	-9,773	261,122	123,179
105,830	-9,493	260,840	123,283
106,845	-9,520	260,564	123,118
107,860	-9,535	260,577	123,099
108,874	-9,440	260,360	123,070
109,889	-9,709	260,029	122,664
110,903	-9,731	259,903	122,575
111,918	-9,630	259,717	122,566
112,933	-9,724	259,483	122,361
113,947	-9,616	259,314	122,366
114,962	-9,732	259,262	122,228
115,976	-9,809	258,944	121,999
116,991	-9,657	258,767	122,039
118,006	-9,709	258,663	121,934
119,020	-9,654	258,471	121,880
120,035	-9,552	258,349	121,901
121,049	-9,639	258,147	121,719
122,064	-9,505	257,969	121,741
123,079	-9,518	257,761	121,621
124,093	-9,674	257,483	121,342
125,108	-9,788	257,252	121,124
126,122	-10,008	257,129	120,864
127,137	-9,906	256,713	120,746
128,151	-9,841	256,514	120,698
129,166	-9,827	256,431	120,660
130,181	-9,930	256,203	120,453
131,195	-9,912	256,064	120,392
132,210	-9,737	255,793	120,406
133,224	-9,712	255,732	120,388
134,239	-9,598	255,636	120,430
135,254	-9,744	255,451	120,206
136,268	-9,613	255,124	120,155
137,283	-9,933	254,882	119,754
138,297	-9,970	254,697	119,625
139,312	-10,010	254,540	119,506
140,327	-9,688	254,180	119,603
141,341	-9,571	254,170	119,689
142,356	-9,632	254,059	119,573
143,370	-9,587	253,797	119,478
144,385	-9,438	253,608	119,506
145,400	-9,442	253,498	119,440
146,414	-9,418	253,353	119,381
147,429	-9,567	253,186	119,165
148,443	-9,651	253,120	119,051
149,458	-9,448	252,878	119,101
150,473	-9,399	252,644	119,021
151,487	-9,643	252,375	118,675
152,502	-9,614	252,227	118,620
153,516	-9,298	252,037	118,790
154,531	-9,534	251,944	118,534
155,546	-9,385	251,719	118,544
156,560	-9,611	251,509	118,243
157,575	-9,562	251,255	118,155
158,589	-9,769	251,288	117,984
159,604	-9,447	250,890	118,060
160,619	-9,638	250,843	117,865
161,633	-9,471	250,578	117,872
162,648	-9,379	250,570	117,935
163,662	-9,345	250,297	117,825
164,677	-9,497	250,261	117,668
165,692	-9,566	250,105	117,526
166,706	-9,368	249,702	117,494
167,721	-9,284	249,680	117,543
168,735	-9,403	249,584	117,387
169,750	-9,553	249,380	117,155
170,764	-9,352	249,228	117,242
171,779	-9,484	249,151	117,084
172,794	-9,530	248,985	116,957
173,808	-9,539	248,671	116,792
174,823	-9,782	248,329	116,417
175,837	-9,878	247,994	116,170
176,852	-9,741	248,121	116,333
177,867	-9,607	248,202	116,473
178,881	-9,594	247,892	116,328
179,896	-9,473	247,745	116,350
180,910	-9,390	247,576	116,329
181,925	-9,433	247,182	116,098
182,940	-9,341	247,109	116,130
183,954	-9,470	246,887	115,908
184,969	-9,443	246,827	115,892
185,983	-9,457	246,732	115,825
186,998	-9,212	246,368	115,848
188,013	-9,316	246,268	115,704
189,027	-9,454	246,173	115,534
190,042	-9,463	245,883	115,380
191,056	-9,427	245,713	115,321
192,071	-9,537	245,710	115,218
193,086	-9,485	245,380	115,096
194,100	-9,434	245,219	115,052
195,115	-9,341	245,109	115,067
196,129	-9,456	244,910	114,869
197,144	-9,264	244,671	114,904
198,159	-9,613	244,540	114,545
199,173	-9,495	244,380	114,557
200,188	-9,578	244,227	114,407
201,202	-9,814	244,004	114,098
202,217	-9,763	243,616	113,949
203,232	-10,046	243,425	113,617
204,246	-9,401	243,377	114,112
205,261	-9,453	243,258	114,005
206,275	-10,245	242,773	113,120
207,290	-7,097	244,067	116,296
208,304	-0,363	246,153	122,840
209,319	2,950	247,096	126,036
210,334	3,402	247,107	126,404
211,348	3,529	246,891	126,387
212,363	3,784	247,029	126,656
213,377	4,051	246,836	126,766
214,392	3,751	246,662	126,419
215,407	3,824	246,399	126,332
216,421	3,687	246,204	126,109
217,436	3,934	246,107	126,251
218,450	4,060	246,119	126,349
219,465	3,813	245,737	125,939
220,480	3,484	245,652	125,615
221,494	3,478	245,394	125,467
222,509	3,725	245,371	125,647
223,523	3,468	245,165	125,319
224,538	3,038	244,751	124,746
225,553	3,307	244,742	124,950
226,567	3,284	244,641	124,868
227,582	3,477	244,417	124,899
228,596	3,403	244,265	124,751
229,611	3,222	244,006	124,460
230,626	3,070	243,925	124,283
231,640	3,416	243,641	124,409
232,655	3,307	243,551	124,263
233,669	3,080	243,303	123,941
234,684	3,091	243,157	123,866
235,699	3,312	243,334	124,124
236,713	3,682	243,106	124,296
237,728	3,274	242,813	123,805
238,742	3,168	242,548	123,573
239,757	3,285	242,398	123,580
240,772	3,361	242,201	123,530
241,786	3,583	242,012	123,601
242,801	3,072	242,059	123,203
243,815	3,049	241,768	123,025
244,830	3,297	241,685	123,171
245,844	3,232	241,618	123,074
246,859	3,366	241,205	122,960
247,874	3,115	241,111	122,700
248,888	3,259	240,935	122,715
249,903	3,460	240,881	122,838
250,917	3,422	240,822	122,767
251,932	3,599	240,856	122,915
252,947	3,583	240,443	122,679
253,961	3,183	240,261	122,257
254,976	3,495	240,151	122,438
255,990	3,331	240,090	122,265
257,005	3,337	239,710	122,066
258,020	3,089	239,547	121,775
259,034	3,206	239,489	121,828
260,049	3,445	239,263	121,892
261,063	3,188	239,139	121,613
262,078	3,036	239,028	121,425
263,093	3,390	238,831	121,595
264,107	3,350	238,867	121,571
265,122	3,253	238,534	121,313
266,136	3,229	238,605	121,320
267,151	3,695	238,324	121,536
268,166	3,311	238,054	121,083
269,180	3,078	237,998	120,860
270,195	3,726	238,009	121,367
271,209	3,931	237,827	121,426
272,224	3,388	237,608	120,874
273,239	2,974	237,339	120,400
274,253	3,146	237,101	120,404
275,268	3,411	237,084	120,594
276,282	3,441	236,891	120,508
277,297	3,083	236,709	120,124
278,312	3,184	236,596	120,135
279,326	3,449	236,415	120,240
280,341	3,227	236,303	119,998
281,355	3,405	236,007	119,977
282,370	3,634	235,992	120,137
283,384	3,448	235,745	119,856
284,399	3,027	235,721	119,504
285,414	2,881	235,354	119,193
286,428	3,005	235,402	119,303
287,443	3,302	235,224	119,434
288,457	3,299	235,026	119,321
289,472	3,550	234,978	119,481
290,487	3,177	234,830	119,105
291,501	2,976	234,624	118,834
292,516	3,067	234,316	118,738
293,530	2,790	234,285	118,496
294,545	3,424	234,217	118,943
295,560	3,369	233,983	118,771
296,574	2,971	233,948	118,434
297,589	3,222	233,703	118,494
298,603	3,502	233,719	118,708
299,618	3,299	233,634	118,497
300,633	3,302	233,421	118,382
301,647	3,607	233,227	118,508
302,662	3,995	233,208	118,787
303,676	3,807	233,086	118,569
304,691	3,608	232,933	118,327
305,706	3,744	232,680	118,293
306,720	3,757	232,446	118,174
307,735	3,577	232,353	117,978
308,749	3,299	232,270	117,711
309,764	3,234	231,970	117,499
310,779	3,272	231,676	117,368
311,793	3,046	231,573	117,132
312,808	3,103	231,418	117,087
313,822	3,002	231,363	116,972
314,837	3,040	231,142	116,879
315,852	3,005	231,017	116,778
316,866	3,434	230,882	117,028
317,881	3,673	230,812	117,164
318,895	3,627	230,590	117,005
319,910	3,713	230,645	117,089
320,925	3,555	230,309	116,787
321,939	3,191	230,193	116,441
322,954	3,455	230,112	116,591
323,968	3,366	229,905	116,407
324,983	3,066	229,653	116,042
325,997	3,118	229,605	116,046
327,012	3,345	229,566	116,189
328,027	3,452	229,305	116,128
329,041	3,759	229,335	116,365
330,056	4,080	229,261	116,560
331,070	3,839	229,095	116,283
332,085	3,248	228,853	115,703
333,100	3,478	228,614	115,746
334,114	3,639	228,554	115,826
335,129	3,947	228,307	115,923
336,143	3,924	228,233	115,857
337,158	3,571	228,032	115,480
338,173	3,839	228,015	115,662
339,187	3,558	227,845	115,355
340,202	3,947	227,662	115,544
341,216	3,684	227,534	115,272
342,231	3,235	227,501	114,907
343,246	3,607	227,234	115,041
344,260	3,792	227,201	115,153
345,275	3,631	227,036	114,938
346,289	4,000	226,958	115,164
347,304	3,688	226,788	114,835
348,319	3,900	226,550	114,863
349,333	3,528	226,367	114,481
350,348	3,586	226,212	114,437
351,362	3,554	226,121	114,357
352,377	3,647	225,837	114,272
353,392	3,306	225,666	113,921
354,406	3,549	225,448	113,982
355,421	195,888	1322,428	1400,932
356,435	157,014	1456,078	1400,941
