DTS Sentinel unit serial number:	SN410029Multiplexer serial number:	ORYXHardware model number:	OX2-SRSoftware version number:	ORYX F/W v4,00 Oryx Data Collector v3.7.2.0data status	okinstallation	B5 Nyhavnadifferential loss correction	single-endedforward channel	channel 2reverse channel	N/Adate	2023/12/13time	06:47:13forward acquisition time	300,00reverse acquisition time	0,00gamma	499,1914k internal	0,3160k external	0,3160temperature offset calibration	1,0000default loss term (dB/km)	0,3820temperature slope calibration	1,0000multiplexer offset coefficient	1,0000multiplexer slope coefficient	1,0000fibre end	0,00T internal ref (°C)	13,75T ext. ref 1 (°C)	-2,75T ext. ref 2 (°C)	-3,06length (m)	temperature (°C)	Stokes	anti-Stokes-744,400	-105,009	0,143	-0,024
-743,385	-20,191	-0,306	-0,138
-742,371	706,835	0,137	0,267
-741,356	-114,466	-0,277	0,039
-740,342	-108,663	0,259	-0,040
-739,327	-156,113	-0,372	-0,017
-738,312	-50,009	0,119	-0,041
-737,298	-152,645	-0,329	-0,017
-736,283	286,186	0,067	-0,089
-735,269	-130,033	-0,320	-0,032
-734,254	16,175	0,010	0,006
-733,239	-75,857	-0,391	-0,101
-732,225	-83,569	0,263	-0,061
-731,210	353,301	-0,040	-0,059
-730,196	409,005	-0,055	-0,086
-729,181	76,165	0,066	-0,051
-728,167	-200,000	-0,025	-0,125
-727,152	580,469	-0,044	-0,080
-726,137	-200,000	-0,017	-0,056
-725,123	-90,239	-0,062	0,013
-724,108	-34,987	-0,172	-0,069
-723,094	-200,000	-0,044	-0,170
-722,079	382,845	0,070	-0,106
-721,064	-200,000	-0,001	-0,058
-720,050	302,488	-0,032	0,044
-719,035	119,820	0,095	-0,086
-718,021	548,958	0,083	0,147
-717,006	-41,080	-0,079	0,030
-715,991	182,681	-0,059	-0,064
-714,977	530,419	-0,039	-0,069
-713,962	-200,000	-0,020	-0,104
-712,948	800,000	-0,021	0,063
-711,933	800,000	-0,032	-0,081
-710,918	800,000	-0,038	-0,112
-709,904	-200,000	-0,006	-0,082
-708,889	-33,164	-0,117	-0,048
-707,875	15,381	0,059	-0,034
-706,860	-134,179	0,133	-0,012
-705,845	3,308	-0,039	-0,021
-704,831	-23,617	-0,035	0,015
-703,816	307,715	-0,075	-0,103
-702,802	-200,000	-0,014	0,065
-701,787	800,000	-0,041	-0,088
-700,772	-200,000	0,017	-0,134
-699,758	800,000	-0,047	-0,107
-698,743	-200,000	0,002	0,102
-697,729	140,327	0,056	-0,055
-696,714	-200,000	-0,028	-0,155
-695,699	32,587	0,028	-0,018
-694,685	633,999	-0,061	-0,114
-693,670	370,554	-0,019	0,029
-692,656	377,918	0,026	0,039
-691,641	345,929	-0,033	-0,048
-690,627	130,762	-0,031	-0,029
-689,612	800,000	-0,012	0,032
-688,597	195,186	0,060	0,067
-687,583	-200,000	0,012	-0,151
-686,568	-200,000	-0,015	0,103
-685,554	800,000	-0,036	0,084
-684,539	185,921	-0,030	-0,033
-683,524	369,705	-0,095	0,142
-682,510	-83,637	0,228	-0,053
-681,495	64,542	-0,070	-0,052
-680,481	-200,000	0,003	0,082
-679,466	-200,000	-0,011	-0,107
-678,451	678,502	0,038	-0,073
-677,437	40,710	0,119	0,078
-676,422	61,526	-0,056	-0,041
-675,408	48,917	-0,079	-0,054
-674,393	6,350	-0,151	-0,082
-673,378	25,365	-0,031	-0,019
-672,364	-73,420	-0,035	0,009
-671,349	205,860	-0,164	-0,188
-670,335	-200,000	-0,030	0,113
-669,320	-200,000	0,017	-0,100
-668,305	-200,000	0,010	0,054
-667,291	665,804	0,022	-0,041
-666,276	-200,000	-0,020	-0,073
-665,262	144,270	0,012	0,012
-664,247	-111,376	0,116	0,017
-663,232	-79,282	-0,064	0,016
-662,218	-200,000	0,014	-0,076
-661,203	181,509	0,083	-0,090
-660,189	42,793	0,120	0,080
-659,174	-95,561	-0,125	-0,024
-658,159	-107,323	0,105	0,017
-657,145	479,947	-0,089	-0,149
-656,130	-8,865	0,152	0,075
-655,116	-113,045	0,043	-0,006
-654,101	800,000	0,041	0,107
-653,086	-200,000	0,005	-0,022
-652,072	-115,208	0,119	0,016
-651,057	735,819	-0,100	-0,197
-650,043	-124,929	-0,167	-0,019
-649,028	-200,000	-0,004	-0,038
-648,014	-200,000	0,004	-0,034
-646,999	211,302	-0,064	0,074
-645,984	-138,485	-0,157	0,012
-644,970	16,662	0,085	-0,049
-643,955	-143,110	-0,115	-0,008
-642,941	199,964	0,061	-0,069
-641,926	451,753	0,043	0,070
-640,911	-153,494	-0,126	-0,006
-639,897	-136,178	-0,112	-0,009
-638,882	-5,220	-0,013	-0,007
-637,868	-95,933	-0,011	0,002
-636,853	-200,000	-0,001	-0,065
-635,838	-145,008	-0,062	-0,004
-634,824	322,724	0,069	-0,097
-633,809	81,199	-0,070	-0,055
-632,795	-200,000	0,018	-0,129
-631,780	-10,966	0,109	0,053
-630,765	-200,000	-0,023	-0,140
-629,751	172,797	-0,062	0,066
-628,736	91,374	-0,080	-0,066
-627,722	-200,000	0,023	0,155
-626,707	3,546	0,077	-0,041
-625,692	91,297	-0,070	0,057
-624,678	-128,914	-0,091	0,009
-623,663	177,663	-0,025	-0,026
-622,649	-200,000	-0,002	0,046
-621,634	-188,435	-0,042	0,000
-620,619	-2,533	-0,059	0,030
-619,605	-135,683	0,130	0,011
-618,590	800,000	-0,060	0,187
-617,576	-87,105	0,097	-0,021
-616,561	-38,134	-0,132	0,051
-615,546	222,354	0,110	0,130
-614,532	-94,627	0,062	0,012
-613,517	71,276	-0,028	0,022
-612,503	-54,888	0,087	-0,028
-611,488	-166,050	-0,093	0,003
-610,474	172,736	-0,025	-0,027
-609,459	459,726	-0,063	-0,104
-608,444	-200,000	0,015	-0,249
-607,430	753,266	-0,028	-0,055
-606,415	800,000	-0,010	0,028
-605,401	95,921	0,130	0,109
-604,386	800,000	0,035	0,088
-603,371	-74,354	-0,046	-0,012
-602,357	177,949	0,035	0,038
-601,342	-109,992	-0,031	0,005
-600,328	-56,080	0,098	-0,032
-599,313	-112,319	-0,032	0,005
-598,298	-200,000	0,025	-0,128
-597,284	306,274	0,093	0,128
-596,269	54,817	0,064	0,045
-595,255	193,273	0,013	0,014
-594,240	-200,000	0,002	0,017
-593,225	28,760	-0,099	-0,061
-592,211	-200,000	-0,014	-0,149
-591,196	-50,993	-0,033	0,011
-590,182	800,000	-0,065	-0,144
-589,167	-200,000	-0,011	-0,038
-588,152	244,966	0,080	-0,099
-587,138	277,613	-0,084	-0,110
-586,123	172,709	-0,047	-0,050
-585,109	6,384	-0,147	-0,080
-584,094	76,348	0,142	-0,110
-583,079	-200,000	0,013	-0,056
-582,065	800,000	-0,036	-0,109
-581,050	573,213	0,050	-0,090
-580,036	125,003	0,063	0,058
-579,021	645,492	-0,046	0,087
-578,006	-131,011	-0,032	-0,003
-576,992	-35,949	0,104	-0,041
-575,977	610,108	0,019	-0,035
-574,963	-85,064	-0,192	0,044
-573,948	-93,237	0,182	0,037
-572,934	-129,832	-0,035	-0,004
-571,919	-200,000	-0,007	0,051
-570,904	40,932	-0,115	-0,076
-569,890	407,658	-0,045	-0,070
-568,875	491,753	-0,036	0,060
-567,861	-200,000	0,005	-0,029
-566,846	800,000	-0,037	-0,107
-565,831	-200,000	0,004	0,045
-564,817	-200,000	0,008	-0,030
-563,802	330,977	-0,045	-0,064
-562,788	-147,868	-0,163	-0,010
-561,773	-200,000	-0,020	-0,115
-560,758	800,000	-0,036	0,081
-559,744	-200,000	-0,034	0,000
-558,729	-77,534	0,058	0,015
-557,715	-104,456	-0,176	0,030
-556,700	-200,000	0,010	-0,038
-555,685	-17,776	-0,034	0,016
-554,671	-119,649	0,060	-0,008
-553,656	-98,653	0,110	-0,020
-552,642	-158,974	-0,046	-0,002
-551,627	592,905	-0,030	-0,055
-550,612	110,051	-0,031	0,027
-549,598	102,372	-0,052	-0,044
-548,583	-200,000	-0,020	-0,108
-547,569	-200,000	0,015	-0,058
-546,554	58,095	-0,077	0,055
-545,539	487,930	-0,026	0,044
-544,525	-102,968	-0,040	0,007
-543,510	-39,463	-0,037	-0,014
-542,496	304,394	-0,057	0,078
-541,481	-200,000	0,005	-0,037
-540,466	641,325	-0,083	-0,156
-539,452	-55,800	0,070	0,023
-538,437	-85,528	-0,120	-0,027
-537,423	13,075	-0,114	-0,065
-536,408	-99,653	-0,031	-0,006
-535,393	122,575	-0,129	0,118
-534,379	16,330	-0,084	-0,048
-533,364	211,090	-0,083	-0,095
-532,350	-200,000	0,001	-0,096
-531,335	285,481	0,049	0,065
-530,321	-200,000	-0,003	-0,028
-529,306	168,629	-0,070	-0,073
-528,291	99,412	-0,090	0,076
-527,277	-36,185	-0,068	-0,027
-526,262	304,879	0,049	-0,067
-525,248	26,060	0,153	-0,093
-524,233	-78,063	-0,044	0,011
-523,218	519,075	-0,042	0,072
-522,204	56,192	-0,030	-0,021
-521,189	172,373	0,115	0,121
-520,175	241,260	-0,122	0,149
-519,160	481,085	-0,064	0,107
-518,145	-200,000	-0,001	0,014
-517,131	-200,000	0,001	-0,081
-516,116	387,748	0,047	-0,072
-515,102	-200,000	0,000	0,124
-514,087	653,362	0,022	-0,041
-513,072	95,541	-0,048	-0,040
-512,058	576,300	-0,050	0,090
-511,043	109,942	-0,013	-0,011
-510,029	-200,000	0,023	0,236
-509,014	529,373	-0,076	0,132
-507,999	350,252	0,064	-0,093
-506,985	-200,000	-0,011	-0,079
-505,970	-200,000	-0,001	0,005
-504,956	-200,000	-0,008	0,057
-503,941	398,523	0,086	0,132
-502,926	-58,782	-0,109	0,034
-501,912	77,226	0,060	0,046
-500,897	277,064	-0,059	0,076
-499,883	310,379	0,060	0,082
-498,868	-101,500	-0,174	-0,031
-497,853	-98,864	0,082	-0,015
-496,839	800,000	0,033	-0,076
-495,824	-13,427	-0,056	0,026
-494,810	178,907	0,107	0,114
-493,795	-200,000	0,043	0,159
-492,781	-200,000	-0,007	0,075
-491,766	-55,998	-0,047	-0,015
-490,751	263,999	0,042	0,054
-489,737	36,107	0,054	0,034
-488,722	800,000	0,046	0,119
-487,708	-200,000	0,000	0,114
-486,693	405,458	-0,052	0,080
-485,678	-106,002	0,178	0,029
-484,664	102,958	-0,063	0,054
-483,649	19,093	0,050	-0,029
-482,635	-93,430	-0,106	-0,021
-481,620	-70,313	0,088	0,024
-480,605	40,780	-0,099	-0,065
-479,591	-66,398	0,048	0,014
-478,576	-200,000	0,024	0,135
-477,562	-29,830	-0,151	0,063
-476,547	-200,000	0,041	-0,151
-475,532	422,238	0,018	-0,028
-474,518	-200,000	-0,000	0,046
-473,503	96,912	0,086	0,072
-472,489	172,655	-0,037	0,039
-471,474	-160,467	0,159	0,006
-470,459	8,306	0,131	0,072
-469,445	181,458	0,027	0,029
-468,430	-48,588	-0,155	0,054
-467,416	132,470	0,093	-0,088
-466,401	179,167	0,085	0,091
-465,386	272,805	-0,053	0,068
-464,372	-48,619	-0,106	-0,037
-463,357	567,969	0,070	0,124
-462,343	46,858	-0,145	-0,098
-461,328	74,056	0,010	-0,007
-460,313	-166,091	0,137	0,004
-459,299	-200,000	-0,000	0,051
-458,284	176,429	0,086	-0,092
-457,270	591,706	-0,098	-0,178
-456,255	-13,232	-0,072	0,034
-455,241	800,000	-0,044	-0,136
-454,226	-200,000	-0,021	-0,147
-453,211	-200,000	-0,003	-0,053
-452,197	331,318	0,007	-0,009
-451,182	0,409	0,127	0,066
-450,168	-200,000	0,012	0,070
-449,153	236,931	0,062	0,075
-448,138	-200,000	-0,000	0,082
-447,124	-200,000	-0,003	0,039
-446,109	685,151	0,055	0,105
-445,095	800,000	-0,022	-0,048
-444,080	800,000	-0,048	-0,136
-443,065	114,252	0,038	0,034
-442,051	605,028	0,078	-0,142
-441,036	48,993	-0,126	-0,086
-440,022	296,533	-0,062	0,083
-439,007	436,583	0,083	-0,131
-437,992	83,206	0,113	-0,090
-436,978	800,000	-0,033	0,092
-435,963	337,542	0,083	0,118
-434,949	40,650	-0,166	-0,109
-433,934	-29,909	0,090	0,037
-432,919	301,256	-0,038	-0,051
-431,905	-200,000	-0,016	0,079
-430,890	800,000	0,017	0,048
-429,876	-200,000	-0,001	0,046
-428,861	-92,959	-0,014	0,003
-427,846	63,946	0,065	-0,047
-426,832	13,192	0,087	0,049
-425,817	-200,000	-0,030	-0,129
-424,803	176,615	0,042	0,045
-423,788	31,656	-0,063	0,039
-422,773	50,210	0,092	0,063
-421,759	86,179	0,132	0,105
-420,744	486,638	-0,057	0,095
-419,730	-151,440	-0,052	0,003
-418,715	-200,000	0,003	0,040
-417,701	141,305	-0,052	-0,050
-416,686	-170,689	0,059	-0,001
-415,671	-29,925	0,100	0,041
-414,657	232,521	0,103	-0,124
-413,642	-49,400	-0,057	0,020
-412,628	800,000	-0,025	0,068
-411,613	-2,826	0,076	-0,039
-410,598	-8,086	-0,035	-0,017
-409,584	-200,000	-0,005	-0,042
-408,569	-200,000	0,037	0,121
-407,555	273,698	0,061	-0,079
-406,540	800,000	0,057	-0,154
-405,525	800,000	-0,025	0,054
-404,511	-200,000	-0,007	0,065
-403,496	623,410	-0,045	0,083
-402,482	42,154	-0,013	-0,008
-401,467	-80,944	0,110	-0,026
-400,452	-113,646	0,153	0,022
-399,438	561,226	0,042	0,074
-398,423	-99,200	-0,131	-0,024
-397,409	-5,480	-0,099	-0,049
-396,394	-72,579	-0,063	-0,017
-395,379	-200,000	0,014	0,080
-394,365	351,879	0,077	0,111
-393,350	-200,000	-0,007	-0,093
-392,336	-200,000	0,012	-0,076
-391,321	-151,371	-0,056	0,003
-390,306	-200,000	0,032	-0,187
-389,292	800,000	0,026	-0,054
-388,277	-57,846	0,116	0,037
-387,263	272,551	-0,085	0,110
-386,248	-200,000	0,031	-0,151
-385,233	98,876	0,074	-0,062
-384,219	-200,000	0,025	-0,143
-383,204	227,183	0,071	-0,084
-382,190	-67,274	-0,039	0,011
-381,175	33,430	-0,106	0,067
-380,160	-200,000	0,008	0,105
-379,146	-200,000	0,025	0,178
-378,131	-29,226	-0,075	0,031
-377,117	-31,607	-0,044	0,018
-376,102	6,164	-0,135	0,073
-375,088	-52,698	-0,127	-0,042
-374,073	-1,270	0,066	0,034
-373,058	136,045	-0,016	0,015
-372,044	800,000	-0,046	0,108
-371,029	-200,000	-0,034	0,114
-370,015	264,840	-0,054	0,069
-369,000	-200,000	0,017	-0,058
-367,985	130,825	-0,144	-0,134
-366,971	388,370	-0,008	-0,012
-365,956	800,000	-0,029	-0,071
-364,942	333,587	-0,036	0,050
-363,927	33,169	-0,051	0,032
-362,912	800,000	-0,038	0,109
-361,898	44,429	0,122	-0,081
-360,883	-56,056	0,112	0,036
-359,869	-149,779	-0,103	0,006
-358,854	-133,889	0,122	0,011
-357,839	-62,721	-0,037	0,011
-356,825	680,142	0,029	0,056
-355,810	19,362	-0,040	0,023
-354,796	-200,000	0,019	0,070
-353,781	-38,755	0,156	0,059
-352,766	800,000	-0,023	-0,065
-351,752	315,511	0,060	0,082
-350,737	-63,003	0,092	0,027
-349,723	-144,838	-0,035	-0,002
-348,708	325,531	0,025	0,035
-347,693	120,179	0,109	-0,098
-346,679	83,637	-0,058	0,046
-345,664	120,005	0,007	-0,007
-344,650	-143,368	-0,015	0,001
-343,635	-170,783	0,188	-0,005
-342,620	145,119	0,056	0,054
-341,606	98,700	0,030	0,025
-340,591	-200,000	-0,016	-0,072
-339,577	800,000	-0,050	-0,134
-338,562	201,348	0,125	-0,140
-337,548	-200,000	0,024	-0,136
-336,533	311,043	0,082	0,112
-335,518	-126,330	0,047	-0,005
-334,504	-200,000	-0,030	0,168
-333,489	285,177	0,049	-0,064
-332,475	-200,000	0,018	-0,085
-331,460	-200,000	-0,035	-0,134
-330,445	800,000	-0,025	-0,074
-329,431	800,000	0,033	-0,096
-328,416	166,678	0,082	0,085
-327,402	-200,000	-0,013	0,100
-326,387	-157,384	-0,074	0,003
-325,372	-200,000	0,017	-0,095
-324,358	102,283	-0,081	-0,068
-323,343	-200,000	-0,008	-0,032
-322,329	-2,595	0,031	-0,016
-321,314	800,000	-0,035	-0,072
-320,299	800,000	0,036	0,099
-319,285	-200,000	-0,007	0,065
-318,270	37,501	-0,096	-0,061
-317,256	-200,000	-0,007	-0,090
-316,241	-6,228	-0,063	0,031
-315,226	79,472	0,068	0,053
-314,212	95,307	0,058	0,048
-313,197	146,017	0,065	0,064
-312,183	-200,000	0,018	-0,141
-311,168	800,000	-0,027	-0,083
-310,153	186,255	-0,037	0,040
-309,139	-200,000	-0,011	-0,066
-308,124	5,275	-0,060	-0,032
-307,110	113,804	0,135	-0,119
-306,095	-6,702	0,107	-0,053
-305,080	-53,044	-0,110	0,036
-304,066	263,642	-0,111	-0,140
-303,051	0,867	-0,118	-0,061
-302,037	0,817	-0,085	-0,044
-301,022	609,072	-0,028	-0,051
-300,008	800,000	-0,015	-0,036
-298,993	-200,000	0,009	-0,110
-297,978	-104,710	-0,127	-0,021
-296,964	602,323	-0,005	0,010
-295,949	-8,631	0,102	-0,049
-294,935	326,455	0,063	-0,088
-293,920	-24,108	-0,090	0,039
-292,905	-200,000	0,009	0,088
-291,891	-200,000	0,004	0,092
-290,876	-194,279	0,123	-0,001
-289,862	-12,070	-0,061	0,029
-288,847	329,749	0,111	-0,155
-287,832	800,000	-0,039	0,083
-286,818	67,823	0,177	0,131
-285,803	800,000	-0,032	0,068
-284,789	-173,319	0,073	0,002
-283,774	17,288	0,052	-0,030
-282,759	-73,471	0,138	0,036
-281,745	-130,388	0,085	0,008
-280,730	144,461	-0,055	0,054
-279,716	-56,070	0,075	0,024
-278,701	-81,393	0,146	0,035
-277,686	800,000	0,022	0,063
-276,672	32,337	-0,129	0,080
-275,657	-16,250	0,029	-0,013
-274,643	498,628	-0,052	0,086
-273,628	14,212	-0,069	-0,039
-272,613	800,000	-0,030	0,078
-271,599	51,418	-0,054	0,037
-270,584	-96,689	0,119	-0,023
-269,570	800,000	-0,004	0,012
-268,555	107,022	-0,070	0,061
-267,540	5,776	-0,126	-0,067
-266,526	-200,000	0,038	-0,145
-265,511	-200,000	-0,015	-0,097
-264,497	0,895	0,071	-0,037
-263,482	265,662	0,069	0,087
-262,467	-111,112	0,038	-0,006
-261,453	224,670	0,050	-0,058
-260,438	800,000	0,055	-0,114
-259,424	-200,000	0,006	-0,106
-258,409	246,045	0,109	-0,134
-257,395	142,914	-0,025	0,024
-256,380	191,900	-0,037	0,040
-255,365	242,764	0,084	-0,102
-254,351	772,411	0,049	0,097
-253,336	336,079	-0,022	-0,031
-252,322	-200,000	-0,021	-0,173
-251,307	800,000	0,057	-0,153
-250,292	-200,000	-0,003	0,013
-249,278	-200,000	-0,027	0,129
-248,263	-200,000	0,016	0,051
-247,249	-200,000	-0,021	0,085
-246,234	255,987	-0,083	-0,103
-245,219	163,428	-0,027	-0,027
-244,205	-108,683	-0,180	-0,028
-243,190	-100,973	0,061	-0,011
-242,176	345,372	-0,022	0,031
-241,161	196,209	-0,026	-0,028
-240,146	800,000	0,020	0,057
-239,132	187,325	-0,064	0,069
-238,117	675,729	-0,112	-0,211
-237,103	-200,000	0,013	0,082
-236,088	-200,000	-0,006	-0,046
-235,073	47,484	0,087	0,058
-234,059	-200,000	-0,017	0,091
-233,044	-100,407	-0,110	-0,019
-232,030	800,000	-0,036	0,080
-231,015	-200,000	0,034	-0,122
-230,000	126,062	-0,070	-0,064
-228,986	71,091	0,035	0,026
-227,971	-18,668	-0,022	0,010
-226,957	-102,584	0,173	0,030
-225,942	168,643	0,099	0,101
-224,927	93,005	0,042	-0,034
-223,913	-200,000	-0,041	0,133
-222,898	102,636	0,087	0,073
-221,884	-58,335	0,081	0,025
-220,869	586,965	0,044	0,079
-219,855	-120,861	-0,052	-0,006
-218,840	-200,000	0,025	0,144
-217,825	-200,000	0,018	0,061
-216,811	-110,175	0,055	-0,008
-215,796	201,279	-0,096	0,107
-214,782	300,794	-0,028	0,038
-213,767	52,414	0,091	-0,062
-212,752	47,455	-0,029	-0,019
-211,738	800,000	0,043	0,130
-210,723	-23,240	0,096	0,042
-209,709	185,174	-0,066	-0,071
-208,694	143,065	0,014	-0,014
-207,679	-200,000	0,004	-0,041
-206,665	730,254	0,041	-0,079
-205,650	235,851	0,119	-0,143
-204,636	227,032	0,050	0,059
-203,621	800,000	-0,047	0,116
-202,606	116,360	0,033	-0,029
-201,592	-58,298	-0,064	-0,020
-200,577	345,732	0,038	-0,054
-199,563	-200,000	-0,005	-0,037
-198,548	-200,000	0,006	0,031
-197,533	115,032	0,058	-0,051
-196,519	382,908	-0,035	-0,051
-195,504	-200,000	-0,004	0,048
-194,490	-200,000	0,044	-0,146
-193,475	191,828	-0,123	0,133
-192,460	392,544	0,040	-0,060
-191,446	800,000	0,005	0,013
-190,431	221,665	0,057	-0,066
-189,417	793,600	-0,045	-0,089
-188,402	-5,310	0,073	0,036
-187,387	218,474	0,045	-0,052
-186,373	-138,964	-0,169	-0,013
-185,358	-200,000	0,016	0,112
-184,344	-200,000	0,008	0,091
-183,329	-104,662	0,132	-0,022
-182,315	170,108	0,071	0,073
-181,300	-200,000	-0,012	0,048
-180,285	23,169	-0,026	-0,015
-179,271	-127,448	-0,077	-0,008
-178,256	212,711	0,031	-0,035
-177,242	293,052	0,032	0,042
-176,227	17,940	-0,103	0,059
-175,212	317,786	0,086	0,118
-174,198	207,547	-0,053	-0,060
-173,183	125,304	-0,107	-0,097
-172,169	-84,209	-0,090	0,020
-171,154	-13,371	-0,090	0,042
-170,139	71,492	-0,037	0,027
-169,125	-200,000	-0,007	0,059
-168,110	-200,000	0,033	0,184
-167,096	-200,000	0,015	0,072
-166,081	-200,000	-0,002	0,057
-165,066	-200,000	-0,011	-0,041
-164,052	-200,000	-0,004	0,054
-163,037	-200,000	0,026	-0,101
-162,023	-134,814	-0,078	-0,007
-161,008	153,648	0,075	0,074
-159,993	800,000	-0,028	0,078
-158,979	-200,000	-0,023	-0,098
-157,964	20,759	0,102	-0,059
-156,950	126,162	-0,028	-0,025
-155,935	-115,854	0,061	0,008
-154,920	3,527	0,074	0,038
-153,906	-200,000	0,005	-0,050
-152,891	-200,000	-0,017	0,131
-151,877	-200,000	0,029	0,107
-150,862	127,145	-0,018	-0,016
-149,847	-200,000	-0,014	-0,107
-148,833	261,137	0,117	-0,146
-147,818	-200,000	0,011	0,097
-146,804	115,728	-0,027	0,024
-145,789	-119,432	-0,083	0,010
-144,775	-83,456	-0,068	-0,015
-143,760	-128,597	-0,020	0,002
-142,745	145,731	-0,077	-0,074
-141,731	-40,542	-0,053	0,020
-140,716	693,115	0,031	0,059
-139,702	215,531	0,035	0,040
-138,687	195,145	0,048	-0,053
-137,672	634,778	0,044	-0,080
-136,658	39,614	-0,118	-0,076
-135,643	800,000	0,075	-0,189
-134,629	619,389	0,083	-0,150
-133,614	587,453	0,093	0,166
-132,599	-62,018	-0,082	0,024
-131,585	800,000	0,009	0,026
-130,570	800,000	0,062	0,132
-129,556	800,000	0,008	0,023
-128,541	-200,000	-0,024	0,091
-127,526	-91,859	0,152	0,031
-126,512	298,499	0,005	-0,006
-125,497	578,790	0,075	0,132
-124,483	-200,000	-0,027	-0,092
-123,468	43,989	-0,045	0,029
-122,453	271,267	-0,024	-0,031
-121,439	-200,000	0,021	0,067
-120,424	800,000	-0,027	-0,068
-119,410	-200,000	0,004	-0,052
-118,395	183,591	0,086	0,092
-117,380	186,180	-0,034	-0,036
-116,366	800,000	-0,022	0,050
-115,351	6,931	-0,031	-0,017
-114,337	271,187	0,068	-0,086
-113,322	372,104	-0,025	-0,037
-112,307	-64,714	0,071	0,021
-111,293	67,983	-0,063	-0,046
-110,278	12,706	0,041	-0,023
-109,264	-200,000	0,008	0,028
-108,249	-87,793	-0,062	-0,013
-107,234	251,693	-0,081	-0,100
-106,220	800,000	-0,040	0,114
-105,205	-200,000	-0,000	-0,087
-104,191	-138,261	0,052	0,004
-103,176	131,184	-0,042	0,038
-102,162	-200,000	0,009	-0,079
-101,147	-178,654	-0,057	0,001
-100,132	39,220	0,099	-0,064
-99,118	-200,000	0,003	0,016
-98,103	54,846	0,011	0,008
-97,089	-159,340	-0,051	0,002
-96,074	-14,237	0,041	-0,019
-95,059	-76,282	0,050	-0,013
-94,045	-44,656	-0,041	-0,015
-93,030	-110,437	-0,126	-0,019
-92,016	147,531	-0,041	0,039
-91,001	194,043	-0,014	-0,015
-89,986	-200,000	-0,004	-0,051
-88,972	-57,265	-0,096	0,030
-87,957	-200,000	-0,000	-0,032
-86,943	531,060	-0,060	-0,101
-85,928	800,000	-0,044	-0,114
-84,913	-82,757	-0,053	-0,012
-83,899	800,000	0,029	-0,062
-82,884	335,253	0,084	0,117
-81,870	-200,000	0,016	0,115
-80,855	10,560	0,069	0,038
-79,840	189,995	-0,073	0,078
-78,826	-111,417	0,075	0,011
-77,811	64,790	0,106	-0,077
-76,797	-200,000	-0,014	0,107
-75,782	211,407	0,087	-0,098
-74,767	-200,000	0,035	0,113
-73,753	-70,733	0,127	0,034
-72,738	-1,361	-0,052	-0,026
-71,724	88,761	-0,062	-0,050
-70,709	-200,000	-0,008	0,107
-69,694	-53,567	-0,071	0,023
-68,680	-200,000	0,002	-0,055
-67,665	800,000	0,036	-0,077
-66,651	246,729	0,024	-0,029
-65,636	-74,436	0,097	-0,025
-64,622	-200,000	0,001	-0,119
-63,607	-78,425	-0,075	0,018
-62,592	-200,000	-0,007	-0,081
-61,578	-200,000	-0,020	0,081
-60,563	492,119	0,063	-0,104
-59,549	90,150	0,029	0,023
-58,534	28,247	-2,187	-1,322
-57,519	-200,000	-0,162	-0,771
-56,505	-200,000	-1,469	-5,111
-55,490	71,356	0,795	0,591
-54,476	800,000	5,327	11,923
-53,461	-200,000	18,811	317,215
-52,446	800,000	741,624	2333,361
-51,432	558,631	1657,337	2878,996
-50,417	111,232	1640,896	1417,498
-49,403	75,582	1290,794	976,392
-48,388	30,384	1031,587	630,501
-47,373	19,968	994,256	573,164
-46,359	17,471	981,770	557,722
-45,344	14,161	977,894	544,616
-44,330	14,418	976,221	544,508
-43,315	13,835	974,333	541,520
-42,300	13,813	973,370	540,892
-41,286	13,789	972,478	540,295
-40,271	13,756	971,485	539,614
-39,257	13,737	970,816	539,158
-38,242	13,799	969,716	538,728
-37,227	13,804	968,901	538,271
-36,213	13,791	968,090	537,757
-35,198	13,726	967,118	536,983
-34,184	13,790	966,467	536,808
-33,169	13,720	965,422	535,980
-32,154	13,815	964,509	535,759
-31,140	13,802	963,521	535,149
-30,125	13,783	962,901	534,720
-29,111	13,778	962,112	534,246
-28,096	13,801	961,310	533,854
-27,082	13,801	960,682	533,484
-26,067	13,769	960,127	533,049
-25,052	13,773	959,155	532,502
-24,038	13,774	958,470	532,103
-23,023	13,743	957,886	531,659
-22,009	13,848	957,266	531,633
-20,994	13,776	956,714	531,073
-19,979	13,751	956,030	530,591
-18,965	13,782	955,315	530,273
-17,950	13,815	954,698	530,015
-16,936	13,719	954,149	529,383
-15,921	13,790	953,438	529,193
-14,906	13,696	952,713	528,469
-13,892	13,709	952,128	528,163
-12,877	13,742	951,290	527,787
-11,863	13,650	950,600	527,086
-10,848	13,604	950,434	526,826
-9,833	13,753	949,617	526,830
-8,819	13,711	949,054	526,361
-7,804	13,697	948,300	525,879
-6,790	13,671	947,863	525,531
-5,775	13,740	947,179	525,351
-4,760	13,682	946,590	524,821
-3,746	13,715	946,007	524,579
-2,731	13,511	945,368	523,557
-1,717	13,474	944,800	523,103
-0,702	13,498	944,017	522,725
0,313	13,327	943,329	522,591
1,327	16,710	940,980	531,953
2,342	25,813	795,952	474,148
3,356	21,965	460,918	268,631
4,371	-4,895	318,183	156,537
5,386	-8,808	300,025	143,580
6,400	-10,786	293,973	138,682
7,415	-11,114	291,503	137,177
8,429	-11,431	289,895	136,094
9,444	-11,363	289,056	135,756
10,459	-11,575	288,553	135,298
11,473	-11,505	287,823	135,013
12,488	-11,353	287,283	134,896
13,502	-11,511	286,806	134,506
14,517	-11,399	286,406	134,416
15,531	-11,395	285,902	134,171
16,546	-11,308	285,599	134,103
17,561	-11,394	285,041	133,745
18,575	-11,270	284,909	133,791
19,590	-11,487	284,350	133,306
20,604	-11,285	284,004	133,328
21,619	-11,436	283,722	133,037
22,634	-11,326	283,295	132,932
23,648	-11,515	283,106	132,649
24,663	-11,388	282,792	132,612
25,677	-11,408	282,461	132,425
26,692	-11,504	282,226	132,212
27,707	-11,466	281,953	132,108
28,721	-11,338	281,777	132,137
29,736	-11,429	281,427	131,874
30,750	-11,490	281,168	131,682
31,765	-11,444	280,828	131,555
32,780	-11,479	280,616	131,410
33,794	-11,426	280,383	131,340
34,809	-11,494	280,000	131,085
35,823	-11,319	279,915	131,200
36,838	-11,396	279,652	130,992
37,853	-11,466	279,281	130,739
38,867	-11,498	279,146	130,635
39,882	-11,489	278,955	130,542
40,896	-11,484	278,588	130,363
41,911	-11,501	278,393	130,244
42,926	-11,400	278,059	130,171
43,940	-11,531	277,806	129,918
44,955	-11,573	277,727	129,829
45,969	-11,370	277,391	129,853
46,984	-11,681	277,170	129,444
47,999	-11,887	276,962	129,140
49,013	-11,865	276,571	128,968
50,028	-12,090	276,393	128,661
51,042	-12,200	276,020	128,372
52,057	-12,246	275,723	128,179
53,071	-12,124	275,658	128,253
54,086	-11,974	275,513	128,315
55,101	-11,985	275,304	128,195
56,115	-11,683	275,108	128,376
57,130	-11,548	274,990	128,436
58,144	-11,257	274,776	128,596
59,159	-11,434	274,499	128,291
60,174	-11,331	274,266	128,266
61,188	-11,394	274,138	128,137
62,203	-11,443	273,805	127,923
63,217	-11,352	273,643	127,921
64,232	-11,427	273,421	127,736
65,247	-11,224	273,083	127,755
66,261	-11,350	272,822	127,505
67,276	-11,683	272,617	127,089
68,290	-11,678	272,305	126,937
69,305	-11,855	272,171	126,699
70,320	-11,741	272,059	126,741
71,334	-11,394	271,814	126,937
72,349	-11,405	271,567	126,800
73,363	-11,387	271,282	126,672
74,378	-11,313	271,221	126,700
75,393	-11,349	270,943	126,526
76,407	-11,293	270,779	126,490
77,422	-11,292	270,426	126,315
78,436	-11,501	270,359	126,080
79,451	-11,396	269,934	125,966
80,466	-11,190	269,655	126,014
81,480	-11,505	269,438	125,613
82,495	-11,485	269,320	125,565
83,509	-11,449	269,121	125,494
84,524	-11,532	268,976	125,339
85,539	-11,645	268,786	125,136
86,553	-11,627	268,268	124,900
87,568	-11,493	268,168	124,965
88,582	-11,620	268,064	124,789
89,597	-11,694	267,891	124,630
90,611	-11,460	267,676	124,733
91,626	-11,170	267,412	124,861
92,641	-11,581	267,312	124,431
93,655	-11,316	267,026	124,527
94,670	-11,505	266,899	124,285
95,684	-11,426	266,548	124,182
96,699	-11,532	266,475	124,040
97,714	-11,409	266,229	124,026
98,728	-11,458	265,978	123,854
99,743	-11,693	265,750	123,525
100,757	-11,644	265,456	123,421
101,772	-11,607	265,265	123,355
102,787	-11,380	265,011	123,430
103,801	-11,376	264,993	123,414
104,816	-11,505	264,952	123,268
105,830	-11,372	264,717	123,267
106,845	-11,172	264,493	123,331
107,860	-11,322	264,280	123,086
108,874	-11,436	264,202	122,937
109,889	-11,448	263,900	122,775
110,903	-11,459	263,401	122,522
111,918	-11,471	263,220	122,417
112,933	-11,321	263,237	122,548
113,947	-11,379	263,043	122,394
114,962	-11,492	262,787	122,163
115,976	-11,447	262,702	122,153
116,991	-11,605	262,470	121,894
118,006	-11,580	262,266	121,810
119,020	-11,319	262,160	121,982
120,035	-11,337	262,058	121,907
121,049	-11,272	261,866	121,865
122,064	-11,276	261,631	121,742
123,079	-11,347	261,343	121,534
124,093	-11,385	261,001	121,331
125,108	-11,621	260,962	121,093
126,122	-11,841	260,654	120,745
127,137	-11,760	260,474	120,722
128,151	-11,757	260,254	120,613
129,166	-11,736	260,057	120,529
130,181	-11,607	259,773	120,500
131,195	-11,762	259,633	120,288
132,210	-11,236	259,557	120,704
133,224	-11,358	259,466	120,544
134,239	-11,345	259,248	120,443
135,254	-11,339	259,147	120,391
136,268	-11,475	258,619	120,016
137,283	-11,541	258,490	119,887
138,297	-11,705	258,241	119,618
139,312	-11,808	257,958	119,386
140,327	-11,708	258,117	119,537
141,341	-11,354	257,894	119,731
142,356	-11,474	257,729	119,540
143,370	-11,318	257,551	119,582
144,385	-11,162	257,327	119,603
145,400	-11,276	257,105	119,390
146,414	-11,381	256,939	119,211
147,429	-11,043	256,669	119,369
148,443	-11,210	256,716	119,235
149,458	-11,036	256,357	119,209
150,473	-11,158	256,125	118,985
151,487	-10,919	255,998	119,121
152,502	-11,119	255,673	118,786
153,516	-11,106	255,520	118,716
154,531	-11,136	255,450	118,647
155,546	-11,120	255,346	118,602
156,560	-11,252	255,129	118,377
157,575	-11,356	254,826	118,136
158,589	-11,116	254,570	118,214
159,604	-11,285	254,630	118,086
160,619	-11,273	254,299	117,932
161,633	-11,218	254,115	117,883
162,648	-11,250	254,025	117,803
163,662	-11,175	253,949	117,822
164,677	-11,223	253,820	117,711
165,692	-11,215	253,432	117,526
166,706	-11,084	253,298	117,566
167,721	-11,162	253,268	117,475
168,735	-11,283	253,065	117,267
169,750	-11,073	252,870	117,345
170,764	-11,103	252,728	117,243
171,779	-11,197	252,487	117,041
172,794	-11,032	252,274	117,072
173,808	-11,226	252,175	116,851
174,823	-11,578	251,913	116,420
175,837	-11,789	251,606	116,089
176,852	-11,235	251,499	116,499
177,867	-11,253	251,629	116,533
178,881	-11,316	251,400	116,364
179,896	-11,124	251,157	116,403
180,910	-11,025	251,084	116,443
181,925	-11,231	250,723	116,092
182,940	-10,946	250,596	116,263
183,954	-11,210	250,355	115,917
184,969	-11,058	250,272	115,997
185,983	-11,229	250,190	115,805
186,998	-11,112	249,839	115,731
188,013	-11,291	249,840	115,570
189,027	-11,055	249,406	115,557
190,042	-11,111	249,260	115,432
191,056	-10,958	249,124	115,487
192,071	-10,966	248,998	115,412
193,086	-11,115	248,672	115,126
194,100	-11,026	248,596	115,155
195,115	-11,138	248,520	115,015
196,129	-11,128	248,317	114,919
197,144	-11,316	248,169	114,684
198,159	-11,289	248,012	114,624
199,173	-11,196	247,784	114,586
200,188	-11,205	247,530	114,450
201,202	-11,389	247,201	114,135
202,217	-11,700	247,010	113,779
203,232	-11,648	246,918	113,769
204,246	-11,421	246,857	113,919
205,261	-10,989	246,807	114,244
206,275	-11,929	246,336	113,238
207,290	-8,148	247,879	117,086
208,304	-0,139	250,357	124,964
209,319	4,209	251,635	129,243
210,334	4,915	251,716	129,865
211,348	4,871	251,662	129,789
212,363	4,998	251,512	129,806
213,377	5,160	251,376	129,860
214,392	4,990	251,209	129,620
215,407	4,943	250,892	129,405
216,421	4,930	250,879	129,376
217,436	4,974	250,710	129,315
218,450	5,497	250,425	129,592
219,465	4,981	250,057	128,961
220,480	4,863	250,000	128,821
221,494	4,667	249,900	128,596
222,509	4,671	249,710	128,489
223,523	4,850	249,369	128,451
224,538	4,340	249,205	127,932
225,553	4,618	249,122	128,109
226,567	4,657	249,003	128,069
227,582	4,485	248,873	127,848
228,596	4,686	248,646	127,886
229,611	4,444	248,308	127,501
230,626	4,345	248,130	127,317
231,640	4,432	248,083	127,353
232,655	4,455	247,932	127,283
233,669	4,427	247,695	127,127
234,684	4,279	247,517	126,902
235,699	4,650	247,518	127,196
236,713	4,944	247,406	127,370
237,728	4,429	247,158	126,807
238,742	4,371	246,969	126,652
239,757	4,126	246,776	126,341
240,772	4,204	246,676	126,342
241,786	4,337	246,461	126,329
242,801	4,274	246,284	126,176
243,815	4,243	246,214	126,103
244,830	4,418	246,059	126,156
245,844	4,705	245,822	126,258
246,859	4,476	245,654	125,973
247,874	4,344	245,423	125,736
248,888	4,490	245,332	125,797
249,903	4,414	245,357	125,737
250,917	4,441	245,247	125,691
251,932	4,985	245,000	125,996
252,947	4,717	244,813	125,671
253,961	4,559	244,683	125,465
254,976	4,498	244,458	125,288
255,990	4,691	244,378	125,392
257,005	4,297	244,151	124,946
258,020	4,249	243,944	124,790
259,034	4,317	243,715	124,717
260,049	4,473	243,700	124,824
261,063	4,098	243,521	124,418
262,078	4,289	243,203	124,398
263,093	4,500	243,245	124,579
264,107	4,653	243,023	124,578
265,122	4,395	243,011	124,353
266,136	4,486	242,924	124,370
267,151	4,856	242,568	124,474
268,166	4,629	242,339	124,163
269,180	4,329	242,177	123,829
270,195	4,869	242,297	124,312
271,209	5,218	242,095	124,477
272,224	4,523	241,832	123,775
273,239	4,051	241,485	123,209
274,253	4,161	241,440	123,262
275,268	4,529	241,240	123,443
276,282	4,525	241,109	123,362
277,297	4,410	240,734	123,067
278,312	4,217	240,883	122,978
279,326	4,400	240,712	123,027
280,341	4,416	240,594	122,968
281,355	4,298	240,360	122,743
282,370	4,483	240,261	122,829
283,384	4,484	239,957	122,663
284,399	4,458	239,764	122,533
285,414	4,285	239,653	122,328
286,428	4,372	239,532	122,324
287,443	4,372	239,447	122,270
288,457	4,659	239,231	122,376
289,472	4,717	239,228	122,410
290,487	4,371	238,987	122,001
291,501	4,367	238,759	121,871
292,516	4,075	238,652	121,576
293,530	4,089	238,502	121,499
294,545	4,574	238,388	121,813
295,560	4,447	238,242	121,627
296,574	4,353	237,921	121,378
297,589	4,352	237,927	121,370
298,603	4,573	237,868	121,503
299,618	4,715	237,581	121,456
300,633	4,345	237,529	121,129
301,647	4,524	237,470	121,229
302,662	4,879	237,462	121,492
303,676	4,795	237,171	121,267
304,691	4,583	237,067	121,036
305,706	4,954	236,788	121,174
306,720	4,908	236,666	121,064
307,735	4,834	236,543	120,933
308,749	4,627	236,271	120,621
309,764	4,510	236,069	120,417
310,779	4,269	235,870	120,116
311,793	4,004	235,669	119,797
312,808	4,193	235,542	119,869
313,822	4,074	235,520	119,754
314,837	4,056	235,271	119,603
315,852	4,198	235,195	119,664
316,866	4,334	235,000	119,659
317,881	4,424	234,836	119,635
318,895	4,498	234,958	119,744
319,910	5,209	234,763	120,185
320,925	4,646	234,510	119,609
321,939	3,972	234,400	119,021
322,954	4,539	234,140	119,316
323,968	4,405	234,147	119,206
324,983	4,445	234,005	119,153
325,997	4,832	233,959	119,418
327,012	4,504	233,795	119,071
328,027	4,530	233,500	118,930
329,041	4,751	233,721	119,202
330,056	5,134	233,485	119,366
331,070	5,208	233,257	119,295
332,085	4,722	233,007	118,784
333,100	4,377	232,815	118,411
334,114	4,570	232,664	118,472
335,129	4,981	232,544	118,715
336,143	4,999	232,546	118,719
337,158	4,877	232,231	118,454
338,173	4,663	231,973	118,149
339,187	4,518	231,869	117,975
340,202	4,444	232,009	117,978
341,216	4,567	231,487	117,797
342,231	4,296	231,460	117,566
343,246	4,470	231,214	117,562
344,260	4,827	231,174	117,804
345,275	4,746	231,127	117,708
346,289	4,864	230,997	117,720
347,304	4,831	230,835	117,603
348,319	4,812	230,572	117,443
349,333	4,777	230,394	117,316
350,348	4,396	230,306	116,972
351,362	4,601	230,175	117,050
352,377	4,318	229,852	116,662
353,392	4,267	229,598	116,483
354,406	4,530	229,634	116,690
355,421	195,230	1319,688	1394,144
356,435	156,600	1452,464	1394,108
