DTS Sentinel unit serial number:	SN410029Multiplexer serial number:	ORYXHardware model number:	OX2-SRSoftware version number:	ORYX F/W v4,00 Oryx Data Collector v3.7.2.0data status	okinstallation	B5 Nyhavnadifferential loss correction	single-endedforward channel	channel 2reverse channel	N/Adate	2023/12/11time	17:57:13forward acquisition time	300,00reverse acquisition time	0,00gamma	499,1914k internal	0,3162k external	0,3162temperature offset calibration	1,0000default loss term (dB/km)	0,3820temperature slope calibration	1,0000multiplexer offset coefficient	1,0000multiplexer slope coefficient	1,0000fibre end	0,00T internal ref (°C)	14,95T ext. ref 1 (°C)	-0,52T ext. ref 2 (°C)	-0,77length (m)	temperature (°C)	Stokes	anti-Stokes-744,400	-102,675	0,087	0,015
-743,385	-149,264	-0,386	0,022
-742,371	-200,000	-0,010	0,175
-741,356	-25,091	-0,327	0,142
-740,342	-98,627	0,193	-0,036
-739,327	-39,423	-0,423	0,163
-738,312	-95,440	0,080	-0,016
-737,298	-127,526	-0,304	0,032
-736,283	-72,638	0,126	-0,034
-735,269	-137,825	-0,241	-0,020
-734,254	57,623	0,077	-0,055
-733,239	-46,044	-0,516	-0,186
-732,225	-76,604	0,150	-0,038
-731,210	800,000	-0,017	-0,048
-730,196	-200,000	0,011	-0,061
-729,181	-200,000	-0,048	-0,181
-728,167	30,042	0,159	-0,100
-727,152	30,335	-0,106	0,066
-726,137	-67,597	-0,082	0,023
-725,123	346,122	0,069	-0,101
-724,108	25,679	-0,195	-0,119
-723,094	494,544	-0,131	-0,221
-722,079	-200,000	0,015	0,048
-721,064	166,029	-0,018	0,019
-720,050	361,977	-0,062	-0,092
-719,035	358,848	-0,062	-0,091
-718,021	-60,247	-0,091	-0,028
-717,006	106,489	-0,175	-0,152
-715,991	-200,000	-0,022	-0,148
-714,977	-144,079	-0,120	0,008
-713,962	-143,698	-0,076	0,005
-712,948	161,506	0,088	-0,090
-711,933	-106,909	-0,060	0,010
-710,918	98,658	-0,053	0,045
-709,904	-200,000	0,008	-0,168
-708,889	235,072	-0,103	0,125
-707,875	-67,019	0,008	-0,002
-706,860	87,904	0,045	-0,037
-705,845	-200,000	0,020	0,075
-704,831	-200,000	0,005	0,040
-703,816	-175,853	-0,103	0,002
-702,802	-145,921	0,045	-0,003
-701,787	54,512	-0,082	0,058
-700,772	800,000	0,019	-0,049
-699,758	-27,505	-0,085	-0,036
-698,743	-200,000	0,000	-0,032
-697,729	149,626	0,063	0,063
-696,714	-200,000	0,011	0,046
-695,699	198,306	-0,113	-0,127
-694,685	-200,000	-0,042	-0,149
-693,670	301,094	-0,027	-0,036
-692,656	800,000	0,042	-0,087
-691,641	251,859	-0,046	-0,057
-690,627	5,803	0,085	0,046
-689,612	106,744	-0,130	0,113
-688,597	800,000	0,036	0,101
-687,583	-200,000	0,004	0,041
-686,568	-136,262	-0,058	-0,005
-685,554	21,026	-0,074	-0,044
-684,539	-6,644	-0,111	0,055
-683,524	554,793	-0,040	0,070
-682,510	23,516	0,093	-0,056
-681,495	7,545	-0,047	-0,026
-680,481	51,962	-0,107	0,075
-679,466	-200,000	0,006	-0,023
-678,451	800,000	-0,046	-0,095
-677,437	-200,000	-0,008	-0,035
-676,422	192,190	0,043	-0,047
-675,408	149,848	-0,031	0,030
-674,393	9,310	0,029	0,016
-673,378	-88,189	-0,080	0,018
-672,364	800,000	-0,081	-0,170
-671,349	72,619	0,055	-0,042
-670,335	-24,531	-0,019	0,008
-669,320	67,915	-0,076	-0,057
-668,305	353,772	-0,053	-0,078
-667,291	409,846	0,067	-0,104
-666,276	-200,000	0,019	-0,177
-665,262	-118,048	-0,111	0,014
-664,247	-200,000	0,012	-0,164
-663,232	-200,000	0,012	0,160
-662,218	577,492	-0,065	0,117
-661,203	64,293	0,082	0,060
-660,189	103,253	-0,056	-0,048
-659,174	284,996	-0,016	0,021
-658,159	-200,000	0,024	-0,089
-657,145	-200,000	-0,017	-0,067
-656,130	268,237	-0,022	0,028
-655,116	-23,000	-0,072	0,032
-654,101	-23,385	-0,134	-0,059
-653,086	-174,714	-0,108	0,002
-652,072	-62,418	0,003	0,001
-651,057	-9,737	0,161	-0,078
-650,043	-181,953	-0,155	-0,002
-649,028	34,843	-0,016	0,010
-648,014	86,799	-0,065	0,052
-646,999	-167,076	-0,146	-0,004
-645,984	-71,391	-0,066	0,018
-644,970	-200,000	0,028	-0,097
-643,955	192,506	-0,078	-0,086
-642,941	265,634	-0,091	-0,117
-641,926	467,650	-0,041	-0,067
-640,911	-200,000	0,003	0,030
-639,897	26,892	-0,002	0,001
-638,882	71,832	-0,037	-0,028
-637,868	-181,714	-0,122	0,002
-636,853	270,516	-0,049	0,063
-635,838	-0,660	0,084	-0,044
-634,824	62,158	-0,094	-0,068
-633,809	-191,129	0,080	-0,001
-632,795	343,211	0,036	0,052
-631,780	-117,527	0,038	0,005
-630,765	102,902	-0,027	0,023
-629,751	-200,000	0,004	-0,021
-628,736	-200,000	0,010	-0,065
-627,722	-200,000	0,028	-0,153
-626,707	-200,000	0,005	-0,027
-625,692	-200,000	0,023	0,105
-624,678	-200,000	0,016	-0,072
-623,663	368,202	0,043	-0,064
-622,649	52,873	-0,052	-0,036
-621,634	97,139	-0,093	-0,078
-620,619	-4,057	0,166	-0,084
-619,605	157,464	0,051	-0,052
-618,590	153,041	-0,126	-0,126
-617,576	230,344	-0,044	0,052
-616,561	-81,521	0,039	0,009
-615,546	-200,000	-0,011	-0,150
-614,532	-0,815	-0,096	-0,050
-613,517	-200,000	0,001	0,007
-612,503	-170,339	0,037	-0,001
-611,488	5,978	0,063	0,034
-610,474	-46,533	0,031	0,011
-609,459	-86,462	-0,159	-0,035
-608,444	756,202	0,056	0,111
-607,430	800,000	-0,017	-0,051
-606,415	-87,582	0,068	0,015
-605,401	-200,000	0,010	-0,112
-604,386	-133,349	0,114	0,010
-603,371	523,166	-0,041	-0,072
-602,357	-70,959	-0,014	-0,004
-601,342	-76,054	0,086	0,022
-600,328	-200,000	0,015	0,061
-599,313	117,001	-0,061	0,055
-598,298	-200,000	0,005	0,023
-597,284	-200,000	0,027	0,154
-596,269	5,464	-0,025	-0,013
-595,255	-200,000	0,004	-0,101
-594,240	-200,000	-0,014	-0,079
-593,225	220,002	-0,070	-0,082
-592,211	649,139	-0,074	0,139
-591,196	615,948	0,070	0,130
-590,182	-113,598	0,174	0,025
-589,167	17,066	0,044	-0,026
-588,152	800,000	-0,027	-0,072
-587,138	800,000	-0,022	0,060
-586,123	47,210	-0,102	-0,069
-585,109	197,936	0,097	-0,108
-584,094	-78,207	-0,060	-0,015
-583,079	800,000	0,036	0,094
-582,065	-200,000	0,029	0,149
-581,050	67,917	-0,040	-0,030
-580,036	-200,000	-0,016	-0,069
-579,021	-95,941	0,087	0,017
-578,006	104,206	-0,032	-0,027
-576,992	-88,814	-0,082	0,018
-575,977	234,595	0,039	0,047
-574,963	-200,000	0,025	0,084
-573,948	84,218	0,095	0,076
-572,934	-200,000	-0,003	0,054
-571,919	-14,042	0,051	-0,024
-570,904	800,000	-0,022	-0,062
-569,890	-52,492	-0,111	0,037
-568,875	34,345	0,044	0,028
-567,861	18,632	-0,010	-0,006
-566,846	-7,264	0,144	0,071
-565,831	83,363	0,143	0,114
-564,817	-4,520	-0,088	0,044
-563,802	308,202	-0,073	-0,100
-562,788	-200,000	-0,038	0,147
-561,773	7,794	-0,072	0,039
-560,758	134,368	0,058	0,055
-559,744	800,000	-0,034	-0,086
-558,729	-200,000	-0,007	0,051
-557,715	-200,000	0,003	-0,139
-556,700	-24,958	0,095	-0,041
-555,685	-200,000	-0,018	-0,063
-554,671	-131,665	0,037	0,004
-553,656	112,634	0,093	-0,082
-552,642	-126,888	0,051	0,005
-551,627	661,095	0,005	-0,010
-550,612	46,345	0,084	-0,057
-549,598	-5,885	-0,137	-0,068
-548,583	93,137	-0,028	-0,023
-547,569	-123,604	-0,109	-0,012
-546,554	-39,058	0,068	-0,026
-545,539	-89,456	0,014	0,003
-544,525	-104,946	-0,082	-0,014
-543,510	213,883	0,088	-0,102
-542,496	85,313	-0,089	-0,071
-541,481	129,157	-0,110	-0,103
-540,466	44,057	0,070	-0,047
-539,452	45,291	-0,098	-0,066
-538,437	800,000	0,029	0,060
-537,423	-200,000	-0,004	0,092
-536,408	-172,721	0,041	0,001
-535,393	800,000	0,024	-0,065
-534,379	-200,000	0,004	0,075
-533,364	295,968	0,092	-0,123
-532,350	24,945	0,096	0,058
-531,335	-165,547	0,019	0,001
-530,321	164,025	-0,067	0,069
-529,306	646,293	-0,057	0,106
-528,291	374,026	0,031	-0,046
-527,277	-200,000	-0,007	-0,079
-526,262	512,403	-0,078	-0,133
-525,248	31,559	-0,058	-0,036
-524,233	109,762	0,119	0,104
-523,218	219,457	-0,047	-0,055
-522,204	51,063	0,082	0,057
-521,189	-173,891	-0,084	0,002
-520,175	-200,000	-0,011	0,039
-519,160	34,391	-0,074	0,047
-518,145	-83,026	0,122	0,028
-517,131	800,000	-0,032	0,093
-516,116	-200,000	0,005	0,132
-515,102	189,529	0,007	0,007
-514,087	-1,363	-0,079	0,041
-513,072	-59,251	-0,068	-0,021
-512,058	-44,745	-0,106	0,039
-511,043	228,566	-0,036	0,043
-510,029	-200,000	0,012	0,081
-509,014	-200,000	0,011	0,152
-507,999	-148,325	-0,069	-0,004
-506,985	115,926	0,072	0,064
-505,970	-93,400	0,070	0,014
-504,956	78,804	-0,100	-0,078
-503,941	-200,000	0,011	-0,127
-502,926	190,502	-0,053	0,058
-501,912	-67,670	0,046	0,013
-500,897	-200,000	-0,004	-0,098
-499,883	800,000	-0,064	-0,156
-498,868	-200,000	-0,007	-0,131
-497,853	-138,228	0,070	-0,006
-496,839	-42,557	-0,035	0,013
-495,824	-200,000	0,001	0,110
-494,810	-200,000	0,024	0,187
-493,795	800,000	-0,030	-0,076
-492,781	678,925	-0,034	-0,064
-491,766	-53,549	0,056	0,018
-490,751	568,459	0,077	-0,137
-489,737	-57,753	0,084	-0,027
-488,722	427,504	0,039	-0,062
-487,708	800,000	-0,046	0,141
-486,693	800,000	-0,037	0,090
-485,678	39,216	0,079	0,051
-484,664	50,229	-0,054	0,037
-483,649	-49,370	-0,104	0,036
-482,635	-200,000	0,001	0,023
-481,620	800,000	-0,032	-0,075
-480,605	54,244	-0,026	-0,018
-479,591	-11,887	0,116	0,055
-478,576	332,045	-0,085	0,119
-477,562	432,128	0,070	-0,111
-476,547	333,926	-0,104	-0,148
-475,532	58,753	-0,027	0,019
-474,518	-24,364	0,028	0,012
-473,503	-39,154	0,165	0,063
-472,489	-200,000	-0,003	-0,121
-471,474	15,060	0,029	-0,017
-470,459	755,811	0,013	-0,026
-469,445	232,625	0,037	-0,044
-468,430	318,962	0,048	-0,067
-467,416	-85,003	-0,040	-0,009
-466,401	-200,000	0,028	0,097
-465,386	800,000	0,050	0,103
-464,372	-200,000	-0,007	0,134
-463,357	31,224	0,066	-0,041
-462,343	88,079	0,032	0,026
-461,328	-74,604	0,111	0,029
-460,313	151,401	0,029	0,029
-459,299	-200,000	-0,008	0,198
-458,284	-35,534	0,065	0,026
-457,270	-200,000	0,013	-0,119
-456,255	-200,000	-0,047	-0,197
-455,241	-200,000	-0,039	-0,199
-454,226	150,371	-0,077	-0,076
-453,211	-30,832	0,068	-0,028
-452,197	-73,153	0,131	-0,035
-451,182	-200,000	-0,007	0,032
-450,168	-200,000	-0,019	0,093
-449,153	-37,175	-0,044	-0,017
-448,138	-29,803	-0,076	0,031
-447,124	800,000	-0,095	-0,216
-446,109	52,201	-0,090	-0,062
-445,095	133,488	-0,044	0,042
-444,080	-200,000	0,002	-0,048
-443,065	-200,000	-0,002	0,078
-442,051	-0,721	0,026	-0,013
-441,036	323,562	-0,066	-0,091
-440,022	-200,000	0,002	0,016
-439,007	52,056	0,038	-0,026
-437,992	-47,439	0,015	0,005
-436,978	-116,415	0,016	-0,002
-435,963	-93,544	0,092	0,018
-434,949	-200,000	-0,011	0,040
-433,934	147,683	-0,017	0,017
-432,919	800,000	0,074	-0,151
-431,905	175,936	0,055	0,058
-430,890	581,245	-0,054	0,096
-429,876	-91,973	0,120	0,025
-428,861	-55,573	0,187	0,061
-427,846	800,000	0,030	-0,080
-426,832	5,664	-0,091	0,049
-425,817	62,633	-0,013	0,010
-424,803	800,000	-0,019	-0,041
-423,788	778,928	0,112	0,224
-422,773	-197,396	0,011	0,000
-421,759	89,138	0,039	0,032
-420,744	12,366	-0,081	0,045
-419,730	800,000	-0,070	-0,145
-418,715	-200,000	-0,020	-0,146
-417,701	166,079	-0,123	-0,126
-416,686	-200,000	-0,023	-0,087
-415,671	-37,443	0,153	0,059
-414,657	519,520	-0,071	0,122
-413,642	-200,000	-0,022	0,124
-412,628	-200,000	0,007	-0,166
-411,613	126,398	-0,127	-0,116
-410,598	51,581	-0,091	0,063
-409,584	291,979	0,036	0,048
-408,569	409,117	-0,016	-0,025
-407,555	37,594	0,093	0,060
-406,540	116,812	0,037	0,033
-405,525	-122,805	-0,084	0,010
-404,511	800,000	0,052	-0,124
-403,496	800,000	-0,052	-0,126
-402,482	800,000	-0,028	0,087
-401,467	-126,366	0,081	0,009
-400,452	-97,695	0,100	0,019
-399,438	651,321	0,031	0,058
-398,423	14,555	0,028	-0,016
-397,409	-200,000	-0,011	-0,048
-396,394	-200,000	-0,003	0,018
-395,379	-44,223	-0,044	-0,016
-394,365	-200,000	0,016	-0,069
-393,350	-98,403	0,092	-0,017
-392,336	800,000	0,062	0,162
-391,321	-154,602	-0,051	0,002
-390,306	-104,619	-0,090	0,015
-389,292	-93,838	-0,004	-0,001
-388,277	77,779	-0,072	0,056
-387,263	640,923	-0,060	0,111
-386,248	-200,000	-0,017	-0,119
-385,233	800,000	0,031	0,089
-384,219	438,179	-0,060	-0,096
-383,204	463,703	0,043	0,070
-382,190	189,310	-0,114	0,124
-381,175	140,961	0,087	0,083
-380,160	-200,000	0,033	0,146
-379,146	-200,000	0,010	-0,065
-378,131	-200,000	0,008	0,057
-377,117	-159,548	-0,119	-0,005
-376,102	-200,000	0,002	0,022
-375,088	-200,000	-0,010	0,052
-374,073	-200,000	-0,005	0,083
-373,058	-137,986	-0,075	-0,006
-372,044	-131,078	-0,097	-0,009
-371,029	739,210	0,023	-0,046
-370,015	-95,383	-0,118	0,023
-369,000	29,569	0,039	-0,024
-367,985	-200,000	-0,008	-0,070
-366,971	-200,000	-0,030	-0,126
-365,956	142,403	0,021	-0,020
-364,942	-49,381	-0,099	0,034
-363,927	328,277	-0,051	0,071
-362,912	-2,500	0,154	0,078
-361,898	202,994	-0,102	-0,115
-360,883	-200,000	0,021	0,191
-359,869	-51,905	0,069	-0,023
-358,854	122,316	-0,116	-0,105
-357,839	4,173	-0,036	0,019
-356,825	88,485	0,013	-0,010
-355,810	-200,000	-0,007	0,083
-354,796	-200,000	0,023	0,123
-353,781	-200,000	-0,020	-0,082
-352,766	-0,967	-0,058	0,030
-351,752	136,293	0,088	-0,083
-350,737	-99,823	0,142	0,026
-349,723	-164,904	0,161	-0,005
-348,708	-200,000	0,019	-0,159
-347,693	181,476	0,014	-0,015
-346,679	-53,747	0,046	-0,015
-345,664	-91,623	-0,102	-0,021
-344,650	-80,082	-0,021	-0,005
-343,635	-76,034	0,023	0,006
-342,620	224,063	-0,033	0,039
-341,606	800,000	-0,041	0,119
-340,591	169,808	0,044	-0,046
-339,577	-95,166	-0,035	-0,007
-338,562	226,816	0,056	-0,066
-337,548	85,997	0,103	-0,082
-336,533	-200,000	-0,000	-0,094
-335,518	93,349	0,080	-0,065
-334,504	-200,000	-0,018	-0,086
-333,489	800,000	0,040	-0,100
-332,475	-200,000	0,005	0,101
-331,460	316,902	-0,027	0,037
-330,445	216,340	0,060	0,069
-329,431	256,120	-0,081	0,100
-328,416	-86,139	0,158	0,035
-327,402	59,376	0,065	0,047
-326,387	126,658	0,059	-0,054
-325,372	-61,149	-0,067	-0,020
-324,358	490,364	-0,043	0,071
-323,343	-200,000	0,001	0,062
-322,329	800,000	0,034	0,100
-321,314	-191,334	0,113	-0,001
-320,299	-200,000	-0,032	-0,130
-319,285	164,033	-0,047	0,048
-318,270	-92,844	0,021	-0,004
-317,256	-200,000	0,007	-0,038
-316,241	101,334	0,082	0,069
-315,226	-200,000	0,020	-0,069
-314,212	-93,407	0,064	-0,013
-313,197	-40,838	-0,166	0,062
-312,183	496,435	0,091	0,152
-311,168	-200,000	-0,001	-0,067
-310,153	-32,879	-0,108	-0,043
-309,139	-0,908	-0,028	0,014
-308,124	-200,000	-0,004	0,022
-307,110	-113,910	-0,031	0,004
-306,095	-104,224	-0,119	-0,020
-305,080	186,381	0,058	-0,062
-304,066	-81,583	0,025	-0,006
-303,051	478,854	-0,037	-0,061
-302,037	-52,704	0,035	0,012
-301,022	-200,000	-0,018	-0,085
-300,008	108,000	0,061	-0,053
-298,993	-102,390	0,053	0,009
-297,978	800,000	-0,071	-0,143
-296,964	-73,387	0,129	0,034
-295,949	208,591	-0,104	0,117
-294,935	-18,942	-0,095	-0,042
-293,920	800,000	-0,039	-0,125
-292,905	-200,000	0,032	-0,116
-291,891	38,937	-0,159	-0,102
-290,876	-164,837	-0,097	-0,003
-289,862	-20,285	0,044	-0,020
-288,847	-89,548	-0,214	-0,045
-287,832	800,000	-0,021	-0,047
-286,818	199,495	-0,054	0,060
-285,803	-200,000	0,031	0,105
-284,789	-200,000	0,007	0,029
-283,774	-200,000	-0,023	0,104
-282,759	-37,229	-0,170	-0,065
-281,745	452,626	0,107	0,172
-280,730	-200,000	-0,009	-0,054
-279,716	-200,000	0,008	0,077
-278,701	-89,955	-0,042	-0,009
-277,686	-105,257	0,077	-0,013
-276,672	-11,073	0,055	0,026
-275,657	800,000	0,025	-0,062
-274,643	45,171	0,085	-0,057
-273,628	800,000	0,022	-0,053
-272,613	284,230	0,070	-0,091
-271,599	-200,000	-0,005	-0,053
-270,584	120,600	0,103	0,092
-269,570	33,802	-0,046	0,029
-268,555	122,176	0,046	0,042
-267,540	-91,351	0,025	-0,005
-266,526	621,004	0,086	0,156
-265,511	-171,625	0,113	0,003
-264,497	-0,200	-0,098	-0,050
-263,482	-70,279	0,181	0,049
-262,467	-200,000	0,029	-0,109
-261,453	-200,000	0,002	0,098
-260,438	-78,092	-0,079	0,019
-259,424	541,295	-0,033	-0,057
-258,409	-95,402	-0,033	0,006
-257,395	49,929	0,074	0,051
-256,380	-83,082	-0,085	-0,020
-255,365	109,220	-0,027	0,023
-254,351	-129,043	-0,056	-0,006
-253,336	165,671	-0,028	0,029
-252,322	93,687	-0,094	-0,077
-251,307	298,740	0,054	0,072
-250,292	-50,901	0,064	0,021
-249,278	300,129	-0,055	0,073
-248,263	-35,407	0,201	0,079
-247,249	-88,054	-0,155	0,033
-246,234	800,000	-0,022	0,046
-245,219	-200,000	0,028	-0,169
-244,205	-112,572	-0,118	0,017
-243,190	-2,759	0,099	-0,050
-242,176	800,000	-0,068	-0,194
-241,161	-91,049	0,041	-0,008
-240,146	-186,167	-0,121	0,001
-239,132	800,000	-0,031	0,086
-238,117	-84,280	-0,133	-0,030
-237,103	34,544	0,072	-0,045
-236,088	-200,000	0,031	-0,134
-235,073	-82,347	0,121	-0,028
-234,059	185,251	-0,048	0,051
-233,044	355,986	0,034	0,049
-232,030	669,070	-0,051	0,096
-231,015	32,441	-0,112	0,070
-230,000	208,311	0,051	-0,057
-228,986	172,937	-0,114	0,119
-227,971	-127,956	-0,105	0,011
-226,957	-14,759	0,042	0,019
-225,942	35,392	0,104	0,066
-224,927	-153,941	0,066	-0,003
-223,913	-200,000	0,000	0,150
-222,898	54,510	0,108	-0,075
-221,884	6,156	0,108	0,058
-220,869	-105,476	-0,052	-0,008
-219,855	800,000	0,041	-0,092
-218,840	-103,653	0,060	0,010
-217,825	-200,000	0,006	0,140
-216,811	-23,056	-0,064	-0,027
-215,796	800,000	-0,043	0,113
-214,782	-200,000	-0,003	-0,060
-213,767	-62,111	0,044	0,013
-212,752	-124,674	0,062	-0,007
-211,738	70,631	0,106	-0,079
-210,723	800,000	-0,035	-0,091
-209,709	242,904	0,053	-0,064
-208,694	-21,192	-0,159	-0,070
-207,679	-24,669	-0,137	-0,059
-206,665	661,053	0,018	-0,034
-205,650	-200,000	-0,016	-0,075
-204,636	531,666	-0,032	0,054
-203,621	284,050	-0,060	0,078
-202,606	294,491	0,098	0,129
-201,592	0,543	-0,062	0,032
-200,577	-200,000	-0,013	0,099
-199,563	507,614	0,074	0,124
-198,548	-70,693	0,092	0,025
-197,533	164,021	-0,075	0,077
-196,519	238,736	0,057	0,069
-195,504	48,738	-0,046	-0,031
-194,490	-73,128	0,050	-0,013
-193,475	251,998	-0,013	-0,016
-192,460	-200,000	-0,031	0,110
-191,446	-124,349	0,106	-0,012
-190,431	-200,000	0,013	0,074
-189,417	269,749	-0,068	0,087
-188,402	-53,873	-0,096	0,031
-187,387	559,017	0,021	-0,037
-186,373	-19,936	0,066	-0,029
-185,358	-91,597	0,109	0,022
-184,344	225,075	-0,075	-0,088
-183,329	-200,000	-0,001	0,087
-182,315	772,639	-0,026	0,052
-181,300	-200,000	0,016	0,073
-180,285	-131,516	-0,030	-0,003
-179,271	41,357	0,082	-0,053
-178,256	106,347	-0,117	0,100
-177,242	575,020	0,032	0,057
-176,227	-145,019	0,056	0,004
-175,212	-124,242	0,053	-0,006
-174,198	89,145	-0,060	-0,048
-173,183	367,531	-0,069	-0,100
-172,169	194,167	0,040	-0,044
-171,154	196,488	0,074	-0,081
-170,139	26,774	0,007	-0,004
-169,125	770,798	-0,097	0,191
-168,110	-44,304	0,075	-0,027
-167,096	464,541	0,074	-0,119
-166,081	800,000	-0,040	0,097
-165,066	-116,782	0,100	0,013
-164,052	141,948	0,040	-0,038
-163,037	49,927	-0,134	-0,091
-162,023	35,638	0,037	0,023
-161,008	24,239	-0,026	-0,015
-159,993	580,080	-0,019	0,034
-158,979	-200,000	0,003	-0,009
-157,964	-22,648	0,079	0,034
-156,950	-127,903	0,073	0,008
-155,935	-153,346	-0,115	0,006
-154,920	-200,000	-0,011	0,128
-153,906	800,000	-0,012	-0,038
-152,891	118,882	-0,031	0,028
-151,877	331,649	-0,033	-0,047
-150,862	800,000	-0,034	-0,078
-149,847	800,000	-0,045	-0,111
-148,833	-58,232	-0,132	0,041
-147,818	169,484	-0,035	-0,036
-146,804	-128,397	-0,091	-0,009
-145,789	-165,947	0,142	-0,004
-144,775	23,278	-0,013	-0,008
-143,760	-106,823	-0,214	0,034
-142,745	156,252	0,014	0,014
-141,731	-123,702	0,060	0,007
-140,716	-200,000	0,006	-0,071
-139,702	-200,000	-0,029	0,130
-138,687	20,086	0,145	-0,084
-137,672	107,753	-0,077	0,066
-136,658	157,683	0,061	-0,060
-135,643	429,875	-0,021	0,032
-134,629	800,000	0,035	-0,076
-133,614	309,910	-0,087	0,117
-132,599	-89,200	-0,044	0,009
-131,585	178,636	0,046	0,048
-130,570	-200,000	0,020	-0,131
-129,556	-200,000	0,011	-0,101
-128,541	0,374	0,058	-0,030
-127,526	-200,000	0,001	0,039
-126,512	800,000	0,015	-0,031
-125,497	39,753	0,142	0,091
-124,483	-33,489	0,084	-0,033
-123,468	83,393	0,063	-0,050
-122,453	253,271	0,036	0,045
-121,439	535,995	-0,111	-0,190
-120,424	25,387	0,133	-0,079
-119,410	173,954	-0,033	0,034
-118,395	-104,487	-0,051	0,008
-117,380	-96,763	0,093	-0,017
-116,366	-88,168	0,093	-0,020
-115,351	-200,000	0,001	0,014
-114,337	4,582	-0,039	-0,020
-113,322	800,000	-0,032	-0,073
-112,307	-200,000	0,004	0,153
-111,293	-9,384	-0,114	0,054
-110,278	-105,245	0,110	0,018
-109,264	30,846	0,049	0,030
-108,249	-200,000	-0,003	0,023
-107,234	30,307	-0,117	-0,071
-106,220	26,304	-0,133	-0,079
-105,205	265,744	-0,030	-0,037
-104,191	29,524	-0,092	-0,056
-103,176	21,253	0,127	0,074
-102,162	90,787	0,040	0,032
-101,147	800,000	-0,014	0,043
-100,132	-64,984	-0,113	0,033
-99,118	-39,630	-0,095	0,035
-98,103	800,000	0,072	0,152
-97,089	61,185	0,063	0,045
-96,074	800,000	-0,012	-0,038
-95,059	-171,008	-0,102	-0,002
-94,045	-183,834	-0,060	0,001
-93,030	-200,000	0,015	0,094
-92,016	-200,000	-0,016	-0,083
-91,001	-195,076	-0,130	0,001
-89,986	800,000	-0,042	-0,091
-88,972	130,859	0,035	-0,033
-87,957	800,000	-0,041	-0,104
-86,943	193,025	0,089	-0,097
-85,928	17,577	-0,201	-0,114
-84,913	-200,000	-0,020	0,073
-83,899	-200,000	-0,033	-0,137
-82,884	145,892	0,058	0,056
-81,870	800,000	-0,044	-0,117
-80,855	401,246	-0,041	0,062
-79,840	-200,000	0,014	0,050
-78,826	-200,000	-0,041	-0,166
-77,811	-200,000	0,005	-0,078
-76,797	-94,436	0,044	-0,008
-75,782	-73,698	-0,040	0,010
-74,767	800,000	0,049	-0,141
-73,753	-3,469	-0,092	0,046
-72,738	15,812	-0,072	0,040
-71,724	-200,000	-0,002	-0,020
-70,709	800,000	-0,058	-0,126
-69,694	-200,000	0,003	-0,116
-68,680	447,664	0,011	-0,017
-67,665	235,716	0,029	-0,034
-66,651	60,105	0,033	0,024
-65,636	-200,000	0,005	-0,171
-64,622	-200,000	0,037	-0,126
-63,607	-200,000	-0,017	-0,300
-62,592	-58,781	0,062	-0,019
-61,578	132,695	-0,030	-0,028
-60,563	800,000	0,066	0,136
-59,549	222,281	0,124	0,143
-58,534	15,354	-1,888	-1,059
-57,519	800,000	-0,303	-0,939
-56,505	-200,000	-1,314	-4,789
-55,490	-3,812	0,839	0,416
-54,476	800,000	5,239	12,169
-53,461	-200,000	17,882	288,292
-52,446	800,000	728,280	2226,574
-51,432	534,987	1644,671	2805,582
-50,417	109,177	1635,610	1402,266
-49,403	74,366	1287,304	968,306
-48,388	31,540	1027,047	631,276
-47,373	20,063	988,742	569,959
-46,359	18,287	976,551	557,100
-45,344	15,323	972,509	545,093
-44,330	15,477	971,264	544,876
-43,315	15,035	969,183	542,246
-42,300	14,957	968,160	541,401
-41,286	14,983	967,092	540,865
-40,271	14,952	966,227	540,258
-39,257	15,048	965,071	539,905
-38,242	14,958	964,588	539,318
-37,227	15,017	963,445	538,851
-36,213	14,979	962,636	538,254
-35,198	14,950	961,621	537,572
-34,184	14,984	961,133	537,385
-33,169	14,944	960,155	536,689
-32,154	14,985	959,267	536,304
-31,140	14,963	958,218	535,625
-30,125	14,971	957,500	535,227
-29,111	15,059	956,643	535,010
-28,096	14,989	956,208	534,521
-27,082	15,008	955,331	534,072
-26,067	14,992	954,541	533,558
-25,052	14,982	953,864	533,124
-24,038	14,992	953,230	532,783
-23,023	14,926	952,505	532,145
-22,009	15,024	951,819	532,052
-20,994	15,030	951,306	531,764
-19,979	14,996	950,684	531,288
-18,965	14,993	949,911	530,825
-17,950	14,942	949,546	530,436
-16,936	14,990	948,766	530,132
-15,921	14,901	948,117	529,467
-14,906	14,856	947,356	528,876
-13,892	14,900	946,687	528,622
-12,877	14,879	946,078	528,195
-11,863	14,809	945,506	527,633
-10,848	14,854	944,823	527,372
-9,833	15,027	944,419	527,673
-8,819	14,996	943,813	527,218
-7,804	14,830	943,276	526,370
-6,790	14,883	942,622	526,151
-5,775	14,896	942,212	525,945
-4,760	14,948	941,255	525,554
-3,746	14,915	940,758	525,149
-2,731	14,771	940,125	524,321
-1,717	14,685	939,584	523,729
-0,702	14,733	938,675	523,352
0,313	14,521	938,201	523,209
1,327	17,670	935,998	531,833
2,342	26,590	792,658	473,950
3,356	23,322	457,417	268,501
4,371	-3,383	313,139	155,577
5,386	-7,212	295,053	142,724
6,400	-9,226	289,102	137,845
7,415	-9,583	286,447	136,217
8,429	-9,866	285,006	135,244
9,444	-10,013	284,148	134,682
10,459	-10,016	283,610	134,412
11,473	-9,912	282,769	134,101
12,488	-10,034	282,324	133,761
13,502	-9,893	281,798	133,635
14,517	-10,035	281,396	133,297
15,531	-10,165	280,870	132,911
16,546	-10,031	280,381	132,796
17,561	-10,083	280,052	132,579
18,575	-10,108	279,640	132,348
19,590	-10,292	279,366	132,031
20,604	-10,181	279,076	131,988
21,619	-10,268	278,798	131,762
22,634	-10,142	278,410	131,687
23,648	-10,327	278,089	131,348
24,663	-10,241	277,644	131,207
25,677	-10,354	277,513	131,026
26,692	-10,180	277,131	130,999
27,707	-10,343	276,950	130,748
28,721	-10,181	276,714	130,778
29,736	-10,329	276,518	130,534
30,750	-10,278	276,128	130,386
31,765	-10,472	275,872	130,071
32,780	-10,344	275,704	130,100
33,794	-10,207	275,436	130,091
34,809	-10,339	275,166	129,829
35,823	-10,376	274,948	129,679
36,838	-10,416	274,666	129,497
37,853	-10,287	274,330	129,448
38,867	-10,382	274,145	129,260
39,882	-10,337	273,814	129,135
40,896	-10,326	273,723	129,091
41,911	-10,432	273,424	128,840
42,926	-10,455	273,165	128,684
43,940	-10,332	272,908	128,665
44,955	-10,489	272,636	128,381
45,969	-10,470	272,452	128,300
46,984	-10,417	272,252	128,244
47,999	-10,668	271,970	127,867
49,013	-10,655	271,664	127,723
50,028	-10,698	271,361	127,530
51,042	-10,807	271,218	127,350
52,057	-10,716	270,893	127,270
53,071	-10,914	270,889	127,074
54,086	-10,737	270,599	127,091
55,101	-10,455	270,462	127,274
56,115	-10,445	270,310	127,201
57,130	-10,157	270,168	127,387
58,144	-10,000	269,781	127,338
59,159	-9,905	269,509	127,285
60,174	-9,929	269,376	127,189
61,188	-10,238	269,331	126,873
62,203	-10,242	268,964	126,686
63,217	-10,512	268,840	126,369
64,232	-10,095	268,392	126,527
65,247	-10,097	268,359	126,499
66,261	-10,198	268,057	126,253
67,276	-10,132	267,752	126,158
68,290	-10,398	267,665	125,864
69,305	-10,359	267,232	125,685
70,320	-10,542	267,342	125,559
71,334	-10,206	267,001	125,693
72,349	-10,094	266,723	125,652
73,363	-9,984	266,614	125,689
74,378	-10,212	266,237	125,293
75,393	-10,164	266,026	125,226
76,407	-10,246	265,831	125,050
77,422	-10,253	265,622	124,934
78,436	-10,073	265,422	124,991
79,451	-10,118	265,383	124,921
80,466	-10,142	264,892	124,657
81,480	-10,257	264,633	124,421
82,495	-10,463	264,540	124,181
83,509	-10,152	264,320	124,346
84,524	-10,412	264,251	124,069
85,539	-10,461	263,981	123,887
86,553	-10,591	263,743	123,648
87,568	-10,396	263,521	123,707
88,582	-10,495	263,240	123,476
89,597	-10,265	263,190	123,647
90,611	-10,210	262,806	123,504
91,626	-10,240	262,700	123,416
92,641	-10,263	262,554	123,316
93,655	-10,195	262,299	123,247
94,670	-10,248	262,110	123,099
95,684	-10,256	261,924	122,994
96,699	-10,153	261,939	123,082
97,714	-10,133	261,546	122,904
98,728	-10,285	261,478	122,726
99,743	-10,488	261,147	122,380
100,757	-10,383	260,882	122,338
101,772	-10,328	260,745	122,311
102,787	-10,239	260,494	122,262
103,801	-10,136	260,333	122,265
104,816	-10,245	260,214	122,103
105,830	-9,970	259,916	122,194
106,845	-10,212	259,844	121,936
107,860	-10,122	259,535	121,860
108,874	-9,902	259,319	121,941
109,889	-10,231	259,193	121,581
110,903	-10,027	259,002	121,661
111,918	-10,100	258,817	121,499
112,933	-10,088	258,631	121,411
113,947	-10,050	258,425	121,337
114,962	-9,886	258,103	121,318
115,976	-10,106	257,957	121,046
116,991	-10,073	257,813	120,997
118,006	-10,203	257,705	120,821
119,020	-9,993	257,490	120,893
120,035	-10,179	257,416	120,686
121,049	-10,074	257,339	120,730
122,064	-10,061	257,121	120,629
123,079	-9,995	256,728	120,490
124,093	-10,327	256,768	120,210
125,108	-10,358	256,338	119,972
126,122	-10,392	256,063	119,802
127,137	-10,620	255,903	119,520
128,151	-10,459	255,835	119,617
129,166	-10,093	255,534	119,782
130,181	-10,476	255,425	119,389
131,195	-10,216	255,153	119,475
132,210	-10,147	254,987	119,447
133,224	-10,039	254,740	119,413
134,239	-9,992	254,655	119,403
135,254	-9,947	254,634	119,422
136,268	-10,137	254,379	119,128
137,283	-10,163	254,066	118,948
138,297	-10,305	253,757	118,671
139,312	-10,361	253,531	118,507
140,327	-10,273	253,514	118,564
141,341	-10,035	253,469	118,736
142,356	-9,917	253,202	118,702
143,370	-9,791	252,965	118,687
144,385	-10,012	252,891	118,453
145,400	-9,951	252,579	118,349
146,414	-9,665	252,282	118,442
147,429	-9,861	252,251	118,250
148,443	-10,175	252,245	117,969
149,458	-10,155	251,985	117,855
150,473	-10,025	251,890	117,910
151,487	-10,229	251,663	117,620
152,502	-9,912	251,381	117,746
153,516	-9,982	251,058	117,525
154,531	-9,930	250,915	117,492
155,546	-9,823	250,792	117,514
156,560	-10,044	250,630	117,241
157,575	-9,916	250,433	117,247
158,589	-9,916	250,334	117,190
159,604	-9,882	250,031	117,067
160,619	-9,932	249,893	116,949
161,633	-9,986	249,823	116,861
162,648	-9,857	249,604	116,856
163,662	-10,000	249,466	116,661
164,677	-10,095	249,296	116,491
165,692	-10,020	249,087	116,446
166,706	-9,821	248,927	116,528
167,721	-9,831	248,759	116,431
168,735	-9,740	248,724	116,480
169,750	-9,961	248,476	116,169
170,764	-9,633	248,361	116,379
171,779	-9,743	248,108	116,158
172,794	-9,668	248,051	116,183
173,808	-9,682	247,736	116,014
174,823	-10,262	247,500	115,410
175,837	-10,461	247,386	115,180
176,852	-10,063	247,268	115,446
177,867	-9,771	247,094	115,598
178,881	-9,719	246,985	115,580
179,896	-9,807	246,648	115,339
180,910	-9,812	246,642	115,321
181,925	-10,026	246,485	115,061
182,940	-9,663	246,288	115,259
183,954	-9,894	246,195	115,014
184,969	-9,864	245,806	114,847
185,983	-9,733	245,699	114,895
186,998	-9,604	245,717	115,000
188,013	-9,683	245,494	114,820
189,027	-9,622	245,276	114,758
190,042	-9,831	245,055	114,472
191,056	-9,752	244,987	114,495
192,071	-9,987	244,859	114,231
193,086	-9,674	244,646	114,379
194,100	-9,707	244,517	114,282
195,115	-9,535	244,229	114,278
196,129	-9,656	244,081	114,099
197,144	-9,698	243,850	113,947
198,159	-9,782	243,713	113,804
199,173	-9,705	243,707	113,854
200,188	-9,709	243,443	113,717
201,202	-9,813	243,065	113,446
202,217	-10,428	242,794	112,808
203,232	-10,313	242,684	112,839
204,246	-9,795	242,789	113,301
205,261	-9,014	242,704	113,888
206,275	-9,476	242,285	113,305
207,290	-7,904	243,107	114,962
208,304	-3,042	244,635	119,660
209,319	0,267	245,390	122,733
210,334	0,741	245,253	123,042
211,348	0,703	245,251	122,999
212,363	0,774	245,181	123,011
213,377	1,387	245,102	123,462
214,392	1,313	245,076	123,377
215,407	1,213	244,802	123,147
216,421	1,326	244,772	123,213
217,436	1,233	244,712	123,096
218,450	1,241	244,481	122,975
219,465	1,334	244,202	122,900
220,480	1,133	244,128	122,687
221,494	1,243	243,983	122,694
222,509	1,420	243,898	122,783
223,523	1,387	243,697	122,644
224,538	1,049	243,370	122,195
225,553	1,029	243,295	122,131
226,567	1,234	243,142	122,209
227,582	1,440	242,862	122,224
228,596	1,421	242,839	122,186
229,611	1,224	242,689	121,941
230,626	1,170	242,569	121,825
231,640	1,171	242,212	121,636
232,655	1,673	242,200	122,024
233,669	1,233	241,938	121,527
234,684	1,125	241,865	121,392
235,699	1,696	241,708	121,762
236,713	1,707	241,572	121,692
237,728	1,241	241,276	121,157
238,742	1,310	241,183	121,155
239,757	1,182	241,085	120,992
240,772	1,107	240,806	120,782
241,786	1,309	240,557	120,808
242,801	1,124	240,361	120,551
243,815	0,756	240,222	120,176
244,830	1,179	240,162	120,473
245,844	1,383	239,922	120,505
246,859	1,341	239,880	120,440
247,874	1,257	239,772	120,308
248,888	1,267	239,556	120,197
249,903	1,512	239,441	120,323
250,917	1,520	239,371	120,284
251,932	1,688	239,220	120,330
252,947	1,356	239,027	119,959
253,961	1,085	238,625	119,532
254,976	1,222	238,761	119,698
255,990	1,416	238,557	119,739
257,005	1,011	238,336	119,296
258,020	1,137	238,163	119,299
259,034	0,994	238,034	119,111
260,049	1,145	237,969	119,187
261,063	0,980	237,830	118,976
262,078	0,946	237,716	118,882
263,093	1,242	237,586	119,040
264,107	1,581	237,281	119,143
265,122	1,218	237,131	118,772
266,136	1,367	237,102	118,864
267,151	1,515	237,008	118,922
268,166	1,393	236,730	118,676
269,180	0,942	236,495	118,194
270,195	1,770	236,519	118,845
271,209	1,763	236,411	118,775
272,224	1,241	236,103	118,200
273,239	1,177	235,873	118,025
274,253	1,272	235,834	118,069
275,268	1,251	235,627	117,938
276,282	1,297	235,535	117,918
277,297	1,349	235,222	117,791
278,312	1,190	235,111	117,601
279,326	1,485	234,979	117,754
280,341	1,275	234,912	117,547
281,355	1,361	234,710	117,502
282,370	1,358	234,625	117,447
283,384	1,516	234,447	117,470
284,399	1,204	234,259	117,123
285,414	1,199	234,009	116,984
286,428	1,230	233,983	116,984
287,443	1,416	233,892	117,072
288,457	1,704	233,814	117,246
289,472	1,568	233,635	117,041
290,487	1,785	233,233	116,997
291,501	1,032	233,235	116,405
292,516	0,806	232,888	116,048
293,530	1,027	232,864	116,195
294,545	1,220	232,814	116,310
295,560	1,409	232,668	116,371
296,574	1,150	232,372	116,014
297,589	1,111	232,219	115,897
298,603	1,355	232,187	116,059
299,618	1,678	232,010	116,207
300,633	1,464	231,943	115,999
301,647	1,577	231,858	116,034
302,662	1,876	231,751	116,199
303,676	1,855	231,776	116,185
304,691	2,023	231,413	116,121
305,706	1,830	231,338	115,926
306,720	1,836	231,052	115,777
307,735	1,555	230,884	115,467
308,749	1,642	230,945	115,554
309,764	1,338	230,479	115,078
310,779	1,291	230,347	114,967
311,793	1,085	230,200	114,727
312,808	1,110	230,059	114,665
313,822	1,010	229,843	114,471
314,837	1,188	229,779	114,564
315,852	1,134	229,659	114,453
316,866	1,399	229,434	114,531
317,881	1,803	229,340	114,780
318,895	2,036	229,370	114,962
319,910	2,147	229,214	114,958
320,925	1,538	228,904	114,331
321,939	1,434	228,801	114,191
322,954	1,753	228,826	114,435
323,968	1,557	228,709	114,218
324,983	1,541	228,371	114,027
325,997	1,906	228,350	114,282
327,012	1,506	228,184	113,887
328,027	1,455	227,911	113,702
329,041	1,642	227,848	113,801
330,056	2,162	227,911	114,214
331,070	2,108	227,722	114,068
332,085	1,885	227,552	113,805
333,100	1,724	227,451	113,624
334,114	1,925	227,224	113,651
335,129	1,962	227,084	113,598
336,143	2,040	226,808	113,509
337,158	1,721	226,751	113,231
338,173	2,134	226,526	113,417
339,187	1,910	226,585	113,270
340,202	1,806	226,361	113,070
341,216	1,939	226,239	113,098
342,231	1,732	226,123	112,876
343,246	1,826	225,787	112,767
344,260	1,589	225,792	112,583
345,275	1,803	225,648	112,661
346,289	1,980	225,552	112,735
347,304	2,061	225,337	112,677
348,319	1,938	225,308	112,562
349,333	1,759	225,049	112,289
350,348	1,653	224,833	112,093
351,362	1,567	224,753	111,980
352,377	1,626	224,638	111,956
353,392	1,360	224,419	111,640
354,406	1,692	224,236	111,784
355,421	196,442	1320,379	1397,876
356,435	157,450	1453,917	1397,865
