DTS Sentinel unit serial number:	SN410029Multiplexer serial number:	ORYXHardware model number:	OX2-SRSoftware version number:	ORYX F/W v4,00 Oryx Data Collector v3.7.2.0data status	okinstallation	B5 Nyhavnadifferential loss correction	single-endedforward channel	channel 2reverse channel	N/Adate	2023/12/12time	16:57:13forward acquisition time	300,00reverse acquisition time	0,00gamma	499,1914k internal	0,3156k external	0,3156temperature offset calibration	1,0000default loss term (dB/km)	0,3820temperature slope calibration	1,0000multiplexer offset coefficient	1,0000multiplexer slope coefficient	1,0000fibre end	0,00T internal ref (°C)	15,77T ext. ref 1 (°C)	-0,80T ext. ref 2 (°C)	-1,10length (m)	temperature (°C)	Stokes	anti-Stokes-744,400	-17,511	0,249	0,115
-743,385	-173,694	-0,195	0,004
-742,371	206,310	0,162	0,186
-741,356	7,777	-0,348	0,191
-740,342	265,000	0,108	0,139
-739,327	-13,264	-0,267	0,127
-738,312	50,208	-0,028	0,020
-737,298	-190,246	-0,357	-0,003
-736,283	-89,441	0,098	0,021
-735,269	77,103	-0,184	0,144
-734,254	-43,990	-0,048	-0,018
-733,239	-161,066	-0,459	-0,017
-732,225	-135,621	0,212	0,018
-731,210	-7,814	0,052	0,026
-730,196	-200,000	-0,030	-0,160
-729,181	-200,000	-0,004	-0,036
-728,167	-200,000	-0,022	0,085
-727,152	348,832	-0,097	0,142
-726,137	237,604	0,060	-0,073
-725,123	800,000	-0,079	-0,164
-724,108	-200,000	-0,000	-0,160
-723,094	-200,000	-0,017	-0,064
-722,079	-73,874	0,086	0,023
-721,064	238,167	-0,116	-0,142
-720,050	267,446	0,041	-0,053
-719,035	564,278	0,025	-0,045
-718,021	-200,000	-0,001	-0,020
-717,006	800,000	0,040	-0,084
-715,991	800,000	0,009	0,025
-714,977	100,112	-0,049	-0,042
-713,962	-168,828	-0,066	0,002
-712,948	520,908	-0,059	0,103
-711,933	800,000	-0,018	-0,037
-710,918	800,000	0,020	-0,042
-709,904	-200,000	-0,032	-0,131
-708,889	-200,000	0,004	0,075
-707,875	-200,000	-0,020	-0,113
-706,860	-200,000	-0,008	0,044
-705,845	-99,323	-0,077	0,014
-704,831	568,983	0,033	0,060
-703,816	-8,000	0,032	-0,016
-702,802	-200,000	-0,018	-0,067
-701,787	-200,000	-0,010	-0,071
-700,772	-200,000	0,019	0,065
-699,758	-200,000	0,015	0,069
-698,743	-200,000	-0,009	-0,047
-697,729	-152,232	0,079	0,004
-696,714	54,839	0,081	0,057
-695,699	221,879	-0,031	-0,037
-694,685	21,599	-0,126	0,075
-693,670	-200,000	-0,010	-0,084
-692,656	-200,000	0,003	0,075
-691,641	459,154	0,012	0,020
-690,627	-200,000	-0,004	0,014
-689,612	12,172	-0,030	0,017
-688,597	94,950	0,056	0,047
-687,583	71,263	0,089	-0,068
-686,568	-200,000	0,001	0,003
-685,554	-200,000	0,017	-0,143
-684,539	144,964	0,073	-0,072
-683,524	-12,102	0,130	-0,062
-682,510	800,000	0,053	0,129
-681,495	-200,000	-0,032	0,149
-680,481	17,789	-0,027	0,016
-679,466	138,630	-0,089	-0,086
-678,451	574,165	-0,082	-0,148
-677,437	-200,000	-0,004	0,059
-676,422	768,372	0,073	0,148
-675,408	-68,708	-0,092	-0,026
-674,393	-200,000	0,035	-0,114
-673,378	-200,000	0,028	-0,133
-672,364	100,923	0,088	-0,075
-671,349	66,293	-0,072	0,054
-670,335	-200,000	-0,014	-0,107
-669,320	50,641	0,013	0,009
-668,305	47,584	0,064	-0,044
-667,291	-14,497	0,090	-0,043
-666,276	-200,000	0,006	-0,088
-665,262	311,784	0,050	-0,070
-664,247	800,000	0,050	0,138
-663,232	-103,502	-0,111	-0,019
-662,218	59,931	0,034	0,025
-661,203	324,131	-0,045	0,064
-660,189	-200,000	-0,005	0,100
-659,174	-11,928	-0,060	-0,029
-658,159	-200,000	0,009	-0,133
-657,145	-200,000	-0,005	-0,057
-656,130	742,206	0,031	0,061
-655,116	-200,000	0,006	-0,022
-654,101	-200,000	-0,008	0,041
-653,086	800,000	-0,023	-0,054
-652,072	-36,633	-0,135	0,053
-651,057	-75,634	-0,082	0,021
-650,043	188,796	-0,140	-0,155
-649,028	-200,000	0,010	-0,052
-648,014	800,000	0,033	-0,095
-646,999	-49,747	-0,158	-0,055
-645,984	4,873	0,051	-0,028
-644,970	13,988	-0,101	0,057
-643,955	-200,000	-0,044	-0,179
-642,941	-200,000	-0,007	-0,031
-641,926	-200,000	-0,015	-0,085
-640,911	387,729	-0,018	0,027
-639,897	127,553	0,085	-0,079
-638,882	-200,000	0,024	0,148
-637,868	7,027	-0,054	0,030
-636,853	-200,000	-0,044	-0,195
-635,838	234,370	-0,040	-0,049
-634,824	-200,000	-0,027	-0,194
-633,809	-28,552	0,038	-0,016
-632,795	16,127	0,050	0,029
-631,780	230,851	-0,095	-0,114
-630,765	346,304	0,043	0,062
-629,751	-200,000	-0,020	-0,159
-628,736	-64,571	-0,108	-0,032
-627,722	800,000	-0,040	0,106
-626,707	-200,000	-0,004	-0,055
-625,692	69,970	-0,085	0,064
-624,678	39,381	0,047	0,031
-623,663	319,383	0,045	-0,063
-622,649	-18,928	-0,116	-0,053
-621,634	800,000	0,020	0,055
-620,619	-200,000	-0,011	-0,193
-619,605	657,790	-0,013	-0,025
-618,590	-153,368	0,102	0,005
-617,576	-200,000	-0,020	0,139
-616,561	191,321	0,029	-0,032
-615,546	800,000	0,015	0,031
-614,532	226,018	-0,009	0,011
-613,517	515,280	-0,049	0,084
-612,503	13,930	-0,033	-0,019
-611,488	-87,825	0,063	0,014
-610,474	-116,488	-0,116	-0,015
-609,459	-21,466	-0,127	0,057
-608,444	767,464	0,072	0,144
-607,430	800,000	-0,047	-0,097
-606,415	61,496	-0,112	-0,082
-605,401	-134,197	0,123	0,011
-604,386	64,048	-0,104	0,077
-603,371	261,767	0,086	0,109
-602,357	85,743	0,110	0,089
-601,342	800,000	0,036	0,078
-600,328	593,784	0,019	-0,035
-599,313	-200,000	-0,004	-0,050
-598,298	-81,360	-0,016	0,004
-597,284	469,398	0,038	0,063
-596,269	-200,000	-0,006	0,044
-595,255	-200,000	0,040	0,142
-594,240	333,793	-0,047	-0,066
-593,225	681,120	-0,046	-0,089
-592,211	-200,000	-0,002	0,122
-591,196	-66,455	-0,170	0,049
-590,182	-53,374	0,081	-0,027
-589,167	800,000	0,066	0,140
-588,152	-58,517	-0,121	0,038
-587,138	46,437	-0,043	-0,029
-586,123	68,931	0,060	-0,045
-585,109	44,201	-0,096	-0,064
-584,094	-96,707	-0,079	0,015
-583,079	-7,214	-0,048	-0,024
-582,065	294,724	0,050	0,068
-581,050	98,236	-0,125	0,105
-580,036	-200,000	0,002	-0,032
-579,021	-8,961	0,053	0,026
-578,006	800,000	0,013	-0,040
-576,992	115,493	-0,035	0,031
-575,977	24,078	0,087	0,053
-574,963	-200,000	0,022	0,117
-573,948	388,218	0,052	-0,078
-572,934	800,000	0,027	0,075
-571,919	-200,000	-0,016	-0,124
-570,904	-25,985	0,056	0,024
-569,890	5,190	0,114	-0,062
-568,875	-106,432	-0,068	-0,011
-567,861	-29,713	-0,032	-0,013
-566,846	-3,912	0,160	0,081
-565,831	-200,000	-0,001	0,012
-564,817	-114,039	0,033	0,005
-563,802	260,544	-0,078	-0,099
-562,788	-200,000	-0,009	-0,172
-561,773	130,354	0,117	0,110
-560,758	-200,000	0,022	-0,180
-559,744	-200,000	-0,031	-0,156
-558,729	-83,124	-0,139	0,033
-557,715	-200,000	-0,009	-0,081
-556,700	800,000	-0,074	-0,160
-555,685	180,778	-0,093	-0,100
-554,671	-35,020	-0,084	-0,033
-553,656	-18,377	0,066	0,030
-552,642	595,452	-0,053	0,096
-551,627	-95,694	-0,078	0,015
-550,612	22,971	0,088	0,053
-549,598	210,104	0,066	-0,076
-548,583	-0,379	-0,048	0,025
-547,569	-200,000	0,001	0,017
-546,554	71,747	0,075	0,057
-545,539	540,716	-0,076	0,133
-544,525	21,516	-0,052	-0,031
-543,510	111,011	0,090	0,079
-542,496	-115,382	-0,065	-0,009
-541,481	135,538	-0,060	-0,057
-540,466	-200,000	-0,021	0,140
-539,452	800,000	0,076	0,222
-538,437	800,000	0,036	0,110
-537,423	-200,000	0,011	0,065
-536,408	800,000	-0,067	-0,150
-535,393	451,453	-0,095	0,154
-534,379	800,000	0,038	0,105
-533,364	49,229	-0,086	0,059
-532,350	430,598	-0,034	0,053
-531,335	800,000	0,015	0,038
-530,321	363,565	0,074	0,109
-529,306	89,170	-0,120	-0,098
-528,291	35,117	0,047	-0,030
-527,277	275,363	0,063	0,082
-526,262	800,000	-0,055	-0,165
-525,248	-67,880	0,074	-0,021
-524,233	77,373	0,070	0,055
-523,218	38,677	0,027	0,018
-522,204	-200,000	-0,004	0,089
-521,189	800,000	0,037	-0,118
-520,175	-134,171	0,046	-0,004
-519,160	-113,370	0,060	0,009
-518,145	356,750	-0,064	0,093
-517,131	-82,372	0,029	0,007
-516,116	371,231	0,065	0,097
-515,102	216,422	-0,053	-0,062
-514,087	20,423	-0,036	0,021
-513,072	108,855	0,063	0,055
-512,058	-128,442	0,066	0,007
-511,043	452,156	-0,070	-0,113
-510,029	-200,000	-0,000	0,004
-509,014	-32,720	-0,086	0,035
-507,999	395,026	-0,029	0,044
-506,985	49,898	0,063	-0,043
-505,970	289,236	-0,073	-0,096
-504,956	200,304	0,018	-0,020
-503,941	-200,000	-0,018	0,093
-502,926	348,586	0,075	-0,109
-501,912	97,663	-0,027	0,022
-500,897	-200,000	-0,008	0,103
-499,883	-30,771	-0,148	0,061
-498,868	800,000	-0,042	-0,092
-497,853	-58,818	-0,077	-0,024
-496,839	-104,212	0,095	-0,016
-495,824	-200,000	0,008	-0,037
-494,810	-80,720	0,060	0,014
-493,795	157,409	-0,062	-0,063
-492,781	4,518	-0,060	-0,032
-491,766	-15,073	0,040	-0,019
-490,751	-61,825	0,065	-0,020
-489,737	102,896	0,044	0,038
-488,722	-72,540	-0,153	-0,041
-487,708	667,260	0,052	0,099
-486,693	133,864	0,077	0,073
-485,678	-200,000	0,015	-0,189
-484,664	335,540	0,106	-0,151
-483,649	-200,000	0,009	-0,135
-482,635	-17,871	-0,158	-0,072
-481,620	88,932	0,111	0,090
-480,605	800,000	0,027	-0,056
-479,591	-200,000	-0,038	0,130
-478,576	-120,256	0,108	0,013
-477,562	-200,000	0,000	0,026
-476,547	-57,113	-0,065	0,021
-475,532	-120,767	-0,027	0,003
-474,518	-176,847	-0,057	-0,001
-473,503	-200,000	0,008	0,084
-472,489	-77,887	-0,011	0,003
-471,474	-200,000	0,030	-0,113
-470,459	800,000	-0,076	-0,158
-469,445	-110,257	-0,061	0,009
-468,430	139,037	-0,047	-0,045
-467,416	-44,261	0,021	0,008
-466,401	492,375	0,032	0,054
-465,386	-88,451	-0,142	0,031
-464,372	420,499	0,073	-0,115
-463,357	-200,000	-0,011	0,044
-462,343	753,561	-0,053	0,106
-461,328	-200,000	0,008	-0,127
-460,313	48,744	0,155	-0,106
-459,299	289,855	-0,035	0,046
-458,284	65,261	0,033	-0,024
-457,270	-20,963	-0,140	-0,062
-456,255	-47,316	-0,094	-0,033
-455,241	40,397	-0,083	0,055
-454,226	147,606	-0,093	-0,091
-453,211	31,236	-0,079	-0,049
-452,197	800,000	0,011	-0,025
-451,182	800,000	0,023	0,056
-450,168	43,028	-0,085	-0,056
-449,153	-127,394	0,125	-0,013
-448,138	55,001	-0,070	-0,050
-447,124	-115,572	-0,084	0,011
-446,109	-200,000	-0,008	0,112
-445,095	-155,929	0,207	-0,009
-444,080	-56,027	0,054	-0,017
-443,065	1,767	-0,075	-0,039
-442,051	345,443	0,082	0,118
-441,036	18,080	-0,197	-0,114
-440,022	800,000	0,017	-0,052
-439,007	-200,000	-0,042	-0,137
-437,992	-64,387	0,071	-0,021
-436,978	241,209	0,070	0,085
-435,963	35,028	0,059	0,037
-434,949	-200,000	0,019	-0,150
-433,934	238,233	0,077	0,093
-432,919	800,000	-0,034	0,074
-431,905	800,000	-0,017	-0,044
-430,890	-200,000	0,015	-0,071
-429,876	25,861	-0,068	-0,041
-428,861	191,227	-0,137	0,151
-427,846	681,701	-0,020	-0,039
-426,832	-200,000	-0,037	-0,159
-425,817	-12,336	-0,144	0,068
-424,803	237,529	-0,076	-0,092
-423,788	587,095	0,026	0,046
-422,773	8,065	0,037	0,020
-421,759	236,872	0,044	-0,054
-420,744	-200,000	0,023	-0,142
-419,730	800,000	-0,044	-0,096
-418,715	800,000	0,063	-0,145
-417,701	-200,000	-0,012	-0,057
-416,686	224,026	0,160	0,188
-415,671	800,000	0,060	0,156
-414,657	-148,169	0,099	-0,006
-413,642	-128,790	-0,087	-0,009
-412,628	-80,897	-0,130	-0,031
-411,613	56,599	-0,068	-0,048
-410,598	-200,000	-0,015	-0,206
-409,584	800,000	0,046	-0,105
-408,569	800,000	0,034	-0,102
-407,555	800,000	0,019	0,040
-406,540	-200,000	-0,020	0,095
-405,525	42,846	0,084	-0,056
-404,511	84,546	-0,066	-0,053
-403,496	-200,000	0,007	-0,041
-402,482	-124,736	0,045	-0,005
-401,467	800,000	-0,092	0,188
-400,452	-200,000	0,021	0,114
-399,438	-200,000	-0,001	0,104
-398,423	-60,241	0,005	-0,001
-397,409	-200,000	-0,007	-0,124
-396,394	19,030	0,056	-0,033
-395,379	-200,000	-0,040	0,151
-394,365	-200,000	-0,012	0,041
-393,350	618,107	0,035	-0,064
-392,336	319,786	0,050	0,069
-391,321	352,426	0,035	-0,051
-390,306	100,022	-0,077	-0,065
-389,292	381,419	-0,058	0,087
-388,277	30,020	-0,112	-0,069
-387,263	217,829	0,088	0,102
-386,248	-92,680	0,138	-0,028
-385,233	537,168	0,021	-0,036
-384,219	145,933	-0,025	0,024
-383,204	-200,000	-0,005	-0,100
-382,190	-76,307	-0,095	-0,024
-381,175	-200,000	0,028	0,128
-380,160	217,953	0,018	0,020
-379,146	-2,861	-0,076	0,038
-378,131	70,021	-0,058	-0,043
-377,117	728,603	0,049	-0,096
-376,102	527,642	0,058	-0,101
-375,088	49,677	-0,106	0,072
-374,073	135,906	0,089	-0,084
-373,058	-71,862	-0,086	-0,023
-372,044	800,000	-0,051	0,109
-371,029	-94,829	-0,135	-0,026
-370,015	338,737	-0,013	-0,018
-369,000	-200,000	-0,001	-0,142
-367,985	-200,000	0,008	0,056
-366,971	223,504	0,052	-0,061
-365,956	800,000	-0,037	-0,109
-364,942	-95,736	-0,122	0,023
-363,927	-74,030	0,070	-0,018
-362,912	123,206	-0,118	0,107
-361,898	-126,569	-0,118	-0,013
-360,883	-43,226	0,144	-0,053
-359,869	-200,000	0,004	-0,079
-358,854	489,267	0,078	0,131
-357,839	31,793	-0,052	-0,033
-356,825	-13,744	-0,134	0,063
-355,810	63,531	0,038	-0,027
-354,796	-200,000	-0,012	0,133
-353,781	-109,433	0,021	0,003
-352,766	133,324	0,099	-0,093
-351,752	224,095	0,081	-0,095
-350,737	800,000	-0,022	-0,056
-349,723	715,056	-0,065	-0,125
-348,708	71,803	0,043	-0,032
-347,693	800,000	0,022	0,059
-346,679	-200,000	-0,060	-0,192
-345,664	208,187	0,042	-0,047
-344,650	-87,148	-0,132	0,029
-343,635	-119,895	0,048	-0,006
-342,620	44,458	0,069	0,046
-341,606	78,108	0,090	0,069
-340,591	53,041	0,110	-0,077
-339,577	-106,931	-0,071	-0,011
-338,562	64,080	-0,038	-0,028
-337,548	-200,000	0,013	-0,173
-336,533	350,860	0,043	0,061
-335,518	50,900	-0,152	0,104
-334,504	-101,572	0,117	-0,020
-333,489	144,456	-0,081	0,078
-332,475	268,984	-0,048	0,061
-331,460	-200,000	0,003	-0,103
-330,445	51,727	0,021	-0,015
-329,431	-200,000	-0,028	-0,118
-328,416	84,176	0,013	0,011
-327,402	5,186	0,167	0,089
-326,387	188,124	0,037	0,040
-325,372	800,000	-0,035	0,101
-324,358	83,441	-0,040	0,032
-323,343	-200,000	0,008	-0,108
-322,329	134,221	0,116	0,109
-321,314	87,746	0,040	0,032
-320,299	-101,532	0,100	0,018
-319,285	-79,873	0,058	-0,014
-318,270	159,288	-0,083	0,084
-317,256	-28,913	-0,107	0,044
-316,241	-74,420	-0,041	0,011
-315,226	-175,917	0,137	0,003
-314,212	-92,906	0,125	0,025
-313,197	163,597	-0,024	-0,024
-312,183	-30,028	-0,098	-0,040
-311,168	-200,000	0,004	0,052
-310,153	-3,489	0,056	-0,028
-309,139	800,000	-0,054	-0,152
-308,124	-124,989	0,110	-0,012
-307,110	126,369	0,069	0,063
-306,095	75,662	0,067	0,051
-305,080	124,224	0,057	0,052
-304,066	-200,000	-0,001	-0,024
-303,051	52,094	0,066	-0,045
-302,037	80,125	0,031	-0,024
-301,022	-41,564	0,108	-0,040
-300,008	-200,000	0,017	0,099
-298,993	199,957	0,062	-0,069
-297,978	724,624	-0,064	-0,125
-296,964	471,598	-0,041	-0,068
-295,949	492,201	-0,077	0,128
-294,935	-200,000	0,017	0,105
-293,920	98,025	0,071	0,059
-292,905	-83,527	0,153	-0,035
-291,891	126,822	-0,030	0,027
-290,876	800,000	-0,060	0,127
-289,862	-59,315	0,148	-0,046
-288,847	-200,000	0,011	-0,079
-287,832	-31,641	-0,033	0,013
-286,818	-200,000	0,014	0,188
-285,803	-200,000	-0,005	0,091
-284,789	347,157	0,068	0,097
-283,774	2,444	0,038	-0,020
-282,759	41,199	0,085	-0,055
-281,745	-91,824	0,137	0,028
-280,730	-200,000	-0,014	-0,075
-279,716	-200,000	-0,005	0,266
-278,701	22,663	0,090	-0,053
-277,686	-129,385	0,226	-0,022
-276,672	-121,795	0,159	0,019
-275,657	28,460	-0,103	0,063
-274,643	-80,126	0,015	0,004
-273,628	161,126	0,012	-0,013
-272,613	434,541	0,066	-0,105
-271,599	100,004	-0,029	0,024
-270,584	-200,000	0,024	-0,112
-269,570	-200,000	-0,011	0,075
-268,555	12,467	-0,117	0,065
-267,540	272,676	-0,087	0,112
-266,526	-48,826	0,188	-0,065
-265,511	67,879	-0,082	-0,061
-264,497	56,524	0,027	0,019
-263,482	-64,520	0,045	-0,013
-262,467	-200,000	0,001	0,144
-261,453	-200,000	-0,037	0,186
-260,438	140,141	0,047	-0,045
-259,424	-144,396	-0,218	0,014
-258,409	133,574	0,132	0,124
-257,395	800,000	0,030	0,084
-256,380	-200,000	0,000	-0,039
-255,365	800,000	0,024	0,075
-254,351	706,495	-0,096	0,185
-253,336	432,751	0,042	-0,067
-252,322	-200,000	-0,013	-0,049
-251,307	-200,000	0,007	-0,146
-250,292	-200,000	-0,004	0,108
-249,278	281,140	-0,068	-0,088
-248,263	53,705	-0,024	0,017
-247,249	-137,978	0,094	-0,008
-246,234	79,817	-0,101	-0,079
-245,219	800,000	-0,028	-0,063
-244,205	-200,000	0,006	0,068
-243,190	-153,323	0,167	-0,008
-242,176	-200,000	-0,038	0,188
-241,161	-200,000	-0,008	-0,088
-240,146	-167,879	0,105	-0,003
-239,132	-59,718	-0,127	-0,039
-238,117	129,952	0,088	0,081
-237,103	-200,000	-0,007	0,036
-236,088	512,776	0,039	0,065
-235,073	277,139	0,047	-0,061
-234,059	-200,000	0,013	0,114
-233,044	800,000	-0,053	0,111
-232,030	-200,000	0,020	0,073
-231,015	235,769	0,111	-0,133
-230,000	166,683	-0,119	-0,122
-228,986	424,244	0,039	0,062
-227,971	-200,000	-0,012	0,066
-226,957	-195,153	0,133	-0,001
-225,942	-116,600	0,061	0,008
-224,927	800,000	-0,021	-0,053
-223,913	-51,564	-0,137	-0,046
-222,898	44,966	-0,088	0,058
-221,884	76,685	-0,137	-0,105
-220,869	-113,563	0,203	0,028
-219,855	800,000	-0,033	0,074
-218,840	-58,163	0,059	0,019
-217,825	800,000	0,056	0,119
-216,811	67,712	-0,135	0,099
-215,796	-200,000	-0,002	-0,130
-214,782	-200,000	-0,005	0,030
-213,767	-83,088	0,063	-0,015
-212,752	140,811	-0,028	0,026
-211,738	-62,235	0,110	0,033
-210,723	324,488	0,125	0,173
-209,709	774,029	-0,042	-0,083
-208,694	-200,000	-0,015	-0,064
-207,679	-200,000	0,020	-0,176
-206,665	-200,000	-0,001	-0,022
-205,650	6,382	-0,023	-0,012
-204,636	800,000	-0,043	0,090
-203,621	-71,672	-0,019	0,005
-202,606	306,145	-0,038	0,052
-201,592	-200,000	-0,005	-0,070
-200,577	32,217	-0,103	-0,064
-199,563	718,995	0,057	-0,109
-198,548	50,931	-0,084	0,057
-197,533	156,335	0,062	0,062
-196,519	800,000	0,065	-0,186
-195,504	261,413	-0,040	-0,050
-194,490	-42,366	-0,105	0,038
-193,475	-200,000	-0,005	0,071
-192,460	107,660	0,017	0,015
-191,446	-200,000	0,009	0,091
-190,431	-200,000	0,001	0,142
-189,417	748,875	-0,005	0,009
-188,402	-32,650	-0,080	0,032
-187,387	-8,158	-0,046	-0,022
-186,373	-200,000	-0,001	0,099
-185,358	145,214	-0,084	-0,081
-184,344	190,301	0,087	0,094
-183,329	111,408	-0,086	0,075
-182,315	-138,470	-0,046	0,004
-181,300	573,790	-0,075	0,133
-180,285	800,000	0,036	-0,077
-179,271	189,978	0,056	-0,061
-178,256	76,633	-0,006	-0,004
-177,242	-117,995	0,136	-0,017
-176,227	800,000	-0,042	-0,085
-175,212	-200,000	0,038	0,121
-174,198	800,000	0,003	-0,008
-173,183	238,232	-0,046	0,055
-172,169	384,062	0,055	-0,081
-171,154	365,652	0,031	-0,046
-170,139	120,942	0,040	0,036
-169,125	148,534	0,033	0,032
-168,110	-200,000	0,009	0,030
-167,096	43,064	-0,106	0,070
-166,081	277,199	-0,017	-0,022
-165,066	-200,000	0,026	0,095
-164,052	455,776	-0,053	-0,085
-163,037	252,359	0,123	0,152
-162,023	-10,663	0,057	0,027
-161,008	28,916	0,110	0,067
-159,993	-45,141	0,071	-0,025
-158,979	62,071	-0,115	-0,082
-157,964	111,991	-0,032	0,028
-156,950	-7,220	-0,063	-0,031
-155,935	583,736	0,025	-0,045
-154,920	800,000	-0,027	-0,072
-153,906	-200,000	0,002	-0,069
-152,891	-97,710	0,060	-0,011
-151,877	104,720	0,034	-0,029
-150,862	106,212	-0,073	-0,062
-149,847	262,317	0,040	-0,051
-148,833	99,098	-0,050	0,042
-147,818	281,328	0,056	0,073
-146,804	-19,327	0,062	-0,028
-145,789	-48,281	0,063	-0,022
-144,775	52,955	-0,011	0,008
-143,760	-13,194	-0,040	-0,019
-142,745	518,049	-0,121	-0,204
-141,731	341,937	0,088	0,124
-140,716	800,000	0,047	0,134
-139,702	800,000	-0,020	0,044
-138,687	-56,007	-0,110	-0,035
-137,672	245,093	0,055	-0,067
-136,658	524,238	-0,054	-0,092
-135,643	89,320	-0,089	0,071
-134,629	180,836	0,060	-0,063
-133,614	115,782	0,038	-0,033
-132,599	250,963	0,094	0,116
-131,585	176,081	-0,105	0,110
-130,570	800,000	-0,022	-0,052
-129,556	-25,186	0,081	-0,034
-128,541	148,358	-0,050	0,048
-127,526	-120,559	0,096	-0,012
-126,512	-61,761	-0,085	-0,025
-125,497	222,208	0,018	0,021
-124,483	-130,032	-0,039	-0,004
-123,468	578,133	-0,050	-0,089
-122,453	-49,565	-0,109	-0,037
-121,439	374,486	0,057	-0,084
-120,424	-200,000	0,006	-0,113
-119,410	606,002	0,040	-0,072
-118,395	54,833	0,069	0,048
-117,380	718,242	-0,085	-0,163
-116,366	24,868	-0,175	-0,104
-115,351	-73,767	0,016	-0,004
-114,337	113,175	0,074	-0,065
-113,322	-200,000	0,031	0,114
-112,307	743,736	0,061	0,119
-111,293	254,757	0,005	0,007
-110,278	27,939	0,080	0,048
-109,264	192,405	-0,046	-0,050
-108,249	474,458	0,024	-0,038
-107,234	-89,129	-0,201	-0,042
-106,220	170,968	-0,059	-0,061
-105,205	800,000	-0,012	-0,035
-104,191	125,998	0,058	0,053
-103,176	158,205	-0,033	-0,032
-102,162	-200,000	-0,023	0,109
-101,147	-200,000	0,036	-0,116
-100,132	-43,578	-0,123	0,044
-99,118	-200,000	0,011	-0,046
-98,103	133,893	-0,043	0,040
-97,089	-200,000	-0,003	0,067
-96,074	-72,390	-0,054	0,014
-95,059	170,469	0,037	0,038
-94,045	-76,192	0,195	-0,049
-93,030	-200,000	-0,024	0,081
-92,016	-200,000	0,003	0,120
-91,001	-58,343	0,063	0,020
-89,986	800,000	0,058	0,148
-88,972	113,789	-0,106	0,092
-87,957	54,319	-0,041	0,028
-86,943	143,778	-0,040	-0,039
-85,928	292,874	-0,063	0,083
-84,913	637,080	0,045	-0,083
-83,899	-200,000	-0,007	0,038
-82,884	800,000	0,038	0,086
-81,870	-200,000	0,025	0,153
-80,855	291,866	0,059	-0,077
-79,840	48,361	-0,145	-0,098
-78,826	-200,000	0,026	-0,112
-77,811	730,606	0,042	0,081
-76,797	182,930	0,078	-0,082
-75,782	37,862	0,068	0,043
-74,767	-69,689	0,053	-0,015
-73,753	800,000	-0,051	0,148
-72,738	-5,812	0,072	0,035
-71,724	654,234	-0,060	-0,112
-70,709	-200,000	0,008	-0,032
-69,694	-200,000	-0,011	-0,069
-68,680	-200,000	0,011	-0,119
-67,665	-113,631	0,104	-0,014
-66,651	-107,488	-0,040	0,006
-65,636	-59,511	0,099	0,030
-64,622	106,839	-0,058	-0,050
-63,607	-200,000	-0,013	-0,074
-62,592	-200,000	-0,008	0,060
-61,578	800,000	-0,016	-0,041
-60,563	-61,833	0,085	0,025
-59,549	476,723	0,116	0,190
-58,534	-19,549	-1,815	-0,804
-57,519	800,000	-0,431	-0,901
-56,505	-200,000	-1,208	-4,893
-55,490	7,821	0,812	0,435
-54,476	800,000	5,247	12,082
-53,461	-200,000	17,375	284,778
-52,446	800,000	723,712	2228,666
-51,432	542,747	1639,542	2818,590
-50,417	111,685	1631,200	1413,076
-49,403	75,999	1285,911	975,604
-48,388	32,697	1028,326	637,186
-47,373	20,221	990,219	572,406
-46,359	18,715	978,248	560,521
-45,344	16,077	974,504	549,710
-44,330	16,248	973,019	549,412
-43,315	15,811	971,157	546,909
-42,300	15,794	970,090	546,230
-41,286	15,821	968,908	545,632
-40,271	15,789	967,999	544,995
-39,257	15,820	967,006	544,514
-38,242	15,834	966,057	544,003
-37,227	15,768	965,514	543,461
-36,213	15,790	964,723	543,068
-35,198	15,782	963,920	542,568
-34,184	15,820	962,987	542,145
-33,169	15,823	961,973	541,560
-32,154	15,839	960,972	541,029
-31,140	15,747	960,190	540,270
-30,125	15,833	959,498	540,135
-29,111	15,778	958,634	539,450
-28,096	15,800	958,096	539,197
-27,082	15,846	957,351	538,904
-26,067	15,793	956,502	538,234
-25,052	15,809	955,806	537,872
-24,038	15,790	955,128	537,408
-23,023	15,761	954,583	536,989
-22,009	15,769	953,869	536,590
-20,994	15,864	953,195	536,494
-19,979	15,849	952,640	536,112
-18,965	15,852	951,867	535,667
-17,950	15,794	951,519	535,263
-16,936	15,785	950,762	534,787
-15,921	15,795	949,911	534,320
-14,906	15,694	949,405	533,691
-13,892	15,706	948,740	533,334
-12,877	15,689	948,158	532,934
-11,863	15,678	947,513	532,513
-10,848	15,702	946,834	532,188
-9,833	15,779	946,431	532,184
-8,819	15,843	945,643	531,924
-7,804	15,658	945,339	531,143
-6,790	15,683	944,628	530,803
-5,775	15,733	943,972	530,571
-4,760	15,732	943,366	530,206
-3,746	15,727	942,775	529,837
-2,731	15,627	941,841	528,974
-1,717	15,561	941,440	528,519
-0,702	15,599	940,712	528,209
0,313	15,306	940,066	527,719
1,327	18,494	937,856	536,483
2,342	27,295	795,291	478,280
3,356	24,037	459,204	271,152
4,371	-2,905	313,996	156,807
5,386	-7,292	295,785	143,265
6,400	-9,110	289,727	138,516
7,415	-9,622	287,492	136,932
8,429	-9,612	285,715	136,083
9,444	-9,740	284,982	135,597
10,459	-9,701	284,255	135,277
11,473	-9,591	283,716	135,115
12,488	-9,644	283,219	134,815
13,502	-9,604	282,637	134,565
14,517	-9,648	282,380	134,388
15,531	-9,685	281,958	134,139
16,546	-9,413	281,353	134,101
17,561	-9,628	281,295	133,855
18,575	-9,672	280,825	133,577
19,590	-9,672	280,439	133,381
20,604	-9,569	280,216	133,362
21,619	-9,561	279,782	133,152
22,634	-9,425	279,333	133,056
23,648	-9,611	279,091	132,751
24,663	-9,583	278,910	132,680
25,677	-9,614	278,658	132,519
26,692	-9,587	278,233	132,330
27,707	-9,586	278,017	132,217
28,721	-9,474	277,829	132,222
29,736	-9,665	277,477	131,862
30,750	-9,622	277,208	131,763
31,765	-9,625	277,155	131,723
32,780	-9,538	276,693	131,574
33,794	-9,568	276,488	131,436
34,809	-9,511	276,165	131,325
35,823	-9,595	276,045	131,177
36,838	-9,667	275,864	131,011
37,853	-9,555	275,430	130,899
38,867	-9,669	275,400	130,766
39,882	-9,665	275,045	130,589
40,896	-9,652	274,808	130,478
41,911	-9,679	274,729	130,403
42,926	-9,803	274,356	130,098
43,940	-9,692	274,044	130,042
44,955	-9,668	273,632	129,857
45,969	-9,751	273,592	129,750
46,984	-9,791	273,453	129,635
47,999	-9,937	273,016	129,280
49,013	-10,196	272,757	128,905
50,028	-10,114	272,503	128,849
51,042	-10,373	272,389	128,544
52,057	-10,268	272,095	128,491
53,071	-10,250	271,928	128,418
54,086	-10,198	271,853	128,419
55,101	-10,070	271,617	128,415
56,115	-9,711	271,434	128,648
57,130	-9,506	271,290	128,758
58,144	-9,498	270,990	128,612
59,159	-9,497	270,810	128,516
60,174	-9,650	270,595	128,261
61,188	-9,508	270,279	128,231
62,203	-9,450	270,095	128,185
63,217	-9,459	269,921	128,084
64,232	-9,562	269,705	127,875
65,247	-9,434	269,402	127,838
66,261	-9,493	269,246	127,698
67,276	-9,626	268,961	127,430
68,290	-9,901	268,711	127,048
69,305	-9,871	268,524	126,976
70,320	-9,919	268,379	126,852
71,334	-9,823	268,072	126,783
72,349	-9,650	267,985	126,889
73,363	-9,589	267,938	126,911
74,378	-9,536	267,474	126,728
75,393	-9,390	267,301	126,767
76,407	-9,458	267,037	126,569
77,422	-9,463	266,954	126,514
78,436	-9,469	266,676	126,365
79,451	-9,548	266,507	126,201
80,466	-9,503	266,186	126,080
81,480	-9,658	265,952	125,817
82,495	-9,723	265,706	125,631
83,509	-9,834	265,695	125,514
84,524	-9,645	265,388	125,528
85,539	-9,807	264,958	125,168
86,553	-9,766	264,802	125,120
87,568	-9,605	264,661	125,187
88,582	-9,876	264,561	124,885
89,597	-9,622	264,304	124,981
90,611	-9,515	264,177	125,006
91,626	-9,561	264,013	124,875
92,641	-9,601	263,961	124,804
93,655	-9,571	263,527	124,614
94,670	-9,573	263,294	124,492
95,684	-9,538	263,194	124,465
96,699	-9,588	262,992	124,313
97,714	-9,617	262,686	124,131
98,728	-9,765	262,492	123,896
99,743	-9,764	262,264	123,779
100,757	-9,820	262,130	123,655
101,772	-9,674	261,900	123,665
102,787	-9,660	261,669	123,557
103,801	-9,638	261,489	123,481
104,816	-9,313	261,331	123,684
105,830	-9,393	261,206	123,543
106,845	-9,487	261,022	123,361
107,860	-9,577	260,838	123,184
108,874	-9,581	260,602	123,058
109,889	-9,613	260,365	122,906
110,903	-9,667	260,161	122,751
111,918	-9,813	259,983	122,528
112,933	-9,646	259,876	122,614
113,947	-9,654	259,682	122,504
114,962	-9,513	259,403	122,486
115,976	-9,582	259,360	122,394
116,991	-9,644	259,170	122,238
118,006	-9,509	258,970	122,252
119,020	-9,413	258,785	122,238
120,035	-9,558	258,726	122,072
121,049	-9,650	258,669	121,954
122,064	-9,461	258,305	121,937
123,079	-9,545	258,195	121,800
124,093	-9,499	257,875	121,679
125,108	-9,617	257,517	121,396
126,122	-9,921	257,334	121,034
127,137	-9,820	257,037	120,971
128,151	-9,928	257,112	120,902
129,166	-9,868	256,838	120,814
130,181	-9,815	256,707	120,788
131,195	-9,767	256,325	120,639
132,210	-9,602	256,164	120,695
133,224	-9,644	256,030	120,585
134,239	-9,764	256,058	120,484
135,254	-9,628	255,722	120,433
136,268	-9,559	255,329	120,297
137,283	-9,943	255,262	119,923
138,297	-9,787	254,884	119,869
139,312	-9,898	254,778	119,713
140,327	-9,575	254,762	119,973
141,341	-9,468	254,550	119,954
142,356	-9,510	254,589	119,926
143,370	-9,523	254,305	119,770
144,385	-9,586	254,213	119,662
145,400	-9,359	253,836	119,669
146,414	-9,419	253,624	119,507
147,429	-9,357	253,458	119,471
148,443	-9,474	253,398	119,332
149,458	-9,353	253,171	119,318
150,473	-9,260	252,890	119,255
151,487	-9,537	252,839	118,983
152,502	-9,330	252,502	118,990
153,516	-9,369	252,569	118,978
154,531	-9,608	252,351	118,661
155,546	-9,419	252,058	118,674
156,560	-9,454	251,893	118,555
157,575	-9,315	251,567	118,510
158,589	-9,400	251,553	118,421
159,604	-9,486	251,410	118,270
160,619	-9,364	251,117	118,224
161,633	-9,394	250,851	118,064
162,648	-9,282	250,806	118,126
163,662	-9,272	250,711	118,080
164,677	-9,385	250,478	117,863
165,692	-9,417	250,333	117,758
166,706	-9,530	250,249	117,613
167,721	-9,434	250,009	117,570
168,735	-9,332	249,911	117,599
169,750	-9,507	249,799	117,389
170,764	-9,305	249,582	117,447
171,779	-9,243	249,472	117,437
172,794	-9,233	249,271	117,340
173,808	-9,483	249,004	116,993
174,823	-9,862	248,700	116,522
175,837	-9,982	248,555	116,344
176,852	-9,602	248,513	116,632
177,867	-9,300	248,394	116,819
178,881	-9,270	248,151	116,719
179,896	-9,217	248,020	116,691
180,910	-9,339	247,979	116,560
181,925	-9,297	247,774	116,488
182,940	-9,369	247,423	116,253
183,954	-9,154	247,260	116,345
184,969	-9,385	247,170	116,099
185,983	-9,277	247,096	116,144
186,998	-9,359	247,015	116,027
188,013	-9,475	246,615	115,733
189,027	-9,419	246,565	115,745
190,042	-9,438	246,345	115,617
191,056	-9,223	246,231	115,731
192,071	-9,297	245,971	115,537
193,086	-9,332	245,758	115,398
194,100	-9,585	245,749	115,174
195,115	-9,315	245,385	115,216
196,129	-9,305	245,210	115,132
197,144	-9,439	245,008	114,916
198,159	-9,270	244,920	115,004
199,173	-9,384	244,627	114,762
200,188	-9,500	244,479	114,588
201,202	-9,542	244,163	114,395
202,217	-9,841	244,083	114,101
203,232	-9,966	243,762	113,839
204,246	-9,504	243,827	114,238
205,261	-9,219	243,673	114,389
206,275	-10,180	243,172	113,357
207,290	-7,219	244,467	116,385
208,304	0,092	246,885	123,579
209,319	4,032	247,866	127,323
210,334	4,319	247,872	127,553
211,348	4,376	247,680	127,489
212,363	4,653	247,671	127,702
213,377	4,990	247,448	127,854
214,392	4,634	247,340	127,493
215,407	4,505	247,093	127,248
216,421	4,370	246,941	127,047
217,436	4,893	246,829	127,408
218,450	4,796	246,734	127,268
219,465	4,675	246,461	127,017
220,480	4,492	246,243	126,743
221,494	4,253	246,057	126,440
222,509	4,538	245,846	126,554
223,523	4,403	245,692	126,353
224,538	4,132	245,337	125,938
225,553	4,129	245,252	125,880
226,567	4,162	245,213	125,876
227,582	4,358	244,871	125,849
228,596	4,395	244,920	125,893
229,611	3,987	244,515	125,341
230,626	3,920	244,565	125,301
231,640	3,832	244,306	125,086
232,655	4,137	244,255	125,297
233,669	3,940	243,953	124,971
234,684	3,947	243,647	124,808
235,699	4,214	243,819	125,102
236,713	4,486	243,647	125,223
237,728	4,043	243,338	124,694
238,742	3,958	243,169	124,527
239,757	3,926	242,929	124,368
240,772	3,920	242,940	124,358
241,786	3,860	242,841	124,247
242,801	3,797	242,627	124,076
243,815	3,978	242,317	124,053
244,830	4,102	242,432	124,200
245,844	4,216	242,159	124,141
246,859	3,874	241,916	123,730
247,874	4,031	241,865	123,819
248,888	4,104	241,693	123,779
249,903	4,243	241,487	123,774
250,917	4,152	241,439	123,665
251,932	4,456	241,178	123,764
252,947	4,357	241,062	123,614
253,961	4,125	240,831	123,299
254,976	4,070	240,923	123,291
255,990	4,488	240,652	123,476
257,005	3,954	240,334	122,875
258,020	3,840	240,181	122,695
259,034	3,799	240,108	122,614
260,049	4,257	239,898	122,861
261,063	4,176	239,716	122,692
262,078	3,856	239,606	122,370
263,093	4,381	239,465	122,705
264,107	4,405	239,335	122,647
265,122	4,196	239,239	122,421
266,136	4,220	239,080	122,347
267,151	4,320	238,952	122,350
268,166	4,125	238,607	122,008
269,180	4,063	238,449	121,867
270,195	4,617	238,591	122,367
271,209	4,822	238,504	122,474
272,224	4,174	238,189	121,789
273,239	3,971	237,902	121,472
274,253	3,752	237,727	121,199
275,268	4,107	237,673	121,441
276,282	4,030	237,616	121,340
277,297	3,912	237,428	121,140
278,312	4,049	237,197	121,119
279,326	4,132	237,040	121,093
280,341	4,098	236,913	120,991
281,355	4,182	236,760	120,968
282,370	4,285	236,611	120,962
283,384	4,202	236,419	120,788
284,399	3,864	236,355	120,479
285,414	3,863	236,128	120,352
286,428	3,934	236,031	120,347
287,443	3,830	235,857	120,167
288,457	4,203	235,758	120,397
289,472	4,415	235,523	120,432
290,487	4,238	235,373	120,206
291,501	3,922	235,287	119,905
292,516	3,902	234,989	119,727
293,530	3,781	234,898	119,576
294,545	4,089	234,889	119,800
295,560	4,329	234,598	119,828
296,574	3,897	234,392	119,377
297,589	3,870	234,368	119,332
298,603	4,407	234,324	119,717
299,618	4,234	234,122	119,468
300,633	4,094	234,060	119,317
301,647	4,236	233,917	119,344
302,662	4,729	233,801	119,656
303,676	4,632	233,541	119,437
304,691	4,360	233,517	119,204
305,706	4,627	233,413	119,346
306,720	4,327	233,191	118,991
307,735	4,377	233,042	118,942
308,749	4,237	232,780	118,690
309,764	3,932	232,607	118,357
310,779	4,124	232,257	118,316
311,793	3,700	232,222	117,962
312,808	3,806	232,016	117,928
313,822	3,728	232,061	117,880
314,837	3,905	231,638	117,790
315,852	3,796	231,633	117,694
316,866	4,182	231,482	117,903
317,881	4,231	231,340	117,856
318,895	4,028	231,312	117,677
319,910	4,668	231,081	118,038
320,925	4,446	230,932	117,782
321,939	3,996	230,804	117,363
322,954	4,380	230,695	117,589
323,968	4,077	230,550	117,274
324,983	3,962	230,309	117,054
325,997	4,357	230,331	117,355
327,012	4,485	230,239	117,395
328,027	4,224	230,075	117,103
329,041	4,583	229,957	117,305
330,056	4,857	229,937	117,492
331,070	4,874	229,828	117,439
332,085	4,727	229,415	117,106
333,100	4,233	229,343	116,685
334,114	4,352	229,055	116,618
335,129	4,522	228,942	116,678
336,143	4,655	228,995	116,796
337,158	4,746	228,747	116,727
338,173	4,463	228,537	116,397
339,187	4,330	228,315	116,173
340,202	4,412	228,322	116,228
341,216	4,409	228,132	116,118
342,231	4,123	227,826	115,737
343,246	4,115	227,889	115,753
344,260	4,160	227,826	115,744
345,275	4,395	227,619	115,806
346,289	4,536	227,505	115,843
347,304	4,460	227,258	115,649
348,319	4,690	227,186	115,775
349,333	4,394	226,999	115,448
350,348	4,171	226,752	115,146
351,362	4,152	226,683	115,086
352,377	4,073	226,517	114,932
353,392	3,925	226,304	114,704
354,406	4,231	226,120	114,828
355,421	196,011	1321,174	1399,974
356,435	157,146	1454,593	1399,991
