DTS Sentinel unit serial number:	SN410029Multiplexer serial number:	ORYXHardware model number:	OX2-SRSoftware version number:	ORYX F/W v4,00 Oryx Data Collector v3.7.2.0data status	okinstallation	B5 Nyhavnadifferential loss correction	single-endedforward channel	channel 2reverse channel	N/Adate	2023/12/12time	17:32:13forward acquisition time	300,00reverse acquisition time	0,00gamma	499,1914k internal	0,3156k external	0,3156temperature offset calibration	1,0000default loss term (dB/km)	0,3820temperature slope calibration	1,0000multiplexer offset coefficient	1,0000multiplexer slope coefficient	1,0000fibre end	0,00T internal ref (°C)	15,69T ext. ref 1 (°C)	-0,84T ext. ref 2 (°C)	-1,20length (m)	temperature (°C)	Stokes	anti-Stokes-744,400	42,651	0,046	-0,031
-743,385	-133,264	-0,271	0,025
-742,371	56,730	0,073	0,053
-741,356	-163,013	-0,412	0,014
-740,342	-55,423	0,149	-0,049
-739,327	-32,753	-0,297	0,121
-738,312	-177,572	0,059	0,001
-737,298	-38,062	-0,265	-0,103
-736,283	-129,689	0,089	-0,009
-735,269	-139,757	-0,282	-0,022
-734,254	302,422	-0,043	-0,058
-733,239	27,668	-0,402	-0,249
-732,225	86,061	0,247	0,200
-731,210	544,317	0,063	-0,112
-730,196	34,296	-0,039	0,025
-729,181	800,000	-0,075	0,166
-728,167	45,991	-0,037	-0,026
-727,152	-50,896	-0,069	-0,024
-726,137	64,309	0,034	-0,025
-725,123	-154,716	-0,113	-0,005
-724,108	367,976	-0,103	-0,154
-723,094	105,942	-0,045	-0,039
-722,079	-27,787	-0,014	0,006
-721,064	800,000	-0,015	0,031
-720,050	-154,982	-0,099	0,005
-719,035	800,000	-0,033	0,103
-718,021	-200,000	-0,008	-0,063
-717,006	800,000	0,036	0,078
-715,991	-22,254	-0,175	-0,078
-714,977	-134,183	-0,108	0,010
-713,962	226,836	-0,071	0,086
-712,948	-200,000	-0,007	0,117
-711,933	-200,000	-0,010	0,052
-710,918	100,282	0,024	-0,021
-709,904	-183,730	-0,040	0,000
-708,889	-200,000	0,019	0,080
-707,875	340,400	-0,040	0,058
-706,860	571,870	0,133	0,239
-705,845	90,619	0,027	-0,023
-704,831	94,392	0,028	0,023
-703,816	51,677	0,038	-0,027
-702,802	96,544	-0,040	0,033
-701,787	-117,452	-0,155	0,020
-700,772	683,563	0,022	0,042
-699,758	46,691	0,087	0,060
-698,743	378,988	0,080	-0,122
-697,729	-110,345	-0,058	0,009
-696,714	288,069	-0,047	-0,063
-695,699	-39,039	0,077	0,030
-694,685	-200,000	-0,052	-0,230
-693,670	-200,000	-0,000	-0,058
-692,656	-1,019	0,085	-0,044
-691,641	-59,148	-0,076	-0,024
-690,627	-0,739	-0,067	-0,035
-689,612	-32,253	-0,050	0,020
-688,597	-200,000	-0,032	-0,161
-687,583	800,000	-0,023	-0,064
-686,568	-12,530	-0,164	0,079
-685,554	800,000	0,026	-0,084
-684,539	800,000	0,022	-0,046
-683,524	-129,313	-0,067	-0,007
-682,510	-84,378	-0,016	-0,004
-681,495	586,210	0,014	0,025
-680,481	-200,000	-0,010	-0,156
-679,466	800,000	0,061	-0,155
-678,451	-145,238	0,144	-0,009
-677,437	377,978	-0,062	-0,093
-676,422	-77,897	-0,026	-0,007
-675,408	-106,804	0,151	0,024
-674,393	-121,487	0,065	-0,008
-673,378	800,000	-0,066	-0,140
-672,364	-2,119	0,011	0,006
-671,349	-200,000	-0,008	0,050
-670,335	800,000	0,083	-0,194
-669,320	578,344	0,040	-0,072
-668,305	-88,932	0,068	-0,015
-667,291	-109,664	0,107	-0,016
-666,276	-50,998	-0,071	0,024
-665,262	197,034	-0,067	-0,075
-664,247	256,542	-0,072	-0,091
-663,232	305,601	-0,044	-0,061
-662,218	-68,419	-0,100	0,028
-661,203	182,970	0,068	0,074
-660,189	-141,871	-0,077	0,006
-659,174	22,162	0,038	-0,023
-658,159	-200,000	-0,017	-0,088
-657,145	183,514	-0,056	-0,061
-656,130	800,000	-0,055	-0,144
-655,116	69,126	0,042	0,031
-654,101	518,824	0,064	0,111
-653,086	-130,096	0,095	0,009
-652,072	408,826	0,033	0,052
-651,057	800,000	-0,053	-0,110
-650,043	-200,000	0,035	-0,122
-649,028	684,265	-0,029	-0,056
-648,014	253,942	0,064	0,081
-646,999	-200,000	0,025	-0,090
-645,984	-200,000	-0,003	0,098
-644,970	800,000	-0,062	-0,137
-643,955	-88,689	-0,064	0,014
-642,941	-27,249	-0,029	0,012
-641,926	-200,000	-0,046	0,208
-640,911	723,233	0,076	-0,149
-639,897	243,342	0,057	0,070
-638,882	-200,000	-0,007	0,125
-637,868	-141,751	0,053	0,004
-636,853	12,748	-0,131	-0,074
-635,838	-31,676	-0,092	-0,038
-634,824	-200,000	-0,016	-0,114
-633,809	-200,000	0,015	-0,092
-632,795	58,135	0,083	0,060
-631,780	-14,706	-0,162	0,076
-630,765	-200,000	0,013	-0,166
-629,751	-200,000	-0,032	-0,151
-628,736	800,000	0,035	-0,088
-627,722	-128,871	0,063	0,006
-626,707	297,313	0,068	0,092
-625,692	27,582	0,063	0,039
-624,678	49,937	-0,096	0,066
-623,663	55,966	-0,046	-0,033
-622,649	-200,000	-0,040	0,153
-621,634	218,984	0,070	0,083
-620,619	-88,242	0,028	0,006
-619,605	-200,000	0,009	0,056
-618,590	152,692	-0,070	0,070
-617,576	-96,039	0,101	-0,019
-616,561	-200,000	0,001	-0,138
-615,546	800,000	-0,057	-0,124
-614,532	72,173	0,021	-0,016
-613,517	800,000	0,030	0,074
-612,503	-200,000	0,014	0,071
-611,488	-200,000	-0,021	0,175
-610,474	800,000	0,003	0,010
-609,459	314,231	0,066	0,092
-608,444	92,443	-0,168	-0,139
-607,430	-200,000	-0,005	-0,185
-606,415	17,278	0,089	-0,052
-605,401	-200,000	0,017	-0,113
-604,386	-200,000	0,030	-0,099
-603,371	454,491	-0,108	0,176
-602,357	414,843	-0,056	0,088
-601,342	104,004	-0,161	0,139
-600,328	-93,421	-0,123	-0,025
-599,313	-200,000	-0,004	-0,093
-598,298	405,711	-0,047	0,073
-597,284	8,098	0,123	0,067
-596,269	-200,000	-0,003	-0,107
-595,255	-172,557	0,045	-0,001
-594,240	-200,000	-0,009	0,056
-593,225	800,000	-0,046	-0,127
-592,211	-200,000	-0,001	0,041
-591,196	-61,785	0,082	0,025
-590,182	-200,000	0,020	0,270
-589,167	800,000	-0,049	0,104
-588,152	-3,376	-0,060	-0,030
-587,138	-32,157	-0,116	-0,047
-586,123	-200,000	0,002	0,058
-585,109	-158,178	0,063	0,003
-584,094	-31,236	-0,095	-0,039
-583,079	-56,277	0,109	-0,035
-582,065	-73,723	-0,112	-0,030
-581,050	-50,978	0,063	-0,022
-580,036	-200,000	0,040	0,140
-579,021	182,409	0,035	-0,038
-578,006	44,713	-0,104	-0,070
-576,992	-113,543	-0,140	-0,020
-575,977	-200,000	-0,008	0,052
-574,963	800,000	-0,016	-0,047
-573,948	-200,000	0,012	-0,087
-572,934	668,954	0,046	-0,087
-571,919	-200,000	-0,016	-0,053
-570,904	-126,435	-0,195	0,021
-569,890	696,547	0,033	0,063
-568,875	-200,000	-0,001	0,031
-567,861	111,161	-0,070	0,062
-566,846	-119,689	0,038	0,005
-565,831	288,721	0,033	0,043
-564,817	40,532	-0,030	-0,020
-563,802	604,056	-0,041	-0,075
-562,788	150,129	0,085	0,085
-561,773	-136,564	0,100	0,008
-560,758	-87,851	0,115	-0,025
-559,744	311,978	0,054	0,074
-558,729	-47,159	-0,070	-0,025
-557,715	-200,000	-0,000	-0,039
-556,700	64,188	0,105	-0,077
-555,685	-200,000	-0,004	-0,035
-554,671	-200,000	-0,024	0,143
-553,656	-120,243	0,129	-0,016
-552,642	-200,000	-0,046	0,176
-551,627	13,717	0,043	0,025
-550,612	-5,107	-0,024	-0,012
-549,598	-74,650	0,083	-0,022
-548,583	-53,993	-0,082	0,027
-547,569	146,550	0,022	0,022
-546,554	800,000	-0,047	0,106
-545,539	72,463	-0,126	0,096
-544,525	-122,391	-0,100	0,012
-543,510	295,643	0,078	0,105
-542,496	-21,891	0,096	-0,042
-541,481	107,461	0,071	0,062
-540,466	96,448	-0,051	0,042
-539,452	727,378	-0,067	-0,132
-538,437	-105,355	0,133	0,022
-537,423	401,639	-0,054	0,083
-536,408	8,217	-0,046	-0,025
-535,393	79,957	-0,073	-0,058
-534,379	-200,000	-0,010	0,099
-533,364	800,000	0,079	0,185
-532,350	-200,000	-0,001	-0,103
-531,335	297,234	-0,027	-0,037
-530,321	-30,288	-0,133	0,055
-529,306	172,616	-0,101	-0,106
-528,291	800,000	0,036	-0,102
-527,277	-200,000	0,004	0,061
-526,262	86,033	0,056	-0,045
-525,248	202,762	-0,020	-0,023
-524,233	-84,490	-0,153	0,035
-523,218	281,041	-0,059	-0,077
-522,204	800,000	0,025	0,073
-521,189	-200,000	0,012	-0,161
-520,175	-122,303	0,065	-0,008
-519,160	-200,000	0,034	0,138
-518,145	800,000	0,070	-0,153
-517,131	-32,948	0,070	0,028
-516,116	-200,000	0,015	0,111
-515,102	800,000	-0,024	0,070
-514,087	800,000	0,015	-0,039
-513,072	-173,565	0,073	-0,002
-512,058	-200,000	0,002	-0,022
-511,043	-200,000	-0,010	0,039
-510,029	-96,308	0,120	-0,023
-509,014	-78,914	-0,047	-0,012
-507,999	-200,000	-0,007	-0,067
-506,985	-200,000	-0,003	0,015
-505,970	198,029	-0,069	-0,077
-504,956	-116,061	-0,092	-0,012
-503,941	-98,998	-0,113	0,021
-502,926	-38,639	0,040	0,015
-501,912	800,000	-0,012	-0,028
-500,897	-35,094	-0,073	0,029
-499,883	30,403	-0,069	0,043
-498,868	142,126	-0,074	-0,071
-497,853	-154,961	-0,079	-0,004
-496,839	86,017	0,087	0,070
-495,824	-200,000	0,004	0,032
-494,810	-55,383	0,175	0,057
-493,795	24,621	-0,021	-0,013
-492,781	45,939	-0,036	-0,024
-491,766	55,389	-0,078	-0,055
-490,751	-69,934	-0,095	-0,026
-489,737	-200,000	0,022	0,085
-488,722	-96,159	0,114	-0,022
-487,708	-113,716	0,178	-0,025
-486,693	-116,981	-0,072	-0,009
-485,678	-79,596	-0,079	0,019
-484,664	4,310	0,028	0,015
-483,649	800,000	-0,083	-0,191
-482,635	-64,343	0,034	0,010
-481,620	-106,049	0,004	-0,001
-480,605	133,664	-0,007	-0,007
-479,591	598,977	0,041	-0,074
-478,576	800,000	-0,044	-0,126
-477,562	22,986	-0,038	0,023
-476,547	126,640	0,082	-0,076
-475,532	-200,000	-0,036	-0,243
-474,518	603,169	0,022	-0,040
-473,503	-200,000	-0,013	-0,049
-472,489	444,273	-0,044	0,071
-471,474	595,323	-0,035	0,063
-470,459	6,402	0,130	-0,070
-469,445	800,000	0,038	-0,109
-468,430	800,000	0,014	0,039
-467,416	628,727	-0,079	0,147
-466,401	-199,981	0,138	-0,000
-465,386	-200,000	0,008	0,141
-464,372	-128,754	-0,164	-0,017
-463,357	800,000	-0,025	-0,071
-462,343	102,049	-0,071	-0,061
-461,328	-78,273	-0,041	-0,010
-460,313	800,000	-0,032	-0,064
-459,299	800,000	-0,008	-0,020
-458,284	16,161	-0,075	-0,043
-457,270	469,268	-0,025	-0,042
-456,255	548,158	0,031	0,054
-455,241	102,687	-0,036	-0,031
-454,226	-110,843	0,121	-0,018
-453,211	-84,860	0,059	0,013
-452,197	-200,000	-0,013	0,113
-451,182	800,000	0,082	0,177
-450,168	800,000	0,023	0,072
-449,153	1,524	-0,080	0,042
-448,138	-200,000	-0,017	-0,131
-447,124	-120,044	-0,084	-0,010
-446,109	-55,516	0,014	-0,005
-445,095	-157,171	-0,046	-0,002
-444,080	306,282	-0,051	-0,069
-443,065	95,596	0,069	-0,058
-442,051	58,363	0,059	-0,042
-441,036	-200,000	0,026	-0,241
-440,022	33,642	-0,028	0,018
-439,007	-200,000	-0,002	-0,116
-437,992	-103,821	-0,052	0,009
-436,978	617,487	0,062	-0,114
-435,963	-193,375	0,078	-0,000
-434,949	-186,654	-0,081	0,001
-433,934	525,149	0,048	-0,082
-432,919	-200,000	-0,026	-0,101
-431,905	-120,315	0,102	-0,013
-430,890	-153,178	-0,068	0,003
-429,876	-200,000	-0,009	0,052
-428,861	37,013	-0,058	-0,038
-427,846	82,613	-0,092	-0,073
-426,832	106,368	0,084	-0,073
-425,817	-200,000	0,042	0,000
-424,803	71,074	0,125	-0,094
-423,788	-193,839	-0,136	-0,001
-422,773	800,000	0,041	0,128
-421,759	-49,174	0,010	0,004
-420,744	-200,000	0,016	-0,110
-419,730	117,499	0,050	0,045
-418,715	1,478	-0,179	-0,094
-417,701	800,000	-0,101	-0,254
-416,686	634,444	0,029	-0,053
-415,671	3,067	-0,056	0,030
-414,657	-25,345	0,130	0,056
-413,642	54,881	-0,081	-0,057
-412,628	800,000	-0,027	-0,070
-411,613	153,790	0,099	0,099
-410,598	-200,000	0,007	-0,083
-409,584	94,838	0,048	-0,040
-408,569	-149,000	0,020	-0,001
-407,555	-100,879	0,051	0,009
-406,540	-183,843	0,112	-0,001
-405,525	82,022	0,040	-0,032
-404,511	315,139	-0,114	-0,157
-403,496	-200,000	-0,003	0,114
-402,482	800,000	0,032	-0,071
-401,467	414,424	0,026	-0,040
-400,452	-170,255	0,196	-0,005
-399,438	-200,000	0,011	0,172
-398,423	-200,000	0,019	0,065
-397,409	333,579	-0,064	-0,090
-396,394	187,632	0,019	-0,021
-395,379	-200,000	-0,000	-0,007
-394,365	-112,951	0,156	0,022
-393,350	-47,879	0,093	0,032
-392,336	-200,000	-0,006	-0,024
-391,321	140,072	0,060	0,057
-390,306	-107,129	-0,140	0,022
-389,292	-51,834	0,071	-0,024
-388,277	-179,766	-0,081	-0,001
-387,263	-48,203	0,145	0,051
-386,248	-94,088	0,201	0,040
-385,233	288,131	-0,085	0,112
-384,219	483,073	0,016	0,027
-383,204	790,510	0,010	-0,020
-382,190	85,205	-0,057	0,045
-381,175	410,642	-0,047	-0,073
-380,160	800,000	-0,019	-0,044
-379,146	-168,858	-0,055	0,001
-378,131	800,000	0,050	0,119
-377,117	-165,301	0,126	-0,004
-376,102	70,991	-0,038	-0,028
-375,088	-200,000	0,003	-0,075
-374,073	110,754	-0,021	-0,019
-373,058	627,035	0,013	-0,024
-372,044	-200,000	0,001	0,033
-371,029	-200,000	0,023	0,161
-370,015	33,455	-0,047	-0,030
-369,000	-200,000	-0,000	-0,085
-367,985	135,806	-0,062	-0,059
-366,971	-200,000	0,032	0,165
-365,956	-31,011	-0,099	0,040
-364,942	-34,698	-0,052	0,020
-363,927	170,531	0,084	0,088
-362,912	-200,000	-0,009	-0,080
-361,898	34,437	0,097	0,061
-360,883	-156,511	-0,023	-0,001
-359,869	-200,000	0,002	-0,118
-358,854	182,754	-0,064	0,069
-357,839	261,680	-0,046	0,058
-356,825	9,344	0,144	0,079
-355,810	-200,000	-0,013	-0,161
-354,796	241,362	0,006	0,008
-353,781	100,644	-0,090	0,076
-352,766	420,343	-0,054	-0,084
-351,752	146,039	0,140	-0,136
-350,737	9,002	0,083	0,046
-349,723	800,000	-0,028	0,073
-348,708	263,109	0,020	-0,026
-347,693	345,266	0,062	-0,089
-346,679	-124,734	0,068	-0,008
-345,664	65,280	-0,098	-0,072
-344,650	37,821	0,069	-0,044
-343,635	800,000	-0,029	0,077
-342,620	-200,000	0,020	-0,069
-341,606	-200,000	0,005	0,115
-340,591	-35,903	-0,175	-0,068
-339,577	800,000	0,025	-0,077
-338,562	177,548	0,062	0,065
-337,548	-200,000	-0,019	-0,100
-336,533	-200,000	-0,007	0,035
-335,518	800,000	0,037	0,101
-334,504	164,371	0,111	0,113
-333,489	249,611	0,052	0,064
-332,475	21,243	-0,087	-0,051
-331,460	-200,000	0,010	-0,082
-330,445	800,000	0,023	-0,053
-329,431	-40,146	-0,128	-0,048
-328,416	-50,299	0,076	-0,026
-327,402	-101,154	-0,021	-0,004
-326,387	113,224	0,029	0,026
-325,372	127,121	-0,059	-0,055
-324,358	729,231	-0,004	-0,007
-323,343	-107,204	0,134	-0,021
-322,329	230,499	-0,041	-0,048
-321,314	676,097	0,055	0,104
-320,299	-200,000	-0,004	0,043
-319,285	-200,000	0,030	0,111
-318,270	220,302	-0,098	-0,114
-317,256	-56,188	-0,065	0,021
-316,241	-149,507	-0,058	-0,003
-315,226	136,579	0,009	-0,009
-314,212	310,280	0,003	0,004
-313,197	-72,552	0,061	-0,016
-312,183	373,866	-0,057	-0,084
-311,168	-140,943	-0,070	-0,005
-310,153	-200,000	-0,004	-0,037
-309,139	3,442	-0,133	-0,070
-308,124	800,000	-0,046	-0,144
-307,110	-89,942	0,160	0,034
-306,095	92,296	0,108	0,088
-305,080	-88,367	0,043	-0,009
-304,066	29,959	-0,120	0,074
-303,051	36,906	0,045	0,029
-302,037	479,229	-0,039	0,064
-301,022	345,265	0,071	0,101
-300,008	800,000	0,030	0,092
-298,993	465,144	-0,043	-0,069
-297,978	6,481	-0,085	0,045
-296,964	800,000	-0,075	-0,172
-295,949	-200,000	-0,022	-0,106
-294,935	142,808	0,100	-0,096
-293,920	569,934	-0,027	0,047
-292,905	305,580	0,091	0,123
-291,891	-6,108	0,065	0,032
-290,876	31,715	-0,061	0,038
-289,862	-200,000	0,004	-0,023
-288,847	224,815	-0,057	0,067
-287,832	-41,727	-0,089	-0,033
-286,818	-165,974	0,119	0,004
-285,803	351,096	0,066	-0,095
-284,789	-200,000	0,004	0,110
-283,774	734,724	0,028	-0,055
-282,759	-39,495	0,102	0,038
-281,745	-51,205	0,032	-0,011
-280,730	166,666	0,083	0,085
-279,716	171,650	-0,064	-0,066
-278,701	39,882	0,062	0,040
-277,686	-39,443	0,090	0,034
-276,672	-125,139	0,097	-0,011
-275,657	367,713	0,102	0,150
-274,643	-200,000	-0,000	-0,048
-273,628	-200,000	0,000	-0,114
-272,613	503,661	0,012	-0,020
-271,599	-97,500	0,128	0,024
-270,584	-39,510	0,073	0,028
-269,570	6,427	-0,055	-0,029
-268,555	-200,000	0,005	-0,088
-267,540	148,033	0,073	0,071
-266,526	139,687	0,046	-0,044
-265,511	85,495	-0,053	0,042
-264,497	-13,350	0,072	-0,034
-263,482	-200,000	0,047	0,162
-262,467	224,007	-0,077	0,090
-261,453	-200,000	-0,025	0,098
-260,438	-109,987	-0,114	-0,017
-259,424	32,442	0,109	-0,068
-258,409	-200,000	0,008	0,121
-257,395	129,011	0,034	-0,032
-256,380	191,100	0,041	0,045
-255,365	800,000	0,018	0,043
-254,351	518,035	0,012	-0,020
-253,336	1,909	-0,092	-0,048
-252,322	-125,594	0,029	-0,003
-251,307	721,885	-0,051	0,098
-250,292	207,383	-0,094	-0,106
-249,278	-200,000	0,006	0,097
-248,263	-200,000	0,022	0,118
-247,249	-200,000	0,032	0,157
-246,234	-200,000	0,002	0,035
-245,219	-29,883	-0,059	0,024
-244,205	528,517	-0,048	0,082
-243,190	-200,000	0,007	-0,035
-242,176	204,291	-0,037	0,041
-241,161	-111,248	0,116	0,017
-240,146	-59,001	-0,112	0,035
-239,132	-200,000	-0,025	0,092
-238,117	37,481	-0,074	-0,048
-237,103	800,000	-0,037	-0,115
-236,088	106,426	-0,005	-0,004
-235,073	368,928	0,017	0,025
-234,059	-200,000	0,020	-0,070
-233,044	379,120	0,006	-0,008
-232,030	118,866	0,052	-0,047
-231,015	-200,000	0,012	-0,103
-230,000	292,188	-0,016	0,021
-228,986	-108,946	-0,109	-0,017
-227,971	-200,000	0,020	0,080
-226,957	800,000	0,047	0,150
-225,942	418,454	-0,084	0,130
-224,927	695,356	-0,055	0,105
-223,913	793,724	-0,058	0,117
-222,898	-200,000	0,004	-0,015
-221,884	199,634	0,060	0,067
-220,869	-200,000	0,015	0,139
-219,855	-17,505	0,105	0,048
-218,840	800,000	-0,045	0,096
-217,825	800,000	0,036	-0,079
-216,811	-200,000	-0,001	-0,156
-215,796	126,695	-0,112	-0,102
-214,782	294,861	0,028	0,038
-213,767	-115,033	-0,043	-0,006
-212,752	214,924	0,091	0,104
-211,738	-200,000	0,053	0,225
-210,723	27,416	0,057	-0,035
-209,709	-200,000	-0,004	-0,093
-208,694	-200,000	-0,013	0,076
-207,679	535,289	0,044	-0,075
-206,665	2,073	0,087	0,045
-205,650	-74,364	0,128	0,033
-204,636	-200,000	-0,047	-0,157
-203,621	117,080	-0,108	-0,096
-202,606	-59,803	-0,119	0,037
-201,592	-103,209	-0,069	0,012
-200,577	33,309	-0,081	0,051
-199,563	-170,200	0,119	0,003
-198,548	-200,000	-0,000	-0,060
-197,533	-200,000	-0,032	-0,108
-196,519	402,973	0,070	-0,106
-195,504	-21,509	-0,133	0,058
-194,490	-48,932	0,086	-0,030
-193,475	-200,000	-0,020	-0,133
-192,460	27,398	0,105	-0,064
-191,446	30,429	0,077	-0,047
-190,431	-193,307	0,097	0,001
-189,417	701,187	0,034	-0,065
-188,402	-81,912	-0,129	-0,030
-187,387	800,000	-0,060	0,124
-186,373	800,000	0,039	-0,089
-185,358	-200,000	0,015	0,082
-184,344	112,085	0,108	0,094
-183,329	30,995	-0,008	-0,005
-182,315	37,263	0,069	0,044
-181,300	800,000	-0,037	0,096
-180,285	-200,000	0,004	-0,067
-179,271	74,920	0,141	-0,107
-178,256	-200,000	-0,002	-0,116
-177,242	-200,000	-0,025	0,099
-176,227	54,757	-0,035	0,024
-175,212	59,991	-0,025	-0,018
-174,198	-54,334	-0,097	0,032
-173,183	800,000	0,044	-0,141
-172,169	140,864	-0,125	-0,120
-171,154	-97,816	-0,067	-0,012
-170,139	-200,000	-0,000	0,067
-169,125	-200,000	-0,011	0,080
-168,110	536,438	0,049	0,085
-167,096	-24,846	-0,049	0,021
-166,081	133,338	-0,091	-0,085
-165,066	-112,626	-0,029	0,004
-164,052	-38,736	-0,075	0,028
-163,037	357,041	0,058	0,084
-162,023	800,000	0,040	-0,094
-161,008	800,000	0,043	0,123
-159,993	47,588	0,013	-0,009
-158,979	-188,132	-0,090	0,001
-157,964	133,887	-0,128	-0,120
-156,950	-135,174	0,060	-0,005
-155,935	-111,772	-0,119	0,017
-154,920	26,876	-0,086	0,052
-153,906	800,000	0,051	0,129
-152,891	-200,000	0,008	0,071
-151,877	800,000	-0,066	-0,141
-150,862	-200,000	0,002	-0,086
-149,847	-200,000	0,004	-0,013
-148,833	-60,760	0,075	0,023
-147,818	368,348	0,026	-0,038
-146,804	295,855	-0,042	0,056
-145,789	641,647	0,072	0,133
-144,775	-200,000	-0,003	0,069
-143,760	-200,000	-0,011	-0,113
-142,745	800,000	-0,032	-0,070
-141,731	-30,326	0,126	-0,051
-140,716	144,939	-0,032	-0,031
-139,702	-200,000	-0,005	0,167
-138,687	-200,000	-0,011	-0,114
-137,672	-200,000	-0,013	-0,086
-136,658	471,529	-0,042	-0,068
-135,643	-108,324	0,057	0,009
-134,629	144,734	0,066	-0,063
-133,614	-57,181	-0,240	0,076
-132,599	208,769	0,032	-0,036
-131,585	361,398	0,092	0,133
-130,570	-200,000	-0,021	-0,082
-129,556	-120,668	0,119	0,014
-128,541	169,539	-0,053	0,054
-127,526	-200,000	-0,002	-0,033
-126,512	-138,008	-0,063	0,005
-125,497	210,600	0,017	0,019
-124,483	585,874	0,045	-0,080
-123,468	74,311	-0,078	-0,059
-122,453	-73,858	-0,056	-0,014
-121,439	-80,976	0,143	0,034
-120,424	3,807	0,128	-0,067
-119,410	-86,281	-0,050	-0,011
-118,395	56,625	0,029	0,020
-117,380	76,557	-0,046	-0,035
-116,366	170,059	0,013	0,013
-115,351	-150,333	0,027	-0,001
-114,337	-90,274	-0,184	-0,038
-113,322	112,940	0,137	-0,120
-112,307	137,840	0,107	-0,101
-111,293	-74,704	0,155	-0,040
-110,278	-63,718	0,048	-0,014
-109,264	800,000	0,033	0,079
-108,249	-12,132	0,049	-0,023
-107,234	-200,000	0,001	0,074
-106,220	-76,610	-0,186	-0,047
-105,205	800,000	0,032	0,069
-104,191	771,986	-0,013	0,026
-103,176	800,000	0,053	0,127
-102,162	194,889	-0,092	0,101
-101,147	96,254	-0,057	-0,047
-100,132	800,000	-0,015	-0,040
-99,118	-78,953	0,095	-0,023
-98,103	-192,609	-0,109	0,001
-97,089	120,852	-0,021	-0,019
-96,074	-151,546	0,026	0,001
-95,059	20,707	-0,077	0,045
-94,045	264,203	-0,103	-0,130
-93,030	65,022	-0,116	-0,084
-92,016	723,422	0,049	-0,094
-91,001	800,000	-0,049	0,103
-89,986	-54,975	-0,050	-0,016
-88,972	-100,482	0,071	-0,013
-87,957	474,790	0,052	-0,085
-86,943	125,498	0,075	0,068
-85,928	-142,805	-0,034	0,002
-84,913	-99,544	0,079	0,014
-83,899	85,642	0,054	-0,043
-82,884	800,000	-0,085	0,195
-81,870	32,232	0,110	0,068
-80,855	-200,000	-0,006	0,056
-79,840	92,402	-0,063	0,051
-78,826	-39,250	0,122	0,046
-77,811	800,000	-0,020	-0,041
-76,797	-184,127	-0,014	-0,000
-75,782	260,427	-0,018	-0,023
-74,767	-133,147	-0,069	0,006
-73,753	120,551	0,052	-0,046
-72,738	-81,943	-0,069	-0,016
-71,724	-89,337	0,038	-0,008
-70,709	-200,000	0,022	-0,115
-69,694	-200,000	0,003	0,104
-68,680	-110,855	-0,085	0,012
-67,665	150,922	-0,055	0,054
-66,651	-128,445	0,142	0,014
-65,636	322,853	-0,049	0,067
-64,622	-110,145	-0,102	-0,015
-63,607	13,038	-0,093	-0,052
-62,592	261,576	-0,050	-0,063
-61,578	698,428	-0,034	0,065
-60,563	800,000	0,079	-0,164
-59,549	45,539	-0,052	0,034
-58,534	-19,900	-2,020	-0,892
-57,519	-200,000	-0,272	-0,939
-56,505	-200,000	-1,236	-4,852
-55,490	7,425	0,743	0,398
-54,476	800,000	5,272	12,059
-53,461	-200,000	17,435	284,780
-52,446	800,000	724,432	2225,729
-51,432	540,875	1640,338	2816,150
-50,417	111,230	1631,651	1411,379
-49,403	75,600	1286,269	974,336
-48,388	32,462	1028,162	636,319
-47,373	20,216	990,224	572,423
-46,359	18,627	978,155	560,208
-45,344	16,014	974,297	549,416
-44,330	16,238	972,715	549,237
-43,315	15,765	971,029	546,717
-42,300	15,698	970,023	545,911
-41,286	15,713	968,807	545,254
-40,271	15,676	967,791	544,538
-39,257	15,728	966,881	544,176
-38,242	15,709	966,071	543,637
-37,227	15,763	965,280	543,345
-36,213	15,700	964,465	542,661
-35,198	15,694	963,428	542,035
-34,184	15,743	962,829	541,835
-33,169	15,675	961,903	541,074
-32,154	15,774	960,736	540,714
-31,140	15,747	959,903	540,139
-30,125	15,764	959,325	539,844
-29,111	15,709	958,620	539,251
-28,096	15,759	958,016	539,051
-27,082	15,782	957,239	538,666
-26,067	15,771	956,329	538,096
-25,052	15,690	955,694	537,456
-24,038	15,727	954,964	537,144
-23,023	15,707	954,272	536,671
-22,009	15,736	953,612	536,372
-20,994	15,707	953,224	536,039
-19,979	15,733	952,527	535,707
-18,965	15,738	951,575	535,168
-17,950	15,680	951,317	534,814
-16,936	15,657	950,610	534,323
-15,921	15,650	950,013	533,943
-14,906	15,571	949,234	533,232
-13,892	15,612	948,531	532,946
-12,877	15,592	947,930	532,525
-11,863	15,592	947,317	532,160
-10,848	15,603	946,850	531,910
-9,833	15,704	946,381	531,949
-8,819	15,692	945,644	531,473
-7,804	15,683	944,871	530,989
-6,790	15,585	944,547	530,476
-5,775	15,647	943,878	530,276
-4,760	15,670	943,152	529,920
-3,746	15,606	942,548	529,357
-2,731	15,444	942,054	528,546
-1,717	15,480	941,256	528,191
-0,702	15,491	940,501	527,779
0,313	15,276	940,020	527,626
1,327	18,507	937,659	536,443
2,342	27,401	794,885	478,344
3,356	24,039	459,090	271,104
4,371	-3,143	314,019	156,573
5,386	-7,047	295,519	143,392
6,400	-9,131	289,774	138,525
7,415	-9,603	287,062	136,754
8,429	-9,638	285,641	136,030
9,444	-9,988	284,892	135,320
10,459	-9,764	284,224	135,208
11,473	-9,836	283,691	134,873
12,488	-9,751	283,162	134,691
13,502	-9,947	282,672	134,257
14,517	-9,746	282,233	134,231
15,531	-9,732	281,798	134,025
16,546	-9,772	281,525	133,845
17,561	-9,837	281,051	133,546
18,575	-9,696	280,716	133,510
19,590	-9,697	280,260	133,280
20,604	-9,673	280,119	133,224
21,619	-9,833	279,520	132,774
22,634	-9,812	279,397	132,724
23,648	-9,980	279,031	132,378
24,663	-9,767	278,694	132,409
25,677	-9,769	278,374	132,243
26,692	-9,689	278,306	132,275
27,707	-9,668	278,068	132,171
28,721	-9,891	277,836	131,837
29,736	-9,744	277,291	131,705
30,750	-9,783	277,034	131,535
31,765	-9,739	276,907	131,505
32,780	-9,948	276,774	131,233
33,794	-9,894	276,464	131,125
34,809	-9,746	276,221	131,137
35,823	-9,815	275,918	130,916
36,838	-9,812	275,761	130,833
37,853	-10,047	275,470	130,463
38,867	-9,775	275,082	130,522
39,882	-9,797	275,009	130,456
40,896	-9,815	274,756	130,307
41,911	-9,939	274,346	129,985
42,926	-9,709	274,235	130,136
43,940	-9,934	273,910	129,760
44,955	-9,841	273,789	129,778
45,969	-9,915	273,358	129,493
46,984	-10,000	273,284	129,367
47,999	-10,128	272,891	129,051
49,013	-10,331	272,801	128,807
50,028	-10,408	272,565	128,613
51,042	-10,515	272,310	128,382
52,057	-10,646	272,031	128,117
53,071	-10,406	271,828	128,232
54,086	-10,318	271,690	128,238
55,101	-10,139	271,547	128,325
56,115	-10,089	271,168	128,180
57,130	-9,825	271,149	128,404
58,144	-9,633	270,847	128,426
59,159	-9,684	270,824	128,357
60,174	-9,596	270,427	128,239
61,188	-9,606	270,298	128,157
62,203	-9,610	270,134	128,064
63,217	-9,796	269,964	127,800
64,232	-9,543	269,548	127,825
65,247	-9,569	269,315	127,679
66,261	-9,680	269,141	127,484
67,276	-9,768	268,939	127,296
68,290	-10,036	268,562	126,861
69,305	-10,102	268,381	126,704
70,320	-9,922	268,087	126,718
71,334	-9,845	267,977	126,725
72,349	-9,855	267,938	126,686
73,363	-9,623	267,608	126,730
74,378	-9,711	267,298	126,492
75,393	-9,682	267,295	126,505
76,407	-9,634	266,976	126,387
77,422	-9,830	266,785	126,108
78,436	-9,642	266,620	126,188
79,451	-9,779	266,323	125,913
80,466	-9,905	266,122	125,693
81,480	-9,867	265,841	125,583
82,495	-9,876	265,738	125,515
83,509	-9,777	265,512	125,486
84,524	-10,035	265,254	125,120
85,539	-9,906	264,975	125,094
86,553	-10,130	264,747	124,774
87,568	-9,910	264,576	124,879
88,582	-9,925	264,341	124,744
89,597	-9,845	264,218	124,747
90,611	-9,751	264,020	124,727
91,626	-9,747	263,827	124,627
92,641	-9,640	263,510	124,563
93,655	-9,860	263,403	124,305
94,670	-9,721	263,142	124,295
95,684	-9,863	263,013	124,095
96,699	-9,776	262,903	124,110
97,714	-9,922	262,643	123,845
98,728	-10,029	262,395	123,623
99,743	-10,106	262,245	123,473
100,757	-9,958	261,965	123,462
101,772	-9,890	261,839	123,452
102,787	-9,856	261,519	123,320
103,801	-9,808	261,394	123,293
104,816	-9,713	261,208	123,277
105,830	-9,841	261,338	123,214
106,845	-9,612	260,817	123,161
107,860	-9,803	260,644	122,899
108,874	-9,829	260,619	122,853
109,889	-9,667	260,334	122,851
110,903	-9,940	260,016	122,449
111,918	-10,029	259,868	122,290
112,933	-9,912	259,773	122,337
113,947	-9,628	259,470	122,434
114,962	-9,865	259,360	122,162
115,976	-9,874	259,352	122,140
116,991	-9,933	258,961	121,893
118,006	-9,823	258,879	121,940
119,020	-9,837	258,736	121,849
120,035	-9,610	258,498	121,926
121,049	-9,778	258,326	121,687
122,064	-9,511	257,999	121,755
123,079	-9,815	257,917	121,440
124,093	-9,652	257,679	121,459
125,108	-9,909	257,344	121,066
126,122	-10,035	257,141	120,851
127,137	-10,043	256,954	120,745
128,151	-10,086	256,852	120,649
129,166	-9,972	256,554	120,597
130,181	-9,910	256,307	120,524
131,195	-9,988	256,172	120,382
132,210	-9,797	255,971	120,442
133,224	-9,646	255,798	120,481
134,239	-9,760	255,675	120,314
135,254	-9,729	255,481	120,239
136,268	-9,988	255,406	119,969
137,283	-10,258	255,087	119,575
138,297	-10,055	254,728	119,571
139,312	-10,294	254,753	119,366
140,327	-9,862	254,448	119,585
141,341	-9,841	254,596	119,662
142,356	-9,684	254,398	119,693
143,370	-9,598	253,909	119,526
144,385	-9,409	253,968	119,705
145,400	-9,500	253,683	119,483
146,414	-9,676	253,680	119,320
147,429	-9,501	253,412	119,333
148,443	-9,449	253,131	119,235
149,458	-9,423	253,025	119,196
150,473	-9,600	252,847	118,950
151,487	-9,687	252,631	118,763
152,502	-9,626	252,468	118,729
153,516	-9,567	252,305	118,691
154,531	-9,479	252,180	118,697
155,546	-9,510	251,804	118,483
156,560	-9,551	251,760	118,417
157,575	-9,729	251,490	118,128
158,589	-9,763	251,403	118,048
159,604	-9,594	251,141	118,058
160,619	-9,833	251,088	117,820
161,633	-9,621	250,888	117,895
162,648	-9,698	250,630	117,698
163,662	-9,469	250,487	117,814
164,677	-9,617	250,390	117,633
165,692	-9,599	250,221	117,558
166,706	-9,518	250,185	117,599
167,721	-9,579	249,729	117,323
168,735	-9,584	249,637	117,265
169,750	-9,565	249,697	117,299
170,764	-9,371	249,318	117,273
171,779	-9,353	249,228	117,235
172,794	-9,709	249,165	116,897
173,808	-9,487	248,835	116,917
174,823	-9,880	248,726	116,526
175,837	-9,986	248,394	116,271
176,852	-9,777	248,285	116,385
177,867	-9,608	248,223	116,487
178,881	-9,416	248,072	116,566
179,896	-9,449	247,871	116,434
180,910	-9,505	247,741	116,316
181,925	-9,423	247,491	116,256
182,940	-9,559	247,375	116,078
183,954	-9,334	247,041	116,098
184,969	-9,447	246,958	115,955
185,983	-9,501	246,778	115,815
186,998	-9,558	246,760	115,749
188,013	-9,530	246,484	115,632
189,027	-9,527	246,342	115,558
190,042	-9,510	246,062	115,431
191,056	-9,411	245,859	115,407
192,071	-9,534	245,733	115,236
193,086	-9,532	245,604	115,167
194,100	-9,569	245,440	115,049
195,115	-9,413	245,273	115,089
196,129	-9,337	245,030	115,028
197,144	-9,586	244,895	114,748
198,159	-9,765	244,834	114,562
199,173	-9,517	244,559	114,628
200,188	-9,564	244,294	114,455
201,202	-9,787	244,112	114,176
202,217	-10,130	243,912	113,790
203,232	-10,195	243,809	113,679
204,246	-9,619	243,655	114,069
205,261	-9,327	243,620	114,282
206,275	-10,014	243,203	113,515
207,290	-7,078	244,499	116,522
208,304	0,107	246,803	123,558
209,319	3,900	247,628	127,099
210,334	4,313	247,758	127,496
211,348	4,269	247,660	127,398
212,363	4,577	247,501	127,559
213,377	4,602	247,333	127,481
214,392	4,435	247,329	127,331
215,407	4,770	246,900	127,374
216,421	4,569	246,811	127,151
217,436	4,619	246,815	127,184
218,450	5,029	246,478	127,335
219,465	4,400	246,411	126,772
220,480	4,457	246,124	126,660
221,494	4,154	246,059	126,366
222,509	4,342	245,812	126,383
223,523	4,213	245,496	126,103
224,538	3,924	245,269	125,739
225,553	4,052	245,179	125,786
226,567	4,123	245,156	125,822
227,582	4,218	244,930	125,772
228,596	4,254	244,755	125,700
229,611	4,084	244,403	125,370
230,626	3,976	244,374	125,256
231,640	4,067	244,238	125,249
232,655	4,238	243,944	125,226
233,669	3,950	243,869	124,942
234,684	3,835	243,624	124,713
235,699	4,136	243,726	124,998
236,713	4,527	243,555	125,216
237,728	4,250	243,235	124,816
238,742	3,845	243,048	124,381
239,757	3,926	242,841	124,330
240,772	4,009	242,756	124,342
241,786	3,996	242,771	124,329
242,801	4,050	242,418	124,180
243,815	3,810	242,306	123,918
244,830	4,081	242,189	124,065
245,844	4,272	242,107	124,166
246,859	4,066	241,791	123,828
247,874	4,019	241,673	123,718
248,888	4,053	241,483	123,637
249,903	4,132	241,441	123,668
250,917	4,225	241,247	123,632
251,932	4,189	241,241	123,589
252,947	4,222	241,048	123,506
253,961	3,862	240,878	123,120
254,976	4,134	240,674	123,222
255,990	4,325	240,568	123,310
257,005	3,887	240,432	122,879
258,020	3,920	240,107	122,728
259,034	3,957	239,929	122,656
260,049	4,126	239,853	122,740
261,063	3,909	239,624	122,440
262,078	3,954	239,594	122,449
263,093	4,120	239,514	122,529
264,107	4,125	239,344	122,435
265,122	4,186	239,056	122,325
266,136	4,099	238,972	122,202
267,151	4,182	238,976	122,259
268,166	4,158	238,529	122,001
269,180	3,846	238,325	121,639
270,195	4,411	238,540	122,185
271,209	4,696	238,383	122,319
272,224	3,929	238,192	121,604
273,239	3,639	237,873	121,201
274,253	3,776	237,544	121,131
275,268	4,126	237,430	121,338
276,282	4,246	237,422	121,417
277,297	3,792	237,236	120,954
278,312	3,694	237,219	120,857
279,326	4,069	236,902	120,980
280,341	3,907	236,894	120,838
281,355	3,863	236,679	120,683
282,370	4,351	236,611	121,020
283,384	4,055	236,397	120,668
284,399	3,872	236,071	120,348
285,414	3,884	235,972	120,296
286,428	3,808	235,935	120,207
287,443	3,929	235,807	120,225
288,457	4,099	235,707	120,297
289,472	4,177	235,517	120,250
290,487	4,090	235,294	120,057
291,501	3,997	235,052	119,851
292,516	3,677	235,007	119,568
293,530	3,514	234,822	119,336
294,545	4,111	234,787	119,772
295,560	4,218	234,419	119,657
296,574	3,798	234,478	119,350
297,589	4,028	234,375	119,466
298,603	4,242	234,179	119,521
299,618	4,458	233,915	119,543
300,633	4,076	233,951	119,255
301,647	4,323	233,812	119,364
302,662	4,450	233,699	119,394
303,676	4,437	233,485	119,264
304,691	4,282	233,470	119,126
305,706	4,662	233,161	119,251
306,720	4,485	233,030	119,037
307,735	4,079	232,948	118,671
308,749	4,132	232,600	118,525
309,764	3,864	232,511	118,262
310,779	3,830	232,269	118,103
311,793	3,841	232,030	117,979
312,808	3,765	231,882	117,835
313,822	3,744	231,717	117,724
314,837	3,790	231,630	117,705
315,852	3,731	231,469	117,568
316,866	4,031	231,306	117,704
317,881	3,928	231,343	117,633
318,895	3,913	231,230	117,554
319,910	4,467	231,286	117,995
320,925	4,248	230,866	117,604
321,939	3,753	230,762	117,163
322,954	4,216	230,580	117,413
323,968	4,063	230,479	117,234
324,983	3,796	230,307	116,934
325,997	4,388	230,229	117,333
327,012	4,282	230,077	117,165
328,027	4,277	229,825	117,022
329,041	4,456	229,876	117,174
330,056	4,743	229,826	117,355
331,070	4,670	229,680	117,215
332,085	4,531	229,303	116,907
333,100	4,329	229,180	116,681
334,114	4,324	229,001	116,576
335,129	4,626	228,795	116,689
336,143	4,597	228,787	116,652
337,158	4,487	228,712	116,521
338,173	4,321	228,487	116,270
339,187	4,214	228,357	116,113
340,202	4,317	228,154	116,078
341,216	4,494	227,939	116,090
342,231	4,221	227,855	115,832
343,246	4,117	227,689	115,659
344,260	4,223	227,588	115,678
345,275	4,513	227,643	115,913
346,289	4,390	227,537	115,756
347,304	4,686	227,290	115,842
348,319	4,366	227,087	115,489
349,333	4,353	226,906	115,377
350,348	4,180	226,588	115,075
351,362	4,037	226,600	114,964
352,377	4,269	226,287	114,969
353,392	3,777	226,231	114,562
354,406	4,084	226,123	114,727
355,421	195,453	1323,003	1400,215
356,435	156,663	1456,641	1400,214
