DTS Sentinel unit serial number:	SN410029Multiplexer serial number:	ORYXHardware model number:	OX2-SRSoftware version number:	ORYX F/W v4,00 Oryx Data Collector v3.7.2.0data status	okinstallation	B5 Nyhavnadifferential loss correction	single-endedforward channel	channel 2reverse channel	N/Adate	2023/12/11time	15:22:13forward acquisition time	300,00reverse acquisition time	0,00gamma	499,1914k internal	0,3166k external	0,3166temperature offset calibration	1,0000default loss term (dB/km)	0,3820temperature slope calibration	1,0000multiplexer offset coefficient	1,0000multiplexer slope coefficient	1,0000fibre end	0,00T internal ref (°C)	13,29T ext. ref 1 (°C)	-1,97T ext. ref 2 (°C)	-1,98length (m)	temperature (°C)	Stokes	anti-Stokes-744,400	-200,000	0,014	0,064
-743,385	-31,332	-0,303	0,125
-742,371	28,267	0,092	-0,057
-741,356	-114,891	-0,320	0,044
-740,342	41,008	0,085	-0,057
-739,327	-58,876	-0,362	0,114
-738,312	-200,000	-0,004	0,085
-737,298	-63,461	-0,308	-0,093
-736,283	-154,131	0,171	-0,008
-735,269	-27,202	-0,203	0,086
-734,254	529,456	0,127	0,221
-733,239	7,548	-0,469	-0,257
-732,225	-91,718	0,149	-0,031
-731,210	-101,872	-0,072	0,013
-730,196	281,339	0,067	0,088
-729,181	-130,272	-0,054	-0,005
-728,167	-15,240	-0,075	-0,035
-727,152	-200,000	0,016	0,088
-726,137	208,070	-0,012	-0,014
-725,123	3,164	0,068	-0,036
-724,108	-200,000	0,007	-0,130
-723,094	800,000	-0,017	-0,046
-722,079	-57,661	-0,095	-0,030
-721,064	271,526	-0,047	-0,061
-720,050	348,201	-0,053	-0,077
-719,035	160,829	0,046	0,047
-718,021	-200,000	-0,003	-0,083
-717,006	-133,213	-0,118	-0,011
-715,991	30,468	-0,090	0,057
-714,977	3,119	-0,023	-0,012
-713,962	-200,000	0,001	-0,071
-712,948	-138,504	0,172	0,014
-711,933	-135,180	-0,062	-0,005
-710,918	-200,000	-0,002	0,024
-709,904	277,222	-0,096	-0,125
-708,889	-6,250	-0,171	-0,086
-707,875	-102,737	-0,112	0,019
-706,860	-197,765	0,127	0,001
-705,845	84,276	0,124	-0,100
-704,831	638,983	-0,026	-0,050
-703,816	-106,912	0,037	-0,006
-702,802	-152,827	-0,038	0,002
-701,787	136,467	-0,046	-0,044
-700,772	-67,851	0,040	-0,011
-699,758	-137,271	-0,099	-0,008
-698,743	-200,000	0,022	-0,120
-697,729	-200,000	0,011	-0,056
-696,714	800,000	0,037	0,117
-695,699	-78,478	0,058	0,015
-694,685	-115,876	-0,088	-0,012
-693,670	-200,000	0,000	-0,005
-692,656	-181,890	-0,024	0,000
-691,641	-71,896	-0,052	0,014
-690,627	-92,045	-0,149	0,031
-689,612	555,472	0,015	-0,026
-688,597	800,000	0,007	-0,017
-687,583	15,901	-0,106	-0,061
-686,568	471,653	-0,036	-0,060
-685,554	-200,000	-0,016	0,094
-684,539	-200,000	-0,021	0,143
-683,524	-200,000	0,004	0,074
-682,510	-200,000	0,044	0,159
-681,495	88,939	0,062	-0,050
-680,481	-200,000	0,006	-0,079
-679,466	612,237	-0,069	-0,128
-678,451	-50,651	0,100	0,034
-677,437	21,849	-0,109	-0,065
-676,422	-187,695	0,070	0,001
-675,408	350,943	0,054	0,079
-674,393	222,564	-0,058	-0,068
-673,378	-126,963	0,054	-0,006
-672,364	43,188	-0,134	0,090
-671,349	-150,976	-0,025	0,001
-670,335	313,039	-0,041	0,057
-669,320	-122,963	0,149	-0,017
-668,305	-200,000	-0,026	-0,125
-667,291	521,938	0,031	0,053
-666,276	169,190	0,019	-0,020
-665,262	591,260	-0,067	-0,121
-664,247	-26,076	0,104	-0,044
-663,232	97,581	-0,081	-0,068
-662,218	119,848	0,049	0,045
-661,203	-92,205	0,043	0,009
-660,189	-137,899	0,061	-0,005
-659,174	-200,000	-0,002	-0,084
-658,159	-40,408	-0,148	-0,056
-657,145	-200,000	0,004	-0,019
-656,130	-200,000	-0,014	0,075
-655,116	-148,100	0,138	-0,008
-654,101	-35,307	-0,090	-0,036
-653,086	339,408	-0,052	0,074
-652,072	-33,154	0,032	-0,013
-651,057	-41,599	-0,110	-0,041
-650,043	-73,122	-0,032	0,009
-649,028	209,328	0,126	-0,144
-648,014	-200,000	-0,002	-0,036
-646,999	160,408	-0,062	0,063
-645,984	609,422	-0,047	-0,086
-644,970	-200,000	-0,013	-0,084
-643,955	-200,000	-0,050	-0,238
-642,941	197,502	-0,031	-0,035
-641,926	208,545	0,040	-0,046
-640,911	410,126	0,057	0,089
-639,897	153,945	0,026	-0,026
-638,882	233,765	0,036	0,043
-637,868	-10,921	-0,054	0,026
-636,853	-8,688	0,125	0,061
-635,838	-50,766	-0,123	-0,042
-634,824	800,000	-0,023	-0,055
-633,809	317,378	0,062	-0,086
-632,795	32,374	0,052	0,033
-631,780	-200,000	-0,005	0,146
-630,765	-145,274	-0,082	0,005
-629,751	-200,000	-0,022	-0,203
-628,736	102,027	-0,070	0,060
-627,722	149,599	0,024	0,024
-626,707	-142,113	0,105	0,007
-625,692	152,716	0,037	0,037
-624,678	-1,393	-0,098	-0,050
-623,663	79,942	0,041	0,032
-622,649	73,210	-0,137	-0,105
-621,634	125,234	0,117	0,108
-620,619	800,000	0,024	-0,074
-619,605	668,329	0,016	0,030
-618,590	524,330	-0,029	-0,050
-617,576	-200,000	-0,002	-0,090
-616,561	800,000	-0,025	0,075
-615,546	27,259	-0,072	-0,044
-614,532	-70,414	0,041	0,011
-613,517	-12,777	-0,068	-0,032
-612,503	16,741	-0,043	0,025
-611,488	800,000	-0,015	-0,038
-610,474	-200,000	0,016	-0,094
-609,459	-200,000	0,002	-0,157
-608,444	37,294	0,052	-0,033
-607,430	727,161	-0,073	-0,143
-606,415	-200,000	-0,031	-0,178
-605,401	-200,000	0,034	-0,168
-604,386	140,149	-0,022	0,021
-603,371	17,977	-0,109	0,063
-602,357	-200,000	-0,021	0,091
-601,342	681,124	0,097	0,185
-600,328	-135,887	-0,096	0,008
-599,313	-106,569	0,111	0,018
-598,298	800,000	-0,039	0,108
-597,284	-89,312	-0,092	0,020
-596,269	-130,915	0,161	-0,016
-595,255	-46,589	0,138	0,049
-594,240	-200,000	0,013	-0,046
-593,225	-116,095	0,061	-0,008
-592,211	213,163	0,064	-0,074
-591,196	-104,359	-0,075	0,013
-590,182	-200,000	0,003	0,171
-589,167	-200,000	0,010	-0,039
-588,152	-184,223	-0,162	-0,002
-587,138	-86,536	0,067	-0,015
-586,123	-62,852	-0,055	0,017
-585,109	-172,443	-0,133	-0,003
-584,094	-200,000	0,001	0,015
-583,079	131,462	0,101	0,095
-582,065	-200,000	0,024	-0,083
-581,050	-200,000	0,015	-0,148
-580,036	167,996	-0,025	-0,026
-579,021	82,586	-0,028	-0,022
-578,006	-200,000	-0,014	0,083
-576,992	543,525	0,070	-0,123
-575,977	-154,153	-0,077	-0,004
-574,963	800,000	-0,014	-0,036
-573,948	42,296	0,085	-0,056
-572,934	706,425	0,048	-0,092
-571,919	739,954	-0,037	-0,072
-570,904	23,230	-0,019	0,011
-569,890	-65,074	-0,119	0,035
-568,875	175,608	-0,052	0,055
-567,861	445,581	0,054	-0,086
-566,846	-101,322	0,095	-0,017
-565,831	-26,439	-0,030	0,013
-564,817	-24,211	0,105	-0,045
-563,802	-200,000	-0,035	-0,154
-562,788	197,237	0,064	-0,071
-561,773	-146,678	0,047	0,003
-560,758	-200,000	0,024	0,105
-559,744	109,813	-0,017	0,015
-558,729	-200,000	-0,000	0,098
-557,715	-150,956	0,073	-0,004
-556,700	-15,288	-0,067	-0,031
-555,685	224,237	-0,126	-0,149
-554,671	-156,823	0,110	0,005
-553,656	104,268	-0,037	0,031
-552,642	48,605	0,053	-0,036
-551,627	229,160	0,097	0,116
-550,612	19,792	0,138	0,081
-549,598	-94,269	-0,034	0,007
-548,583	33,141	0,026	-0,017
-547,569	113,189	0,062	0,055
-546,554	47,290	-0,069	0,047
-545,539	800,000	0,061	0,189
-544,525	800,000	0,005	0,010
-543,510	800,000	0,057	-0,147
-542,496	-155,150	0,097	-0,005
-541,481	521,389	0,103	-0,177
-540,466	-200,000	0,021	0,164
-539,452	-200,000	0,015	0,228
-538,437	-85,515	-0,138	0,031
-537,423	800,000	0,025	0,075
-536,408	1,938	0,077	-0,040
-535,393	42,772	0,036	-0,024
-534,379	-200,000	0,003	-0,099
-533,364	-38,167	0,070	-0,027
-532,350	-11,756	0,133	0,063
-531,335	-200,000	-0,018	0,065
-530,321	196,912	0,140	0,156
-529,306	216,414	-0,040	-0,046
-528,291	-127,206	-0,076	-0,008
-527,277	-33,916	0,151	-0,060
-526,262	-106,084	-0,072	0,012
-525,248	-166,664	-0,057	-0,002
-524,233	-47,741	0,179	0,063
-523,218	800,000	-0,060	-0,140
-522,204	-181,498	-0,062	-0,001
-521,189	110,082	-0,067	-0,059
-520,175	-76,962	-0,055	-0,014
-519,160	158,426	-0,029	-0,029
-518,145	69,844	0,031	0,023
-517,131	265,041	-0,008	-0,010
-516,116	-97,695	-0,053	0,010
-515,102	-108,351	-0,052	0,008
-514,087	800,000	-0,017	0,047
-513,072	439,531	-0,035	-0,055
-512,058	-19,551	0,013	0,006
-511,043	-200,000	0,022	-0,074
-510,029	337,481	-0,049	-0,070
-509,014	68,017	-0,106	0,079
-507,999	315,908	-0,042	0,059
-506,985	-38,307	-0,099	0,038
-505,970	-200,000	0,011	-0,057
-504,956	-200,000	0,009	-0,096
-503,941	190,857	0,072	0,079
-502,926	-200,000	0,003	0,032
-501,912	35,025	0,059	0,038
-500,897	35,495	0,107	0,069
-499,883	319,482	0,080	0,111
-498,868	-84,326	0,075	0,017
-497,853	-51,016	0,077	-0,026
-496,839	-200,000	0,002	0,015
-495,824	800,000	0,067	0,148
-494,810	-0,454	0,108	0,056
-493,795	280,355	0,074	0,097
-492,781	-22,001	-0,086	0,038
-491,766	113,447	0,044	0,039
-490,751	-44,638	-0,129	-0,046
-489,737	800,000	0,024	-0,062
-488,722	800,000	0,013	0,038
-487,708	475,895	0,052	-0,086
-486,693	-200,000	0,018	0,118
-485,678	-59,132	0,099	-0,031
-484,664	-200,000	0,001	0,013
-483,649	-131,627	-0,161	-0,015
-482,635	-200,000	0,010	-0,064
-481,620	30,956	0,028	0,017
-480,605	800,000	-0,025	0,079
-479,591	25,243	-0,066	0,040
-478,576	800,000	-0,023	0,072
-477,562	800,000	0,022	0,064
-476,547	-145,121	0,061	-0,004
-475,532	401,112	-0,092	0,142
-474,518	211,617	0,015	0,017
-473,503	8,867	0,092	0,050
-472,489	-24,912	-0,088	-0,038
-471,474	-81,154	0,047	-0,011
-470,459	-200,000	0,007	-0,035
-469,445	91,166	-0,223	0,182
-468,430	-125,191	0,059	0,007
-467,416	-90,169	0,084	0,018
-466,401	143,718	0,155	0,150
-465,386	68,489	-0,078	0,058
-464,372	49,042	0,025	0,017
-463,357	-100,300	-0,117	0,021
-462,343	-143,831	-0,053	0,004
-461,328	309,523	-0,062	-0,085
-460,313	161,032	0,055	0,056
-459,299	-200,000	-0,023	0,085
-458,284	-35,832	0,088	0,035
-457,270	-200,000	0,011	0,061
-456,255	76,305	-0,132	-0,102
-455,241	-200,000	0,026	-0,097
-454,226	216,554	-0,007	0,008
-453,211	-59,560	0,110	-0,034
-452,197	-119,392	0,075	-0,009
-451,182	44,057	0,035	0,024
-450,168	152,437	0,097	-0,096
-449,153	12,403	-0,116	-0,065
-448,138	800,000	-0,054	-0,171
-447,124	-140,413	-0,030	0,002
-446,109	-200,000	-0,011	-0,044
-445,095	-45,061	-0,101	-0,036
-444,080	-148,680	-0,092	-0,005
-443,065	-127,113	-0,094	-0,010
-442,051	800,000	-0,044	0,107
-441,036	-200,000	0,019	-0,182
-440,022	-3,310	-0,071	-0,036
-439,007	-188,542	0,148	0,001
-437,992	633,908	0,081	0,151
-436,978	165,112	0,069	0,071
-435,963	-200,000	0,014	0,071
-434,949	73,482	0,052	0,039
-433,934	123,489	-0,007	-0,006
-432,919	123,500	-0,042	-0,038
-431,905	-200,000	-0,030	0,106
-430,890	102,689	-0,084	-0,071
-429,876	179,173	0,071	-0,076
-428,861	800,000	-0,008	-0,021
-427,846	222,918	0,037	0,043
-426,832	112,951	-0,125	-0,110
-425,817	-146,888	-0,050	-0,003
-424,803	91,681	0,063	-0,052
-423,788	800,000	0,033	-0,090
-422,773	-171,793	-0,143	-0,003
-421,759	58,300	0,013	0,009
-420,744	800,000	-0,052	0,121
-419,730	12,170	-0,094	-0,052
-418,715	162,642	0,078	-0,079
-417,701	-90,761	0,040	0,008
-416,686	257,837	0,051	-0,064
-415,671	485,648	-0,044	-0,073
-414,657	-200,000	0,004	-0,028
-413,642	503,975	0,037	0,062
-412,628	800,000	-0,015	-0,032
-411,613	89,978	-0,138	0,112
-410,598	-200,000	-0,020	-0,095
-409,584	-100,694	0,068	-0,012
-408,569	2,185	-0,011	-0,006
-407,555	-200,000	-0,011	0,047
-406,540	-200,000	0,001	0,069
-405,525	-44,697	0,017	0,006
-404,511	-200,000	-0,027	-0,092
-403,496	-24,912	0,022	-0,009
-402,482	800,000	0,023	-0,058
-401,467	-200,000	0,021	0,193
-400,452	-200,000	-0,037	0,123
-399,438	-200,000	0,002	0,047
-398,423	-38,790	-0,076	-0,029
-397,409	-189,423	0,083	0,001
-396,394	-200,000	0,013	0,092
-395,379	-200,000	0,007	0,038
-394,365	-200,000	0,005	-0,031
-393,350	29,464	0,152	0,094
-392,336	-64,534	-0,152	-0,045
-391,321	-6,236	-0,099	-0,049
-390,306	-200,000	0,008	-0,100
-389,292	-18,972	-0,041	-0,018
-388,277	50,794	-0,053	-0,037
-387,263	-119,154	-0,111	0,014
-386,248	444,924	-0,067	0,107
-385,233	49,992	0,063	-0,043
-384,219	-68,288	-0,045	-0,013
-383,204	-129,247	0,092	-0,009
-382,190	-183,067	-0,044	0,001
-381,175	-56,454	0,047	-0,015
-380,160	-104,525	0,133	0,022
-379,146	-200,000	-0,021	0,086
-378,131	13,324	0,016	-0,009
-377,117	800,000	-0,022	-0,048
-376,102	-112,427	0,123	0,018
-375,088	-158,372	-0,169	-0,007
-374,073	-200,000	-0,027	0,104
-373,058	-200,000	0,046	-0,161
-372,044	316,416	-0,106	0,145
-371,029	-200,000	0,002	0,056
-370,015	97,522	0,069	-0,057
-369,000	4,068	-0,103	0,054
-367,985	197,713	-0,051	-0,056
-366,971	-200,000	0,001	0,101
-365,956	-200,000	0,001	-0,099
-364,942	-97,158	0,092	0,017
-363,927	-52,740	-0,096	0,032
-362,912	378,493	0,100	0,149
-361,898	-103,412	0,030	-0,005
-360,883	25,606	-0,098	-0,059
-359,869	23,607	-0,022	0,013
-358,854	70,550	-0,077	-0,058
-357,839	-6,110	0,029	0,014
-356,825	-200,000	0,000	-0,210
-355,810	371,861	0,071	0,105
-354,796	-146,840	0,100	-0,006
-353,781	129,276	0,053	-0,049
-352,766	147,730	-0,022	-0,021
-351,752	156,998	0,068	-0,068
-350,737	75,477	0,125	-0,096
-349,723	800,000	0,010	0,028
-348,708	800,000	0,036	0,087
-347,693	-0,013	-0,060	-0,031
-346,679	-51,271	-0,086	0,029
-345,664	-200,000	-0,007	-0,076
-344,650	-14,733	0,134	-0,062
-343,635	-200,000	-0,007	0,050
-342,620	751,623	0,027	0,052
-341,606	24,797	-0,031	0,019
-340,591	800,000	-0,046	0,142
-339,577	15,107	-0,022	0,013
-338,562	-200,000	-0,008	-0,044
-337,548	42,813	0,029	-0,019
-336,533	800,000	-0,066	0,183
-335,518	-200,000	-0,018	0,070
-334,504	61,052	0,098	0,071
-333,489	598,693	-0,050	0,091
-332,475	-3,791	-0,067	-0,034
-331,460	41,260	-0,069	0,045
-330,445	12,075	0,089	-0,049
-329,431	46,605	0,142	-0,096
-328,416	61,400	-0,148	-0,107
-327,402	-5,248	0,134	-0,067
-326,387	-147,286	-0,114	-0,007
-325,372	521,003	-0,041	-0,069
-324,358	30,433	-0,108	-0,066
-323,343	47,655	0,082	-0,055
-322,329	56,401	0,103	-0,072
-321,314	411,683	-0,028	-0,043
-320,299	603,081	0,037	-0,067
-319,285	327,055	0,096	0,133
-318,270	117,524	0,083	-0,074
-317,256	54,491	0,030	0,021
-316,241	165,706	-0,077	0,079
-315,226	157,747	-0,038	0,038
-314,212	303,676	0,085	0,114
-313,197	175,456	-0,059	0,062
-312,183	-200,000	-0,006	0,028
-311,168	107,962	-0,064	-0,055
-310,153	208,866	-0,100	-0,113
-309,139	444,605	0,016	-0,025
-308,124	-119,876	0,095	0,012
-307,110	-200,000	0,013	0,042
-306,095	-126,951	0,067	0,007
-305,080	-63,729	-0,022	-0,006
-304,066	-200,000	-0,018	0,084
-303,051	145,094	-0,057	-0,055
-302,037	83,736	0,084	0,066
-301,022	73,739	0,056	0,042
-300,008	-117,189	-0,086	0,011
-298,993	74,670	0,101	0,077
-297,978	-200,000	0,019	-0,071
-296,964	375,389	0,085	0,126
-295,949	-149,650	0,203	0,011
-294,935	-94,894	-0,074	0,014
-293,920	800,000	-0,011	-0,026
-292,905	119,484	0,081	0,072
-291,891	-200,000	0,018	0,145
-290,876	273,026	0,082	-0,105
-289,862	-43,252	-0,098	-0,036
-288,847	452,993	-0,060	-0,097
-287,832	-200,000	0,015	-0,100
-286,818	-200,000	-0,017	0,054
-285,803	92,630	-0,067	0,055
-284,789	800,000	0,069	0,145
-283,774	-80,720	0,032	-0,008
-282,759	122,870	-0,034	0,031
-281,745	-22,522	-0,015	-0,007
-280,730	196,543	0,063	0,069
-279,716	216,696	0,094	-0,108
-278,701	-90,784	0,100	-0,021
-277,686	800,000	0,046	-0,134
-276,672	800,000	-0,055	0,124
-275,657	-170,908	0,073	0,002
-274,643	-38,638	0,079	0,030
-273,628	-200,000	0,010	0,037
-272,613	-171,551	-0,014	0,000
-271,599	-200,000	-0,003	0,019
-270,584	-200,000	0,014	0,097
-269,570	-200,000	-0,006	0,098
-268,555	-200,000	0,008	-0,076
-267,540	-200,000	-0,000	0,024
-266,526	132,800	-0,041	0,039
-265,511	64,405	-0,072	0,052
-264,497	-200,000	-0,022	-0,080
-263,482	38,764	0,158	-0,101
-262,467	84,942	-0,114	0,090
-261,453	-47,546	-0,099	0,034
-260,438	-64,172	-0,040	-0,012
-259,424	-61,890	-0,050	0,015
-258,409	532,593	-0,047	-0,081
-257,395	-200,000	-0,003	-0,022
-256,380	-19,196	0,088	0,039
-255,365	151,301	-0,029	-0,029
-254,351	800,000	0,054	-0,132
-253,336	-200,000	0,009	-0,086
-252,322	800,000	0,046	-0,107
-251,307	226,147	-0,094	-0,111
-250,292	-91,972	-0,106	-0,021
-249,278	-104,442	0,072	-0,012
-248,263	587,123	0,013	-0,023
-247,249	-41,381	0,081	0,030
-246,234	-200,000	-0,008	-0,055
-245,219	15,871	-0,049	-0,028
-244,205	-135,201	0,035	0,003
-243,190	-170,592	-0,099	0,002
-242,176	55,999	0,063	0,044
-241,161	95,076	-0,052	0,042
-240,146	271,156	0,040	-0,051
-239,132	10,282	0,044	-0,024
-238,117	-102,596	-0,227	-0,039
-237,103	33,017	0,052	-0,032
-236,088	425,238	0,010	-0,015
-235,073	-39,965	-0,118	0,044
-234,059	-200,000	0,024	0,169
-233,044	800,000	-0,024	-0,059
-232,030	220,217	-0,067	-0,078
-231,015	303,545	-0,122	-0,163
-230,000	-139,860	0,062	0,005
-228,986	161,062	-0,045	-0,045
-227,971	-200,000	0,016	0,113
-226,957	107,074	0,173	0,148
-225,942	-200,000	0,021	0,075
-224,927	800,000	0,023	0,054
-223,913	800,000	-0,061	0,139
-222,898	201,293	-0,082	-0,091
-221,884	124,115	-0,038	-0,034
-220,869	-155,831	-0,051	0,002
-219,855	-20,710	0,077	0,034
-218,840	-200,000	-0,006	-0,062
-217,825	-200,000	0,005	-0,137
-216,811	-99,342	0,070	0,013
-215,796	71,050	-0,086	0,064
-214,782	23,480	0,157	0,093
-213,767	118,490	-0,117	0,104
-212,752	-200,000	-0,013	0,041
-211,738	800,000	0,035	-0,109
-210,723	203,339	0,047	0,053
-209,709	-18,534	-0,131	0,059
-208,694	-31,534	-0,125	0,050
-207,679	-166,288	-0,076	-0,002
-206,665	126,625	0,060	-0,055
-205,650	4,746	0,030	-0,016
-204,636	-82,456	0,104	0,024
-203,621	800,000	-0,042	0,113
-202,606	-3,487	-0,042	0,021
-201,592	-200,000	0,000	-0,132
-200,577	136,299	-0,056	-0,053
-199,563	-93,388	-0,113	-0,022
-198,548	800,000	-0,038	-0,094
-197,533	145,236	0,092	0,088
-196,519	547,892	-0,022	0,038
-195,504	-128,393	0,078	-0,008
-194,490	-200,000	-0,014	-0,046
-193,475	-76,947	-0,149	-0,037
-192,460	166,960	-0,098	0,100
-191,446	111,780	0,117	-0,102
-190,431	-200,000	-0,005	0,145
-189,417	-93,873	-0,222	0,044
-188,402	800,000	0,023	-0,069
-187,387	245,104	-0,047	-0,057
-186,373	102,603	0,081	-0,068
-185,358	-120,708	-0,061	-0,007
-184,344	-141,458	-0,073	0,005
-183,329	46,222	0,052	-0,035
-182,315	136,138	-0,047	0,044
-181,300	-200,000	0,015	-0,112
-180,285	-138,100	-0,127	-0,010
-179,271	-200,000	-0,062	-0,211
-178,256	710,836	-0,003	0,005
-177,242	-200,000	0,028	0,113
-176,227	296,027	0,037	-0,049
-175,212	-200,000	-0,047	-0,159
-174,198	-97,115	0,056	-0,010
-173,183	-72,984	-0,005	0,001
-172,169	800,000	-0,026	-0,057
-171,154	-200,000	-0,003	-0,048
-170,139	50,876	0,151	0,103
-169,125	791,039	-0,064	0,128
-168,110	-200,000	-0,016	0,174
-167,096	15,795	0,047	0,027
-166,081	88,756	-0,077	-0,062
-165,066	-127,588	-0,130	0,013
-164,052	800,000	-0,002	-0,006
-163,037	-45,139	0,036	-0,013
-162,023	-200,000	-0,010	-0,168
-161,008	177,069	0,131	0,137
-159,993	187,416	-0,097	-0,104
-158,979	-200,000	-0,003	-0,119
-157,964	322,080	-0,070	0,096
-156,950	-200,000	-0,002	0,052
-155,935	-200,000	-0,025	0,102
-154,920	129,188	0,079	0,073
-153,906	-55,068	0,161	0,052
-152,891	-20,485	-0,076	-0,033
-151,877	-200,000	0,022	0,082
-150,862	-57,411	0,025	0,008
-149,847	-100,545	-0,133	-0,023
-148,833	-40,485	0,083	0,031
-147,818	-200,000	0,008	0,049
-146,804	189,917	0,018	0,020
-145,789	-200,000	-0,051	0,182
-144,775	-200,000	0,010	-0,032
-143,760	-200,000	-0,025	-0,111
-142,745	44,190	0,072	-0,047
-141,731	-199,374	-0,107	-0,000
-140,716	-94,249	0,090	-0,018
-139,702	-67,322	-0,080	0,022
-138,687	-200,000	0,002	0,108
-137,672	205,125	0,035	0,039
-136,658	800,000	0,017	-0,038
-135,643	9,450	-0,082	0,044
-134,629	655,974	-0,032	0,059
-133,614	241,565	-0,067	-0,081
-132,599	52,797	0,098	-0,067
-131,585	293,808	0,056	-0,074
-130,570	-73,254	0,079	-0,021
-129,556	238,326	-0,128	0,153
-128,541	-111,662	-0,120	-0,017
-127,526	10,534	0,164	0,089
-126,512	800,000	0,045	0,125
-125,497	-200,000	-0,000	0,036
-124,483	-200,000	-0,000	0,010
-123,468	-200,000	-0,018	0,224
-122,453	-200,000	-0,014	0,064
-121,439	135,765	0,076	-0,071
-120,424	186,937	-0,045	-0,049
-119,410	-91,108	-0,051	-0,010
-118,395	575,813	0,066	0,116
-117,380	-200,000	-0,036	0,115
-116,366	327,858	-0,079	-0,109
-115,351	-43,963	0,117	0,042
-114,337	800,000	-0,037	-0,082
-113,322	-34,790	-0,087	-0,034
-112,307	-63,009	-0,107	0,032
-111,293	800,000	0,032	-0,089
-110,278	-70,203	-0,065	-0,017
-109,264	-200,000	-0,012	0,111
-108,249	-16,892	-0,042	-0,019
-107,234	-193,174	0,112	0,001
-106,220	800,000	-0,045	-0,135
-105,205	281,518	-0,037	-0,048
-104,191	800,000	-0,032	-0,081
-103,176	450,211	0,048	0,076
-102,162	-55,486	-0,029	0,009
-101,147	800,000	-0,045	0,128
-100,132	-200,000	0,019	-0,063
-99,118	-29,832	0,059	-0,024
-98,103	91,362	0,149	-0,120
-97,089	404,038	-0,067	-0,101
-96,074	-137,985	-0,123	-0,010
-95,059	-34,432	0,050	0,019
-94,045	800,000	0,011	-0,029
-93,030	217,079	-0,029	0,034
-92,016	373,249	0,061	-0,089
-91,001	283,146	0,019	-0,024
-89,986	430,468	0,008	0,013
-88,972	-200,000	-0,013	-0,058
-87,957	-200,000	0,016	-0,050
-86,943	-200,000	0,000	-0,015
-85,928	183,278	-0,115	-0,122
-84,913	-200,000	0,010	-0,034
-83,899	-79,335	-0,063	-0,015
-82,884	800,000	-0,064	0,144
-81,870	14,700	-0,087	0,048
-80,855	-200,000	0,024	0,106
-79,840	-54,599	-0,065	0,021
-78,826	692,049	-0,046	-0,088
-77,811	-139,189	-0,178	-0,014
-76,797	-134,880	0,109	-0,009
-75,782	102,383	0,036	-0,030
-74,767	31,845	-0,053	0,032
-73,753	-200,000	-0,012	-0,069
-72,738	-33,217	0,145	-0,057
-71,724	-200,000	0,012	0,096
-70,709	435,793	0,040	0,063
-69,694	744,675	-0,069	0,133
-68,680	225,535	0,029	0,034
-67,665	230,696	-0,019	0,022
-66,651	-21,677	0,055	0,024
-65,636	233,391	0,031	0,036
-64,622	-200,000	0,008	0,091
-63,607	280,160	-0,061	0,079
-62,592	-80,815	0,115	0,027
-61,578	69,577	0,063	0,046
-60,563	800,000	-0,041	0,084
-59,549	-200,000	0,003	-0,021
-58,534	12,212	-2,243	-1,233
-57,519	-200,000	-0,120	-0,675
-56,505	-200,000	-1,373	-5,097
-55,490	55,642	0,938	0,649
-54,476	800,000	5,340	12,252
-53,461	-200,000	18,980	321,739
-52,446	800,000	742,615	2332,017
-51,432	554,001	1656,749	2863,168
-50,417	111,241	1639,884	1414,123
-49,403	75,143	1289,660	972,024
-48,388	29,994	1030,631	627,455
-47,373	19,717	993,470	570,849
-46,359	17,060	981,138	555,013
-45,344	13,701	977,477	541,892
-44,330	13,972	975,861	541,866
-43,315	13,358	973,979	538,785
-42,300	13,330	972,914	538,085
-41,286	13,324	971,767	537,410
-40,271	13,341	971,026	537,035
-39,257	13,304	970,181	536,424
-38,242	13,282	969,257	535,822
-37,227	13,332	968,441	535,511
-36,213	13,257	967,328	534,632
-35,198	13,252	966,594	534,189
-34,184	13,327	965,877	534,014
-33,169	13,250	965,075	533,298
-32,154	13,330	964,031	532,962
-31,140	13,319	963,128	532,404
-30,125	13,305	962,343	531,904
-29,111	13,314	961,396	531,390
-28,096	13,395	960,792	531,296
-27,082	13,250	960,213	530,485
-26,067	13,342	959,305	530,259
-25,052	13,352	958,591	529,878
-24,038	13,326	957,966	529,426
-23,023	13,280	957,418	528,953
-22,009	13,330	956,850	528,780
-20,994	13,365	956,197	528,511
-19,979	13,334	955,533	528,023
-18,965	13,256	955,021	527,468
-17,950	13,368	954,272	527,394
-16,936	13,294	953,605	526,769
-15,921	13,290	952,965	526,379
-14,906	13,311	952,089	525,942
-13,892	13,246	951,780	525,543
-12,877	13,205	950,927	524,921
-11,863	13,166	950,381	524,474
-10,848	13,201	949,887	524,291
-9,833	13,383	949,193	524,467
-8,819	13,259	948,668	523,763
-7,804	13,232	947,814	523,184
-6,790	13,237	947,257	522,872
-5,775	13,228	946,933	522,644
-4,760	13,234	946,294	522,288
-3,746	13,205	945,712	521,854
-2,731	13,070	944,991	521,007
-1,717	13,035	944,275	520,481
-0,702	13,068	943,534	520,158
0,313	12,880	942,803	519,942
1,327	16,362	940,549	529,657
2,342	25,687	794,600	472,160
3,356	21,980	459,397	267,287
4,371	-5,338	317,368	155,376
5,386	-9,154	299,432	142,685
6,400	-11,114	293,152	137,718
7,415	-11,331	290,680	136,329
8,429	-11,559	288,922	135,268
9,444	-11,719	288,167	134,745
10,459	-11,705	287,592	134,477
11,473	-11,754	287,028	134,154
12,488	-11,679	286,424	133,933
13,502	-11,766	285,783	133,537
14,517	-11,777	285,541	133,401
15,531	-11,436	284,981	133,459
16,546	-11,643	284,798	133,160
17,561	-11,484	284,273	133,057
18,575	-11,374	284,120	133,080
19,590	-11,630	283,663	132,607
20,604	-11,277	283,305	132,768
21,619	-11,601	283,132	132,363
22,634	-11,487	282,621	132,222
23,648	-11,632	282,221	131,883
24,663	-11,590	281,935	131,779
25,677	-11,534	281,793	131,754
26,692	-11,463	281,588	131,714
27,707	-11,750	281,478	131,375
28,721	-11,596	280,975	131,277
29,736	-11,390	280,533	131,256
30,750	-11,784	280,454	130,830
31,765	-11,557	280,058	130,851
32,780	-11,574	279,902	130,750
33,794	-11,606	279,599	130,566
34,809	-11,550	279,304	130,470
35,823	-11,689	279,171	130,264
36,838	-11,640	278,895	130,171
37,853	-11,723	278,649	129,965
38,867	-11,827	278,532	129,801
39,882	-11,672	278,150	129,758
40,896	-11,659	277,954	129,668
41,911	-11,656	277,657	129,519
42,926	-11,567	277,485	129,512
43,940	-11,585	277,171	129,337
44,955	-11,718	277,007	129,124
45,969	-11,711	276,627	128,941
46,984	-11,675	276,518	128,913
47,999	-11,765	276,285	128,708
49,013	-11,713	276,100	128,660
50,028	-11,760	275,744	128,438
51,042	-11,852	275,473	128,214
52,057	-11,929	275,397	128,095
53,071	-11,889	275,139	128,001
54,086	-11,770	274,815	127,950
55,101	-11,763	274,685	127,885
56,115	-11,664	274,490	127,875
57,130	-11,581	274,251	127,829
58,144	-11,539	274,017	127,748
59,159	-11,892	273,800	127,307
60,174	-11,706	273,589	127,371
61,188	-11,717	273,351	127,238
62,203	-11,507	273,071	127,292
63,217	-11,635	272,738	127,006
64,232	-11,560	272,494	126,951
65,247	-11,716	272,309	126,709
66,261	-11,657	272,065	126,638
67,276	-11,623	271,788	126,530
68,290	-11,873	271,753	126,272
69,305	-11,582	271,571	126,444
70,320	-11,772	271,402	126,180
71,334	-11,486	270,944	126,217
72,349	-11,702	270,807	125,944
73,363	-11,689	270,549	125,825
74,378	-11,670	270,379	125,752
75,393	-11,758	270,275	125,612
76,407	-11,500	269,994	125,706
77,422	-11,697	269,809	125,429
78,436	-11,745	269,507	125,233
79,451	-11,504	269,244	125,320
80,466	-11,834	269,196	124,985
81,480	-11,566	268,826	125,047
82,495	-11,821	268,699	124,744
83,509	-11,734	268,559	124,747
84,524	-11,771	268,388	124,623
85,539	-11,724	268,035	124,491
86,553	-11,762	267,778	124,326
87,568	-11,698	267,562	124,272
88,582	-11,518	267,358	124,330
89,597	-11,699	267,084	124,028
90,611	-11,843	266,968	123,832
91,626	-11,723	266,844	123,872
92,641	-11,647	266,564	123,800
93,655	-11,339	266,325	123,956
94,670	-11,574	265,977	123,571
95,684	-11,593	265,865	123,491
96,699	-11,772	265,661	123,224
97,714	-11,656	265,579	123,279
98,728	-11,606	265,380	123,221
99,743	-11,697	265,142	123,017
100,757	-11,655	264,828	122,898
101,772	-11,671	264,698	122,813
102,787	-11,726	264,574	122,695
103,801	-11,629	264,343	122,664
104,816	-11,769	264,171	122,448
105,830	-11,723	263,903	122,354
106,845	-11,693	263,790	122,318
107,860	-11,669	263,458	122,174
108,874	-11,464	263,296	122,270
109,889	-11,794	263,226	121,933
110,903	-11,815	262,863	121,736
111,918	-11,667	262,668	121,766
112,933	-11,769	262,558	121,613
113,947	-11,777	262,180	121,420
114,962	-11,665	262,063	121,455
115,976	-11,736	262,041	121,371
116,991	-11,685	261,703	121,249
118,006	-11,789	261,737	121,162
119,020	-11,573	261,313	121,145
120,035	-11,721	261,293	120,995
121,049	-11,601	260,968	120,939
122,064	-11,492	260,918	121,001
123,079	-11,657	260,654	120,723
124,093	-11,679	260,423	120,585
125,108	-11,507	260,277	120,659
126,122	-11,673	260,069	120,405
127,137	-11,542	259,847	120,407
128,151	-11,647	259,717	120,243
129,166	-11,620	259,484	120,149
130,181	-11,564	259,258	120,083
131,195	-11,640	259,010	119,891
132,210	-11,864	258,926	119,645
133,224	-11,596	258,686	119,757
134,239	-11,622	258,536	119,654
135,254	-11,740	258,229	119,399
136,268	-11,788	257,933	119,209
137,283	-11,897	257,851	119,066
138,297	-11,699	257,646	119,133
139,312	-11,625	257,411	119,078
140,327	-11,453	257,311	119,171
141,341	-11,452	257,126	119,075
142,356	-11,590	256,911	118,845
143,370	-11,446	256,841	118,927
144,385	-11,418	256,689	118,871
145,400	-11,376	256,357	118,743
146,414	-11,431	256,234	118,628
147,429	-11,556	256,069	118,432
148,443	-11,422	255,831	118,428
149,458	-11,690	255,522	118,043
150,473	-11,534	255,465	118,140
151,487	-11,583	255,229	117,979
152,502	-11,314	254,991	118,089
153,516	-11,346	254,842	117,982
154,531	-11,576	254,774	117,743
155,546	-11,542	254,593	117,678
156,560	-11,511	254,383	117,597
157,575	-11,646	254,265	117,416
158,589	-11,775	253,976	117,162
159,604	-11,430	253,749	117,342
160,619	-11,417	253,717	117,327
161,633	-11,414	253,536	117,236
162,648	-11,250	253,390	117,298
163,662	-11,643	253,160	116,846
164,677	-11,555	252,862	116,772
165,692	-11,587	252,799	116,706
166,706	-11,454	252,647	116,739
167,721	-11,453	252,495	116,659
168,735	-11,330	252,316	116,670
169,750	-11,544	252,225	116,436
170,764	-11,595	251,929	116,245
171,779	-11,463	251,821	116,297
172,794	-11,381	251,641	116,273
173,808	-11,516	251,337	116,008
174,823	-11,713	251,294	115,811
175,837	-11,678	250,951	115,672
176,852	-11,815	250,997	115,567
177,867	-11,771	250,802	115,505
178,881	-11,670	250,638	115,504
179,896	-11,401	250,425	115,622
180,910	-11,429	250,184	115,477
181,925	-11,596	250,131	115,302
182,940	-11,534	249,811	115,196
183,954	-11,479	249,675	115,169
184,969	-11,273	249,487	115,245
185,983	-11,462	249,499	115,082
186,998	-11,285	249,250	115,105
188,013	-11,280	249,039	115,001
189,027	-11,498	248,960	114,772
190,042	-11,491	248,643	114,622
191,056	-11,811	248,450	114,256
192,071	-11,635	248,187	114,271
193,086	-11,661	248,055	114,178
194,100	-11,633	247,922	114,130
195,115	-11,655	247,839	114,064
196,129	-11,188	247,438	114,257
197,144	-11,405	247,235	113,973
198,159	-11,669	247,280	113,764
199,173	-11,657	246,986	113,630
200,188	-11,598	246,795	113,580
201,202	-11,628	246,576	113,444
202,217	-11,995	246,530	113,109
203,232	-11,798	246,257	113,136
204,246	-11,511	246,045	113,266
205,261	-11,507	245,947	113,215
206,275	-11,517	245,812	113,134
207,290	-9,717	246,390	114,878
208,304	-6,257	247,390	118,202
209,319	-3,350	248,198	120,991
210,334	-2,840	248,461	121,532
211,348	-1,795	248,444	122,380
212,363	-1,284	248,391	122,767
213,377	-0,918	248,459	123,093
214,392	-0,656	248,472	123,306
215,407	-0,626	248,477	123,322
216,421	-0,708	248,279	123,145
217,436	-0,557	247,990	123,116
218,450	-0,637	247,707	122,899
219,465	-0,542	247,502	122,863
220,480	-0,862	247,491	122,584
221,494	-0,619	247,258	122,657
222,509	-0,820	247,187	122,446
223,523	-0,767	246,897	122,334
224,538	-0,675	246,641	122,273
225,553	-0,852	246,537	122,064
226,567	-0,946	246,452	121,934
227,582	-0,716	246,185	121,980
228,596	-0,517	245,982	122,032
229,611	-0,778	246,042	121,837
230,626	-0,732	245,701	121,695
231,640	-0,786	245,590	121,584
232,655	-0,907	245,610	121,484
233,669	-0,789	245,269	121,402
234,684	-0,717	244,996	121,315
235,699	-0,903	244,928	121,118
236,713	-0,629	244,853	121,293
237,728	-0,881	244,706	121,004
238,742	-0,824	244,601	120,988
239,757	-0,615	244,360	121,028
240,772	-0,844	244,085	120,695
241,786	-0,768	243,973	120,691
242,801	-0,767	243,849	120,619
243,815	-0,899	243,765	120,460
244,830	-0,764	243,637	120,495
245,844	-0,781	243,415	120,361
246,859	-0,721	243,161	120,273
247,874	-0,934	243,006	120,014
248,888	-0,846	242,861	120,003
249,903	-0,880	242,684	119,877
250,917	-0,738	242,593	119,936
251,932	-0,605	242,239	119,857
252,947	-0,700	242,160	119,731
253,961	-0,722	241,977	119,612
254,976	-0,751	241,896	119,538
255,990	-0,863	241,755	119,368
257,005	-0,964	241,544	119,172
258,020	-0,890	241,508	119,203
259,034	-0,710	241,178	119,174
260,049	-0,634	241,087	119,179
261,063	-0,704	240,838	118,989
262,078	-0,864	240,861	118,862
263,093	-0,815	240,541	118,733
264,107	-0,617	240,465	118,842
265,122	-0,719	240,217	118,629
266,136	-0,673	240,149	118,620
267,151	-0,775	240,058	118,483
268,166	-0,778	239,785	118,336
269,180	-0,711	239,623	118,299
270,195	-0,855	239,593	118,159
271,209	-0,828	239,353	118,052
272,224	-0,719	239,235	118,070
273,239	-0,852	239,085	117,880
274,253	-0,712	238,928	117,903
275,268	-0,742	238,731	117,771
276,282	-0,563	238,379	117,728
277,297	-0,812	238,448	117,555
278,312	-0,786	238,404	117,543
279,326	-0,714	238,137	117,458
280,341	-0,697	238,071	117,429
281,355	-0,751	237,958	117,320
282,370	-0,634	237,756	117,302
283,384	-0,854	237,549	117,016
284,399	-0,708	237,417	117,056
285,414	-0,636	237,228	117,009
286,428	-0,561	237,208	117,047
287,443	-0,814	237,088	116,779
288,457	-0,822	236,880	116,659
289,472	-0,771	236,639	116,571
290,487	-0,413	236,439	116,742
291,501	-0,735	236,428	116,474
292,516	-0,758	236,204	116,335
293,530	-0,667	236,036	116,313
294,545	-0,533	235,917	116,349
295,560	-0,565	235,668	116,191
296,574	-0,725	235,704	116,073
297,589	-0,556	235,389	116,040
298,603	-0,521	235,149	115,938
299,618	-0,689	235,095	115,770
300,633	-0,758	235,039	115,679
301,647	-0,607	234,928	115,732
302,662	-0,561	234,713	115,651
303,676	-0,625	234,699	115,584
304,691	-0,369	234,312	115,582
305,706	-0,594	234,267	115,375
306,720	-0,463	234,040	115,354
307,735	-0,550	234,022	115,267
308,749	-0,571	234,015	115,238
309,764	-0,410	233,702	115,198
310,779	-0,474	233,645	115,110
311,793	-0,364	233,338	115,033
312,808	-0,577	233,363	114,871
313,822	-0,508	233,090	114,779
314,837	-0,445	232,829	114,689
315,852	-0,457	232,821	114,666
316,866	-0,395	232,606	114,597
317,881	-0,388	232,530	114,555
318,895	-0,649	232,363	114,262
319,910	-0,245	231,984	114,375
320,925	-0,441	231,923	114,185
321,939	-0,429	231,964	114,204
322,954	-0,270	231,839	114,254
323,968	-0,332	231,664	114,110
324,983	-0,176	231,450	114,114
325,997	-0,434	231,275	113,820
327,012	-0,264	231,045	113,827
328,027	-0,273	231,084	113,829
329,041	-0,168	230,930	113,822
330,056	-0,201	230,650	113,650
331,070	-0,317	230,711	113,581
332,085	-0,312	230,483	113,463
333,100	-0,136	230,321	113,507
334,114	-0,020	230,148	113,499
335,129	-0,201	229,958	113,258
336,143	-0,245	229,844	113,159
337,158	-0,175	229,680	113,121
338,173	-0,237	229,540	112,994
339,187	-0,186	229,473	112,991
340,202	-0,210	229,326	112,890
341,216	-0,066	229,120	112,887
342,231	-0,126	228,991	112,768
343,246	-0,204	228,803	112,607
344,260	-0,063	228,757	112,680
345,275	0,066	228,714	112,747
346,289	0,120	228,385	112,615
347,304	-0,164	228,255	112,327
348,319	-0,194	228,196	112,265
349,333	-0,203	228,055	112,179
350,348	0,006	227,774	112,187
351,362	-0,240	227,670	111,942
352,377	0,022	227,611	112,099
353,392	-0,100	227,477	111,932
354,406	0,076	227,425	112,028
355,421	196,272	1318,168	1393,327
356,435	157,418	1451,014	1393,285
