DTS Sentinel unit serial number:	SN410029Multiplexer serial number:	ORYXHardware model number:	OX2-SRSoftware version number:	ORYX F/W v4,00 Oryx Data Collector v3.7.2.0data status	okinstallation	B5 Nyhavnadifferential loss correction	single-endedforward channel	channel 2reverse channel	N/Adate	2023/12/13time	16:12:13forward acquisition time	300,00reverse acquisition time	0,00gamma	499,1914k internal	0,3160k external	0,3160temperature offset calibration	1,0000default loss term (dB/km)	0,3820temperature slope calibration	1,0000multiplexer offset coefficient	1,0000multiplexer slope coefficient	1,0000fibre end	0,00T internal ref (°C)	14,87T ext. ref 1 (°C)	-1,78T ext. ref 2 (°C)	-2,00length (m)	temperature (°C)	Stokes	anti-Stokes-744,400	8,466	0,086	0,048
-743,385	-165,729	-0,375	0,012
-742,371	24,471	0,103	0,062
-741,356	-25,502	-0,280	0,121
-740,342	-107,904	0,176	0,028
-739,327	-60,352	-0,390	-0,122
-738,312	-58,275	0,065	-0,021
-737,298	-59,931	-0,282	-0,088
-736,283	309,944	0,064	-0,088
-735,269	-181,082	-0,243	0,003
-734,254	-102,820	0,136	-0,024
-733,239	-12,744	-0,531	-0,254
-732,225	-129,283	0,205	-0,021
-731,210	-200,000	-0,030	0,105
-730,196	-80,256	0,033	-0,008
-729,181	379,233	-0,039	-0,059
-728,167	-150,603	-0,116	0,006
-727,152	220,037	-0,044	-0,052
-726,137	223,710	-0,183	-0,218
-725,123	-84,266	0,074	-0,017
-724,108	-54,211	-0,089	-0,030
-723,094	81,078	-0,044	-0,035
-722,079	93,867	-0,038	-0,032
-721,064	-32,950	-0,088	0,036
-720,050	-53,783	-0,096	0,032
-719,035	224,554	-0,038	-0,045
-718,021	127,880	-0,106	-0,099
-717,006	-200,000	0,020	-0,107
-715,991	-200,000	0,041	-0,158
-714,977	-200,000	-0,010	-0,183
-713,962	391,583	-0,061	-0,093
-712,948	137,556	-0,073	0,071
-711,933	240,846	-0,080	-0,098
-710,918	-200,000	-0,003	-0,066
-709,904	5,842	-0,052	0,028
-708,889	-200,000	-0,014	-0,082
-707,875	-200,000	0,013	-0,104
-706,860	213,833	0,105	-0,122
-705,845	-173,159	-0,195	-0,004
-704,831	457,086	0,092	0,152
-703,816	215,826	-0,084	0,099
-702,802	800,000	0,059	-0,126
-701,787	394,565	-0,052	-0,080
-700,772	-36,200	0,054	-0,021
-699,758	-200,000	-0,023	-0,135
-698,743	43,296	0,076	-0,051
-697,729	132,863	0,060	-0,057
-696,714	-200,000	-0,012	-0,049
-695,699	800,000	-0,079	-0,193
-694,685	-98,511	-0,078	-0,015
-693,670	-135,614	-0,138	0,012
-692,656	800,000	-0,019	-0,059
-691,641	-60,427	0,121	-0,038
-690,627	37,014	-0,085	0,055
-689,612	251,529	0,044	0,055
-688,597	-200,000	-0,001	-0,121
-687,583	44,002	-0,112	-0,076
-686,568	-183,716	-0,047	0,001
-685,554	-161,854	-0,116	0,004
-684,539	178,081	-0,036	0,038
-683,524	-200,000	0,024	-0,106
-682,510	94,932	-0,044	0,037
-681,495	800,000	-0,039	-0,081
-680,481	6,652	-0,034	0,019
-679,466	136,722	-0,051	0,049
-678,451	-200,000	0,025	-0,144
-677,437	-119,505	0,031	-0,004
-676,422	800,000	0,026	-0,069
-675,408	28,322	0,128	0,080
-674,393	800,000	-0,032	0,077
-673,378	800,000	-0,018	-0,058
-672,364	128,191	-0,071	-0,066
-671,349	-200,000	-0,020	-0,107
-670,335	-35,290	0,096	0,038
-669,320	-19,650	-0,015	0,007
-668,305	91,545	0,039	0,032
-667,291	31,019	-0,053	0,034
-666,276	-200,000	-0,018	0,096
-665,262	-200,000	0,046	-0,159
-664,247	-200,000	-0,010	0,050
-663,232	-168,882	-0,101	0,003
-662,218	-44,171	0,084	-0,031
-661,203	-200,000	0,014	0,065
-660,189	238,853	-0,066	0,081
-659,174	-200,000	-0,003	-0,116
-658,159	-200,000	0,024	-0,093
-657,145	380,520	0,059	-0,089
-656,130	-158,886	0,035	0,001
-655,116	-141,898	0,068	-0,005
-654,101	28,088	0,095	-0,059
-653,086	800,000	0,035	-0,089
-652,072	145,661	0,093	0,091
-651,057	-127,126	-0,022	0,002
-650,043	800,000	0,026	-0,058
-649,028	224,219	0,070	0,084
-648,014	-200,000	-0,047	0,204
-646,999	38,807	0,168	0,110
-645,984	-200,000	0,025	0,136
-644,970	640,775	-0,012	-0,023
-643,955	-200,000	-0,002	-0,151
-642,941	-164,988	-0,093	-0,003
-641,926	800,000	0,046	-0,106
-640,911	-200,000	-0,007	0,082
-639,897	223,192	-0,081	-0,096
-638,882	28,237	-0,054	-0,033
-637,868	73,421	0,095	0,073
-636,853	269,560	-0,070	-0,091
-635,838	-140,886	-0,128	0,010
-634,824	-200,000	0,041	-0,169
-633,809	-152,116	-0,197	0,010
-632,795	-200,000	0,016	-0,063
-631,780	-11,012	0,051	-0,024
-630,765	155,261	-0,037	-0,037
-629,751	306,860	-0,052	0,071
-628,736	-24,082	-0,067	-0,029
-627,722	-200,000	0,001	0,005
-626,707	137,484	-0,088	-0,085
-625,692	157,094	-0,012	-0,012
-624,678	800,000	0,028	-0,058
-623,663	-185,880	-0,017	-0,000
-622,649	-86,428	-0,047	0,011
-621,634	-193,682	-0,190	-0,001
-620,619	253,784	-0,032	0,040
-619,605	137,681	0,146	0,140
-618,590	-200,000	-0,005	0,026
-617,576	-200,000	-0,003	0,032
-616,561	800,000	-0,014	0,033
-615,546	-200,000	-0,028	-0,106
-614,532	-120,865	0,034	0,004
-613,517	-6,112	0,099	-0,049
-612,503	-128,273	-0,128	-0,013
-611,488	259,970	0,047	0,060
-610,474	-123,995	-0,040	-0,005
-609,459	800,000	-0,042	-0,088
-608,444	800,000	-0,025	0,051
-607,430	40,163	-0,037	-0,024
-606,415	-200,000	0,020	0,100
-605,401	800,000	0,077	0,175
-604,386	-189,962	-0,158	-0,001
-603,371	57,576	-0,076	0,054
-602,357	-56,436	0,110	0,035
-601,342	-65,776	-0,132	0,038
-600,328	-19,727	-0,087	-0,039
-599,313	777,152	0,047	-0,095
-598,298	-200,000	-0,019	-0,093
-597,284	214,444	-0,036	0,041
-596,269	-200,000	0,003	-0,081
-595,255	287,688	-0,049	-0,065
-594,240	141,382	-0,063	-0,061
-593,225	-16,957	0,099	-0,045
-592,211	-200,000	0,014	0,072
-591,196	-200,000	-0,020	-0,084
-590,182	800,000	0,018	-0,045
-589,167	-118,166	0,064	-0,008
-588,152	77,505	0,130	0,101
-587,138	79,607	0,074	-0,058
-586,123	-122,201	-0,041	0,005
-585,109	49,799	-0,075	-0,052
-584,094	-5,941	-0,051	0,025
-583,079	-200,000	0,011	0,135
-582,065	-133,292	0,137	-0,012
-581,050	452,419	-0,044	-0,071
-580,036	-200,000	-0,013	-0,167
-579,021	-200,000	0,044	-0,165
-578,006	-200,000	0,049	-0,184
-576,992	-26,782	-0,116	0,049
-575,977	800,000	0,012	0,034
-574,963	-200,000	0,003	-0,024
-573,948	387,626	0,082	0,125
-572,934	-84,431	0,080	-0,018
-571,919	-200,000	0,010	0,037
-570,904	-43,869	-0,110	0,040
-569,890	-200,000	0,002	-0,103
-568,875	171,695	0,122	-0,129
-567,861	-20,638	0,020	0,009
-566,846	109,279	0,078	0,068
-565,831	259,114	-0,043	0,055
-564,817	-200,000	0,019	0,096
-563,802	132,457	-0,114	-0,107
-562,788	-200,000	0,000	0,060
-561,773	219,298	-0,108	0,126
-560,758	800,000	0,016	-0,037
-559,744	422,311	0,068	-0,108
-558,729	74,068	-0,109	0,083
-557,715	800,000	0,031	-0,071
-556,700	-200,000	-0,003	-0,036
-555,685	-200,000	0,033	-0,133
-554,671	9,309	-0,078	-0,043
-553,656	347,041	-0,035	0,051
-552,642	524,440	-0,036	-0,062
-551,627	168,996	0,091	-0,095
-550,612	-200,000	-0,010	-0,099
-549,598	-24,681	-0,123	-0,053
-548,583	-9,239	0,036	-0,017
-547,569	-75,888	0,044	0,011
-546,554	-200,000	0,022	-0,113
-545,539	-125,049	0,080	0,009
-544,525	-200,000	0,072	0,279
-543,510	800,000	0,016	0,036
-542,496	33,117	0,072	-0,046
-541,481	756,737	0,057	-0,114
-540,466	800,000	-0,033	-0,074
-539,452	87,629	0,046	-0,037
-538,437	-32,907	0,078	-0,031
-537,423	-200,000	-0,082	0,000
-536,408	198,526	0,026	-0,029
-535,393	-94,414	-0,009	0,002
-534,379	-85,169	-0,075	-0,017
-533,364	281,043	0,004	0,006
-532,350	-200,000	-0,005	-0,075
-531,335	-200,000	0,030	-0,106
-530,321	-200,000	0,015	-0,119
-529,306	348,702	0,025	0,036
-528,291	-200,000	0,005	-0,022
-527,277	-200,000	0,030	-0,218
-526,262	647,684	0,052	-0,098
-525,248	-191,006	-0,062	0,000
-524,233	800,000	0,007	0,014
-523,218	-200,000	0,013	0,065
-522,204	-130,988	-0,025	0,002
-521,189	-48,575	0,071	-0,025
-520,175	-46,260	-0,065	-0,023
-519,160	-29,791	-0,061	-0,025
-518,145	-173,815	0,049	-0,001
-517,131	-152,152	-0,047	-0,002
-516,116	-49,315	0,025	-0,008
-515,102	-200,000	0,006	-0,050
-514,087	-200,000	0,017	0,073
-513,072	-131,478	-0,112	-0,011
-512,058	-90,193	-0,031	-0,007
-511,043	166,760	0,043	0,045
-510,029	-200,000	0,036	0,137
-509,014	-200,000	-0,050	0,225
-507,999	800,000	-0,022	0,068
-506,985	-173,329	0,068	-0,001
-505,970	20,642	0,028	0,017
-504,956	0,953	-0,046	0,024
-503,941	-116,649	0,058	-0,008
-502,926	800,000	0,066	0,134
-501,912	-71,207	0,042	0,011
-500,897	800,000	-0,054	0,121
-499,883	349,878	-0,048	0,070
-498,868	-200,000	0,010	-0,034
-497,853	-200,000	-0,020	0,139
-496,839	28,835	-0,044	0,027
-495,824	-26,463	0,074	-0,031
-494,810	800,000	0,029	0,077
-493,795	800,000	-0,025	-0,054
-492,781	193,138	-0,035	0,039
-491,766	-63,411	0,075	-0,022
-490,751	800,000	-0,032	-0,086
-489,737	-200,000	0,005	0,092
-488,722	63,772	0,021	0,015
-487,708	-97,197	0,182	0,034
-486,693	602,725	0,041	0,075
-485,678	12,151	-0,062	0,035
-484,664	-148,007	-0,026	0,002
-483,649	-200,000	0,025	-0,114
-482,635	326,024	-0,064	0,089
-481,620	165,273	0,102	0,105
-480,605	357,870	0,124	0,180
-479,591	-156,691	0,077	-0,003
-478,576	800,000	0,021	-0,044
-477,562	800,000	-0,066	0,136
-476,547	-95,002	-0,102	0,020
-475,532	-200,000	0,008	0,037
-474,518	186,548	0,076	0,082
-473,503	-67,573	0,112	0,032
-472,489	-21,518	0,083	0,037
-471,474	-200,000	0,002	0,196
-470,459	44,563	-0,175	0,117
-469,445	-200,000	-0,000	-0,024
-468,430	618,452	-0,019	-0,036
-467,416	40,397	-0,016	-0,010
-466,401	393,244	-0,026	0,040
-465,386	140,392	-0,013	-0,012
-464,372	-200,000	0,013	0,090
-463,357	-45,745	-0,113	-0,040
-462,343	-127,234	0,091	0,010
-461,328	800,000	-0,069	-0,210
-460,313	-200,000	-0,015	-0,094
-459,299	-200,000	-0,016	0,093
-458,284	-200,000	-0,017	0,084
-457,270	-104,186	-0,038	0,006
-456,255	147,060	-0,061	0,060
-455,241	800,000	-0,056	0,144
-454,226	225,042	-0,006	-0,007
-453,211	-200,000	-0,005	-0,102
-452,197	127,956	0,088	-0,082
-451,182	432,693	0,048	-0,076
-450,168	-57,627	-0,059	0,019
-449,153	79,168	0,009	-0,007
-448,138	77,033	0,023	0,017
-447,124	800,000	0,012	0,030
-446,109	-200,000	0,003	-0,142
-445,095	130,539	0,059	0,056
-444,080	52,426	-0,038	0,027
-443,065	-200,000	0,021	0,157
-442,051	800,000	-0,030	-0,081
-441,036	-200,000	0,012	0,128
-440,022	53,914	0,018	-0,012
-439,007	126,660	0,066	-0,061
-437,992	75,758	-0,070	0,053
-436,978	735,393	0,017	0,034
-435,963	60,563	0,111	-0,080
-434,949	107,064	-0,075	-0,064
-433,934	-47,000	0,099	-0,035
-432,919	-61,586	-0,040	0,012
-431,905	152,053	0,047	-0,047
-430,890	237,815	0,072	0,087
-429,876	-200,000	0,014	-0,090
-428,861	96,176	0,059	-0,049
-427,846	800,000	0,011	-0,032
-426,832	800,000	0,023	-0,050
-425,817	197,857	0,034	-0,038
-424,803	-200,000	-0,007	-0,030
-423,788	-115,427	0,071	-0,010
-422,773	119,270	0,094	0,084
-421,759	-110,933	0,040	0,006
-420,744	-200,000	0,014	-0,065
-419,730	350,764	-0,036	-0,051
-418,715	-200,000	0,004	-0,088
-417,701	-200,000	0,000	0,012
-416,686	271,853	-0,030	0,039
-415,671	-200,000	0,009	0,072
-414,657	220,781	0,128	0,150
-413,642	63,165	-0,054	-0,039
-412,628	-98,896	-0,095	0,017
-411,613	-200,000	-0,001	-0,018
-410,598	-140,020	0,128	-0,010
-409,584	-200,000	0,015	-0,154
-408,569	497,087	0,142	0,238
-407,555	32,978	0,052	0,033
-406,540	-200,000	0,013	-0,092
-405,525	-99,593	0,055	-0,010
-404,511	-200,000	-0,006	-0,072
-403,496	-55,007	-0,136	-0,044
-402,482	-200,000	0,012	0,081
-401,467	98,425	0,173	0,145
-400,452	-200,000	-0,009	0,128
-399,438	-200,000	0,000	-0,044
-398,423	422,193	0,050	-0,078
-397,409	-150,878	-0,055	-0,003
-396,394	-13,294	-0,008	0,004
-395,379	-200,000	0,005	0,027
-394,365	-171,608	0,072	-0,002
-393,350	-161,268	0,037	-0,001
-392,336	88,218	0,121	0,098
-391,321	-200,000	-0,020	-0,092
-390,306	-200,000	-0,006	-0,038
-389,292	800,000	-0,029	-0,072
-388,277	-39,436	0,069	-0,026
-387,263	-200,000	-0,021	0,091
-386,248	0,052	0,154	0,080
-385,233	-200,000	0,035	0,219
-384,219	-36,857	0,025	0,010
-383,204	150,181	-0,060	-0,059
-382,190	-27,195	0,052	-0,022
-381,175	295,528	-0,050	-0,067
-380,160	111,767	-0,033	0,029
-379,146	-200,000	-0,031	0,154
-378,131	-200,000	-0,039	0,133
-377,117	789,874	0,043	0,087
-376,102	193,312	-0,106	0,117
-375,088	-78,119	-0,030	0,007
-374,073	-200,000	-0,010	-0,155
-373,058	670,932	-0,011	-0,020
-372,044	800,000	0,023	0,052
-371,029	509,434	0,017	0,028
-370,015	-200,000	0,050	0,182
-369,000	157,654	-0,059	-0,059
-367,985	-94,203	0,058	0,011
-366,971	-200,000	0,021	-0,079
-365,956	800,000	0,031	0,082
-364,942	-200,000	-0,003	0,076
-363,927	0,647	0,091	0,047
-362,912	-21,443	0,064	0,028
-361,898	95,387	-0,078	-0,065
-360,883	-113,271	-0,142	0,020
-359,869	313,750	-0,074	-0,101
-358,854	35,690	-0,060	-0,038
-357,839	704,196	-0,025	0,048
-356,825	-200,000	0,035	0,163
-355,810	-200,000	-0,005	-0,082
-354,796	-200,000	-0,017	0,061
-353,781	-200,000	-0,010	-0,058
-352,766	800,000	-0,046	0,094
-351,752	-121,277	-0,054	0,007
-350,737	-157,152	-0,104	-0,005
-349,723	424,444	-0,043	-0,068
-348,708	-16,359	-0,091	0,042
-347,693	137,225	-0,064	-0,061
-346,679	720,347	-0,036	-0,071
-345,664	-44,680	-0,033	0,012
-344,650	-27,692	-0,057	-0,024
-343,635	-6,976	0,108	0,053
-342,620	-200,000	0,030	0,097
-341,606	-93,325	-0,031	-0,006
-340,591	461,119	-0,039	0,063
-339,577	72,780	-0,096	-0,073
-338,562	674,641	-0,078	-0,148
-337,548	-32,134	0,040	-0,016
-336,533	-200,000	-0,022	-0,084
-335,518	-19,061	0,039	-0,017
-334,504	-200,000	0,017	0,072
-333,489	-135,238	0,075	0,006
-332,475	-34,790	0,007	0,003
-331,460	385,148	-0,092	-0,138
-330,445	-200,000	0,002	0,036
-329,431	236,590	0,023	0,027
-328,416	74,280	0,195	0,148
-327,402	-144,287	-0,139	-0,009
-326,387	-188,188	-0,069	-0,001
-325,372	-12,513	-0,013	-0,006
-324,358	528,059	-0,089	-0,153
-323,343	-35,013	0,128	-0,050
-322,329	800,000	0,011	-0,026
-321,314	-44,743	-0,141	0,051
-320,299	-167,005	-0,113	0,003
-319,285	800,000	0,056	0,127
-318,270	233,087	0,087	0,104
-317,256	187,999	0,073	-0,079
-316,241	571,482	0,059	0,104
-315,226	762,641	0,068	0,135
-314,212	-200,000	-0,005	0,173
-313,197	100,401	-0,116	0,097
-312,183	-200,000	0,012	-0,108
-311,168	320,296	-0,096	-0,133
-310,153	-200,000	-0,006	-0,172
-309,139	488,761	-0,046	0,076
-308,124	-200,000	0,010	-0,060
-307,110	684,708	0,054	0,103
-306,095	-28,738	0,057	0,024
-305,080	-200,000	-0,002	0,061
-304,066	606,563	-0,061	0,110
-303,051	144,928	-0,071	-0,068
-302,037	-200,000	-0,003	-0,097
-301,022	-96,611	0,079	-0,015
-300,008	-126,746	-0,072	-0,008
-298,993	174,423	0,123	-0,129
-297,978	74,422	-0,007	-0,006
-296,964	342,105	0,061	-0,087
-295,949	-78,316	-0,112	0,028
-294,935	22,699	0,125	0,074
-293,920	721,358	0,061	0,119
-292,905	61,792	-0,048	0,035
-291,891	617,125	0,052	0,095
-290,876	-78,775	-0,047	0,012
-289,862	-200,000	0,008	0,168
-288,847	-35,024	-0,150	0,059
-287,832	-28,008	0,039	-0,016
-286,818	-200,000	-0,002	-0,059
-285,803	-95,009	0,040	0,008
-284,789	282,760	0,017	-0,022
-283,774	231,331	0,104	-0,124
-282,759	-30,514	-0,136	-0,056
-281,745	1,274	0,023	-0,012
-280,730	800,000	-0,045	0,108
-279,716	483,196	0,033	0,055
-278,701	800,000	0,013	0,038
-277,686	-146,419	0,091	0,006
-276,672	-81,820	0,078	-0,018
-275,657	-200,000	0,004	-0,041
-274,643	800,000	-0,031	0,087
-273,628	-112,218	-0,036	-0,005
-272,613	1,863	0,035	0,018
-271,599	284,819	0,091	0,118
-270,584	-200,000	-0,009	-0,065
-269,570	291,932	0,042	0,056
-268,555	-119,240	-0,228	0,028
-267,540	-19,946	0,074	-0,033
-266,526	273,765	-0,035	0,045
-265,511	-200,000	-0,027	-0,148
-264,497	800,000	0,060	-0,138
-263,482	139,060	0,067	0,064
-262,467	20,474	0,143	-0,083
-261,453	270,792	0,095	0,121
-260,438	51,036	-0,099	-0,068
-259,424	160,019	-0,057	-0,058
-258,409	-94,545	0,018	0,004
-257,395	-200,000	-0,011	0,089
-256,380	-124,158	-0,045	0,005
-255,365	-32,282	0,093	-0,037
-254,351	63,809	0,091	0,066
-253,336	800,000	-0,088	-0,271
-252,322	-7,557	0,014	0,007
-251,307	335,788	0,027	-0,038
-250,292	800,000	-0,045	0,100
-249,278	188,902	0,041	0,045
-248,263	800,000	0,017	-0,048
-247,249	-200,000	-0,012	-0,090
-246,234	293,751	-0,064	-0,085
-245,219	-98,997	0,144	-0,026
-244,205	122,951	0,045	0,041
-243,190	-200,000	0,002	0,130
-242,176	175,763	-0,050	-0,052
-241,161	-200,000	-0,013	0,099
-240,146	53,598	0,119	0,082
-239,132	47,661	-0,137	-0,092
-238,117	107,759	0,043	-0,037
-237,103	800,000	0,043	-0,103
-236,088	66,231	0,040	-0,030
-235,073	-200,000	0,002	0,042
-234,059	227,769	-0,058	-0,068
-233,044	139,621	-0,026	-0,025
-232,030	-35,094	0,065	0,025
-231,015	-23,839	-0,168	-0,072
-230,000	63,486	-0,229	-0,166
-228,986	403,696	-0,116	-0,177
-227,971	800,000	-0,030	0,063
-226,957	-2,279	0,054	-0,027
-225,942	-64,660	0,063	-0,018
-224,927	236,574	-0,036	0,043
-223,913	-200,000	-0,004	-0,125
-222,898	-35,201	-0,039	-0,015
-221,884	279,478	-0,016	-0,020
-220,869	586,425	0,048	0,085
-219,855	62,457	-0,054	-0,039
-218,840	800,000	0,046	-0,118
-217,825	-29,270	0,059	-0,024
-216,811	52,008	-0,113	0,078
-215,796	42,245	-0,235	-0,154
-214,782	227,236	0,026	0,031
-213,767	800,000	0,023	0,051
-212,752	-99,381	0,078	-0,014
-211,738	800,000	-0,038	-0,098
-210,723	800,000	-0,012	-0,030
-209,709	-115,363	0,038	-0,005
-208,694	-36,802	-0,018	-0,007
-207,679	-63,593	-0,178	-0,052
-206,665	119,454	0,087	0,078
-205,650	506,421	0,054	-0,090
-204,636	800,000	-0,030	-0,084
-203,621	233,827	-0,089	-0,106
-202,606	800,000	-0,050	0,133
-201,592	800,000	-0,062	-0,134
-200,577	-200,000	-0,004	-0,014
-199,563	61,321	-0,029	0,021
-198,548	-200,000	-0,046	-0,153
-197,533	-92,378	-0,064	0,013
-196,519	-200,000	0,009	0,077
-195,504	88,750	-0,121	0,097
-194,490	-84,087	0,101	0,023
-193,475	228,407	-0,060	0,071
-192,460	-200,000	0,027	-0,149
-191,446	73,914	0,068	-0,051
-190,431	-103,820	-0,086	0,014
-189,417	215,905	0,056	0,064
-188,402	800,000	0,006	0,015
-187,387	-4,022	-0,048	-0,024
-186,373	-127,358	-0,134	-0,014
-185,358	-36,691	0,142	0,055
-184,344	-126,207	0,071	-0,008
-183,329	-104,445	0,021	0,003
-182,315	664,445	0,019	-0,035
-181,300	177,821	-0,023	0,025
-180,285	800,000	0,022	-0,047
-179,271	-13,767	0,062	-0,029
-178,256	-19,452	-0,044	-0,020
-177,242	-200,000	0,040	0,143
-176,227	-200,000	0,022	0,129
-175,212	-108,646	0,054	0,008
-174,198	-200,000	-0,016	0,077
-173,183	-200,000	-0,004	-0,029
-172,169	-200,000	-0,007	0,072
-171,154	459,473	-0,072	-0,115
-170,139	43,141	0,073	-0,048
-169,125	15,983	0,122	-0,069
-168,110	204,271	0,061	-0,068
-167,096	-200,000	-0,013	0,074
-166,081	-200,000	-0,006	0,117
-165,066	-130,365	-0,065	-0,006
-164,052	-12,619	0,019	0,009
-163,037	800,000	0,020	-0,059
-162,023	-17,594	0,035	-0,016
-161,008	800,000	0,035	0,102
-159,993	14,742	0,155	0,087
-158,979	-45,904	-0,111	-0,039
-157,964	-200,000	-0,010	-0,122
-156,950	-200,000	-0,000	-0,132
-155,935	-200,000	-0,006	-0,074
-154,920	719,265	-0,053	-0,103
-153,906	130,490	0,050	0,046
-152,891	-104,686	-0,065	0,011
-151,877	800,000	-0,026	-0,077
-150,862	-200,000	-0,015	0,083
-149,847	-1,995	0,099	-0,050
-148,833	-200,000	0,012	-0,130
-147,818	-139,735	0,097	-0,007
-146,804	199,950	0,038	0,042
-145,789	66,121	-0,130	0,095
-144,775	10,338	0,083	0,045
-143,760	800,000	-0,029	-0,063
-142,745	278,174	0,029	-0,037
-141,731	223,603	-0,046	-0,053
-140,716	33,194	0,024	0,015
-139,702	233,847	-0,022	-0,026
-138,687	167,330	-0,063	0,064
-137,672	-120,007	-0,070	-0,009
-136,658	292,044	0,041	-0,054
-135,643	30,062	-0,126	-0,077
-134,629	27,707	0,073	0,044
-133,614	51,190	-0,005	0,003
-132,599	101,855	0,083	-0,070
-131,585	-200,000	-0,004	-0,050
-130,570	699,029	-0,056	-0,106
-129,556	127,968	0,101	-0,093
-128,541	71,218	-0,061	0,045
-127,526	-200,000	0,032	-0,123
-126,512	-200,000	-0,012	-0,080
-125,497	800,000	0,031	0,078
-124,483	514,912	-0,071	0,120
-123,468	800,000	0,046	-0,106
-122,453	800,000	0,056	-0,112
-121,439	-19,552	0,118	0,053
-120,424	800,000	-0,063	-0,192
-119,410	-200,000	0,004	-0,037
-118,395	415,630	0,024	-0,036
-117,380	-110,300	0,070	-0,010
-116,366	1,562	-0,097	-0,050
-115,351	-200,000	-0,021	0,104
-114,337	-71,264	-0,032	0,009
-113,322	352,404	0,034	-0,048
-112,307	82,926	0,060	0,047
-111,293	800,000	0,066	0,151
-110,278	-200,000	0,016	0,070
-109,264	-200,000	-0,012	0,039
-108,249	-10,818	0,105	0,050
-107,234	800,000	-0,030	-0,063
-106,220	-71,409	0,131	0,035
-105,205	297,179	0,044	0,059
-104,191	-118,843	0,066	-0,008
-103,176	-48,298	-0,054	-0,019
-102,162	-200,000	0,006	-0,063
-101,147	-200,000	-0,010	-0,114
-100,132	269,888	-0,078	-0,098
-99,118	-111,601	-0,071	-0,010
-98,103	-168,499	0,103	-0,003
-97,089	-54,827	0,103	-0,033
-96,074	-200,000	0,003	0,026
-95,059	800,000	-0,010	0,023
-94,045	-3,663	-0,114	0,057
-93,030	-200,000	0,005	0,059
-92,016	800,000	0,020	-0,063
-91,001	-200,000	-0,009	-0,042
-89,986	655,549	-0,063	0,116
-88,972	213,177	0,025	0,029
-87,957	385,002	0,044	0,065
-86,943	-68,906	0,040	-0,011
-85,928	800,000	-0,034	0,091
-84,913	-200,000	-0,014	-0,146
-83,899	-200,000	0,001	0,140
-82,884	693,608	0,069	0,130
-81,870	-200,000	-0,009	-0,068
-80,855	-200,000	0,006	-0,043
-79,840	177,794	-0,053	0,055
-78,826	207,164	0,061	-0,068
-77,811	74,009	-0,124	0,093
-76,797	-200,000	-0,021	0,094
-75,782	-200,000	0,012	0,184
-74,767	130,420	0,075	0,069
-73,753	-200,000	-0,004	0,101
-72,738	-200,000	0,016	0,060
-71,724	-200,000	-0,016	-0,128
-70,709	-62,476	-0,069	0,020
-69,694	-39,220	-0,022	-0,008
-68,680	-72,952	0,010	-0,003
-67,665	415,622	-0,029	0,044
-66,651	-102,414	0,080	-0,014
-65,636	357,941	0,041	-0,059
-64,622	-8,710	0,075	-0,036
-63,607	267,148	-0,111	-0,140
-62,592	323,545	0,013	0,018
-61,578	-143,222	0,147	-0,010
-60,563	-104,860	0,086	0,014
-59,549	-52,096	-0,064	0,021
-58,534	18,315	-1,890	-1,080
-57,519	-200,000	-0,152	-0,906
-56,505	-200,000	-1,284	-4,958
-55,490	81,457	0,790	0,612
-54,476	800,000	5,303	11,985
-53,461	-200,000	17,821	291,506
-52,446	800,000	729,898	2237,949
-51,432	537,893	1645,966	2815,920
-50,417	109,286	1636,161	1404,210
-49,403	74,559	1287,461	969,853
-48,388	31,422	1027,554	631,616
-47,373	20,082	989,594	570,900
-46,359	18,199	977,125	557,517
-45,344	15,176	973,084	545,302
-44,330	15,425	971,557	545,239
-43,315	14,884	969,633	542,374
-42,300	14,802	968,568	541,489
-41,286	14,899	967,694	541,294
-40,271	14,891	966,824	540,760
-39,257	14,947	965,674	540,277
-38,242	14,949	964,764	539,754
-37,227	14,937	963,959	539,243
-36,213	14,905	963,051	538,611
-35,198	14,849	962,229	537,948
-34,184	14,897	961,472	537,657
-33,169	14,855	960,417	536,910
-32,154	14,889	959,609	536,547
-31,140	14,883	958,891	536,108
-30,125	14,922	957,990	535,706
-29,111	14,871	957,199	535,080
-28,096	14,883	956,512	534,714
-27,082	14,927	955,719	534,391
-26,067	14,929	955,057	534,005
-25,052	14,888	954,354	533,459
-24,038	14,935	953,529	533,127
-23,023	14,901	952,956	532,678
-22,009	14,910	952,394	532,370
-20,994	14,901	951,714	531,941
-19,979	14,905	950,993	531,529
-18,965	14,899	950,546	531,240
-17,950	14,905	949,759	530,797
-16,936	14,842	949,247	530,290
-15,921	14,856	948,474	529,881
-14,906	14,785	947,761	529,235
-13,892	14,833	947,028	528,958
-12,877	14,761	946,515	528,423
-11,863	14,778	945,923	528,125
-10,848	14,789	945,334	527,807
-9,833	14,907	944,927	527,937
-8,819	14,894	944,049	527,383
-7,804	14,776	943,550	526,708
-6,790	14,807	943,010	526,483
-5,775	14,778	942,588	526,136
-4,760	14,804	941,850	525,786
-3,746	14,826	941,021	525,373
-2,731	14,658	940,501	524,529
-1,717	14,670	939,809	524,161
-0,702	14,692	938,997	523,756
0,313	14,456	938,608	523,584
1,327	17,594	936,398	532,182
2,342	26,377	792,928	473,871
3,356	22,739	457,948	268,104
4,371	-4,404	314,155	155,093
5,386	-8,552	295,909	141,881
6,400	-10,660	289,680	136,793
7,415	-10,602	287,347	135,736
8,429	-10,593	285,904	135,051
9,444	-10,887	285,086	134,366
10,459	-10,803	284,545	134,181
11,473	-10,806	283,896	133,860
12,488	-10,893	283,313	133,488
13,502	-10,863	282,758	133,245
14,517	-10,703	282,412	133,224
15,531	-10,481	281,994	133,229
16,546	-10,343	281,651	133,188
17,561	-10,363	281,287	132,985
18,575	-10,391	280,879	132,753
19,590	-10,502	280,644	132,523
20,604	-10,378	280,104	132,375
21,619	-10,409	279,959	132,265
22,634	-10,458	279,577	132,026
23,648	-10,525	279,277	131,809
24,663	-10,584	279,095	131,656
25,677	-10,421	278,768	131,644
26,692	-10,484	278,568	131,478
27,707	-10,593	278,264	131,219
28,721	-10,334	277,919	131,291
29,736	-10,505	277,655	130,992
30,750	-10,532	277,407	130,838
31,765	-10,509	277,195	130,748
32,780	-10,392	276,864	130,692
33,794	-10,434	276,664	130,545
34,809	-10,443	276,438	130,418
35,823	-10,345	276,077	130,329
36,838	-10,477	275,852	130,086
37,853	-10,702	275,654	129,770
38,867	-10,487	275,425	129,853
39,882	-10,444	275,078	129,718
40,896	-10,461	274,871	129,593
41,911	-10,434	274,781	129,565
42,926	-10,316	274,367	129,468
43,940	-10,497	274,233	129,224
44,955	-10,705	273,891	128,857
45,969	-10,508	273,787	128,980
46,984	-10,591	273,356	128,689
47,999	-10,913	273,210	128,309
49,013	-11,044	272,920	128,039
50,028	-10,957	272,624	127,969
51,042	-11,075	272,367	127,728
52,057	-11,204	272,189	127,513
53,071	-11,137	271,873	127,416
54,086	-11,132	271,873	127,410
55,101	-10,912	271,586	127,467
56,115	-10,695	271,420	127,579
57,130	-10,545	271,418	127,705
58,144	-10,405	271,180	127,710
59,159	-10,475	270,862	127,485
60,174	-10,310	270,643	127,522
61,188	-10,396	270,299	127,270
62,203	-10,483	270,225	127,144
63,217	-10,390	269,752	126,995
64,232	-10,423	269,771	126,962
65,247	-10,450	269,525	126,811
66,261	-10,363	269,171	126,712
67,276	-10,431	268,999	126,558
68,290	-10,763	268,786	126,143
69,305	-10,793	268,627	126,030
70,320	-10,693	268,320	125,965
71,334	-10,411	268,123	126,119
72,349	-10,355	267,911	126,059
73,363	-10,644	267,744	125,706
74,378	-10,551	267,556	125,692
75,393	-10,292	267,198	125,747
76,407	-10,396	267,031	125,563
77,422	-10,359	266,933	125,539
78,436	-10,453	266,693	125,330
79,451	-10,390	266,418	125,247
80,466	-10,470	266,133	125,029
81,480	-10,664	265,973	124,767
82,495	-10,444	265,626	124,793
83,509	-10,478	265,664	124,768
84,524	-10,550	265,329	124,534
85,539	-10,750	265,131	124,250
86,553	-10,725	264,926	124,166
87,568	-10,706	264,708	124,070
88,582	-10,708	264,520	123,969
89,597	-10,711	264,277	123,841
90,611	-10,569	264,116	123,882
91,626	-10,420	263,976	123,939
92,641	-10,473	263,853	123,823
93,655	-10,491	263,517	123,638
94,670	-10,648	263,375	123,420
95,684	-10,468	263,104	123,442
96,699	-10,388	262,827	123,373
97,714	-10,713	262,760	123,041
98,728	-10,721	262,403	122,856
99,743	-10,701	262,233	122,782
100,757	-10,770	262,140	122,667
101,772	-10,740	261,887	122,564
102,787	-10,706	261,840	122,561
103,801	-10,590	261,434	122,464
104,816	-10,390	261,313	122,573
105,830	-10,462	261,334	122,509
106,845	-10,274	260,953	122,485
107,860	-10,607	260,825	122,119
108,874	-10,481	260,500	122,067
109,889	-10,642	260,448	121,890
110,903	-10,759	260,040	121,586
111,918	-10,569	259,890	121,671
112,933	-10,469	259,674	121,648
113,947	-10,673	259,636	121,439
114,962	-10,539	259,405	121,439
115,976	-10,486	259,221	121,388
116,991	-10,698	259,040	121,107
118,006	-10,474	258,868	121,212
119,020	-10,574	258,753	121,059
120,035	-10,487	258,513	121,012
121,049	-10,492	258,355	120,923
122,064	-10,533	258,098	120,756
123,079	-10,281	257,863	120,856
124,093	-10,510	257,591	120,518
125,108	-10,657	257,377	120,279
126,122	-10,901	257,343	120,040
127,137	-10,864	257,008	119,905
128,151	-10,738	256,884	119,946
129,166	-10,676	256,748	119,926
130,181	-10,665	256,556	119,835
131,195	-11,085	256,346	119,362
132,210	-10,652	256,116	119,619
133,224	-10,496	255,972	119,676
134,239	-10,664	255,822	119,449
135,254	-10,572	255,718	119,471
136,268	-10,572	255,314	119,272
137,283	-10,704	255,079	119,037
138,297	-10,754	254,830	118,867
139,312	-10,801	254,555	118,688
140,327	-10,580	254,472	118,828
141,341	-10,445	254,498	118,946
142,356	-10,666	254,403	118,701
143,370	-10,466	254,184	118,760
144,385	-10,198	253,953	118,872
145,400	-10,106	253,845	118,889
146,414	-10,186	253,628	118,708
147,429	-10,332	253,463	118,495
148,443	-10,386	253,127	118,282
149,458	-10,228	253,098	118,393
150,473	-10,250	252,973	118,305
151,487	-10,454	252,643	117,966
152,502	-10,366	252,674	118,045
153,516	-10,290	252,242	117,898
154,531	-10,277	252,129	117,845
155,546	-10,406	251,952	117,643
156,560	-10,202	251,741	117,707
157,575	-10,703	251,614	117,211
158,589	-10,567	251,482	117,254
159,604	-10,290	251,128	117,314
160,619	-10,145	250,977	117,355
161,633	-10,099	250,814	117,308
162,648	-10,412	250,857	117,053
163,662	-10,144	250,469	117,088
164,677	-10,421	250,459	116,839
165,692	-10,438	250,241	116,713
166,706	-10,374	250,143	116,710
167,721	-10,143	249,880	116,771
168,735	-10,072	249,645	116,711
169,750	-10,182	249,598	116,586
170,764	-10,340	249,470	116,383
171,779	-10,264	249,251	116,334
172,794	-10,121	248,970	116,313
173,808	-10,421	248,991	116,061
174,823	-10,726	248,589	115,608
175,837	-10,927	248,407	115,344
176,852	-10,392	248,232	115,700
177,867	-10,300	248,289	115,793
178,881	-10,334	248,155	115,692
179,896	-10,268	247,924	115,629
180,910	-10,035	247,745	115,730
181,925	-10,263	247,554	115,440
182,940	-10,304	247,313	115,284
183,954	-10,345	247,316	115,240
184,969	-10,324	247,156	115,173
185,983	-10,081	246,978	115,282
186,998	-9,991	246,686	115,210
188,013	-10,197	246,598	114,987
189,027	-10,129	246,386	114,935
190,042	-10,170	246,149	114,780
191,056	-10,359	245,899	114,497
192,071	-10,562	245,903	114,321
193,086	-10,479	245,565	114,222
194,100	-10,485	245,401	114,130
195,115	-10,255	245,239	114,234
196,129	-10,295	245,124	114,138
197,144	-10,376	244,850	113,934
198,159	-10,321	244,749	113,921
199,173	-10,434	244,636	113,765
200,188	-10,762	244,222	113,294
201,202	-10,882	243,870	113,022
202,217	-11,025	243,770	112,848
203,232	-10,887	243,644	112,893
204,246	-11,069	243,368	112,606
205,261	-12,116	242,867	111,509
206,275	-12,602	242,586	110,974
207,290	-7,965	244,440	115,621
208,304	0,153	246,965	123,522
209,319	4,346	247,866	127,431
210,334	4,876	248,139	127,997
211,348	5,095	248,074	128,134
212,363	5,152	247,898	128,079
213,377	5,304	247,751	128,116
214,392	5,232	247,745	128,043
215,407	5,206	247,448	127,856
216,421	5,083	247,403	127,720
217,436	5,401	247,189	127,860
218,450	5,362	246,980	127,708
219,465	5,410	246,814	127,650
220,480	5,133	246,603	127,302
221,494	5,111	246,321	127,128
222,509	4,778	246,214	126,788
223,523	4,724	245,959	126,602
224,538	4,601	245,715	126,364
225,553	4,567	245,603	126,268
226,567	4,422	245,647	126,160
227,582	4,548	245,379	126,114
228,596	4,562	245,159	126,001
229,611	4,292	245,047	125,712
230,626	4,386	244,786	125,644
231,640	4,317	244,737	125,551
232,655	4,410	244,609	125,550
233,669	4,368	244,333	125,364
234,684	4,388	244,000	125,197
235,699	4,573	244,066	125,370
236,713	4,776	243,966	125,472
237,728	4,541	243,784	125,177
238,742	4,307	243,585	124,874
239,757	4,309	243,334	124,736
240,772	4,416	243,217	124,751
241,786	4,201	243,036	124,474
242,801	4,350	242,943	124,535
243,815	4,378	242,779	124,463
244,830	4,328	242,739	124,391
245,844	4,546	242,480	124,423
246,859	4,448	242,303	124,242
247,874	4,423	242,127	124,120
248,888	4,505	241,979	124,099
249,903	4,455	241,858	123,986
250,917	4,653	241,705	124,055
251,932	4,672	241,652	124,032
252,947	4,640	241,442	123,888
253,961	4,389	241,135	123,519
254,976	4,651	240,968	123,632
255,990	4,645	240,903	123,582
257,005	4,700	240,676	123,499
258,020	4,334	240,672	123,194
259,034	4,473	240,311	123,108
260,049	4,447	240,263	123,052
261,063	4,063	240,130	122,667
262,078	4,302	239,797	122,676
263,093	4,444	240,029	122,897
264,107	4,632	239,642	122,837
265,122	4,303	239,404	122,443
266,136	4,608	239,336	122,639
267,151	4,592	239,303	122,599
268,166	4,291	239,017	122,203
269,180	4,131	238,907	122,009
270,195	4,597	238,771	122,298
271,209	4,837	238,624	122,401
272,224	4,290	238,520	121,905
273,239	4,117	238,248	121,618
274,253	4,348	238,040	121,683
275,268	4,450	238,022	121,744
276,282	4,622	237,771	121,740
277,297	4,495	237,470	121,475
278,312	4,383	237,478	121,381
279,326	4,427	237,562	121,447
280,341	4,452	237,220	121,281
281,355	4,254	237,054	121,030
282,370	4,685	236,916	121,287
283,384	4,592	236,835	121,161
284,399	4,366	236,623	120,866
285,414	4,335	236,422	120,727
286,428	4,347	236,319	120,674
287,443	4,434	236,127	120,633
288,457	4,578	236,014	120,677
289,472	4,604	235,802	120,578
290,487	4,320	235,676	120,281
291,501	4,226	235,534	120,125
292,516	4,200	235,297	119,973
293,530	4,275	235,088	119,914
294,545	4,360	235,056	119,953
295,560	4,223	234,979	119,796
296,574	4,066	234,708	119,526
297,589	4,314	234,673	119,690
298,603	4,530	234,480	119,748
299,618	4,535	234,306	119,653
300,633	4,312	234,192	119,411
301,647	4,633	234,195	119,651
302,662	4,681	234,049	119,602
303,676	4,887	233,826	119,637
304,691	4,848	233,622	119,492
305,706	4,619	233,704	119,346
306,720	4,681	233,383	119,219
307,735	4,874	233,232	119,280
308,749	4,369	233,203	118,866
309,764	4,378	232,829	118,671
310,779	4,275	232,506	118,417
311,793	3,978	232,260	118,053
312,808	4,050	232,118	118,026
313,822	4,415	232,355	118,416
314,837	4,679	232,048	118,451
315,852	4,541	231,998	118,310
316,866	4,611	231,890	118,298
317,881	4,752	231,764	118,331
318,895	4,549	231,677	118,121
319,910	4,854	231,301	118,151
320,925	4,532	231,215	117,851
321,939	4,180	231,088	117,507
322,954	4,509	230,985	117,695
323,968	4,342	230,886	117,507
324,983	4,469	230,662	117,479
325,997	4,611	230,592	117,541
327,012	4,562	230,442	117,416
328,027	4,557	230,153	117,255
329,041	4,799	230,221	117,463
330,056	4,806	230,126	117,409
331,070	4,787	230,067	117,354
332,085	4,834	229,723	117,204
333,100	4,396	229,599	116,799
334,114	4,428	229,461	116,743
335,129	4,484	229,246	116,665
336,143	4,763	229,218	116,851
337,158	4,653	229,013	116,653
338,173	4,734	228,875	116,634
339,187	4,437	228,585	116,251
340,202	4,787	228,456	116,439
341,216	4,685	228,300	116,272
342,231	4,461	228,175	116,030
343,246	4,351	228,106	115,902
344,260	4,566	227,984	115,991
345,275	4,586	228,055	116,032
346,289	4,683	227,707	115,917
347,304	4,890	227,602	116,008
348,319	4,744	227,425	115,799
349,333	4,793	227,124	115,672
350,348	4,498	227,058	115,407
351,362	4,502	226,970	115,355
352,377	4,273	226,715	115,045
353,392	4,439	226,508	115,053
354,406	4,185	226,464	114,831
355,421	195,504	1317,265	1392,560
356,435	156,751	1450,137	1392,549
