DTS Sentinel unit serial number:	SN410029Multiplexer serial number:	ORYXHardware model number:	OX2-SRSoftware version number:	ORYX F/W v4,00 Oryx Data Collector v3.7.2.0data status	okinstallation	B5 Nyhavnadifferential loss correction	single-endedforward channel	channel 2reverse channel	N/Adate	2023/12/12time	10:12:13forward acquisition time	300,00reverse acquisition time	0,00gamma	499,1914k internal	0,3158k external	0,3158temperature offset calibration	1,0000default loss term (dB/km)	0,3820temperature slope calibration	1,0000multiplexer offset coefficient	1,0000multiplexer slope coefficient	1,0000fibre end	0,00T internal ref (°C)	15,00T ext. ref 1 (°C)	-1,30T ext. ref 2 (°C)	-1,64length (m)	temperature (°C)	Stokes	anti-Stokes-744,400	335,017	0,104	0,150
-743,385	25,732	-0,232	-0,142
-742,371	47,558	0,094	0,064
-741,356	-119,202	-0,238	0,030
-740,342	-114,729	0,169	0,024
-739,327	-74,725	-0,231	-0,061
-738,312	65,782	0,088	-0,066
-737,298	-47,088	-0,255	0,091
-736,283	-200,000	0,153	-0,000
-735,269	78,685	-0,147	0,115
-734,254	-100,294	0,105	0,019
-733,239	-53,458	-0,481	-0,161
-732,225	95,938	0,101	0,085
-731,210	0,543	0,113	0,059
-730,196	-107,869	0,095	0,015
-729,181	118,550	0,036	0,033
-728,167	79,499	-0,033	0,026
-727,152	225,159	0,026	-0,031
-726,137	283,559	-0,065	0,086
-725,123	-200,000	0,026	-0,152
-724,108	-122,277	-0,020	0,002
-723,094	31,899	-0,136	-0,086
-722,079	-200,000	0,003	0,067
-721,064	204,797	-0,067	0,077
-720,050	766,670	-0,068	0,138
-719,035	-92,581	0,070	0,014
-718,021	-98,063	-0,107	-0,020
-717,006	-200,000	-0,004	-0,047
-715,991	-6,763	-0,144	-0,072
-714,977	-200,000	0,012	-0,076
-713,962	-6,251	-0,047	-0,023
-712,948	800,000	-0,042	0,090
-711,933	-200,000	-0,004	-0,063
-710,918	-38,320	0,026	-0,010
-709,904	-37,869	-0,104	0,040
-708,889	-175,669	-0,068	-0,001
-707,875	-1,800	-0,144	-0,074
-706,860	800,000	0,074	-0,202
-705,845	-102,164	-0,063	-0,011
-704,831	96,918	0,110	0,093
-703,816	50,650	-0,128	-0,089
-702,802	-28,851	-0,026	0,011
-701,787	-127,606	-0,103	0,011
-700,772	-86,111	-0,118	0,027
-699,758	366,035	-0,039	-0,058
-698,743	110,347	0,075	-0,066
-697,729	800,000	0,030	-0,088
-696,714	116,361	-0,087	0,079
-695,699	800,000	0,021	-0,062
-694,685	-200,000	-0,012	0,047
-693,670	88,405	-0,025	-0,020
-692,656	-119,309	0,067	0,009
-691,641	-200,000	0,015	0,149
-690,627	644,815	0,052	-0,099
-689,612	-121,263	0,052	0,006
-688,597	345,293	-0,097	-0,141
-687,583	-30,067	-0,122	0,051
-686,568	286,562	-0,015	-0,020
-685,554	76,192	-0,086	-0,067
-684,539	800,000	-0,007	-0,017
-683,524	800,000	0,009	-0,025
-682,510	-66,174	0,052	-0,015
-681,495	608,728	-0,037	0,069
-680,481	800,000	0,037	-0,091
-679,466	-91,932	-0,186	-0,038
-678,451	26,730	-0,073	-0,045
-677,437	800,000	0,025	-0,058
-676,422	94,450	-0,064	-0,053
-675,408	51,067	0,070	0,049
-674,393	-35,845	-0,115	0,045
-673,378	-30,053	-0,082	-0,034
-672,364	-5,804	0,087	-0,044
-671,349	-141,675	0,030	0,002
-670,335	6,190	-0,117	-0,064
-669,320	10,038	-0,041	0,023
-668,305	68,533	0,033	-0,025
-667,291	160,529	-0,069	0,071
-666,276	-200,000	-0,017	-0,060
-665,262	84,767	-0,098	-0,079
-664,247	357,243	-0,049	-0,071
-663,232	800,000	0,021	-0,068
-662,218	-24,506	0,012	0,005
-661,203	203,563	0,072	0,082
-660,189	-200,000	0,001	-0,023
-659,174	738,336	0,032	0,062
-658,159	718,840	-0,051	-0,099
-657,145	-51,760	-0,041	0,014
-656,130	-92,301	0,061	0,012
-655,116	-200,000	-0,010	-0,057
-654,101	-72,567	-0,144	0,039
-653,086	175,678	0,106	0,113
-652,072	-135,708	0,083	0,007
-651,057	-200,000	-0,029	0,094
-650,043	800,000	-0,073	-0,185
-649,028	-6,523	-0,050	-0,025
-648,014	227,204	0,042	0,051
-646,999	-200,000	-0,017	0,072
-645,984	-200,000	0,012	0,080
-644,970	609,626	0,016	0,030
-643,955	51,879	0,035	0,024
-642,941	145,516	0,074	-0,072
-641,926	-200,000	-0,012	0,072
-640,911	-52,338	0,123	0,042
-639,897	-88,384	-0,015	-0,003
-638,882	28,562	-0,090	-0,056
-637,868	-65,565	-0,077	0,023
-636,853	-135,410	-0,120	-0,010
-635,838	610,453	0,051	-0,094
-634,824	708,053	-0,020	-0,038
-633,809	-93,915	-0,079	-0,016
-632,795	-4,845	-0,048	-0,024
-631,780	250,969	0,081	-0,102
-630,765	3,419	-0,140	-0,075
-629,751	800,000	-0,025	-0,054
-628,736	120,048	-0,046	-0,042
-627,722	-73,027	0,122	0,033
-626,707	-84,908	-0,023	0,005
-625,692	90,949	0,006	-0,005
-624,678	800,000	-0,044	0,102
-623,663	-200,000	0,042	-0,139
-622,649	292,581	0,013	-0,017
-621,634	-150,191	-0,125	0,007
-620,619	184,039	0,071	-0,077
-619,605	-6,325	-0,033	0,016
-618,590	517,256	0,035	-0,061
-617,576	62,595	-0,021	-0,015
-616,561	-200,000	0,001	0,048
-615,546	-12,142	-0,129	-0,062
-614,532	54,299	0,042	0,030
-613,517	-107,583	-0,039	0,006
-612,503	800,000	-0,027	-0,055
-611,488	-74,210	0,103	0,027
-610,474	129,511	0,038	-0,035
-609,459	51,041	-0,079	-0,055
-608,444	-200,000	-0,021	-0,086
-607,430	-46,631	-0,096	0,034
-606,415	800,000	0,022	-0,063
-605,401	-160,295	0,024	0,001
-604,386	-19,289	-0,106	0,048
-603,371	44,899	-0,060	0,040
-602,357	800,000	0,060	-0,150
-601,342	181,796	0,019	0,020
-600,328	-90,079	0,055	-0,012
-599,313	-181,641	0,096	-0,001
-598,298	-200,000	-0,001	-0,039
-597,284	-131,987	0,089	-0,008
-596,269	-120,820	0,121	0,015
-595,255	627,220	-0,007	0,014
-594,240	44,107	0,019	-0,013
-593,225	92,147	0,052	-0,043
-592,211	-42,495	-0,169	-0,063
-591,196	-200,000	0,029	-0,122
-590,182	429,427	-0,080	-0,127
-589,167	-129,648	0,065	-0,007
-588,152	800,000	0,020	0,059
-587,138	-106,404	-0,078	0,013
-586,123	-200,000	-0,001	-0,009
-585,109	-125,033	-0,154	0,017
-584,094	-200,000	0,021	-0,091
-583,079	-114,274	-0,045	0,006
-582,065	157,451	0,089	0,091
-581,050	377,220	-0,087	-0,130
-580,036	144,524	-0,062	-0,061
-579,021	-9,162	-0,162	-0,079
-578,006	-200,000	-0,002	-0,048
-576,992	195,163	-0,057	-0,064
-575,977	800,000	0,036	0,083
-574,963	-74,457	0,080	-0,021
-573,948	-200,000	-0,006	0,028
-572,934	-139,829	0,118	0,009
-571,919	-41,400	-0,043	-0,016
-570,904	76,431	0,011	-0,009
-569,890	224,850	-0,022	-0,027
-568,875	212,070	0,020	0,023
-567,861	-200,000	0,032	0,137
-566,846	91,942	0,046	0,038
-565,831	6,121	0,123	0,066
-564,817	57,107	-0,197	0,141
-563,802	33,617	-0,105	-0,067
-562,788	800,000	-0,039	0,098
-561,773	-200,000	-0,009	-0,114
-560,758	1,488	0,025	0,013
-559,744	800,000	0,034	0,091
-558,729	-46,662	0,103	0,037
-557,715	800,000	0,018	-0,041
-556,700	-89,544	-0,130	-0,028
-555,685	-200,000	0,045	0,155
-554,671	-96,895	0,107	-0,020
-553,656	-99,629	-0,071	0,013
-552,642	-8,360	0,092	0,045
-551,627	-26,177	-0,096	0,041
-550,612	-200,000	0,015	-0,061
-549,598	-200,000	-0,004	0,026
-548,583	-138,871	0,073	-0,006
-547,569	742,393	0,052	0,103
-546,554	465,900	-0,063	0,103
-545,539	-72,371	0,052	-0,014
-544,525	157,472	0,036	-0,037
-543,510	62,611	-0,157	-0,114
-542,496	800,000	0,032	-0,088
-541,481	195,829	-0,040	-0,044
-540,466	71,918	-0,098	0,074
-539,452	-83,634	0,093	0,022
-538,437	-62,740	0,135	0,041
-537,423	610,673	0,048	0,088
-536,408	-74,717	0,025	-0,007
-535,393	-200,000	0,017	-0,160
-534,379	-200,000	-0,007	-0,099
-533,364	800,000	0,041	0,101
-532,350	-34,908	0,132	-0,053
-531,335	-200,000	-0,028	0,109
-530,321	121,589	0,138	0,126
-529,306	-200,000	-0,004	-0,045
-528,291	272,565	0,053	-0,069
-527,277	-76,938	0,109	-0,028
-526,262	158,672	-0,103	-0,105
-525,248	340,565	0,052	0,074
-524,233	800,000	0,051	0,123
-523,218	127,619	-0,094	0,087
-522,204	-131,727	-0,040	0,004
-521,189	-85,776	-0,056	0,013
-520,175	800,000	0,037	-0,103
-519,160	-57,469	-0,144	0,046
-518,145	-123,984	0,158	0,018
-517,131	-85,090	-0,063	0,014
-516,116	-200,000	-0,007	0,088
-515,102	89,138	0,079	-0,064
-514,087	-200,000	-0,001	0,052
-513,072	-200,000	0,008	-0,163
-512,058	-200,000	-0,016	-0,137
-511,043	-200,000	-0,020	-0,082
-510,029	-49,736	0,130	0,045
-509,014	278,572	0,107	0,140
-507,999	266,968	-0,083	0,106
-506,985	-200,000	0,002	-0,109
-505,970	-118,849	-0,033	0,004
-504,956	-200,000	-0,015	0,098
-503,941	800,000	0,029	0,060
-502,926	-200,000	-0,007	0,048
-501,912	133,830	0,010	0,010
-500,897	-200,000	0,023	-0,080
-499,883	-72,875	-0,177	-0,047
-498,868	800,000	-0,020	0,051
-497,853	-25,713	0,034	-0,014
-496,839	800,000	0,023	-0,051
-495,824	-200,000	0,040	-0,197
-494,810	-71,649	0,040	0,011
-493,795	-200,000	0,037	0,132
-492,781	96,805	-0,071	-0,059
-491,766	-200,000	0,001	-0,179
-490,751	53,901	0,163	-0,114
-489,737	800,000	-0,038	0,090
-488,722	44,036	-0,018	-0,012
-487,708	106,505	-0,028	0,025
-486,693	-73,803	-0,034	0,009
-485,678	80,260	-0,042	-0,033
-484,664	752,000	-0,078	-0,154
-483,649	17,997	0,029	-0,017
-482,635	270,657	0,136	-0,175
-481,620	89,166	0,110	-0,090
-480,605	415,047	-0,056	-0,087
-479,591	-19,403	-0,065	0,029
-478,576	416,358	-0,086	0,134
-477,562	159,721	-0,014	-0,014
-476,547	-200,000	0,009	-0,057
-475,532	-135,475	-0,124	0,011
-474,518	270,641	-0,055	0,070
-473,503	-83,918	0,162	0,037
-472,489	-193,775	0,109	0,001
-471,474	-33,911	-0,075	-0,030
-470,459	-43,694	-0,152	0,056
-469,445	-200,000	-0,009	-0,079
-468,430	-11,259	-0,102	0,049
-467,416	-79,595	-0,099	0,024
-466,401	800,000	-0,019	0,055
-465,386	800,000	0,035	0,091
-464,372	-71,500	0,017	0,005
-463,357	-200,000	0,017	0,135
-462,343	-200,000	-0,002	0,076
-461,328	263,579	-0,077	0,097
-460,313	-31,631	-0,094	-0,038
-459,299	-200,000	-0,023	0,138
-458,284	106,946	-0,033	0,029
-457,270	37,684	0,135	0,087
-456,255	-58,252	0,010	0,003
-455,241	59,744	-0,066	-0,048
-454,226	-200,000	0,000	0,017
-453,211	800,000	0,080	0,231
-452,197	-4,702	-0,084	0,042
-451,182	800,000	0,046	0,118
-450,168	-200,000	0,010	0,064
-449,153	288,052	-0,043	0,057
-448,138	-200,000	0,002	-0,014
-447,124	-200,000	0,037	-0,120
-446,109	25,682	0,111	0,067
-445,095	-136,706	0,118	-0,010
-444,080	-200,000	-0,006	-0,085
-443,065	718,340	0,010	-0,020
-442,051	116,467	-0,099	-0,089
-441,036	406,572	0,061	0,094
-440,022	800,000	-0,013	-0,027
-439,007	-200,000	-0,002	-0,082
-437,992	800,000	0,059	-0,136
-436,978	-122,896	0,024	-0,003
-435,963	5,701	-0,135	0,072
-434,949	54,896	0,079	-0,056
-433,934	150,324	-0,032	-0,032
-432,919	67,183	-0,091	0,067
-431,905	-55,700	0,060	-0,019
-430,890	-47,351	0,071	-0,025
-429,876	-43,571	-0,064	-0,023
-428,861	-43,892	0,035	-0,013
-427,846	-58,651	-0,108	-0,034
-426,832	-14,640	-0,074	-0,035
-425,817	-71,625	-0,098	0,027
-424,803	-114,337	0,066	-0,009
-423,788	-85,029	0,059	-0,013
-422,773	317,539	-0,024	-0,034
-421,759	447,269	0,076	0,121
-420,744	-200,000	-0,005	0,057
-419,730	187,386	-0,070	0,077
-418,715	154,748	-0,068	0,068
-417,701	260,797	-0,030	-0,038
-416,686	-132,981	0,087	0,008
-415,671	786,102	0,042	-0,084
-414,657	413,258	-0,066	-0,103
-413,642	514,410	0,042	0,072
-412,628	-200,000	0,003	0,069
-411,613	800,000	0,033	0,087
-410,598	-200,000	-0,002	0,027
-409,584	-200,000	0,000	0,042
-408,569	-73,420	0,076	0,020
-407,555	727,416	-0,020	0,040
-406,540	-190,108	0,037	0,000
-405,525	242,691	-0,059	0,072
-404,511	414,300	-0,014	0,022
-403,496	64,570	-0,004	0,003
-402,482	-200,000	0,009	-0,165
-401,467	-1,761	0,068	-0,035
-400,452	-89,843	-0,116	0,024
-399,438	92,004	0,057	0,047
-398,423	50,556	-0,058	0,040
-397,409	800,000	-0,029	-0,070
-396,394	800,000	0,038	-0,117
-395,379	-200,000	0,022	0,091
-394,365	-200,000	-0,013	-0,058
-393,350	-200,000	0,013	-0,077
-392,336	-153,532	-0,144	0,007
-391,321	97,930	0,096	-0,080
-390,306	800,000	0,019	0,046
-389,292	-192,237	0,016	-0,000
-388,277	-122,706	-0,105	-0,012
-387,263	-109,368	0,044	-0,007
-386,248	251,243	0,081	0,101
-385,233	629,270	-0,023	0,043
-384,219	-63,137	0,031	-0,009
-383,204	-200,000	0,012	-0,113
-382,190	-128,758	-0,061	-0,006
-381,175	-200,000	-0,006	0,116
-380,160	55,877	-0,052	-0,036
-379,146	381,644	0,067	0,100
-378,131	800,000	-0,032	0,082
-377,117	-200,000	0,019	0,085
-376,102	-11,436	-0,104	0,050
-375,088	-18,567	-0,041	0,019
-374,073	-64,167	0,088	-0,026
-373,058	-121,710	0,049	0,006
-372,044	-164,553	0,168	-0,005
-371,029	-143,868	-0,070	0,005
-370,015	800,000	0,030	-0,074
-369,000	-159,441	-0,147	-0,006
-367,985	-200,000	-0,026	-0,116
-366,971	31,063	0,029	-0,018
-365,956	252,360	-0,085	0,106
-364,942	-200,000	0,117	-0,000
-363,927	173,101	0,079	0,083
-362,912	-30,215	0,122	0,050
-361,898	54,237	0,028	-0,019
-360,883	-200,000	0,003	-0,071
-359,869	196,509	0,006	-0,007
-358,854	800,000	-0,003	-0,007
-357,839	233,772	-0,077	0,093
-356,825	800,000	0,043	0,099
-355,810	-200,000	0,019	0,095
-354,796	-200,000	0,009	-0,030
-353,781	-31,861	-0,095	-0,039
-352,766	390,572	0,056	-0,084
-351,752	-54,943	0,093	0,030
-350,737	-200,000	0,013	-0,124
-349,723	-69,021	-0,081	-0,023
-348,708	28,533	-0,064	0,039
-347,693	614,537	-0,033	0,060
-346,679	-63,188	-0,119	0,035
-345,664	-200,000	0,023	-0,126
-344,650	326,968	0,042	-0,058
-343,635	-200,000	-0,013	0,105
-342,620	206,190	0,062	0,070
-341,606	466,814	0,048	0,078
-340,591	-80,858	-0,164	-0,039
-339,577	251,958	-0,094	-0,117
-338,562	-105,907	0,011	-0,002
-337,548	340,558	-0,047	-0,066
-336,533	800,000	0,030	0,066
-335,518	245,384	0,051	0,062
-334,504	800,000	-0,047	-0,104
-333,489	-200,000	-0,002	-0,018
-332,475	200,366	0,053	-0,059
-331,460	90,778	-0,079	0,064
-330,445	-200,000	-0,004	0,099
-329,431	-148,896	0,060	-0,003
-328,416	431,898	0,039	0,062
-327,402	-15,938	-0,022	-0,010
-326,387	118,584	0,090	-0,080
-325,372	113,425	-0,053	-0,047
-324,358	-200,000	0,011	-0,059
-323,343	-132,803	-0,131	0,012
-322,329	303,211	0,051	0,068
-321,314	-83,607	-0,080	0,018
-320,299	257,988	0,095	0,119
-319,285	479,159	-0,074	0,122
-318,270	-200,000	-0,018	-0,102
-317,256	-102,818	-0,119	-0,020
-316,241	98,032	0,136	0,113
-315,226	296,196	0,066	-0,088
-314,212	508,578	0,007	-0,012
-313,197	438,676	0,103	0,163
-312,183	504,442	0,020	0,034
-311,168	6,331	0,034	0,018
-310,153	-200,000	-0,011	0,101
-309,139	637,732	0,041	-0,075
-308,124	-200,000	0,007	0,026
-307,110	-200,000	0,005	0,053
-306,095	57,317	0,024	0,017
-305,080	-120,760	0,124	-0,015
-304,066	800,000	-0,041	-0,094
-303,051	-98,903	0,120	0,022
-302,037	-27,538	0,081	-0,034
-301,022	-200,000	-0,024	-0,101
-300,008	-39,644	0,081	-0,031
-298,993	-120,881	-0,028	0,003
-297,978	-13,043	0,083	-0,039
-296,964	-200,000	-0,009	-0,046
-295,949	149,300	-0,099	-0,097
-294,935	248,859	0,020	-0,024
-293,920	72,678	0,045	0,034
-292,905	-75,976	0,033	-0,008
-291,891	-78,290	-0,084	0,021
-290,876	23,872	-0,098	0,058
-289,862	-149,269	-0,099	-0,006
-288,847	-130,919	-0,066	0,006
-287,832	453,512	-0,039	-0,063
-286,818	-29,572	-0,024	-0,010
-285,803	8,968	0,140	0,076
-284,789	-90,189	0,144	0,030
-283,774	800,000	-0,012	-0,031
-282,759	800,000	-0,025	0,059
-281,745	174,598	0,087	0,092
-280,730	-200,000	-0,007	0,087
-279,716	-200,000	0,010	-0,061
-278,701	57,071	0,107	-0,076
-277,686	-200,000	0,012	0,131
-276,672	-200,000	-0,012	-0,060
-275,657	-200,000	0,045	0,196
-274,643	230,209	0,033	0,039
-273,628	37,699	-0,092	0,059
-272,613	70,779	0,080	-0,060
-271,599	110,587	-0,080	0,070
-270,584	438,821	0,056	0,089
-269,570	-110,531	0,057	0,008
-268,555	221,991	0,095	0,111
-267,540	800,000	-0,054	0,140
-266,526	-200,000	-0,014	-0,108
-265,511	800,000	0,015	-0,038
-264,497	230,018	0,076	-0,090
-263,482	-200,000	0,017	-0,080
-262,467	800,000	0,042	-0,104
-261,453	-23,499	0,133	0,057
-260,438	36,263	-0,067	-0,043
-259,424	-133,789	0,108	0,010
-258,409	-77,338	0,044	-0,011
-257,395	303,056	0,032	-0,043
-256,380	775,432	-0,051	0,102
-255,365	86,473	0,072	0,058
-254,351	-200,000	-0,001	-0,046
-253,336	-78,416	0,168	-0,041
-252,322	68,750	-0,087	-0,065
-251,307	-200,000	-0,024	-0,196
-250,292	-69,696	-0,024	-0,007
-249,278	226,906	0,106	0,125
-248,263	-147,027	0,116	0,007
-247,249	-165,299	0,135	-0,004
-246,234	205,461	-0,137	-0,155
-245,219	-200,000	-0,015	-0,077
-244,205	800,000	-0,020	0,054
-243,190	76,491	-0,054	-0,042
-242,176	-115,642	0,081	0,011
-241,161	647,681	-0,016	-0,030
-240,146	-32,516	-0,030	0,012
-239,132	326,747	-0,013	0,018
-238,117	-200,000	-0,067	-0,232
-237,103	172,233	-0,029	-0,030
-236,088	-16,898	-0,059	-0,027
-235,073	82,716	0,077	0,060
-234,059	-33,979	0,068	-0,027
-233,044	122,177	0,055	-0,050
-232,030	-17,315	-0,041	-0,019
-231,015	-200,000	-0,008	-0,039
-230,000	-200,000	0,001	0,037
-228,986	-200,000	0,019	0,117
-227,971	-94,041	-0,071	0,014
-226,957	-200,000	0,008	-0,113
-225,942	427,751	0,026	-0,041
-224,927	153,737	0,010	-0,010
-223,913	-12,973	-0,100	0,047
-222,898	-200,000	0,000	-0,187
-221,884	35,167	0,120	-0,076
-220,869	800,000	0,052	0,109
-219,855	-131,620	0,151	0,014
-218,840	-109,657	0,091	0,014
-217,825	-69,783	-0,197	0,054
-216,811	-21,665	-0,090	-0,039
-215,796	18,225	0,084	-0,048
-214,782	-200,000	0,018	-0,098
-213,767	-200,000	-0,044	-0,190
-212,752	-83,418	0,136	-0,031
-211,738	251,020	0,065	-0,080
-210,723	-135,412	0,066	0,006
-209,709	1,422	-0,081	0,042
-208,694	350,571	-0,083	-0,118
-207,679	-172,826	-0,102	0,002
-206,665	800,000	-0,007	-0,021
-205,650	55,678	-0,058	-0,041
-204,636	319,194	-0,078	0,107
-203,621	-38,357	0,198	0,075
-202,606	-111,246	-0,113	0,017
-201,592	-80,044	-0,081	-0,019
-200,577	-39,251	-0,048	-0,018
-199,563	217,139	-0,050	0,057
-198,548	106,827	-0,096	0,082
-197,533	-115,880	-0,060	0,008
-196,519	-200,000	0,013	0,139
-195,504	670,109	-0,027	-0,051
-194,490	217,311	-0,081	-0,094
-193,475	12,919	-0,111	-0,062
-192,460	-137,114	-0,174	-0,014
-191,446	800,000	0,013	-0,028
-190,431	358,512	0,033	0,048
-189,417	-200,000	-0,015	0,066
-188,402	55,045	0,037	-0,026
-187,387	-71,753	-0,039	0,010
-186,373	-117,314	-0,027	-0,003
-185,358	242,891	-0,018	0,021
-184,344	-200,000	-0,002	-0,008
-183,329	136,447	0,129	0,121
-182,315	-200,000	-0,000	0,027
-181,300	800,000	0,067	0,142
-180,285	-200,000	-0,013	-0,106
-179,271	543,603	-0,053	-0,091
-178,256	-10,224	-0,105	0,050
-177,242	-103,314	0,201	-0,034
-176,227	-200,000	0,030	0,126
-175,212	-101,733	0,104	-0,018
-174,198	-200,000	0,036	-0,115
-173,183	51,629	-0,060	0,041
-172,169	-99,585	-0,151	-0,027
-171,154	-200,000	-0,002	0,038
-170,139	800,000	-0,037	0,089
-169,125	101,815	-0,109	0,092
-168,110	-129,206	0,150	0,015
-167,096	434,232	-0,017	-0,026
-166,081	-200,000	0,021	0,102
-165,066	-176,821	0,038	-0,001
-164,052	-81,350	0,060	0,014
-163,037	-143,952	-0,110	0,007
-162,023	-42,324	-0,059	-0,022
-161,008	-200,000	0,029	0,107
-159,993	-0,827	-0,128	-0,065
-158,979	800,000	-0,015	-0,038
-157,964	-16,364	-0,124	-0,056
-156,950	-87,755	0,058	-0,013
-155,935	-200,000	0,047	0,169
-154,920	-200,000	-0,006	0,099
-153,906	-71,107	-0,094	0,025
-152,891	-200,000	-0,064	-0,207
-151,877	-56,572	0,110	-0,035
-150,862	293,103	-0,037	-0,049
-149,847	800,000	-0,048	0,110
-148,833	-111,836	0,043	0,006
-147,818	6,814	0,108	0,058
-146,804	-104,315	-0,185	0,031
-145,789	-22,692	-0,061	0,026
-144,775	102,790	0,023	0,020
-143,760	549,095	0,062	-0,108
-142,745	738,518	-0,036	0,070
-141,731	-140,369	0,079	-0,006
-140,716	193,720	-0,069	-0,075
-139,702	182,047	-0,045	-0,048
-138,687	-200,000	0,007	0,081
-137,672	32,925	0,137	0,085
-136,658	-200,000	0,003	-0,056
-135,643	800,000	-0,045	-0,141
-134,629	-38,607	-0,031	-0,012
-133,614	-200,000	-0,015	-0,173
-132,599	-82,421	0,081	-0,019
-131,585	218,781	0,065	0,075
-130,570	-200,000	0,009	0,032
-129,556	-57,191	0,025	0,008
-128,541	-200,000	-0,009	0,037
-127,526	-48,602	0,199	-0,068
-126,512	-52,571	0,052	-0,017
-125,497	272,231	0,113	0,144
-124,483	475,417	-0,061	0,100
-123,468	800,000	-0,049	0,119
-122,453	110,369	0,047	0,041
-121,439	406,487	0,035	-0,053
-120,424	-168,779	-0,123	-0,003
-119,410	-105,870	-0,025	-0,004
-118,395	234,760	0,009	-0,011
-117,380	-123,113	-0,033	0,004
-116,366	-109,756	-0,136	0,020
-115,351	-67,828	-0,055	0,015
-114,337	180,111	0,046	0,049
-113,322	-22,440	-0,077	-0,034
-112,307	-38,344	0,058	-0,022
-111,293	159,575	-0,048	-0,048
-110,278	-113,919	0,074	0,010
-109,264	800,000	-0,045	0,107
-108,249	-133,934	0,077	0,007
-107,234	800,000	0,056	-0,144
-106,220	762,571	0,063	0,123
-105,205	80,696	-0,022	0,017
-104,191	597,986	0,043	-0,077
-103,176	104,681	0,113	-0,096
-102,162	114,825	0,040	0,035
-101,147	-37,210	0,008	0,003
-100,132	-111,371	-0,117	-0,017
-99,118	43,172	-0,029	0,019
-98,103	-155,698	0,101	-0,005
-97,089	-187,666	-0,058	-0,001
-96,074	-17,050	0,141	-0,064
-95,059	-40,699	0,059	0,022
-94,045	149,004	-0,053	0,052
-93,030	-55,456	-0,139	-0,045
-92,016	-8,875	-0,053	-0,025
-91,001	-51,587	0,099	0,033
-89,986	559,568	0,051	0,090
-88,972	91,665	-0,050	0,040
-87,957	-84,550	-0,132	-0,030
-86,943	62,470	-0,036	-0,026
-85,928	-56,592	-0,166	0,053
-84,913	-157,590	-0,087	0,004
-83,899	-200,000	-0,010	0,035
-82,884	800,000	0,032	0,072
-81,870	-131,053	-0,059	0,006
-80,855	-96,668	0,134	0,025
-79,840	800,000	-0,019	0,060
-78,826	800,000	0,024	-0,048
-77,811	800,000	0,041	-0,085
-76,797	13,347	-0,085	-0,047
-75,782	-152,862	0,144	0,007
-74,767	-129,105	-0,036	0,004
-73,753	-200,000	0,021	-0,081
-72,738	-35,966	-0,029	0,011
-71,724	281,025	-0,050	0,064
-70,709	-79,398	-0,097	0,023
-69,694	309,671	0,047	0,063
-68,680	-200,000	0,040	0,175
-67,665	-56,592	0,057	-0,018
-66,651	86,252	0,079	0,063
-65,636	-36,673	0,081	-0,031
-64,622	-71,055	0,078	-0,021
-63,607	-200,000	-0,026	-0,089
-62,592	174,602	-0,087	0,091
-61,578	-200,000	0,002	0,064
-60,563	-184,898	0,127	-0,001
-59,549	-59,133	-0,082	-0,025
-58,534	12,259	-1,921	-1,059
-57,519	-200,000	-0,251	-0,910
-56,505	-200,000	-1,285	-4,951
-55,490	35,877	0,779	0,491
-54,476	800,000	5,283	12,095
-53,461	-200,000	17,734	288,743
-52,446	800,000	729,103	2231,880
-51,432	538,031	1645,261	2816,883
-50,417	109,546	1635,712	1406,003
-49,403	75,335	1287,262	973,456
-48,388	31,665	1027,474	632,813
-47,373	20,133	988,997	571,104
-46,359	18,293	976,750	557,983
-45,344	15,321	972,626	545,886
-44,330	15,527	971,440	545,872
-43,315	15,089	969,519	543,339
-42,300	15,035	968,192	542,400
-41,286	14,988	967,468	541,819
-40,271	14,961	966,528	541,184
-39,257	14,986	965,518	540,679
-38,242	15,017	964,624	540,256
-37,227	15,071	963,712	539,898
-36,213	15,030	962,894	539,285
-35,198	14,998	962,016	538,669
-34,184	15,005	961,551	538,412
-33,169	14,981	960,247	537,583
-32,154	14,998	959,498	537,196
-31,140	15,107	958,440	536,935
-30,125	15,132	957,611	536,528
-29,111	15,009	957,019	535,778
-28,096	15,074	956,079	535,440
-27,082	15,016	955,451	534,882
-26,067	15,003	954,851	534,482
-25,052	15,035	953,944	534,057
-24,038	15,043	953,383	533,746
-23,023	14,959	953,014	533,248
-22,009	15,064	952,204	533,111
-20,994	15,096	951,486	532,790
-19,979	15,066	950,882	532,336
-18,965	15,054	950,058	531,816
-17,950	14,996	949,645	531,379
-16,936	14,991	948,888	530,917
-15,921	14,970	948,324	530,513
-14,906	14,915	947,603	529,913
-13,892	14,963	946,925	529,666
-12,877	14,903	946,295	529,102
-11,863	14,885	945,669	528,673
-10,848	14,900	945,169	528,420
-9,833	15,034	944,629	528,523
-8,819	15,007	943,839	527,975
-7,804	14,933	943,473	527,515
-6,790	14,932	942,853	527,144
-5,775	14,988	942,009	526,828
-4,760	14,986	941,535	526,536
-3,746	14,986	940,736	526,068
-2,731	14,818	940,195	525,213
-1,717	14,723	939,743	524,639
-0,702	14,764	938,898	524,276
0,313	14,573	938,313	524,139
1,327	17,812	936,165	533,088
2,342	26,716	792,545	474,851
3,356	23,367	457,626	269,055
4,371	-3,609	313,675	155,811
5,386	-7,537	295,369	142,741
6,400	-9,543	289,315	137,817
7,415	-10,071	286,929	136,150
8,429	-10,309	285,451	135,204
9,444	-10,268	284,409	134,739
10,459	-10,166	283,765	134,521
11,473	-10,098	283,119	134,268
12,488	-10,317	282,784	133,885
13,502	-10,257	282,073	133,595
14,517	-10,379	281,910	133,388
15,531	-10,086	281,320	133,379
16,546	-10,217	280,934	133,058
17,561	-10,167	280,507	132,892
18,575	-10,103	280,146	132,770
19,590	-10,339	279,851	132,393
20,604	-10,143	279,378	132,345
21,619	-10,397	279,173	131,993
22,634	-10,215	278,789	131,974
23,648	-10,448	278,535	131,620
24,663	-10,290	278,318	131,655
25,677	-10,467	278,055	131,351
26,692	-10,117	277,718	131,513
27,707	-10,166	277,412	131,309
28,721	-10,213	277,324	131,212
29,736	-10,337	276,947	130,904
30,750	-10,383	276,725	130,744
31,765	-10,208	276,284	130,689
32,780	-10,390	276,259	130,494
33,794	-10,306	276,034	130,455
34,809	-10,354	275,614	130,200
35,823	-10,283	275,391	130,150
36,838	-10,317	275,144	129,990
37,853	-10,516	275,008	129,727
38,867	-10,375	274,681	129,693
39,882	-10,324	274,554	129,670
40,896	-10,084	274,147	129,691
41,911	-10,295	273,893	129,361
42,926	-10,331	273,717	129,233
43,940	-10,416	273,512	129,045
44,955	-10,420	273,266	128,914
45,969	-10,498	272,908	128,662
46,984	-10,454	272,821	128,650
47,999	-10,715	272,536	128,261
49,013	-10,898	272,328	127,983
50,028	-10,911	271,971	127,791
51,042	-11,017	271,597	127,505
52,057	-11,084	271,285	127,285
53,071	-10,974	271,243	127,357
54,086	-10,816	270,947	127,351
55,101	-10,695	270,976	127,465
56,115	-10,549	270,741	127,478
57,130	-10,271	270,659	127,685
58,144	-10,019	270,305	127,739
59,159	-10,244	270,177	127,459
60,174	-10,138	269,958	127,442
61,188	-10,055	269,629	127,352
62,203	-10,113	269,488	127,220
63,217	-10,264	269,272	126,969
64,232	-10,219	269,035	126,887
65,247	-10,022	268,644	126,872
66,261	-10,113	268,709	126,808
67,276	-10,328	268,375	126,443
68,290	-10,452	267,952	126,119
69,305	-10,622	267,787	125,875
70,320	-10,574	267,554	125,798
71,334	-10,416	267,371	125,844
72,349	-10,244	267,245	125,931
73,363	-10,170	267,032	125,886
74,378	-10,202	266,848	125,759
75,393	-10,045	266,645	125,794
76,407	-10,210	266,455	125,544
77,422	-10,243	266,238	125,401
78,436	-10,077	266,018	125,436
79,451	-10,077	265,752	125,300
80,466	-10,116	265,427	125,101
81,480	-10,347	265,162	124,755
82,495	-10,335	265,114	124,733
83,509	-10,323	264,976	124,667
84,524	-10,363	264,685	124,484
85,539	-10,339	264,387	124,354
86,553	-10,529	264,271	124,117
87,568	-10,482	263,942	123,994
88,582	-10,324	263,713	124,017
89,597	-10,304	263,479	123,913
90,611	-10,133	263,352	123,996
91,626	-10,203	263,533	124,008
92,641	-10,096	263,088	123,883
93,655	-10,249	262,814	123,606
94,670	-10,483	262,711	123,338
95,684	-10,240	262,374	123,386
96,699	-10,192	262,201	123,335
97,714	-10,255	262,011	123,179
98,728	-10,359	261,805	122,979
99,743	-10,343	261,453	122,816
100,757	-10,333	261,186	122,689
101,772	-10,192	261,057	122,743
102,787	-10,261	261,094	122,688
103,801	-10,243	260,816	122,562
104,816	-10,220	260,653	122,495
105,830	-10,085	260,521	122,541
106,845	-10,128	260,276	122,378
107,860	-10,200	260,124	122,231
108,874	-10,275	259,996	122,094
109,889	-10,154	259,563	121,987
110,903	-10,325	259,503	121,797
111,918	-10,335	259,254	121,661
112,933	-10,062	259,091	121,813
113,947	-10,217	259,071	121,657
114,962	-10,214	258,744	121,495
115,976	-10,062	258,499	121,502
116,991	-10,239	258,368	121,275
118,006	-10,303	258,299	121,176
119,020	-10,371	258,097	121,010
120,035	-10,084	257,940	121,176
121,049	-10,202	257,810	121,002
122,064	-10,142	257,428	120,864
123,079	-10,193	257,341	120,768
124,093	-10,270	257,199	120,623
125,108	-10,477	256,961	120,321
126,122	-10,595	256,596	120,036
127,137	-10,569	256,404	119,959
128,151	-10,595	256,251	119,854
129,166	-10,383	256,035	119,927
130,181	-10,534	255,737	119,645
131,195	-10,569	255,747	119,608
132,210	-10,239	255,475	119,756
133,224	-10,204	255,487	119,781
134,239	-10,120	255,164	119,692
135,254	-10,183	254,926	119,515
136,268	-10,278	254,804	119,365
137,283	-10,490	254,501	119,030
138,297	-10,742	254,436	118,772
139,312	-10,751	254,240	118,663
140,327	-10,317	253,860	118,847
141,341	-10,100	253,862	119,024
142,356	-10,034	253,705	118,996
143,370	-10,042	253,343	118,809
144,385	-10,024	253,275	118,782
145,400	-9,902	253,024	118,758
146,414	-10,017	252,840	118,563
147,429	-10,043	252,689	118,459
148,443	-10,099	252,689	118,401
149,458	-9,895	252,450	118,453
150,473	-9,958	252,236	118,288
151,487	-10,137	251,949	117,990
152,502	-9,959	251,847	118,083
153,516	-9,892	251,587	118,008
154,531	-9,921	251,555	117,958
155,546	-9,794	251,151	117,866
156,560	-9,958	251,016	117,653
157,575	-10,010	250,748	117,473
158,589	-10,202	250,623	117,241
159,604	-9,897	250,458	117,411
160,619	-9,962	250,283	117,264
161,633	-10,136	250,222	117,078
162,648	-10,195	250,196	117,005
163,662	-9,981	249,983	117,076
164,677	-10,158	249,831	116,845
165,692	-10,024	249,459	116,774
166,706	-9,851	249,364	116,864
167,721	-9,982	249,122	116,630
168,735	-10,086	249,166	116,553
169,750	-10,057	248,942	116,463
170,764	-9,946	248,863	116,508
171,779	-9,941	248,672	116,412
172,794	-9,929	248,438	116,303
173,808	-9,856	248,195	116,239
174,823	-10,201	247,860	115,784
175,837	-10,586	247,785	115,417
176,852	-10,122	247,706	115,757
177,867	-9,983	247,637	115,831
178,881	-10,126	247,535	115,653
179,896	-9,988	247,260	115,630
180,910	-10,018	246,991	115,469
181,925	-10,032	246,927	115,417
182,940	-10,030	246,756	115,328
183,954	-9,958	246,499	115,258
184,969	-9,936	246,362	115,201
185,983	-9,940	246,239	115,130
186,998	-9,880	246,044	115,079
188,013	-9,994	245,912	114,912
189,027	-9,868	245,777	114,943
190,042	-9,883	245,452	114,768
191,056	-9,999	245,426	114,651
192,071	-9,900	245,158	114,596
193,086	-9,792	244,949	114,577
194,100	-10,012	244,921	114,373
195,115	-9,783	244,532	114,370
196,129	-9,858	244,551	114,306
197,144	-10,198	244,327	113,912
198,159	-9,991	244,148	113,989
199,173	-9,929	243,897	113,912
200,188	-9,951	243,765	113,822
201,202	-10,281	243,509	113,422
202,217	-10,420	243,251	113,178
203,232	-10,436	242,867	112,976
204,246	-10,111	243,031	113,308
205,261	-9,638	242,833	113,592
206,275	-10,166	242,541	113,015
207,290	-5,533	244,610	117,776
208,304	1,582	246,736	124,668
209,319	4,042	247,327	126,987
210,334	3,993	247,128	126,833
211,348	4,230	246,868	126,884
212,363	3,870	246,901	126,592
213,377	4,100	246,749	126,693
214,392	4,012	246,536	126,500
215,407	4,292	246,332	126,614
216,421	4,326	246,200	126,563
217,436	4,177	246,100	126,378
218,450	4,122	245,918	126,228
219,465	4,137	245,639	126,086
220,480	3,804	245,572	125,767
221,494	3,770	245,256	125,567
222,509	3,796	245,040	125,466
223,523	3,829	245,011	125,467
224,538	3,668	244,714	125,172
225,553	3,830	244,515	125,191
226,567	3,727	244,404	125,039
227,582	3,777	244,463	125,099
228,596	3,958	244,204	125,103
229,611	3,713	244,059	124,818
230,626	3,602	243,757	124,563
231,640	3,738	243,693	124,629
232,655	3,820	243,439	124,555
233,669	3,674	243,369	124,389
234,684	3,563	243,132	124,167
235,699	3,689	243,041	124,212
236,713	3,933	242,920	124,336
237,728	3,766	242,668	124,061
238,742	3,727	242,588	123,978
239,757	3,674	242,364	123,809
240,772	3,820	242,161	123,812
241,786	3,712	242,157	123,712
242,801	3,758	241,900	123,607
243,815	3,615	241,847	123,454
244,830	3,850	241,652	123,532
245,844	3,827	241,623	123,487
246,859	3,763	241,322	123,272
247,874	3,706	241,200	123,153
248,888	3,829	240,901	123,087
249,903	4,005	240,858	123,196
250,917	3,773	240,793	122,965
251,932	3,762	240,680	122,888
252,947	3,880	240,393	122,825
253,961	3,768	240,125	122,588
254,976	3,605	240,036	122,402
255,990	3,500	239,948	122,262
257,005	3,598	239,888	122,298
258,020	3,782	239,595	122,285
259,034	3,772	239,382	122,157
260,049	3,629	239,298	121,990
261,063	3,790	238,926	121,916
262,078	3,833	238,856	121,904
263,093	3,776	238,810	121,825
264,107	3,845	238,707	121,815
265,122	3,887	238,486	121,726
266,136	3,887	238,421	121,681
267,151	3,930	238,233	121,608
268,166	3,965	237,935	121,474
269,180	3,572	237,840	121,104
270,195	3,981	237,702	121,346
271,209	3,782	237,671	121,162
272,224	3,793	237,500	121,073
273,239	3,594	237,305	120,806
274,253	3,654	237,010	120,691
275,268	3,858	237,028	120,851
276,282	3,773	236,856	120,686
277,297	3,531	236,723	120,417
278,312	3,733	236,648	120,526
279,326	3,807	236,442	120,469
280,341	3,656	236,208	120,221
281,355	3,858	236,097	120,312
282,370	3,598	236,003	120,050
283,384	4,001	235,601	120,149
284,399	3,692	235,619	119,906
285,414	3,700	235,390	119,785
286,428	3,638	235,350	119,706
287,443	3,771	235,121	119,682
288,457	3,819	234,987	119,641
289,472	3,697	234,925	119,504
290,487	3,518	234,775	119,277
291,501	3,606	234,437	119,164
292,516	3,607	234,352	119,110
293,530	3,814	234,269	119,218
294,545	3,777	234,301	119,195
295,560	3,947	234,014	119,171
296,574	3,801	233,933	119,005
297,589	3,852	233,753	118,943
298,603	3,831	233,590	118,833
299,618	4,072	233,408	118,915
300,633	3,907	233,370	118,758
301,647	4,053	233,310	118,830
302,662	3,887	233,261	118,667
303,676	4,028	232,816	118,538
304,691	3,999	232,837	118,516
305,706	3,827	232,631	118,268
306,720	3,950	232,437	118,253
307,735	3,801	232,306	118,062
308,749	3,648	232,013	117,785
309,764	3,605	231,912	117,690
310,779	3,625	231,593	117,533
311,793	3,744	231,548	117,590
312,808	3,568	231,432	117,386
313,822	3,666	231,151	117,309
314,837	3,778	231,123	117,369
315,852	3,624	230,963	117,161
316,866	3,758	231,096	117,319
317,881	3,902	230,907	117,323
318,895	3,730	230,674	117,063
319,910	3,852	230,480	117,047
320,925	3,674	230,401	116,861
321,939	3,842	230,199	116,876
322,954	3,905	230,211	116,919
323,968	3,940	230,090	116,875
324,983	4,036	229,768	116,773
325,997	3,804	229,738	116,571
327,012	3,912	229,435	116,489
328,027	4,126	229,240	116,541
329,041	4,168	229,315	116,601
330,056	4,404	229,166	116,694
331,070	4,184	229,031	116,448
332,085	4,117	228,677	116,207
333,100	3,817	228,637	115,950
334,114	3,859	228,372	115,837
335,129	4,134	228,327	116,011
336,143	3,925	228,316	115,837
337,158	3,909	228,000	115,655
338,173	3,813	227,883	115,514
339,187	3,783	227,852	115,465
340,202	3,949	227,605	115,454
341,216	3,791	227,410	115,226
342,231	3,785	227,329	115,170
343,246	3,598	227,063	114,885
344,260	3,746	226,981	114,944
345,275	3,692	226,852	114,828
346,289	3,802	226,700	114,824
347,304	3,754	226,318	114,583
348,319	3,544	226,310	114,413
349,333	3,542	226,061	114,275
350,348	3,410	225,874	114,072
351,362	3,134	225,730	113,784
352,377	2,920	225,633	113,566
353,392	2,928	225,392	113,440
354,406	2,619	225,227	113,118
355,421	194,379	1321,086	1393,951
356,435	155,744	1454,578	1393,937
