DTS Sentinel unit serial number:	SN410029Multiplexer serial number:	ORYXHardware model number:	OX2-SRSoftware version number:	ORYX F/W v4,00 Oryx Data Collector v3.7.2.0data status	okinstallation	B5 Nyhavnadifferential loss correction	single-endedforward channel	channel 2reverse channel	N/Adate	2023/12/12time	04:52:13forward acquisition time	300,00reverse acquisition time	0,00gamma	499,1914k internal	0,3157k external	0,3157temperature offset calibration	1,0000default loss term (dB/km)	0,3820temperature slope calibration	1,0000multiplexer offset coefficient	1,0000multiplexer slope coefficient	1,0000fibre end	0,00T internal ref (°C)	15,44T ext. ref 1 (°C)	-1,01T ext. ref 2 (°C)	-1,27length (m)	temperature (°C)	Stokes	anti-Stokes-744,400	-138,047	0,134	-0,011
-743,385	-99,142	-0,294	0,054
-742,371	-122,816	0,134	-0,016
-741,356	-197,575	-0,228	-0,001
-740,342	-125,759	0,038	-0,004
-739,327	-79,454	-0,348	-0,086
-738,312	95,919	0,036	0,030
-737,298	-20,572	-0,282	0,127
-736,283	-25,052	0,078	-0,034
-735,269	-68,449	-0,342	-0,097
-734,254	138,435	0,066	-0,064
-733,239	-40,060	-0,426	-0,163
-732,225	-68,968	0,208	-0,059
-731,210	-83,394	0,024	0,006
-730,196	800,000	0,015	-0,049
-729,181	800,000	-0,059	-0,124
-728,167	-76,523	-0,145	-0,037
-727,152	527,670	0,038	0,066
-726,137	735,098	-0,022	-0,043
-725,123	57,086	-0,037	0,026
-724,108	85,886	-0,143	-0,116
-723,094	-200,000	-0,013	-0,079
-722,079	-117,304	0,090	0,012
-721,064	406,362	-0,027	-0,042
-720,050	800,000	-0,053	-0,143
-719,035	-128,894	0,095	-0,010
-718,021	3,372	-0,091	-0,049
-717,006	-84,612	-0,068	0,016
-715,991	-106,609	-0,085	-0,014
-714,977	-104,024	-0,186	0,032
-713,962	322,399	-0,056	-0,078
-712,948	109,777	-0,032	0,028
-711,933	-129,347	0,128	-0,013
-710,918	26,093	-0,111	-0,068
-709,904	-200,000	-0,012	-0,063
-708,889	800,000	-0,091	-0,188
-707,875	95,880	-0,066	-0,055
-706,860	-28,054	-0,038	0,016
-705,845	505,743	0,076	-0,130
-704,831	-101,301	-0,054	0,010
-703,816	126,991	0,151	-0,141
-702,802	412,181	-0,042	0,066
-701,787	189,341	-0,045	0,050
-700,772	50,942	-0,098	0,068
-699,758	-155,461	0,119	0,006
-698,743	358,783	0,073	-0,108
-697,729	-151,584	-0,124	0,007
-696,714	364,002	-0,089	0,132
-695,699	-200,000	-0,009	-0,225
-694,685	-134,944	-0,058	-0,005
-693,670	468,986	0,023	-0,038
-692,656	-200,000	-0,002	0,065
-691,641	-200,000	-0,022	-0,140
-690,627	-41,515	-0,164	-0,062
-689,612	340,932	0,014	-0,020
-688,597	-200,000	-0,007	0,047
-687,583	-200,000	-0,002	-0,062
-686,568	800,000	-0,014	0,040
-685,554	-200,000	0,002	-0,110
-684,539	-58,055	-0,021	-0,007
-683,524	-200,000	-0,002	0,099
-682,510	-123,845	-0,090	0,010
-681,495	554,373	-0,064	-0,113
-680,481	-200,000	-0,027	-0,102
-679,466	10,524	0,075	-0,042
-678,451	244,655	0,060	-0,074
-677,437	-200,000	-0,005	-0,034
-676,422	800,000	-0,063	-0,158
-675,408	177,627	-0,063	0,068
-674,393	143,706	0,050	0,049
-673,378	-110,838	0,031	-0,005
-672,364	-26,598	-0,069	-0,030
-671,349	-40,695	-0,130	-0,049
-670,335	-27,638	-0,080	-0,034
-669,320	-200,000	-0,049	0,000
-668,305	-89,890	0,084	-0,018
-667,291	800,000	-0,044	-0,144
-666,276	28,598	-0,052	-0,032
-665,262	-47,482	-0,142	-0,050
-664,247	-200,000	0,011	0,043
-663,232	800,000	0,050	-0,122
-662,218	-200,000	-0,029	-0,170
-661,203	-58,848	-0,090	0,029
-660,189	-2,368	0,173	0,089
-659,174	2,579	-0,084	-0,044
-658,159	800,000	-0,045	-0,139
-657,145	-57,742	-0,104	-0,033
-656,130	136,202	0,051	-0,049
-655,116	-200,000	-0,003	-0,019
-654,101	800,000	-0,027	-0,066
-653,086	-54,613	0,019	0,006
-652,072	587,546	-0,056	-0,102
-651,057	800,000	-0,076	-0,194
-650,043	-200,000	0,004	-0,037
-649,028	800,000	-0,021	0,054
-648,014	-98,989	0,038	-0,007
-646,999	761,078	0,048	-0,097
-645,984	800,000	-0,039	0,112
-644,970	-118,812	-0,069	-0,009
-643,955	121,314	-0,082	0,075
-642,941	-200,000	-0,045	-0,181
-641,926	473,776	0,032	-0,054
-640,911	-94,017	0,132	-0,026
-639,897	-65,256	0,155	0,045
-638,882	-200,000	0,003	0,026
-637,868	-98,872	-0,180	0,033
-636,853	-124,451	0,035	0,004
-635,838	58,126	-0,117	0,084
-634,824	800,000	0,055	-0,160
-633,809	800,000	-0,042	0,118
-632,795	-5,525	0,058	0,029
-631,780	-129,360	0,048	0,005
-630,765	76,738	0,121	-0,094
-629,751	-173,332	-0,150	-0,003
-628,736	-129,333	-0,091	-0,009
-627,722	-200,000	0,015	-0,122
-626,707	-200,000	-0,008	-0,074
-625,692	614,795	0,058	0,107
-624,678	800,000	0,006	0,017
-623,663	-17,963	-0,108	-0,049
-622,649	271,056	-0,055	-0,072
-621,634	67,837	-0,053	0,040
-620,619	-200,000	-0,025	-0,147
-619,605	308,537	-0,065	-0,090
-618,590	547,129	0,041	-0,072
-617,576	135,638	0,090	0,086
-616,561	-45,649	-0,051	-0,019
-615,546	-200,000	0,013	-0,050
-614,532	-200,000	-0,042	-0,162
-613,517	133,920	0,149	-0,142
-612,503	800,000	-0,039	-0,082
-611,488	800,000	0,036	-0,087
-610,474	-72,935	0,062	-0,016
-609,459	18,339	-0,077	-0,045
-608,444	-167,112	0,105	0,003
-607,430	197,280	-0,084	0,094
-606,415	91,337	0,028	0,023
-605,401	-200,000	0,031	0,106
-604,386	63,022	-0,018	-0,013
-603,371	-200,000	-0,024	0,116
-602,357	800,000	-0,057	-0,148
-601,342	800,000	0,030	-0,084
-600,328	800,000	-0,045	-0,117
-599,313	3,399	-0,142	0,075
-598,298	-72,981	-0,015	0,004
-597,284	800,000	0,017	-0,039
-596,269	800,000	-0,036	0,116
-595,255	-200,000	0,031	0,144
-594,240	-91,892	-0,010	-0,002
-593,225	-186,325	-0,098	-0,001
-592,211	-68,035	-0,154	-0,044
-591,196	-97,663	0,127	0,024
-590,182	648,013	-0,008	0,015
-589,167	9,536	0,065	-0,036
-588,152	-200,000	-0,026	0,088
-587,138	-84,252	0,062	0,014
-586,123	-200,000	0,001	-0,276
-585,109	800,000	0,036	-0,107
-584,094	-40,688	-0,122	-0,046
-583,079	-39,060	0,054	0,021
-582,065	64,502	-0,102	-0,076
-581,050	-43,809	-0,121	0,044
-580,036	-115,192	-0,099	0,014
-579,021	-119,649	0,056	0,007
-578,006	-200,000	0,007	-0,111
-576,992	214,695	-0,092	-0,107
-575,977	633,727	0,041	-0,077
-574,963	-200,000	-0,002	-0,104
-573,948	-200,000	0,022	0,182
-572,934	262,684	0,066	0,084
-571,919	-69,478	-0,098	0,027
-570,904	-7,594	-0,074	0,037
-569,890	-200,000	-0,016	0,061
-568,875	393,644	-0,056	0,086
-567,861	297,265	0,028	-0,038
-566,846	124,210	-0,082	0,076
-565,831	20,321	0,165	-0,098
-564,817	-72,331	0,050	-0,013
-563,802	-200,000	0,017	-0,079
-562,788	-113,302	-0,091	-0,013
-561,773	-11,452	0,080	0,038
-560,758	-200,000	0,004	0,062
-559,744	250,646	0,011	-0,014
-558,729	284,140	-0,076	0,101
-557,715	-200,000	-0,013	-0,042
-556,700	-102,521	-0,099	0,017
-555,685	342,557	0,021	-0,031
-554,671	-61,064	0,029	-0,009
-553,656	-135,400	-0,050	0,004
-552,642	-31,493	-0,032	-0,013
-551,627	-200,000	0,008	-0,036
-550,612	52,581	0,055	-0,038
-549,598	-200,000	-0,005	0,083
-548,583	59,549	-0,096	0,070
-547,569	-155,848	0,075	-0,003
-546,554	-200,000	-0,014	0,044
-545,539	68,362	0,044	-0,033
-544,525	2,663	0,110	0,058
-543,510	16,254	-0,098	-0,056
-542,496	800,000	-0,010	0,025
-541,481	800,000	-0,067	-0,174
-540,466	158,095	0,128	0,130
-539,452	800,000	0,037	0,108
-538,437	-104,518	-0,100	-0,017
-537,423	800,000	-0,021	0,051
-536,408	-200,000	-0,025	-0,085
-535,393	375,301	0,073	-0,109
-534,379	116,495	-0,071	-0,064
-533,364	-200,000	0,009	-0,182
-532,350	276,037	-0,032	-0,042
-531,335	-6,976	-0,042	0,021
-530,321	-70,802	-0,088	-0,024
-529,306	74,003	0,032	0,025
-528,291	197,763	-0,051	0,057
-527,277	-200,000	-0,008	-0,052
-526,262	12,771	-0,077	-0,043
-525,248	151,675	0,074	0,074
-524,233	-200,000	0,015	-0,163
-523,218	-200,000	0,016	0,090
-522,204	699,418	-0,096	0,186
-521,189	-200,000	-0,008	0,029
-520,175	-200,000	-0,015	-0,077
-519,160	-200,000	0,022	0,081
-518,145	114,442	0,072	0,064
-517,131	-200,000	0,015	-0,111
-516,116	-200,000	-0,006	-0,040
-515,102	222,081	-0,046	0,054
-514,087	115,819	0,059	0,053
-513,072	2,863	-0,161	0,085
-512,058	-111,897	-0,057	0,008
-511,043	-200,000	0,011	-0,051
-510,029	100,120	0,099	0,084
-509,014	461,303	-0,029	0,048
-507,999	37,298	0,034	0,022
-506,985	-200,000	-0,020	-0,068
-505,970	332,597	-0,068	0,096
-504,956	126,702	0,035	-0,032
-503,941	2,071	-0,015	-0,008
-502,926	74,618	-0,061	-0,047
-501,912	-200,000	-0,006	0,063
-500,897	-200,000	-0,000	0,130
-499,883	136,285	0,041	0,039
-498,868	77,547	-0,087	0,068
-497,853	-200,000	-0,001	-0,050
-496,839	-200,000	-0,031	0,124
-495,824	-200,000	0,001	-0,053
-494,810	-43,848	0,124	0,046
-493,795	-99,109	-0,114	0,021
-492,781	-68,530	-0,077	0,022
-491,766	-144,554	-0,053	-0,003
-490,751	529,516	-0,057	0,099
-489,737	-173,449	0,092	-0,002
-488,722	-57,518	0,119	0,038
-487,708	-132,481	0,063	-0,006
-486,693	292,521	-0,087	0,116
-485,678	-55,598	0,101	0,033
-484,664	-93,502	-0,094	-0,019
-483,649	117,571	0,079	-0,071
-482,635	2,936	-0,074	0,039
-481,620	800,000	0,020	0,048
-480,605	-152,564	0,123	-0,006
-479,591	-95,815	0,159	-0,031
-478,576	73,500	-0,109	-0,083
-477,562	568,887	-0,071	-0,127
-476,547	-84,901	0,067	0,015
-475,532	-200,000	0,008	0,099
-474,518	5,901	-0,043	-0,023
-473,503	-29,330	0,173	-0,072
-472,489	-200,000	-0,019	0,210
-471,474	11,557	-0,016	0,009
-470,459	-199,015	-0,065	0,000
-469,445	-118,961	-0,076	-0,010
-468,430	-86,828	0,041	0,009
-467,416	205,943	0,047	0,054
-466,401	-167,625	0,025	-0,001
-465,386	341,563	-0,022	0,032
-464,372	96,274	-0,054	-0,045
-463,357	-200,000	-0,009	-0,139
-462,343	429,482	-0,037	0,058
-461,328	-70,823	0,026	-0,007
-460,313	353,095	0,008	-0,011
-459,299	172,521	-0,043	-0,045
-458,284	417,056	0,045	0,070
-457,270	-27,677	0,054	-0,023
-456,255	21,153	0,096	0,057
-455,241	-200,000	-0,009	0,074
-454,226	800,000	0,034	0,096
-453,211	713,625	-0,010	0,020
-452,197	785,586	0,029	0,059
-451,182	-200,000	-0,006	0,042
-450,168	800,000	0,065	0,143
-449,153	-200,000	-0,012	-0,044
-448,138	-85,003	-0,143	0,032
-447,124	-145,728	-0,012	-0,001
-446,109	-188,942	0,046	-0,000
-445,095	143,233	0,099	0,096
-444,080	708,854	-0,054	-0,105
-443,065	149,984	0,030	0,030
-442,051	-139,048	-0,034	0,003
-441,036	84,384	-0,087	-0,069
-440,022	209,174	0,092	0,105
-439,007	337,493	-0,087	0,124
-437,992	-200,000	-0,008	0,031
-436,978	70,119	-0,049	-0,037
-435,963	800,000	0,005	0,013
-434,949	304,528	-0,067	0,090
-433,934	92,308	-0,069	-0,057
-432,919	800,000	0,020	-0,063
-431,905	142,335	0,113	0,109
-430,890	-144,476	-0,119	-0,008
-429,876	348,835	0,062	-0,089
-428,861	32,884	-0,035	-0,022
-427,846	-91,086	0,063	0,013
-426,832	-125,016	-0,034	-0,004
-425,817	492,920	0,049	-0,083
-424,803	-200,000	-0,001	0,046
-423,788	-113,155	-0,059	0,008
-422,773	140,767	-0,053	0,051
-421,759	3,318	-0,140	0,074
-420,744	-93,548	0,066	0,013
-419,730	-58,166	0,151	0,048
-418,715	-45,335	0,121	-0,043
-417,701	-200,000	0,009	-0,128
-416,686	595,770	0,017	-0,030
-415,671	-110,615	0,058	-0,009
-414,657	-52,382	-0,125	0,042
-413,642	608,007	-0,050	0,092
-412,628	800,000	0,029	-0,078
-411,613	-90,361	0,170	-0,036
-410,598	0,528	-0,148	0,077
-409,584	-30,877	0,107	0,044
-408,569	17,081	0,077	-0,044
-407,555	800,000	-0,033	-0,092
-406,540	-192,928	-0,175	-0,001
-405,525	371,392	0,077	-0,114
-404,511	-156,839	0,080	0,004
-403,496	92,246	-0,049	-0,040
-402,482	-200,000	0,015	-0,072
-401,467	800,000	0,067	0,181
-400,452	800,000	-0,031	0,085
-399,438	-200,000	0,001	-0,024
-398,423	344,472	0,016	0,023
-397,409	17,539	-0,072	-0,041
-396,394	-145,939	0,113	0,007
-395,379	-139,623	0,089	-0,007
-394,365	136,224	0,078	0,074
-393,350	-200,000	-0,012	-0,076
-392,336	53,942	0,148	0,104
-391,321	-200,000	-0,009	0,147
-390,306	424,897	-0,105	-0,164
-389,292	-200,000	0,002	0,016
-388,277	168,594	0,104	0,108
-387,263	143,358	0,073	0,070
-386,248	800,000	-0,042	0,100
-385,233	800,000	-0,021	-0,065
-384,219	-200,000	-0,000	0,082
-383,204	800,000	0,005	0,017
-382,190	-200,000	-0,043	-0,140
-381,175	-18,118	0,163	0,074
-380,160	-118,447	-0,115	-0,015
-379,146	-107,719	-0,089	-0,014
-378,131	120,133	0,032	-0,029
-377,117	62,245	-0,057	0,041
-376,102	-200,000	0,009	-0,052
-375,088	349,718	0,079	-0,114
-374,073	-55,578	0,098	0,032
-373,058	800,000	-0,037	0,079
-372,044	389,781	0,039	0,058
-371,029	217,528	0,050	0,059
-370,015	57,433	0,030	-0,021
-369,000	43,255	-0,094	0,062
-367,985	-94,446	-0,142	0,028
-366,971	14,860	-0,072	0,041
-365,956	253,875	0,078	-0,097
-364,942	800,000	0,038	0,085
-363,927	325,276	0,043	-0,060
-362,912	-200,000	0,007	0,065
-361,898	-200,000	0,015	0,093
-360,883	-200,000	-0,003	0,052
-359,869	800,000	0,078	0,165
-358,854	-200,000	-0,010	0,068
-357,839	-6,610	0,047	-0,023
-356,825	13,181	0,097	-0,055
-355,810	509,813	0,036	-0,060
-354,796	-56,305	-0,088	-0,028
-353,781	-200,000	-0,041	-0,208
-352,766	199,291	0,070	-0,078
-351,752	-200,000	-0,021	-0,087
-350,737	87,079	-0,037	0,030
-349,723	-200,000	0,046	-0,151
-348,708	-200,000	0,019	-0,089
-347,693	-200,000	-0,012	-0,179
-346,679	1,867	-0,158	0,082
-345,664	-129,432	-0,111	-0,011
-344,650	131,616	0,125	-0,117
-343,635	312,878	0,052	-0,072
-342,620	-70,614	-0,121	0,033
-341,606	50,636	0,020	0,013
-340,591	168,749	-0,117	0,122
-339,577	800,000	-0,026	-0,059
-338,562	-200,000	0,006	-0,044
-337,548	372,745	0,058	0,086
-336,533	265,131	0,052	0,066
-335,518	463,238	-0,067	-0,109
-334,504	-139,234	0,159	0,012
-333,489	1,186	-0,073	0,038
-332,475	636,806	-0,049	-0,090
-331,460	-51,879	0,051	0,017
-330,445	82,208	-0,039	-0,031
-329,431	-122,652	0,193	0,022
-328,416	-200,000	-0,031	0,119
-327,402	-200,000	0,002	0,042
-326,387	20,065	0,036	0,021
-325,372	162,193	-0,058	0,059
-324,358	286,498	0,010	0,014
-323,343	154,613	0,149	0,149
-322,329	600,975	-0,016	0,028
-321,314	-15,320	0,059	0,027
-320,299	800,000	0,030	-0,089
-319,285	227,611	-0,135	0,159
-318,270	54,456	-0,103	-0,072
-317,256	-57,964	0,003	0,001
-316,241	-200,000	-0,002	-0,082
-315,226	166,649	0,100	0,103
-314,212	-4,916	0,130	-0,065
-313,197	-157,652	-0,111	0,005
-312,183	386,665	0,052	0,078
-311,168	-92,923	0,056	0,011
-310,153	424,488	-0,020	-0,031
-309,139	-84,505	-0,023	-0,005
-308,124	-59,758	0,031	0,010
-307,110	-200,000	0,052	0,167
-306,095	9,225	0,064	-0,035
-305,080	-200,000	-0,001	0,085
-304,066	800,000	0,014	-0,032
-303,051	-200,000	0,014	-0,055
-302,037	-200,000	0,008	0,064
-301,022	472,332	-0,028	0,045
-300,008	8,909	-0,056	0,031
-298,993	-200,000	-0,001	-0,049
-297,978	445,200	0,015	0,024
-296,964	-32,555	0,059	0,024
-295,949	-26,103	-0,055	-0,023
-294,935	-177,732	-0,147	-0,003
-293,920	717,197	-0,044	-0,085
-292,905	8,231	0,145	-0,079
-291,891	244,607	0,110	-0,134
-290,876	79,857	0,073	0,057
-289,862	-128,773	0,092	0,009
-288,847	-200,000	0,008	-0,125
-287,832	100,321	-0,089	-0,075
-286,818	75,518	0,082	0,062
-285,803	800,000	-0,058	0,146
-284,789	-50,791	0,088	0,030
-283,774	-200,000	-0,028	0,117
-282,759	-200,000	-0,012	-0,088
-281,745	-81,871	-0,083	-0,020
-280,730	220,986	-0,101	0,117
-279,716	50,176	-0,027	-0,018
-278,701	-39,295	0,178	0,067
-277,686	175,788	-0,057	-0,060
-276,672	295,714	-0,016	0,021
-275,657	208,905	0,030	0,034
-274,643	800,000	-0,045	-0,113
-273,628	-154,877	0,147	-0,007
-272,613	800,000	-0,050	-0,133
-271,599	-103,373	-0,058	0,010
-270,584	486,668	-0,019	-0,031
-269,570	128,029	-0,127	0,117
-268,555	-10,155	0,175	0,084
-267,540	270,842	-0,079	-0,101
-266,526	-200,000	-0,001	-0,059
-265,511	304,437	0,055	0,074
-264,497	-72,667	0,112	0,030
-263,482	0,928	0,031	-0,016
-262,467	-200,000	-0,011	0,054
-261,453	-88,332	-0,094	0,020
-260,438	-55,513	-0,040	0,013
-259,424	-185,024	0,052	0,001
-258,409	-78,304	0,050	-0,012
-257,395	-200,000	-0,013	0,057
-256,380	577,404	-0,017	0,030
-255,365	-120,191	0,264	0,032
-254,351	619,096	-0,035	-0,065
-253,336	231,060	-0,057	0,067
-252,322	-92,722	0,130	-0,026
-251,307	-76,892	-0,033	-0,008
-250,292	800,000	-0,014	-0,044
-249,278	-200,000	-0,010	-0,079
-248,263	-200,000	-0,006	0,051
-247,249	351,103	-0,019	-0,028
-246,234	-200,000	-0,012	-0,061
-245,219	54,361	-0,054	-0,037
-244,205	67,272	-0,082	-0,061
-243,190	800,000	0,031	0,070
-242,176	-200,000	0,009	-0,036
-241,161	-200,000	0,027	0,148
-240,146	-200,000	-0,034	0,112
-239,132	25,255	0,077	0,046
-238,117	-146,333	0,065	-0,004
-237,103	-200,000	0,034	-0,193
-236,088	314,239	-0,101	-0,138
-235,073	66,072	0,061	0,045
-234,059	-140,028	0,089	0,007
-233,044	157,698	-0,067	-0,067
-232,030	-52,001	0,017	0,006
-231,015	-15,167	-0,041	0,019
-230,000	-49,054	-0,121	-0,042
-228,986	115,373	-0,059	0,052
-227,971	-150,703	0,169	0,009
-226,957	-200,000	0,008	-0,052
-225,942	-103,975	-0,146	-0,024
-224,927	-1,061	-0,081	0,041
-223,913	164,557	-0,044	-0,045
-222,898	-173,613	-0,175	0,004
-221,884	170,618	-0,040	-0,041
-220,869	-145,247	-0,091	0,006
-219,855	13,983	0,082	0,046
-218,840	-200,000	-0,056	0,212
-217,825	-200,000	-0,024	-0,120
-216,811	-141,965	-0,089	0,006
-215,796	-140,303	0,023	0,002
-214,782	-100,344	-0,126	0,022
-213,767	3,722	-0,079	-0,042
-212,752	338,854	0,064	0,090
-211,738	-200,000	-0,004	-0,053
-210,723	-28,886	-0,116	0,048
-209,709	-149,659	-0,118	-0,007
-208,694	-200,000	-0,028	-0,206
-207,679	131,310	0,091	-0,084
-206,665	-200,000	0,022	-0,071
-205,650	800,000	-0,022	0,068
-204,636	-191,445	0,188	0,001
-203,621	370,928	-0,050	-0,073
-202,606	-200,000	0,007	0,033
-201,592	800,000	0,023	-0,061
-200,577	800,000	-0,039	0,088
-199,563	225,902	0,100	0,117
-198,548	29,279	0,094	0,058
-197,533	489,068	0,046	-0,075
-196,519	800,000	-0,014	-0,040
-195,504	56,663	-0,041	-0,029
-194,490	800,000	-0,033	-0,096
-193,475	86,869	-0,122	-0,097
-192,460	544,586	0,098	0,170
-191,446	800,000	0,041	-0,097
-190,431	-122,024	0,122	0,014
-189,417	-200,000	-0,001	-0,007
-188,402	95,326	0,053	-0,043
-187,387	-200,000	-0,012	-0,084
-186,373	169,876	0,074	-0,077
-185,358	-200,000	-0,008	-0,207
-184,344	-71,833	-0,085	-0,023
-183,329	-200,000	-0,004	0,046
-182,315	800,000	-0,030	-0,070
-181,300	800,000	0,035	-0,085
-180,285	-200,000	0,004	-0,070
-179,271	-134,798	-0,156	-0,013
-178,256	-200,000	0,014	-0,052
-177,242	230,335	0,063	-0,075
-176,227	311,786	0,056	0,076
-175,212	-66,346	0,165	0,047
-174,198	-123,428	-0,036	0,004
-173,183	-39,805	-0,121	0,045
-172,169	663,201	0,046	0,087
-171,154	175,749	-0,021	-0,022
-170,139	48,175	0,060	0,040
-169,125	-88,293	-0,053	0,011
-168,110	800,000	0,030	0,080
-167,096	123,903	0,097	0,088
-166,081	-26,734	-0,043	0,018
-165,066	131,967	-0,068	-0,063
-164,052	-163,981	0,057	0,002
-163,037	134,780	-0,066	-0,062
-162,023	-172,740	0,082	-0,002
-161,008	-57,010	0,033	0,010
-159,993	158,292	0,042	-0,043
-158,979	-92,647	0,057	-0,011
-157,964	-62,747	-0,081	-0,024
-156,950	800,000	-0,077	0,173
-155,935	-59,288	0,044	-0,013
-154,920	-86,837	0,079	-0,017
-153,906	283,361	-0,041	0,054
-152,891	-10,358	0,086	-0,041
-151,877	-133,469	-0,048	0,004
-150,862	-197,958	-0,086	-0,000
-149,847	-99,664	0,050	-0,009
-148,833	561,497	0,066	-0,116
-147,818	-87,842	-0,142	0,030
-146,804	800,000	0,011	0,027
-145,789	-200,000	0,006	-0,064
-144,775	-200,000	0,018	-0,118
-143,760	-104,659	-0,096	-0,016
-142,745	26,817	-0,018	0,011
-141,731	-200,000	-0,002	0,042
-140,716	338,697	-0,068	0,096
-139,702	35,445	-0,046	0,029
-138,687	-32,868	0,074	0,030
-137,672	365,961	0,049	0,071
-136,658	-200,000	-0,014	-0,134
-135,643	-198,760	-0,075	-0,000
-134,629	164,199	-0,057	-0,058
-133,614	-34,360	-0,163	-0,064
-132,599	-17,005	0,019	0,008
-131,585	-200,000	0,001	0,172
-130,570	269,085	-0,129	-0,163
-129,556	82,199	0,047	-0,037
-128,541	-147,116	-0,139	0,008
-127,526	677,602	0,066	-0,124
-126,512	-73,042	0,157	-0,041
-125,497	-163,698	-0,008	0,000
-124,483	-132,715	-0,134	0,012
-123,468	-101,475	-0,090	0,016
-122,453	-200,000	0,019	-0,065
-121,439	-200,000	-0,022	0,101
-120,424	-140,034	-0,088	0,007
-119,410	-200,000	0,014	0,069
-118,395	-158,741	0,110	-0,004
-117,380	263,217	-0,046	0,058
-116,366	-200,000	0,002	0,045
-115,351	800,000	-0,053	-0,129
-114,337	291,359	-0,032	-0,042
-113,322	-100,116	-0,100	-0,018
-112,307	38,310	0,046	-0,029
-111,293	-114,461	0,171	0,023
-110,278	-200,000	0,032	-0,155
-109,264	-47,339	-0,209	0,073
-108,249	-66,461	-0,132	0,037
-107,234	168,113	-0,177	-0,181
-106,220	-200,000	-0,009	-0,061
-105,205	73,110	-0,076	-0,057
-104,191	-200,000	-0,006	0,106
-103,176	-200,000	-0,003	-0,036
-102,162	196,616	0,055	-0,060
-101,147	-44,618	0,038	0,014
-100,132	-200,000	0,011	0,048
-99,118	800,000	-0,030	-0,076
-98,103	-200,000	0,001	-0,040
-97,089	-200,000	-0,051	0,194
-96,074	800,000	0,027	0,067
-95,059	800,000	0,007	0,020
-94,045	334,000	-0,038	-0,053
-93,030	-103,544	-0,102	0,017
-92,016	73,409	-0,083	0,063
-91,001	511,402	0,010	0,017
-89,986	800,000	0,032	0,082
-88,972	-200,000	-0,005	0,043
-87,957	-200,000	0,013	-0,060
-86,943	163,109	0,050	0,050
-85,928	-124,163	0,079	-0,009
-84,913	800,000	-0,010	-0,021
-83,899	-19,081	-0,102	-0,046
-82,884	-24,433	0,136	-0,058
-81,870	-25,988	0,296	0,125
-80,855	442,753	0,041	-0,064
-79,840	-80,163	0,064	-0,015
-78,826	-68,861	0,092	-0,025
-77,811	396,511	-0,049	0,074
-76,797	-36,215	0,063	0,024
-75,782	-37,479	0,091	-0,035
-74,767	139,776	-0,048	-0,046
-73,753	-70,556	0,003	0,001
-72,738	261,369	-0,060	-0,075
-71,724	-92,690	-0,151	-0,030
-70,709	-147,067	0,083	0,005
-69,694	51,270	-0,150	-0,102
-68,680	-200,000	-0,015	-0,074
-67,665	-11,575	0,033	0,016
-66,651	-43,929	0,063	0,023
-65,636	278,817	-0,025	-0,032
-64,622	734,548	-0,051	-0,099
-63,607	800,000	0,037	-0,088
-62,592	-95,174	0,066	0,013
-61,578	101,330	-0,085	0,071
-60,563	-75,924	0,088	-0,022
-59,549	99,625	-0,138	0,115
-58,534	0,024	-1,922	-0,980
-57,519	-200,000	-0,259	-0,934
-56,505	-200,000	-1,194	-4,932
-55,490	-20,642	0,781	0,343
-54,476	800,000	5,286	12,246
-53,461	-200,000	17,584	282,700
-52,446	800,000	727,114	2213,221
-51,432	534,908	1643,097	2807,173
-50,417	110,061	1633,663	1407,048
-49,403	75,401	1286,394	973,297
-48,388	32,110	1027,683	634,606
-47,373	20,193	989,597	571,789
-46,359	18,504	977,522	559,248
-45,344	15,740	973,593	547,932
-44,330	15,997	972,071	547,897
-43,315	15,542	970,335	545,408
-42,300	15,535	969,055	544,646
-41,286	15,406	968,185	543,713
-40,271	15,507	967,105	543,417
-39,257	15,487	966,338	542,897
-38,242	15,459	965,471	542,298
-37,227	15,433	964,520	541,659
-36,213	15,380	963,784	541,052
-35,198	15,402	962,792	540,543
-34,184	15,474	962,121	540,379
-33,169	15,369	961,170	539,484
-32,154	15,500	960,122	539,297
-31,140	15,472	959,303	538,727
-30,125	15,467	958,710	538,355
-29,111	15,515	957,551	537,837
-28,096	15,485	957,219	537,533
-27,082	15,474	956,554	537,103
-26,067	15,577	955,543	536,845
-25,052	15,506	954,857	536,211
-24,038	15,480	954,303	535,795
-23,023	15,422	953,638	535,213
-22,009	15,529	952,969	535,159
-20,994	15,500	952,441	534,749
-19,979	15,532	951,661	534,392
-18,965	15,479	951,121	533,899
-17,950	15,419	950,472	533,323
-16,936	15,410	949,785	532,886
-15,921	15,458	949,038	532,599
-14,906	15,392	948,178	531,885
-13,892	15,335	947,791	531,464
-12,877	15,408	946,991	531,226
-11,863	15,351	946,445	530,718
-10,848	15,341	946,035	530,435
-9,833	15,410	945,464	530,313
-8,819	15,414	944,885	529,981
-7,804	15,338	944,293	529,386
-6,790	15,377	943,787	529,206
-5,775	15,425	943,213	529,017
-4,760	15,415	942,488	528,556
-3,746	15,411	941,880	528,182
-2,731	15,214	941,047	527,071
-1,717	15,199	940,361	526,618
-0,702	15,236	939,845	526,423
0,313	15,006	939,265	526,167
1,327	18,232	936,986	535,007
2,342	27,221	794,173	477,276
3,356	23,935	459,297	270,973
4,371	-3,214	314,869	156,866
5,386	-7,310	296,772	143,684
6,400	-9,277	290,691	138,771
7,415	-9,773	288,212	137,086
8,429	-9,945	286,832	136,249
9,444	-9,987	285,832	135,721
10,459	-9,820	285,259	135,600
11,473	-9,876	284,529	135,186
12,488	-9,846	284,160	135,028
13,502	-9,985	283,748	134,685
14,517	-9,763	283,148	134,603
15,531	-9,945	282,914	134,304
16,546	-9,800	282,478	134,225
17,561	-9,860	281,990	133,923
18,575	-9,835	281,663	133,780
19,590	-10,067	281,496	133,465
20,604	-9,958	281,259	133,446
21,619	-9,738	280,659	133,361
22,634	-9,986	280,445	133,009
23,648	-9,854	279,929	132,879
24,663	-10,073	279,818	132,605
25,677	-9,858	279,545	132,669
26,692	-9,845	279,274	132,541
27,707	-9,784	279,008	132,461
28,721	-9,693	278,533	132,310
29,736	-10,020	278,509	131,976
30,750	-9,864	278,043	131,892
31,765	-9,984	277,818	131,659
32,780	-9,976	277,658	131,579
33,794	-10,068	277,460	131,386
34,809	-9,872	277,234	131,453
35,823	-9,910	276,901	131,248
36,838	-9,964	276,586	131,036
37,853	-9,893	276,410	131,008
38,867	-10,069	276,203	130,732
39,882	-9,843	275,913	130,796
40,896	-10,049	275,773	130,524
41,911	-9,972	275,334	130,377
42,926	-10,050	275,127	130,195
43,940	-9,974	274,847	130,122
44,955	-10,023	274,630	129,962
45,969	-9,965	274,495	129,940
46,984	-10,088	274,212	129,679
47,999	-10,249	273,884	129,362
49,013	-10,282	273,698	129,232
50,028	-10,651	273,495	128,780
51,042	-10,536	273,217	128,745
52,057	-10,762	272,912	128,380
53,071	-10,521	272,773	128,526
54,086	-10,381	272,462	128,499
55,101	-10,415	272,387	128,421
56,115	-10,231	272,345	128,560
57,130	-9,924	272,135	128,734
58,144	-9,905	271,890	128,624
59,159	-9,762	271,575	128,596
60,174	-10,093	271,564	128,274
61,188	-9,774	271,182	128,377
62,203	-9,734	271,059	128,344
63,217	-9,929	270,732	127,998
64,232	-9,823	270,507	127,977
65,247	-9,714	270,241	127,941
66,261	-9,870	270,092	127,715
67,276	-10,008	269,863	127,468
68,290	-10,238	269,554	127,101
69,305	-10,162	269,317	127,047
70,320	-9,946	268,923	127,047
71,334	-9,980	268,924	127,006
72,349	-9,970	268,711	126,903
73,363	-9,923	268,488	126,829
74,378	-9,926	268,332	126,741
75,393	-9,818	268,076	126,708
76,407	-9,871	268,007	126,616
77,422	-9,966	267,802	126,421
78,436	-9,672	267,303	126,441
79,451	-9,710	267,207	126,349
80,466	-9,649	266,852	126,226
81,480	-9,946	266,727	125,886
82,495	-9,972	266,539	125,763
83,509	-9,751	266,238	125,810
84,524	-9,910	266,070	125,575
85,539	-10,186	265,856	125,214
86,553	-10,092	265,589	125,162
87,568	-10,027	265,510	125,171
88,582	-9,921	265,131	125,078
89,597	-10,046	265,014	124,898
90,611	-9,836	264,901	125,023
91,626	-9,751	264,837	125,058
92,641	-9,891	264,565	124,793
93,655	-10,049	264,307	124,518
94,670	-9,988	264,190	124,506
95,684	-10,097	264,055	124,334
96,699	-9,961	263,796	124,323
97,714	-9,790	263,479	124,315
98,728	-10,089	263,382	123,991
99,743	-10,163	263,106	123,784
100,757	-10,261	262,794	123,539
101,772	-10,071	262,620	123,615
102,787	-10,049	262,566	123,598
103,801	-10,024	262,419	123,541
104,816	-9,874	262,237	123,578
105,830	-9,933	261,988	123,396
106,845	-9,832	261,736	123,356
107,860	-9,785	261,586	123,316
108,874	-9,926	261,399	123,092
109,889	-9,909	261,193	122,999
110,903	-10,010	261,034	122,825
111,918	-10,070	260,771	122,637
112,933	-9,946	260,652	122,679
113,947	-9,902	260,473	122,623
114,962	-10,044	260,275	122,393
115,976	-9,789	260,027	122,490
116,991	-9,933	259,920	122,303
118,006	-9,903	259,649	122,191
119,020	-9,877	259,433	122,101
120,035	-9,777	259,510	122,214
121,049	-9,830	259,272	122,045
122,064	-9,801	258,950	121,908
123,079	-9,784	258,738	121,812
124,093	-10,013	258,580	121,526
125,108	-10,044	258,394	121,401
126,122	-10,118	258,176	121,223
127,137	-10,207	257,794	120,955
128,151	-10,260	257,795	120,898
129,166	-10,126	257,420	120,828
130,181	-10,135	257,349	120,776
131,195	-10,134	257,124	120,661
132,210	-10,049	256,907	120,622
133,224	-9,823	256,773	120,745
134,239	-9,975	256,709	120,572
135,254	-9,894	256,379	120,476
136,268	-9,908	256,202	120,371
137,283	-10,136	255,785	119,966
138,297	-10,186	255,592	119,821
139,312	-10,273	255,552	119,718
140,327	-10,041	255,426	119,848
141,341	-9,849	255,424	120,002
142,356	-9,846	255,169	119,874
143,370	-9,757	254,988	119,855
144,385	-9,677	254,752	119,803
145,400	-9,538	254,590	119,835
146,414	-9,775	254,407	119,534
147,429	-9,705	254,167	119,472
148,443	-9,598	254,043	119,495
149,458	-9,557	253,839	119,423
150,473	-9,672	253,700	119,249
151,487	-9,709	253,441	119,085
152,502	-9,763	253,332	118,976
153,516	-9,642	253,175	118,995
154,531	-9,768	252,917	118,756
155,546	-9,571	252,715	118,819
156,560	-9,757	252,591	118,591
157,575	-9,747	252,283	118,444
158,589	-9,760	252,185	118,377
159,604	-9,759	252,107	118,330
160,619	-9,621	251,805	118,296
161,633	-9,509	251,691	118,327
162,648	-9,521	251,524	118,227
163,662	-9,747	251,476	118,003
164,677	-9,716	251,200	117,889
165,692	-9,619	250,947	117,841
166,706	-9,939	251,004	117,587
167,721	-9,647	250,748	117,703
168,735	-9,775	250,691	117,558
169,750	-9,710	250,486	117,506
170,764	-9,698	250,362	117,448
171,779	-9,699	250,186	117,354
172,794	-9,609	250,060	117,360
173,808	-9,750	249,733	117,078
174,823	-9,926	249,314	116,722
175,837	-10,169	249,067	116,392
176,852	-9,913	249,203	116,661
177,867	-9,635	249,040	116,807
178,881	-9,565	248,943	116,810
179,896	-9,641	248,665	116,606
180,910	-9,759	248,517	116,427
181,925	-9,575	248,288	116,463
182,940	-9,553	248,184	116,423
183,954	-9,742	248,048	116,190
184,969	-9,511	247,769	116,242
185,983	-9,623	247,638	116,077
186,998	-9,534	247,524	116,088
188,013	-9,571	247,288	115,935
189,027	-9,662	247,220	115,817
190,042	-9,470	246,959	115,844
191,056	-9,583	246,767	115,650
192,071	-9,645	246,611	115,516
193,086	-9,968	246,461	115,166
194,100	-9,475	246,156	115,423
195,115	-9,451	245,973	115,346
196,129	-9,646	245,920	115,150
197,144	-9,637	245,575	114,985
198,159	-9,590	245,363	114,915
199,173	-9,627	245,552	114,962
200,188	-9,631	245,140	114,756
201,202	-10,099	245,058	114,322
202,217	-10,112	244,591	114,082
203,232	-10,226	244,681	114,021
204,246	-9,834	244,566	114,279
205,261	-9,471	244,497	114,535
206,275	-10,428	244,007	113,510
207,290	-7,494	245,202	116,475
208,304	-0,451	247,372	123,338
209,319	3,230	248,372	126,881
210,334	3,742	248,372	127,294
211,348	3,755	248,271	127,242
212,363	4,048	248,206	127,440
213,377	4,140	247,999	127,399
214,392	3,912	247,816	127,104
215,407	3,796	247,588	126,881
216,421	3,918	247,402	126,875
217,436	4,016	247,347	126,916
218,450	4,381	247,128	127,093
219,465	3,939	246,777	126,538
220,480	3,669	246,848	126,340
221,494	3,473	246,726	126,106
222,509	3,721	246,317	126,089
223,523	3,765	246,174	126,041
224,538	3,417	245,940	125,625
225,553	3,482	245,802	125,595
226,567	3,500	245,741	125,568
227,582	3,713	245,637	125,678
228,596	3,681	245,349	125,493
229,611	3,344	245,199	125,131
230,626	3,285	244,971	124,954
231,640	3,360	244,918	124,978
232,655	3,367	244,902	124,964
233,669	3,557	244,534	124,920
234,684	3,303	244,267	124,566
235,699	3,706	244,228	124,862
236,713	3,903	244,122	124,957
237,728	3,423	243,884	124,435
238,742	3,354	243,610	124,228
239,757	3,380	243,486	124,175
240,772	3,439	243,361	124,147
241,786	3,454	243,290	124,112
242,801	3,378	243,200	123,993
243,815	3,528	242,839	123,920
244,830	3,469	242,966	123,926
245,844	3,668	242,788	123,985
246,859	3,446	242,416	123,605
247,874	3,292	242,269	123,395
248,888	3,460	242,219	123,493
249,903	3,598	241,951	123,457
250,917	3,704	241,893	123,501
251,932	4,007	241,820	123,697
252,947	3,760	241,575	123,362
253,961	3,393	241,405	122,970
254,976	3,576	241,217	123,010
255,990	3,591	241,287	123,047
257,005	3,664	240,903	122,898
258,020	3,075	240,751	122,339
259,034	3,127	240,598	122,292
260,049	3,675	240,499	122,669
261,063	3,313	240,227	122,230
262,078	3,254	240,140	122,128
263,093	3,672	239,991	122,374
264,107	3,655	239,871	122,289
265,122	3,610	239,592	122,100
266,136	3,570	239,616	122,069
267,151	3,876	239,465	122,224
268,166	3,410	239,142	121,678
269,180	3,389	239,074	121,616
270,195	3,986	239,042	122,063
271,209	4,097	239,013	122,125
272,224	3,302	238,787	121,369
273,239	3,014	238,461	120,964
274,253	3,111	238,385	120,992
275,268	3,617	238,166	121,269
276,282	3,573	238,183	121,233
277,297	3,487	237,816	120,968
278,312	3,345	237,813	120,843
279,326	3,510	237,542	120,825
280,341	3,450	237,497	120,744
281,355	3,815	237,294	120,917
282,370	3,552	237,307	120,706
283,384	3,645	237,007	120,616
284,399	3,425	236,865	120,360
285,414	3,118	236,555	119,950
286,428	3,309	236,487	120,056
287,443	3,224	236,403	119,935
288,457	3,666	236,285	120,211
289,472	3,609	236,144	120,083
290,487	3,532	235,897	119,887
291,501	3,447	235,693	119,707
292,516	3,139	235,505	119,360
293,530	3,233	235,427	119,383
294,545	3,495	235,430	119,579
295,560	3,572	235,191	119,507
296,574	3,239	234,943	119,111
297,589	3,517	234,875	119,281
298,603	3,869	234,819	119,517
299,618	3,652	234,699	119,276
300,633	3,498	234,560	119,075
301,647	3,663	234,486	119,155
302,662	4,002	234,315	119,320
303,676	3,944	234,237	119,225
304,691	3,880	234,078	119,084
305,706	3,994	233,931	119,087
306,720	3,778	233,750	118,817
307,735	3,787	233,472	118,673
308,749	3,643	233,418	118,523
309,764	3,493	232,957	118,163
310,779	3,366	232,891	118,021
311,793	3,312	232,683	117,863
312,808	3,481	232,462	117,871
313,822	3,261	232,484	117,703
314,837	3,217	232,280	117,555
315,852	3,138	232,141	117,413
316,866	3,508	232,204	117,719
317,881	3,904	232,036	117,927
318,895	3,807	231,858	117,751
319,910	4,012	231,679	117,807
320,925	3,636	231,358	117,346
321,939	3,189	231,419	117,024
322,954	3,514	231,296	117,200
323,968	3,474	231,132	117,076
324,983	3,494	230,676	116,850
325,997	3,642	230,753	116,991
327,012	3,592	230,808	116,970
328,027	3,772	230,423	116,902
329,041	3,795	230,393	116,894
330,056	4,149	230,441	117,177
331,070	3,833	230,227	116,817
332,085	3,765	229,991	116,636
333,100	3,852	229,775	116,582
334,114	3,843	229,551	116,451
335,129	3,972	229,563	116,544
336,143	3,829	229,386	116,336
337,158	3,697	229,356	116,211
338,173	3,814	229,208	116,214
339,187	3,579	229,098	115,970
340,202	3,929	228,798	116,072
341,216	3,670	228,588	115,760
342,231	3,680	228,394	115,658
343,246	3,556	228,296	115,505
344,260	3,632	228,353	115,581
345,275	4,140	228,096	115,822
346,289	4,221	227,900	115,774
347,304	3,881	227,879	115,497
348,319	3,974	227,753	115,493
349,333	3,672	227,581	115,169
350,348	3,752	227,178	115,015
351,362	3,952	227,120	115,125
352,377	3,628	226,949	114,785
353,392	3,463	226,792	114,572
354,406	3,544	226,608	114,530
355,421	195,421	1321,644	1398,194
356,435	156,663	1455,042	1398,195
