DTS Sentinel unit serial number:	SN410029Multiplexer serial number:	ORYXHardware model number:	OX2-SRSoftware version number:	ORYX F/W v4,00 Oryx Data Collector v3.7.2.0data status	okinstallation	B5 Nyhavnadifferential loss correction	single-endedforward channel	channel 2reverse channel	N/Adate	2023/12/11time	18:57:13forward acquisition time	300,00reverse acquisition time	0,00gamma	499,1914k internal	0,3160k external	0,3160temperature offset calibration	1,0000default loss term (dB/km)	0,3820temperature slope calibration	1,0000multiplexer offset coefficient	1,0000multiplexer slope coefficient	1,0000fibre end	0,00T internal ref (°C)	15,43T ext. ref 1 (°C)	-0,30T ext. ref 2 (°C)	-0,52length (m)	temperature (°C)	Stokes	anti-Stokes-744,400	-84,602	0,144	-0,033
-743,385	-86,612	-0,270	0,060
-742,371	-100,229	0,184	0,033
-741,356	-17,254	-0,143	0,066
-740,342	421,618	0,102	0,161
-739,327	-146,218	-0,246	0,016
-738,312	800,000	-0,028	0,071
-737,298	-179,293	-0,236	-0,004
-736,283	-112,282	0,199	0,029
-735,269	-48,627	-0,292	0,103
-734,254	-90,555	0,087	-0,018
-733,239	-116,077	-0,552	-0,075
-732,225	-93,528	0,187	-0,038
-731,210	-200,000	0,013	0,121
-730,196	-52,512	0,091	-0,031
-729,181	800,000	-0,067	-0,219
-728,167	-53,271	0,054	0,018
-727,152	-200,000	0,036	0,119
-726,137	800,000	-0,049	-0,112
-725,123	-200,000	-0,004	0,027
-724,108	235,555	-0,036	0,044
-723,094	-116,730	-0,103	-0,014
-722,079	-200,000	-0,014	-0,073
-721,064	-175,759	0,111	-0,002
-720,050	248,312	0,121	-0,151
-719,035	800,000	0,014	0,039
-718,021	-200,000	0,005	-0,083
-717,006	-178,818	-0,113	0,002
-715,991	45,490	-0,089	0,061
-714,977	84,721	0,037	-0,030
-713,962	-200,000	-0,030	-0,172
-712,948	132,235	-0,112	0,106
-711,933	336,570	-0,056	-0,080
-710,918	800,000	-0,078	0,223
-709,904	381,960	0,062	-0,094
-708,889	-200,000	0,027	-0,165
-707,875	800,000	-0,049	-0,110
-706,860	800,000	-0,034	-0,088
-705,845	22,861	0,054	0,032
-704,831	20,504	0,170	-0,101
-703,816	-200,000	0,003	-0,111
-702,802	94,506	0,042	0,035
-701,787	-200,000	-0,039	-0,176
-700,772	439,581	-0,093	-0,149
-699,758	-106,624	0,118	0,019
-698,743	-77,642	0,024	0,006
-697,729	-200,000	-0,016	-0,060
-696,714	265,456	0,134	0,172
-695,699	-200,000	-0,010	-0,065
-694,685	55,655	-0,024	-0,017
-693,670	400,173	0,108	-0,167
-692,656	202,016	-0,076	0,087
-691,641	-63,043	0,157	-0,047
-690,627	126,314	0,036	0,033
-689,612	293,543	0,033	0,044
-688,597	56,217	-0,074	0,053
-687,583	9,576	0,086	-0,048
-686,568	42,185	0,008	0,006
-685,554	-200,000	-0,010	-0,042
-684,539	-200,000	-0,028	0,112
-683,524	12,141	-0,028	0,016
-682,510	-163,377	-0,101	0,003
-681,495	800,000	0,043	-0,112
-680,481	183,821	-0,195	-0,212
-679,466	18,919	-0,021	0,012
-678,451	154,112	0,049	0,050
-677,437	-200,000	-0,043	-0,150
-676,422	-200,000	0,011	-0,047
-675,408	-103,181	0,090	-0,016
-674,393	95,501	0,034	-0,028
-673,378	-127,948	-0,154	-0,016
-672,364	-200,000	-0,030	-0,105
-671,349	25,750	0,042	-0,026
-670,335	164,234	-0,047	0,048
-669,320	-200,000	-0,009	-0,055
-668,305	47,688	0,100	0,069
-667,291	-173,063	-0,060	0,001
-666,276	-200,000	0,019	-0,124
-665,262	26,375	-0,126	-0,077
-664,247	711,699	0,015	-0,030
-663,232	397,798	0,049	0,075
-662,218	-200,000	-0,028	0,091
-661,203	-113,357	-0,083	0,012
-660,189	-20,225	0,171	0,077
-659,174	-8,411	-0,088	-0,043
-658,159	-145,437	-0,037	0,002
-657,145	-200,000	-0,017	-0,102
-656,130	800,000	-0,015	-0,047
-655,116	-9,495	-0,113	0,055
-654,101	27,040	-0,077	0,047
-653,086	-71,533	-0,109	-0,030
-652,072	93,138	-0,146	-0,121
-651,057	270,124	-0,025	-0,033
-650,043	-71,077	-0,231	-0,063
-649,028	564,458	0,105	0,188
-648,014	170,291	0,098	-0,103
-646,999	-110,887	-0,071	-0,011
-645,984	1,466	0,059	-0,031
-644,970	-172,549	0,008	-0,000
-643,955	-200,000	-0,021	0,090
-642,941	172,392	-0,029	-0,030
-641,926	-67,488	0,205	0,059
-640,911	-4,870	-0,165	0,083
-639,897	436,144	-0,061	0,098
-638,882	800,000	0,022	0,066
-637,868	800,000	0,080	0,180
-636,853	393,541	0,046	-0,071
-635,838	-121,415	-0,148	0,018
-634,824	-200,000	-0,025	0,082
-633,809	-6,761	0,114	0,056
-632,795	-200,000	0,012	0,056
-631,780	352,418	-0,088	-0,128
-630,765	115,673	0,049	-0,044
-629,751	167,373	-0,054	0,057
-628,736	-70,457	-0,131	-0,036
-627,722	-69,455	0,070	0,019
-626,707	379,133	-0,021	-0,032
-625,692	-200,000	0,000	-0,060
-624,678	46,711	0,124	-0,084
-623,663	-6,188	-0,055	-0,028
-622,649	-200,000	-0,012	-0,081
-621,634	12,845	-0,048	0,027
-620,619	159,627	0,083	-0,084
-619,605	85,660	-0,101	-0,082
-618,590	800,000	-0,030	0,092
-617,576	-200,000	0,016	0,120
-616,561	-29,130	0,064	-0,027
-615,546	412,643	0,142	-0,221
-614,532	185,625	0,008	0,009
-613,517	6,694	-0,075	-0,041
-612,503	-200,000	-0,022	0,083
-611,488	-78,507	-0,054	0,014
-610,474	-122,783	-0,074	-0,009
-609,459	258,198	-0,024	-0,030
-608,444	-142,164	-0,139	0,010
-607,430	-200,000	-0,035	-0,198
-606,415	-84,733	-0,044	-0,010
-605,401	50,821	-0,144	-0,100
-604,386	-130,454	0,152	0,015
-603,371	-200,000	-0,023	0,119
-602,357	98,207	-0,066	-0,056
-601,342	387,473	0,053	-0,080
-600,328	-55,454	0,023	0,008
-599,313	413,360	-0,072	-0,112
-598,298	714,970	-0,055	0,108
-597,284	-53,672	0,139	0,046
-596,269	800,000	0,029	0,066
-595,255	800,000	-0,021	0,055
-594,240	-165,066	-0,048	0,002
-593,225	-66,952	-0,135	-0,039
-592,211	-25,777	0,125	-0,054
-591,196	4,568	0,092	0,049
-590,182	-102,572	-0,048	-0,008
-589,167	-55,838	0,042	-0,014
-588,152	92,394	-0,039	-0,033
-587,138	42,615	0,127	0,085
-586,123	-200,000	-0,004	-0,041
-585,109	-200,000	-0,007	-0,066
-584,094	-200,000	-0,002	-0,023
-583,079	16,627	-0,094	0,054
-582,065	665,768	-0,055	0,104
-581,050	-200,000	-0,008	0,040
-580,036	800,000	0,053	-0,157
-579,021	355,601	0,017	-0,024
-578,006	20,690	-0,023	0,013
-576,992	451,723	-0,095	-0,154
-575,977	422,269	-0,073	-0,116
-574,963	58,039	-0,057	-0,040
-573,948	-176,169	-0,084	-0,002
-572,934	-1,495	0,017	-0,009
-571,919	-200,000	0,001	-0,119
-570,904	-2,889	-0,148	-0,076
-569,890	800,000	-0,066	-0,136
-568,875	-200,000	0,024	-0,086
-567,861	30,747	0,048	-0,030
-566,846	-44,532	0,099	-0,036
-565,831	107,024	-0,024	0,021
-564,817	-200,000	-0,027	-0,252
-563,802	419,203	0,047	-0,074
-562,788	-38,955	0,056	-0,021
-561,773	12,997	0,065	0,037
-560,758	-156,163	0,048	0,002
-559,744	800,000	0,030	0,084
-558,729	-139,253	0,224	-0,017
-557,715	-200,000	-0,015	-0,091
-556,700	34,026	0,071	-0,045
-555,685	-200,000	0,005	0,019
-554,671	-200,000	-0,007	-0,029
-553,656	373,302	-0,097	0,145
-552,642	-41,542	-0,180	0,067
-551,627	762,899	0,042	0,083
-550,612	14,164	0,078	-0,044
-549,598	27,863	-0,055	-0,034
-548,583	-200,000	-0,005	-0,153
-547,569	76,857	-0,065	-0,050
-546,554	-111,362	-0,048	0,007
-545,539	-200,000	0,018	-0,073
-544,525	15,965	0,104	-0,060
-543,510	29,155	-0,111	0,069
-542,496	54,498	0,088	0,062
-541,481	187,807	-0,081	-0,088
-540,466	-13,420	0,056	0,026
-539,452	-41,127	0,069	0,026
-538,437	800,000	0,066	0,185
-537,423	-79,400	0,087	0,021
-536,408	800,000	0,064	-0,151
-535,393	-200,000	-0,050	-0,165
-534,379	255,815	-0,063	-0,079
-533,364	70,045	-0,015	-0,011
-532,350	88,147	0,063	0,051
-531,335	-9,778	-0,050	-0,024
-530,321	-13,589	-0,084	0,039
-529,306	-200,000	0,001	-0,056
-528,291	-57,011	0,110	-0,035
-527,277	328,330	-0,024	0,034
-526,262	218,844	0,081	-0,094
-525,248	800,000	-0,043	0,118
-524,233	800,000	0,022	-0,058
-523,218	553,322	-0,042	0,075
-522,204	113,222	0,112	0,099
-521,189	-86,826	-0,105	0,023
-520,175	-200,000	0,020	-0,163
-519,160	-106,225	0,060	0,010
-518,145	47,860	0,066	-0,045
-517,131	800,000	-0,038	0,117
-516,116	-146,461	-0,073	0,005
-515,102	-200,000	-0,032	-0,188
-514,087	-200,000	0,001	0,064
-513,072	-200,000	-0,031	-0,152
-512,058	93,582	-0,070	-0,058
-511,043	-200,000	0,012	0,055
-510,029	6,539	0,055	-0,030
-509,014	303,025	-0,032	-0,044
-507,999	110,918	-0,079	0,069
-506,985	165,610	0,083	-0,086
-505,970	618,530	-0,069	-0,127
-504,956	-200,000	0,042	-0,221
-503,941	433,550	-0,036	0,057
-502,926	-145,636	-0,090	0,006
-501,912	-11,113	0,073	0,035
-500,897	133,644	-0,036	0,034
-499,883	44,829	-0,090	0,060
-498,868	-200,000	-0,029	-0,097
-497,853	256,914	0,075	-0,094
-496,839	-200,000	-0,012	0,086
-495,824	-7,328	0,120	-0,059
-494,810	-200,000	0,004	0,110
-493,795	17,301	0,106	-0,061
-492,781	-70,714	-0,080	-0,022
-491,766	134,518	-0,054	-0,051
-490,751	71,200	0,137	-0,103
-489,737	-65,639	0,089	0,026
-488,722	215,002	0,056	0,065
-487,708	40,684	0,111	0,073
-486,693	-200,000	-0,001	-0,018
-485,678	-200,000	0,003	-0,027
-484,664	-89,928	0,006	-0,001
-483,649	-4,954	-0,061	0,030
-482,635	-111,937	0,066	-0,010
-481,620	800,000	-0,014	0,031
-480,605	-200,000	-0,020	-0,073
-479,591	-200,000	-0,001	0,028
-478,576	800,000	-0,006	0,015
-477,562	-200,000	-0,018	0,139
-476,547	800,000	0,036	-0,091
-475,532	731,147	-0,027	-0,053
-474,518	800,000	-0,024	-0,073
-473,503	-200,000	-0,003	0,037
-472,489	162,905	0,037	-0,038
-471,474	362,093	-0,159	-0,233
-470,459	339,504	-0,040	0,057
-469,445	137,705	-0,125	0,120
-468,430	384,291	0,059	-0,089
-467,416	245,066	-0,031	-0,038
-466,401	405,750	0,020	-0,030
-465,386	-39,318	-0,124	0,047
-464,372	-200,000	-0,005	0,163
-463,357	-200,000	-0,016	0,129
-462,343	482,462	0,089	-0,148
-461,328	-200,000	0,012	-0,131
-460,313	-200,000	-0,000	0,016
-459,299	263,396	-0,101	-0,129
-458,284	176,573	0,040	0,042
-457,270	800,000	0,047	0,120
-456,255	-26,529	-0,055	-0,023
-455,241	52,547	0,074	-0,051
-454,226	139,530	-0,101	-0,097
-453,211	-92,215	0,121	-0,025
-452,197	36,777	0,109	0,070
-451,182	800,000	-0,025	0,058
-450,168	44,036	-0,045	0,030
-449,153	625,468	-0,038	0,070
-448,138	146,575	0,059	-0,058
-447,124	556,327	-0,023	0,041
-446,109	33,985	0,086	0,054
-445,095	494,930	-0,037	0,062
-444,080	82,859	-0,012	-0,010
-443,065	-52,485	0,113	0,038
-442,051	-200,000	-0,007	0,053
-441,036	0,354	0,060	0,031
-440,022	-200,000	0,009	0,070
-439,007	164,159	0,015	-0,015
-437,992	-89,282	0,054	0,012
-436,978	800,000	-0,046	-0,131
-435,963	549,458	0,040	-0,069
-434,949	24,719	0,031	0,019
-433,934	-45,228	0,057	-0,021
-432,919	490,584	-0,076	-0,128
-431,905	147,763	0,035	0,034
-430,890	-200,000	-0,014	0,083
-429,876	59,853	-0,066	0,048
-428,861	211,965	-0,040	0,046
-427,846	176,336	-0,052	-0,055
-426,832	348,869	0,069	-0,100
-425,817	-128,796	-0,052	0,005
-424,803	-111,512	-0,106	0,016
-423,788	191,059	0,021	-0,023
-422,773	-114,921	0,129	0,018
-421,759	-200,000	0,028	0,146
-420,744	28,091	0,023	0,014
-419,730	-200,000	-0,010	0,092
-418,715	218,739	-0,034	0,039
-417,701	48,554	0,053	0,036
-416,686	-161,633	-0,104	0,004
-415,671	13,107	0,150	-0,084
-414,657	80,739	-0,067	0,052
-413,642	527,518	0,047	0,081
-412,628	-44,710	-0,052	-0,019
-411,613	-200,000	0,026	-0,141
-410,598	-200,000	-0,011	-0,072
-409,584	48,262	-0,119	0,081
-408,569	14,628	0,133	0,076
-407,555	800,000	0,047	0,111
-406,540	800,000	0,029	-0,079
-405,525	-200,000	0,012	-0,058
-404,511	243,770	-0,095	-0,117
-403,496	-38,898	0,066	0,025
-402,482	-45,011	-0,130	0,047
-401,467	-81,075	0,109	0,026
-400,452	-200,000	-0,004	0,054
-399,438	-200,000	0,000	0,094
-398,423	181,622	-0,075	-0,080
-397,409	102,754	-0,075	-0,064
-396,394	139,999	0,109	0,105
-395,379	442,200	0,021	0,034
-394,365	-93,042	0,149	-0,030
-393,350	-200,000	-0,000	-0,053
-392,336	-95,851	-0,060	0,011
-391,321	800,000	-0,018	0,052
-390,306	376,301	-0,095	-0,142
-389,292	412,993	-0,067	0,104
-388,277	-163,915	-0,163	0,005
-387,263	-200,000	0,006	0,064
-386,248	532,283	-0,099	0,171
-385,233	-36,317	0,159	0,062
-384,219	543,009	0,088	-0,153
-383,204	16,949	-0,112	-0,064
-382,190	245,359	0,072	0,088
-381,175	-200,000	0,005	0,060
-380,160	-185,603	0,089	-0,001
-379,146	148,603	0,053	0,052
-378,131	-200,000	0,054	0,180
-377,117	-59,979	-0,116	0,036
-376,102	-81,526	-0,048	-0,011
-375,088	800,000	-0,034	-0,108
-374,073	192,302	0,064	-0,070
-373,058	-200,000	-0,010	-0,038
-372,044	118,112	0,175	0,156
-371,029	184,253	0,092	0,099
-370,015	-59,722	-0,073	0,023
-369,000	-13,367	-0,070	0,033
-367,985	-59,455	-0,110	-0,034
-366,971	-200,000	0,029	-0,144
-365,956	-27,975	0,019	0,008
-364,942	140,688	0,103	0,099
-363,927	566,601	0,115	0,204
-362,912	-58,914	-0,064	-0,020
-361,898	591,904	0,040	-0,072
-360,883	-200,000	0,008	-0,122
-359,869	120,291	-0,027	0,024
-358,854	-41,907	0,047	-0,017
-357,839	-200,000	-0,022	0,198
-356,825	229,495	0,020	0,024
-355,810	-200,000	0,021	0,084
-354,796	-103,595	-0,147	0,025
-353,781	-200,000	-0,017	0,079
-352,766	-167,263	0,142	-0,004
-351,752	800,000	0,049	-0,123
-350,737	-200,000	-0,020	0,099
-349,723	-200,000	-0,018	0,072
-348,708	730,927	-0,057	-0,112
-347,693	95,129	-0,072	-0,059
-346,679	296,872	-0,089	-0,118
-345,664	54,321	0,054	-0,038
-344,650	-200,000	0,001	0,012
-343,635	326,759	-0,065	0,090
-342,620	-200,000	0,010	0,088
-341,606	-7,675	-0,025	0,012
-340,591	29,519	-0,105	-0,065
-339,577	800,000	0,028	0,064
-338,562	-200,000	0,010	0,113
-337,548	211,136	0,035	0,040
-336,533	78,640	0,130	0,101
-335,518	800,000	-0,031	0,090
-334,504	694,886	-0,032	-0,062
-333,489	-72,438	-0,114	0,030
-332,475	-200,000	-0,014	-0,081
-331,460	24,163	-0,081	-0,048
-330,445	133,558	0,112	-0,105
-329,431	159,609	-0,068	-0,069
-328,416	156,399	0,036	-0,036
-327,402	-200,000	0,015	-0,056
-326,387	415,570	-0,042	0,065
-325,372	800,000	-0,029	0,075
-324,358	-177,812	0,053	0,001
-323,343	39,990	0,106	0,069
-322,329	37,746	0,101	0,065
-321,314	262,423	0,046	0,058
-320,299	-67,210	0,049	0,014
-319,285	75,382	0,102	0,078
-318,270	800,000	-0,044	-0,101
-317,256	50,906	-0,098	0,067
-316,241	5,434	0,144	-0,077
-315,226	176,602	0,010	0,010
-314,212	96,478	0,091	-0,076
-313,197	23,403	-0,016	0,009
-312,183	587,140	-0,027	-0,048
-311,168	-200,000	0,004	-0,052
-310,153	800,000	-0,039	0,117
-309,139	-11,642	-0,078	0,037
-308,124	-200,000	-0,014	-0,091
-307,110	438,004	0,079	0,126
-306,095	-115,034	0,061	0,008
-305,080	800,000	-0,034	0,085
-304,066	47,436	0,068	0,045
-303,051	-200,000	-0,009	-0,144
-302,037	242,681	-0,044	-0,053
-301,022	194,324	-0,014	-0,016
-300,008	296,177	0,005	0,007
-298,993	96,624	0,044	0,036
-297,978	-55,630	0,036	-0,012
-296,964	-1,473	0,104	0,053
-295,949	-128,771	-0,054	0,005
-294,935	236,373	0,074	0,089
-293,920	-12,609	-0,084	-0,040
-292,905	-200,000	-0,021	0,109
-291,891	-200,000	-0,009	-0,097
-290,876	39,010	-0,101	0,065
-289,862	-200,000	0,012	0,044
-288,847	741,596	-0,094	-0,185
-287,832	66,549	-0,136	0,100
-286,818	275,105	0,025	-0,032
-285,803	37,447	0,039	0,025
-284,789	-46,974	0,141	0,050
-283,774	748,910	0,008	-0,016
-282,759	414,640	0,038	-0,058
-281,745	-3,644	-0,083	-0,042
-280,730	138,919	-0,092	0,087
-279,716	381,808	0,032	-0,048
-278,701	-200,000	0,010	0,059
-277,686	800,000	0,048	0,115
-276,672	800,000	-0,088	0,185
-275,657	62,254	0,122	0,088
-274,643	319,559	-0,063	0,086
-273,628	549,258	0,030	-0,051
-272,613	270,351	-0,030	-0,038
-271,599	-53,181	0,125	-0,041
-270,584	-98,041	-0,120	0,022
-269,570	368,037	0,031	-0,045
-268,555	353,964	0,080	-0,115
-267,540	245,616	-0,101	0,123
-266,526	-200,000	0,002	-0,037
-265,511	-5,262	-0,125	0,062
-264,497	-84,589	0,105	0,024
-263,482	-175,138	0,053	-0,001
-262,467	163,569	-0,021	0,021
-261,453	-94,803	0,056	0,011
-260,438	-200,000	-0,019	-0,118
-259,424	187,139	-0,182	0,196
-258,409	427,793	-0,032	-0,050
-257,395	-200,000	-0,016	-0,105
-256,380	800,000	-0,028	-0,058
-255,365	390,155	0,090	0,135
-254,351	-189,782	-0,119	-0,001
-253,336	-181,692	0,122	0,002
-252,322	23,529	-0,115	-0,068
-251,307	-200,000	-0,024	-0,177
-250,292	-200,000	0,018	-0,069
-249,278	-109,254	-0,114	0,017
-248,263	-61,855	-0,036	0,011
-247,249	498,701	0,038	0,063
-246,234	-107,068	0,038	-0,006
-245,219	78,478	-0,089	-0,068
-244,205	-200,000	0,007	0,025
-243,190	800,000	0,035	-0,080
-242,176	43,410	-0,116	-0,076
-241,161	42,961	0,100	0,066
-240,146	-24,460	0,119	-0,051
-239,132	585,088	0,036	0,065
-238,117	800,000	0,022	-0,058
-237,103	800,000	-0,024	-0,056
-236,088	57,885	0,039	0,027
-235,073	-101,290	-0,114	-0,020
-234,059	-3,241	0,117	-0,059
-233,044	-2,830	-0,054	0,027
-232,030	-200,000	-0,014	0,053
-231,015	-36,207	-0,072	0,028
-230,000	-200,000	-0,001	-0,106
-228,986	-200,000	0,008	0,041
-227,971	-200,000	0,016	-0,089
-226,957	800,000	-0,022	0,052
-225,942	179,812	-0,089	0,094
-224,927	-200,000	0,007	0,076
-223,913	-77,794	-0,143	0,035
-222,898	71,989	-0,081	-0,061
-221,884	-200,000	0,017	-0,058
-220,869	800,000	0,053	-0,111
-219,855	-78,226	0,129	0,032
-218,840	27,615	-0,139	0,084
-217,825	-200,000	-0,005	0,021
-216,811	800,000	0,029	-0,064
-215,796	-200,000	-0,011	0,000
-214,782	31,559	-0,056	0,035
-213,767	36,774	-0,091	0,058
-212,752	3,215	-0,053	0,028
-211,738	668,286	-0,093	0,175
-210,723	-50,834	-0,086	-0,029
-209,709	-200,000	-0,007	0,077
-208,694	31,416	-0,043	-0,026
-207,679	231,051	-0,034	0,041
-206,665	-153,681	-0,083	0,004
-205,650	-159,459	0,027	-0,001
-204,636	800,000	0,031	0,076
-203,621	-200,000	0,007	-0,079
-202,606	373,387	-0,059	-0,087
-201,592	101,145	0,071	-0,060
-200,577	22,079	-0,084	0,049
-199,563	800,000	0,042	0,108
-198,548	60,882	0,107	0,076
-197,533	104,351	0,021	-0,018
-196,519	800,000	0,032	0,090
-195,504	451,350	0,000	-0,001
-194,490	153,123	-0,066	-0,065
-193,475	236,463	0,035	0,042
-192,460	-164,545	0,062	0,002
-191,446	525,745	-0,039	0,067
-190,431	-91,859	0,065	0,013
-189,417	635,174	-0,025	-0,046
-188,402	-200,000	-0,025	0,085
-187,387	466,521	0,028	0,045
-186,373	-37,781	0,135	0,052
-185,358	800,000	-0,020	-0,048
-184,344	-200,000	0,011	-0,230
-183,329	54,416	-0,071	-0,049
-182,315	-200,000	0,010	0,087
-181,300	479,811	-0,024	0,039
-180,285	-137,392	-0,041	0,003
-179,271	-129,060	0,069	-0,007
-178,256	600,622	-0,088	0,157
-177,242	89,781	0,219	-0,176
-176,227	318,637	0,083	-0,113
-175,212	-200,000	0,013	0,092
-174,198	133,080	-0,052	0,048
-173,183	-200,000	0,016	-0,092
-172,169	-103,899	0,081	0,013
-171,154	-200,000	0,006	-0,155
-170,139	28,120	0,038	0,023
-169,125	59,810	0,130	0,092
-168,110	-37,741	0,122	0,046
-167,096	800,000	-0,031	0,089
-166,081	-69,290	0,090	-0,025
-165,066	543,659	-0,027	-0,047
-164,052	223,187	0,079	-0,092
-163,037	-200,000	0,025	-0,106
-162,023	800,000	-0,013	-0,027
-161,008	-145,099	0,035	-0,002
-159,993	-200,000	-0,031	0,119
-158,979	-128,931	-0,101	0,010
-157,964	79,748	0,021	-0,016
-156,950	800,000	-0,033	0,071
-155,935	64,777	-0,027	-0,019
-154,920	800,000	0,043	0,088
-153,906	-200,000	-0,032	0,111
-152,891	-22,821	-0,137	0,059
-151,877	13,417	0,054	0,030
-150,862	616,013	0,068	-0,123
-149,847	459,201	-0,027	-0,044
-148,833	323,373	0,067	-0,092
-147,818	-200,000	0,010	0,065
-146,804	52,675	0,090	0,062
-145,789	-42,197	-0,122	-0,045
-144,775	-66,631	-0,040	0,011
-143,760	-200,000	0,015	-0,066
-142,745	-200,000	-0,030	-0,227
-141,731	800,000	-0,052	0,144
-140,716	-200,000	0,015	-0,082
-139,702	-200,000	-0,005	0,028
-138,687	759,873	0,046	0,090
-137,672	-200,000	-0,005	0,058
-136,658	578,972	0,029	-0,052
-135,643	-200,000	-0,002	-0,114
-134,629	60,516	-0,095	-0,068
-133,614	-122,515	0,203	0,023
-132,599	-105,717	0,129	-0,021
-131,585	-19,858	-0,058	-0,025
-130,570	63,268	-0,084	-0,060
-129,556	380,006	-0,037	-0,054
-128,541	281,187	-0,060	-0,077
-127,526	800,000	-0,050	-0,134
-126,512	175,346	0,044	-0,046
-125,497	245,972	-0,053	0,065
-124,483	-79,689	-0,097	-0,023
-123,468	800,000	0,036	0,086
-122,453	-6,711	-0,023	0,011
-121,439	800,000	-0,030	-0,089
-120,424	-129,929	0,118	-0,011
-119,410	530,549	-0,041	0,071
-118,395	800,000	0,041	0,118
-117,380	-200,000	-0,005	0,064
-116,366	-15,018	-0,035	-0,016
-115,351	61,719	-0,133	-0,095
-114,337	800,000	0,012	0,030
-113,322	546,792	-0,044	-0,076
-112,307	-191,193	-0,088	-0,001
-111,293	-200,000	0,007	0,065
-110,278	-46,380	0,177	-0,062
-109,264	-200,000	0,017	-0,100
-108,249	800,000	-0,059	-0,130
-107,234	-171,856	-0,097	-0,002
-106,220	621,665	0,055	0,099
-105,205	573,381	-0,020	0,035
-104,191	-200,000	0,010	0,129
-103,176	-16,343	0,047	0,021
-102,162	-200,000	0,006	-0,058
-101,147	36,056	-0,081	0,051
-100,132	248,168	0,107	-0,130
-99,118	-93,031	-0,072	-0,014
-98,103	-104,979	-0,115	-0,019
-97,089	347,697	-0,046	0,066
-96,074	550,776	0,033	0,057
-95,059	4,142	0,043	0,023
-94,045	-50,866	0,129	-0,043
-93,030	800,000	-0,031	0,078
-92,016	474,028	-0,009	-0,014
-91,001	-14,652	-0,062	-0,028
-89,986	355,782	-0,072	0,103
-88,972	-200,000	0,008	0,038
-87,957	347,562	-0,088	0,125
-86,943	-4,471	-0,042	-0,021
-85,928	-69,333	0,042	-0,012
-84,913	96,240	0,084	0,069
-83,899	-123,227	-0,105	0,012
-82,884	4,902	0,084	-0,044
-81,870	800,000	0,031	0,079
-80,855	-181,558	-0,045	-0,001
-79,840	27,517	0,157	-0,095
-78,826	-26,406	-0,021	0,009
-77,811	779,003	0,037	-0,073
-76,797	-200,000	0,012	0,054
-75,782	-200,000	-0,012	0,118
-74,767	716,277	0,040	0,077
-73,753	40,895	0,036	-0,023
-72,738	-200,000	0,048	0,185
-71,724	-132,758	0,149	0,014
-70,709	277,516	0,104	-0,133
-69,694	-154,494	0,181	0,009
-68,680	-200,000	0,008	0,099
-67,665	296,989	-0,051	-0,067
-66,651	-81,218	0,053	0,012
-65,636	-85,029	0,047	0,010
-64,622	367,080	-0,073	0,106
-63,607	-200,000	-0,008	-0,093
-62,592	208,874	-0,007	0,007
-61,578	-53,080	-0,104	-0,034
-60,563	-200,000	0,017	0,169
-59,549	-200,000	-0,032	0,127
-58,534	2,095	-1,929	-0,996
-57,519	-200,000	-0,175	-0,898
-56,505	-200,000	-1,311	-4,842
-55,490	36,854	0,808	0,511
-54,476	800,000	5,302	12,124
-53,461	-200,000	17,586	282,803
-52,446	800,000	726,624	2208,444
-51,432	531,733	1642,553	2796,458
-50,417	109,859	1633,341	1404,317
-49,403	74,623	1286,065	968,911
-48,388	32,040	1027,537	633,607
-47,373	20,135	989,335	570,841
-46,359	18,572	977,101	558,642
-45,344	15,748	973,341	547,240
-44,330	15,994	971,719	547,110
-43,315	15,500	970,051	544,536
-42,300	15,431	968,964	543,680
-41,286	15,428	967,880	543,042
-40,271	15,463	967,016	542,649
-39,257	15,460	965,892	541,985
-38,242	15,491	965,067	541,603
-37,227	15,480	964,420	541,182
-36,213	15,451	963,587	540,598
-35,198	15,492	962,519	540,112
-34,184	15,452	961,857	539,589
-33,169	15,417	960,896	538,914
-32,154	15,481	959,981	538,588
-31,140	15,449	959,219	538,035
-30,125	15,434	958,547	537,589
-29,111	15,416	957,726	537,049
-28,096	15,501	956,965	536,874
-27,082	15,460	956,289	536,343
-26,067	15,422	955,496	535,753
-25,052	15,435	954,871	535,424
-24,038	15,496	953,954	535,084
-23,023	15,442	953,420	534,590
-22,009	15,515	952,786	534,448
-20,994	15,517	952,069	534,030
-19,979	15,478	951,617	533,630
-18,965	15,418	950,959	533,049
-17,950	15,453	950,276	532,757
-16,936	15,426	949,622	532,283
-15,921	15,343	948,985	531,640
-14,906	15,334	948,212	531,158
-13,892	15,352	947,569	530,834
-12,877	15,343	947,018	530,476
-11,863	15,348	946,381	530,112
-10,848	15,352	945,744	529,748
-9,833	15,448	945,252	529,756
-8,819	15,436	944,700	529,387
-7,804	15,413	943,981	528,892
-6,790	15,376	943,610	528,546
-5,775	15,373	942,940	528,139
-4,760	15,450	942,295	528,000
-3,746	15,342	941,774	527,347
-2,731	15,196	941,105	526,489
-1,717	15,195	940,305	526,018
-0,702	15,267	939,541	525,797
0,313	14,981	939,192	525,491
1,327	18,232	936,876	534,378
2,342	27,281	794,199	476,944
3,356	24,041	459,178	270,778
4,371	-2,942	314,671	156,893
5,386	-6,785	296,629	143,995
6,400	-8,689	290,560	139,146
7,415	-9,163	288,183	137,529
8,429	-9,473	286,553	136,435
9,444	-9,541	285,763	135,980
10,459	-9,587	285,137	135,625
11,473	-9,597	284,597	135,346
12,488	-9,416	284,025	135,238
13,502	-9,596	283,399	134,754
14,517	-9,522	282,960	134,604
15,531	-9,642	282,352	134,188
16,546	-9,741	282,027	133,926
17,561	-9,896	281,747	133,632
18,575	-9,705	281,204	133,546
19,590	-9,844	280,905	133,258
20,604	-9,745	280,754	133,270
21,619	-9,774	280,337	133,033
22,634	-9,594	279,933	133,001
23,648	-9,951	279,753	132,563
24,663	-9,713	279,299	132,563
25,677	-9,727	279,168	132,475
26,692	-9,889	278,787	132,128
27,707	-9,725	278,640	132,202
28,721	-9,771	278,430	132,048
29,736	-9,847	278,035	131,776
30,750	-9,936	277,667	131,506
31,765	-9,740	277,534	131,617
32,780	-9,893	277,257	131,329
33,794	-9,846	276,892	131,189
34,809	-9,917	276,755	131,046
35,823	-9,940	276,483	130,883
36,838	-9,879	276,347	130,864
37,853	-9,875	275,853	130,623
38,867	-9,969	275,832	130,512
39,882	-9,846	275,449	130,435
40,896	-9,933	275,227	130,237
41,911	-9,895	275,107	130,205
42,926	-9,741	274,863	130,221
43,940	-10,048	274,424	129,715
44,955	-9,891	274,274	129,779
45,969	-9,986	274,005	129,552
46,984	-10,111	273,819	129,335
47,999	-10,098	273,615	129,240
49,013	-10,123	273,280	129,046
50,028	-10,408	272,956	128,617
51,042	-10,492	272,666	128,390
52,057	-10,733	272,631	128,139
53,071	-10,384	272,381	128,334
54,086	-10,414	272,164	128,192
55,101	-10,187	271,870	128,252
56,115	-10,146	271,942	128,313
57,130	-9,803	271,613	128,464
58,144	-9,406	271,447	128,740
59,159	-9,608	271,371	128,507
60,174	-9,632	271,053	128,322
61,188	-9,644	270,839	128,199
62,203	-9,621	270,630	128,109
63,217	-9,741	270,394	127,876
64,232	-9,623	270,084	127,826
65,247	-9,611	269,907	127,742
66,261	-9,759	269,633	127,465
67,276	-9,813	269,436	127,311
68,290	-9,929	269,181	127,073
69,305	-9,969	269,091	126,982
70,320	-10,087	268,805	126,729
71,334	-9,756	268,562	126,905
72,349	-9,670	268,572	126,977
73,363	-9,645	268,272	126,846
74,378	-9,772	268,074	126,626
75,393	-9,540	267,771	126,683
76,407	-9,700	267,500	126,397
77,422	-9,806	267,376	126,232
78,436	-9,674	267,034	126,178
79,451	-9,743	266,867	126,025
80,466	-9,724	266,588	125,900
81,480	-9,916	266,498	125,672
82,495	-9,990	266,285	125,494
83,509	-9,955	266,130	125,441
84,524	-9,912	265,850	125,337
85,539	-9,980	265,503	125,101
86,553	-9,719	265,278	125,218
87,568	-9,857	265,049	124,976
88,582	-9,897	264,942	124,878
89,597	-9,723	264,646	124,883
90,611	-9,675	264,674	124,929
91,626	-9,755	264,372	124,703
92,641	-9,625	264,138	124,698
93,655	-9,660	263,982	124,582
94,670	-9,664	263,827	124,495
95,684	-9,825	263,515	124,192
96,699	-9,890	263,412	124,074
97,714	-9,741	263,052	124,027
98,728	-9,813	262,801	123,833
99,743	-10,006	262,702	123,604
100,757	-10,041	262,534	123,482
101,772	-9,873	262,349	123,533
102,787	-10,073	262,148	123,251
103,801	-9,940	261,999	123,288
104,816	-9,716	261,875	123,417
105,830	-9,614	261,672	123,401
106,845	-9,717	261,493	123,214
107,860	-9,680	261,384	123,185
108,874	-9,524	261,059	123,158
109,889	-9,612	260,847	122,969
110,903	-9,662	260,566	122,782
111,918	-9,716	260,441	122,664
112,933	-9,799	260,317	122,522
113,947	-9,729	260,100	122,471
114,962	-9,700	260,002	122,439
115,976	-9,710	259,841	122,343
116,991	-9,619	259,546	122,274
118,006	-9,485	259,242	122,237
119,020	-9,698	259,217	122,028
120,035	-9,699	259,056	121,939
121,049	-9,702	258,933	121,868
122,064	-9,648	258,705	121,797
123,079	-9,651	258,462	121,670
124,093	-9,701	258,254	121,517
125,108	-9,797	258,034	121,319
126,122	-10,076	257,648	120,884
127,137	-10,210	257,520	120,695
128,151	-9,978	257,401	120,832
129,166	-9,787	257,159	120,873
130,181	-9,957	256,922	120,603
131,195	-9,884	256,644	120,525
132,210	-9,624	256,658	120,747
133,224	-9,879	256,514	120,447
134,239	-9,525	256,254	120,621
135,254	-9,533	255,931	120,451
136,268	-9,629	255,851	120,320
137,283	-9,771	255,480	120,012
138,297	-10,025	255,538	119,809
139,312	-10,195	255,233	119,509
140,327	-9,627	255,004	119,881
141,341	-9,550	255,080	119,972
142,356	-9,354	254,841	120,017
143,370	-9,491	254,746	119,844
144,385	-9,351	254,357	119,770
145,400	-9,610	254,366	119,542
146,414	-9,411	254,065	119,560
147,429	-9,503	253,957	119,420
148,443	-9,551	253,778	119,284
149,458	-9,591	253,610	119,160
150,473	-9,509	253,358	119,102
151,487	-9,482	253,290	119,082
152,502	-9,556	253,005	118,874
153,516	-9,556	252,892	118,810
154,531	-9,473	252,659	118,761
155,546	-9,678	252,502	118,502
156,560	-9,561	252,294	118,493
157,575	-9,595	252,042	118,336
158,589	-9,579	251,955	118,298
159,604	-9,471	251,724	118,270
160,619	-9,545	251,544	118,112
161,633	-9,444	251,415	118,127
162,648	-9,347	251,240	118,117
163,662	-9,571	251,093	117,848
164,677	-9,554	250,920	117,770
165,692	-9,385	250,642	117,772
166,706	-9,563	250,549	117,567
167,721	-9,272	250,437	117,750
168,735	-9,492	250,324	117,500
169,750	-9,627	250,209	117,322
170,764	-9,410	250,133	117,459
171,779	-9,408	249,790	117,290
172,794	-9,287	249,724	117,350
173,808	-9,509	249,459	117,028
174,823	-9,740	249,126	116,667
175,837	-9,998	248,910	116,339
176,852	-9,739	248,973	116,576
177,867	-9,446	248,906	116,779
178,881	-9,526	248,743	116,626
179,896	-9,300	248,421	116,653
180,910	-9,296	248,174	116,531
181,925	-9,291	248,051	116,466
182,940	-9,350	247,871	116,323
183,954	-9,390	247,723	116,209
184,969	-9,275	247,546	116,211
185,983	-9,529	247,450	115,944
186,998	-9,352	247,136	115,934
188,013	-9,376	247,183	115,926
189,027	-9,244	246,950	115,916
190,042	-9,272	246,702	115,766
191,056	-9,204	246,547	115,739
192,071	-9,124	246,461	115,755
193,086	-9,362	246,231	115,440
194,100	-9,302	245,985	115,364
195,115	-9,180	246,056	115,487
196,129	-9,039	245,654	115,406
197,144	-9,295	245,323	115,028
198,159	-9,312	245,372	115,027
199,173	-9,247	245,165	114,973
200,188	-9,179	245,059	114,969
201,202	-9,538	244,551	114,426
202,217	-9,792	244,407	114,140
203,232	-9,897	244,142	113,919
204,246	-9,584	244,247	114,215
205,261	-8,751	244,313	114,919
206,275	-9,462	243,833	114,101
207,290	-7,282	244,673	116,275
208,304	-2,221	246,318	121,224
209,319	0,957	247,078	124,213
210,334	1,285	247,170	124,519
211,348	1,645	246,991	124,714
212,363	1,881	246,893	124,848
213,377	2,137	246,843	125,023
214,392	1,869	246,720	124,728
215,407	1,905	246,402	124,586
216,421	2,035	246,339	124,650
217,436	2,052	246,218	124,592
218,450	2,235	246,105	124,673
219,465	1,687	245,927	124,123
220,480	1,812	245,779	124,140
221,494	1,847	245,723	124,128
222,509	2,215	245,603	124,358
223,523	1,896	245,148	123,857
224,538	1,721	245,095	123,675
225,553	1,465	244,906	123,360
226,567	1,819	244,823	123,596
227,582	1,713	244,736	123,455
228,596	1,794	244,501	123,391
229,611	1,841	244,139	123,236
230,626	1,351	244,253	122,883
231,640	1,921	243,991	123,204
232,655	1,924	243,856	123,127
233,669	1,855	243,598	122,930
234,684	1,560	243,389	122,575
235,699	2,148	243,500	123,096
236,713	2,174	243,235	122,973
237,728	1,790	243,137	122,601
238,742	1,842	242,903	122,514
239,757	1,749	242,559	122,255
240,772	1,682	242,582	122,201
241,786	1,680	242,343	122,068
242,801	1,536	242,091	121,814
243,815	1,332	241,856	121,522
244,830	1,712	241,814	121,795
245,844	2,071	241,756	122,044
246,859	1,827	241,602	121,759
247,874	1,821	241,431	121,657
248,888	1,791	241,298	121,556
249,903	1,863	241,190	121,548
250,917	2,174	241,002	121,691
251,932	2,397	240,939	121,827
252,947	1,750	240,682	121,169
253,961	1,799	240,330	121,020
254,976	2,220	240,226	121,293
255,990	2,109	240,274	121,218
257,005	1,676	239,955	120,701
258,020	1,766	239,720	120,643
259,034	1,633	239,665	120,499
260,049	1,884	239,454	120,582
261,063	1,535	239,244	120,188
262,078	1,695	239,185	120,274
263,093	1,869	239,231	120,425
264,107	2,070	239,039	120,478
265,122	1,777	238,746	120,087
266,136	1,637	238,800	119,992
267,151	2,048	238,357	120,084
268,166	1,682	238,342	119,776
269,180	1,710	237,955	119,594
270,195	2,261	238,177	120,130
271,209	2,397	238,087	120,182
272,224	1,907	237,641	119,559
273,239	1,643	237,510	119,274
274,253	2,005	237,364	119,475
275,268	1,898	237,207	119,302
276,282	2,031	236,992	119,288
277,297	1,820	236,739	118,984
278,312	1,860	236,620	118,945
279,326	1,927	236,574	118,963
280,341	1,824	236,665	118,918
281,355	2,002	236,316	118,871
282,370	2,084	236,258	118,896
283,384	1,907	236,125	118,679
284,399	1,760	236,011	118,497
285,414	1,511	235,708	118,139
286,428	1,770	235,677	118,316
287,443	2,264	235,454	118,579
288,457	2,232	235,403	118,517
289,472	2,287	235,293	118,494
290,487	1,862	235,125	118,068
291,501	1,758	234,938	117,882
292,516	1,337	234,650	117,400
293,530	1,459	234,508	117,414
294,545	1,616	234,517	117,530
295,560	1,960	234,192	117,623
296,574	1,499	234,054	117,186
297,589	1,702	233,812	117,212
298,603	1,955	233,716	117,349
299,618	2,051	233,719	117,414
300,633	2,012	233,417	117,222
301,647	2,164	233,482	117,362
302,662	2,462	233,529	117,605
303,676	2,372	233,144	117,331
304,691	2,178	233,155	117,176
305,706	2,287	232,795	117,069
306,720	2,118	232,633	116,847
307,735	2,119	232,688	116,865
308,749	1,978	232,465	116,634
309,764	1,899	232,135	116,398
310,779	1,783	231,974	116,218
311,793	1,628	231,684	115,943
312,808	1,818	231,683	116,078
313,822	1,532	231,577	115,795
314,837	1,777	231,198	115,783
315,852	1,518	231,159	115,555
316,866	1,763	231,138	115,721
317,881	2,187	231,076	116,004
318,895	2,328	231,015	116,071
319,910	2,477	230,774	116,053
320,925	2,130	230,661	115,722
321,939	1,864	230,485	115,420
322,954	2,005	230,423	115,486
323,968	2,179	230,214	115,504
324,983	2,097	230,146	115,396
325,997	2,180	230,038	115,395
327,012	2,102	229,752	115,182
328,027	1,736	229,534	114,785
329,041	1,894	229,465	114,860
330,056	2,534	229,344	115,274
331,070	2,795	229,307	115,442
332,085	2,826	228,974	115,288
333,100	2,241	228,912	114,805
334,114	2,379	228,848	114,867
335,129	2,371	228,649	114,751
336,143	2,296	228,391	114,554
337,158	2,152	228,409	114,444
338,173	2,575	228,220	114,658
339,187	2,505	228,056	114,512
340,202	2,001	228,019	114,105
341,216	2,299	227,766	114,192
342,231	2,076	227,526	113,894
343,246	2,148	227,491	113,921
344,260	2,226	227,390	113,919
345,275	2,556	227,168	114,044
346,289	2,574	227,143	114,034
347,304	2,476	227,064	113,912
348,319	2,438	226,857	113,769
349,333	2,302	226,651	113,554
350,348	2,146	226,482	113,342
351,362	2,217	226,197	113,243
352,377	2,014	226,082	113,024
353,392	1,977	225,945	112,918
354,406	2,073	225,954	112,984
355,421	196,557	1320,257	1398,849
356,435	157,600	1453,583	1398,849
