DTS Sentinel unit serial number:	SN410029Multiplexer serial number:	ORYXHardware model number:	OX2-SRSoftware version number:	ORYX F/W v4,00 Oryx Data Collector v3.7.2.0data status	okinstallation	B5 Nyhavnadifferential loss correction	single-endedforward channel	channel 2reverse channel	N/Adate	2023/12/13time	09:12:13forward acquisition time	300,00reverse acquisition time	0,00gamma	499,1914k internal	0,3160k external	0,3160temperature offset calibration	1,0000default loss term (dB/km)	0,3820temperature slope calibration	1,0000multiplexer offset coefficient	1,0000multiplexer slope coefficient	1,0000fibre end	0,00T internal ref (°C)	13,66T ext. ref 1 (°C)	-2,73T ext. ref 2 (°C)	-3,02length (m)	temperature (°C)	Stokes	anti-Stokes-744,400	239,811	-0,084	-0,104
-743,385	-97,984	-0,256	0,048
-742,371	-122,718	0,093	0,011
-741,356	18,088	-0,267	0,156
-740,342	-200,000	0,028	0,191
-739,327	-105,357	-0,336	-0,056
-738,312	661,215	-0,054	0,103
-737,298	-96,594	-0,303	-0,058
-736,283	-48,074	0,225	0,080
-735,269	-45,007	-0,253	0,092
-734,254	-56,081	0,096	0,031
-733,239	-147,317	-0,508	-0,031
-732,225	-115,200	0,180	-0,025
-731,210	-78,163	0,043	0,011
-730,196	-200,000	-0,008	-0,074
-729,181	-200,000	0,009	-0,096
-728,167	-200,000	0,015	-0,054
-727,152	800,000	-0,089	-0,199
-726,137	-200,000	-0,011	0,050
-725,123	-40,306	0,034	-0,013
-724,108	-84,911	-0,154	0,035
-723,094	-200,000	0,012	-0,079
-722,079	94,713	-0,102	-0,085
-721,064	710,298	0,049	-0,095
-720,050	-135,156	-0,032	0,003
-719,035	-139,079	0,032	-0,003
-718,021	-200,000	0,019	-0,062
-717,006	193,071	0,004	-0,004
-715,991	-137,565	-0,142	0,012
-714,977	-10,568	-0,064	0,031
-713,962	800,000	-0,042	-0,128
-712,948	198,303	-0,023	-0,026
-711,933	598,640	-0,056	0,103
-710,918	-76,773	-0,133	-0,034
-709,904	-57,108	0,043	0,014
-708,889	92,627	-0,051	0,042
-707,875	-12,754	-0,057	-0,027
-706,860	-123,668	-0,053	0,006
-705,845	-91,390	0,023	0,005
-704,831	800,000	-0,006	-0,018
-703,816	71,019	-0,046	0,035
-702,802	-29,436	-0,087	0,037
-701,787	229,319	-0,023	-0,028
-700,772	-53,822	-0,104	0,035
-699,758	-200,000	0,000	0,011
-698,743	182,476	0,058	0,063
-697,729	-200,000	-0,019	-0,074
-696,714	-200,000	-0,006	-0,158
-695,699	64,482	-0,134	-0,099
-694,685	-32,994	0,095	0,038
-693,670	-37,939	-0,076	-0,029
-692,656	112,771	0,053	0,048
-691,641	-200,000	0,017	-0,089
-690,627	544,479	0,036	-0,063
-689,612	-0,155	0,079	-0,041
-688,597	-200,000	-0,013	-0,074
-687,583	-76,265	0,094	-0,024
-686,568	147,743	-0,039	0,039
-685,554	205,176	-0,085	0,097
-684,539	-200,000	0,017	0,105
-683,524	-6,526	0,006	0,003
-682,510	800,000	0,018	-0,046
-681,495	-41,237	-0,068	0,026
-680,481	328,235	-0,048	-0,068
-679,466	621,997	0,066	-0,123
-678,451	344,055	-0,030	0,043
-677,437	-11,089	-0,078	-0,038
-676,422	-22,659	0,054	0,024
-675,408	89,162	-0,088	0,072
-674,393	89,911	-0,058	0,047
-673,378	509,065	0,039	0,067
-672,364	-200,000	-0,013	-0,081
-671,349	19,631	0,048	0,028
-670,335	-200,000	0,004	-0,089
-669,320	50,105	0,162	0,112
-668,305	800,000	0,018	-0,052
-667,291	270,913	0,032	-0,042
-666,276	-44,624	-0,035	-0,013
-665,262	-200,000	-0,023	-0,127
-664,247	800,000	-0,040	-0,096
-663,232	-17,028	0,042	0,020
-662,218	800,000	0,025	-0,057
-661,203	-109,964	-0,069	0,010
-660,189	23,629	0,044	-0,027
-659,174	473,549	-0,044	-0,072
-658,159	-200,000	0,002	-0,099
-657,145	-200,000	0,036	-0,124
-656,130	-136,492	0,050	-0,004
-655,116	646,546	0,019	0,035
-654,101	83,720	0,081	0,065
-653,086	-200,000	0,004	-0,051
-652,072	-200,000	-0,003	-0,123
-651,057	-34,946	-0,068	-0,027
-650,043	800,000	-0,015	-0,039
-649,028	-62,442	-0,083	0,025
-648,014	-45,057	0,118	-0,043
-646,999	800,000	-0,059	0,176
-645,984	171,449	-0,046	-0,049
-644,970	313,930	-0,104	-0,143
-643,955	7,661	-0,193	-0,106
-642,941	-200,000	-0,006	-0,113
-641,926	26,891	-0,095	-0,058
-640,911	-27,438	0,119	-0,051
-639,897	139,681	0,082	0,079
-638,882	370,869	0,042	0,063
-637,868	800,000	0,024	0,049
-636,853	-68,320	-0,066	0,019
-635,838	-200,000	0,002	0,103
-634,824	411,797	-0,053	0,083
-633,809	-87,419	0,058	0,013
-632,795	-93,100	0,107	0,022
-631,780	168,269	-0,040	0,042
-630,765	-200,000	-0,027	-0,092
-629,751	-98,479	-0,055	0,010
-628,736	-25,037	-0,159	-0,069
-627,722	1,164	0,073	0,038
-626,707	31,308	-0,037	0,024
-625,692	-200,000	0,006	0,107
-624,678	9,669	-0,097	0,054
-623,663	225,281	0,020	0,024
-622,649	-200,000	0,044	-0,179
-621,634	800,000	0,032	-0,077
-620,619	-200,000	0,010	-0,128
-619,605	-27,760	0,095	0,040
-618,590	-200,000	0,039	-0,135
-617,576	-200,000	-0,016	-0,060
-616,561	800,000	0,034	0,084
-615,546	-38,432	-0,097	-0,037
-614,532	-200,000	-0,020	-0,070
-613,517	93,685	-0,054	-0,045
-612,503	237,598	-0,104	-0,126
-611,488	-170,033	-0,098	-0,003
-610,474	-200,000	-0,008	0,092
-609,459	800,000	-0,024	0,063
-608,444	-194,684	-0,091	0,001
-607,430	-200,000	-0,018	-0,132
-606,415	22,490	0,079	-0,047
-605,401	30,268	-0,102	0,063
-604,386	278,704	0,019	0,025
-603,371	800,000	-0,055	0,156
-602,357	-139,361	0,218	-0,017
-601,342	800,000	-0,058	0,166
-600,328	340,835	0,063	0,090
-599,313	800,000	0,047	-0,112
-598,298	-17,741	-0,100	-0,046
-597,284	-59,810	0,226	0,070
-596,269	71,715	-0,068	0,052
-595,255	-131,841	0,108	-0,010
-594,240	800,000	-0,050	-0,145
-593,225	2,061	-0,027	0,014
-592,211	195,820	-0,054	0,060
-591,196	-26,705	-0,079	0,034
-590,182	-88,753	0,044	0,009
-589,167	89,551	0,083	0,068
-588,152	200,189	0,038	-0,042
-587,138	-147,259	0,097	-0,006
-586,123	87,880	-0,058	-0,047
-585,109	-200,000	-0,009	-0,057
-584,094	-17,179	0,038	0,017
-583,079	47,853	0,026	-0,018
-582,065	-200,000	0,019	0,088
-581,050	-108,456	-0,043	0,007
-580,036	-200,000	0,014	-0,071
-579,021	-101,195	-0,144	0,025
-578,006	264,552	-0,056	0,072
-576,992	-180,921	-0,118	0,002
-575,977	-57,218	0,185	-0,059
-574,963	83,623	0,052	0,042
-573,948	-70,909	0,152	-0,042
-572,934	-63,900	-0,050	0,015
-571,919	-200,000	0,043	0,162
-570,904	-122,630	0,073	0,009
-569,890	356,124	-0,085	-0,124
-568,875	-99,270	-0,072	-0,013
-567,861	-200,000	-0,015	0,157
-566,846	-4,130	0,101	-0,051
-565,831	476,240	-0,012	-0,020
-564,817	309,272	0,042	-0,058
-563,802	510,750	-0,060	-0,102
-562,788	193,247	-0,093	-0,103
-561,773	-54,820	-0,046	-0,015
-560,758	655,826	-0,049	-0,093
-559,744	142,104	-0,041	-0,040
-558,729	130,202	0,089	0,083
-557,715	11,714	-0,058	-0,032
-556,700	490,191	0,063	-0,107
-555,685	-52,479	-0,108	0,036
-554,671	-74,510	-0,059	0,015
-553,656	800,000	-0,009	-0,026
-552,642	-8,746	-0,045	-0,022
-551,627	45,444	0,040	-0,027
-550,612	547,784	0,032	-0,057
-549,598	-78,554	-0,140	-0,035
-548,583	-200,000	-0,007	-0,033
-547,569	-56,551	-0,024	-0,008
-546,554	-200,000	-0,022	0,158
-545,539	800,000	-0,058	0,125
-544,525	295,960	-0,049	0,066
-543,510	-86,995	-0,244	0,054
-542,496	-56,607	-0,055	0,018
-541,481	800,000	-0,037	-0,117
-540,466	-200,000	-0,012	0,057
-539,452	364,866	-0,066	0,098
-538,437	128,532	0,171	0,159
-537,423	357,378	0,054	-0,078
-536,408	401,179	-0,080	-0,123
-535,393	-116,892	-0,028	-0,004
-534,379	-200,000	-0,002	-0,022
-533,364	-200,000	-0,004	0,069
-532,350	-200,000	-0,050	0,192
-531,335	548,049	0,048	0,084
-530,321	38,971	-0,102	0,066
-529,306	-200,000	0,026	0,000
-528,291	150,069	0,067	0,066
-527,277	164,354	0,031	-0,032
-526,262	-200,000	-0,006	0,052
-525,248	97,764	0,065	-0,055
-524,233	110,452	-0,078	0,068
-523,218	-74,284	0,116	-0,030
-522,204	-200,000	-0,010	-0,048
-521,189	363,453	0,008	-0,011
-520,175	800,000	0,030	-0,069
-519,160	-200,000	0,017	0,122
-518,145	-121,219	0,109	-0,013
-517,131	800,000	0,028	0,079
-516,116	800,000	0,025	0,059
-515,102	800,000	0,035	-0,104
-514,087	115,743	-0,068	0,061
-513,072	-25,709	-0,090	-0,039
-512,058	-200,000	0,031	-0,131
-511,043	105,632	0,104	-0,090
-510,029	-200,000	0,002	0,065
-509,014	-102,681	0,034	0,006
-507,999	636,192	0,081	-0,150
-506,985	101,036	-0,052	0,044
-505,970	208,469	-0,125	-0,143
-504,956	27,065	0,087	-0,053
-503,941	800,000	-0,039	-0,107
-502,926	402,431	-0,039	0,060
-501,912	-200,000	-0,029	0,194
-500,897	-190,361	0,024	0,000
-499,883	33,912	-0,021	-0,013
-498,868	411,234	-0,056	-0,087
-497,853	169,334	-0,102	-0,107
-496,839	-200,000	0,023	-0,104
-495,824	-127,733	0,021	0,002
-494,810	-200,000	0,016	0,090
-493,795	720,917	0,085	-0,165
-492,781	-200,000	-0,011	-0,052
-491,766	-91,229	-0,064	-0,013
-490,751	791,758	-0,023	-0,047
-489,737	-200,000	-0,009	0,113
-488,722	-200,000	0,003	0,024
-487,708	365,186	-0,027	0,040
-486,693	-200,000	0,008	-0,150
-485,678	504,022	-0,030	-0,051
-484,664	57,099	-0,124	-0,088
-483,649	-74,084	-0,179	0,047
-482,635	-200,000	0,027	-0,129
-481,620	171,708	0,085	0,089
-480,605	224,502	0,104	0,123
-479,591	27,263	-0,068	0,042
-478,576	14,019	0,121	0,069
-477,562	29,228	-0,057	-0,035
-476,547	-95,316	0,142	0,028
-475,532	800,000	0,075	0,164
-474,518	-200,000	0,009	-0,073
-473,503	-200,000	0,011	0,082
-472,489	-109,687	0,103	-0,016
-471,474	54,530	-0,052	0,037
-470,459	-151,051	-0,019	-0,001
-469,445	-200,000	0,005	0,083
-468,430	-108,445	0,095	-0,015
-467,416	800,000	-0,009	-0,021
-466,401	-5,696	-0,111	-0,055
-465,386	578,279	0,040	0,071
-464,372	-138,368	-0,059	-0,005
-463,357	138,084	-0,084	-0,081
-462,343	-22,953	0,058	0,025
-461,328	189,535	-0,032	0,035
-460,313	-56,424	0,047	0,015
-459,299	-200,000	0,012	-0,039
-458,284	-3,371	0,077	0,039
-457,270	400,100	-0,046	-0,071
-456,255	538,870	-0,033	-0,057
-455,241	119,467	-0,029	0,026
-454,226	800,000	0,016	0,033
-453,211	285,348	0,022	0,029
-452,197	-84,874	0,137	0,031
-451,182	-43,579	0,044	0,016
-450,168	116,201	-0,050	0,044
-449,153	175,200	0,051	-0,053
-448,138	605,118	-0,022	-0,039
-447,124	149,659	0,053	0,052
-446,109	-200,000	-0,003	0,049
-445,095	800,000	-0,071	-0,189
-444,080	-2,411	0,245	0,124
-443,065	145,693	0,051	0,050
-442,051	-184,491	-0,040	-0,000
-441,036	-200,000	0,001	-0,066
-440,022	-102,831	-0,123	0,021
-439,007	-79,979	0,130	-0,032
-437,992	274,909	0,082	0,106
-436,978	-200,000	-0,006	0,139
-435,963	22,198	0,127	-0,075
-434,949	-200,000	-0,009	-0,188
-433,934	267,970	-0,065	0,084
-432,919	-200,000	0,012	-0,087
-431,905	2,469	0,150	-0,079
-430,890	-200,000	0,003	0,040
-429,876	49,934	0,019	0,013
-428,861	-200,000	-0,016	0,163
-427,846	800,000	0,070	0,197
-426,832	800,000	0,056	-0,128
-425,817	330,448	0,031	0,043
-424,803	525,594	0,034	0,058
-423,788	642,055	-0,082	-0,152
-422,773	-77,139	0,066	-0,017
-421,759	-188,782	-0,121	0,001
-420,744	-160,046	0,113	0,004
-419,730	800,000	0,023	-0,055
-418,715	97,921	-0,061	-0,051
-417,701	-200,000	0,004	-0,057
-416,686	239,775	-0,057	0,069
-415,671	-161,511	0,063	-0,002
-414,657	670,077	0,051	0,096
-413,642	185,772	-0,058	0,063
-412,628	800,000	-0,021	-0,050
-411,613	252,623	-0,032	-0,040
-410,598	-74,405	-0,114	0,030
-409,584	55,060	0,041	-0,029
-408,569	-79,326	-0,029	-0,007
-407,555	-59,847	0,041	0,013
-406,540	800,000	0,030	0,069
-405,525	-130,971	-0,061	-0,006
-404,511	-30,078	0,138	0,057
-403,496	-73,555	-0,104	-0,027
-402,482	58,457	0,112	0,080
-401,467	-200,000	0,067	0,225
-400,452	-177,308	-0,057	-0,001
-399,438	-200,000	-0,015	0,093
-398,423	-200,000	0,022	0,146
-397,409	-1,434	-0,127	0,065
-396,394	450,934	-0,051	-0,082
-395,379	-200,000	-0,013	0,078
-394,365	429,707	0,078	0,123
-393,350	-47,432	-0,021	0,007
-392,336	534,864	-0,013	-0,023
-391,321	94,140	0,020	0,017
-390,306	-162,275	-0,107	-0,004
-389,292	160,431	-0,104	-0,106
-388,277	-105,435	0,151	-0,025
-387,263	-58,625	0,086	0,027
-386,248	-200,000	0,051	-0,169
-385,233	-130,585	-0,146	0,014
-384,219	54,016	-0,104	-0,073
-383,204	0,768	-0,086	-0,044
-382,190	323,466	0,016	0,023
-381,175	-28,461	-0,081	-0,034
-380,160	-200,000	0,043	0,183
-379,146	-200,000	0,019	0,077
-378,131	800,000	0,011	-0,034
-377,117	-200,000	-0,019	0,087
-376,102	65,754	-0,043	-0,032
-375,088	-131,122	-0,048	-0,005
-374,073	800,000	-0,015	-0,030
-373,058	800,000	0,028	-0,057
-372,044	630,419	0,068	0,125
-371,029	124,494	-0,069	-0,063
-370,015	-200,000	-0,011	0,093
-369,000	800,000	0,017	0,038
-367,985	-47,489	0,040	0,014
-366,971	800,000	-0,055	-0,149
-365,956	-200,000	0,013	-0,084
-364,942	-101,639	0,058	-0,010
-363,927	-14,301	-0,088	0,041
-362,912	-70,115	0,105	0,029
-361,898	-145,599	0,090	-0,006
-360,883	74,281	-0,144	-0,110
-359,869	-122,308	0,110	0,013
-358,854	207,413	0,087	0,099
-357,839	-53,652	0,061	-0,020
-356,825	-146,765	-0,030	-0,002
-355,810	-14,768	0,046	-0,021
-354,796	-139,453	-0,153	-0,012
-353,781	-22,614	0,078	-0,034
-352,766	-200,000	0,011	-0,114
-351,752	-10,691	0,093	-0,044
-350,737	-33,620	0,022	0,009
-349,723	212,185	-0,039	0,045
-348,708	-200,000	-0,037	0,158
-347,693	491,352	-0,074	0,123
-346,679	300,742	0,026	0,034
-345,664	-138,407	-0,094	-0,007
-344,650	-63,656	0,085	-0,025
-343,635	800,000	0,006	0,017
-342,620	-121,965	-0,023	0,003
-341,606	69,188	0,075	-0,056
-340,591	81,518	-0,123	0,097
-339,577	-200,000	-0,004	-0,016
-338,562	146,574	0,127	0,123
-337,548	-200,000	-0,011	-0,046
-336,533	-102,980	0,144	-0,025
-335,518	278,184	0,095	0,123
-334,504	-154,895	0,105	0,005
-333,489	-200,000	0,019	0,074
-332,475	60,141	0,110	0,079
-331,460	-111,478	0,151	0,022
-330,445	-135,408	-0,132	0,011
-329,431	-40,042	0,239	0,090
-328,416	196,630	0,094	0,104
-327,402	800,000	0,050	0,113
-326,387	-36,771	0,065	-0,025
-325,372	-200,000	-0,004	0,089
-324,358	-62,878	0,064	0,019
-323,343	-2,246	0,060	0,030
-322,329	-81,139	-0,131	0,031
-321,314	-76,223	0,172	-0,044
-320,299	94,871	0,055	-0,046
-319,285	-200,000	-0,028	-0,139
-318,270	271,446	-0,019	-0,025
-317,256	-200,000	0,031	-0,113
-316,241	-122,099	-0,163	0,019
-315,226	355,205	0,101	-0,146
-314,212	308,193	0,135	0,183
-313,197	59,876	0,140	-0,100
-312,183	-200,000	0,004	-0,134
-311,168	-136,011	-0,047	0,004
-310,153	-26,276	0,039	-0,017
-309,139	800,000	0,042	-0,103
-308,124	316,507	0,019	-0,026
-307,110	-200,000	0,010	0,128
-306,095	-200,000	-0,001	0,062
-305,080	-200,000	0,013	0,105
-304,066	-200,000	-0,018	0,082
-303,051	742,013	-0,057	-0,111
-302,037	800,000	-0,066	-0,142
-301,022	17,501	-0,082	-0,047
-300,008	-124,865	0,095	0,010
-298,993	193,827	-0,155	0,170
-297,978	-200,000	-0,015	0,074
-296,964	-130,351	-0,208	0,020
-295,949	-22,585	-0,111	-0,048
-294,935	53,031	0,032	0,022
-293,920	109,856	0,122	0,106
-292,905	-156,641	-0,014	0,001
-291,891	11,102	0,019	-0,010
-290,876	-200,000	-0,014	0,067
-289,862	278,664	0,074	0,096
-288,847	-101,224	-0,153	-0,027
-287,832	-93,939	-0,120	0,024
-286,818	52,554	-0,102	-0,070
-285,803	-7,791	0,065	-0,032
-284,789	-6,535	-0,064	0,032
-283,774	-200,000	0,006	0,093
-282,759	-149,465	-0,040	0,002
-281,745	100,422	-0,059	-0,050
-280,730	788,539	0,022	-0,043
-279,716	24,705	-0,111	-0,066
-278,701	-200,000	-0,014	0,045
-277,686	148,828	0,044	0,043
-276,672	-155,882	0,160	-0,007
-275,657	800,000	-0,012	-0,036
-274,643	-183,491	0,055	-0,001
-273,628	540,040	-0,085	-0,147
-272,613	-111,119	-0,080	-0,012
-271,599	-134,194	-0,114	0,010
-270,584	800,000	-0,015	0,036
-269,570	-51,140	-0,043	-0,015
-268,555	545,295	0,034	0,059
-267,540	171,659	-0,019	-0,019
-266,526	58,409	-0,071	0,050
-265,511	28,254	-0,119	-0,073
-264,497	-143,494	-0,118	-0,008
-263,482	-57,361	-0,081	-0,026
-262,467	-200,000	-0,002	-0,072
-261,453	-92,446	0,172	0,035
-260,438	38,954	-0,081	-0,052
-259,424	562,583	-0,054	0,094
-258,409	154,284	-0,040	-0,040
-257,395	88,186	0,060	0,048
-256,380	142,719	0,052	-0,050
-255,365	167,676	0,060	-0,062
-254,351	29,692	-0,046	-0,028
-253,336	133,787	0,051	-0,047
-252,322	800,000	-0,050	-0,152
-251,307	800,000	0,047	-0,131
-250,292	125,594	0,013	-0,012
-249,278	-129,772	0,111	-0,011
-248,263	800,000	-0,032	-0,079
-247,249	103,075	-0,030	0,025
-246,234	-137,051	0,053	-0,004
-245,219	-89,560	-0,048	0,010
-244,205	563,310	-0,045	-0,079
-243,190	451,586	0,032	0,051
-242,176	-97,216	0,048	0,009
-241,161	96,573	-0,078	0,065
-240,146	44,561	0,075	-0,050
-239,132	-102,989	-0,100	0,017
-238,117	191,269	0,091	-0,099
-237,103	800,000	0,042	-0,092
-236,088	116,153	0,096	-0,085
-235,073	-84,958	-0,074	0,017
-234,059	415,391	0,021	-0,033
-233,044	114,291	-0,011	0,009
-232,030	-29,828	-0,098	-0,040
-231,015	317,104	-0,120	-0,164
-230,000	-200,000	0,017	0,071
-228,986	-91,912	0,052	0,011
-227,971	45,014	0,194	-0,129
-226,957	288,545	0,114	0,149
-225,942	14,494	-0,013	-0,008
-224,927	34,967	-0,113	0,071
-223,913	-200,000	-0,026	-0,190
-222,898	109,726	-0,094	-0,081
-221,884	800,000	0,026	0,072
-220,869	800,000	-0,027	-0,084
-219,855	800,000	0,031	0,089
-218,840	504,436	0,045	0,075
-217,825	67,620	-0,093	-0,068
-216,811	-200,000	-0,020	0,162
-215,796	74,078	-0,078	-0,059
-214,782	800,000	-0,071	-0,183
-213,767	355,686	-0,094	0,136
-212,752	800,000	0,083	-0,206
-211,738	287,701	-0,034	-0,045
-210,723	-200,000	-0,001	0,033
-209,709	184,669	-0,071	-0,076
-208,694	189,883	0,067	0,073
-207,679	-6,693	0,128	-0,062
-206,665	755,756	0,020	0,039
-205,650	-200,000	0,009	-0,089
-204,636	-170,928	0,227	0,005
-203,621	47,038	-0,050	0,034
-202,606	86,085	-0,081	-0,064
-201,592	-200,000	-0,017	-0,086
-200,577	800,000	-0,010	0,025
-199,563	32,417	0,118	-0,074
-198,548	312,308	0,014	0,019
-197,533	-200,000	-0,001	0,072
-196,519	-161,559	-0,127	0,005
-195,504	-200,000	-0,042	0,000
-194,490	27,204	0,117	-0,071
-193,475	-3,790	0,024	0,012
-192,460	160,369	0,054	0,054
-191,446	161,420	0,080	0,080
-190,431	405,641	0,091	0,138
-189,417	-200,000	-0,014	-0,147
-188,402	-131,510	0,023	-0,002
-187,387	-69,697	-0,029	-0,008
-186,373	14,713	-0,055	0,031
-185,358	248,558	-0,037	0,045
-184,344	781,667	0,010	-0,021
-183,329	800,000	0,049	0,124
-182,315	247,540	0,017	0,020
-181,300	-200,000	-0,045	-0,169
-180,285	-200,000	-0,040	-0,167
-179,271	443,967	-0,063	0,100
-178,256	-200,000	0,003	0,136
-177,242	141,146	0,055	-0,053
-176,227	-177,905	0,094	0,002
-175,212	-200,000	-0,011	0,165
-174,198	-200,000	-0,021	-0,085
-173,183	724,959	-0,047	-0,090
-172,169	800,000	-0,060	-0,164
-171,154	-78,258	-0,048	-0,012
-170,139	-108,739	0,109	0,017
-169,125	-200,000	0,038	0,156
-168,110	-2,940	0,202	0,101
-167,096	-184,973	0,047	0,001
-166,081	-63,584	-0,198	-0,058
-165,066	800,000	-0,069	-0,193
-164,052	471,743	-0,087	0,141
-163,037	-200,000	-0,020	0,090
-162,023	-132,677	0,137	0,012
-161,008	368,967	-0,085	-0,125
-159,993	-200,000	0,011	0,038
-158,979	28,281	0,045	-0,027
-157,964	-134,860	0,070	0,006
-156,950	-108,737	-0,075	0,011
-155,935	-200,000	-0,027	-0,111
-154,920	800,000	-0,033	0,102
-153,906	542,798	-0,084	0,145
-152,891	32,200	-0,025	-0,016
-151,877	25,048	0,099	-0,059
-150,862	106,857	-0,095	-0,081
-149,847	-72,674	0,082	-0,022
-148,833	12,545	-0,013	0,007
-147,818	14,754	0,146	0,082
-146,804	659,355	0,026	-0,049
-145,789	-109,264	0,033	-0,005
-144,775	-200,000	-0,028	-0,134
-143,760	780,264	-0,013	-0,026
-142,745	467,731	-0,011	0,018
-141,731	-91,580	-0,020	-0,004
-140,716	124,704	-0,088	-0,080
-139,702	129,841	-0,021	0,020
-138,687	-106,587	0,028	0,004
-137,672	72,541	-0,068	-0,051
-136,658	800,000	-0,051	-0,128
-135,643	3,336	0,088	-0,046
-134,629	397,352	0,035	0,053
-133,614	800,000	0,009	-0,023
-132,599	-170,978	0,134	0,003
-131,585	503,099	-0,064	0,108
-130,570	725,338	-0,055	-0,106
-129,556	-187,207	-0,042	0,000
-128,541	-156,514	-0,095	0,004
-127,526	271,246	0,070	-0,089
-126,512	-200,000	-0,001	0,022
-125,497	180,332	0,047	0,049
-124,483	421,512	0,026	0,040
-123,468	-97,291	-0,112	0,021
-122,453	66,321	0,112	-0,082
-121,439	357,857	0,060	0,087
-120,424	346,949	-0,085	0,121
-119,410	135,380	0,061	0,057
-118,395	82,712	-0,151	0,118
-117,380	109,823	0,023	-0,020
-116,366	364,836	0,035	-0,051
-115,351	330,381	-0,058	0,081
-114,337	-100,369	-0,019	0,003
-113,322	171,398	0,063	-0,065
-112,307	115,761	-0,054	0,047
-111,293	-200,000	-0,002	-0,073
-110,278	-200,000	-0,005	-0,028
-109,264	297,333	0,016	0,022
-108,249	-24,897	-0,086	-0,036
-107,234	539,408	0,063	-0,108
-106,220	-134,685	-0,127	-0,011
-105,205	-200,000	0,017	-0,057
-104,191	18,253	0,153	0,087
-103,176	236,199	0,075	-0,090
-102,162	-118,338	-0,072	0,009
-101,147	-200,000	0,020	0,091
-100,132	-200,000	-0,021	-0,105
-99,118	-119,537	0,102	-0,013
-98,103	110,899	-0,130	0,112
-97,089	-200,000	0,014	-0,084
-96,074	-200,000	-0,043	-0,182
-95,059	-200,000	-0,011	-0,087
-94,045	79,059	0,037	0,028
-93,030	-71,277	-0,034	-0,009
-92,016	-200,000	0,005	0,037
-91,001	-200,000	0,056	0,000
-89,986	-115,933	0,122	-0,016
-88,972	-172,969	0,143	0,003
-87,957	6,802	0,134	0,071
-86,943	610,922	-0,057	0,103
-85,928	31,085	-0,089	-0,055
-84,913	799,306	0,014	0,028
-83,899	800,000	0,050	0,145
-82,884	20,640	0,117	-0,068
-81,870	-200,000	-0,045	-0,175
-80,855	800,000	-0,015	0,039
-79,840	-13,009	-0,098	0,046
-78,826	-64,224	-0,102	-0,030
-77,811	403,219	0,056	-0,085
-76,797	-36,368	0,053	-0,021
-75,782	85,375	-0,019	0,015
-74,767	-200,000	0,022	-0,077
-73,753	44,922	0,037	-0,024
-72,738	-200,000	-0,008	0,099
-71,724	122,366	-0,066	0,059
-70,709	800,000	0,019	-0,045
-69,694	-200,000	0,004	-0,044
-68,680	89,139	0,024	0,019
-67,665	800,000	0,033	-0,104
-66,651	120,744	0,049	0,043
-65,636	736,461	-0,049	0,095
-64,622	800,000	0,029	-0,073
-63,607	487,199	-0,112	-0,184
-62,592	-200,000	-0,036	-0,134
-61,578	-22,431	-0,011	-0,005
-60,563	145,574	-0,036	0,034
-59,549	503,080	-0,110	0,183
-58,534	26,115	-2,216	-1,324
-57,519	-200,000	-0,181	-0,885
-56,505	-200,000	-1,193	-4,922
-55,490	63,887	0,781	0,562
-54,476	800,000	5,270	11,988
-53,461	-200,000	18,657	318,559
-52,446	800,000	741,740	2335,061
-51,432	558,157	1657,350	2877,854
-50,417	111,089	1641,161	1416,956
-49,403	75,401	1291,018	975,773
-48,388	30,292	1031,701	630,217
-47,373	19,925	994,355	573,043
-46,359	17,374	981,959	557,478
-45,344	14,050	978,191	544,380
-44,330	14,303	976,539	544,271
-43,315	13,706	974,812	541,327
-42,300	13,712	973,506	540,602
-41,286	13,664	972,781	540,019
-40,271	13,631	971,719	539,302
-39,257	13,677	970,877	538,962
-38,242	13,697	970,016	538,530
-37,227	13,688	969,115	537,979
-36,213	13,684	968,232	537,452
-35,198	13,622	967,341	536,735
-34,184	13,675	966,633	536,494
-33,169	13,658	965,652	535,871
-32,154	13,739	964,446	535,447
-31,140	13,670	963,835	534,860
-30,125	13,787	962,867	534,681
-29,111	13,713	962,155	534,027
-28,096	13,661	961,628	533,543
-27,082	13,703	960,779	533,186
-26,067	13,716	960,089	532,824
-25,052	13,647	959,487	532,247
-24,038	13,699	958,748	531,983
-23,023	13,658	957,984	531,408
-22,009	13,714	957,460	531,277
-20,994	13,669	956,840	530,766
-19,979	13,651	956,178	530,318
-18,965	13,704	955,484	530,083
-17,950	13,709	954,983	529,799
-16,936	13,672	954,241	529,250
-15,921	13,697	953,606	528,957
-14,906	13,624	952,895	528,305
-13,892	13,606	952,220	527,855
-12,877	13,583	951,502	527,360
-11,863	13,611	950,675	526,972
-10,848	13,557	950,452	526,653
-9,833	13,749	949,600	526,774
-8,819	13,644	949,017	526,094
-7,804	13,538	948,593	525,501
-6,790	13,550	948,206	525,305
-5,775	13,596	947,330	524,945
-4,760	13,591	946,991	524,719
-3,746	13,602	946,283	524,341
-2,731	13,470	945,448	523,439
-1,717	13,391	944,967	522,901
-0,702	13,414	944,124	522,484
0,313	13,212	943,485	522,281
1,327	16,579	941,029	531,532
2,342	25,563	795,710	473,313
3,356	21,933	460,158	268,123
4,371	-4,859	317,514	156,236
5,386	-8,771	299,246	143,236
6,400	-10,779	293,186	138,310
7,415	-10,939	290,596	136,916
8,429	-11,400	289,056	135,723
9,444	-11,539	288,250	135,196
10,459	-11,316	287,413	135,010
11,473	-11,629	286,901	134,450
12,488	-11,484	286,428	134,359
13,502	-11,460	285,909	134,127
14,517	-11,466	285,506	133,920
15,531	-11,345	284,836	133,712
16,546	-11,336	284,431	133,519
17,561	-11,341	284,299	133,440
18,575	-11,283	283,712	133,209
19,590	-11,382	283,494	132,999
20,604	-11,336	283,158	132,873
21,619	-11,490	282,742	132,517
22,634	-11,410	282,451	132,447
23,648	-11,573	282,242	132,179
24,663	-11,322	281,608	132,112
25,677	-11,456	281,729	132,029
26,692	-11,579	281,480	131,781
27,707	-11,413	281,207	131,802
28,721	-11,428	280,771	131,571
29,736	-11,286	280,332	131,489
30,750	-11,618	280,227	131,110
31,765	-11,522	279,934	131,054
32,780	-11,451	279,847	131,070
33,794	-11,533	279,622	130,873
34,809	-11,532	279,343	130,732
35,823	-11,578	279,058	130,543
36,838	-11,400	278,821	130,591
37,853	-11,522	278,478	130,302
38,867	-11,484	278,412	130,296
39,882	-11,478	277,966	130,081
40,896	-11,560	277,855	129,940
41,911	-11,540	277,507	129,785
42,926	-11,413	277,281	129,788
43,940	-11,392	276,986	129,658
44,955	-11,553	276,836	129,424
45,969	-11,596	276,612	129,267
46,984	-11,662	276,343	129,068
47,999	-11,994	276,072	128,617
49,013	-11,809	275,673	128,593
50,028	-12,191	275,640	128,207
51,042	-12,057	275,147	128,093
52,057	-12,145	274,893	127,880
53,071	-12,065	274,740	127,873
54,086	-12,055	274,615	127,812
55,101	-11,878	274,447	127,889
56,115	-11,779	274,234	127,870
57,130	-11,490	274,014	128,026
58,144	-11,333	273,842	128,081
59,159	-11,308	273,581	127,971
60,174	-11,323	273,388	127,855
61,188	-11,393	273,220	127,700
62,203	-11,384	273,077	127,631
63,217	-11,454	272,845	127,445
64,232	-11,446	272,603	127,329
65,247	-11,294	272,368	127,348
66,261	-11,209	272,082	127,282
67,276	-11,343	271,790	127,010
68,290	-11,434	271,372	126,720
69,305	-11,833	271,230	126,273
70,320	-11,761	271,039	126,240
71,334	-11,491	270,965	126,442
72,349	-11,343	270,804	126,493
73,363	-11,451	270,491	126,236
74,378	-11,362	270,343	126,237
75,393	-11,326	269,947	126,074
76,407	-11,212	269,767	126,084
77,422	-11,519	269,764	125,789
78,436	-11,499	269,565	125,703
79,451	-11,331	269,169	125,661
80,466	-11,361	268,872	125,484
81,480	-11,442	268,643	125,292
82,495	-11,596	268,434	125,042
83,509	-11,506	268,235	125,021
84,524	-11,279	267,967	125,091
85,539	-11,737	267,780	124,576
86,553	-11,747	267,499	124,425
87,568	-11,491	267,342	124,574
88,582	-11,622	267,212	124,383
89,597	-11,593	267,040	124,319
90,611	-11,602	266,901	124,235
91,626	-11,324	266,709	124,386
92,641	-11,370	266,521	124,246
93,655	-11,438	266,205	124,026
94,670	-11,592	266,041	123,799
95,684	-11,529	265,835	123,749
96,699	-11,335	265,748	123,873
97,714	-11,619	265,461	123,472
98,728	-11,623	265,256	123,361
99,743	-11,792	264,930	123,047
100,757	-11,856	264,810	122,923
101,772	-11,575	264,460	123,002
102,787	-11,394	264,308	123,083
103,801	-11,350	264,175	123,049
104,816	-11,348	263,867	122,896
105,830	-11,267	263,821	122,937
106,845	-11,296	263,704	122,845
107,860	-11,358	263,413	122,643
108,874	-11,373	263,364	122,596
109,889	-11,268	262,946	122,484
110,903	-11,604	262,756	122,085
111,918	-11,251	262,437	122,240
112,933	-11,321	262,351	122,127
113,947	-11,153	262,245	122,216
114,962	-11,415	262,128	121,918
115,976	-11,481	261,979	121,779
116,991	-11,427	261,738	121,704
118,006	-11,396	261,566	121,640
119,020	-11,337	261,391	121,601
120,035	-11,357	261,338	121,547
121,049	-11,452	261,022	121,306
122,064	-11,365	260,815	121,275
123,079	-11,204	260,652	121,331
124,093	-11,640	260,355	120,798
125,108	-11,760	260,268	120,641
126,122	-11,593	259,888	120,601
127,137	-12,002	259,724	120,154
128,151	-11,869	259,490	120,152
129,166	-11,676	259,407	120,272
130,181	-11,588	259,073	120,184
131,195	-11,672	258,821	119,983
132,210	-11,464	258,885	120,184
133,224	-11,546	258,522	119,933
134,239	-11,500	258,529	119,966
135,254	-11,381	258,025	119,825
136,268	-11,462	257,841	119,658
137,283	-11,531	257,711	119,528
138,297	-11,799	257,454	119,164
139,312	-11,900	257,281	118,986
140,327	-11,418	257,211	119,362
141,341	-11,162	257,064	119,505
142,356	-11,454	256,821	119,129
143,370	-11,315	256,738	119,200
144,385	-11,074	256,594	119,331
145,400	-11,138	256,358	119,155
146,414	-11,078	256,149	119,100
147,429	-11,085	256,000	119,014
148,443	-11,259	255,838	118,778
149,458	-11,193	255,620	118,723
150,473	-11,059	255,430	118,740
151,487	-11,278	255,245	118,454
152,502	-11,295	254,992	118,312
153,516	-11,308	254,953	118,272
154,531	-11,095	254,723	118,337
155,546	-11,277	254,558	118,094
156,560	-11,441	254,337	117,840
157,575	-11,261	254,031	117,842
158,589	-11,172	253,902	117,848
159,604	-11,271	253,726	117,671
160,619	-11,473	253,667	117,460
161,633	-11,434	253,308	117,316
162,648	-11,016	253,156	117,593
163,662	-11,184	253,008	117,371
164,677	-11,061	252,917	117,422
165,692	-11,078	252,725	117,308
166,706	-11,110	252,402	117,121
167,721	-11,222	252,345	116,989
168,735	-10,979	252,110	117,076
169,750	-11,106	252,107	116,957
170,764	-11,233	251,962	116,770
171,779	-10,943	251,678	116,875
172,794	-11,291	251,627	116,545
173,808	-11,226	251,451	116,508
174,823	-11,425	250,933	116,090
175,837	-11,880	250,877	115,669
176,852	-11,299	250,764	116,098
177,867	-11,202	250,700	116,139
178,881	-11,223	250,623	116,075
179,896	-11,056	250,407	116,106
180,910	-11,057	250,128	115,966
181,925	-11,105	250,050	115,879
182,940	-11,137	249,738	115,697
183,954	-11,206	249,837	115,674
184,969	-11,218	249,619	115,553
185,983	-11,115	249,435	115,544
186,998	-11,351	249,193	115,224
188,013	-11,244	249,102	115,261
189,027	-11,216	248,805	115,137
190,042	-10,928	248,553	115,251
191,056	-11,254	248,538	114,961
192,071	-10,991	248,289	115,056
193,086	-11,061	248,157	114,925
194,100	-11,065	247,985	114,832
195,115	-11,005	247,725	114,752
196,129	-10,900	247,502	114,725
197,144	-11,049	247,311	114,503
198,159	-11,180	247,116	114,293
199,173	-11,036	246,858	114,283
200,188	-11,304	246,847	114,046
201,202	-11,452	246,561	113,780
202,217	-11,630	246,324	113,513
203,232	-11,882	246,099	113,191
204,246	-11,333	246,026	113,602
205,261	-10,877	245,910	113,915
206,275	-11,743	245,476	112,989
207,290	-7,688	247,226	117,152
208,304	0,416	249,901	125,193
209,319	4,048	250,881	128,713
210,334	4,647	250,955	129,240
211,348	4,889	250,706	129,303
212,363	5,268	250,721	129,616
213,377	5,075	250,612	129,387
214,392	5,130	250,390	129,307
215,407	4,947	250,150	129,018
216,421	4,966	250,023	128,957
217,436	5,255	249,752	129,046
218,450	5,332	249,743	129,094
219,465	5,033	249,464	128,690
220,480	4,846	249,331	128,454
221,494	4,767	249,094	128,255
222,509	4,716	249,044	128,176
223,523	4,857	248,737	128,124
224,538	4,366	248,471	127,569
225,553	4,397	248,465	127,580
226,567	4,830	248,169	127,775
227,582	4,612	248,058	127,526
228,596	4,707	247,922	127,523
229,611	4,328	247,568	127,018
230,626	4,193	247,517	126,869
231,640	4,481	247,423	127,047
232,655	4,518	247,250	126,977
233,669	4,468	247,004	126,798
234,684	4,180	246,860	126,476
235,699	4,516	246,794	126,707
236,713	4,786	246,827	126,935
237,728	4,283	246,504	126,345
238,742	4,332	246,178	126,206
239,757	4,207	246,001	126,002
240,772	4,590	245,797	126,199
241,786	4,531	245,730	126,106
242,801	4,358	245,538	125,855
243,815	4,426	245,448	125,853
244,830	4,487	245,377	125,855
245,844	4,516	245,215	125,784
246,859	4,343	245,007	125,525
247,874	4,239	244,773	125,310
248,888	4,267	244,700	125,284
249,903	4,535	244,567	125,422
250,917	4,620	244,464	125,427
251,932	4,573	244,417	125,354
252,947	4,739	244,100	125,315
253,961	4,407	243,901	124,932
254,976	4,594	243,694	124,966
255,990	4,659	243,496	124,906
257,005	4,273	243,420	124,545
258,020	4,451	243,181	124,555
259,034	4,496	243,113	124,545
260,049	4,468	242,898	124,402
261,063	4,351	242,693	124,191
262,078	4,437	242,560	124,181
263,093	4,480	242,596	124,223
264,107	4,641	242,359	124,220
265,122	4,389	242,220	123,935
266,136	4,563	242,064	123,984
267,151	4,742	241,959	124,063
268,166	4,334	241,656	123,569
269,180	4,241	241,498	123,403
270,195	4,917	241,452	123,909
271,209	5,087	241,495	124,056
272,224	4,547	241,201	123,463
273,239	4,156	240,817	122,944
274,253	4,230	240,722	122,943
275,268	4,551	240,616	123,134
276,282	4,640	240,396	123,081
277,297	4,152	240,277	122,621
278,312	4,359	240,116	122,692
279,326	4,446	240,062	122,723
280,341	4,374	239,788	122,515
281,355	4,488	239,773	122,587
282,370	4,750	239,617	122,704
283,384	4,569	239,384	122,430
284,399	4,214	239,253	122,071
285,414	4,210	238,963	121,909
286,428	4,278	238,946	121,943
287,443	4,423	238,673	121,908
288,457	4,513	238,720	121,992
289,472	4,808	238,529	122,116
290,487	4,491	238,282	121,729
291,501	4,331	238,071	121,484
292,516	4,203	237,892	121,282
293,530	4,049	237,762	121,083
294,545	4,604	237,690	121,472
295,560	4,518	237,591	121,343
296,574	4,329	237,427	121,101
297,589	4,317	237,394	121,063
298,603	4,587	237,341	121,237
299,618	4,584	237,166	121,135
300,633	4,483	236,965	120,942
301,647	4,756	236,730	121,025
302,662	4,937	236,766	121,174
303,676	4,987	236,621	121,128
304,691	4,795	236,184	120,744
305,706	4,883	236,275	120,848
306,720	4,934	236,042	120,758
307,735	4,832	235,914	120,602
308,749	4,427	235,744	120,189
309,764	4,516	235,458	120,102
310,779	4,355	235,193	119,831
311,793	4,185	235,046	119,613
312,808	4,249	234,867	119,562
313,822	4,304	234,636	119,476
314,837	3,998	234,599	119,209
315,852	4,155	234,371	119,204
316,866	4,307	234,504	119,379
317,881	4,918	234,464	119,821
318,895	4,954	234,278	119,743
319,910	4,767	234,052	119,472
320,925	4,520	233,705	119,094
321,939	4,267	233,678	118,875
322,954	4,423	233,622	118,955
323,968	4,579	233,480	118,993
324,983	4,516	233,440	118,914
325,997	4,906	233,157	119,059
327,012	4,804	232,981	118,880
328,027	4,421	232,871	118,519
329,041	4,931	232,749	118,838
330,056	5,214	232,839	119,090
331,070	5,367	232,643	119,096
332,085	4,855	232,323	118,530
333,100	4,601	232,188	118,257
334,114	4,634	231,998	118,174
335,129	4,787	231,856	118,208
336,143	5,128	231,774	118,416
337,158	4,908	231,536	118,116
338,173	4,468	231,358	117,679
339,187	4,549	231,093	117,596
340,202	4,649	231,169	117,700
341,216	4,683	230,937	117,597
342,231	4,653	230,829	117,509
343,246	4,617	230,481	117,294
344,260	4,639	230,571	117,346
345,275	4,722	230,478	117,352
346,289	4,907	230,402	117,443
347,304	4,864	230,206	117,299
348,319	5,002	230,038	117,308
349,333	4,620	229,777	116,876
350,348	4,497	229,615	116,690
351,362	4,503	229,647	116,701
352,377	4,297	229,363	116,390
353,392	4,053	229,140	116,082
354,406	4,368	229,061	116,270
355,421	194,655	1320,047	1392,611
356,435	156,095	1452,940	1392,574
