DTS Sentinel unit serial number:	SN410029Multiplexer serial number:	ORYXHardware model number:	OX2-SRSoftware version number:	ORYX F/W v4,00 Oryx Data Collector v3.7.2.0data status	okinstallation	B5 Nyhavnadifferential loss correction	single-endedforward channel	channel 2reverse channel	N/Adate	2023/12/14time	19:12:13forward acquisition time	300,00reverse acquisition time	0,00gamma	499,1914k internal	0,3156k external	0,3156temperature offset calibration	1,0000default loss term (dB/km)	0,3820temperature slope calibration	1,0000multiplexer offset coefficient	1,0000multiplexer slope coefficient	1,0000fibre end	0,00T internal ref (°C)	8,79T ext. ref 1 (°C)	-5,88T ext. ref 2 (°C)	-5,94length (m)	temperature (°C)	Stokes	anti-Stokes-744,400	2,611	0,181	0,097
-743,385	50,125	-0,209	-0,145
-742,371	800,000	0,056	0,151
-741,356	-102,965	-0,327	-0,057
-740,342	177,034	0,148	0,159
-739,327	-150,659	-0,364	0,020
-738,312	51,353	0,182	0,127
-737,298	28,974	-0,250	-0,156
-736,283	359,904	0,089	0,131
-735,269	-105,316	-0,394	-0,065
-734,254	159,661	0,098	0,101
-733,239	-90,547	-0,582	-0,123
-732,225	-58,329	0,246	-0,079
-731,210	-200,000	0,014	0,052
-730,196	-30,691	0,045	0,019
-729,181	103,381	-0,063	0,054
-728,167	701,173	0,041	0,080
-727,152	-200,000	0,017	0,119
-726,137	567,224	-0,100	-0,180
-725,123	-23,663	0,052	0,023
-724,108	-89,196	-0,087	-0,019
-723,094	800,000	0,039	-0,114
-722,079	-8,846	-0,158	-0,078
-721,064	-200,000	0,007	0,102
-720,050	20,511	-0,039	0,023
-719,035	355,224	-0,093	0,137
-718,021	109,327	-0,130	-0,115
-717,006	-200,000	0,029	-0,156
-715,991	125,306	-0,064	-0,060
-714,977	800,000	0,050	-0,119
-713,962	27,225	-0,060	-0,037
-712,948	-80,872	0,051	0,012
-711,933	86,395	0,077	-0,063
-710,918	-200,000	-0,002	-0,039
-709,904	800,000	0,039	0,118
-708,889	574,708	-0,026	0,047
-707,875	-63,457	0,043	-0,013
-706,860	-140,653	0,035	-0,003
-705,845	800,000	0,048	-0,105
-704,831	800,000	-0,016	-0,041
-703,816	-127,245	0,197	-0,021
-702,802	800,000	-0,047	-0,138
-701,787	800,000	-0,068	-0,182
-700,772	248,689	0,016	0,020
-699,758	95,250	0,049	-0,041
-698,743	100,980	-0,111	0,095
-697,729	-52,751	0,104	0,035
-696,714	-100,354	-0,083	-0,015
-695,699	-200,000	0,009	-0,114
-694,685	-58,056	-0,176	0,056
-693,670	-25,153	-0,039	0,017
-692,656	197,739	0,088	0,099
-691,641	-28,918	0,097	-0,041
-690,627	139,726	-0,022	0,021
-689,612	-130,508	-0,067	-0,007
-688,597	4,429	-0,019	0,010
-687,583	19,818	-0,092	0,055
-686,568	-200,000	-0,002	-0,047
-685,554	1,695	0,124	0,066
-684,539	168,736	0,019	0,020
-683,524	800,000	-0,012	0,033
-682,510	-200,000	-0,001	-0,134
-681,495	-103,924	0,066	0,011
-680,481	-200,000	-0,025	0,111
-679,466	-144,145	-0,058	-0,004
-678,451	566,288	-0,053	-0,094
-677,437	800,000	0,021	0,057
-676,422	38,493	0,118	-0,077
-675,408	-96,245	0,046	0,009
-674,393	-91,053	-0,097	0,020
-673,378	-2,513	-0,117	-0,060
-672,364	-200,000	0,020	0,085
-671,349	-77,019	-0,179	-0,046
-670,335	301,733	-0,065	-0,088
-669,320	7,654	-0,105	0,058
-668,305	252,363	0,070	0,088
-667,291	256,796	-0,061	-0,078
-666,276	-200,000	0,006	-0,026
-665,262	6,845	-0,106	0,058
-664,247	87,738	0,048	-0,039
-663,232	-169,697	0,102	0,003
-662,218	-110,646	0,146	-0,022
-661,203	-200,000	0,002	-0,009
-660,189	-96,517	-0,088	-0,017
-659,174	800,000	-0,036	-0,076
-658,159	-183,421	-0,161	-0,002
-657,145	800,000	-0,025	0,066
-656,130	-0,366	0,017	-0,009
-655,116	800,000	0,041	0,101
-654,101	169,998	0,025	-0,026
-653,086	622,752	-0,040	0,073
-652,072	-94,909	0,068	0,013
-651,057	-200,000	-0,005	-0,098
-650,043	-200,000	0,002	-0,057
-649,028	37,491	-0,038	0,025
-648,014	-200,000	0,011	0,076
-646,999	-200,000	0,000	-0,008
-645,984	280,254	0,078	-0,102
-644,970	17,247	-0,014	-0,008
-643,955	-200,000	-0,041	-0,134
-642,941	-194,659	0,063	-0,000
-641,926	-200,000	-0,004	-0,036
-640,911	707,872	0,042	-0,082
-639,897	-16,466	0,131	-0,061
-638,882	-40,148	-0,067	0,025
-637,868	-59,310	0,040	0,013
-636,853	89,310	-0,095	0,077
-635,838	-42,867	-0,081	-0,030
-634,824	573,054	0,072	-0,129
-633,809	477,773	-0,021	-0,035
-632,795	292,722	-0,045	-0,061
-631,780	3,990	-0,050	-0,027
-630,765	-118,586	-0,031	0,004
-629,751	-10,014	0,053	-0,026
-628,736	7,155	-0,221	0,121
-627,722	-167,303	0,084	-0,002
-626,707	335,430	-0,070	0,100
-625,692	87,731	0,019	0,016
-624,678	-42,526	0,147	0,055
-623,663	-67,496	-0,173	0,049
-622,649	-200,000	-0,027	0,089
-621,634	268,314	-0,116	-0,149
-620,619	4,794	0,064	-0,034
-619,605	-189,063	0,071	-0,001
-618,590	-52,816	0,085	-0,029
-617,576	-133,942	-0,210	-0,019
-616,561	-99,961	0,047	-0,009
-615,546	271,339	-0,072	0,093
-614,532	-30,054	-0,033	-0,014
-613,517	-71,757	-0,042	-0,012
-612,503	-200,000	0,001	0,049
-611,488	-27,375	-0,035	-0,015
-610,474	198,381	0,037	0,042
-609,459	800,000	-0,020	0,053
-608,444	46,396	0,043	-0,029
-607,430	123,306	-0,074	-0,068
-606,415	-200,000	0,014	-0,102
-605,401	314,522	-0,045	-0,063
-604,386	-73,440	0,071	0,019
-603,371	-200,000	-0,001	0,011
-602,357	-32,047	-0,099	-0,040
-601,342	-110,461	0,169	-0,025
-600,328	-17,369	-0,079	-0,036
-599,313	299,249	-0,052	0,070
-598,298	310,628	-0,047	-0,065
-597,284	-4,674	-0,004	0,002
-596,269	68,372	0,092	-0,069
-595,255	116,831	-0,065	-0,058
-594,240	258,092	-0,071	-0,090
-593,225	178,720	-0,089	-0,096
-592,211	230,539	-0,056	0,067
-591,196	-133,151	0,126	-0,012
-590,182	90,918	-0,068	-0,056
-589,167	-109,970	0,053	0,008
-588,152	-118,774	-0,180	0,023
-587,138	-200,000	-0,010	-0,044
-586,123	-200,000	-0,019	-0,175
-585,109	779,179	-0,012	0,024
-584,094	-151,813	0,056	-0,003
-583,079	-200,000	-0,001	0,025
-582,065	-141,001	0,042	0,003
-581,050	397,341	-0,061	-0,094
-580,036	-200,000	-0,012	0,080
-579,021	800,000	-0,088	-0,186
-578,006	66,575	-0,070	-0,052
-576,992	-104,023	0,035	0,006
-575,977	48,891	0,089	0,061
-574,963	-200,000	0,029	0,145
-573,948	-31,072	0,047	-0,019
-572,934	800,000	-0,025	-0,066
-571,919	-143,646	-0,086	-0,006
-570,904	-23,946	-0,100	-0,044
-569,890	195,963	0,015	0,016
-568,875	-46,057	0,051	-0,018
-567,861	50,177	0,116	0,080
-566,846	800,000	-0,021	-0,055
-565,831	-117,496	-0,039	-0,005
-564,817	800,000	0,009	0,023
-563,802	-84,740	-0,042	-0,010
-562,788	112,809	0,039	0,034
-561,773	278,884	-0,031	0,040
-560,758	117,552	-0,130	0,117
-559,744	115,469	-0,083	0,074
-558,729	260,861	-0,019	-0,023
-557,715	-185,930	-0,109	0,001
-556,700	800,000	0,023	-0,057
-555,685	98,526	-0,088	-0,074
-554,671	-200,000	0,001	-0,028
-553,656	7,724	0,016	0,009
-552,642	143,654	-0,075	-0,073
-551,627	-68,680	-0,075	0,021
-550,612	15,531	-0,102	-0,058
-549,598	-200,000	0,007	-0,032
-548,583	282,486	-0,003	0,004
-547,569	16,362	0,018	0,010
-546,554	-41,537	0,100	-0,037
-545,539	-67,113	0,024	-0,007
-544,525	-71,616	-0,057	-0,015
-543,510	800,000	-0,032	0,099
-542,496	-200,000	-0,011	-0,082
-541,481	800,000	0,019	0,048
-540,466	-200,000	0,006	-0,050
-539,452	-23,728	-0,134	0,059
-538,437	800,000	0,007	0,015
-537,423	338,182	-0,036	-0,051
-536,408	-200,000	-0,008	-0,080
-535,393	800,000	0,079	-0,194
-534,379	-73,378	-0,190	-0,050
-533,364	800,000	-0,024	-0,059
-532,350	36,828	-0,019	-0,012
-531,335	-200,000	0,012	0,089
-530,321	224,461	-0,019	0,022
-529,306	-114,367	0,072	0,010
-528,291	303,577	-0,061	-0,082
-527,277	13,221	-0,130	0,073
-526,262	-200,000	-0,019	0,099
-525,248	-200,000	0,013	-0,047
-524,233	-200,000	0,024	0,115
-523,218	-135,606	-0,143	-0,012
-522,204	-200,000	-0,056	0,232
-521,189	-200,000	-0,013	0,054
-520,175	-200,000	0,000	-0,032
-519,160	274,919	0,042	-0,054
-518,145	-7,895	0,099	-0,049
-517,131	211,396	0,052	0,060
-516,116	93,094	-0,073	0,061
-515,102	-200,000	0,001	-0,047
-514,087	121,585	-0,064	-0,059
-513,072	-18,213	-0,074	-0,034
-512,058	800,000	0,054	0,121
-511,043	231,722	-0,100	-0,120
-510,029	6,078	0,105	-0,057
-509,014	800,000	0,042	-0,114
-507,999	800,000	-0,038	0,087
-506,985	203,293	0,063	-0,072
-505,970	-200,000	0,011	-0,079
-504,956	800,000	-0,041	-0,118
-503,941	11,673	0,070	0,039
-502,926	446,805	-0,049	-0,079
-501,912	-80,780	0,077	-0,019
-500,897	-92,326	-0,081	-0,017
-499,883	-18,391	0,074	-0,034
-498,868	-108,849	-0,163	-0,025
-497,853	126,356	0,047	-0,044
-496,839	800,000	-0,012	-0,038
-495,824	326,813	-0,030	0,043
-494,810	-200,000	0,030	-0,130
-493,795	-31,902	-0,045	0,018
-492,781	47,838	-0,192	-0,131
-491,766	181,530	0,124	-0,133
-490,751	282,758	-0,068	-0,089
-489,737	133,114	0,142	0,134
-488,722	800,000	-0,023	0,069
-487,708	334,048	-0,052	0,073
-486,693	129,710	0,110	-0,103
-485,678	123,764	-0,083	0,076
-484,664	-111,335	-0,087	0,013
-483,649	800,000	-0,052	-0,115
-482,635	800,000	0,021	-0,053
-481,620	182,072	0,067	0,072
-480,605	-55,155	0,016	-0,005
-479,591	-200,000	0,006	0,031
-478,576	508,670	0,020	0,035
-477,562	-15,902	-0,080	-0,037
-476,547	-72,723	-0,047	-0,013
-475,532	-102,872	-0,087	0,015
-474,518	-42,011	-0,181	-0,067
-473,503	48,982	0,063	0,043
-472,489	-139,224	0,132	0,010
-471,474	456,471	-0,109	0,177
-470,459	-200,000	-0,007	-0,172
-469,445	-200,000	-0,000	-0,072
-468,430	-56,950	-0,097	-0,031
-467,416	-70,046	0,185	-0,051
-466,401	-163,996	0,165	0,005
-465,386	-200,000	0,009	-0,107
-464,372	443,808	-0,019	-0,030
-463,357	155,474	0,021	-0,021
-462,343	-200,000	-0,028	-0,143
-461,328	-200,000	0,005	-0,086
-460,313	-24,423	0,074	0,032
-459,299	-174,656	0,115	-0,002
-458,284	-200,000	-0,034	-0,128
-457,270	255,605	-0,069	-0,086
-456,255	-200,000	-0,021	-0,166
-455,241	800,000	-0,023	0,068
-454,226	-200,000	-0,030	-0,175
-453,211	692,488	-0,071	-0,136
-452,197	800,000	-0,008	0,019
-451,182	-200,000	-0,002	0,160
-450,168	337,304	0,081	0,115
-449,153	137,434	0,043	0,041
-448,138	102,149	-0,054	-0,046
-447,124	230,537	-0,062	0,074
-446,109	532,014	0,025	-0,043
-445,095	228,271	0,059	-0,070
-444,080	800,000	0,018	0,050
-443,065	800,000	0,008	0,022
-442,051	-200,000	0,009	0,185
-441,036	-23,497	-0,165	-0,072
-440,022	-200,000	0,002	-0,043
-439,007	-200,000	-0,016	-0,066
-437,992	-102,724	0,108	-0,018
-436,978	-74,229	0,048	0,013
-435,963	-200,000	0,021	0,075
-434,949	-200,000	-0,037	-0,118
-433,934	-46,765	-0,102	-0,036
-432,919	347,334	0,106	-0,153
-431,905	59,307	0,054	0,039
-430,890	-200,000	-0,026	0,105
-429,876	-200,000	0,058	0,214
-428,861	386,876	0,113	0,170
-427,846	-129,812	-0,041	-0,004
-426,832	8,189	-0,141	-0,077
-425,817	-30,543	0,212	-0,087
-424,803	-200,000	-0,058	-0,000
-423,788	364,830	0,061	-0,090
-422,773	177,490	0,052	0,055
-421,759	-200,000	0,001	-0,031
-420,744	-200,000	0,024	-0,126
-419,730	-20,887	-0,124	-0,055
-418,715	65,870	0,057	-0,042
-417,701	-141,072	-0,011	-0,001
-416,686	28,600	0,012	-0,007
-415,671	800,000	-0,028	0,063
-414,657	192,453	0,069	0,075
-413,642	105,750	-0,055	-0,047
-412,628	-57,612	-0,122	-0,039
-411,613	6,393	-0,092	-0,049
-410,598	661,097	-0,048	-0,090
-409,584	800,000	0,070	0,167
-408,569	-137,308	0,084	-0,007
-407,555	-148,475	-0,188	-0,011
-406,540	-200,000	0,022	0,118
-405,525	-200,000	0,004	0,017
-404,511	73,025	-0,085	0,065
-403,496	253,499	0,129	-0,160
-402,482	-200,000	0,011	-0,186
-401,467	800,000	0,025	0,067
-400,452	-6,249	0,076	0,037
-399,438	429,692	-0,108	-0,171
-398,423	-200,000	-0,015	0,149
-397,409	-200,000	0,045	-0,170
-396,394	-200,000	0,002	-0,151
-395,379	-200,000	-0,008	-0,076
-394,365	45,516	0,086	-0,057
-393,350	-182,297	0,084	-0,001
-392,336	232,014	-0,065	0,078
-391,321	118,277	-0,058	0,052
-390,306	800,000	0,035	-0,081
-389,292	549,380	-0,036	-0,062
-388,277	237,154	0,098	-0,118
-387,263	-71,029	-0,046	0,012
-386,248	800,000	-0,023	-0,046
-385,233	52,346	-0,040	0,027
-384,219	0,497	0,012	0,006
-383,204	800,000	0,029	-0,062
-382,190	605,404	-0,052	-0,095
-381,175	800,000	0,032	0,069
-380,160	-200,000	0,002	0,036
-379,146	-200,000	0,001	0,050
-378,131	-200,000	-0,023	0,153
-377,117	-200,000	0,000	0,067
-376,102	-200,000	0,029	-0,126
-375,088	-200,000	0,005	0,072
-374,073	136,179	0,092	-0,087
-373,058	-97,676	0,055	0,010
-372,044	110,064	0,065	0,057
-371,029	-68,211	0,038	-0,011
-370,015	-200,000	0,004	-0,122
-369,000	-200,000	-0,012	0,171
-367,985	800,000	-0,091	-0,208
-366,971	792,755	-0,046	-0,093
-365,956	217,196	-0,025	-0,029
-364,942	800,000	-0,017	0,040
-363,927	399,960	0,087	0,133
-362,912	241,901	-0,035	-0,043
-361,898	111,984	0,119	0,104
-360,883	-200,000	-0,005	0,130
-359,869	-147,510	-0,071	-0,004
-358,854	-200,000	0,003	0,042
-357,839	-200,000	-0,019	0,233
-356,825	-38,001	-0,040	-0,015
-355,810	99,578	-0,032	-0,027
-354,796	800,000	-0,020	0,057
-353,781	-7,129	0,115	0,057
-352,766	-70,752	-0,036	0,010
-351,752	52,258	-0,035	-0,024
-350,737	-200,000	0,039	0,194
-349,723	-7,833	-0,055	0,027
-348,708	-200,000	0,039	0,144
-347,693	131,112	-0,075	-0,070
-346,679	-200,000	-0,028	0,097
-345,664	-65,521	0,165	-0,048
-344,650	-112,279	0,083	0,012
-343,635	-79,226	0,063	-0,015
-342,620	50,260	-0,143	-0,098
-341,606	125,225	-0,018	0,016
-340,591	187,695	0,009	0,009
-339,577	648,470	-0,051	-0,094
-338,562	380,338	-0,089	-0,133
-337,548	344,164	-0,107	0,153
-336,533	-47,974	0,100	0,035
-335,518	55,434	-0,061	0,043
-334,504	759,626	0,023	0,045
-333,489	-200,000	0,000	-0,055
-332,475	800,000	-0,034	0,089
-331,460	-69,935	0,064	0,018
-330,445	800,000	0,031	-0,071
-329,431	155,193	0,128	-0,128
-328,416	-99,462	0,120	-0,022
-327,402	178,571	0,068	0,073
-326,387	-200,000	0,001	0,064
-325,372	-200,000	0,010	-0,089
-324,358	-13,629	0,077	0,036
-323,343	800,000	0,028	0,087
-322,329	-200,000	-0,007	0,096
-321,314	16,754	0,086	0,049
-320,299	-74,041	0,078	0,020
-319,285	32,270	-0,085	-0,053
-318,270	-124,076	0,073	0,008
-317,256	-87,533	-0,101	0,022
-316,241	800,000	-0,028	0,057
-315,226	55,545	0,075	0,052
-314,212	546,388	0,052	0,090
-313,197	-200,000	-0,019	0,072
-312,183	82,475	0,137	0,108
-311,168	265,443	0,072	-0,091
-310,153	-200,000	-0,003	-0,078
-309,139	-99,090	0,056	-0,010
-308,124	-200,000	0,000	-0,033
-307,110	-200,000	-0,016	-0,105
-306,095	20,087	0,092	0,053
-305,080	583,052	0,004	-0,007
-304,066	87,264	-0,079	0,063
-303,051	-61,755	-0,051	0,015
-302,037	41,496	0,055	-0,036
-301,022	-45,091	0,019	-0,007
-300,008	-102,904	0,118	0,020
-298,993	151,476	0,062	-0,061
-297,978	-33,975	0,197	-0,078
-296,964	-102,478	-0,065	-0,011
-295,949	-200,000	-0,007	-0,063
-294,935	-73,399	0,046	0,012
-293,920	-30,638	0,099	0,040
-292,905	418,482	0,086	0,133
-291,891	-55,802	0,075	-0,024
-290,876	21,402	0,097	0,057
-289,862	-200,000	-0,004	-0,079
-288,847	269,970	-0,086	-0,110
-287,832	135,549	0,078	0,074
-286,818	-122,500	-0,073	-0,008
-285,803	-24,951	0,114	0,049
-284,789	-200,000	-0,004	0,197
-283,774	-149,928	-0,149	0,008
-282,759	753,257	0,032	0,063
-281,745	-200,000	0,007	-0,185
-280,730	540,625	-0,047	-0,081
-279,716	800,000	0,050	0,100
-278,701	800,000	0,048	0,123
-277,686	361,653	-0,111	-0,162
-276,672	92,445	0,060	0,049
-275,657	800,000	0,006	0,015
-274,643	-200,000	0,010	-0,031
-273,628	143,991	0,069	-0,067
-272,613	-200,000	-0,027	-0,139
-271,599	-86,733	0,158	0,035
-270,584	800,000	-0,066	0,135
-269,570	-80,377	-0,103	0,025
-268,555	204,663	0,051	-0,058
-267,540	-200,000	-0,017	0,064
-266,526	308,972	0,124	-0,169
-265,511	-119,182	0,094	-0,012
-264,497	-200,000	-0,029	0,109
-263,482	-128,822	-0,049	-0,005
-262,467	243,853	0,069	-0,084
-261,453	-33,647	-0,096	0,038
-260,438	227,374	0,079	-0,093
-259,424	-200,000	0,018	-0,179
-258,409	-196,578	-0,106	-0,000
-257,395	-106,088	0,084	0,014
-256,380	-200,000	-0,008	-0,027
-255,365	56,509	0,053	-0,037
-254,351	42,123	-0,062	0,041
-253,336	800,000	0,013	0,033
-252,322	476,344	0,038	0,063
-251,307	14,358	0,040	0,023
-250,292	800,000	0,016	-0,046
-249,278	-200,000	-0,012	0,182
-248,263	-108,656	-0,066	0,010
-247,249	800,000	0,049	0,107
-246,234	492,190	0,047	0,079
-245,219	180,331	0,025	-0,027
-244,205	30,703	-0,090	0,055
-243,190	-200,000	-0,001	-0,022
-242,176	-200,000	-0,005	0,144
-241,161	-200,000	0,008	-0,123
-240,146	372,041	0,044	0,065
-239,132	27,638	-0,155	0,094
-238,117	800,000	0,038	0,103
-237,103	144,303	0,041	0,040
-236,088	-200,000	-0,052	0,201
-235,073	10,806	-0,033	0,018
-234,059	56,090	-0,047	0,033
-233,044	-200,000	-0,004	0,143
-232,030	97,215	-0,094	0,078
-231,015	800,000	-0,021	-0,059
-230,000	-200,000	0,007	0,083
-228,986	800,000	-0,031	0,085
-227,971	-96,294	0,255	0,048
-226,957	-69,363	0,103	0,028
-225,942	16,122	0,077	0,044
-224,927	-200,000	0,011	0,049
-223,913	60,539	-0,015	0,011
-222,898	724,813	-0,011	0,021
-221,884	347,831	0,020	0,028
-220,869	26,781	0,016	0,010
-219,855	800,000	-0,004	0,013
-218,840	-103,958	0,128	-0,021
-217,825	324,077	-0,041	0,057
-216,811	-200,000	-0,003	0,062
-215,796	-200,000	-0,032	-0,197
-214,782	359,633	-0,096	-0,139
-213,767	-43,689	-0,062	-0,022
-212,752	95,573	-0,057	-0,047
-211,738	304,043	0,042	-0,056
-210,723	-50,978	-0,064	0,022
-209,709	-200,000	-0,005	0,074
-208,694	-63,633	0,043	0,013
-207,679	800,000	-0,034	0,086
-206,665	-111,988	-0,050	-0,007
-205,650	-200,000	0,004	0,050
-204,636	-200,000	-0,027	0,096
-203,621	117,275	-0,031	-0,027
-202,606	-200,000	0,011	-0,138
-201,592	3,087	-0,112	0,059
-200,577	50,933	0,122	0,083
-199,563	379,571	-0,065	0,097
-198,548	-200,000	-0,037	0,132
-197,533	-19,136	0,127	-0,057
-196,519	310,218	-0,064	-0,087
-195,504	116,394	-0,058	0,052
-194,490	-200,000	0,002	-0,114
-193,475	-150,549	-0,023	0,001
-192,460	-200,000	-0,009	0,144
-191,446	800,000	0,036	-0,099
-190,431	-36,729	0,082	0,032
-189,417	-200,000	0,015	-0,126
-188,402	800,000	-0,008	-0,018
-187,387	339,265	-0,029	0,041
-186,373	-200,000	0,015	-0,064
-185,358	329,767	-0,016	-0,022
-184,344	800,000	-0,021	0,057
-183,329	39,357	-0,086	0,055
-182,315	532,977	0,064	0,111
-181,300	51,203	-0,075	0,051
-180,285	465,421	0,044	0,071
-179,271	-102,762	0,145	-0,025
-178,256	-87,738	0,050	-0,011
-177,242	2,810	0,100	-0,052
-176,227	800,000	0,023	-0,046
-175,212	455,258	-0,074	0,119
-174,198	515,475	-0,051	-0,086
-173,183	-79,824	-0,141	-0,034
-172,169	800,000	0,037	0,112
-171,154	-200,000	-0,009	0,175
-170,139	-200,000	-0,030	0,150
-169,125	-15,025	-0,055	0,026
-168,110	-10,955	0,176	0,084
-167,096	-127,671	-0,147	-0,015
-166,081	63,441	0,067	0,048
-165,066	247,542	0,081	0,098
-164,052	185,886	0,064	-0,069
-163,037	-21,376	-0,099	-0,043
-162,023	-200,000	0,001	0,039
-161,008	800,000	0,063	0,145
-159,993	-200,000	0,018	0,075
-158,979	374,518	0,054	0,079
-157,964	-91,277	-0,130	0,027
-156,950	-80,742	0,071	0,017
-155,935	204,287	-0,034	0,038
-154,920	-63,761	0,184	-0,054
-153,906	800,000	0,049	0,125
-152,891	-27,634	0,119	-0,050
-151,877	314,718	-0,023	-0,032
-150,862	231,667	0,065	-0,077
-149,847	-169,890	0,105	0,003
-148,833	641,481	0,027	0,051
-147,818	-86,204	0,138	-0,030
-146,804	-88,212	0,065	0,014
-145,789	-200,000	-0,023	0,093
-144,775	53,839	0,126	-0,087
-143,760	73,426	-0,028	-0,021
-142,745	-35,097	-0,091	0,035
-141,731	-103,421	-0,043	0,007
-140,716	95,551	0,036	0,029
-139,702	-200,000	-0,008	-0,036
-138,687	-86,451	0,068	0,015
-137,672	800,000	0,054	-0,109
-136,658	-10,137	-0,109	-0,052
-135,643	48,089	-0,094	0,063
-134,629	170,621	-0,080	-0,083
-133,614	51,957	0,035	0,024
-132,599	-200,000	0,024	0,077
-131,585	800,000	-0,022	-0,063
-130,570	9,231	-0,079	0,043
-129,556	-200,000	-0,002	0,042
-128,541	800,000	-0,025	-0,054
-127,526	-200,000	-0,031	0,129
-126,512	-200,000	-0,030	0,101
-125,497	-114,290	0,052	-0,007
-124,483	-200,000	0,008	0,095
-123,468	-200,000	-0,027	0,111
-122,453	173,252	0,042	-0,043
-121,439	-172,014	0,107	0,002
-120,424	228,727	-0,073	-0,085
-119,410	-99,948	0,165	0,029
-118,395	196,184	0,142	0,156
-117,380	-200,000	-0,020	0,109
-116,366	-64,638	-0,111	0,032
-115,351	-54,117	0,102	0,033
-114,337	800,000	0,023	-0,057
-113,322	-151,674	0,064	0,003
-112,307	-76,386	0,058	-0,015
-111,293	552,857	0,023	0,040
-110,278	703,190	0,023	-0,045
-109,264	-200,000	-0,005	-0,084
-108,249	-200,000	0,005	-0,025
-107,234	525,397	0,038	-0,065
-106,220	320,703	0,066	-0,091
-105,205	-200,000	0,015	0,109
-104,191	-200,000	-0,000	-0,034
-103,176	96,900	0,062	-0,051
-102,162	134,468	-0,055	0,051
-101,147	-200,000	0,005	0,036
-100,132	-200,000	0,009	-0,110
-99,118	11,877	0,115	-0,063
-98,103	610,445	0,088	0,160
-97,089	-22,372	0,063	0,027
-96,074	-47,056	0,122	-0,042
-95,059	800,000	0,079	0,158
-94,045	-74,426	-0,129	-0,033
-93,030	-67,020	0,146	0,041
-92,016	-137,873	0,093	0,007
-91,001	-200,000	0,013	-0,102
-89,986	-104,372	0,100	-0,016
-88,972	265,527	0,124	0,156
-87,957	-200,000	-0,029	0,126
-86,943	-200,000	0,003	0,075
-85,928	17,713	0,086	-0,049
-84,913	800,000	0,042	-0,098
-83,899	-67,936	0,123	-0,034
-82,884	90,985	0,072	0,058
-81,870	-52,594	0,019	-0,006
-80,855	356,565	0,087	0,124
-79,840	768,810	-0,036	0,070
-78,826	-200,000	0,002	0,059
-77,811	-136,479	0,052	-0,004
-76,797	201,827	-0,066	-0,074
-75,782	800,000	-0,041	-0,127
-74,767	0,140	0,089	0,045
-73,753	-200,000	0,012	-0,114
-72,738	85,160	-0,146	0,115
-71,724	-26,431	0,141	-0,059
-70,709	-21,385	-0,138	0,060
-69,694	-103,060	0,068	-0,011
-68,680	-200,000	0,047	0,160
-67,665	-200,000	-0,021	0,094
-66,651	-71,691	0,052	0,014
-65,636	-200,000	-0,010	0,053
-64,622	51,586	-0,111	-0,075
-63,607	464,982	-0,037	-0,060
-62,592	9,758	-0,052	0,028
-61,578	75,535	-0,082	0,062
-60,563	459,307	0,021	0,034
-59,549	227,493	-0,055	-0,065
-58,534	67,419	-2,514	-1,840
-57,519	183,581	0,295	-0,314
-56,505	800,000	-1,665	-5,175
-55,490	615,636	1,077	1,947
-54,476	800,000	5,198	11,176
-53,461	-200,000	21,546	336,467
-52,446	800,000	761,921	2286,663
-51,432	508,950	1656,286	2773,187
-50,417	104,360	1621,471	1369,790
-49,403	74,874	1275,947	963,617
-48,388	25,814	1023,295	610,707
-47,373	19,125	989,069	568,127
-46,359	13,463	976,338	542,186
-45,344	9,484	972,823	527,129
-44,330	10,014	971,078	527,904
-43,315	8,942	969,152	523,319
-42,300	8,889	967,915	522,454
-41,286	8,881	966,782	521,795
-40,271	8,835	965,964	521,184
-39,257	8,887	964,831	520,723
-38,242	8,818	964,271	520,173
-37,227	8,826	963,452	519,738
-36,213	8,779	962,799	519,210
-35,198	8,822	961,846	518,818
-34,184	8,875	960,854	518,433
-33,169	8,820	960,135	517,845
-32,154	8,845	959,175	517,390
-31,140	8,822	958,203	516,771
-30,125	8,875	957,543	516,565
-29,111	8,828	956,740	515,960
-28,096	8,849	956,037	515,628
-27,082	8,842	955,585	515,341
-26,067	8,799	954,720	514,716
-25,052	8,807	953,961	514,310
-24,038	8,817	953,132	513,875
-23,023	8,734	952,574	513,287
-22,009	8,818	952,032	513,246
-20,994	8,806	951,317	512,800
-19,979	8,830	950,630	512,487
-18,965	8,827	949,970	512,100
-17,950	8,834	949,499	511,849
-16,936	8,817	948,663	511,324
-15,921	8,724	948,225	510,770
-14,906	8,732	947,380	510,319
-13,892	8,741	946,779	510,005
-12,877	8,721	945,952	509,475
-11,863	8,676	945,537	509,086
-10,848	8,720	944,967	508,901
-9,833	8,869	944,419	509,062
-8,819	8,748	943,664	508,247
-7,804	8,673	943,055	507,661
-6,790	8,704	942,477	507,429
-5,775	8,736	942,018	507,264
-4,760	8,814	941,310	507,108
-3,746	8,769	940,780	506,661
-2,731	8,605	939,963	505,679
-1,717	8,657	939,090	505,356
-0,702	8,603	938,649	504,927
0,313	8,429	938,112	504,848
1,327	11,831	935,846	514,353
2,342	20,615	784,676	454,418
3,356	15,947	451,898	254,596
4,371	-10,190	314,698	149,324
5,386	-13,584	297,264	137,580
6,400	-15,695	291,175	132,642
7,415	-16,453	288,421	130,626
8,429	-17,387	286,480	128,817
9,444	-17,321	285,622	128,485
10,459	-17,190	285,047	128,343
11,473	-17,395	284,267	127,780
12,488	-17,260	283,730	127,659
13,502	-17,416	283,184	127,251
14,517	-17,472	282,747	126,988
15,531	-17,662	282,338	126,609
16,546	-17,525	281,874	126,522
17,561	-17,598	281,571	126,305
18,575	-17,527	281,314	126,247
19,590	-17,674	280,868	125,894
20,604	-17,293	280,616	126,136
21,619	-17,478	280,200	125,760
22,634	-17,643	280,032	125,515
23,648	-17,674	279,576	125,270
24,663	-17,458	279,354	125,366
25,677	-17,516	279,062	125,169
26,692	-17,495	278,760	125,041
27,707	-17,477	278,368	124,871
28,721	-17,426	278,033	124,759
29,736	-17,533	278,081	124,667
30,750	-17,548	277,562	124,409
31,765	-17,614	277,469	124,294
32,780	-17,342	277,138	124,393
33,794	-17,557	277,027	124,128
34,809	-17,620	276,716	123,918
35,823	-17,669	276,188	123,625
36,838	-17,598	276,151	123,663
37,853	-17,545	275,844	123,565
38,867	-17,454	275,639	123,548
39,882	-17,603	275,397	123,289
40,896	-17,626	275,150	123,145
41,911	-17,467	274,995	123,214
42,926	-17,722	274,838	122,893
43,940	-17,447	274,267	122,885
44,955	-17,664	274,303	122,687
45,969	-17,606	274,038	122,611
46,984	-17,506	273,778	122,578
47,999	-17,469	273,641	122,540
49,013	-17,409	273,144	122,363
50,028	-17,528	273,237	122,283
51,042	-17,516	272,828	122,100
52,057	-17,365	272,598	122,126
53,071	-17,562	272,479	121,879
54,086	-17,752	272,301	121,612
55,101	-17,474	271,973	121,712
56,115	-17,603	271,858	121,530
57,130	-17,550	271,510	121,413
58,144	-17,503	271,343	121,371
59,159	-17,506	271,218	121,302
60,174	-17,610	270,801	121,008
61,188	-17,560	270,616	120,961
62,203	-17,621	270,375	120,786
63,217	-17,489	270,010	120,734
64,232	-17,463	269,922	120,707
65,247	-17,358	269,533	120,619
66,261	-17,476	269,440	120,459
67,276	-17,411	269,199	120,400
68,290	-17,557	268,900	120,122
69,305	-17,401	268,819	120,218
70,320	-17,425	268,509	120,047
71,334	-17,350	268,296	120,009
72,349	-17,503	268,050	119,749
73,363	-17,397	267,831	119,737
74,378	-17,403	267,575	119,606
75,393	-17,550	267,434	119,398
76,407	-17,362	267,197	119,453
77,422	-17,356	266,956	119,340
78,436	-17,351	266,805	119,267
79,451	-17,301	266,415	119,127
80,466	-17,520	266,283	118,859
81,480	-17,469	265,965	118,752
82,495	-17,445	265,754	118,669
83,509	-17,446	265,608	118,592
84,524	-17,433	265,346	118,477
85,539	-17,376	265,114	118,414
86,553	-17,334	264,951	118,368
87,568	-17,526	264,706	118,076
88,582	-17,637	264,577	117,908
89,597	-17,428	264,339	117,979
90,611	-17,453	264,098	117,838
91,626	-17,591	263,938	117,632
92,641	-17,438	263,880	117,733
93,655	-17,592	263,584	117,453
94,670	-17,520	263,270	117,367
95,684	-17,441	263,193	117,393
96,699	-17,572	262,840	117,108
97,714	-17,511	262,754	117,114
98,728	-17,353	262,650	117,198
99,743	-17,536	262,313	116,874
100,757	-17,510	262,065	116,776
101,772	-17,444	261,951	116,774
102,787	-17,486	261,537	116,541
103,801	-17,575	261,512	116,441
104,816	-17,220	261,301	116,652
105,830	-17,389	260,997	116,356
106,845	-17,376	260,833	116,284
107,860	-17,294	260,623	116,253
108,874	-17,345	260,421	116,107
109,889	-17,427	260,187	115,920
110,903	-17,415	260,078	115,872
111,918	-17,552	259,854	115,641
112,933	-17,465	259,733	115,653
113,947	-17,285	259,458	115,679
114,962	-17,404	259,155	115,429
115,976	-17,470	259,221	115,390
116,991	-17,277	258,840	115,380
118,006	-17,412	258,688	115,183
119,020	-17,410	258,518	115,099
120,035	-17,308	258,337	115,097
121,049	-17,279	258,174	115,039
122,064	-17,363	257,997	114,877
123,079	-17,610	257,859	114,589
124,093	-17,444	257,462	114,548
125,108	-17,303	257,380	114,624
126,122	-17,334	257,130	114,476
127,137	-17,496	257,012	114,272
128,151	-17,412	256,680	114,187
129,166	-17,269	256,511	114,226
130,181	-17,438	256,313	113,981
131,195	-17,402	256,026	113,874
132,210	-17,495	255,918	113,735
133,224	-17,468	255,809	113,700
134,239	-17,357	255,551	113,672
135,254	-17,291	255,323	113,617
136,268	-17,429	255,281	113,469
137,283	-17,354	254,953	113,378
138,297	-17,077	254,616	113,457
139,312	-17,170	254,553	113,338
140,327	-17,291	254,419	113,164
141,341	-17,262	254,164	113,066
142,356	-17,287	253,974	112,950
143,370	-17,194	253,694	112,896
144,385	-17,311	253,482	112,690
145,400	-17,161	253,355	112,752
146,414	-17,383	253,203	112,484
147,429	-17,352	253,146	112,475
148,443	-17,309	252,842	112,367
149,458	-17,245	252,658	112,330
150,473	-17,378	252,561	112,163
151,487	-17,360	252,215	112,015
152,502	-17,272	252,207	112,076
153,516	-17,297	251,886	111,902
154,531	-17,371	251,656	111,727
155,546	-17,242	251,681	111,838
156,560	-17,452	251,347	111,501
157,575	-17,106	251,108	111,680
158,589	-17,110	250,917	111,581
159,604	-17,286	250,759	111,351
160,619	-17,170	250,570	111,356
161,633	-17,348	250,477	111,154
162,648	-17,276	250,209	111,086
163,662	-17,241	250,001	111,014
164,677	-17,167	249,977	111,056
165,692	-17,139	249,813	110,996
166,706	-17,066	249,568	110,940
167,721	-17,176	249,345	110,738
168,735	-17,097	249,241	110,748
169,750	-17,365	249,219	110,503
170,764	-17,343	249,093	110,456
171,779	-17,235	248,749	110,384
172,794	-17,326	248,645	110,251
173,808	-17,287	248,425	110,176
174,823	-17,285	248,333	110,127
175,837	-17,266	248,071	110,017
176,852	-17,341	248,070	109,944
177,867	-17,252	247,787	109,884
178,881	-17,233	247,550	109,785
179,896	-17,337	247,492	109,662
180,910	-17,132	247,320	109,748
181,925	-17,174	246,963	109,544
182,940	-17,500	246,814	109,196
183,954	-17,193	246,730	109,405
184,969	-17,207	246,492	109,279
185,983	-17,469	246,380	109,001
186,998	-17,171	246,209	109,164
188,013	-17,346	245,899	108,871
189,027	-17,259	245,756	108,870
190,042	-17,240	245,619	108,816
191,056	-17,183	245,611	108,850
192,071	-17,372	245,366	108,575
193,086	-17,337	245,075	108,466
194,100	-16,961	244,862	108,672
195,115	-17,238	244,768	108,393
196,129	-17,100	244,398	108,332
197,144	-17,013	244,358	108,377
198,159	-17,099	244,131	108,196
199,173	-17,093	243,958	108,115
200,188	-17,047	243,756	108,053
201,202	-17,130	243,701	107,951
202,217	-16,991	243,348	107,899
203,232	-17,266	243,314	107,648
204,246	-17,157	243,076	107,622
205,261	-16,701	243,047	107,974
206,275	-15,030	243,547	109,558
207,290	-11,123	245,069	113,458
208,304	-5,780	246,739	118,654
209,319	-3,122	247,388	121,162
210,334	-2,538	247,529	121,704
211,348	-1,683	247,572	122,424
212,363	-1,372	247,472	122,621
213,377	-0,952	247,552	122,997
214,392	-0,291	247,618	123,568
215,407	0,094	247,616	123,874
216,421	0,209	247,311	123,806
217,436	0,263	247,313	123,840
218,450	0,015	247,148	123,542
219,465	0,284	247,045	123,702
220,480	0,339	246,968	123,697
221,494	0,427	246,679	123,614
222,509	0,246	246,262	123,245
223,523	-0,250	246,355	122,872
224,538	-0,238	246,069	122,729
225,553	-0,150	245,897	122,704
226,567	-0,118	245,658	122,600
227,582	-0,244	245,522	122,418
228,596	-0,352	245,285	122,200
229,611	0,007	245,212	122,447
230,626	-0,027	244,998	122,302
231,640	-0,061	244,802	122,165
232,655	-0,102	244,448	121,944
233,669	-0,118	244,593	121,992
234,684	-0,008	244,288	121,919
235,699	-0,041	244,177	121,826
236,713	-0,196	244,169	121,685
237,728	-0,180	243,957	121,581
238,742	-0,067	243,650	121,509
239,757	-0,148	243,421	121,318
240,772	-0,216	243,433	121,259
241,786	-0,197	243,320	121,207
242,801	-0,132	243,058	121,118
243,815	-0,016	242,874	121,110
244,830	-0,319	242,708	120,770
245,844	-0,263	242,556	120,730
246,859	-0,340	242,459	120,608
247,874	-0,110	242,303	120,706
248,888	-0,113	242,133	120,608
249,903	-0,309	242,010	120,378
250,917	-0,152	241,766	120,372
251,932	0,018	241,666	120,448
252,947	-0,139	241,624	120,291
253,961	0,097	241,397	120,357
254,976	-0,213	241,134	119,966
255,990	-0,142	241,066	119,978
257,005	-0,113	240,865	119,891
258,020	-0,051	240,768	119,881
259,034	-0,228	240,566	119,628
260,049	-0,022	240,486	119,742
261,063	-0,081	240,285	119,585
262,078	-0,097	239,975	119,407
263,093	-0,123	239,806	119,292
264,107	-0,011	239,892	119,414
265,122	0,211	239,557	119,413
266,136	-0,076	239,500	119,145
267,151	-0,004	239,301	119,093
268,166	-0,037	239,241	119,026
269,180	-0,068	239,047	118,895
270,195	-0,086	238,863	118,778
271,209	-0,182	238,715	118,618
272,224	-0,104	238,550	118,587
273,239	-0,182	238,394	118,437
274,253	-0,288	238,364	118,327
275,268	-0,150	237,935	118,213
276,282	-0,262	237,848	118,070
277,297	-0,060	237,712	118,152
278,312	0,015	237,602	118,146
279,326	-0,352	237,534	117,812
280,341	-0,115	237,354	117,899
281,355	-0,096	237,169	117,812
282,370	-0,091	236,998	117,721
283,384	-0,122	236,890	117,632
284,399	-0,090	236,806	117,605
285,414	-0,103	236,668	117,515
286,428	-0,017	236,459	117,469
287,443	0,043	236,220	117,387
288,457	0,199	236,128	117,453
289,472	0,130	235,923	117,286
290,487	0,087	235,746	117,154
291,501	0,020	235,638	117,038
292,516	-0,027	235,734	117,038
293,530	-0,264	235,563	116,757
294,545	0,176	235,154	116,888
295,560	-0,044	235,243	116,750
296,574	0,067	235,001	116,706
297,589	0,089	234,648	116,538
298,603	-0,022	234,603	116,418
299,618	0,036	234,482	116,393
300,633	0,095	234,317	116,347
301,647	0,022	234,361	116,301
302,662	0,085	234,168	116,244
303,676	0,203	233,952	116,218
304,691	0,155	233,811	116,100
305,706	0,307	233,509	116,058
306,720	0,284	233,480	116,015
307,735	0,069	233,415	115,806
308,749	0,118	233,248	115,751
309,764	0,247	233,103	115,769
310,779	0,148	232,944	115,603
311,793	0,257	232,650	115,530
312,808	0,261	232,576	115,487
313,822	0,149	232,430	115,318
314,837	0,264	232,337	115,349
315,852	0,258	232,112	115,223
316,866	0,345	231,978	115,214
317,881	0,237	231,823	115,043
318,895	0,276	231,696	115,000
319,910	0,349	231,368	114,882
320,925	0,276	231,452	114,858
321,939	0,202	231,316	114,723
322,954	0,285	231,164	114,702
323,968	0,382	231,045	114,706
324,983	0,260	230,911	114,537
325,997	0,417	230,617	114,500
327,012	0,365	230,487	114,386
328,027	0,151	230,443	114,191
329,041	0,199	230,295	114,143
330,056	0,242	230,067	114,053
331,070	0,438	229,927	114,123
332,085	0,398	229,822	114,030
333,100	0,225	229,698	113,827
334,114	0,362	229,407	113,777
335,129	0,426	229,210	113,717
336,143	0,260	229,131	113,542
337,158	0,272	229,011	113,481
338,173	0,348	228,864	113,456
339,187	0,313	228,849	113,412
340,202	0,348	228,714	113,361
341,216	0,322	228,474	113,213
342,231	0,382	228,249	113,136
343,246	0,314	228,282	113,091
344,260	0,428	228,022	113,038
345,275	0,281	228,022	112,918
346,289	0,145	227,954	112,771
347,304	0,516	227,706	112,917
348,319	0,775	227,389	112,945
349,333	0,372	227,399	112,637
350,348	0,501	227,128	112,590
351,362	0,524	227,151	112,608
352,377	0,450	226,955	112,446
353,392	0,595	226,825	112,480
354,406	0,561	226,566	112,316
355,421	193,242	1311,341	1380,857
356,435	154,873	1443,375	1380,716
