DTS Sentinel unit serial number:	SN410029Multiplexer serial number:	ORYXHardware model number:	OX2-SRSoftware version number:	ORYX F/W v4,00 Oryx Data Collector v3.7.2.0data status	okinstallation	B5 Nyhavnadifferential loss correction	single-endedforward channel	channel 2reverse channel	N/Adate	2023/12/14time	03:37:13forward acquisition time	300,00reverse acquisition time	0,00gamma	499,1914k internal	0,3156k external	0,3156temperature offset calibration	1,0000default loss term (dB/km)	0,3820temperature slope calibration	1,0000multiplexer offset coefficient	1,0000multiplexer slope coefficient	1,0000fibre end	0,00T internal ref (°C)	8,14T ext. ref 1 (°C)	-8,25T ext. ref 2 (°C)	-8,33length (m)	temperature (°C)	Stokes	anti-Stokes-744,400	504,274	0,026	-0,045
-743,385	-74,286	-0,246	-0,065
-742,371	-95,007	0,165	-0,033
-741,356	-99,767	-0,466	0,085
-740,342	-153,182	0,233	0,012
-739,327	-141,118	-0,305	0,023
-738,312	-51,974	0,078	0,027
-737,298	284,980	-0,243	-0,324
-736,283	-5,750	0,070	0,035
-735,269	-155,614	-0,306	0,014
-734,254	-69,287	0,130	0,037
-733,239	-74,064	-0,620	-0,165
-732,225	-10,707	0,291	0,141
-731,210	-200,000	0,012	0,111
-730,196	-16,018	0,113	-0,053
-729,181	798,545	-0,046	-0,093
-728,167	800,000	-0,060	-0,140
-727,152	209,557	-0,044	-0,051
-726,137	106,945	-0,039	-0,034
-725,123	-91,590	-0,126	-0,026
-724,108	332,539	0,036	-0,052
-723,094	590,751	-0,057	0,104
-722,079	183,581	-0,081	-0,088
-721,064	171,357	-0,078	-0,083
-720,050	196,405	0,068	-0,076
-719,035	727,005	0,014	0,029
-718,021	70,788	-0,077	-0,059
-717,006	-200,000	0,031	-0,113
-715,991	-200,000	-0,023	-0,203
-714,977	504,254	-0,045	-0,076
-713,962	-166,821	0,159	0,005
-712,948	-138,580	-0,033	-0,003
-711,933	-200,000	0,002	0,018
-710,918	238,389	-0,074	0,091
-709,904	254,184	-0,046	-0,058
-708,889	-200,000	0,022	-0,124
-707,875	5,280	-0,184	-0,100
-706,860	-200,000	0,017	0,114
-705,845	42,267	-0,065	-0,043
-704,831	48,592	0,049	0,034
-703,816	-200,000	-0,017	0,074
-702,802	131,469	-0,105	-0,099
-701,787	664,320	-0,031	0,059
-700,772	313,484	-0,077	-0,107
-699,758	0,655	0,071	-0,037
-698,743	-53,878	-0,140	0,047
-697,729	-84,603	0,085	0,020
-696,714	215,594	0,055	-0,064
-695,699	150,845	0,071	-0,072
-694,685	56,820	-0,098	0,070
-693,670	35,581	-0,112	-0,072
-692,656	269,197	-0,011	0,014
-691,641	109,779	0,085	0,075
-690,627	-200,000	-0,009	0,110
-689,612	108,098	-0,050	0,044
-688,597	-137,128	-0,183	0,015
-687,583	190,834	0,047	-0,052
-686,568	250,720	0,031	0,039
-685,554	605,319	-0,029	0,053
-684,539	-157,030	-0,122	0,005
-683,524	221,209	0,074	0,088
-682,510	595,659	-0,028	0,052
-681,495	81,181	0,077	0,061
-680,481	-117,259	-0,047	-0,006
-679,466	-200,000	0,020	-0,122
-678,451	-120,653	0,025	-0,003
-677,437	-200,000	-0,015	0,103
-676,422	-200,000	0,020	0,094
-675,408	145,049	0,122	0,120
-674,393	800,000	0,063	-0,149
-673,378	800,000	0,047	-0,138
-672,364	-200,000	0,009	-0,060
-671,349	-200,000	-0,003	-0,106
-670,335	-200,000	-0,014	-0,046
-669,320	-79,953	-0,090	-0,022
-668,305	161,547	-0,031	0,032
-667,291	800,000	-0,038	0,079
-666,276	511,059	-0,002	-0,004
-665,262	221,362	-0,160	-0,189
-664,247	-200,000	0,007	-0,033
-663,232	123,878	-0,054	0,050
-662,218	-6,419	0,107	-0,053
-661,203	-60,730	-0,013	-0,004
-660,189	-5,827	-0,051	-0,026
-659,174	171,692	-0,086	-0,091
-658,159	278,594	-0,047	-0,061
-657,145	119,768	-0,076	-0,070
-656,130	-200,000	-0,004	0,073
-655,116	65,008	0,064	-0,047
-654,101	76,432	0,014	-0,011
-653,086	378,375	-0,074	0,111
-652,072	-63,865	-0,169	0,051
-651,057	273,742	-0,053	-0,069
-650,043	214,470	-0,040	-0,047
-649,028	-200,000	-0,019	-0,078
-648,014	-200,000	0,023	-0,088
-646,999	-200,000	-0,001	-0,027
-645,984	800,000	-0,028	-0,077
-644,970	187,824	0,041	-0,045
-643,955	367,448	-0,123	-0,183
-642,941	131,020	-0,082	-0,077
-641,926	-200,000	-0,002	0,008
-640,911	-7,107	-0,130	-0,064
-639,897	-114,262	-0,060	0,008
-638,882	800,000	-0,031	-0,064
-637,868	527,205	-0,035	-0,060
-636,853	1,946	-0,233	-0,123
-635,838	-200,000	-0,003	0,050
-634,824	150,321	-0,037	-0,037
-633,809	654,491	0,036	0,068
-632,795	31,081	0,011	0,007
-631,780	536,365	0,035	-0,062
-630,765	19,937	-0,105	-0,062
-629,751	679,225	-0,071	-0,137
-628,736	503,839	-0,019	0,033
-627,722	-200,000	-0,009	-0,032
-626,707	-150,109	0,152	-0,009
-625,692	-200,000	-0,006	-0,044
-624,678	-200,000	-0,004	-0,027
-623,663	-8,089	-0,113	0,056
-622,649	26,826	0,069	0,043
-621,634	597,384	0,043	0,079
-620,619	176,641	-0,016	-0,017
-619,605	395,933	-0,019	0,029
-618,590	19,752	0,071	0,042
-617,576	-200,000	-0,013	0,073
-616,561	-91,971	-0,138	-0,028
-615,546	800,000	0,026	-0,057
-614,532	494,237	-0,068	-0,114
-613,517	-2,341	-0,077	-0,040
-612,503	-200,000	-0,013	-0,070
-611,488	-17,463	-0,023	0,011
-610,474	188,208	0,035	-0,039
-609,459	800,000	0,016	0,049
-608,444	2,522	-0,117	0,062
-607,430	444,759	-0,068	-0,110
-606,415	399,303	-0,013	0,019
-605,401	-200,000	-0,018	-0,113
-604,386	473,207	0,026	0,043
-603,371	193,883	0,067	0,074
-602,357	-186,056	0,039	0,000
-601,342	358,545	0,003	-0,005
-600,328	191,039	-0,121	-0,133
-599,313	800,000	0,019	0,060
-598,298	-60,219	-0,033	0,010
-597,284	-34,705	0,142	0,057
-596,269	30,608	-0,024	-0,015
-595,255	800,000	0,012	-0,030
-594,240	355,592	0,060	-0,087
-593,225	800,000	-0,033	0,084
-592,211	800,000	-0,044	-0,111
-591,196	27,028	-0,005	-0,003
-590,182	-200,000	0,031	-0,133
-589,167	800,000	-0,055	0,116
-588,152	-200,000	-0,019	-0,098
-587,138	165,625	0,092	0,096
-586,123	11,787	0,056	-0,031
-585,109	313,177	0,004	0,006
-584,094	-109,779	0,200	-0,030
-583,079	-127,951	0,063	-0,007
-582,065	415,851	0,028	-0,044
-581,050	-3,746	-0,062	0,032
-580,036	-37,885	-0,092	-0,036
-579,021	-164,600	-0,113	0,004
-578,006	282,367	-0,051	-0,067
-576,992	-62,838	0,173	-0,052
-575,977	-139,957	0,048	0,004
-574,963	299,039	0,086	0,116
-573,948	-200,000	-0,043	0,179
-572,934	134,413	-0,128	0,122
-571,919	800,000	-0,043	0,104
-570,904	800,000	-0,069	-0,146
-569,890	800,000	-0,012	-0,037
-568,875	84,919	-0,055	0,044
-567,861	-200,000	0,005	0,082
-566,846	800,000	0,028	0,076
-565,831	-200,000	0,014	0,073
-564,817	91,031	-0,021	-0,017
-563,802	800,000	-0,043	0,125
-562,788	208,143	0,047	-0,054
-561,773	-4,993	0,067	-0,033
-560,758	58,560	-0,081	0,058
-559,744	660,621	0,019	-0,037
-558,729	800,000	-0,031	-0,081
-557,715	800,000	0,040	0,083
-556,700	-200,000	-0,018	0,074
-555,685	641,429	-0,066	0,123
-554,671	-200,000	0,011	0,041
-553,656	-30,227	0,058	0,024
-552,642	254,167	-0,083	-0,105
-551,627	800,000	0,017	-0,041
-550,612	123,991	-0,083	-0,076
-549,598	87,698	0,016	-0,013
-548,583	-18,542	0,038	-0,017
-547,569	181,027	-0,103	-0,111
-546,554	-85,679	0,135	0,030
-545,539	-200,000	-0,028	-0,099
-544,525	-200,000	-0,000	-0,013
-543,510	800,000	-0,030	0,063
-542,496	-17,282	-0,059	0,027
-541,481	82,532	-0,092	0,073
-540,466	-61,660	-0,032	-0,010
-539,452	158,987	0,119	0,121
-538,437	-24,071	0,087	0,038
-537,423	157,930	-0,049	0,050
-536,408	-21,955	0,158	-0,070
-535,393	800,000	-0,073	-0,152
-534,379	184,102	0,015	0,016
-533,364	-64,939	-0,087	0,026
-532,350	289,033	0,041	-0,054
-531,335	156,899	0,142	0,144
-530,321	800,000	-0,045	0,123
-529,306	-27,625	-0,044	-0,019
-528,291	60,071	-0,065	0,047
-527,277	800,000	-0,008	0,021
-526,262	-200,000	0,033	0,171
-525,248	-200,000	0,005	0,061
-524,233	-200,000	-0,011	-0,071
-523,218	364,122	-0,053	0,079
-522,204	-31,553	-0,113	-0,046
-521,189	-200,000	-0,008	0,047
-520,175	-101,604	-0,068	-0,012
-519,160	10,255	0,107	0,059
-518,145	212,434	-0,030	0,035
-517,131	800,000	-0,030	0,075
-516,116	648,613	0,037	0,069
-515,102	-17,676	0,080	-0,036
-514,087	-123,584	-0,110	-0,013
-513,072	579,021	0,026	-0,047
-512,058	800,000	0,051	-0,132
-511,043	-88,136	-0,140	0,030
-510,029	479,308	-0,088	0,146
-509,014	5,831	0,093	0,050
-507,999	-200,000	-0,015	-0,104
-506,985	41,924	-0,062	-0,041
-505,970	800,000	-0,021	-0,044
-504,956	-200,000	0,015	-0,157
-503,941	-75,262	-0,116	-0,030
-502,926	-200,000	0,017	0,128
-501,912	-200,000	0,024	0,131
-500,897	-34,338	-0,038	-0,015
-499,883	800,000	-0,043	0,106
-498,868	210,663	-0,040	0,046
-497,853	-92,044	-0,038	-0,008
-496,839	-143,641	0,055	0,004
-495,824	38,673	0,120	0,078
-494,810	-68,112	-0,073	0,021
-493,795	-3,388	0,080	0,041
-492,781	-200,000	0,014	-0,092
-491,766	-23,385	-0,130	-0,057
-490,751	-17,861	-0,048	0,022
-489,737	-152,672	0,046	0,002
-488,722	-200,000	0,002	-0,086
-487,708	800,000	-0,050	0,143
-486,693	131,179	0,014	0,014
-485,678	800,000	-0,039	0,097
-484,664	114,631	-0,088	-0,078
-483,649	-22,074	-0,098	0,043
-482,635	-200,000	0,002	0,090
-481,620	-0,712	-0,049	-0,025
-480,605	-200,000	-0,015	0,058
-479,591	-200,000	0,054	0,211
-478,576	80,295	-0,052	-0,041
-477,562	-24,971	0,067	0,029
-476,547	-82,395	-0,096	0,023
-475,532	-200,000	0,001	-0,049
-474,518	800,000	0,048	0,101
-473,503	-200,000	0,016	-0,097
-472,489	605,642	0,042	-0,077
-471,474	102,455	-0,088	0,075
-470,459	102,196	-0,065	0,056
-469,445	559,437	-0,070	-0,124
-468,430	192,317	0,095	-0,105
-467,416	46,256	0,087	0,059
-466,401	-200,000	0,018	-0,063
-465,386	-200,000	0,003	0,028
-464,372	-200,000	-0,023	-0,113
-463,357	-200,000	-0,010	-0,076
-462,343	-13,092	-0,087	0,041
-461,328	-14,799	0,100	-0,046
-460,313	185,926	0,074	0,080
-459,299	-8,910	0,061	0,030
-458,284	-200,000	0,001	0,054
-457,270	-200,000	0,052	0,176
-456,255	800,000	0,013	-0,037
-455,241	122,647	0,135	-0,123
-454,226	9,184	0,056	-0,031
-453,211	-45,810	0,051	-0,018
-452,197	-2,180	0,044	-0,022
-451,182	-28,270	0,090	-0,038
-450,168	50,205	-0,066	0,045
-449,153	-200,000	0,001	0,078
-448,138	-200,000	-0,008	-0,048
-447,124	-200,000	-0,003	0,064
-446,109	518,597	0,014	0,024
-445,095	-200,000	0,008	0,048
-444,080	-200,000	0,019	0,071
-443,065	218,143	0,066	0,076
-442,051	26,282	-0,146	-0,088
-441,036	454,092	0,051	0,082
-440,022	-96,997	-0,054	0,010
-439,007	64,332	-0,041	-0,030
-437,992	137,653	0,075	0,071
-436,978	-76,052	-0,079	0,020
-435,963	-200,000	0,040	-0,176
-434,949	-200,000	-0,013	-0,123
-433,934	166,134	0,045	0,046
-432,919	148,880	-0,042	-0,041
-431,905	-129,257	0,102	-0,010
-430,890	-200,000	-0,016	0,072
-429,876	224,707	-0,065	0,077
-428,861	-187,916	0,024	-0,000
-427,846	-117,442	-0,119	0,016
-426,832	-126,469	0,170	0,018
-425,817	-200,000	0,003	0,064
-424,803	473,460	-0,025	-0,042
-423,788	-165,618	-0,070	-0,002
-422,773	-132,319	0,144	0,013
-421,759	-77,546	-0,052	0,013
-420,744	800,000	-0,037	0,098
-419,730	-200,000	-0,023	-0,123
-418,715	800,000	0,047	0,136
-417,701	-200,000	-0,005	0,045
-416,686	-85,392	0,075	-0,017
-415,671	634,347	0,044	0,082
-414,657	120,845	-0,065	-0,059
-413,642	338,327	-0,060	0,085
-412,628	-187,012	0,088	0,001
-411,613	-200,000	0,043	-0,143
-410,598	800,000	0,036	-0,114
-409,584	637,665	0,083	0,155
-408,569	-200,000	-0,014	0,057
-407,555	-200,000	0,007	0,134
-406,540	-95,141	0,192	-0,037
-405,525	38,024	-0,055	-0,036
-404,511	45,943	-0,193	-0,130
-403,496	36,416	0,107	0,069
-402,482	-102,353	0,152	-0,026
-401,467	-200,000	-0,013	-0,048
-400,452	-200,000	-0,002	0,056
-399,438	33,988	0,022	-0,014
-398,423	10,356	-0,043	0,024
-397,409	213,617	0,063	0,072
-396,394	-200,000	-0,005	-0,135
-395,379	27,901	-0,193	0,118
-394,365	-49,349	0,052	-0,018
-393,350	19,362	-0,093	-0,054
-392,336	111,747	0,060	-0,053
-391,321	800,000	-0,040	-0,119
-390,306	313,324	-0,086	-0,118
-389,292	-200,000	-0,014	-0,072
-388,277	-42,409	-0,066	0,024
-387,263	-131,386	-0,004	0,000
-386,248	800,000	-0,021	0,046
-385,233	30,075	-0,059	0,036
-384,219	164,093	0,078	0,080
-383,204	-200,000	-0,037	-0,132
-382,190	71,344	-0,046	-0,035
-381,175	-153,044	0,140	-0,007
-380,160	-71,628	0,025	-0,007
-379,146	137,525	0,060	0,057
-378,131	800,000	0,013	-0,032
-377,117	327,877	0,019	0,026
-376,102	-112,380	0,093	-0,013
-375,088	-37,514	0,067	0,026
-374,073	30,272	-0,077	0,048
-373,058	-81,995	0,160	-0,038
-372,044	149,070	0,080	0,078
-371,029	800,000	0,049	0,148
-370,015	50,703	-0,072	-0,050
-369,000	518,031	-0,031	-0,053
-367,985	-200,000	0,007	-0,071
-366,971	370,222	0,026	-0,038
-365,956	-87,331	-0,042	-0,009
-364,942	-147,105	0,165	-0,010
-363,927	-1,753	-0,041	0,021
-362,912	409,695	-0,042	0,065
-361,898	-44,905	0,035	-0,013
-360,883	507,550	-0,099	-0,168
-359,869	800,000	0,011	0,027
-358,854	-120,137	0,034	-0,004
-357,839	-130,073	0,104	-0,010
-356,825	245,721	-0,025	0,031
-355,810	665,125	-0,061	0,114
-354,796	19,261	0,171	0,100
-353,781	34,373	-0,052	0,033
-352,766	800,000	0,043	0,110
-351,752	151,747	-0,039	-0,039
-350,737	13,997	0,155	0,087
-349,723	-114,333	-0,087	-0,012
-348,708	-77,664	0,054	0,013
-347,693	205,524	-0,109	-0,123
-346,679	-127,552	-0,182	0,019
-345,664	418,801	0,063	-0,099
-344,650	-200,000	-0,009	-0,127
-343,635	-83,544	0,063	0,015
-342,620	25,202	-0,187	0,113
-341,606	567,655	0,056	0,100
-340,591	-166,442	-0,032	0,001
-339,577	-128,474	0,108	-0,011
-338,562	-1,313	-0,046	-0,024
-337,548	-76,561	-0,005	0,001
-336,533	62,768	0,177	0,128
-335,518	-200,000	-0,008	-0,100
-334,504	-200,000	0,012	0,075
-333,489	351,467	0,045	-0,065
-332,475	-16,475	-0,043	0,020
-331,460	617,184	-0,035	0,065
-330,445	134,520	0,041	-0,038
-329,431	-12,604	0,149	-0,070
-328,416	259,891	-0,052	-0,065
-327,402	800,000	0,053	-0,113
-326,387	271,238	0,033	0,042
-325,372	-173,759	-0,097	0,002
-324,358	202,097	0,053	-0,059
-323,343	35,777	0,046	-0,029
-322,329	-88,888	0,079	-0,017
-321,314	262,589	0,070	0,088
-320,299	351,103	-0,055	0,079
-319,285	248,565	-0,111	0,137
-318,270	-200,000	-0,021	0,078
-317,256	-44,812	-0,127	-0,046
-316,241	800,000	0,028	-0,076
-315,226	-86,971	0,101	-0,022
-314,212	-200,000	-0,017	-0,062
-313,197	800,000	-0,032	0,083
-312,183	-200,000	-0,014	0,056
-311,168	-116,173	-0,143	0,019
-310,153	18,639	0,137	-0,079
-309,139	-200,000	-0,021	0,101
-308,124	269,249	0,073	0,093
-307,110	-82,223	-0,009	-0,002
-306,095	800,000	-0,034	0,076
-305,080	48,900	0,052	0,035
-304,066	-84,153	-0,115	0,026
-303,051	-17,887	0,096	0,044
-302,037	326,605	0,107	-0,149
-301,022	137,681	-0,048	0,046
-300,008	800,000	-0,025	-0,072
-298,993	800,000	-0,016	-0,043
-297,978	53,343	-0,176	-0,122
-296,964	65,376	-0,079	-0,058
-295,949	-200,000	0,016	0,066
-294,935	-133,996	-0,061	0,005
-293,920	800,000	-0,006	-0,013
-292,905	-70,852	-0,138	0,038
-291,891	-200,000	-0,015	0,080
-290,876	449,929	0,019	0,030
-289,862	270,175	-0,120	0,153
-288,847	-200,000	0,012	-0,124
-287,832	68,246	-0,108	-0,080
-286,818	546,238	0,020	-0,034
-285,803	511,295	-0,036	-0,062
-284,789	52,660	0,106	0,073
-283,774	-200,000	0,021	0,097
-282,759	-27,434	0,029	-0,012
-281,745	-107,571	-0,099	-0,016
-280,730	-143,523	0,116	-0,008
-279,716	250,866	0,044	-0,055
-278,701	-65,545	-0,046	-0,013
-277,686	800,000	-0,021	0,062
-276,672	304,224	-0,058	0,078
-275,657	-8,321	0,190	-0,092
-274,643	-104,483	-0,173	0,029
-273,628	689,670	-0,057	-0,109
-272,613	-200,000	0,002	-0,025
-271,599	338,102	0,060	0,085
-270,584	800,000	0,086	0,178
-269,570	4,470	-0,052	-0,028
-268,555	-124,709	0,114	-0,013
-267,540	485,278	-0,036	-0,059
-266,526	-35,494	-0,064	0,025
-265,511	-13,122	-0,126	-0,059
-264,497	-28,523	0,102	-0,042
-263,482	800,000	0,042	-0,132
-262,467	425,389	0,004	0,007
-261,453	-90,625	0,017	0,004
-260,438	-200,000	-0,003	-0,077
-259,424	126,336	0,157	-0,144
-258,409	113,538	0,138	-0,121
-257,395	-96,008	-0,021	-0,004
-256,380	121,868	0,070	-0,063
-255,365	-44,828	0,045	0,016
-254,351	-12,948	-0,092	-0,043
-253,336	16,057	0,097	-0,055
-252,322	409,463	-0,040	0,061
-251,307	156,950	0,075	0,075
-250,292	-97,696	-0,174	-0,032
-249,278	-122,599	0,138	0,016
-248,263	790,798	0,018	0,036
-247,249	-200,000	-0,011	-0,061
-246,234	-101,644	-0,123	0,021
-245,219	271,380	0,009	-0,012
-244,205	28,687	0,111	-0,068
-243,190	-200,000	0,002	-0,073
-242,176	-200,000	-0,023	0,174
-241,161	158,012	-0,039	-0,040
-240,146	59,278	-0,049	0,035
-239,132	-200,000	-0,009	0,095
-238,117	22,563	-0,016	-0,009
-237,103	800,000	-0,025	-0,051
-236,088	70,439	0,034	0,026
-235,073	-200,000	0,033	0,125
-234,059	67,949	-0,066	-0,049
-233,044	114,666	-0,057	-0,050
-232,030	-200,000	0,027	-0,106
-231,015	122,939	-0,032	-0,029
-230,000	17,868	-0,082	-0,047
-228,986	143,527	0,078	0,075
-227,971	-72,895	0,113	0,030
-226,957	522,396	-0,015	-0,026
-225,942	-93,027	-0,037	0,007
-224,927	119,457	0,063	0,056
-223,913	-32,648	0,035	-0,014
-222,898	-200,000	0,007	-0,075
-221,884	-7,391	-0,064	0,031
-220,869	352,892	0,072	0,103
-219,855	-200,000	0,003	0,074
-218,840	184,471	-0,090	0,096
-217,825	800,000	-0,042	-0,092
-216,811	-91,064	-0,113	-0,023
-215,796	212,858	-0,106	-0,121
-214,782	800,000	-0,036	0,105
-213,767	444,440	0,067	-0,106
-212,752	-200,000	0,003	-0,018
-211,738	800,000	-0,022	-0,071
-210,723	-21,718	0,179	-0,078
-209,709	289,870	-0,081	-0,106
-208,694	-26,747	0,142	-0,060
-207,679	102,829	-0,114	-0,096
-206,665	352,499	0,082	0,118
-205,650	-200,000	-0,003	-0,054
-204,636	142,130	-0,062	-0,059
-203,621	-200,000	0,032	-0,124
-202,606	800,000	0,062	-0,142
-201,592	800,000	-0,032	-0,096
-200,577	-200,000	0,003	-0,022
-199,563	471,969	-0,026	0,042
-198,548	233,508	0,058	0,069
-197,533	-125,339	0,104	-0,011
-196,519	-200,000	0,004	0,023
-195,504	10,281	-0,143	-0,078
-194,490	705,449	-0,049	-0,093
-193,475	545,167	0,028	0,048
-192,460	26,058	0,114	0,068
-191,446	-200,000	0,002	0,173
-190,431	105,905	-0,026	0,022
-189,417	-144,812	0,124	-0,008
-188,402	525,828	-0,027	0,046
-187,387	-200,000	0,026	-0,175
-186,373	-200,000	0,001	0,032
-185,358	768,889	0,018	0,035
-184,344	-200,000	0,017	-0,073
-183,329	59,362	-0,060	0,042
-182,315	-200,000	-0,002	0,100
-181,300	603,734	0,041	-0,075
-180,285	111,593	0,135	0,118
-179,271	29,629	0,100	0,061
-178,256	-200,000	-0,017	0,146
-177,242	116,492	-0,141	-0,125
-176,227	-86,634	0,056	0,012
-175,212	440,966	0,043	0,069
-174,198	800,000	-0,059	-0,169
-173,183	-200,000	-0,000	0,002
-172,169	-7,615	-0,032	0,016
-171,154	800,000	0,012	-0,030
-170,139	-200,000	-0,023	0,142
-169,125	800,000	0,016	0,047
-168,110	279,693	0,098	-0,126
-167,096	800,000	0,071	0,188
-166,081	14,449	-0,197	-0,110
-165,066	383,881	-0,079	-0,117
-164,052	95,480	-0,046	0,038
-163,037	-81,171	0,103	-0,024
-162,023	-157,638	0,080	-0,003
-161,008	-200,000	-0,035	0,157
-159,993	571,412	-0,028	0,050
-158,979	227,784	0,018	-0,021
-157,964	800,000	0,011	0,029
-156,950	800,000	-0,031	0,066
-155,935	-44,347	0,125	-0,045
-154,920	-12,440	0,146	0,069
-153,906	800,000	0,058	0,141
-152,891	456,038	0,092	-0,148
-151,877	264,870	-0,089	-0,112
-150,862	800,000	0,026	-0,077
-149,847	-12,905	0,061	-0,028
-148,833	-20,289	0,037	0,016
-147,818	470,864	-0,065	0,106
-146,804	-58,994	0,058	0,018
-145,789	800,000	0,005	-0,012
-144,775	26,155	-0,059	0,035
-143,760	91,458	-0,059	0,048
-142,745	7,221	0,060	0,032
-141,731	297,706	-0,076	0,101
-140,716	-188,161	0,085	-0,001
-139,702	426,500	0,032	0,049
-138,687	800,000	-0,025	-0,060
-137,672	142,172	0,062	0,060
-136,658	-200,000	0,028	-0,194
-135,643	800,000	-0,055	-0,158
-134,629	90,151	-0,028	-0,023
-133,614	-18,515	0,049	0,022
-132,599	-200,000	0,026	0,208
-131,585	-32,489	-0,045	-0,018
-130,570	775,398	0,014	-0,028
-129,556	-200,000	0,025	0,092
-128,541	-200,000	-0,000	-0,028
-127,526	98,235	0,096	-0,080
-126,512	-137,595	-0,061	0,005
-125,497	-21,258	-0,110	-0,048
-124,483	519,178	0,051	0,087
-123,468	-200,000	0,010	-0,133
-122,453	551,095	0,035	-0,060
-121,439	-200,000	0,031	-0,105
-120,424	-36,064	-0,010	0,004
-119,410	-149,358	0,128	0,007
-118,395	-200,000	0,008	0,093
-117,380	5,342	0,034	0,018
-116,366	-179,211	0,180	-0,003
-115,351	210,219	-0,037	0,042
-114,337	104,702	-0,029	0,025
-113,322	-200,000	-0,000	0,036
-112,307	175,139	0,083	-0,086
-111,293	680,734	0,051	0,096
-110,278	-12,666	0,109	0,051
-109,264	-200,000	0,015	-0,125
-108,249	-200,000	0,006	-0,097
-107,234	800,000	0,056	-0,126
-106,220	18,401	0,083	-0,048
-105,205	332,997	-0,078	-0,109
-104,191	-200,000	0,006	-0,043
-103,176	280,488	0,045	0,058
-102,162	-139,524	0,047	-0,004
-101,147	800,000	0,045	-0,091
-100,132	106,842	-0,068	-0,058
-99,118	-141,221	-0,089	0,006
-98,103	-2,831	0,020	-0,010
-97,089	310,940	0,033	-0,045
-96,074	800,000	-0,040	-0,094
-95,059	-200,000	0,011	0,106
-94,045	-4,771	-0,061	-0,030
-93,030	190,100	-0,099	-0,107
-92,016	14,614	-0,145	-0,081
-91,001	-200,000	-0,008	-0,065
-89,986	-103,104	0,107	-0,018
-88,972	403,085	0,031	-0,048
-87,957	-75,294	0,054	-0,014
-86,943	298,744	-0,077	-0,102
-85,928	2,058	0,066	0,034
-84,913	-200,000	0,009	-0,069
-83,899	-64,095	-0,051	0,015
-82,884	800,000	-0,018	0,039
-81,870	-58,566	-0,050	-0,015
-80,855	339,303	-0,038	0,053
-79,840	340,930	-0,050	0,071
-78,826	478,695	0,012	-0,019
-77,811	-200,000	0,009	-0,053
-76,797	22,255	-0,046	-0,027
-75,782	-200,000	0,016	0,071
-74,767	-200,000	0,021	0,117
-73,753	103,116	-0,042	-0,035
-72,738	425,399	-0,048	0,074
-71,724	307,909	-0,050	0,067
-70,709	800,000	0,018	-0,042
-69,694	-189,339	0,039	0,000
-68,680	-85,833	-0,083	0,018
-67,665	-82,823	0,109	0,025
-66,651	146,951	-0,078	0,076
-65,636	-66,392	0,085	0,024
-64,622	5,375	-0,187	-0,099
-63,607	-200,000	-0,001	-0,021
-62,592	-84,413	-0,085	0,019
-61,578	268,098	-0,071	0,090
-60,563	437,789	-0,046	0,072
-59,549	164,299	-0,145	0,147
-58,534	107,896	-2,549	-2,181
-57,519	73,010	0,443	-0,332
-56,505	800,000	-1,772	-5,411
-55,490	658,623	1,088	2,018
-54,476	800,000	5,268	11,401
-53,461	-200,000	22,133	347,248
-52,446	800,000	759,181	2301,821
-51,432	517,085	1644,987	2772,870
-50,417	98,386	1609,273	1331,098
-49,403	66,240	1266,273	922,195
-48,388	23,467	1017,535	599,394
-47,373	19,390	984,976	566,743
-46,359	13,079	971,837	538,514
-45,344	8,821	968,774	522,841
-44,330	9,242	966,584	523,019
-43,315	8,313	964,842	519,019
-42,300	8,200	963,884	518,111
-41,286	8,178	962,744	517,406
-40,271	8,183	961,745	516,866
-39,257	8,147	960,956	516,305
-38,242	8,175	959,904	515,811
-37,227	8,141	959,320	515,364
-36,213	8,184	958,328	514,951
-35,198	8,127	957,658	514,384
-34,184	8,223	956,593	514,105
-33,169	8,167	955,739	513,444
-32,154	8,219	955,012	513,200
-31,140	8,221	954,034	512,661
-30,125	8,235	953,237	512,258
-29,111	8,201	952,499	511,732
-28,096	8,224	951,944	511,487
-27,082	8,252	951,190	511,152
-26,067	8,178	950,574	510,564
-25,052	8,172	949,565	509,980
-24,038	8,138	948,899	509,493
-23,023	8,131	948,341	509,153
-22,009	8,186	947,717	508,971
-20,994	8,180	947,072	508,587
-19,979	8,209	946,292	508,242
-18,965	8,131	945,889	507,754
-17,950	8,162	945,259	507,494
-16,936	8,123	944,743	507,073
-15,921	8,149	943,823	506,642
-14,906	8,076	943,267	506,091
-13,892	8,084	942,708	505,797
-12,877	8,076	941,988	505,365
-11,863	7,995	941,321	504,729
-10,848	8,082	940,718	504,664
-9,833	8,131	940,307	504,578
-8,819	8,072	939,513	503,945
-7,804	8,079	939,057	503,701
-6,790	8,016	938,454	503,158
-5,775	8,041	937,856	502,898
-4,760	8,109	937,256	502,770
-3,746	8,063	936,651	502,280
-2,731	7,897	936,089	501,432
-1,717	7,923	935,315	501,080
-0,702	7,946	934,644	500,775
0,313	7,772	933,940	500,602
1,327	11,215	931,486	510,102
2,342	19,898	779,998	449,909
3,356	14,906	448,034	250,889
4,371	-11,711	312,575	146,710
5,386	-15,306	294,872	134,754
6,400	-17,510	288,933	129,843
7,415	-17,547	286,407	128,659
8,429	-17,997	284,486	127,346
9,444	-18,130	283,619	126,818
10,459	-18,065	283,204	126,684
11,473	-18,102	282,560	126,348
12,488	-18,106	282,037	126,099
13,502	-18,192	281,485	125,759
14,517	-18,052	281,192	125,751
15,531	-17,899	280,653	125,646
16,546	-17,853	280,204	125,478
17,561	-17,822	279,897	125,359
18,575	-17,802	279,672	125,266
19,590	-17,770	279,231	125,088
20,604	-17,709	278,894	124,984
21,619	-17,924	278,524	124,602
22,634	-17,826	278,347	124,606
23,648	-17,936	277,897	124,288
24,663	-17,997	277,740	124,149
25,677	-17,916	277,452	124,086
26,692	-17,656	277,191	124,205
27,707	-17,810	276,680	123,819
28,721	-17,800	276,737	123,843
29,736	-17,654	276,194	123,728
30,750	-17,862	276,096	123,475
31,765	-17,854	275,723	123,306
32,780	-17,743	275,526	123,311
33,794	-17,887	275,333	123,078
34,809	-17,637	274,914	123,115
35,823	-17,691	274,764	122,986
36,838	-17,666	274,509	122,885
37,853	-17,675	274,255	122,751
38,867	-17,825	274,062	122,513
39,882	-17,738	273,792	122,463
40,896	-17,844	273,696	122,310
41,911	-17,773	273,276	122,178
42,926	-17,601	273,135	122,264
43,940	-17,837	272,978	121,962
44,955	-17,814	272,624	121,815
45,969	-17,804	272,269	121,655
46,984	-17,802	272,478	121,740
47,999	-17,755	272,000	121,559
49,013	-17,596	271,984	121,688
50,028	-17,471	271,494	121,574
51,042	-17,526	271,249	121,403
52,057	-17,694	271,190	121,210
53,071	-17,332	270,803	121,361
54,086	-17,538	270,637	121,086
55,101	-17,752	270,460	120,798
56,115	-17,672	270,163	120,729
57,130	-17,693	269,910	120,585
58,144	-17,723	269,616	120,415
59,159	-17,738	269,423	120,304
60,174	-17,673	269,113	120,215
61,188	-17,771	269,012	120,069
62,203	-17,699	268,663	119,969
63,217	-17,739	268,495	119,846
64,232	-17,720	268,266	119,751
65,247	-17,662	267,897	119,629
66,261	-17,771	267,750	119,452
67,276	-17,844	267,613	119,315
68,290	-17,497	267,222	119,446
69,305	-17,715	267,252	119,250
70,320	-17,660	266,968	119,163
71,334	-17,624	266,602	119,022
72,349	-17,746	266,448	118,831
73,363	-17,747	266,189	118,704
74,378	-17,643	265,856	118,639
75,393	-17,710	265,727	118,510
76,407	-17,675	265,632	118,489
77,422	-17,620	265,311	118,385
78,436	-17,789	265,075	118,117
79,451	-17,742	264,904	118,072
80,466	-17,705	264,527	117,928
81,480	-17,736	264,374	117,820
82,495	-17,602	264,192	117,849
83,509	-17,539	264,040	117,828
84,524	-17,730	263,897	117,581
85,539	-17,553	263,460	117,535
86,553	-17,508	263,389	117,534
87,568	-17,608	263,121	117,314
88,582	-17,752	262,915	117,083
89,597	-17,580	262,730	117,143
90,611	-17,593	262,453	116,998
91,626	-17,870	262,422	116,726
92,641	-17,596	262,200	116,862
93,655	-17,589	261,973	116,757
94,670	-17,644	261,731	116,589
95,684	-17,626	261,449	116,469
96,699	-17,804	261,338	116,251
97,714	-17,823	261,244	116,182
98,728	-17,516	260,917	116,299
99,743	-17,666	260,867	116,133
100,757	-17,532	260,364	116,017
101,772	-17,664	260,290	115,857
102,787	-17,648	259,949	115,710
103,801	-17,620	259,934	115,717
104,816	-17,872	259,776	115,414
105,830	-17,884	259,482	115,262
106,845	-17,705	259,112	115,246
107,860	-17,675	258,975	115,200
108,874	-17,835	258,849	114,993
109,889	-17,725	258,626	114,981
110,903	-17,794	258,522	114,864
111,918	-17,892	258,262	114,651
112,933	-17,801	258,062	114,632
113,947	-17,621	257,975	114,742
114,962	-17,569	257,742	114,673
115,976	-17,564	257,384	114,509
116,991	-17,701	257,248	114,318
118,006	-17,603	256,969	114,269
119,020	-17,536	256,819	114,250
120,035	-17,591	256,669	114,126
121,049	-17,450	256,424	114,130
122,064	-17,572	256,274	113,946
123,079	-17,743	256,212	113,760
124,093	-17,406	256,021	113,958
125,108	-17,600	255,740	113,654
126,122	-17,686	255,644	113,527
127,137	-17,385	255,508	113,718
128,151	-17,529	255,205	113,448
129,166	-17,579	254,908	113,262
130,181	-17,469	254,807	113,302
131,195	-17,547	254,508	113,092
132,210	-17,646	254,388	112,942
133,224	-17,702	254,181	112,792
134,239	-17,538	253,875	112,788
135,254	-17,694	253,725	112,577
136,268	-17,638	253,376	112,460
137,283	-17,579	253,395	112,509
138,297	-17,663	253,203	112,342
139,312	-17,634	252,906	112,225
140,327	-17,580	252,769	112,201
141,341	-17,528	252,469	112,102
142,356	-17,909	252,418	111,743
143,370	-17,536	251,990	111,863
144,385	-17,596	251,942	111,779
145,400	-17,493	251,649	111,728
146,414	-17,634	251,618	111,584
147,429	-17,694	251,369	111,413
148,443	-17,596	251,198	111,411
149,458	-17,636	251,025	111,290
150,473	-17,662	250,872	111,190
151,487	-17,651	250,586	111,063
152,502	-17,645	250,444	110,994
153,516	-17,565	250,281	110,980
154,531	-17,511	249,907	110,850
155,546	-17,634	249,850	110,711
156,560	-17,504	249,740	110,762
157,575	-17,689	249,486	110,483
158,589	-17,585	249,246	110,455
159,604	-17,431	249,020	110,475
160,619	-17,328	248,805	110,457
161,633	-17,657	248,812	110,173
162,648	-17,491	248,573	110,196
163,662	-17,634	248,438	110,006
164,677	-17,652	248,182	109,869
165,692	-17,525	248,151	109,952
166,706	-17,563	248,097	109,886
167,721	-17,440	247,708	109,807
168,735	-17,709	247,627	109,536
169,750	-17,736	247,311	109,364
170,764	-17,645	247,396	109,467
171,779	-17,622	247,115	109,353
172,794	-17,540	246,929	109,329
173,808	-17,401	246,620	109,298
174,823	-17,558	246,568	109,135
175,837	-17,359	246,355	109,196
176,852	-17,686	246,154	108,825
177,867	-17,644	246,120	108,836
178,881	-17,494	245,759	108,791
179,896	-17,552	245,688	108,702
180,910	-17,513	245,404	108,599
181,925	-17,845	245,332	108,282
182,940	-17,545	245,201	108,463
183,954	-17,631	245,017	108,301
184,969	-17,522	244,755	108,266
185,983	-17,451	244,548	108,223
186,998	-17,445	244,571	108,228
188,013	-17,489	244,122	107,984
189,027	-17,429	243,920	107,935
190,042	-17,642	243,985	107,778
191,056	-17,742	243,736	107,576
192,071	-17,670	243,553	107,545
193,086	-17,654	243,313	107,442
194,100	-17,641	243,247	107,415
195,115	-17,777	243,078	107,219
196,129	-17,674	242,849	107,192
197,144	-17,706	242,520	107,011
198,159	-17,859	242,469	106,854
199,173	-17,494	242,265	107,053
200,188	-17,782	241,993	106,688
201,202	-17,592	241,908	106,797
202,217	-17,323	241,761	106,942
203,232	-17,405	241,654	106,818
204,246	-17,779	241,377	106,381
205,261	-18,023	241,090	106,046
206,275	-16,470	241,517	107,490
207,290	-11,746	243,301	112,148
208,304	-5,432	245,263	118,249
209,319	-2,300	246,069	121,213
210,334	-1,354	246,216	122,055
211,348	-0,439	246,623	123,002
212,363	0,315	246,519	123,561
213,377	0,864	246,322	123,903
214,392	1,092	246,491	124,165
215,407	1,173	246,295	124,122
216,421	1,354	246,189	124,206
217,436	1,371	246,095	124,162
218,450	1,581	245,925	124,238
219,465	1,435	245,731	124,009
220,480	1,482	245,539	123,939
221,494	1,350	245,385	123,743
222,509	1,005	245,013	123,261
223,523	0,741	244,940	122,997
224,538	0,656	244,748	122,820
225,553	0,574	244,486	122,611
226,567	0,682	244,346	122,618
227,582	0,669	244,120	122,483
228,596	0,675	244,012	122,423
229,611	0,797	243,893	122,452
230,626	0,516	243,781	122,156
231,640	0,649	243,674	122,199
232,655	0,677	243,332	122,040
233,669	0,754	243,137	121,994
234,684	0,623	242,912	121,764
235,699	0,509	242,982	121,696
236,713	0,743	242,631	121,699
237,728	0,927	242,530	121,786
238,742	0,670	242,337	121,470
239,757	0,546	242,183	121,282
240,772	0,699	241,991	121,299
241,786	0,388	242,028	121,055
242,801	0,619	241,752	121,093
243,815	0,548	241,481	120,889
244,830	0,515	241,257	120,739
245,844	0,635	241,225	120,809
246,859	0,697	241,051	120,762
247,874	0,770	240,893	120,730
248,888	0,675	240,660	120,526
249,903	0,555	240,605	120,392
250,917	0,847	240,516	120,570
251,932	0,669	240,504	120,411
252,947	0,579	240,161	120,156
253,961	0,704	240,127	120,228
254,976	0,694	239,794	120,043
255,990	0,747	239,771	120,064
257,005	0,706	239,467	119,868
258,020	0,873	239,442	119,978
259,034	0,627	239,312	119,706
260,049	0,550	239,186	119,570
261,063	0,534	238,985	119,447
262,078	0,537	238,840	119,366
263,093	0,504	238,661	119,240
264,107	0,619	238,470	119,225
265,122	0,889	238,341	119,364
266,136	0,691	238,338	119,195
267,151	0,563	238,128	118,978
268,166	0,753	237,952	119,029
269,180	0,522	237,751	118,735
270,195	0,557	237,579	118,667
271,209	0,779	237,351	118,718
272,224	0,774	237,261	118,659
273,239	0,618	237,040	118,414
274,253	0,610	236,914	118,335
275,268	0,591	236,816	118,260
276,282	0,608	236,699	118,204
277,297	0,699	236,450	118,141
278,312	0,667	236,299	118,030
279,326	0,574	236,097	117,845
280,341	0,620	236,083	117,864
281,355	0,591	235,974	117,777
282,370	0,776	235,840	117,844
283,384	0,816	235,565	117,727
284,399	0,672	235,416	117,529
285,414	0,753	235,261	117,505
286,428	0,774	235,150	117,456
287,443	0,716	234,950	117,300
288,457	0,873	234,887	117,381
289,472	0,783	234,717	117,214
290,487	0,657	234,503	116,999
291,501	0,672	234,289	116,894
292,516	0,760	234,242	116,928
293,530	0,727	234,092	116,818
294,545	0,730	233,911	116,719
295,560	0,752	233,837	116,689
296,574	0,936	233,596	116,701
297,589	0,841	233,495	116,566
298,603	0,821	233,391	116,488
299,618	0,826	233,289	116,431
300,633	1,109	233,128	116,560
301,647	0,643	233,079	116,164
302,662	1,098	232,792	116,363
303,676	0,887	232,760	116,173
304,691	1,125	232,356	116,144
305,706	0,835	232,360	115,912
306,720	0,922	232,313	115,946
307,735	1,113	232,096	115,974
308,749	0,869	231,919	115,688
309,764	0,928	231,688	115,607
310,779	0,777	231,751	115,512
311,793	0,935	231,508	115,502
312,808	0,721	231,409	115,278
313,822	1,015	231,080	115,330
314,837	0,899	230,914	115,148
315,852	0,875	230,835	115,079
316,866	0,893	230,856	115,093
317,881	0,878	230,685	114,986
318,895	0,999	230,364	114,909
319,910	0,871	230,286	114,762
320,925	0,970	230,123	114,746
321,939	0,853	230,065	114,617
322,954	1,094	229,871	114,694
323,968	0,886	229,643	114,412
324,983	1,143	229,393	114,473
325,997	0,995	229,313	114,310
327,012	0,826	229,215	114,123
328,027	1,016	229,107	114,203
329,041	0,731	228,941	113,894
330,056	1,050	228,708	114,009
331,070	0,865	228,672	113,841
332,085	1,101	228,492	113,920
333,100	0,913	228,386	113,715
334,114	0,988	228,172	113,655
335,129	0,992	227,963	113,543
336,143	0,711	228,049	113,364
337,158	0,897	227,831	113,386
338,173	1,044	227,569	113,356
339,187	1,190	227,460	113,401
340,202	1,117	227,426	113,320
341,216	1,222	227,105	113,229
342,231	1,062	227,063	113,077
343,246	0,828	226,928	112,824
344,260	1,176	226,745	112,984
345,275	1,332	226,685	113,061
346,289	1,204	226,547	112,887
347,304	1,022	226,495	112,714
348,319	0,934	226,181	112,482
349,333	0,934	226,104	112,433
350,348	1,055	225,906	112,415
351,362	1,185	225,797	112,448
352,377	1,145	225,564	112,293
353,392	1,278	225,469	112,334
354,406	1,082	225,322	112,105
355,421	192,566	1312,402	1380,050
356,435	154,261	1444,703	1379,901
