DTS Sentinel unit serial number:	SN410029Multiplexer serial number:	ORYXHardware model number:	OX2-SRSoftware version number:	ORYX F/W v4,00 Oryx Data Collector v3.7.2.0data status	okinstallation	B5 Nyhavnadifferential loss correction	single-endedforward channel	channel 2reverse channel	N/Adate	2023/12/13time	07:27:13forward acquisition time	300,00reverse acquisition time	0,00gamma	499,1914k internal	0,3160k external	0,3160temperature offset calibration	1,0000default loss term (dB/km)	0,3820temperature slope calibration	1,0000multiplexer offset coefficient	1,0000multiplexer slope coefficient	1,0000fibre end	0,00T internal ref (°C)	13,68T ext. ref 1 (°C)	-2,73T ext. ref 2 (°C)	-3,04length (m)	temperature (°C)	Stokes	anti-Stokes-744,400	-45,209	0,008	0,003
-743,385	-168,023	-0,327	-0,009
-742,371	-8,155	0,196	0,097
-741,356	-42,280	-0,331	0,124
-740,342	-68,167	0,173	0,049
-739,327	-148,541	-0,318	-0,019
-738,312	-128,373	0,112	-0,012
-737,298	-144,766	-0,301	-0,020
-736,283	181,202	0,058	-0,062
-735,269	-0,780	-0,304	-0,158
-734,254	-30,571	0,225	0,093
-733,239	-17,613	-0,522	-0,241
-732,225	-29,527	0,189	-0,079
-731,210	710,109	-0,046	0,089
-730,196	-23,602	-0,247	0,109
-729,181	21,858	-0,102	-0,061
-728,167	-46,861	0,042	0,015
-727,152	-200,000	0,005	-0,110
-726,137	143,686	-0,048	-0,047
-725,123	-200,000	-0,004	-0,020
-724,108	800,000	-0,035	0,073
-723,094	800,000	-0,038	-0,116
-722,079	86,588	-0,113	-0,092
-721,064	598,111	0,013	0,025
-720,050	-160,011	-0,092	0,004
-719,035	162,533	0,053	0,055
-718,021	105,636	-0,161	-0,140
-717,006	128,561	0,069	-0,065
-715,991	-200,000	-0,007	-0,039
-714,977	-165,976	-0,184	-0,006
-713,962	-53,447	0,048	-0,016
-712,948	68,036	0,230	-0,173
-711,933	-7,217	-0,058	-0,029
-710,918	-75,600	0,052	-0,014
-709,904	-142,290	-0,154	-0,011
-708,889	289,587	-0,115	-0,154
-707,875	53,333	0,114	-0,080
-706,860	-124,332	0,121	0,014
-705,845	110,468	0,023	-0,020
-704,831	289,492	0,025	0,034
-703,816	-200,000	-0,026	-0,124
-702,802	68,233	-0,101	0,076
-701,787	-200,000	0,016	-0,123
-700,772	-78,485	-0,081	-0,020
-699,758	-200,000	-0,015	-0,085
-698,743	326,930	0,060	-0,084
-697,729	-100,196	0,112	0,020
-696,714	218,607	0,003	-0,003
-695,699	-14,842	-0,040	0,019
-694,685	-154,990	-0,088	0,004
-693,670	5,920	-0,067	-0,036
-692,656	-68,546	-0,136	-0,039
-691,641	-200,000	-0,008	0,124
-690,627	-200,000	-0,024	0,151
-689,612	186,907	0,162	-0,178
-688,597	183,729	-0,085	-0,092
-687,583	-200,000	-0,003	-0,084
-686,568	-174,304	0,076	0,002
-685,554	154,578	-0,065	0,066
-684,539	-117,318	0,164	-0,022
-683,524	9,282	0,051	0,028
-682,510	-200,000	0,003	-0,039
-681,495	-200,000	-0,036	-0,145
-680,481	-200,000	-0,014	-0,127
-679,466	254,359	-0,029	-0,037
-678,451	-143,932	-0,227	-0,015
-677,437	-5,046	0,195	-0,098
-676,422	-200,000	-0,010	-0,071
-675,408	120,140	0,066	0,060
-674,393	-2,220	-0,032	0,016
-673,378	-200,000	-0,002	-0,094
-672,364	92,612	-0,061	0,050
-671,349	800,000	0,032	-0,078
-670,335	-200,000	-0,003	0,123
-669,320	58,167	-0,020	-0,015
-668,305	-200,000	0,001	0,068
-667,291	105,557	0,067	-0,058
-666,276	-41,381	-0,060	-0,023
-665,262	332,824	-0,032	0,046
-664,247	-81,123	-0,084	-0,020
-663,232	176,033	-0,051	-0,054
-662,218	-200,000	-0,004	0,065
-661,203	354,218	0,034	0,050
-660,189	-200,000	-0,002	0,042
-659,174	-25,289	-0,060	-0,026
-658,159	800,000	0,003	-0,008
-657,145	28,983	-0,077	0,048
-656,130	-82,700	0,093	0,022
-655,116	346,135	-0,045	-0,064
-654,101	-200,000	-0,013	0,088
-653,086	-200,000	-0,018	-0,115
-652,072	389,555	0,030	-0,045
-651,057	-38,264	-0,150	-0,058
-650,043	-200,000	0,033	0,111
-649,028	-36,639	0,047	-0,018
-648,014	546,471	-0,062	-0,108
-646,999	66,049	-0,025	-0,018
-645,984	88,385	-0,050	-0,041
-644,970	-200,000	0,002	-0,021
-643,955	-150,683	-0,192	0,011
-642,941	-152,260	0,119	-0,006
-641,926	-200,000	-0,012	-0,068
-640,911	-86,451	-0,063	0,014
-639,897	749,916	0,027	0,054
-638,882	-61,824	0,105	0,032
-637,868	709,551	0,051	-0,099
-636,853	-2,704	-0,169	-0,086
-635,838	800,000	-0,044	0,098
-634,824	171,366	-0,118	-0,124
-633,809	51,607	0,038	0,026
-632,795	-117,025	0,087	0,012
-631,780	-62,863	0,081	0,024
-630,765	-200,000	-0,006	-0,066
-629,751	-52,496	-0,098	-0,033
-628,736	196,417	0,058	-0,065
-627,722	-170,248	0,037	0,001
-626,707	800,000	0,032	0,075
-625,692	60,985	0,241	0,175
-624,678	12,756	-0,032	0,018
-623,663	-153,012	-0,186	-0,009
-622,649	-200,000	-0,023	-0,104
-621,634	-200,000	0,000	-0,131
-620,619	-200,000	-0,017	0,126
-619,605	-200,000	0,022	0,079
-618,590	46,929	-0,098	-0,067
-617,576	-70,935	0,118	0,032
-616,561	656,648	-0,063	-0,119
-615,546	-115,965	-0,152	-0,021
-614,532	126,988	0,081	0,075
-613,517	-116,935	0,185	0,025
-612,503	-200,000	0,043	-0,140
-611,488	800,000	-0,021	-0,062
-610,474	-139,748	-0,064	0,005
-609,459	-69,285	0,085	0,024
-608,444	-57,937	0,099	-0,032
-607,430	101,551	-0,105	-0,089
-606,415	347,949	0,060	0,087
-605,401	190,485	-0,020	0,022
-604,386	-184,078	-0,107	0,001
-603,371	-200,000	-0,016	0,096
-602,357	-200,000	-0,007	-0,099
-601,342	49,430	0,071	-0,049
-600,328	-107,325	-0,064	0,010
-599,313	-200,000	0,004	-0,040
-598,298	-200,000	0,010	-0,046
-597,284	-86,993	0,036	-0,008
-596,269	370,261	0,058	0,087
-595,255	-76,769	0,086	-0,022
-594,240	752,617	-0,070	-0,139
-593,225	-120,931	-0,101	-0,012
-592,211	302,079	-0,044	-0,059
-591,196	139,321	0,062	-0,060
-590,182	-200,000	-0,012	0,087
-589,167	-9,056	0,149	0,073
-588,152	-136,445	0,073	0,006
-587,138	39,544	-0,147	0,096
-586,123	-123,123	-0,075	-0,009
-585,109	-200,000	-0,025	0,092
-584,094	800,000	0,060	0,126
-583,079	91,061	0,082	-0,067
-582,065	-200,000	-0,000	0,044
-581,050	637,562	-0,052	-0,097
-580,036	140,275	-0,107	-0,103
-579,021	163,564	-0,094	-0,097
-578,006	-39,413	0,027	0,010
-576,992	67,398	-0,113	-0,084
-575,977	308,388	0,010	-0,013
-574,963	800,000	-0,028	-0,084
-573,948	-105,226	0,121	0,020
-572,934	282,624	-0,086	-0,114
-571,919	220,614	-0,071	0,084
-570,904	-36,108	-0,090	0,036
-569,890	-133,617	-0,140	-0,013
-568,875	800,000	0,028	0,090
-567,861	521,410	0,050	-0,086
-566,846	161,168	0,093	-0,095
-565,831	800,000	-0,056	-0,149
-564,817	-18,615	-0,079	-0,036
-563,802	-200,000	-0,007	-0,189
-562,788	219,178	0,064	-0,075
-561,773	107,828	0,085	0,074
-560,758	800,000	0,020	-0,045
-559,744	-200,000	-0,023	-0,129
-558,729	224,886	-0,022	-0,026
-557,715	305,228	-0,071	-0,097
-556,700	247,183	-0,056	-0,070
-555,685	-200,000	-0,005	0,065
-554,671	-200,000	-0,020	0,154
-553,656	800,000	0,043	-0,098
-552,642	124,574	0,036	0,033
-551,627	-72,095	0,035	0,009
-550,612	176,316	-0,092	0,097
-549,598	14,102	-0,091	0,051
-548,583	143,274	-0,104	-0,101
-547,569	113,717	-0,041	-0,036
-546,554	-50,085	0,105	-0,036
-545,539	-100,999	0,146	0,026
-544,525	-200,000	-0,002	-0,044
-543,510	93,924	-0,089	0,074
-542,496	-55,509	-0,063	-0,021
-541,481	395,724	0,030	0,047
-540,466	-200,000	0,012	-0,062
-539,452	34,269	-0,088	0,056
-538,437	96,228	0,059	-0,049
-537,423	-200,000	-0,003	-0,104
-536,408	608,516	0,018	0,033
-535,393	800,000	0,027	-0,059
-534,379	-187,641	-0,041	0,000
-533,364	432,208	0,043	-0,068
-532,350	-5,837	0,048	-0,024
-531,335	800,000	0,056	0,149
-530,321	-104,771	0,117	0,019
-529,306	-116,508	-0,115	-0,015
-528,291	800,000	0,020	0,047
-527,277	-200,000	0,021	-0,082
-526,262	-200,000	-0,022	-0,153
-525,248	800,000	-0,047	-0,114
-524,233	-64,317	0,076	-0,022
-523,218	491,621	-0,024	-0,040
-522,204	209,619	0,026	0,030
-521,189	534,080	0,084	-0,146
-520,175	518,169	0,060	-0,103
-519,160	800,000	-0,034	0,069
-518,145	-200,000	0,123	0,000
-517,131	422,756	0,075	-0,118
-516,116	-200,000	0,013	-0,090
-515,102	180,085	-0,079	0,084
-514,087	-189,466	-0,112	0,001
-513,072	48,818	0,026	-0,018
-512,058	187,887	-0,059	0,064
-511,043	64,181	0,080	-0,059
-510,029	-34,612	0,069	0,027
-509,014	281,070	-0,020	-0,026
-507,999	-60,171	-0,074	-0,023
-506,985	42,613	-0,110	-0,073
-505,970	-200,000	-0,016	-0,158
-504,956	-102,832	-0,096	0,016
-503,941	110,156	0,035	0,031
-502,926	-200,000	0,002	0,051
-501,912	-112,694	-0,070	-0,010
-500,897	-16,246	0,073	0,034
-499,883	-56,712	0,025	0,008
-498,868	-34,907	-0,120	-0,048
-497,853	-84,709	0,116	-0,027
-496,839	346,001	-0,048	-0,070
-495,824	-200,000	0,025	0,100
-494,810	800,000	0,012	0,036
-493,795	111,918	0,106	0,093
-492,781	800,000	0,017	-0,037
-491,766	378,759	-0,016	-0,024
-490,751	-94,734	0,080	0,016
-489,737	-200,000	0,024	0,112
-488,722	-200,000	-0,038	0,131
-487,708	-41,258	0,064	-0,024
-486,693	-200,000	0,004	-0,019
-485,678	245,859	-0,083	0,102
-484,664	-195,915	0,091	-0,000
-483,649	380,624	0,030	-0,046
-482,635	122,970	0,077	-0,071
-481,620	800,000	-0,035	0,074
-480,605	73,203	0,069	0,053
-479,591	410,903	-0,039	0,061
-478,576	800,000	0,024	0,071
-477,562	-200,000	0,000	-0,034
-476,547	45,067	-0,088	-0,059
-475,532	-200,000	-0,012	-0,133
-474,518	-61,155	0,046	-0,014
-473,503	-200,000	-0,002	-0,018
-472,489	668,843	0,089	-0,169
-471,474	58,919	-0,019	-0,013
-470,459	-200,000	-0,037	-0,180
-469,445	-45,298	-0,101	-0,036
-468,430	90,830	0,037	-0,030
-467,416	89,235	0,120	-0,097
-466,401	93,406	0,049	-0,040
-465,386	-110,295	0,104	0,016
-464,372	608,504	0,103	-0,189
-463,357	-21,659	-0,062	0,027
-462,343	334,005	-0,121	-0,171
-461,328	-200,000	0,022	-0,105
-460,313	121,807	0,118	0,108
-459,299	571,873	0,040	-0,071
-458,284	46,802	0,089	-0,060
-457,270	800,000	-0,053	-0,136
-456,255	-200,000	0,019	-0,132
-455,241	101,856	0,056	0,048
-454,226	32,761	-0,064	-0,041
-453,211	800,000	0,034	0,094
-452,197	390,887	0,036	0,054
-451,182	-124,738	-0,187	0,021
-450,168	27,792	0,112	0,068
-449,153	-43,894	-0,149	-0,054
-448,138	29,711	-0,142	-0,088
-447,124	-68,449	0,026	0,007
-446,109	97,895	0,135	0,113
-445,095	800,000	-0,086	0,199
-444,080	53,885	-0,051	-0,036
-443,065	1,347	0,085	0,044
-442,051	-104,248	0,055	0,009
-441,036	-200,000	-0,014	0,044
-440,022	46,650	-0,098	0,066
-439,007	-200,000	0,014	0,084
-437,992	-200,000	-0,004	-0,018
-436,978	-200,000	-0,002	-0,021
-435,963	-200,000	0,046	0,200
-434,949	70,134	0,076	-0,057
-433,934	276,170	-0,074	-0,096
-432,919	359,701	-0,052	0,076
-431,905	404,462	0,006	-0,009
-430,890	21,775	-0,090	0,053
-429,876	697,452	0,062	0,119
-428,861	-200,000	0,001	0,088
-427,846	125,341	0,047	0,043
-426,832	-75,167	-0,132	-0,034
-425,817	-24,264	-0,097	0,042
-424,803	66,814	-0,190	-0,140
-423,788	340,436	-0,026	0,037
-422,773	-200,000	0,002	0,151
-421,759	-144,426	-0,186	0,012
-420,744	-55,243	0,136	0,044
-419,730	-200,000	-0,008	-0,071
-418,715	606,228	-0,021	0,039
-417,701	334,477	-0,029	-0,041
-416,686	137,531	0,076	0,073
-415,671	-200,000	0,020	0,110
-414,657	53,430	-0,034	0,024
-413,642	441,129	-0,055	-0,087
-412,628	-56,345	0,062	-0,020
-411,613	-76,091	-0,014	0,004
-410,598	144,481	0,033	0,032
-409,584	-200,000	-0,031	0,131
-408,569	184,782	0,107	0,115
-407,555	-28,243	0,061	-0,025
-406,540	128,940	-0,114	0,106
-405,525	-200,000	0,004	0,128
-404,511	598,681	-0,013	0,023
-403,496	247,653	-0,045	-0,055
-402,482	-200,000	0,018	0,072
-401,467	106,873	0,114	0,098
-400,452	111,110	0,057	0,050
-399,438	-50,887	0,016	0,005
-398,423	-103,820	-0,074	-0,012
-397,409	-12,191	-0,033	0,016
-396,394	124,558	0,037	0,034
-395,379	19,011	0,187	-0,109
-394,365	350,212	0,088	0,127
-393,350	-200,000	0,019	0,073
-392,336	136,739	0,114	0,108
-391,321	108,542	0,074	0,064
-390,306	-108,388	-0,034	-0,005
-389,292	220,575	-0,084	-0,099
-388,277	-151,208	0,088	0,005
-387,263	-10,435	0,115	0,055
-386,248	-200,000	-0,045	0,164
-385,233	800,000	-0,031	0,064
-384,219	168,967	0,056	0,058
-383,204	295,743	-0,054	-0,072
-382,190	800,000	-0,013	0,027
-381,175	-200,000	0,022	-0,151
-380,160	-14,642	0,065	0,030
-379,146	-200,000	0,006	0,026
-378,131	800,000	0,009	0,028
-377,117	-200,000	0,000	-0,019
-376,102	186,772	-0,120	-0,130
-375,088	800,000	-0,015	-0,048
-374,073	509,697	-0,017	0,029
-373,058	283,620	0,098	0,128
-372,044	268,769	-0,064	-0,082
-371,029	-146,306	-0,086	0,005
-370,015	-157,591	-0,118	0,005
-369,000	-200,000	-0,028	-0,128
-367,985	-1,018	0,021	-0,011
-366,971	-101,863	-0,143	0,025
-365,956	800,000	-0,012	0,031
-364,942	800,000	0,024	-0,072
-363,927	-107,574	0,032	0,005
-362,912	800,000	-0,048	0,110
-361,898	-16,852	-0,099	0,045
-360,883	-153,722	0,085	0,004
-359,869	23,153	-0,049	0,029
-358,854	-200,000	0,021	0,109
-357,839	-118,543	-0,103	-0,013
-356,825	15,612	0,080	0,046
-355,810	745,867	-0,018	0,035
-354,796	-118,421	-0,057	-0,007
-353,781	440,542	0,128	-0,204
-352,766	800,000	0,024	0,049
-351,752	800,000	0,040	-0,092
-350,737	-200,000	0,035	0,127
-349,723	343,107	-0,023	0,033
-348,708	-16,720	-0,080	0,036
-347,693	800,000	-0,025	0,079
-346,679	26,714	-0,111	-0,068
-345,664	-97,550	0,042	-0,008
-344,650	-200,000	-0,002	-0,051
-343,635	800,000	-0,024	-0,056
-342,620	-200,000	0,029	-0,094
-341,606	36,413	0,019	0,012
-340,591	-200,000	0,006	0,035
-339,577	-68,144	-0,218	-0,061
-338,562	791,095	-0,043	-0,086
-337,548	13,973	0,012	0,007
-336,533	-98,729	-0,003	0,001
-335,518	34,516	-0,141	0,089
-334,504	800,000	0,036	-0,089
-333,489	-14,270	0,052	-0,024
-332,475	-75,306	-0,062	0,016
-331,460	-45,099	-0,169	0,061
-330,445	-99,090	0,112	-0,020
-329,431	-200,000	0,038	0,168
-328,416	800,000	-0,040	0,085
-327,402	-200,000	0,001	0,004
-326,387	144,530	-0,099	0,096
-325,372	-96,057	-0,109	-0,021
-324,358	-40,106	-0,065	0,024
-323,343	463,382	0,067	-0,108
-322,329	-200,000	-0,002	0,078
-321,314	169,646	-0,046	-0,048
-320,299	800,000	0,044	0,113
-319,285	-25,456	-0,025	0,011
-318,270	-150,309	-0,065	-0,004
-317,256	273,003	-0,043	0,055
-316,241	-200,000	-0,010	-0,080
-315,226	-200,000	-0,032	0,134
-314,212	118,322	0,086	0,077
-313,197	13,384	-0,040	-0,023
-312,183	-102,514	-0,091	-0,016
-311,168	-17,013	-0,068	0,031
-310,153	-200,000	0,013	-0,066
-309,139	-40,324	-0,060	-0,023
-308,124	16,101	0,058	0,033
-307,110	-200,000	0,020	0,069
-306,095	256,903	0,049	0,061
-305,080	-11,005	0,084	0,040
-304,066	133,763	0,084	-0,078
-303,051	-200,000	-0,018	0,095
-302,037	122,172	-0,079	-0,072
-301,022	21,658	-0,055	0,033
-300,008	-88,621	0,070	0,015
-298,993	-200,000	-0,026	0,084
-297,978	-200,000	0,017	0,057
-296,964	165,608	-0,016	-0,016
-295,949	-145,045	-0,144	0,009
-294,935	385,293	0,038	-0,057
-293,920	-110,936	-0,021	-0,003
-292,905	-34,870	0,062	-0,025
-291,891	37,031	0,097	0,062
-290,876	269,085	0,050	0,064
-289,862	-62,891	-0,121	0,036
-288,847	-181,808	0,068	0,001
-287,832	-200,000	-0,020	0,085
-286,818	94,025	-0,036	0,030
-285,803	-67,685	0,053	0,015
-284,789	-131,662	0,139	0,013
-283,774	-56,677	-0,057	-0,018
-282,759	-98,699	0,054	0,010
-281,745	-16,204	-0,083	0,038
-280,730	-200,000	-0,007	-0,042
-279,716	-200,000	-0,002	0,069
-278,701	74,887	0,104	-0,079
-277,686	337,688	0,041	-0,058
-276,672	68,883	0,086	-0,064
-275,657	-107,055	0,148	-0,023
-274,643	-8,753	-0,131	-0,063
-273,628	-116,167	-0,164	-0,022
-272,613	-24,436	-0,139	0,060
-271,599	169,437	-0,028	-0,029
-270,584	233,471	0,091	-0,108
-269,570	20,195	0,088	0,051
-268,555	-200,000	-0,004	-0,200
-267,540	-70,381	-0,070	0,019
-266,526	-200,000	0,021	-0,094
-265,511	128,154	-0,122	0,112
-264,497	205,412	0,014	-0,016
-263,482	800,000	0,023	-0,054
-262,467	-27,459	0,144	0,060
-261,453	-42,330	-0,091	-0,033
-260,438	800,000	0,074	-0,151
-259,424	-20,282	0,077	0,034
-258,409	99,679	-0,162	0,135
-257,395	-23,358	-0,113	0,049
-256,380	-69,050	-0,047	-0,013
-255,365	197,761	-0,069	0,076
-254,351	-145,768	0,074	0,005
-253,336	-71,136	-0,076	-0,021
-252,322	800,000	-0,047	-0,097
-251,307	35,527	-0,035	0,022
-250,292	800,000	0,017	0,040
-249,278	35,321	-0,126	0,080
-248,263	-200,000	0,009	-0,087
-247,249	-164,809	0,064	0,002
-246,234	13,000	0,132	-0,074
-245,219	-200,000	-0,025	0,090
-244,205	-200,000	0,027	0,112
-243,190	94,236	0,019	-0,015
-242,176	48,657	0,083	-0,056
-241,161	106,458	0,087	-0,075
-240,146	201,790	0,050	-0,056
-239,132	-68,894	0,061	0,017
-238,117	107,661	0,018	-0,015
-237,103	370,117	0,077	-0,113
-236,088	800,000	0,054	0,148
-235,073	-122,881	0,096	-0,011
-234,059	-200,000	-0,023	-0,141
-233,044	-200,000	0,017	0,204
-232,030	144,600	0,061	-0,059
-231,015	-162,638	-0,103	-0,004
-230,000	76,895	-0,096	0,073
-228,986	148,032	0,109	0,107
-227,971	151,828	0,062	0,061
-226,957	-78,941	0,157	0,038
-225,942	-22,651	0,163	0,071
-224,927	190,819	0,122	0,133
-223,913	38,383	-0,052	-0,033
-222,898	43,504	-0,068	0,045
-221,884	-200,000	0,008	0,099
-220,869	-200,000	0,002	0,046
-219,855	-200,000	0,017	0,093
-218,840	65,418	-0,067	0,049
-217,825	800,000	-0,043	-0,089
-216,811	-70,835	0,067	-0,018
-215,796	-51,568	-0,065	0,022
-214,782	-88,231	-0,046	-0,010
-213,767	155,711	0,037	-0,037
-212,752	384,389	-0,062	0,093
-211,738	-200,000	-0,013	0,060
-210,723	52,985	-0,162	0,111
-209,709	-200,000	-0,002	-0,062
-208,694	800,000	0,009	0,024
-207,679	-200,000	-0,005	-0,049
-206,665	16,096	-0,088	0,050
-205,650	243,501	0,117	0,142
-204,636	370,941	0,041	0,061
-203,621	93,316	0,067	-0,054
-202,606	395,158	0,018	-0,026
-201,592	86,296	-0,034	-0,027
-200,577	-200,000	0,000	-0,018
-199,563	285,814	0,075	-0,097
-198,548	-200,000	0,010	0,083
-197,533	-177,863	0,086	-0,001
-196,519	551,304	0,053	0,092
-195,504	800,000	-0,040	-0,102
-194,490	-27,667	0,066	-0,028
-193,475	-200,000	0,005	0,044
-192,460	23,597	-0,063	-0,037
-191,446	800,000	0,058	-0,123
-190,431	-200,000	-0,037	-0,121
-189,417	-200,000	0,018	0,120
-188,402	602,115	0,041	0,073
-187,387	-37,012	-0,088	-0,034
-186,373	-200,000	-0,023	-0,154
-185,358	166,653	-0,059	-0,061
-184,344	187,646	0,025	-0,027
-183,329	-124,277	0,114	0,013
-182,315	-29,577	0,019	0,008
-181,300	-18,264	-0,050	-0,022
-180,285	-126,087	0,080	0,009
-179,271	800,000	-0,052	0,160
-178,256	-23,989	0,114	-0,049
-177,242	800,000	0,026	0,069
-176,227	138,236	0,104	-0,098
-175,212	-90,819	-0,064	-0,013
-174,198	-64,645	-0,032	-0,009
-173,183	-154,517	-0,054	0,003
-172,169	-21,896	-0,050	0,022
-171,154	-37,386	-0,153	-0,059
-170,139	800,000	0,022	-0,048
-169,125	248,308	0,057	0,069
-168,110	800,000	0,045	0,096
-167,096	435,095	-0,031	0,048
-166,081	103,605	-0,049	0,042
-165,066	239,562	-0,073	-0,087
-164,052	-142,580	0,116	0,008
-163,037	256,624	-0,072	-0,090
-162,023	-96,561	0,069	0,013
-161,008	-200,000	0,004	-0,033
-159,993	800,000	0,033	0,082
-158,979	-33,105	0,112	0,045
-157,964	120,350	-0,067	-0,060
-156,950	-200,000	-0,026	-0,117
-155,935	245,528	-0,043	0,053
-154,920	21,285	0,148	0,086
-153,906	59,208	0,146	0,103
-152,891	-21,911	0,088	-0,038
-151,877	85,025	0,018	0,014
-150,862	-112,252	0,127	0,018
-149,847	-200,000	-0,007	0,073
-148,833	-200,000	-0,033	-0,128
-147,818	-200,000	0,009	0,056
-146,804	-97,909	0,090	0,017
-145,789	-200,000	0,043	0,170
-144,775	31,424	-0,078	0,048
-143,760	800,000	0,049	0,100
-142,745	195,100	0,045	0,049
-141,731	138,976	0,105	-0,099
-140,716	113,023	0,068	0,059
-139,702	-45,366	0,036	0,013
-138,687	49,035	-0,101	-0,068
-137,672	599,882	-0,064	0,116
-136,658	501,792	-0,028	-0,047
-135,643	-200,000	0,012	0,071
-134,629	-147,690	-0,199	0,012
-133,614	595,893	-0,018	0,032
-132,599	800,000	-0,031	0,067
-131,585	442,701	0,042	-0,066
-130,570	-200,000	0,009	-0,127
-129,556	800,000	-0,017	-0,040
-128,541	20,040	0,048	-0,028
-127,526	303,918	-0,036	-0,048
-126,512	-41,224	0,043	0,016
-125,497	53,428	0,066	0,046
-124,483	152,600	0,118	0,116
-123,468	-167,505	-0,032	-0,001
-122,453	-200,000	-0,009	-0,043
-121,439	421,924	-0,026	-0,040
-120,424	-125,534	0,102	0,011
-119,410	98,928	0,073	0,061
-118,395	-200,000	0,009	-0,191
-117,380	-45,383	0,062	0,022
-116,366	-119,724	0,078	0,010
-115,351	-91,978	0,062	0,013
-114,337	-37,445	-0,050	0,019
-113,322	-200,000	-0,008	-0,118
-112,307	-200,000	0,013	-0,106
-111,293	105,766	0,114	0,097
-110,278	47,022	-0,047	0,031
-109,264	-148,336	0,109	0,006
-108,249	-200,000	-0,005	-0,033
-107,234	341,073	-0,074	-0,105
-106,220	33,787	0,082	-0,051
-105,205	-200,000	0,006	-0,025
-104,191	-91,528	-0,076	0,015
-103,176	439,843	0,075	0,119
-102,162	655,955	0,056	-0,104
-101,147	-200,000	-0,036	-0,152
-100,132	800,000	0,047	0,118
-99,118	598,528	0,060	-0,108
-98,103	800,000	0,025	0,077
-97,089	-83,552	0,019	-0,004
-96,074	193,110	0,075	0,081
-95,059	-200,000	0,012	0,045
-94,045	-200,000	0,034	-0,199
-93,030	-73,489	-0,059	-0,015
-92,016	-195,457	-0,072	-0,000
-91,001	-84,865	0,131	0,029
-89,986	-35,989	-0,002	-0,001
-88,972	191,601	0,044	-0,047
-87,957	449,291	-0,023	0,036
-86,943	71,978	-0,154	0,115
-85,928	210,298	0,027	-0,030
-84,913	-58,621	0,063	-0,019
-83,899	-78,110	-0,088	0,022
-82,884	-200,000	-0,020	0,124
-81,870	-39,787	-0,095	-0,035
-80,855	295,731	0,029	-0,038
-79,840	-124,279	-0,183	-0,020
-78,826	-92,705	-0,022	0,004
-77,811	800,000	-0,041	-0,094
-76,797	252,428	0,030	0,036
-75,782	-41,801	-0,115	-0,042
-74,767	-158,559	0,110	-0,004
-73,753	-200,000	-0,003	0,021
-72,738	-200,000	-0,004	0,079
-71,724	744,554	-0,049	-0,096
-70,709	800,000	-0,056	-0,159
-69,694	800,000	-0,009	-0,020
-68,680	-55,658	0,021	0,007
-67,665	-50,311	-0,100	0,034
-66,651	123,470	0,092	0,083
-65,636	29,709	-0,063	-0,038
-64,622	96,966	-0,055	0,045
-63,607	48,715	-0,083	-0,056
-62,592	800,000	-0,023	0,052
-61,578	-122,067	0,014	0,002
-60,563	-101,418	0,014	0,002
-59,549	577,776	0,037	0,066
-58,534	26,772	-2,143	-1,285
-57,519	-200,000	-0,258	-0,872
-56,505	-200,000	-1,380	-5,134
-55,490	80,961	0,936	0,724
-54,476	800,000	5,284	11,966
-53,461	-200,000	18,708	316,980
-52,446	800,000	740,957	2333,503
-51,432	558,972	1657,258	2880,031
-50,417	111,166	1641,348	1417,804
-49,403	75,435	1291,306	976,347
-48,388	30,288	1031,679	630,330
-47,373	19,885	994,416	573,075
-46,359	17,376	981,904	557,578
-45,344	13,982	978,075	544,215
-44,330	14,326	976,529	544,465
-43,315	13,782	974,530	541,544
-42,300	13,675	973,662	540,688
-41,286	13,718	972,559	540,193
-40,271	13,683	971,681	539,572
-39,257	13,680	970,819	539,060
-38,242	13,704	969,968	538,644
-37,227	13,687	969,124	538,098
-36,213	13,654	968,216	537,466
-35,198	13,647	967,430	536,985
-34,184	13,742	966,469	536,739
-33,169	13,642	965,626	535,926
-32,154	13,719	964,519	535,539
-31,140	13,745	963,755	535,179
-30,125	13,739	962,913	534,671
-29,111	13,693	962,245	534,129
-28,096	13,731	961,546	533,844
-27,082	13,682	960,901	533,307
-26,067	13,736	959,907	532,907
-25,052	13,719	959,283	532,487
-24,038	13,725	958,525	532,064
-23,023	13,700	958,246	531,805
-22,009	13,761	957,390	531,506
-20,994	13,768	956,689	531,120
-19,979	13,794	956,179	530,897
-18,965	13,702	955,475	530,191
-17,950	13,726	955,016	529,992
-16,936	13,653	954,268	529,321
-15,921	13,700	953,630	529,097
-14,906	13,606	952,826	528,330
-13,892	13,674	952,174	528,164
-12,877	13,628	951,475	527,609
-11,863	13,575	950,927	527,112
-10,848	13,560	950,553	526,837
-9,833	13,714	949,747	526,861
-8,819	13,681	949,073	526,363
-7,804	13,643	948,465	525,883
-6,790	13,590	947,905	525,382
-5,775	13,694	947,503	525,470
-4,760	13,610	946,876	524,834
-3,746	13,621	946,177	524,459
-2,731	13,479	945,531	523,629
-1,717	13,498	944,814	523,273
-0,702	13,522	944,079	522,921
0,313	13,185	943,454	522,294
1,327	16,596	940,975	531,675
2,342	25,600	796,273	473,852
3,356	22,110	460,714	268,780
4,371	-4,821	317,878	156,492
5,386	-8,961	299,746	143,312
6,400	-10,957	293,708	138,408
7,415	-11,193	291,151	136,956
8,429	-11,517	289,624	135,904
9,444	-11,586	288,594	135,341
10,459	-11,483	288,007	135,154
11,473	-11,392	287,443	134,968
12,488	-11,593	286,928	134,516
13,502	-11,602	286,424	134,259
14,517	-11,478	285,953	134,148
15,531	-11,479	285,512	133,928
16,546	-11,399	285,172	133,835
17,561	-11,453	284,678	133,539
18,575	-11,315	284,262	133,466
19,590	-11,495	284,018	133,165
20,604	-11,190	283,656	133,278
21,619	-11,464	283,335	132,850
22,634	-11,347	282,900	132,748
23,648	-11,390	282,748	132,623
24,663	-11,303	282,386	132,526
25,677	-11,472	282,084	132,209
26,692	-11,475	281,869	132,093
27,707	-11,445	281,539	131,956
28,721	-11,532	281,503	131,843
29,736	-11,551	281,032	131,593
30,750	-11,549	280,840	131,493
31,765	-11,598	280,648	131,345
32,780	-11,496	280,337	131,285
33,794	-11,431	280,013	131,184
34,809	-11,633	279,924	130,937
35,823	-11,467	279,483	130,878
36,838	-11,552	279,453	130,771
37,853	-11,306	278,908	130,739
38,867	-11,501	278,775	130,479
39,882	-11,460	278,673	130,459
40,896	-11,492	278,209	130,199
41,911	-11,451	278,052	130,153
42,926	-11,654	277,842	129,851
43,940	-11,604	277,634	129,789
44,955	-11,711	277,494	129,611
45,969	-11,693	277,009	129,390
46,984	-11,739	276,860	129,265
47,999	-11,972	276,547	128,888
49,013	-12,040	276,197	128,649
50,028	-12,091	275,964	128,481
51,042	-12,226	275,808	128,270
52,057	-12,267	275,436	128,047
53,071	-12,031	275,265	128,178
54,086	-12,140	275,149	128,010
55,101	-12,012	274,976	128,038
56,115	-11,658	274,820	128,286
57,130	-11,455	274,661	128,390
58,144	-11,244	274,536	128,518
59,159	-11,380	274,042	128,148
60,174	-11,424	274,012	128,081
61,188	-11,362	273,751	128,006
62,203	-11,340	273,359	127,831
63,217	-11,410	273,316	127,735
64,232	-11,420	273,013	127,572
65,247	-11,343	272,774	127,521
66,261	-11,549	272,523	127,201
67,276	-11,622	272,294	127,016
68,290	-11,900	272,077	126,645
69,305	-11,728	271,625	126,582
70,320	-11,702	271,536	126,554
71,334	-11,555	271,464	126,645
72,349	-11,407	271,186	126,640
73,363	-11,419	271,013	126,537
74,378	-11,327	270,742	126,484
75,393	-11,299	270,400	126,339
76,407	-11,285	270,257	126,274
77,422	-11,310	270,203	126,215
78,436	-11,410	269,983	126,008
79,451	-11,310	269,518	125,872
80,466	-11,363	269,304	125,712
81,480	-11,601	269,115	125,394
82,495	-11,474	268,912	125,405
83,509	-11,643	268,948	125,256
84,524	-11,470	268,658	125,268
85,539	-11,616	268,312	124,962
86,553	-11,692	268,070	124,769
87,568	-11,620	267,883	124,737
88,582	-11,569	267,856	124,759
89,597	-11,813	267,517	124,368
90,611	-11,664	267,377	124,428
91,626	-11,332	267,176	124,624
92,641	-11,423	266,972	124,435
93,655	-11,301	266,775	124,443
94,670	-11,372	266,540	124,258
95,684	-11,457	266,208	124,016
96,699	-11,546	266,047	123,849
97,714	-11,519	265,950	123,817
98,728	-11,388	265,526	123,727
99,743	-11,687	265,411	123,392
100,757	-11,600	265,188	123,356
101,772	-11,668	264,989	123,192
102,787	-11,591	264,875	123,197
103,801	-11,455	264,561	123,162
104,816	-11,519	264,527	123,078
105,830	-11,270	264,380	123,222
106,845	-11,306	264,055	123,028
107,860	-11,373	263,953	122,909
108,874	-11,461	263,759	122,729
109,889	-11,450	263,462	122,589
110,903	-11,331	263,257	122,589
111,918	-11,520	263,149	122,359
112,933	-11,660	262,951	122,132
113,947	-11,482	262,710	122,167
114,962	-11,387	262,510	122,148
115,976	-11,471	262,472	122,045
116,991	-11,534	262,180	121,842
118,006	-11,412	262,024	121,867
119,020	-11,499	261,845	121,696
120,035	-11,343	261,734	121,772
121,049	-11,434	261,556	121,597
122,064	-11,271	261,325	121,623
123,079	-11,386	261,109	121,411
124,093	-11,535	260,844	121,144
125,108	-11,654	260,469	120,855
126,122	-11,926	260,278	120,516
127,137	-11,767	260,120	120,571
128,151	-11,772	259,998	120,500
129,166	-11,624	259,715	120,488
130,181	-11,697	259,531	120,328
131,195	-11,825	259,362	120,127
132,210	-11,502	259,170	120,310
133,224	-11,431	259,069	120,314
134,239	-11,483	258,972	120,213
135,254	-11,266	258,639	120,238
136,268	-11,237	258,324	120,106
137,283	-11,913	258,230	119,461
138,297	-11,675	257,856	119,486
139,312	-11,694	257,598	119,338
140,327	-11,443	257,716	119,601
141,341	-11,382	257,556	119,570
142,356	-11,297	257,373	119,548
143,370	-11,342	257,143	119,391
144,385	-11,165	256,932	119,436
145,400	-11,241	256,779	119,289
146,414	-11,296	256,700	119,194
147,429	-11,317	256,507	119,075
148,443	-11,259	256,322	119,029
149,458	-11,100	256,043	119,027
150,473	-11,203	255,818	118,822
151,487	-11,398	255,593	118,538
152,502	-11,481	255,508	118,417
153,516	-11,378	255,312	118,404
154,531	-11,240	255,097	118,413
155,546	-11,174	255,016	118,422
156,560	-11,318	254,836	118,204
157,575	-11,347	254,470	117,999
158,589	-11,185	254,400	118,095
159,604	-11,134	254,190	118,030
160,619	-11,345	254,051	117,774
161,633	-11,244	253,885	117,774
162,648	-11,278	253,707	117,651
163,662	-11,012	253,467	117,757
164,677	-11,142	253,391	117,600
165,692	-11,204	253,143	117,421
166,706	-11,183	253,015	117,370
167,721	-11,221	252,846	117,248
168,735	-11,339	252,636	117,040
169,750	-11,385	252,529	116,941
170,764	-11,238	252,380	116,986
171,779	-11,221	252,240	116,925
172,794	-11,282	252,068	116,784
173,808	-11,175	251,799	116,739
174,823	-11,530	251,559	116,316
175,837	-11,640	251,392	116,136
176,852	-11,545	251,299	116,163
177,867	-11,371	251,253	116,278
178,881	-11,267	251,135	116,302
179,896	-11,147	250,800	116,237
180,910	-11,169	250,525	116,081
181,925	-11,340	250,546	115,936
182,940	-11,040	250,306	116,068
183,954	-11,210	250,153	115,843
184,969	-11,326	250,043	115,684
185,983	-11,052	249,741	115,765
186,998	-10,979	249,512	115,709
188,013	-11,120	249,476	115,564
189,027	-10,985	249,103	115,494
190,042	-11,209	249,095	115,292
191,056	-11,113	248,819	115,235
192,071	-11,067	248,715	115,214
193,086	-11,154	248,533	115,047
194,100	-11,367	248,357	114,777
195,115	-11,165	248,282	114,901
196,129	-11,147	247,905	114,732
197,144	-11,132	247,787	114,679
198,159	-11,042	247,436	114,581
199,173	-11,116	247,349	114,469
200,188	-11,251	247,326	114,336
201,202	-11,318	246,910	114,078
202,217	-11,626	246,701	113,716
203,232	-11,512	246,504	113,710
204,246	-11,311	246,380	113,809
205,261	-11,013	246,302	114,009
206,275	-12,083	245,873	112,916
207,290	-8,380	247,595	116,778
208,304	-0,041	250,089	124,933
209,319	4,072	251,361	129,008
210,334	4,745	251,374	129,567
211,348	5,106	251,291	129,815
212,363	5,224	251,231	129,872
213,377	5,355	250,926	129,812
214,392	5,201	250,777	129,594
215,407	4,963	250,621	129,304
216,421	4,827	250,489	129,110
217,436	5,168	250,427	129,352
218,450	5,386	250,242	129,426
219,465	4,933	249,961	128,892
220,480	4,634	249,839	128,569
221,494	4,726	249,574	128,498
222,509	4,639	249,442	128,346
223,523	4,746	249,229	128,313
224,538	4,438	248,800	127,826
225,553	4,634	248,889	128,023
226,567	4,666	248,734	127,958
227,582	4,625	248,579	127,833
228,596	4,642	248,343	127,714
229,611	4,350	248,186	127,381
230,626	4,292	248,003	127,228
231,640	4,520	247,834	127,318
232,655	4,519	247,680	127,226
233,669	4,465	247,455	127,056
234,684	4,202	247,324	126,760
235,699	4,592	247,261	127,038
236,713	4,724	247,161	127,083
237,728	4,465	246,766	126,656
238,742	4,105	246,679	126,305
239,757	4,363	246,477	126,402
240,772	4,263	246,404	126,271
241,786	4,315	246,109	126,151
242,801	4,127	246,115	125,990
243,815	4,250	245,890	125,963
244,830	4,486	245,808	126,103
245,844	4,654	245,570	126,107
246,859	4,387	245,420	125,801
247,874	4,319	245,216	125,630
248,888	4,541	244,973	125,675
249,903	4,424	245,079	125,623
250,917	4,666	244,904	125,719
251,932	4,829	244,749	125,760
252,947	4,766	244,599	125,621
253,961	4,312	244,355	125,116
254,976	4,608	244,165	125,248
255,990	4,469	244,024	125,051
257,005	4,449	243,763	124,890
258,020	4,246	243,799	124,734
259,034	4,421	243,569	124,746
260,049	4,402	243,495	124,681
261,063	4,314	243,190	124,443
262,078	4,461	242,920	124,412
263,093	4,522	242,986	124,484
264,107	4,626	242,811	124,467
265,122	4,396	242,575	124,150
266,136	4,411	242,655	124,192
267,151	4,559	242,417	124,179
268,166	4,399	242,001	123,826
269,180	4,367	242,024	123,801
270,195	4,879	242,184	124,282
271,209	5,121	241,880	124,309
272,224	4,489	241,557	123,626
273,239	4,158	241,260	123,199
274,253	4,146	241,069	123,081
275,268	4,560	241,050	123,391
276,282	4,393	240,839	123,138
277,297	4,386	240,676	123,039
278,312	4,204	240,707	122,898
279,326	4,401	240,468	122,922
280,341	4,323	240,328	122,777
281,355	4,460	240,216	122,819
282,370	4,582	240,073	122,831
283,384	4,397	239,903	122,586
284,399	4,329	239,595	122,364
285,414	4,197	239,454	122,177
286,428	4,289	239,329	122,175
287,443	4,573	239,120	122,282
288,457	4,459	239,146	122,194
289,472	4,613	238,884	122,171
290,487	4,484	238,835	122,033
291,501	4,162	238,610	121,653
292,516	4,172	238,329	121,507
293,530	4,071	238,215	121,358
294,545	4,607	238,299	121,813
295,560	4,475	237,993	121,542
296,574	4,071	237,787	121,108
297,589	4,516	237,599	121,351
298,603	4,626	237,598	121,426
299,618	4,468	237,479	121,230
300,633	4,581	237,325	121,230
301,647	4,677	237,211	121,236
302,662	4,936	237,285	121,466
303,676	4,756	237,001	121,169
304,691	4,762	236,834	121,077
305,706	4,924	236,635	121,091
306,720	4,945	236,590	121,074
307,735	4,566	236,406	120,673
308,749	4,464	236,178	120,467
309,764	4,365	235,836	120,204
310,779	4,356	235,700	120,117
311,793	4,146	235,485	119,833
312,808	4,275	235,357	119,857
313,822	4,051	235,259	119,623
314,837	4,221	235,078	119,652
315,852	4,155	234,855	119,477
316,866	4,118	234,809	119,414
317,881	4,311	234,626	119,460
318,895	4,619	234,789	119,771
319,910	4,730	234,635	119,768
320,925	4,598	234,263	119,465
321,939	4,323	233,997	119,107
322,954	4,670	233,971	119,351
323,968	4,373	233,880	119,064
324,983	4,536	233,675	119,075
325,997	4,750	233,702	119,243
327,012	4,695	233,519	119,097
328,027	4,792	233,329	119,064
329,041	4,917	233,205	119,086
330,056	5,317	233,162	119,360
331,070	5,083	233,045	119,111
332,085	4,785	232,655	118,672
333,100	4,699	232,523	118,528
334,114	4,624	232,369	118,382
335,129	4,742	232,309	118,431
336,143	4,886	232,292	118,523
337,158	5,037	232,002	118,479
338,173	4,831	231,670	118,142
339,187	4,433	231,522	117,753
340,202	4,656	231,510	117,906
341,216	4,276	231,474	117,587
342,231	4,428	231,273	117,590
343,246	4,632	231,055	117,624
344,260	4,579	231,069	117,581
345,275	4,676	230,968	117,592
346,289	4,693	230,833	117,525
347,304	4,822	230,521	117,455
348,319	4,877	230,342	117,395
349,333	4,574	230,193	117,078
350,348	4,523	230,033	116,948
351,362	4,551	229,998	116,941
352,377	4,169	229,718	116,500
353,392	4,047	229,467	116,270
354,406	4,212	229,517	116,409
355,421	196,135	1317,243	1394,647
356,435	157,374	1449,722	1394,609
