DTS Sentinel unit serial number:	SN410029Multiplexer serial number:	ORYXHardware model number:	OX2-SRSoftware version number:	ORYX F/W v4,00 Oryx Data Collector v3.7.2.0data status	okinstallation	B5 Nyhavnadifferential loss correction	single-endedforward channel	channel 2reverse channel	N/Adate	2023/12/13time	17:27:13forward acquisition time	300,00reverse acquisition time	0,00gamma	499,1914k internal	0,3158k external	0,3158temperature offset calibration	1,0000default loss term (dB/km)	0,3820temperature slope calibration	1,0000multiplexer offset coefficient	1,0000multiplexer slope coefficient	1,0000fibre end	0,00T internal ref (°C)	13,81T ext. ref 1 (°C)	-3,60T ext. ref 2 (°C)	-3,70length (m)	temperature (°C)	Stokes	anti-Stokes-744,400	-120,238	0,104	-0,013
-743,385	-110,410	-0,303	-0,046
-742,371	570,468	0,055	0,099
-741,356	-105,459	-0,357	0,059
-740,342	87,192	0,159	0,129
-739,327	29,535	-0,196	0,122
-738,312	-75,703	0,072	0,019
-737,298	-91,683	-0,430	-0,089
-736,283	-147,157	0,294	-0,018
-735,269	45,850	-0,212	0,144
-734,254	457,451	0,100	0,164
-733,239	0,870	-0,555	-0,292
-732,225	-30,174	0,100	0,042
-731,210	-2,636	-0,079	-0,041
-730,196	471,631	-0,121	-0,202
-729,181	-200,000	-0,010	-0,060
-728,167	95,619	-0,043	0,036
-727,152	42,623	0,018	0,012
-726,137	18,855	-0,077	0,045
-725,123	-200,000	-0,031	-0,113
-724,108	143,781	-0,110	-0,108
-723,094	373,878	-0,057	-0,086
-722,079	-138,039	-0,072	0,006
-721,064	355,340	0,117	-0,171
-720,050	54,238	-0,021	-0,015
-719,035	500,065	-0,009	-0,016
-718,021	202,155	-0,031	0,036
-717,006	800,000	-0,039	-0,089
-715,991	800,000	-0,052	-0,131
-714,977	-124,173	-0,032	0,004
-713,962	-200,000	0,044	-0,155
-712,948	65,486	-0,105	-0,078
-711,933	800,000	0,020	0,043
-710,918	800,000	-0,009	0,025
-709,904	410,255	-0,119	-0,186
-708,889	-200,000	-0,006	0,081
-707,875	9,269	0,038	-0,021
-706,860	239,872	-0,015	0,019
-705,845	-145,144	-0,148	-0,010
-704,831	460,614	-0,071	0,116
-703,816	288,572	-0,024	-0,032
-702,802	-200,000	0,001	-0,096
-701,787	-109,152	-0,030	-0,005
-700,772	-200,000	0,004	0,174
-699,758	-200,000	-0,005	-0,045
-698,743	800,000	-0,020	0,042
-697,729	800,000	0,023	-0,056
-696,714	-184,097	-0,056	-0,001
-695,699	-38,119	-0,074	-0,029
-694,685	648,811	0,116	-0,219
-693,670	-22,162	-0,124	-0,055
-692,656	-39,978	0,022	-0,008
-691,641	-169,750	-0,122	-0,003
-690,627	55,811	0,095	-0,068
-689,612	4,331	-0,038	0,021
-688,597	-200,000	0,007	-0,079
-687,583	800,000	-0,048	-0,133
-686,568	800,000	0,028	-0,065
-685,554	35,963	0,139	-0,090
-684,539	349,586	-0,036	0,053
-683,524	800,000	0,048	0,140
-682,510	29,833	0,065	0,041
-681,495	-84,244	0,052	0,012
-680,481	-200,000	0,028	0,151
-679,466	-200,000	-0,023	-0,122
-678,451	-200,000	0,000	0,020
-677,437	-9,647	-0,117	0,057
-676,422	261,312	0,116	0,148
-675,408	-82,574	-0,055	-0,013
-674,393	800,000	0,036	-0,084
-673,378	-42,822	-0,139	-0,052
-672,364	-12,337	-0,059	0,028
-671,349	800,000	-0,062	-0,140
-670,335	161,732	0,156	-0,161
-669,320	4,374	-0,051	-0,028
-668,305	-0,708	0,035	0,018
-667,291	800,000	-0,034	0,082
-666,276	-140,455	-0,126	0,009
-665,262	-50,965	-0,198	-0,068
-664,247	-59,123	0,011	0,003
-663,232	37,026	0,059	0,038
-662,218	-156,601	0,048	0,002
-661,203	800,000	0,055	-0,124
-660,189	467,707	-0,047	0,078
-659,174	82,520	-0,072	0,057
-658,159	-200,000	0,008	-0,126
-657,145	-127,809	-0,054	0,006
-656,130	800,000	0,019	-0,062
-655,116	-200,000	0,005	0,046
-654,101	50,110	0,097	-0,067
-653,086	580,287	0,024	-0,044
-652,072	72,482	-0,149	-0,114
-651,057	-65,537	0,069	0,020
-650,043	21,755	-0,043	0,026
-649,028	175,826	-0,087	0,093
-648,014	-200,000	0,022	0,103
-646,999	206,776	-0,058	-0,067
-645,984	-200,000	0,014	-0,067
-644,970	-14,227	-0,084	0,040
-643,955	800,000	-0,029	-0,083
-642,941	800,000	-0,025	0,052
-641,926	-16,445	0,056	-0,026
-640,911	800,000	0,034	-0,071
-639,897	114,252	-0,039	-0,035
-638,882	-140,058	0,046	0,004
-637,868	622,892	0,085	0,157
-636,853	-51,324	-0,115	0,039
-635,838	38,501	-0,110	-0,072
-634,824	-200,000	-0,022	-0,078
-633,809	-200,000	-0,027	0,218
-632,795	800,000	0,029	-0,083
-631,780	-34,189	-0,098	0,039
-630,765	248,652	-0,069	-0,086
-629,751	-16,431	0,064	0,030
-628,736	-7,102	-0,096	-0,047
-627,722	150,599	0,040	-0,040
-626,707	-200,000	0,048	0,161
-625,692	250,755	-0,088	0,110
-624,678	62,710	-0,070	0,051
-623,663	191,780	0,010	-0,011
-622,649	225,801	0,032	-0,038
-621,634	-200,000	-0,001	-0,064
-620,619	800,000	0,047	-0,113
-619,605	-117,748	0,103	-0,013
-618,590	-30,241	0,138	0,057
-617,576	22,081	0,140	0,084
-616,561	800,000	0,025	-0,064
-615,546	800,000	0,063	0,133
-614,532	-2,174	-0,158	0,081
-613,517	-200,000	-0,008	0,030
-612,503	325,134	0,095	0,133
-611,488	-141,466	0,130	-0,010
-610,474	201,785	-0,012	-0,014
-609,459	129,679	0,069	-0,065
-608,444	791,100	-0,044	-0,088
-607,430	800,000	-0,038	-0,106
-606,415	487,907	0,051	0,085
-605,401	388,903	-0,096	0,147
-604,386	-200,000	-0,010	0,082
-603,371	800,000	0,060	0,149
-602,357	-200,000	-0,006	-0,036
-601,342	-200,000	-0,018	-0,074
-600,328	-97,004	-0,127	-0,024
-599,313	-18,044	-0,097	-0,044
-598,298	800,000	-0,026	0,076
-597,284	800,000	0,053	0,135
-596,269	-200,000	0,013	0,096
-595,255	188,401	0,058	-0,064
-594,240	-108,043	-0,066	0,010
-593,225	26,931	-0,051	0,031
-592,211	800,000	-0,079	-0,238
-591,196	146,713	-0,071	-0,070
-590,182	-200,000	0,003	0,048
-589,167	348,385	0,099	0,143
-588,152	-113,184	-0,074	-0,011
-587,138	86,986	-0,086	-0,070
-586,123	83,873	0,064	0,051
-585,109	-18,093	-0,133	0,061
-584,094	800,000	0,023	-0,064
-583,079	800,000	-0,037	-0,075
-582,065	-70,443	0,169	0,046
-581,050	-15,700	0,035	0,016
-580,036	24,132	0,018	0,011
-579,021	-76,394	-0,049	0,013
-578,006	220,454	-0,113	-0,133
-576,992	-200,000	-0,012	0,059
-575,977	-117,641	0,116	-0,015
-574,963	-122,127	0,113	0,013
-573,948	-140,590	-0,155	-0,012
-572,934	-82,457	0,079	-0,019
-571,919	67,771	-0,123	-0,092
-570,904	0,260	-0,036	0,019
-569,890	132,468	-0,053	-0,050
-568,875	-96,025	0,086	0,017
-567,861	-66,931	0,055	-0,016
-566,846	-119,587	0,094	0,012
-565,831	53,342	-0,136	-0,095
-564,817	-200,000	-0,013	-0,073
-563,802	-151,313	-0,099	-0,005
-562,788	-68,623	-0,025	0,007
-561,773	-200,000	0,032	-0,106
-560,758	-200,000	0,025	0,106
-559,744	36,587	-0,068	0,044
-558,729	222,240	0,076	-0,089
-557,715	-55,881	-0,083	0,027
-556,700	-53,327	0,091	-0,030
-555,685	69,258	-0,086	-0,065
-554,671	4,533	-0,065	-0,035
-553,656	44,623	0,102	-0,068
-552,642	-148,209	0,100	-0,006
-551,627	800,000	0,024	0,072
-550,612	239,945	-0,123	-0,151
-549,598	-200,000	0,014	-0,075
-548,583	-98,820	0,218	-0,040
-547,569	266,580	0,014	-0,018
-546,554	-200,000	0,009	0,135
-545,539	73,872	-0,079	0,060
-544,525	800,000	-0,048	0,104
-543,510	800,000	0,018	-0,038
-542,496	-200,000	0,001	-0,084
-541,481	251,539	-0,025	0,032
-540,466	-200,000	0,004	-0,115
-539,452	-101,083	0,138	0,025
-538,437	19,963	0,082	-0,048
-537,423	-99,654	0,091	-0,017
-536,408	-200,000	-0,010	-0,063
-535,393	24,084	-0,048	-0,029
-534,379	-161,065	0,041	-0,002
-533,364	800,000	-0,032	0,103
-532,350	244,918	0,065	-0,080
-531,335	800,000	0,008	-0,016
-530,321	-99,817	0,006	-0,001
-529,306	100,635	-0,055	-0,047
-528,291	70,445	-0,087	0,066
-527,277	232,077	-0,068	-0,082
-526,262	-29,257	-0,044	0,018
-525,248	-200,000	0,001	0,059
-524,233	-21,147	-0,141	-0,063
-523,218	347,769	0,069	0,099
-522,204	205,808	0,017	-0,020
-521,189	-200,000	0,041	-0,156
-520,175	-21,298	0,028	0,012
-519,160	90,524	-0,092	0,076
-518,145	354,147	-0,051	0,074
-517,131	219,452	-0,093	0,109
-516,116	-109,262	0,133	0,020
-515,102	800,000	-0,023	0,058
-514,087	237,753	0,089	-0,108
-513,072	-57,601	0,088	0,028
-512,058	-56,810	-0,080	0,026
-511,043	-189,199	-0,121	-0,001
-510,029	-43,300	-0,041	-0,015
-509,014	473,651	-0,014	0,023
-507,999	-52,967	0,067	0,022
-506,985	800,000	-0,018	0,036
-505,970	-200,000	-0,017	0,094
-504,956	-42,488	-0,055	-0,020
-503,941	194,478	0,062	-0,068
-502,926	-78,181	0,131	0,033
-501,912	401,410	-0,031	0,048
-500,897	-67,462	0,058	0,017
-499,883	48,233	0,005	-0,004
-498,868	-200,000	-0,004	-0,038
-497,853	79,246	-0,027	-0,021
-496,839	566,541	-0,016	0,028
-495,824	-107,459	0,061	-0,010
-494,810	800,000	0,039	0,096
-493,795	275,711	-0,002	0,003
-492,781	163,954	-0,072	0,074
-491,766	84,370	-0,137	-0,109
-490,751	-33,316	0,058	-0,023
-489,737	473,739	0,096	0,158
-488,722	-200,000	-0,016	0,181
-487,708	213,865	-0,035	0,040
-486,693	800,000	0,046	0,108
-485,678	120,890	0,110	-0,100
-484,664	800,000	0,013	-0,040
-483,649	123,208	-0,054	-0,049
-482,635	-112,348	0,026	-0,004
-481,620	1,774	0,079	0,042
-480,605	-200,000	0,025	0,137
-479,591	437,027	-0,034	0,054
-478,576	67,649	-0,013	0,009
-477,562	380,356	-0,071	-0,107
-476,547	800,000	0,001	0,003
-475,532	269,287	-0,024	-0,030
-474,518	118,364	0,080	0,072
-473,503	-93,025	-0,013	-0,003
-472,489	-27,862	-0,085	0,036
-471,474	-159,900	-0,223	0,009
-470,459	-200,000	-0,012	-0,040
-469,445	45,783	0,030	0,020
-468,430	30,132	0,050	0,031
-467,416	-68,245	0,081	-0,023
-466,401	168,431	-0,068	0,071
-465,386	-125,879	0,068	0,007
-464,372	231,239	-0,080	0,096
-463,357	13,695	-0,128	-0,072
-462,343	311,277	-0,053	-0,072
-461,328	323,901	0,012	-0,017
-460,313	266,982	0,091	0,116
-459,299	65,507	0,078	-0,058
-458,284	-200,000	-0,013	-0,089
-457,270	293,983	0,059	-0,079
-456,255	103,472	-0,084	-0,071
-455,241	-200,000	0,070	-0,273
-454,226	800,000	0,021	0,053
-453,211	229,359	0,033	-0,039
-452,197	-76,147	-0,054	0,014
-451,182	492,417	-0,030	0,050
-450,168	800,000	0,019	-0,059
-449,153	-200,000	-0,009	-0,129
-448,138	-200,000	-0,005	0,055
-447,124	-200,000	-0,027	-0,087
-446,109	576,245	0,070	-0,126
-445,095	23,574	-0,090	-0,054
-444,080	-200,000	-0,014	0,148
-443,065	-160,136	-0,114	0,004
-442,051	-36,552	-0,047	-0,019
-441,036	-200,000	-0,013	-0,119
-440,022	25,610	-0,106	0,064
-439,007	-123,698	0,061	-0,007
-437,992	800,000	0,038	0,082
-436,978	34,667	0,133	0,084
-435,963	800,000	-0,026	0,053
-434,949	-50,828	-0,124	-0,042
-433,934	265,429	-0,049	-0,062
-432,919	13,650	0,057	-0,032
-431,905	-20,542	0,004	-0,002
-430,890	247,535	0,025	0,031
-429,876	-38,907	0,070	-0,027
-428,861	248,073	-0,027	0,033
-427,846	-200,000	0,015	-0,050
-426,832	-97,795	-0,080	0,015
-425,817	-147,751	0,107	0,006
-424,803	286,136	0,028	-0,036
-423,788	47,881	-0,116	-0,079
-422,773	-89,445	0,058	-0,012
-421,759	2,906	0,102	-0,053
-420,744	-69,658	-0,116	-0,032
-419,730	52,566	-0,136	-0,094
-418,715	59,345	-0,067	-0,048
-417,701	-200,000	-0,021	-0,086
-416,686	800,000	-0,040	-0,089
-415,671	800,000	0,050	0,101
-414,657	-61,559	0,118	-0,036
-413,642	-200,000	-0,009	-0,159
-412,628	-200,000	0,003	0,033
-411,613	52,472	-0,085	-0,059
-410,598	253,081	-0,050	-0,062
-409,584	316,904	0,017	-0,023
-408,569	-44,217	-0,025	-0,009
-407,555	-84,680	0,110	0,025
-406,540	0,417	-0,064	-0,033
-405,525	94,437	0,026	0,021
-404,511	225,363	0,007	-0,009
-403,496	-200,000	0,034	-0,130
-402,482	-200,000	-0,023	-0,102
-401,467	214,181	-0,031	-0,036
-400,452	135,486	-0,022	0,021
-399,438	-54,801	0,139	0,045
-398,423	-200,000	-0,008	0,093
-397,409	77,711	-0,066	-0,051
-396,394	-86,258	0,075	0,017
-395,379	-200,000	0,015	0,194
-394,365	576,726	-0,007	-0,013
-393,350	87,559	0,098	0,079
-392,336	241,809	-0,080	-0,097
-391,321	-2,857	-0,064	0,032
-390,306	-200,000	0,020	-0,125
-389,292	74,183	-0,049	-0,038
-388,277	275,367	-0,098	-0,127
-387,263	3,561	0,032	0,017
-386,248	-200,000	-0,000	0,009
-385,233	-152,030	0,107	0,006
-384,219	605,472	0,102	-0,186
-383,204	9,239	-0,109	-0,060
-382,190	522,664	-0,025	0,043
-381,175	-200,000	0,018	-0,117
-380,160	-200,000	0,004	0,216
-379,146	-147,277	0,161	-0,010
-378,131	-200,000	0,041	0,161
-377,117	-133,585	-0,178	0,016
-376,102	800,000	-0,011	-0,024
-375,088	551,461	0,035	0,062
-374,073	-200,000	0,022	-0,111
-373,058	-154,504	0,119	-0,006
-372,044	-28,686	0,097	-0,040
-371,029	-200,000	0,004	0,040
-370,015	-27,732	-0,042	0,018
-369,000	226,225	-0,071	-0,083
-367,985	-107,889	-0,152	0,024
-366,971	-34,172	0,037	0,015
-365,956	800,000	0,055	0,157
-364,942	-200,000	-0,024	0,103
-363,927	-200,000	0,013	-0,055
-362,912	91,393	0,104	-0,085
-361,898	43,560	-0,109	0,072
-360,883	-49,316	-0,167	-0,058
-359,869	636,631	0,041	0,076
-358,854	-183,995	0,195	-0,002
-357,839	24,335	0,129	0,077
-356,825	-113,916	-0,053	0,007
-355,810	-33,031	0,064	-0,025
-354,796	-59,015	-0,047	-0,015
-353,781	-200,000	-0,017	0,059
-352,766	-11,025	0,101	-0,048
-351,752	228,045	0,053	-0,063
-350,737	-113,464	0,135	-0,019
-349,723	-45,455	0,083	0,030
-348,708	-93,473	-0,072	0,014
-347,693	-68,046	0,093	0,026
-346,679	-151,519	0,093	0,005
-345,664	-119,077	-0,066	-0,008
-344,650	15,715	0,036	-0,021
-343,635	93,765	0,229	0,188
-342,620	-200,000	0,015	-0,068
-341,606	133,628	0,035	-0,033
-340,591	-96,208	-0,130	0,025
-339,577	-144,806	-0,066	0,004
-338,562	-200,000	0,013	-0,142
-337,548	-200,000	0,033	0,113
-336,533	33,822	0,015	-0,010
-335,518	-38,473	0,079	0,030
-334,504	-90,320	-0,116	0,024
-333,489	217,659	0,031	-0,036
-332,475	800,000	0,042	0,087
-331,460	-90,791	-0,086	0,018
-330,445	-110,377	0,131	0,020
-329,431	-40,499	-0,037	0,014
-328,416	76,979	-0,129	0,099
-327,402	-128,427	0,154	-0,016
-326,387	-200,000	-0,018	0,120
-325,372	578,750	-0,063	0,113
-324,358	-200,000	-0,006	-0,019
-323,343	525,980	0,039	0,066
-322,329	-200,000	-0,001	-0,011
-321,314	282,600	0,128	0,167
-320,299	80,259	-0,079	0,061
-319,285	112,978	0,096	0,085
-318,270	-21,915	0,135	-0,059
-317,256	-200,000	-0,007	-0,096
-316,241	34,154	-0,119	0,075
-315,226	-51,926	0,128	0,043
-314,212	-114,587	0,092	0,013
-313,197	800,000	-0,024	0,070
-312,183	-87,842	-0,027	-0,006
-311,168	-78,098	-0,083	0,021
-310,153	500,975	-0,053	-0,089
-309,139	-200,000	-0,024	-0,114
-308,124	-23,607	-0,080	0,035
-307,110	-200,000	0,023	0,083
-306,095	244,828	0,055	0,068
-305,080	499,423	-0,062	0,104
-304,066	330,542	-0,031	-0,043
-303,051	800,000	0,019	0,039
-302,037	-52,837	-0,201	-0,067
-301,022	-200,000	-0,029	0,181
-300,008	440,705	-0,021	0,033
-298,993	-200,000	-0,020	0,114
-297,978	-56,911	0,059	-0,019
-296,964	204,948	0,033	0,037
-295,949	425,204	-0,036	-0,056
-294,935	45,645	-0,121	-0,081
-293,920	66,366	-0,060	-0,044
-292,905	112,183	0,068	0,059
-291,891	-59,607	0,125	0,039
-290,876	104,492	0,130	0,111
-289,862	289,439	0,030	0,039
-288,847	88,359	-0,066	-0,053
-287,832	-200,000	0,003	-0,077
-286,818	-200,000	0,020	0,187
-285,803	-35,203	0,145	0,057
-284,789	-70,538	-0,044	-0,012
-283,774	-43,128	0,066	0,024
-282,759	-0,046	-0,138	-0,071
-281,745	-200,000	-0,041	-0,145
-280,730	-33,298	-0,047	0,019
-279,716	112,137	0,088	-0,077
-278,701	-200,000	-0,030	-0,124
-277,686	-200,000	0,014	-0,142
-276,672	-5,999	0,226	0,112
-275,657	179,595	-0,101	0,107
-274,643	800,000	-0,022	0,066
-273,628	-78,842	0,027	0,007
-272,613	-179,276	0,091	-0,001
-271,599	-200,000	0,031	-0,169
-270,584	108,136	-0,093	0,080
-269,570	800,000	0,049	0,108
-268,555	247,605	0,092	0,112
-267,540	75,329	0,159	0,121
-266,526	439,729	-0,109	-0,173
-265,511	800,000	0,015	0,037
-264,497	-200,000	-0,003	0,030
-263,482	546,615	-0,059	0,103
-262,467	-200,000	0,029	0,142
-261,453	-162,088	0,068	0,002
-260,438	70,970	-0,141	-0,105
-259,424	-200,000	0,011	0,061
-258,409	-171,867	0,069	0,002
-257,395	-130,745	0,190	-0,018
-256,380	-200,000	0,027	0,136
-255,365	-93,822	0,087	0,017
-254,351	-200,000	0,011	-0,103
-253,336	203,857	0,042	-0,047
-252,322	-124,668	-0,095	-0,010
-251,307	800,000	0,010	-0,029
-250,292	-200,000	0,009	-0,069
-249,278	40,843	0,093	-0,061
-248,263	248,963	0,051	-0,063
-247,249	338,088	-0,050	0,071
-246,234	126,475	0,076	-0,070
-245,219	-142,688	-0,030	-0,002
-244,205	-200,000	-0,022	-0,113
-243,190	-97,801	0,044	-0,008
-242,176	-200,000	0,024	0,084
-241,161	54,327	-0,139	0,097
-240,146	-86,077	-0,099	-0,022
-239,132	-32,409	0,114	-0,046
-238,117	-200,000	0,005	-0,024
-237,103	44,603	0,144	0,095
-236,088	-200,000	-0,012	-0,063
-235,073	-17,373	0,063	0,028
-234,059	-113,272	0,093	-0,013
-233,044	-200,000	-0,004	0,046
-232,030	-130,900	-0,044	0,004
-231,015	102,924	-0,027	-0,023
-230,000	43,146	-0,078	-0,051
-228,986	-81,457	-0,061	-0,014
-227,971	-200,000	0,005	-0,015
-226,957	800,000	0,056	0,125
-225,942	-2,050	0,042	0,021
-224,927	-200,000	-0,010	-0,034
-223,913	-200,000	0,005	-0,068
-222,898	-25,904	-0,134	-0,057
-221,884	-200,000	0,005	-0,152
-220,869	800,000	0,043	0,120
-219,855	214,409	0,015	-0,017
-218,840	-98,788	-0,037	0,007
-217,825	571,461	-0,044	-0,078
-216,811	-200,000	-0,025	0,131
-215,796	205,279	0,024	-0,027
-214,782	252,852	-0,043	-0,053
-213,767	-9,553	0,022	0,011
-212,752	241,037	0,049	-0,060
-211,738	-200,000	-0,007	0,088
-210,723	-0,159	0,021	0,011
-209,709	-200,000	-0,015	-0,053
-208,694	-200,000	0,002	-0,101
-207,679	-122,406	0,079	0,009
-206,665	-200,000	0,001	0,092
-205,650	310,019	-0,094	0,128
-204,636	-35,814	-0,106	0,041
-203,621	153,077	-0,007	-0,006
-202,606	11,582	0,103	0,057
-201,592	143,470	-0,108	-0,104
-200,577	314,424	0,115	-0,157
-199,563	21,065	0,048	-0,028
-198,548	-31,175	-0,034	0,014
-197,533	212,914	0,041	-0,046
-196,519	76,181	-0,101	-0,077
-195,504	161,547	-0,073	0,074
-194,490	305,707	0,081	-0,110
-193,475	-162,233	-0,168	-0,006
-192,460	-83,505	0,014	0,003
-191,446	-200,000	0,012	0,047
-190,431	517,682	0,039	0,066
-189,417	-129,423	-0,040	0,004
-188,402	-122,006	0,077	-0,009
-187,387	-200,000	0,004	-0,073
-186,373	50,995	-0,030	0,021
-185,358	116,152	-0,133	-0,117
-184,344	-200,000	-0,012	-0,053
-183,329	800,000	-0,018	-0,045
-182,315	63,270	0,028	0,020
-181,300	-200,000	-0,003	0,055
-180,285	226,961	-0,025	-0,030
-179,271	800,000	-0,051	-0,130
-178,256	-200,000	-0,005	-0,054
-177,242	92,012	-0,062	0,051
-176,227	230,000	-0,073	0,086
-175,212	-200,000	-0,008	0,186
-174,198	-200,000	-0,083	0,000
-173,183	690,792	-0,040	0,075
-172,169	189,831	0,055	-0,059
-171,154	58,958	-0,014	0,010
-170,139	-109,001	0,046	-0,007
-169,125	-89,058	-0,114	0,024
-168,110	-135,988	0,117	0,010
-167,096	-64,975	-0,092	0,027
-166,081	-130,110	-0,158	-0,015
-165,066	800,000	-0,020	0,055
-164,052	65,338	-0,141	-0,103
-163,037	290,879	0,109	0,143
-162,023	-106,473	0,072	-0,011
-161,008	750,699	-0,055	-0,108
-159,993	-200,000	-0,002	0,090
-158,979	-24,059	-0,037	-0,016
-157,964	800,000	0,059	-0,132
-156,950	149,756	-0,130	-0,127
-155,935	344,975	0,048	-0,068
-154,920	-200,000	-0,021	-0,180
-153,906	148,218	0,043	-0,042
-152,891	-200,000	-0,003	0,044
-151,877	-80,244	0,156	0,037
-150,862	800,000	-0,021	0,043
-149,847	800,000	-0,036	-0,105
-148,833	4,385	-0,051	0,027
-147,818	-115,072	0,163	-0,022
-146,804	-138,284	0,127	-0,010
-145,789	269,180	-0,026	-0,033
-144,775	-30,470	-0,111	-0,045
-143,760	461,972	-0,015	-0,024
-142,745	-200,000	0,002	-0,037
-141,731	14,498	0,073	0,041
-140,716	-11,045	-0,096	-0,045
-139,702	-200,000	-0,034	-0,108
-138,687	-200,000	-0,000	0,070
-137,672	800,000	0,060	-0,144
-136,658	-50,050	-0,078	0,026
-135,643	560,471	-0,081	-0,142
-134,629	460,183	-0,009	-0,014
-133,614	-73,190	0,051	-0,013
-132,599	800,000	0,032	-0,065
-131,585	33,974	-0,042	0,026
-130,570	800,000	0,051	-0,104
-129,556	-126,806	-0,040	-0,004
-128,541	-83,849	0,082	-0,019
-127,526	-200,000	-0,028	0,102
-126,512	183,253	0,088	-0,093
-125,497	-53,082	0,047	-0,016
-124,483	150,417	0,096	-0,094
-123,468	61,024	0,084	0,060
-122,453	513,511	-0,029	0,049
-121,439	-200,000	-0,030	-0,147
-120,424	177,632	-0,033	0,034
-119,410	-117,853	-0,031	-0,004
-118,395	167,047	0,045	-0,046
-117,380	800,000	-0,029	0,082
-116,366	-200,000	0,003	0,016
-115,351	200,089	0,098	-0,108
-114,337	-99,263	-0,108	-0,019
-113,322	13,124	0,146	-0,081
-112,307	414,903	0,028	0,043
-111,293	-200,000	-0,008	0,055
-110,278	-56,391	-0,041	0,013
-109,264	-118,180	0,048	0,006
-108,249	442,816	0,060	0,095
-107,234	-69,930	0,056	0,015
-106,220	800,000	0,059	-0,149
-105,205	106,951	-0,065	0,055
-104,191	-200,000	0,009	0,113
-103,176	449,040	-0,060	-0,095
-102,162	78,846	0,060	-0,046
-101,147	654,162	-0,047	-0,087
-100,132	800,000	-0,025	0,053
-99,118	-108,629	-0,186	0,028
-98,103	800,000	-0,044	0,108
-97,089	-21,544	0,154	0,067
-96,074	19,918	0,057	0,033
-95,059	50,146	-0,115	0,078
-94,045	-200,000	0,018	-0,157
-93,030	-29,252	-0,134	0,055
-92,016	518,832	-0,021	-0,035
-91,001	800,000	-0,044	0,114
-89,986	434,575	0,090	0,141
-88,972	79,214	-0,015	0,011
-87,957	-159,694	-0,160	0,006
-86,943	-200,000	0,017	-0,099
-85,928	5,653	-0,089	-0,047
-84,913	-200,000	-0,008	-0,217
-83,899	279,491	0,186	-0,238
-82,884	-131,052	0,110	0,010
-81,870	-200,000	0,037	0,155
-80,855	96,440	0,074	0,061
-79,840	259,316	0,043	0,054
-78,826	-8,176	0,049	-0,024
-77,811	359,281	-0,033	0,048
-76,797	420,232	-0,046	-0,071
-75,782	-80,403	0,075	-0,018
-74,767	-10,477	-0,109	-0,052
-73,753	-200,000	-0,018	0,065
-72,738	-44,197	0,076	0,027
-71,724	163,059	0,100	0,101
-70,709	243,220	0,048	0,058
-69,694	-16,737	-0,135	0,061
-68,680	5,122	-0,051	0,027
-67,665	-161,889	-0,060	0,002
-66,651	-43,849	0,097	0,035
-65,636	147,757	0,037	-0,036
-64,622	-200,000	0,034	-0,132
-63,607	-106,069	-0,090	0,014
-62,592	-53,075	0,125	0,041
-61,578	-111,928	0,028	0,004
-60,563	50,767	0,184	0,125
-59,549	-200,000	0,006	0,053
-58,534	24,851	-2,156	-1,279
-57,519	-200,000	-0,027	-0,818
-56,505	-200,000	-1,433	-5,135
-55,490	172,493	0,930	0,962
-54,476	800,000	5,326	11,903
-53,461	-200,000	18,794	317,676
-52,446	800,000	741,970	2334,387
-51,432	556,816	1658,154	2878,310
-50,417	111,068	1641,315	1417,902
-49,403	75,539	1291,162	977,066
-48,388	30,451	1031,870	631,270
-47,373	20,071	994,396	573,922
-46,359	17,469	982,273	558,326
-45,344	14,199	978,286	545,275
-44,330	14,460	976,882	545,332
-43,315	13,881	974,860	542,279
-42,300	13,824	973,854	541,512
-41,286	13,825	973,063	541,052
-40,271	13,804	972,032	540,388
-39,257	13,821	971,072	539,888
-38,242	13,830	970,331	539,484
-37,227	13,849	969,316	538,960
-36,213	13,823	968,494	538,397
-35,198	13,768	967,500	537,644
-34,184	13,851	966,815	537,514
-33,169	13,758	965,932	536,700
-32,154	13,777	964,978	536,208
-31,140	13,838	964,013	535,849
-30,125	13,906	963,310	535,659
-29,111	13,853	962,387	534,953
-28,096	13,895	961,797	534,739
-27,082	13,935	960,904	534,351
-26,067	13,888	960,478	533,940
-25,052	13,922	959,550	533,513
-24,038	13,893	959,101	533,148
-23,023	13,812	958,283	532,411
-22,009	13,866	957,645	532,211
-20,994	13,848	956,983	531,764
-19,979	13,863	956,307	531,413
-18,965	13,833	955,732	530,978
-17,950	13,837	955,360	530,763
-16,936	13,802	954,557	530,183
-15,921	13,809	953,949	529,845
-14,906	13,790	953,064	529,274
-13,892	13,716	952,523	528,714
-12,877	13,765	951,771	528,433
-11,863	13,706	951,176	527,893
-10,848	13,721	950,578	527,587
-9,833	13,751	950,144	527,422
-8,819	13,775	949,492	527,116
-7,804	13,729	948,838	526,584
-6,790	13,760	948,173	526,293
-5,775	13,786	947,678	526,082
-4,760	13,743	947,196	525,657
-3,746	13,766	946,532	525,340
-2,731	13,614	945,764	524,407
-1,717	13,575	945,129	523,913
-0,702	13,564	944,591	523,558
0,313	13,366	943,776	523,266
1,327	16,534	941,172	531,814
2,342	25,120	795,690	472,430
3,356	20,698	460,192	266,413
4,371	-6,363	317,300	154,602
5,386	-10,387	299,142	141,625
6,400	-12,566	293,043	136,538
7,415	-12,556	290,727	135,457
8,429	-12,819	289,137	134,444
9,444	-12,753	288,389	134,149
10,459	-12,664	287,752	133,928
11,473	-12,521	287,015	133,714
12,488	-12,615	286,580	133,408
13,502	-12,715	286,009	133,032
14,517	-12,598	285,741	133,009
15,531	-12,266	285,540	133,229
16,546	-11,881	285,086	133,380
17,561	-12,062	284,738	133,029
18,575	-12,109	284,597	132,906
19,590	-12,104	284,062	132,649
20,604	-12,008	283,680	132,552
21,619	-12,115	283,396	132,304
22,634	-11,962	282,866	132,192
23,648	-11,984	282,717	132,089
24,663	-11,992	282,562	131,998
25,677	-11,941	282,099	131,819
26,692	-11,893	281,968	131,792
27,707	-11,982	281,657	131,550
28,721	-12,002	281,561	131,474
29,736	-11,981	281,028	131,234
30,750	-12,122	280,760	130,962
31,765	-12,054	280,577	130,929
32,780	-11,896	280,326	130,951
33,794	-11,984	280,074	130,738
34,809	-12,141	279,906	130,499
35,823	-11,761	279,513	130,666
36,838	-12,107	279,268	130,210
37,853	-12,080	279,029	130,113
38,867	-11,788	278,629	130,192
39,882	-11,879	278,513	130,040
40,896	-11,955	278,308	129,860
41,911	-12,079	278,105	129,637
42,926	-12,012	277,692	129,496
43,940	-12,030	277,565	129,408
44,955	-12,106	277,254	129,180
45,969	-11,951	277,011	129,201
46,984	-12,197	276,912	128,911
47,999	-12,311	276,580	128,637
49,013	-12,345	276,376	128,499
50,028	-12,331	276,181	128,410
51,042	-12,386	275,933	128,231
52,057	-12,282	275,652	128,187
53,071	-12,267	275,346	128,048
54,086	-12,435	275,120	127,774
55,101	-12,400	275,106	127,788
56,115	-12,073	274,704	127,897
57,130	-12,045	274,495	127,814
58,144	-12,039	274,435	127,781
59,159	-12,149	274,066	127,494
60,174	-12,107	273,951	127,469
61,188	-12,101	273,659	127,327
62,203	-11,946	273,360	127,321
63,217	-11,871	273,264	127,335
64,232	-12,046	273,053	127,063
65,247	-12,217	272,754	126,753
66,261	-12,153	272,450	126,660
67,276	-12,024	272,310	126,703
68,290	-12,155	271,991	126,422
69,305	-12,326	271,825	126,175
70,320	-12,099	271,440	126,195
71,334	-12,177	271,483	126,131
72,349	-12,161	271,254	126,029
73,363	-12,041	270,891	125,960
74,378	-12,026	270,799	125,919
75,393	-12,122	270,555	125,707
76,407	-12,196	270,385	125,548
77,422	-12,100	270,011	125,451
78,436	-12,079	269,883	125,400
79,451	-12,157	269,654	125,211
80,466	-12,273	269,511	125,027
81,480	-12,163	269,225	124,984
82,495	-12,135	269,038	124,912
83,509	-12,094	268,903	124,875
84,524	-12,342	268,619	124,506
85,539	-12,136	268,338	124,552
86,553	-12,067	268,170	124,527
87,568	-12,209	267,911	124,266
88,582	-12,085	267,688	124,263
89,597	-12,318	267,492	123,950
90,611	-12,244	267,422	123,974
91,626	-12,117	267,145	123,949
92,641	-12,078	266,952	123,884
93,655	-12,204	266,804	123,690
94,670	-12,159	266,424	123,544
95,684	-12,307	266,322	123,352
96,699	-12,158	266,090	123,368
97,714	-12,166	266,002	123,309
98,728	-12,134	265,643	123,160
99,743	-12,087	265,334	123,048
100,757	-12,083	265,178	122,968
101,772	-12,232	265,099	122,786
102,787	-12,142	264,760	122,700
103,801	-12,311	264,614	122,470
104,816	-12,251	264,322	122,377
105,830	-12,154	264,214	122,404
106,845	-12,043	263,954	122,371
107,860	-12,120	263,786	122,214
108,874	-12,226	263,450	121,952
109,889	-12,354	263,307	121,761
110,903	-12,273	263,154	121,751
111,918	-12,529	263,145	121,508
112,933	-12,311	262,669	121,472
113,947	-12,275	262,755	121,533
114,962	-12,122	262,458	121,521
115,976	-12,269	262,303	121,307
116,991	-12,144	262,043	121,287
118,006	-12,262	261,956	121,131
119,020	-12,136	261,670	121,101
120,035	-12,370	261,712	120,901
121,049	-12,315	261,397	120,793
122,064	-12,135	261,161	120,833
123,079	-12,379	261,114	120,585
124,093	-12,421	260,851	120,415
125,108	-12,322	260,551	120,354
126,122	-12,222	260,353	120,340
127,137	-12,290	260,168	120,184
128,151	-12,267	259,942	120,088
129,166	-12,250	259,677	119,970
130,181	-12,200	259,548	119,944
131,195	-12,119	259,291	119,886
132,210	-12,054	259,115	119,851
133,224	-12,176	258,838	119,605
134,239	-12,330	258,814	119,448
135,254	-12,360	258,448	119,242
136,268	-12,258	258,230	119,220
137,283	-12,355	258,129	119,079
138,297	-12,279	257,925	119,040
139,312	-12,424	257,689	118,794
140,327	-12,266	257,556	118,860
141,341	-12,133	257,477	118,929
142,356	-12,394	257,171	118,550
143,370	-12,421	257,020	118,446
144,385	-12,118	256,950	118,667
145,400	-11,999	256,571	118,585
146,414	-11,939	256,424	118,558
147,429	-12,107	256,298	118,343
148,443	-11,997	256,092	118,333
149,458	-12,234	255,929	118,041
150,473	-12,012	255,610	118,076
151,487	-12,189	255,291	117,765
152,502	-12,163	255,420	117,837
153,516	-11,926	255,137	117,900
154,531	-12,053	255,012	117,722
155,546	-12,021	254,660	117,577
156,560	-12,278	254,724	117,375
157,575	-12,249	254,206	117,150
158,589	-12,228	254,140	117,128
159,604	-12,010	253,975	117,228
160,619	-11,977	253,888	117,206
161,633	-11,771	253,592	117,235
162,648	-11,821	253,477	117,129
163,662	-12,113	253,391	116,829
164,677	-12,328	253,211	116,552
165,692	-12,140	252,893	116,555
166,706	-12,001	252,891	116,663
167,721	-11,680	252,497	116,744
168,735	-11,954	252,503	116,503
169,750	-12,079	252,279	116,282
170,764	-12,036	252,106	116,229
171,779	-11,997	252,014	116,210
172,794	-12,008	251,906	116,141
173,808	-12,136	251,621	115,890
174,823	-12,196	251,327	115,693
175,837	-12,483	251,316	115,434
176,852	-12,225	251,060	115,525
177,867	-12,003	250,756	115,563
178,881	-12,183	250,793	115,417
179,896	-12,118	250,680	115,410
180,910	-12,139	250,392	115,249
181,925	-11,965	250,204	115,299
182,940	-12,144	250,183	115,128
183,954	-11,943	249,829	115,124
184,969	-11,778	249,712	115,199
185,983	-11,764	249,656	115,175
186,998	-11,900	249,436	114,948
188,013	-11,872	249,194	114,850
189,027	-11,927	248,981	114,695
190,042	-11,898	248,669	114,566
191,056	-12,228	248,536	114,218
192,071	-12,169	248,372	114,182
193,086	-12,273	248,103	113,961
194,100	-12,273	247,880	113,849
195,115	-12,239	247,979	113,913
196,129	-12,020	247,773	113,991
197,144	-12,254	247,558	113,687
198,159	-12,147	247,293	113,643
199,173	-12,169	246,952	113,458
200,188	-12,501	246,800	113,103
201,202	-12,819	246,700	112,783
202,217	-12,727	246,473	112,745
203,232	-12,461	246,260	112,858
204,246	-12,580	245,957	112,611
205,261	-13,561	245,400	111,536
206,275	-13,550	245,391	111,530
207,290	-9,822	246,976	115,338
208,304	-2,373	249,424	122,706
209,319	2,157	250,624	127,083
210,334	2,873	250,794	127,757
211,348	3,475	250,610	128,155
212,363	3,623	250,533	128,228
213,377	3,920	250,605	128,501
214,392	4,069	250,519	128,570
215,407	4,194	250,368	128,586
216,421	4,330	250,147	128,574
217,436	4,232	249,905	128,357
218,450	3,974	249,890	128,122
219,465	4,010	249,704	128,046
220,480	3,795	249,460	127,730
221,494	3,838	249,237	127,640
222,509	3,437	249,024	127,188
223,523	3,220	248,834	126,899
224,538	3,237	248,435	126,699
225,553	2,922	248,309	126,362
226,567	2,742	248,093	126,092
227,582	2,903	247,967	126,150
228,596	3,064	247,772	126,172
229,611	2,744	247,568	125,794
230,626	2,745	247,414	125,705
231,640	2,836	247,195	125,657
232,655	2,854	247,100	125,613
233,669	2,796	246,877	125,441
234,684	2,675	246,719	125,250
235,699	2,992	246,685	125,481
236,713	3,003	246,550	125,410
237,728	2,905	246,323	125,203
238,742	2,795	246,212	125,046
239,757	2,995	245,893	125,037
240,772	2,969	245,763	124,937
241,786	2,945	245,663	124,856
242,801	2,805	245,462	124,629
243,815	2,724	245,337	124,487
244,830	2,940	245,317	124,643
245,844	2,830	245,097	124,431
246,859	2,911	244,893	124,382
247,874	2,963	244,752	124,341
248,888	3,027	244,661	124,336
249,903	2,972	244,393	124,144
250,917	3,037	244,293	124,135
251,932	3,280	244,207	124,278
252,947	3,168	244,007	124,074
253,961	2,953	243,713	123,739
254,976	3,059	243,591	123,752
255,990	2,974	243,601	123,677
257,005	3,130	243,298	123,639
258,020	3,084	243,140	123,510
259,034	2,904	243,045	123,305
260,049	2,840	242,850	123,144
261,063	2,850	242,711	123,070
262,078	2,760	242,540	122,900
263,093	3,068	242,478	123,106
264,107	3,014	242,329	122,975
265,122	3,018	241,925	122,763
266,136	2,952	241,904	122,689
267,151	3,127	241,801	122,766
268,166	2,807	241,484	122,337
269,180	2,878	241,254	122,266
270,195	2,973	241,237	122,323
271,209	2,866	241,179	122,198
272,224	2,905	240,931	122,092
273,239	2,814	240,843	121,964
274,253	2,848	240,762	121,939
275,268	2,970	240,386	121,835
276,282	2,895	240,262	121,701
277,297	2,730	240,033	121,443
278,312	2,970	240,040	121,627
279,326	3,034	239,744	121,518
280,341	2,849	239,761	121,367
281,355	2,781	239,641	121,242
282,370	2,957	239,537	121,318
283,384	3,015	239,261	121,214
284,399	2,900	239,074	121,018
285,414	2,852	238,876	120,868
286,428	2,989	238,846	120,951
287,443	3,010	238,654	120,859
288,457	2,902	238,555	120,713
289,472	2,931	238,328	120,610
290,487	2,752	238,192	120,389
291,501	2,593	238,001	120,156
292,516	2,718	237,967	120,227
293,530	2,882	237,876	120,300
294,545	2,790	237,637	120,096
295,560	3,130	237,523	120,295
296,574	2,892	237,317	119,993
297,589	2,973	237,117	119,944
298,603	3,113	237,021	119,995
299,618	2,944	236,854	119,768
300,633	2,914	236,717	119,664
301,647	3,104	236,685	119,786
302,662	3,174	236,509	119,741
303,676	3,073	236,352	119,572
304,691	2,962	236,207	119,402
305,706	3,148	236,031	119,447
306,720	3,098	235,855	119,308
307,735	3,318	235,737	119,409
308,749	2,981	235,576	119,054
309,764	2,792	235,374	118,795
310,779	2,897	235,205	118,781
311,793	2,802	234,887	118,536
312,808	2,731	234,865	118,459
313,822	3,244	234,646	118,736
314,837	3,248	234,574	118,691
315,852	3,082	234,570	118,550
316,866	2,998	234,428	118,403
317,881	2,998	234,165	118,259
318,895	3,071	234,075	118,260
319,910	3,033	233,912	118,138
320,925	3,054	233,725	118,049
321,939	2,831	233,628	117,817
322,954	3,084	233,384	117,879
323,968	3,067	233,165	117,745
324,983	2,851	233,163	117,567
325,997	3,043	232,931	117,587
327,012	3,014	232,874	117,525
328,027	3,190	232,660	117,542
329,041	2,990	232,648	117,372
330,056	3,074	232,467	117,335
331,070	3,074	232,293	117,236
332,085	3,095	232,020	117,104
333,100	2,767	231,869	116,766
334,114	2,989	231,614	116,797
335,129	3,032	231,531	116,778
336,143	3,105	231,416	116,765
337,158	3,073	231,289	116,666
338,173	2,988	231,174	116,533
339,187	3,029	231,035	116,484
340,202	3,065	230,838	116,401
341,216	3,007	230,667	116,261
342,231	2,939	230,633	116,182
343,246	2,925	230,452	116,069
344,260	3,067	230,340	116,111
345,275	3,140	230,196	116,083
346,289	3,262	230,016	116,075
347,304	2,892	230,009	115,780
348,319	3,086	229,712	115,767
349,333	3,054	229,491	115,621
350,348	2,949	229,530	115,551
351,362	2,832	229,384	115,379
352,377	2,976	229,183	115,376
353,392	2,826	228,997	115,159
354,406	2,866	228,859	115,110
355,421	194,824	1318,307	1392,206
356,435	156,248	1450,993	1392,180
