DTS Sentinel unit serial number:	SN410029Multiplexer serial number:	ORYXHardware model number:	OX2-SRSoftware version number:	ORYX F/W v4,00 Oryx Data Collector v3.7.2.0data status	okinstallation	B5 Nyhavnadifferential loss correction	single-endedforward channel	channel 2reverse channel	N/Adate	2023/12/14time	09:37:14forward acquisition time	300,00reverse acquisition time	0,00gamma	499,1914k internal	0,3161k external	0,3161temperature offset calibration	1,0000default loss term (dB/km)	0,3820temperature slope calibration	1,0000multiplexer offset coefficient	1,0000multiplexer slope coefficient	1,0000fibre end	0,00T internal ref (°C)	6,92T ext. ref 1 (°C)	-9,30T ext. ref 2 (°C)	-9,37length (m)	temperature (°C)	Stokes	anti-Stokes-744,400	229,089	0,006	-0,007
-743,385	-1,242	-0,301	-0,156
-742,371	109,325	0,213	0,188
-741,356	-133,648	-0,365	-0,033
-740,342	-33,654	0,300	0,121
-739,327	-40,388	-0,419	-0,159
-738,312	-62,845	0,059	0,018
-737,298	-81,637	-0,463	-0,111
-736,283	50,921	0,109	0,076
-735,269	-88,874	-0,404	-0,088
-734,254	204,970	0,105	0,120
-733,239	-30,218	-0,650	-0,271
-732,225	-120,454	0,343	0,042
-731,210	235,701	0,044	-0,054
-730,196	-133,430	0,047	-0,004
-729,181	-200,000	0,003	0,011
-728,167	20,741	-0,093	-0,055
-727,152	-200,000	-0,021	-0,105
-726,137	495,498	-0,012	0,020
-725,123	738,150	-0,034	-0,067
-724,108	70,863	-0,039	-0,029
-723,094	-200,000	-0,009	-0,134
-722,079	-2,248	-0,122	0,063
-721,064	-200,000	-0,010	-0,035
-720,050	-200,000	0,011	0,061
-719,035	800,000	0,011	-0,032
-718,021	800,000	0,013	0,036
-717,006	-54,138	-0,139	-0,046
-715,991	-181,592	-0,159	-0,002
-714,977	178,929	-0,083	0,089
-713,962	-185,184	0,044	-0,000
-712,948	181,441	-0,167	-0,181
-711,933	353,276	0,080	-0,117
-710,918	35,862	-0,081	0,052
-709,904	800,000	-0,066	-0,186
-708,889	618,524	0,015	-0,028
-707,875	256,874	-0,059	0,074
-706,860	231,634	0,071	-0,085
-705,845	-191,413	0,037	0,000
-704,831	800,000	-0,032	0,093
-703,816	-183,648	0,057	0,001
-702,802	-19,467	-0,136	0,062
-701,787	64,491	-0,129	0,096
-700,772	472,689	-0,097	0,161
-699,758	55,003	-0,048	-0,034
-698,743	192,142	0,058	0,064
-697,729	-174,490	0,023	0,000
-696,714	-200,000	-0,005	0,110
-695,699	31,600	-0,084	-0,053
-694,685	123,566	-0,070	-0,064
-693,670	-200,000	0,004	-0,070
-692,656	-94,116	-0,082	-0,016
-691,641	-76,344	0,152	0,039
-690,627	777,059	-0,042	-0,085
-689,612	-200,000	0,001	0,178
-688,597	800,000	-0,023	-0,068
-687,583	-200,000	-0,015	-0,086
-686,568	109,344	0,017	-0,015
-685,554	245,245	0,020	-0,025
-684,539	7,736	-0,053	-0,029
-683,524	205,997	0,016	-0,018
-682,510	379,784	-0,020	0,031
-681,495	800,000	-0,023	-0,067
-680,481	-200,000	-0,017	-0,092
-679,466	-43,514	-0,120	-0,044
-678,451	472,785	0,059	-0,097
-677,437	-200,000	0,034	-0,150
-676,422	211,284	0,072	-0,083
-675,408	552,526	-0,054	0,095
-674,393	615,286	0,009	0,016
-673,378	275,865	-0,084	-0,110
-672,364	-98,245	-0,110	0,021
-671,349	-44,109	0,086	-0,031
-670,335	576,585	-0,016	-0,029
-669,320	800,000	0,007	0,015
-668,305	290,970	0,094	0,126
-667,291	-38,115	-0,153	0,059
-666,276	-200,000	0,009	0,035
-665,262	227,264	-0,050	0,060
-664,247	800,000	0,005	-0,016
-663,232	-59,652	-0,090	-0,028
-662,218	212,546	0,072	-0,083
-661,203	-160,915	0,075	-0,003
-660,189	50,130	-0,051	-0,035
-659,174	-200,000	0,002	-0,102
-658,159	646,522	0,015	-0,028
-657,145	137,180	-0,126	-0,121
-656,130	380,970	0,045	0,068
-655,116	-85,181	-0,075	-0,017
-654,101	-70,178	-0,048	0,013
-653,086	-135,413	-0,068	-0,006
-652,072	361,007	-0,075	-0,111
-651,057	149,495	-0,048	-0,047
-650,043	-200,000	-0,007	-0,048
-649,028	-82,852	0,095	0,022
-648,014	244,093	-0,031	-0,039
-646,999	-200,000	0,014	-0,049
-645,984	227,545	0,070	-0,084
-644,970	165,961	-0,040	0,042
-643,955	52,295	0,008	-0,006
-642,941	-117,675	0,110	0,014
-641,926	-152,131	-0,058	0,003
-640,911	258,817	0,068	0,086
-639,897	67,804	0,030	-0,022
-638,882	357,668	0,021	-0,030
-637,868	21,397	-0,066	0,039
-636,853	-93,280	0,015	0,003
-635,838	800,000	-0,020	0,045
-634,824	-64,518	0,044	0,013
-633,809	800,000	-0,027	-0,060
-632,795	-105,234	0,058	0,010
-631,780	800,000	0,025	0,067
-630,765	-102,606	-0,163	0,028
-629,751	-32,254	0,133	0,054
-628,736	58,615	-0,172	-0,124
-627,722	798,865	0,017	-0,034
-626,707	-9,688	0,127	-0,062
-625,692	-200,000	0,001	0,039
-624,678	-90,853	-0,130	0,027
-623,663	-200,000	-0,029	0,137
-622,649	-93,750	0,094	0,019
-621,634	39,515	-0,148	0,097
-620,619	-200,000	-0,031	-0,145
-619,605	-64,483	0,154	0,045
-618,590	800,000	0,016	0,036
-617,576	313,488	0,046	0,064
-616,561	43,873	0,085	0,057
-615,546	-200,000	-0,019	-0,146
-614,532	636,967	-0,047	-0,087
-613,517	-64,043	0,103	0,031
-612,503	10,627	-0,095	0,053
-611,488	-42,797	0,092	0,034
-610,474	-200,000	-0,023	-0,088
-609,459	-200,000	0,007	0,184
-608,444	357,943	-0,029	0,042
-607,430	-27,973	-0,052	-0,022
-606,415	-18,967	-0,097	-0,044
-605,401	-26,584	-0,118	0,050
-604,386	303,580	0,036	0,049
-603,371	547,066	-0,032	0,057
-602,357	704,387	0,085	-0,165
-601,342	-67,686	-0,158	0,045
-600,328	159,464	0,099	0,101
-599,313	800,000	-0,034	-0,091
-598,298	-200,000	0,007	0,034
-597,284	387,735	0,081	-0,124
-596,269	0,036	0,086	-0,045
-595,255	-108,287	0,030	-0,005
-594,240	-200,000	0,000	0,031
-593,225	-76,487	-0,044	-0,011
-592,211	-140,859	-0,191	-0,014
-591,196	-200,000	-0,013	0,053
-590,182	413,377	-0,044	0,068
-589,167	109,272	0,057	0,050
-588,152	-149,624	-0,098	-0,006
-587,138	-200,000	0,006	-0,105
-586,123	800,000	0,041	0,097
-585,109	43,395	-0,136	0,090
-584,094	159,176	-0,056	-0,057
-583,079	-163,726	0,118	0,004
-582,065	800,000	0,007	0,023
-581,050	298,719	-0,091	-0,122
-580,036	-74,592	0,093	0,024
-579,021	21,313	-0,038	0,022
-578,006	-200,000	0,010	-0,177
-576,992	-200,000	-0,020	-0,156
-575,977	-65,736	-0,031	-0,009
-574,963	-147,800	-0,074	0,004
-573,948	145,581	-0,025	-0,024
-572,934	41,043	0,065	0,043
-571,919	8,799	-0,062	-0,034
-570,904	-120,524	0,028	0,003
-569,890	13,033	0,110	0,062
-568,875	800,000	0,025	0,071
-567,861	800,000	0,030	0,082
-566,846	-200,000	-0,034	0,145
-565,831	30,086	-0,184	0,115
-564,817	352,098	-0,051	-0,074
-563,802	-12,366	0,030	-0,014
-562,788	57,037	0,005	0,003
-561,773	-67,818	0,025	0,007
-560,758	-119,565	0,073	-0,009
-559,744	16,408	-0,059	-0,034
-558,729	-200,000	0,013	0,054
-557,715	-103,173	-0,060	-0,010
-556,700	-200,000	-0,018	0,059
-555,685	-7,642	-0,100	-0,049
-554,671	790,781	-0,022	-0,044
-553,656	52,153	0,036	0,025
-552,642	-200,000	0,046	0,219
-551,627	800,000	0,012	0,030
-550,612	-200,000	-0,022	0,091
-549,598	800,000	-0,034	-0,098
-548,583	-134,457	-0,092	0,008
-547,569	719,427	0,024	-0,047
-546,554	355,556	0,046	0,067
-545,539	220,120	0,117	0,137
-544,525	800,000	0,068	0,159
-543,510	405,341	-0,051	-0,078
-542,496	63,073	-0,137	0,100
-541,481	414,463	-0,026	-0,040
-540,466	800,000	-0,026	0,073
-539,452	653,336	-0,045	-0,085
-538,437	800,000	0,039	0,098
-537,423	215,204	-0,062	0,072
-536,408	-65,816	-0,046	0,013
-535,393	-200,000	0,007	0,071
-534,379	-83,379	0,077	-0,018
-533,364	313,451	-0,017	0,023
-532,350	-200,000	0,008	-0,186
-531,335	-200,000	0,010	0,130
-530,321	-200,000	-0,010	-0,119
-529,306	154,101	-0,066	0,067
-528,291	-125,335	0,010	0,001
-527,277	-200,000	-0,012	-0,102
-526,262	-200,000	-0,008	0,058
-525,248	-200,000	-0,008	-0,039
-524,233	440,334	0,117	0,188
-523,218	573,120	-0,025	-0,045
-522,204	-10,327	-0,102	-0,049
-521,189	-200,000	0,008	-0,051
-520,175	800,000	-0,034	0,093
-519,160	800,000	0,080	-0,197
-518,145	243,651	-0,047	0,058
-517,131	119,543	-0,052	-0,047
-516,116	-77,533	0,133	-0,033
-515,102	-62,550	-0,068	-0,020
-514,087	-25,953	-0,102	0,044
-513,072	-93,044	-0,099	0,020
-512,058	539,861	0,040	-0,071
-511,043	-200,000	0,020	0,107
-510,029	-95,028	0,181	0,035
-509,014	-98,970	0,070	-0,013
-507,999	-200,000	0,015	0,062
-506,985	-200,000	0,027	-0,095
-505,970	-200,000	-0,010	-0,073
-504,956	-175,277	-0,074	-0,001
-503,941	-200,000	-0,007	0,142
-502,926	-144,075	0,092	0,006
-501,912	285,561	0,012	0,015
-500,897	70,799	0,069	-0,052
-499,883	-159,093	0,077	-0,003
-498,868	-66,102	-0,107	-0,031
-497,853	-65,359	-0,135	-0,039
-496,839	-92,603	-0,041	0,008
-495,824	780,179	-0,040	-0,081
-494,810	-1,684	-0,072	-0,037
-493,795	308,790	0,120	-0,164
-492,781	-200,000	0,022	0,125
-491,766	172,576	-0,068	0,071
-490,751	-200,000	-0,044	-0,145
-489,737	14,024	0,075	0,043
-488,722	3,297	-0,061	0,032
-487,708	-63,143	0,065	0,019
-486,693	-200,000	-0,000	-0,163
-485,678	488,682	-0,040	0,067
-484,664	-28,104	-0,129	0,054
-483,649	34,386	0,059	-0,038
-482,635	128,894	0,033	0,031
-481,620	141,706	0,051	-0,050
-480,605	99,034	-0,099	0,083
-479,591	-47,433	0,142	-0,050
-478,576	552,921	-0,048	0,084
-477,562	-83,326	-0,066	0,015
-476,547	28,126	-0,074	0,046
-475,532	15,062	-0,115	-0,066
-474,518	-124,354	-0,047	-0,005
-473,503	-200,000	0,001	0,050
-472,489	249,300	0,067	0,083
-471,474	-8,984	-0,067	-0,033
-470,459	507,179	-0,061	0,104
-469,445	237,028	0,083	-0,100
-468,430	80,179	-0,084	-0,066
-467,416	119,717	0,039	0,035
-466,401	-200,000	0,013	0,058
-465,386	800,000	0,064	0,162
-464,372	-200,000	0,003	-0,033
-463,357	282,829	0,084	-0,110
-462,343	800,000	-0,069	-0,201
-461,328	800,000	0,031	-0,085
-460,313	-200,000	-0,000	0,073
-459,299	800,000	0,039	0,092
-458,284	-108,362	0,171	0,027
-457,270	-200,000	-0,024	0,205
-456,255	-200,000	-0,003	-0,029
-455,241	-200,000	0,010	-0,104
-454,226	398,935	0,039	-0,060
-453,211	-200,000	0,004	-0,064
-452,197	-164,496	0,032	-0,001
-451,182	-30,239	0,106	-0,044
-450,168	-91,765	-0,058	-0,012
-449,153	-91,024	-0,099	-0,021
-448,138	264,623	-0,044	0,056
-447,124	596,559	-0,098	-0,177
-446,109	-53,998	0,080	-0,026
-445,095	-200,000	0,006	0,041
-444,080	-200,000	0,016	0,094
-443,065	138,728	-0,132	0,126
-442,051	800,000	-0,048	-0,124
-441,036	800,000	0,033	-0,098
-440,022	-200,000	0,002	-0,124
-439,007	32,081	-0,096	-0,060
-437,992	800,000	-0,004	0,011
-436,978	-40,049	0,039	0,015
-435,963	374,069	-0,079	0,118
-434,949	-200,000	0,001	0,156
-433,934	367,270	-0,024	-0,035
-432,919	-74,040	0,071	-0,018
-431,905	171,987	0,042	0,044
-430,890	-148,963	-0,041	-0,002
-429,876	-32,248	0,063	0,026
-428,861	73,654	-0,133	0,101
-427,846	-107,656	0,114	-0,018
-426,832	-115,551	-0,172	0,023
-425,817	680,664	-0,052	-0,098
-424,803	178,486	0,071	-0,076
-423,788	714,864	0,034	0,066
-422,773	50,759	-0,027	0,019
-421,759	-200,000	-0,008	0,081
-420,744	-200,000	0,021	0,082
-419,730	-21,046	-0,100	0,044
-418,715	105,942	-0,086	0,074
-417,701	380,350	-0,021	-0,032
-416,686	23,229	0,087	0,052
-415,671	623,556	0,032	0,058
-414,657	800,000	0,029	0,086
-413,642	-200,000	-0,004	0,016
-412,628	-200,000	-0,015	-0,058
-411,613	636,012	0,017	-0,031
-410,598	-60,854	-0,153	-0,047
-409,584	71,317	0,050	0,038
-408,569	-200,000	-0,036	0,165
-407,555	-200,000	0,021	-0,077
-406,540	800,000	-0,024	-0,059
-405,525	52,195	-0,074	-0,051
-404,511	267,762	-0,025	0,033
-403,496	1,400	-0,026	-0,014
-402,482	-200,000	-0,000	0,021
-401,467	557,333	-0,029	-0,051
-400,452	-64,225	0,060	-0,018
-399,438	234,598	0,084	0,101
-398,423	-200,000	-0,012	-0,083
-397,409	399,391	-0,072	-0,110
-396,394	-200,000	-0,016	-0,082
-395,379	-39,085	0,118	0,045
-394,365	-21,705	0,043	0,019
-393,350	-200,000	0,020	0,118
-392,336	-200,000	-0,046	0,155
-391,321	-200,000	0,040	-0,135
-390,306	157,762	0,107	-0,108
-389,292	800,000	0,053	0,155
-388,277	-73,443	-0,095	-0,025
-387,263	89,264	0,068	0,055
-386,248	-97,013	-0,036	0,007
-385,233	216,617	0,055	-0,063
-384,219	800,000	-0,062	-0,164
-383,204	800,000	-0,024	-0,065
-382,190	-43,782	0,132	-0,048
-381,175	-65,952	0,189	-0,055
-380,160	-83,770	-0,152	0,035
-379,146	11,188	-0,068	-0,038
-378,131	510,642	-0,111	-0,188
-377,117	800,000	-0,027	-0,057
-376,102	-200,000	0,008	-0,115
-375,088	-67,432	0,070	-0,020
-374,073	-200,000	-0,016	-0,095
-373,058	-200,000	0,029	0,146
-372,044	-200,000	-0,001	0,083
-371,029	800,000	-0,013	0,030
-370,015	31,662	-0,067	-0,042
-369,000	-200,000	-0,013	-0,158
-367,985	-200,000	-0,001	0,048
-366,971	-200,000	0,002	-0,063
-365,956	-149,983	-0,037	-0,002
-364,942	-109,902	0,030	0,005
-363,927	-15,152	0,071	-0,033
-362,912	800,000	-0,016	0,040
-361,898	-116,753	0,048	-0,006
-360,883	-200,000	0,004	-0,110
-359,869	-109,080	0,060	-0,009
-358,854	-44,145	0,035	0,013
-357,839	53,311	-0,082	-0,057
-356,825	-80,116	-0,067	-0,016
-355,810	17,645	-0,082	-0,047
-354,796	214,148	0,050	-0,058
-353,781	800,000	-0,060	-0,147
-352,766	-200,000	-0,028	0,092
-351,752	800,000	0,015	-0,044
-350,737	56,887	0,039	-0,028
-349,723	-200,000	0,036	0,163
-348,708	-200,000	0,033	0,144
-347,693	285,481	0,092	-0,120
-346,679	383,546	-0,015	0,022
-345,664	-88,727	0,113	-0,024
-344,650	56,556	0,005	0,004
-343,635	743,834	0,043	-0,084
-342,620	800,000	0,052	0,121
-341,606	-88,165	0,137	-0,029
-340,591	-200,000	0,015	-0,050
-339,577	-22,274	-0,158	0,069
-338,562	-5,615	0,129	-0,064
-337,548	409,390	-0,064	-0,098
-336,533	-186,121	-0,058	-0,001
-335,518	-12,936	0,139	-0,065
-334,504	800,000	0,039	0,105
-333,489	-200,000	0,011	0,058
-332,475	800,000	0,030	-0,072
-331,460	0,425	-0,127	-0,066
-330,445	-43,714	0,044	-0,016
-329,431	-72,204	0,078	-0,021
-328,416	-200,000	-0,011	0,167
-327,402	130,598	0,081	-0,075
-326,387	41,614	-0,063	-0,041
-325,372	-44,362	-0,090	-0,032
-324,358	-200,000	-0,058	-0,231
-323,343	-1,359	0,050	-0,025
-322,329	722,069	0,055	0,106
-321,314	-92,032	0,006	-0,001
-320,299	-117,194	-0,053	0,007
-319,285	-200,000	0,012	0,069
-318,270	-134,800	-0,012	-0,001
-317,256	69,134	-0,058	0,043
-316,241	-200,000	-0,046	0,190
-315,226	259,487	-0,047	-0,058
-314,212	-200,000	0,020	0,000
-313,197	326,275	-0,023	0,032
-312,183	-131,773	0,084	0,008
-311,168	140,473	-0,072	0,069
-310,153	800,000	0,018	0,046
-309,139	95,150	-0,009	-0,007
-308,124	800,000	-0,025	-0,050
-307,110	800,000	0,024	0,072
-306,095	800,000	-0,011	0,035
-305,080	-41,076	0,090	-0,034
-304,066	-66,406	0,077	-0,022
-303,051	-67,437	0,069	-0,020
-302,037	533,350	0,017	-0,028
-301,022	-111,539	0,095	-0,014
-300,008	800,000	0,028	-0,062
-298,993	-54,429	0,125	0,041
-297,978	-200,000	-0,002	0,052
-296,964	800,000	0,028	-0,079
-295,949	-33,804	-0,102	-0,040
-294,935	133,665	0,104	0,098
-293,920	-200,000	-0,012	0,085
-292,905	-200,000	0,006	0,055
-291,891	23,959	-0,057	-0,034
-290,876	-85,241	0,084	0,019
-289,862	-200,000	0,021	0,100
-288,847	41,004	0,149	-0,097
-287,832	-97,909	-0,128	-0,024
-286,818	800,000	-0,058	0,123
-285,803	127,086	-0,040	0,037
-284,789	335,724	-0,045	0,064
-283,774	542,001	0,055	-0,094
-282,759	-102,811	0,096	0,016
-281,745	100,384	0,044	-0,037
-280,730	69,605	0,090	0,067
-279,716	-200,000	0,020	-0,151
-278,701	-200,000	0,028	-0,110
-277,686	-200,000	0,009	0,073
-276,672	-76,794	0,063	-0,016
-275,657	92,141	0,013	-0,010
-274,643	175,128	-0,020	0,021
-273,628	800,000	-0,048	0,128
-272,613	39,021	0,027	-0,017
-271,599	-77,398	0,072	-0,018
-270,584	67,594	-0,060	-0,044
-269,570	325,528	0,061	0,084
-268,555	54,547	-0,107	0,075
-267,540	800,000	-0,017	-0,043
-266,526	-200,000	-0,012	-0,124
-265,511	800,000	-0,049	-0,108
-264,497	366,800	0,044	0,064
-263,482	800,000	0,024	0,073
-262,467	49,413	-0,049	-0,033
-261,453	24,256	-0,042	0,025
-260,438	334,617	-0,070	-0,098
-259,424	-200,000	-0,012	-0,044
-258,409	-200,000	0,006	0,099
-257,395	351,770	0,062	-0,089
-256,380	93,547	0,015	0,012
-255,365	800,000	0,012	-0,029
-254,351	-200,000	-0,004	-0,018
-253,336	31,096	0,113	-0,070
-252,322	-200,000	-0,009	-0,153
-251,307	42,401	-0,064	0,042
-250,292	37,879	-0,137	-0,088
-249,278	58,482	0,104	0,073
-248,263	-27,098	-0,201	-0,084
-247,249	-42,071	0,039	-0,014
-246,234	718,734	-0,035	0,067
-245,219	-200,000	-0,009	-0,057
-244,205	57,585	0,106	-0,075
-243,190	-165,690	-0,086	0,003
-242,176	185,451	-0,022	0,024
-241,161	800,000	-0,021	0,043
-240,146	222,591	-0,063	0,074
-239,132	130,521	0,056	-0,052
-238,117	-25,119	-0,026	-0,011
-237,103	800,000	0,056	-0,149
-236,088	458,485	-0,058	-0,093
-235,073	-42,407	0,098	0,036
-234,059	157,813	0,107	0,107
-233,044	370,916	0,057	0,084
-232,030	147,280	-0,121	-0,118
-231,015	296,898	0,058	-0,077
-230,000	372,937	0,017	-0,025
-228,986	97,858	0,047	0,039
-227,971	-200,000	-0,020	0,163
-226,957	94,833	-0,006	-0,005
-225,942	-173,491	0,127	-0,003
-224,927	-200,000	-0,024	0,113
-223,913	16,640	0,034	-0,019
-222,898	14,117	-0,062	0,034
-221,884	-200,000	-0,007	-0,126
-220,869	-200,000	-0,025	-0,096
-219,855	176,787	-0,023	0,025
-218,840	145,952	0,056	-0,054
-217,825	91,446	-0,101	-0,082
-216,811	466,381	-0,030	-0,048
-215,796	116,910	0,125	-0,111
-214,782	47,195	-0,072	-0,048
-213,767	297,886	0,057	-0,075
-212,752	90,930	-0,114	0,092
-211,738	-52,274	-0,036	0,012
-210,723	51,785	0,068	-0,047
-209,709	-200,000	0,003	0,012
-208,694	-135,800	-0,143	0,012
-207,679	322,077	-0,085	0,118
-206,665	59,929	0,166	0,118
-205,650	-200,000	0,012	0,055
-204,636	140,145	0,066	0,063
-203,621	755,533	0,054	0,105
-202,606	87,950	-0,173	0,138
-201,592	21,690	0,027	-0,016
-200,577	-23,555	-0,094	-0,040
-199,563	112,986	-0,064	0,056
-198,548	81,970	0,062	0,049
-197,533	155,419	0,063	0,062
-196,519	-43,834	0,090	-0,033
-195,504	-52,924	-0,096	-0,032
-194,490	210,439	-0,072	-0,082
-193,475	76,909	-0,069	-0,053
-192,460	-200,000	0,003	-0,011
-191,446	799,938	0,081	-0,161
-190,431	187,246	0,013	0,014
-189,417	-102,741	0,123	-0,021
-188,402	-99,454	0,081	-0,015
-187,387	516,026	-0,050	-0,084
-186,373	800,000	-0,023	0,052
-185,358	-200,000	0,002	0,128
-184,344	217,736	0,077	-0,088
-183,329	81,361	0,081	-0,063
-182,315	800,000	0,057	0,115
-181,300	-95,606	-0,064	0,012
-180,285	-105,296	-0,088	0,014
-179,271	490,781	0,049	-0,081
-178,256	-184,619	0,100	-0,001
-177,242	163,136	-0,041	-0,041
-176,227	167,931	-0,078	0,080
-175,212	800,000	0,020	0,047
-174,198	203,580	-0,044	-0,049
-173,183	-77,174	-0,082	0,020
-172,169	-4,863	0,042	-0,021
-171,154	-77,862	0,116	0,029
-170,139	-163,101	0,122	0,004
-169,125	800,000	-0,027	-0,078
-168,110	-200,000	-0,019	0,064
-167,096	-148,733	0,013	0,001
-166,081	-121,886	-0,077	0,009
-165,066	54,679	0,032	0,022
-164,052	88,067	0,059	-0,047
-163,037	800,000	-0,037	0,096
-162,023	212,204	-0,079	0,089
-161,008	-139,059	-0,067	0,005
-159,993	298,251	0,017	0,022
-158,979	60,432	-0,075	-0,053
-157,964	43,903	-0,058	0,038
-156,950	-51,023	0,098	-0,033
-155,935	24,472	0,053	0,032
-154,920	-32,637	0,015	0,006
-153,906	-41,094	0,027	0,010
-152,891	-200,000	-0,002	0,061
-151,877	-200,000	-0,001	0,012
-150,862	87,343	0,043	0,034
-149,847	-168,402	-0,046	-0,001
-148,833	-200,000	-0,002	0,068
-147,818	16,968	0,154	-0,088
-146,804	-0,001	0,050	0,025
-145,789	103,337	-0,089	0,075
-144,775	38,941	-0,165	-0,106
-143,760	-86,117	-0,096	-0,021
-142,745	137,103	-0,053	-0,050
-141,731	165,459	0,063	-0,064
-140,716	-81,416	0,134	0,031
-139,702	-126,166	-0,106	0,011
-138,687	800,000	-0,046	0,127
-137,672	764,767	0,017	0,033
-136,658	-200,000	0,022	-0,096
-135,643	597,962	-0,019	-0,034
-134,629	-200,000	-0,012	0,066
-133,614	-47,542	-0,063	0,022
-132,599	8,231	-0,106	-0,057
-131,585	-200,000	0,041	0,157
-130,570	800,000	-0,021	0,054
-129,556	309,865	0,031	-0,042
-128,541	800,000	0,012	-0,029
-127,526	-160,996	0,133	-0,005
-126,512	-200,000	-0,008	-0,063
-125,497	-87,743	0,103	-0,022
-124,483	105,059	-0,106	-0,090
-123,468	-189,725	0,088	-0,001
-122,453	800,000	-0,033	-0,081
-121,439	-92,443	-0,081	0,016
-120,424	800,000	-0,008	-0,016
-119,410	-200,000	-0,036	0,147
-118,395	441,230	0,092	0,146
-117,380	800,000	0,023	-0,070
-116,366	-61,502	0,067	0,020
-115,351	188,672	-0,098	-0,106
-114,337	22,188	-0,031	0,018
-113,322	81,131	-0,081	0,063
-112,307	-97,816	0,065	-0,012
-111,293	-200,000	-0,032	-0,135
-110,278	-200,000	-0,030	0,230
-109,264	298,295	-0,025	0,033
-108,249	504,229	0,060	-0,101
-107,234	402,907	-0,035	-0,053
-106,220	-83,860	-0,117	-0,027
-105,205	-200,000	-0,007	0,023
-104,191	125,710	-0,042	-0,038
-103,176	-62,142	-0,139	0,041
-102,162	12,572	0,038	-0,021
-101,147	549,766	-0,067	0,117
-100,132	-200,000	0,018	-0,079
-99,118	-46,156	-0,132	0,047
-98,103	-34,931	0,072	-0,028
-97,089	-51,026	0,109	0,036
-96,074	-200,000	-0,036	-0,121
-95,059	596,726	0,050	-0,090
-94,045	265,886	-0,022	-0,028
-93,030	-28,022	-0,133	0,055
-92,016	126,788	-0,050	-0,046
-91,001	99,423	-0,033	0,027
-89,986	-39,533	0,130	-0,048
-88,972	-139,554	-0,079	-0,006
-87,957	-18,856	-0,065	-0,029
-86,943	675,488	-0,026	-0,048
-85,928	-200,000	0,034	-0,171
-84,913	-84,417	-0,197	0,044
-83,899	577,983	0,042	0,075
-82,884	136,409	0,085	-0,079
-81,870	-137,007	-0,057	0,005
-80,855	-87,525	0,065	0,014
-79,840	-28,130	0,028	-0,012
-78,826	800,000	-0,030	0,079
-77,811	210,125	0,030	0,034
-76,797	321,610	0,024	0,033
-75,782	514,453	-0,017	0,029
-74,767	-175,212	0,153	0,003
-73,753	217,706	-0,123	-0,141
-72,738	22,385	-0,070	0,041
-71,724	768,083	-0,053	-0,104
-70,709	-200,000	-0,027	0,099
-69,694	-54,079	-0,069	0,022
-68,680	-200,000	-0,023	0,217
-67,665	-58,623	-0,042	0,013
-66,651	98,764	-0,068	-0,057
-65,636	-142,070	0,045	0,003
-64,622	-200,000	-0,022	-0,154
-63,607	-200,000	0,012	-0,171
-62,592	-200,000	-0,010	-0,150
-61,578	-200,000	0,001	-0,029
-60,563	-174,699	0,100	0,002
-59,549	-200,000	-0,021	-0,113
-58,534	93,075	-2,841	-2,302
-57,519	-79,854	0,535	-0,128
-56,505	800,000	-1,848	-5,538
-55,490	453,028	1,285	2,045
-54,476	800,000	5,131	11,026
-53,461	-200,000	23,089	349,239
-52,446	800,000	766,531	2264,935
-51,432	496,161	1642,891	2717,746
-50,417	92,809	1597,761	1292,689
-49,403	60,324	1252,812	887,447
-48,388	20,901	1005,458	582,700
-47,373	18,342	973,189	555,634
-46,359	11,706	959,876	526,576
-45,344	7,618	956,641	511,561
-44,330	7,958	954,415	511,448
-43,315	7,001	952,874	507,516
-42,300	6,960	951,673	506,723
-41,286	6,937	950,661	506,090
-40,271	6,951	949,790	505,652
-39,257	6,944	948,893	505,132
-38,242	6,982	947,917	504,714
-37,227	6,974	947,064	504,213
-36,213	6,924	946,229	503,590
-35,198	6,953	945,399	503,221
-34,184	6,993	944,699	502,956
-33,169	6,916	943,672	502,144
-32,154	6,972	943,011	501,949
-31,140	6,963	942,111	501,422
-30,125	6,941	941,425	500,968
-29,111	6,979	940,562	500,610
-28,096	6,991	939,967	500,311
-27,082	6,953	939,534	499,941
-26,067	6,942	938,635	499,405
-25,052	6,907	937,719	498,789
-24,038	6,930	937,026	498,472
-23,023	6,901	936,523	498,093
-22,009	6,960	935,857	497,907
-20,994	6,943	935,214	497,492
-19,979	6,944	934,737	497,221
-18,965	7,016	933,801	496,931
-17,950	6,970	933,300	496,498
-16,936	6,885	932,776	495,931
-15,921	6,910	932,086	495,624
-14,906	6,869	931,413	495,116
-13,892	6,849	930,800	494,708
-12,877	6,839	930,137	494,304
-11,863	6,821	929,661	493,974
-10,848	6,816	929,133	493,660
-9,833	6,933	928,418	493,627
-8,819	6,918	927,820	493,244
-7,804	6,879	927,088	492,714
-6,790	6,836	926,639	492,318
-5,775	6,928	926,157	492,331
-4,760	6,909	925,427	491,865
-3,746	6,808	925,105	491,358
-2,731	6,690	924,339	490,564
-1,717	6,695	923,559	490,144
-0,702	6,706	923,177	489,957
0,313	6,527	922,355	489,702
1,327	9,955	919,824	498,982
2,342	18,540	768,828	439,248
3,356	13,247	442,443	244,885
4,371	-12,519	310,378	144,584
5,386	-16,078	293,153	132,976
6,400	-18,506	287,135	127,845
7,415	-18,375	284,446	126,764
8,429	-19,278	282,652	125,078
9,444	-19,108	281,729	124,823
10,459	-19,136	281,127	124,519
11,473	-19,229	280,533	124,154
12,488	-19,115	280,015	124,023
13,502	-19,241	279,542	123,683
14,517	-19,127	279,234	123,644
15,531	-19,132	278,612	123,353
16,546	-19,071	278,325	123,273
17,561	-19,017	277,974	123,158
18,575	-18,818	277,626	123,183
19,590	-19,044	277,294	122,809
20,604	-18,924	276,998	122,781
21,619	-18,864	276,590	122,647
22,634	-18,993	276,255	122,365
23,648	-18,930	275,799	122,211
24,663	-18,871	275,812	122,262
25,677	-18,820	275,233	122,042
26,692	-18,964	275,194	121,879
27,707	-19,078	274,892	121,627
28,721	-18,997	274,585	121,556
29,736	-18,791	274,285	121,606
30,750	-18,968	274,071	121,334
31,765	-18,977	273,714	121,157
32,780	-18,922	273,595	121,144
33,794	-18,985	273,383	120,981
34,809	-18,963	273,110	120,870
35,823	-18,941	272,671	120,685
36,838	-18,917	272,519	120,630
37,853	-18,959	272,231	120,452
38,867	-19,021	272,141	120,344
39,882	-19,142	271,970	120,146
40,896	-18,984	271,567	120,103
41,911	-18,801	271,197	120,099
42,926	-18,825	270,950	119,957
43,940	-18,827	270,818	119,885
44,955	-18,828	270,443	119,708
45,969	-18,993	270,318	119,490
46,984	-18,773	270,175	119,619
47,999	-18,834	270,002	119,475
49,013	-18,881	269,937	119,392
50,028	-18,724	269,549	119,354
51,042	-18,755	269,434	119,264
52,057	-18,789	269,080	119,066
53,071	-18,828	268,859	118,922
54,086	-18,880	268,654	118,773
55,101	-18,653	268,376	118,847
56,115	-18,916	268,153	118,497
57,130	-18,820	267,931	118,476
58,144	-18,818	267,539	118,294
59,159	-18,925	267,320	118,089
60,174	-19,055	267,145	117,883
61,188	-18,909	266,859	117,879
62,203	-18,892	266,689	117,809
63,217	-18,883	266,397	117,678
64,232	-18,969	266,357	117,572
65,247	-18,970	266,091	117,443
66,261	-18,881	265,826	117,396
67,276	-18,971	265,626	117,215
68,290	-18,794	265,277	117,211
69,305	-18,902	265,057	117,006
70,320	-18,933	264,987	116,937
71,334	-18,875	264,595	116,805
72,349	-19,124	264,357	116,465
73,363	-18,948	264,098	116,499
74,378	-18,778	263,850	116,533
75,393	-18,890	263,793	116,396
76,407	-18,901	263,652	116,314
77,422	-18,640	263,313	116,388
78,436	-19,001	262,962	115,899
79,451	-18,901	262,893	115,948
80,466	-19,050	262,652	115,698
81,480	-18,856	262,477	115,784
82,495	-18,832	262,168	115,659
83,509	-18,807	262,018	115,604
84,524	-18,850	261,933	115,518
85,539	-18,688	261,417	115,425
86,553	-18,687	261,228	115,332
87,568	-19,022	261,256	115,037
88,582	-18,899	260,889	114,974
89,597	-18,770	260,843	115,058
90,611	-18,933	260,582	114,788
91,626	-18,810	260,322	114,772
92,641	-18,867	260,043	114,588
93,655	-18,789	260,017	114,636
94,670	-18,799	259,549	114,410
95,684	-18,894	259,481	114,286
96,699	-18,873	259,303	114,216
97,714	-18,808	259,176	114,207
98,728	-18,826	258,970	114,091
99,743	-18,579	258,654	114,158
100,757	-18,854	258,584	113,875
101,772	-18,954	258,306	113,655
102,787	-18,762	257,993	113,676
103,801	-18,683	257,768	113,635
104,816	-18,783	257,604	113,465
105,830	-18,730	257,341	113,386
106,845	-18,814	257,236	113,256
107,860	-18,686	256,967	113,240
108,874	-18,752	256,825	113,109
109,889	-18,974	256,686	112,844
110,903	-18,840	256,359	112,807
111,918	-18,922	256,281	112,691
112,933	-19,042	256,080	112,488
113,947	-18,779	255,830	112,598
114,962	-18,825	255,665	112,474
115,976	-19,012	255,516	112,237
116,991	-18,648	255,022	112,325
118,006	-18,819	255,041	112,175
119,020	-18,887	254,941	112,062
120,035	-18,901	254,735	111,949
121,049	-18,841	254,664	111,960
122,064	-18,926	254,407	111,764
123,079	-18,776	254,005	111,706
124,093	-18,666	253,810	111,706
125,108	-18,626	253,626	111,650
126,122	-18,738	253,501	111,488
127,137	-18,589	253,272	111,505
128,151	-18,567	253,157	111,463
129,166	-18,743	252,909	111,193
130,181	-18,744	252,695	111,088
131,195	-18,893	252,468	110,852
132,210	-18,751	252,282	110,881
133,224	-18,680	252,019	110,817
134,239	-18,745	251,856	110,679
135,254	-18,715	251,690	110,622
136,268	-18,708	251,516	110,542
137,283	-18,840	251,265	110,309
138,297	-18,580	251,045	110,423
139,312	-18,492	250,696	110,336
140,327	-19,036	250,803	109,910
141,341	-18,866	250,402	109,869
142,356	-18,900	250,384	109,823
143,370	-18,714	249,899	109,758
144,385	-18,767	250,025	109,758
145,400	-18,804	249,685	109,568
146,414	-18,742	249,301	109,442
147,429	-18,675	249,084	109,393
148,443	-18,649	249,078	109,403
149,458	-18,756	248,885	109,218
150,473	-18,571	248,631	109,253
151,487	-18,776	248,599	109,056
152,502	-18,802	248,312	108,899
153,516	-18,925	248,142	108,711
154,531	-18,615	247,961	108,883
155,546	-18,708	247,848	108,745
156,560	-18,639	247,708	108,732
157,575	-18,896	247,550	108,437
158,589	-18,697	247,324	108,495
159,604	-18,911	247,012	108,170
160,619	-18,771	246,903	108,230
161,633	-18,726	246,723	108,178
162,648	-18,683	246,464	108,091
163,662	-18,738	246,413	108,014
164,677	-18,737	246,239	107,928
165,692	-18,662	246,080	107,911
166,706	-18,766	245,829	107,705
167,721	-18,536	245,614	107,792
168,735	-18,621	245,532	107,676
169,750	-18,747	245,398	107,504
170,764	-18,739	245,304	107,460
171,779	-18,645	245,033	107,409
172,794	-18,745	245,027	107,314
173,808	-18,650	244,629	107,209
174,823	-18,627	244,647	107,226
175,837	-18,551	244,409	107,175
176,852	-18,523	243,992	107,006
177,867	-18,683	243,979	106,858
178,881	-18,648	243,854	106,822
179,896	-18,553	243,562	106,763
180,910	-18,659	243,305	106,554
181,925	-18,829	243,343	106,422
182,940	-18,694	243,297	106,503
183,954	-18,619	242,966	106,410
184,969	-18,698	242,813	106,269
185,983	-18,732	242,655	106,163
186,998	-18,638	242,553	106,185
188,013	-18,652	242,222	106,019
189,027	-18,599	242,047	105,976
190,042	-18,638	241,736	105,799
191,056	-18,660	241,592	105,709
192,071	-18,657	241,461	105,644
193,086	-18,548	241,379	105,687
194,100	-18,623	241,111	105,500
195,115	-18,707	240,914	105,336
196,129	-18,774	240,808	105,226
197,144	-18,770	240,562	105,113
198,159	-18,852	240,394	104,963
199,173	-18,597	240,213	105,081
200,188	-18,755	240,079	104,886
201,202	-18,497	239,832	104,977
202,217	-18,612	239,745	104,836
203,232	-18,540	239,604	104,823
204,246	-18,651	239,309	104,596
205,261	-18,510	239,100	104,608
206,275	-17,062	239,715	106,038
207,290	-11,979	241,615	111,001
208,304	-5,407	243,637	117,295
209,319	-2,453	244,412	120,076
210,334	-1,442	244,520	120,945
211,348	-0,607	244,611	121,663
212,363	0,110	244,727	122,295
213,377	0,423	244,594	122,474
214,392	0,679	244,507	122,629
215,407	0,831	244,464	122,720
216,421	0,843	244,270	122,622
217,436	0,882	244,217	122,616
218,450	0,888	244,054	122,529
219,465	1,064	243,882	122,574
220,480	1,149	243,869	122,626
221,494	0,849	243,608	122,240
222,509	0,576	243,227	121,816
223,523	0,448	243,186	121,680
224,538	0,491	242,812	121,518
225,553	0,450	242,713	121,424
226,567	0,351	242,509	121,231
227,582	0,254	242,323	121,049
228,596	0,303	242,413	121,122
229,611	0,505	242,080	121,109
230,626	0,236	242,098	120,890
231,640	0,391	241,714	120,812
232,655	0,287	241,551	120,636
233,669	0,253	241,489	120,567
234,684	0,388	241,186	120,513
235,699	0,216	241,113	120,328
236,713	0,400	240,902	120,360
237,728	0,376	240,805	120,281
238,742	0,443	240,632	120,238
239,757	0,314	240,489	120,052
240,772	0,443	240,361	120,081
241,786	0,397	240,082	119,894
242,801	0,475	239,990	119,900
243,815	0,165	240,052	119,672
244,830	0,247	239,786	119,595
245,844	0,362	239,630	119,598
246,859	0,384	239,214	119,396
247,874	0,265	239,219	119,294
248,888	0,334	239,050	119,254
249,903	0,277	238,901	119,123
250,917	0,335	238,722	119,070
251,932	0,575	238,539	119,158
252,947	0,327	238,528	118,945
253,961	0,483	238,278	118,934
254,976	0,391	238,210	118,817
255,990	0,569	237,940	118,812
257,005	0,422	237,883	118,657
258,020	0,517	237,715	118,637
259,034	0,378	237,553	118,436
260,049	0,434	237,232	118,309
261,063	0,315	237,233	118,206
262,078	0,311	237,045	118,099
263,093	0,187	236,973	117,954
264,107	0,319	236,760	117,942
265,122	0,394	236,552	117,887
266,136	0,663	236,369	117,997
267,151	0,454	236,438	117,856
268,166	0,423	236,144	117,674
269,180	0,406	235,899	117,529
270,195	0,389	235,827	117,469
271,209	0,471	235,730	117,475
272,224	0,340	235,483	117,239
273,239	0,384	235,388	117,215
274,253	0,510	235,300	117,260
275,268	0,237	235,164	116,968
276,282	0,594	234,826	117,068
277,297	0,361	234,685	116,806
278,312	0,482	234,562	116,828
279,326	0,526	234,438	116,790
280,341	0,522	234,316	116,716
281,355	0,292	234,195	116,466
282,370	0,487	234,041	116,531
283,384	0,551	233,805	116,452
284,399	0,548	233,747	116,411
285,414	0,320	233,665	116,183
286,428	0,377	233,429	116,099
287,443	0,375	233,323	116,035
288,457	0,336	233,202	115,934
289,472	0,758	232,935	116,117
290,487	0,435	232,925	115,852
291,501	0,295	232,728	115,636
292,516	0,234	232,703	115,566
293,530	0,528	232,451	115,657
294,545	0,641	232,232	115,624
295,560	0,458	232,070	115,393
296,574	0,470	231,965	115,340
297,589	0,641	231,875	115,416
298,603	0,737	231,642	115,363
299,618	0,605	231,413	115,138
300,633	0,577	231,397	115,098
301,647	0,688	231,355	115,152
302,662	0,661	231,145	115,017
303,676	0,848	230,986	115,070
304,691	0,665	230,775	114,815
305,706	0,536	230,720	114,679
306,720	0,808	230,582	114,808
307,735	0,776	230,178	114,572
308,749	0,640	230,326	114,532
309,764	0,625	229,943	114,320
310,779	0,591	229,856	114,241
311,793	0,804	229,736	114,333
312,808	0,579	229,622	114,095
313,822	0,749	229,381	114,094
314,837	0,839	229,296	114,109
315,852	0,829	229,090	113,990
316,866	0,700	229,009	113,841
317,881	0,774	228,950	113,858
318,895	0,568	228,891	113,662
319,910	0,742	228,520	113,599
320,925	0,702	228,375	113,487
321,939	0,782	228,250	113,475
322,954	0,809	228,068	113,395
323,968	0,688	228,037	113,278
324,983	0,794	227,837	113,249
325,997	0,571	227,797	113,051
327,012	0,578	227,642	112,969
328,027	0,614	227,511	112,921
329,041	0,654	227,350	112,861
330,056	0,765	227,136	112,828
331,070	0,901	227,073	112,889
332,085	0,720	226,830	112,622
333,100	0,640	226,678	112,477
334,114	0,825	226,613	112,573
335,129	0,832	226,294	112,410
336,143	0,589	226,252	112,197
337,158	0,769	226,139	112,266
338,173	0,844	225,955	112,220
339,187	0,794	225,979	112,185
340,202	0,758	225,702	112,011
341,216	0,844	225,543	111,985
342,231	0,722	225,537	111,882
343,246	1,078	225,275	112,007
344,260	0,973	225,015	111,790
345,275	0,860	225,074	111,725
346,289	0,887	224,989	111,693
347,304	0,907	224,734	111,571
348,319	0,877	224,500	111,423
349,333	0,830	224,321	111,289
350,348	0,904	224,189	111,268
351,362	1,024	224,179	111,342
352,377	0,920	224,118	111,225
353,392	0,877	223,917	111,083
354,406	0,980	223,634	111,010
355,421	192,250	1308,324	1372,531
356,435	153,962	1440,306	1372,349
