DTS Sentinel unit serial number:	SN410029Multiplexer serial number:	ORYXHardware model number:	OX2-SRSoftware version number:	ORYX F/W v4,00 Oryx Data Collector v3.7.2.0data status	okinstallation	B5 Nyhavnadifferential loss correction	single-endedforward channel	channel 2reverse channel	N/Adate	2023/12/11time	20:02:13forward acquisition time	300,00reverse acquisition time	0,00gamma	499,1914k internal	0,3159k external	0,3159temperature offset calibration	1,0000default loss term (dB/km)	0,3820temperature slope calibration	1,0000multiplexer offset coefficient	1,0000multiplexer slope coefficient	1,0000fibre end	0,00T internal ref (°C)	15,86T ext. ref 1 (°C)	0,09T ext. ref 2 (°C)	-0,17length (m)	temperature (°C)	Stokes	anti-Stokes-744,400	-128,947	0,139	-0,014
-743,385	-66,455	-0,264	-0,077
-742,371	-167,847	0,115	0,003
-741,356	-131,729	-0,247	0,024
-740,342	-111,871	0,147	0,022
-739,327	-182,011	-0,318	0,004
-738,312	553,328	0,058	-0,102
-737,298	-34,684	-0,305	-0,122
-736,283	-4,616	0,205	-0,104
-735,269	-48,367	-0,275	0,097
-734,254	-93,051	0,116	-0,024
-733,239	-41,651	-0,431	-0,162
-732,225	-48,213	0,194	0,069
-731,210	-100,351	-0,093	0,017
-730,196	120,215	0,050	0,046
-729,181	651,770	-0,046	-0,088
-728,167	9,600	-0,064	0,035
-727,152	-200,000	-0,008	-0,065
-726,137	218,916	-0,026	-0,031
-725,123	-200,000	-0,004	-0,153
-724,108	-200,000	0,011	-0,074
-723,094	39,557	-0,119	-0,078
-722,079	-200,000	0,015	-0,130
-721,064	328,096	-0,023	-0,033
-720,050	-128,473	-0,081	-0,008
-719,035	196,804	0,039	-0,043
-718,021	-0,479	-0,019	-0,010
-717,006	-117,850	-0,207	0,027
-715,991	800,000	-0,028	-0,066
-714,977	-121,141	-0,093	0,011
-713,962	-200,000	0,004	-0,035
-712,948	-85,582	0,077	0,017
-711,933	-200,000	-0,019	0,122
-710,918	-200,000	-0,022	-0,132
-709,904	-111,107	-0,019	0,003
-708,889	800,000	0,008	0,017
-707,875	170,953	-0,084	-0,089
-706,860	-200,000	-0,023	0,117
-705,845	669,394	-0,046	0,088
-704,831	800,000	-0,013	-0,027
-703,816	210,909	0,099	-0,115
-702,802	-200,000	0,001	-0,037
-701,787	606,989	-0,064	-0,117
-700,772	-200,000	0,017	-0,084
-699,758	296,494	0,026	-0,035
-698,743	389,551	0,040	-0,061
-697,729	249,005	0,070	0,087
-696,714	-128,029	-0,045	-0,005
-695,699	-81,551	0,091	0,022
-694,685	-41,871	-0,127	-0,048
-693,670	-200,000	-0,055	-0,224
-692,656	-128,980	0,135	-0,014
-691,641	-200,000	-0,002	-0,048
-690,627	25,217	0,059	0,036
-689,612	-67,764	0,088	-0,025
-688,597	130,883	0,032	0,030
-687,583	80,173	-0,137	0,108
-686,568	27,862	-0,075	-0,046
-685,554	398,958	0,047	0,072
-684,539	-15,659	0,108	-0,051
-683,524	-200,000	0,027	0,093
-682,510	-200,000	0,022	0,099
-681,495	-160,010	-0,102	0,004
-680,481	323,554	0,062	0,088
-679,466	154,778	-0,094	-0,095
-678,451	90,959	-0,042	0,035
-677,437	-86,612	-0,140	-0,031
-676,422	-200,000	0,016	0,111
-675,408	-200,000	0,020	0,096
-674,393	-200,000	0,019	0,187
-673,378	-200,000	0,009	-0,182
-672,364	-146,106	-0,019	0,001
-671,349	-200,000	0,018	-0,178
-670,335	-200,000	-0,008	0,054
-669,320	42,172	0,057	-0,038
-668,305	528,943	0,016	0,027
-667,291	-46,306	0,038	-0,014
-666,276	-200,000	0,029	0,100
-665,262	60,505	0,065	0,048
-664,247	800,000	-0,013	-0,039
-663,232	-200,000	-0,016	0,063
-662,218	-92,851	-0,037	0,007
-661,203	-90,160	-0,109	0,023
-660,189	159,041	-0,112	0,115
-659,174	447,053	0,085	0,137
-658,159	93,361	0,078	-0,065
-657,145	441,788	-0,076	-0,123
-656,130	-158,371	0,070	0,003
-655,116	87,982	-0,106	0,086
-654,101	-200,000	-0,016	-0,094
-653,086	-188,403	-0,112	0,001
-652,072	800,000	0,076	-0,226
-651,057	155,340	-0,071	-0,072
-650,043	416,321	0,014	-0,022
-649,028	579,312	-0,034	0,061
-648,014	146,223	-0,033	-0,033
-646,999	-200,000	-0,002	0,010
-645,984	-92,248	-0,033	0,007
-644,970	-120,108	0,078	0,010
-643,955	800,000	-0,034	-0,096
-642,941	-28,524	-0,173	-0,073
-641,926	258,381	-0,090	-0,114
-640,911	-200,000	0,026	0,152
-639,897	800,000	-0,036	0,108
-638,882	-92,047	0,010	0,002
-637,868	-80,331	-0,070	0,017
-636,853	-2,866	-0,143	0,073
-635,838	134,427	-0,050	0,048
-634,824	218,245	0,092	-0,108
-633,809	234,477	-0,023	0,028
-632,795	-200,000	-0,044	0,199
-631,780	-110,248	0,038	0,006
-630,765	-200,000	-0,006	0,043
-629,751	-35,315	-0,086	0,034
-628,736	-200,000	-0,019	0,155
-627,722	-118,826	0,062	0,008
-626,707	183,920	0,096	0,105
-625,692	203,896	-0,088	0,100
-624,678	-77,899	0,108	-0,027
-623,663	-34,821	-0,069	-0,028
-622,649	603,928	-0,084	-0,154
-621,634	-200,000	0,007	-0,055
-620,619	800,000	0,085	-0,198
-619,605	318,799	-0,020	-0,028
-618,590	424,836	0,062	-0,099
-617,576	489,799	-0,014	-0,024
-616,561	476,263	-0,065	0,109
-615,546	-133,727	0,060	0,005
-614,532	-1,513	-0,085	-0,044
-613,517	-200,000	-0,004	0,025
-612,503	652,099	-0,039	-0,074
-611,488	-200,000	0,006	-0,042
-610,474	-200,000	-0,000	0,135
-609,459	-117,044	0,145	0,019
-608,444	-115,350	-0,147	0,020
-607,430	-78,216	0,037	-0,009
-606,415	-200,000	0,050	-0,204
-605,401	78,559	-0,051	-0,040
-604,386	-200,000	-0,004	0,013
-603,371	260,585	-0,028	0,035
-602,357	-76,728	-0,083	0,021
-601,342	-66,661	-0,106	-0,031
-600,328	-34,201	-0,145	0,058
-599,313	469,630	0,045	0,074
-598,298	800,000	0,016	0,033
-597,284	-30,623	0,079	-0,033
-596,269	105,833	0,086	-0,075
-595,255	309,260	0,034	0,046
-594,240	-199,985	-0,101	0,000
-593,225	179,337	0,014	0,015
-592,211	177,348	-0,077	-0,082
-591,196	800,000	0,019	-0,044
-590,182	128,895	0,043	-0,040
-589,167	131,289	-0,117	-0,110
-588,152	67,751	0,045	0,034
-587,138	-43,265	-0,037	0,014
-586,123	226,858	-0,064	-0,076
-585,109	143,255	-0,106	0,103
-584,094	308,681	-0,104	0,142
-583,079	355,134	0,068	-0,100
-582,065	-0,905	-0,068	-0,035
-581,050	-88,991	0,132	0,028
-580,036	70,110	-0,029	0,022
-579,021	-200,000	0,004	-0,049
-578,006	1,391	0,097	-0,051
-576,992	-200,000	-0,019	0,116
-575,977	-62,656	0,124	0,037
-574,963	800,000	-0,010	-0,031
-573,948	125,230	-0,031	0,028
-572,934	-35,802	-0,037	0,015
-571,919	194,753	-0,034	0,038
-570,904	800,000	0,065	-0,153
-569,890	293,957	0,090	-0,121
-568,875	123,353	-0,096	-0,088
-567,861	42,057	0,051	0,034
-566,846	143,485	-0,080	-0,078
-565,831	1,935	0,104	0,055
-564,817	800,000	0,022	-0,061
-563,802	524,712	-0,054	-0,094
-562,788	-30,153	0,023	-0,010
-561,773	-200,000	0,017	-0,076
-560,758	454,533	0,031	-0,050
-559,744	-93,635	0,120	0,024
-558,729	800,000	0,013	-0,041
-557,715	800,000	-0,038	-0,087
-556,700	-200,000	0,010	-0,115
-555,685	86,551	-0,050	-0,041
-554,671	355,692	-0,052	-0,076
-553,656	-130,795	-0,157	-0,015
-552,642	-174,831	0,053	-0,001
-551,627	2,259	-0,121	-0,064
-550,612	-200,000	0,000	0,080
-549,598	-200,000	-0,039	-0,149
-548,583	800,000	-0,050	-0,124
-547,569	-65,920	-0,098	-0,028
-546,554	303,037	-0,031	0,042
-545,539	182,140	-0,073	-0,079
-544,525	-53,292	0,036	-0,012
-543,510	-200,000	-0,003	0,022
-542,496	800,000	0,053	0,137
-541,481	-200,000	-0,002	-0,085
-540,466	800,000	-0,022	0,068
-539,452	-200,000	-0,009	0,045
-538,437	6,842	0,143	0,078
-537,423	38,714	0,056	0,036
-536,408	98,752	-0,059	0,050
-535,393	800,000	-0,038	-0,121
-534,379	800,000	-0,024	-0,076
-533,364	767,440	-0,028	-0,056
-532,350	49,106	-0,037	0,025
-531,335	-77,167	-0,030	0,008
-530,321	-200,000	-0,005	0,040
-529,306	-139,480	0,156	0,012
-528,291	-8,403	-0,101	-0,050
-527,277	120,637	0,037	-0,033
-526,262	413,746	0,032	-0,050
-525,248	80,136	0,040	-0,031
-524,233	26,630	-0,073	-0,045
-523,218	-141,422	0,108	-0,008
-522,204	-29,091	-0,142	0,059
-521,189	-35,911	0,047	0,018
-520,175	-48,666	0,071	-0,025
-519,160	51,822	-0,068	-0,047
-518,145	-15,766	-0,085	0,040
-517,131	800,000	0,031	0,091
-516,116	404,451	0,034	0,053
-515,102	-200,000	-0,014	0,077
-514,087	669,943	-0,015	-0,028
-513,072	650,133	0,037	-0,070
-512,058	-158,385	0,070	0,003
-511,043	-152,931	0,085	-0,004
-510,029	800,000	-0,026	0,073
-509,014	-10,770	0,061	0,029
-507,999	-35,043	-0,065	0,026
-506,985	165,247	-0,071	-0,074
-505,970	-183,856	0,134	-0,002
-504,956	-130,801	-0,069	-0,007
-503,941	15,257	-0,071	0,040
-502,926	-154,141	0,057	-0,003
-501,912	106,462	0,063	-0,055
-500,897	-200,000	-0,044	0,154
-499,883	800,000	-0,025	0,057
-498,868	-200,000	0,011	-0,079
-497,853	713,584	0,024	-0,047
-496,839	-64,492	0,059	-0,017
-495,824	-106,858	-0,063	0,010
-494,810	-147,861	-0,117	-0,007
-493,795	-149,145	0,013	-0,001
-492,781	-200,000	-0,057	0,238
-491,766	-200,000	0,052	-0,182
-490,751	-200,000	-0,000	-0,083
-489,737	253,619	0,044	0,055
-488,722	-158,059	-0,058	-0,002
-487,708	629,119	-0,011	0,020
-486,693	248,800	0,060	-0,074
-485,678	-35,345	0,049	-0,019
-484,664	84,559	0,107	0,085
-483,649	-200,000	0,001	0,037
-482,635	800,000	-0,034	-0,097
-481,620	-200,000	0,018	0,074
-480,605	800,000	0,027	0,076
-479,591	-24,449	0,053	-0,023
-478,576	-87,385	-0,060	-0,013
-477,562	15,164	-0,093	0,053
-476,547	-200,000	0,003	-0,058
-475,532	-200,000	0,013	-0,079
-474,518	1,412	0,084	-0,044
-473,503	-200,000	0,014	0,139
-472,489	593,620	0,040	0,072
-471,474	800,000	-0,014	-0,043
-470,459	281,502	-0,028	0,036
-469,445	303,441	-0,074	-0,101
-468,430	1,365	0,033	-0,017
-467,416	136,424	-0,052	0,049
-466,401	-200,000	0,020	0,085
-465,386	800,000	0,032	0,091
-464,372	-89,488	-0,044	0,009
-463,357	-48,267	-0,178	-0,062
-462,343	24,180	-0,083	0,050
-461,328	-167,480	0,053	0,002
-460,313	650,314	0,015	0,028
-459,299	-200,000	0,040	-0,000
-458,284	800,000	0,002	-0,005
-457,270	81,132	0,113	0,089
-456,255	177,538	0,060	-0,063
-455,241	-125,767	0,043	0,005
-454,226	-129,194	0,127	-0,013
-453,211	4,461	-0,033	0,017
-452,197	-200,000	0,014	0,109
-451,182	20,242	0,140	0,082
-450,168	800,000	0,016	0,049
-449,153	-96,718	-0,132	-0,025
-448,138	-47,231	-0,144	0,051
-447,124	-181,940	-0,064	0,001
-446,109	-200,000	-0,023	-0,108
-445,095	28,733	0,084	-0,052
-444,080	-200,000	0,027	-0,138
-443,065	-151,744	0,145	-0,008
-442,051	171,098	0,061	-0,064
-441,036	315,536	-0,026	0,036
-440,022	16,897	0,011	0,006
-439,007	-200,000	0,004	0,105
-437,992	-200,000	-0,006	-0,046
-436,978	-200,000	-0,012	0,065
-435,963	800,000	0,004	0,010
-434,949	-200,000	0,004	0,104
-433,934	800,000	-0,049	-0,110
-432,919	174,119	-0,119	-0,126
-431,905	-200,000	0,019	-0,106
-430,890	-62,987	0,181	0,054
-429,876	31,106	-0,008	-0,005
-428,861	793,066	0,021	-0,042
-427,846	417,430	-0,040	-0,063
-426,832	130,093	0,132	-0,123
-425,817	492,395	0,050	-0,084
-424,803	800,000	-0,012	0,027
-423,788	59,396	-0,048	-0,034
-422,773	-18,961	0,066	0,030
-421,759	-200,000	0,041	0,148
-420,744	146,868	0,009	0,009
-419,730	710,963	-0,076	-0,146
-418,715	-200,000	0,001	0,059
-417,701	-200,000	0,004	-0,022
-416,686	120,630	-0,133	0,121
-415,671	-200,000	-0,001	-0,045
-414,657	-200,000	0,022	0,093
-413,642	-200,000	-0,015	0,091
-412,628	294,192	-0,010	-0,013
-411,613	800,000	-0,025	-0,058
-410,598	-19,279	-0,061	-0,028
-409,584	-200,000	-0,004	0,121
-408,569	-200,000	0,006	-0,079
-407,555	-200,000	0,001	0,117
-406,540	190,151	0,069	0,075
-405,525	155,992	-0,048	-0,048
-404,511	-115,225	-0,079	-0,011
-403,496	508,488	0,058	0,098
-402,482	-200,000	-0,009	0,088
-401,467	800,000	-0,019	0,054
-400,452	73,932	0,147	0,112
-399,438	347,882	-0,069	-0,099
-398,423	66,355	-0,058	-0,043
-397,409	-90,700	0,074	-0,015
-396,394	104,422	-0,045	-0,039
-395,379	-200,000	0,011	-0,081
-394,365	27,984	0,080	-0,049
-393,350	711,985	-0,077	0,148
-392,336	269,747	-0,026	0,033
-391,321	-190,256	-0,107	-0,001
-390,306	-165,830	-0,201	-0,006
-389,292	800,000	-0,017	-0,037
-388,277	800,000	0,028	0,072
-387,263	-67,141	0,059	-0,017
-386,248	38,834	0,068	0,044
-385,233	-85,801	0,184	0,041
-384,219	-200,000	-0,002	0,051
-383,204	800,000	0,076	-0,174
-382,190	402,439	-0,011	0,016
-381,175	622,321	0,035	-0,063
-380,160	-17,593	0,121	0,055
-379,146	193,143	-0,041	0,045
-378,131	800,000	0,048	0,099
-377,117	408,535	-0,065	0,100
-376,102	-142,242	-0,050	-0,004
-375,088	-56,506	-0,089	0,028
-374,073	-200,000	-0,009	-0,154
-373,058	34,410	0,080	0,050
-372,044	-138,345	0,127	-0,010
-371,029	42,385	0,179	0,118
-370,015	800,000	-0,022	-0,046
-369,000	502,053	-0,042	-0,070
-367,985	268,336	0,090	-0,115
-366,971	47,092	0,028	0,019
-365,956	-200,000	-0,008	-0,152
-364,942	-115,667	0,219	-0,030
-363,927	258,687	-0,070	0,088
-362,912	-85,148	-0,104	-0,024
-361,898	33,987	-0,113	-0,071
-360,883	6,725	-0,044	-0,024
-359,869	-10,452	-0,040	0,019
-358,854	72,583	0,103	-0,078
-357,839	-200,000	-0,023	0,130
-356,825	-14,484	0,137	0,064
-355,810	800,000	0,072	0,169
-354,796	-171,158	-0,190	0,005
-353,781	-165,543	-0,101	-0,003
-352,766	800,000	-0,062	0,146
-351,752	56,986	-0,102	-0,072
-350,737	80,349	-0,050	-0,039
-349,723	221,582	0,045	0,053
-348,708	63,429	0,061	0,044
-347,693	800,000	0,010	0,031
-346,679	800,000	0,027	-0,067
-345,664	800,000	0,034	-0,073
-344,650	-99,391	-0,122	-0,022
-343,635	-88,739	0,166	-0,035
-342,620	-200,000	0,029	0,285
-341,606	-200,000	-0,011	-0,047
-340,591	-106,895	-0,182	-0,029
-339,577	113,402	0,123	-0,108
-338,562	-200,000	0,012	-0,184
-337,548	242,842	0,070	-0,085
-336,533	175,068	0,010	-0,011
-335,518	34,367	-0,105	-0,066
-334,504	66,254	-0,061	0,045
-333,489	-182,963	-0,069	0,001
-332,475	-200,000	-0,001	-0,023
-331,460	-200,000	0,003	-0,089
-330,445	-200,000	0,016	-0,065
-329,431	-200,000	-0,001	0,020
-328,416	-62,039	0,179	-0,054
-327,402	-11,397	-0,040	0,019
-326,387	-39,987	-0,013	-0,005
-325,372	524,372	-0,079	-0,135
-324,358	-200,000	0,001	-0,080
-323,343	-200,000	0,001	-0,037
-322,329	-76,921	-0,019	0,005
-321,314	800,000	-0,035	-0,100
-320,299	0,595	0,028	-0,014
-319,285	126,723	-0,012	-0,011
-318,270	-106,040	-0,037	-0,006
-317,256	-200,000	-0,015	0,050
-316,241	-69,470	-0,131	0,036
-315,226	346,727	-0,009	-0,013
-314,212	-200,000	0,039	0,133
-313,197	-200,000	-0,009	0,047
-312,183	33,252	-0,105	-0,066
-311,168	93,618	-0,108	-0,088
-310,153	-19,688	0,012	-0,005
-309,139	-63,967	-0,047	-0,014
-308,124	21,705	0,046	0,027
-307,110	800,000	0,034	0,087
-306,095	460,056	0,059	-0,095
-305,080	154,769	-0,009	-0,009
-304,066	-80,118	-0,077	0,019
-303,051	50,253	-0,241	-0,165
-302,037	800,000	0,024	0,067
-301,022	-200,000	0,011	0,052
-300,008	114,001	-0,063	-0,055
-298,993	-200,000	0,185	-0,000
-297,978	67,034	0,068	0,050
-296,964	-100,267	-0,038	0,007
-295,949	800,000	-0,052	-0,148
-294,935	-136,354	0,082	-0,007
-293,920	-56,713	-0,076	0,024
-292,905	218,460	0,025	0,029
-291,891	-18,414	0,186	0,084
-290,876	301,734	0,034	-0,045
-289,862	-97,208	-0,038	-0,007
-288,847	458,501	-0,076	-0,122
-287,832	47,257	-0,111	-0,075
-286,818	-2,589	-0,040	0,020
-285,803	-27,705	0,129	0,054
-284,789	-104,992	0,052	-0,009
-283,774	-15,395	0,064	0,029
-282,759	24,706	-0,085	0,051
-281,745	453,858	-0,026	0,043
-280,730	-139,884	-0,120	-0,009
-279,716	-200,000	0,001	-0,022
-278,701	182,997	0,140	0,150
-277,686	413,272	0,043	0,066
-276,672	-200,000	-0,001	0,066
-275,657	-179,890	-0,059	0,001
-274,643	-148,004	0,078	-0,005
-273,628	27,174	-0,070	-0,043
-272,613	-200,000	-0,006	0,179
-271,599	-200,000	0,001	0,110
-270,584	-200,000	0,026	0,097
-269,570	274,963	0,054	-0,069
-268,555	215,206	0,127	0,146
-267,540	-53,163	-0,062	0,020
-266,526	-151,343	0,189	0,010
-265,511	-176,981	0,063	0,001
-264,497	-34,588	0,188	-0,074
-263,482	-200,000	-0,005	-0,039
-262,467	-200,000	-0,018	-0,074
-261,453	87,471	0,159	0,127
-260,438	-117,768	-0,058	0,007
-259,424	800,000	-0,006	0,018
-258,409	8,582	-0,035	-0,019
-257,395	-133,842	-0,058	0,005
-256,380	-200,000	-0,020	0,168
-255,365	359,099	0,033	0,048
-254,351	800,000	-0,008	0,020
-253,336	-22,769	-0,081	-0,035
-252,322	-134,486	-0,144	-0,013
-251,307	224,862	-0,063	-0,074
-250,292	800,000	-0,017	-0,043
-249,278	-200,000	-0,012	0,133
-248,263	-15,188	0,069	-0,032
-247,249	-200,000	-0,028	0,166
-246,234	-22,047	0,085	0,037
-245,219	321,940	0,059	-0,082
-244,205	147,285	-0,062	-0,061
-243,190	-200,000	-0,040	0,000
-242,176	800,000	0,039	-0,103
-241,161	800,000	0,028	0,059
-240,146	47,297	0,052	0,035
-239,132	-14,328	-0,138	-0,064
-238,117	105,413	-0,080	0,069
-237,103	-19,013	-0,134	0,060
-236,088	-131,943	-0,057	-0,005
-235,073	209,125	0,043	-0,049
-234,059	800,000	0,045	0,101
-233,044	69,402	-0,088	0,065
-232,030	63,544	0,043	0,031
-231,015	223,521	-0,050	-0,058
-230,000	-163,573	-0,007	0,000
-228,986	-76,890	-0,152	-0,038
-227,971	-189,952	0,192	0,002
-226,957	155,308	-0,017	0,017
-225,942	-200,000	0,015	0,049
-224,927	-200,000	-0,020	0,066
-223,913	98,639	-0,060	0,050
-222,898	41,759	0,102	-0,067
-221,884	800,000	0,047	-0,109
-220,869	-104,163	0,083	0,014
-219,855	578,309	0,061	0,108
-218,840	-200,000	0,009	0,045
-217,825	-200,000	0,001	-0,030
-216,811	-200,000	-0,006	0,055
-215,796	92,283	0,048	-0,039
-214,782	227,289	0,104	0,122
-213,767	545,986	0,042	-0,073
-212,752	-65,809	0,151	0,043
-211,738	23,088	0,079	0,047
-210,723	-200,000	0,004	0,014
-209,709	283,791	0,076	-0,099
-208,694	800,000	-0,034	-0,072
-207,679	167,642	-0,035	0,036
-206,665	-200,000	-0,020	0,076
-205,650	36,647	0,093	0,059
-204,636	278,049	-0,079	0,102
-203,621	-200,000	0,004	0,031
-202,606	800,000	-0,013	0,037
-201,592	800,000	0,045	-0,091
-200,577	800,000	0,030	-0,092
-199,563	64,259	-0,055	0,040
-198,548	142,741	0,068	0,065
-197,533	-114,976	-0,129	0,017
-196,519	800,000	0,028	0,064
-195,504	-32,099	0,107	0,043
-194,490	800,000	-0,026	-0,079
-193,475	-114,352	-0,056	0,008
-192,460	61,110	0,068	-0,049
-191,446	-130,390	0,047	-0,005
-190,431	69,499	0,112	0,083
-189,417	44,743	0,055	-0,036
-188,402	-200,000	0,008	-0,090
-187,387	-200,000	-0,009	0,117
-186,373	-200,000	-0,003	-0,086
-185,358	-96,321	-0,138	0,026
-184,344	-159,114	0,106	0,004
-183,329	-200,000	0,005	0,141
-182,315	-200,000	0,022	0,109
-181,300	-51,410	-0,079	0,026
-180,285	-56,378	0,095	0,030
-179,271	-130,845	-0,062	0,006
-178,256	800,000	0,006	0,015
-177,242	12,495	0,079	0,044
-176,227	-42,843	0,134	-0,049
-175,212	279,872	-0,121	0,156
-174,198	-200,000	0,002	-0,085
-173,183	-200,000	0,018	0,058
-172,169	-65,193	-0,052	-0,015
-171,154	133,554	-0,087	-0,081
-170,139	-200,000	-0,005	0,046
-169,125	-200,000	-0,029	-0,120
-168,110	800,000	0,037	0,074
-167,096	-200,000	-0,008	-0,041
-166,081	-200,000	-0,027	-0,137
-165,066	800,000	0,024	-0,068
-164,052	612,589	0,050	0,090
-163,037	-200,000	0,018	-0,112
-162,023	560,746	-0,017	-0,030
-161,008	-0,591	0,143	-0,073
-159,993	-152,109	-0,052	-0,003
-158,979	382,470	-0,077	-0,115
-157,964	187,985	-0,076	-0,082
-156,950	-200,000	-0,020	-0,239
-155,935	-166,724	0,119	0,003
-154,920	-200,000	0,005	-0,143
-153,906	689,482	0,078	0,148
-152,891	663,572	-0,084	0,157
-151,877	-134,282	-0,030	0,003
-150,862	98,099	-0,065	-0,054
-149,847	800,000	-0,014	0,039
-148,833	-1,606	-0,101	0,051
-147,818	93,215	0,071	-0,058
-146,804	83,798	0,027	-0,021
-145,789	410,317	0,040	0,060
-144,775	800,000	-0,022	-0,055
-143,760	-200,000	-0,005	-0,074
-142,745	-101,106	0,083	-0,015
-141,731	-62,816	-0,167	0,049
-140,716	-200,000	0,011	0,076
-139,702	-200,000	0,000	0,098
-138,687	-51,106	-0,041	-0,014
-137,672	498,341	-0,051	0,086
-136,658	-200,000	-0,021	0,077
-135,643	131,797	-0,099	-0,092
-134,629	145,296	-0,156	-0,151
-133,614	-95,377	0,144	0,028
-132,599	-89,175	0,096	0,020
-131,585	48,991	-0,071	-0,048
-130,570	800,000	-0,058	-0,166
-129,556	-24,999	-0,157	0,067
-128,541	347,629	0,042	-0,059
-127,526	389,661	0,092	0,138
-126,512	118,613	0,100	0,089
-125,497	-200,000	-0,005	0,071
-124,483	800,000	0,057	0,143
-123,468	78,644	-0,019	0,014
-122,453	-200,000	-0,013	-0,147
-121,439	-51,008	0,034	-0,012
-120,424	-133,503	-0,091	0,008
-119,410	800,000	0,022	0,055
-118,395	-200,000	-0,054	0,212
-117,380	-28,108	0,041	0,017
-116,366	-200,000	-0,013	0,076
-115,351	800,000	-0,039	0,097
-114,337	671,423	-0,051	-0,095
-113,322	90,225	0,086	-0,070
-112,307	144,414	0,040	0,039
-111,293	-25,209	-0,038	0,016
-110,278	800,000	-0,033	0,098
-109,264	60,702	-0,064	0,045
-108,249	-127,453	-0,048	0,005
-107,234	-200,000	-0,008	0,058
-106,220	7,251	-0,148	-0,079
-105,205	314,605	0,086	-0,116
-104,191	204,918	0,076	-0,085
-103,176	381,537	0,011	0,016
-102,162	800,000	0,013	0,038
-101,147	-91,693	0,094	0,019
-100,132	-200,000	-0,002	-0,022
-99,118	324,554	0,036	-0,050
-98,103	-200,000	0,005	-0,129
-97,089	-71,126	0,109	-0,029
-96,074	-173,599	-0,087	0,002
-95,059	-30,856	0,064	0,026
-94,045	-200,000	-0,025	-0,126
-93,030	192,384	-0,109	-0,118
-92,016	453,765	-0,080	-0,128
-91,001	-7,032	-0,084	0,041
-89,986	-112,354	0,165	0,023
-88,972	351,273	-0,045	0,064
-87,957	-44,269	-0,066	-0,024
-86,943	-70,695	0,189	0,051
-85,928	-9,306	0,061	0,029
-84,913	-200,000	-0,005	-0,104
-83,899	52,805	-0,010	-0,007
-82,884	-200,000	-0,032	0,140
-81,870	617,786	0,027	0,049
-80,855	691,295	-0,045	0,085
-79,840	167,451	-0,075	-0,076
-78,826	738,508	-0,048	-0,093
-77,811	-200,000	0,031	-0,110
-76,797	7,842	-0,086	0,046
-75,782	481,131	0,052	0,085
-74,767	800,000	-0,040	0,105
-73,753	-3,525	-0,148	0,073
-72,738	-200,000	0,008	-0,047
-71,724	-49,358	0,069	-0,024
-70,709	-130,974	0,059	0,006
-69,694	800,000	0,022	0,068
-68,680	-200,000	0,005	0,075
-67,665	290,697	0,091	0,119
-66,651	-80,053	0,177	0,042
-65,636	-200,000	-0,025	-0,091
-64,622	287,129	-0,028	-0,036
-63,607	525,092	-0,058	-0,098
-62,592	148,057	-0,048	0,046
-61,578	396,162	0,034	0,051
-60,563	800,000	-0,019	0,041
-59,549	40,856	-0,209	0,135
-58,534	-7,184	-1,770	-0,858
-57,519	800,000	-0,397	-0,999
-56,505	-200,000	-1,145	-4,837
-55,490	-51,696	0,852	0,283
-54,476	800,000	5,252	12,045
-53,461	-200,000	17,259	282,489
-52,446	800,000	722,665	2223,040
-51,432	541,715	1638,948	2813,257
-50,417	111,850	1631,528	1413,078
-49,403	75,952	1286,636	975,231
-48,388	32,846	1028,343	637,220
-47,373	20,235	990,218	572,018
-46,359	18,683	978,441	560,102
-45,344	16,214	974,435	549,705
-44,330	16,386	972,833	549,341
-43,315	15,987	971,143	547,063
-42,300	15,885	970,108	546,125
-41,286	15,880	969,006	545,467
-40,271	15,868	967,966	544,821
-39,257	15,900	967,135	544,435
-38,242	15,854	966,546	543,934
-37,227	15,910	965,552	543,533
-36,213	15,871	964,677	542,892
-35,198	15,861	963,849	542,374
-34,184	15,977	962,932	542,211
-33,169	15,857	962,037	541,296
-32,154	15,887	961,134	540,865
-31,140	15,859	960,188	540,222
-30,125	15,879	959,496	539,874
-29,111	15,909	958,657	539,476
-28,096	15,899	958,080	539,099
-27,082	15,883	957,332	538,604
-26,067	15,946	956,668	538,413
-25,052	15,934	955,736	537,828
-24,038	15,890	955,146	537,334
-23,023	15,846	954,670	536,904
-22,009	15,918	953,985	536,729
-20,994	15,875	953,404	536,243
-19,979	15,949	952,703	536,064
-18,965	15,928	951,892	535,519
-17,950	15,902	951,555	535,225
-16,936	15,844	950,914	534,658
-15,921	15,833	950,070	534,128
-14,906	15,853	949,305	533,738
-13,892	15,724	948,858	533,057
-12,877	15,739	948,222	532,726
-11,863	15,754	947,504	532,349
-10,848	15,760	946,922	532,019
-9,833	15,880	946,394	532,082
-8,819	15,920	945,818	531,864
-7,804	15,839	945,126	531,196
-6,790	15,770	944,745	530,742
-5,775	15,833	943,952	530,476
-4,760	15,834	943,471	530,188
-3,746	15,762	942,864	529,597
-2,731	15,705	942,090	528,960
-1,717	15,583	941,630	528,297
-0,702	15,624	940,688	527,878
0,313	15,490	940,151	527,949
1,327	18,584	937,980	536,433
2,342	27,536	795,712	478,809
3,356	24,486	459,164	271,612
4,371	-2,537	313,483	156,826
5,386	-6,420	295,219	143,763
6,400	-8,439	289,373	138,907
7,415	-8,881	286,765	137,209
8,429	-9,114	285,410	136,321
9,444	-9,074	284,444	135,887
10,459	-9,206	283,770	135,424
11,473	-9,290	283,134	135,028
12,488	-9,103	282,578	134,931
13,502	-9,131	282,173	134,699
14,517	-9,035	281,721	134,563
15,531	-9,217	281,319	134,184
16,546	-9,142	280,834	134,013
17,561	-9,107	280,313	133,786
18,575	-9,355	280,231	133,497
19,590	-9,345	279,684	133,234
20,604	-9,307	279,353	133,101
21,619	-9,432	279,209	132,902
22,634	-9,344	278,828	132,792
23,648	-9,284	278,451	132,658
24,663	-9,462	278,299	132,405
25,677	-9,268	277,825	132,351
26,692	-9,212	277,460	132,218
27,707	-9,150	277,328	132,202
28,721	-9,432	277,161	131,844
29,736	-9,449	276,752	131,622
30,750	-9,523	276,537	131,437
31,765	-9,299	276,226	131,490
32,780	-9,220	276,024	131,456
33,794	-9,516	275,945	131,128
34,809	-9,430	275,653	131,059
35,823	-9,539	275,197	130,728
36,838	-9,701	275,220	130,575
37,853	-9,460	274,851	130,614
38,867	-9,523	274,723	130,483
39,882	-9,256	274,243	130,493
40,896	-9,449	274,063	130,215
41,911	-9,482	273,933	130,111
42,926	-9,576	273,524	129,817
43,940	-9,606	273,443	129,740
44,955	-9,490	273,025	129,637
45,969	-9,455	272,863	129,582
46,984	-9,531	272,614	129,381
47,999	-9,708	272,365	129,088
49,013	-9,803	272,113	128,868
50,028	-9,909	271,968	128,689
51,042	-10,116	271,521	128,275
52,057	-10,142	271,324	128,147
53,071	-10,124	271,185	128,086
54,086	-9,891	270,857	128,135
55,101	-9,782	270,681	128,141
56,115	-9,498	270,612	128,358
57,130	-9,341	270,559	128,466
58,144	-9,266	270,461	128,477
59,159	-9,182	270,177	128,409
60,174	-9,199	269,868	128,235
61,188	-9,092	269,606	128,196
62,203	-9,179	269,450	128,031
63,217	-9,287	269,273	127,837
64,232	-9,413	269,196	127,674
65,247	-9,114	268,796	127,746
66,261	-9,376	268,529	127,368
67,276	-9,505	268,292	127,127
68,290	-9,588	268,078	126,938
69,305	-9,579	267,795	126,801
70,320	-9,606	267,513	126,631
71,334	-9,315	267,362	126,814
72,349	-9,312	267,300	126,775
73,363	-9,135	266,991	126,779
74,378	-9,238	266,954	126,656
75,393	-9,286	266,621	126,444
76,407	-9,175	266,433	126,444
77,422	-9,317	266,220	126,203
78,436	-9,181	265,939	126,181
79,451	-9,097	265,756	126,159
80,466	-9,176	265,409	125,912
81,480	-9,356	265,116	125,599
82,495	-9,492	264,969	125,396
83,509	-9,305	264,939	125,539
84,524	-9,409	264,609	125,278
85,539	-9,566	264,396	125,025
86,553	-9,710	264,184	124,784
87,568	-9,432	263,988	124,929
88,582	-9,410	263,845	124,870
89,597	-9,490	263,723	124,730
90,611	-9,344	263,463	124,726
91,626	-9,304	263,334	124,690
92,641	-9,246	263,098	124,619
93,655	-9,127	262,753	124,550
94,670	-9,355	262,831	124,373
95,684	-9,251	262,442	124,270
96,699	-9,283	262,309	124,168
97,714	-9,546	262,062	123,806
98,728	-9,419	261,749	123,760
99,743	-9,552	261,683	123,600
100,757	-9,559	261,366	123,432
101,772	-9,408	261,165	123,460
102,787	-9,381	260,942	123,368
103,801	-9,524	260,907	123,214
104,816	-9,283	260,724	123,330
105,830	-9,144	260,629	123,397
106,845	-9,331	260,341	123,084
107,860	-9,231	260,227	123,107
108,874	-9,235	259,943	122,959
109,889	-9,133	259,690	122,918
110,903	-9,277	259,499	122,689
111,918	-9,224	259,175	122,572
112,933	-9,427	259,238	122,413
113,947	-9,066	259,031	122,621
114,962	-9,270	258,940	122,388
115,976	-9,010	258,469	122,382
116,991	-9,161	258,275	122,147
118,006	-9,276	258,332	122,063
119,020	-9,272	258,105	121,948
120,035	-9,386	258,051	121,812
121,049	-9,169	257,841	121,891
122,064	-9,152	257,610	121,786
123,079	-9,295	257,473	121,585
124,093	-9,317	257,224	121,439
125,108	-9,522	256,812	121,055
126,122	-9,665	256,757	120,894
127,137	-9,624	256,397	120,749
128,151	-9,664	256,313	120,664
129,166	-9,562	256,137	120,659
130,181	-9,591	255,951	120,535
131,195	-9,483	255,602	120,454
132,210	-9,360	255,546	120,523
133,224	-9,319	255,310	120,436
134,239	-9,139	255,127	120,494
135,254	-9,300	255,117	120,340
136,268	-9,353	254,945	120,202
137,283	-9,448	254,659	119,975
138,297	-9,725	254,386	119,597
139,312	-9,732	254,040	119,418
140,327	-9,508	253,989	119,576
141,341	-9,113	254,002	119,910
142,356	-9,031	253,740	119,846
143,370	-9,150	253,639	119,687
144,385	-9,109	253,489	119,639
145,400	-9,096	253,270	119,536
146,414	-9,106	253,057	119,417
147,429	-9,025	252,686	119,300
148,443	-9,158	252,717	119,191
149,458	-9,028	252,462	119,171
150,473	-9,047	252,356	119,094
151,487	-9,075	252,136	118,956
152,502	-9,143	251,914	118,783
153,516	-9,078	251,739	118,745
154,531	-9,044	251,592	118,694
155,546	-9,145	251,359	118,487
156,560	-9,069	251,207	118,469
157,575	-9,156	250,846	118,215
158,589	-9,189	250,927	118,215
159,604	-9,062	250,724	118,216
160,619	-9,107	250,416	118,022
161,633	-9,117	250,415	118,003
162,648	-8,929	250,063	117,985
163,662	-8,887	249,840	117,905
164,677	-9,065	249,817	117,734
165,692	-9,022	249,690	117,699
166,706	-8,980	249,470	117,620
167,721	-8,996	249,271	117,502
168,735	-9,118	249,200	117,356
169,750	-9,028	249,153	117,399
170,764	-8,997	248,910	117,300
171,779	-9,041	249,018	117,303
172,794	-8,965	248,530	117,127
173,808	-9,082	248,343	116,930
174,823	-9,305	247,966	116,556
175,837	-9,493	247,848	116,333
176,852	-9,119	247,732	116,581
177,867	-8,995	247,703	116,661
178,881	-9,076	247,552	116,511
179,896	-8,942	247,358	116,521
180,910	-9,044	247,346	116,420
181,925	-9,041	247,042	116,269
182,940	-8,976	246,848	116,222
183,954	-9,156	246,685	115,985
184,969	-9,076	246,597	115,999
185,983	-9,054	246,517	115,970
186,998	-8,879	246,303	116,004
188,013	-8,861	245,916	115,826
189,027	-8,931	245,990	115,793
190,042	-8,864	245,713	115,707
191,056	-8,797	245,511	115,657
192,071	-8,888	245,350	115,496
193,086	-8,998	245,288	115,366
194,100	-8,981	245,011	115,239
195,115	-8,799	244,868	115,311
196,129	-8,843	244,648	115,161
197,144	-8,983	244,543	114,986
198,159	-9,161	244,283	114,708
199,173	-9,017	244,181	114,768
200,188	-8,802	243,894	114,800
201,202	-9,249	243,591	114,281
202,217	-9,502	243,427	113,986
203,232	-9,489	243,167	113,865
204,246	-9,023	243,148	114,227
205,261	-8,440	243,117	114,679
206,275	-9,124	242,788	113,955
207,290	-6,777	243,771	116,328
208,304	-1,471	245,479	121,499
209,319	1,267	246,096	124,047
210,334	1,731	246,240	124,490
211,348	2,255	245,910	124,742
212,363	2,240	246,116	124,824
213,377	2,731	245,860	125,085
214,392	2,532	245,761	124,860
215,407	2,353	245,498	124,569
216,421	2,291	245,305	124,409
217,436	2,461	245,436	124,604
218,450	2,808	245,127	124,719
219,465	2,693	244,831	124,465
220,480	2,260	244,718	124,043
221,494	2,601	244,517	124,207
222,509	2,701	244,619	124,329
223,523	2,473	244,419	124,031
224,538	2,028	243,955	123,422
225,553	2,110	243,816	123,408
226,567	2,290	243,677	123,473
227,582	2,376	243,648	123,517
228,596	2,335	243,415	123,355
229,611	2,107	243,179	123,039
230,626	2,111	242,999	122,940
231,640	2,301	242,947	123,057
232,655	2,369	242,810	123,032
233,669	2,091	242,634	122,706
234,684	2,081	242,389	122,564
235,699	2,609	242,402	122,985
236,713	2,653	242,220	122,918
237,728	2,269	242,095	122,533
238,742	2,231	241,777	122,331
239,757	2,082	241,753	122,188
240,772	2,394	241,423	122,262
241,786	2,393	241,364	122,220
242,801	2,024	241,039	121,748
243,815	1,911	240,950	121,602
244,830	2,188	240,832	121,754
245,844	2,481	240,753	121,938
246,859	2,471	240,402	121,740
247,874	2,321	240,408	121,613
248,888	2,269	240,265	121,488
249,903	2,269	240,185	121,437
250,917	2,688	240,023	121,679
251,932	2,757	240,017	121,720
252,947	2,388	239,723	121,266
253,961	2,164	239,324	120,875
254,976	2,305	239,378	121,003
255,990	2,457	239,221	121,035
257,005	2,248	238,949	120,720
258,020	2,014	238,684	120,390
259,034	2,091	238,676	120,436
260,049	2,509	238,457	120,646
261,063	2,071	238,421	120,270
262,078	2,033	238,213	120,124
263,093	2,377	238,089	120,323
264,107	2,433	238,033	120,329
265,122	2,358	237,698	120,089
266,136	2,555	237,618	120,194
267,151	2,403	237,624	120,066
268,166	2,189	237,444	119,796
269,180	2,062	236,972	119,447
270,195	2,675	237,235	120,051
271,209	2,886	236,949	120,062
272,224	2,383	236,687	119,523
273,239	2,011	236,540	119,146
274,253	2,371	236,300	119,297
275,268	2,507	236,295	119,391
276,282	2,175	236,243	119,093
277,297	2,111	235,889	118,854
278,312	2,371	235,705	118,955
279,326	2,339	235,688	118,910
280,341	2,266	235,666	118,831
281,355	2,417	235,421	118,815
282,370	2,573	235,211	118,820
283,384	2,516	234,930	118,623
284,399	2,301	234,842	118,401
285,414	1,968	234,711	118,065
286,428	2,266	234,552	118,207
287,443	2,347	234,573	118,269
288,457	2,551	234,431	118,346
289,472	2,808	234,106	118,371
290,487	2,377	234,068	118,006
291,501	2,053	233,896	117,658
292,516	1,877	233,710	117,418
293,530	1,944	233,304	117,255
294,545	2,358	233,448	117,637
295,560	2,056	233,309	117,323
296,574	1,898	233,100	117,085
297,589	2,236	232,950	117,261
298,603	2,522	232,885	117,438
299,618	2,578	232,690	117,373
300,633	2,352	232,632	117,158
301,647	2,478	232,603	117,231
302,662	3,055	232,396	117,560
303,676	3,025	232,303	117,479
304,691	2,588	232,053	117,007
305,706	2,786	231,834	117,038
306,720	2,672	231,881	116,964
307,735	2,329	231,726	116,612
308,749	2,388	231,479	116,523
309,764	2,245	231,390	116,358
310,779	2,214	230,974	116,114
311,793	2,071	230,645	115,829
312,808	2,091	230,717	115,871
313,822	2,018	230,512	115,701
314,837	2,125	230,275	115,653
315,852	2,055	230,162	115,533
316,866	2,227	230,232	115,689
317,881	2,521	230,073	115,823
318,895	2,959	230,023	116,120
319,910	3,054	229,936	116,138
320,925	2,580	229,683	115,640
321,939	2,197	229,519	115,257
322,954	2,568	229,444	115,491
323,968	2,312	229,130	115,128
324,983	2,482	229,129	115,246
325,997	2,623	228,901	115,228
327,012	2,517	228,688	115,030
328,027	2,135	228,507	114,640
329,041	2,208	228,494	114,678
330,056	2,814	228,525	115,141
331,070	3,282	228,350	115,395
332,085	3,091	228,125	115,128
333,100	2,703	227,907	114,715
334,114	2,556	227,720	114,501
335,129	2,532	227,593	114,408
336,143	2,386	227,470	114,227
337,158	2,732	227,536	114,510
338,173	2,820	227,253	114,423
339,187	2,848	227,019	114,316
340,202	2,822	226,994	114,274
341,216	2,784	226,739	114,107
342,231	2,512	226,607	113,827
343,246	2,520	226,512	113,776
344,260	2,649	226,391	113,801
345,275	2,839	226,193	113,833
346,289	3,022	226,170	113,947
347,304	3,036	225,868	113,796
348,319	3,208	225,907	113,933
349,333	2,724	225,489	113,352
350,348	2,557	225,429	113,188
351,362	2,704	225,245	113,195
352,377	2,443	225,251	112,994
353,392	2,557	225,064	112,975
354,406	2,486	224,973	112,866
355,421	196,816	1319,835	1400,047
356,435	157,789	1453,231	1400,046
