DTS Sentinel unit serial number:	SN410029Multiplexer serial number:	ORYXHardware model number:	OX2-SRSoftware version number:	ORYX F/W v4,00 Oryx Data Collector v3.7.2.0data status	okinstallation	B5 Nyhavnadifferential loss correction	single-endedforward channel	channel 2reverse channel	N/Adate	2023/12/13time	23:12:13forward acquisition time	300,00reverse acquisition time	0,00gamma	499,1914k internal	0,3154k external	0,3154temperature offset calibration	1,0000default loss term (dB/km)	0,3820temperature slope calibration	1,0000multiplexer offset coefficient	1,0000multiplexer slope coefficient	1,0000fibre end	0,00T internal ref (°C)	9,00T ext. ref 1 (°C)	-7,53T ext. ref 2 (°C)	-7,53length (m)	temperature (°C)	Stokes	anti-Stokes-744,400	-151,804	0,316	-0,017
-743,385	-126,191	-0,356	-0,039
-742,371	153,042	0,207	0,210
-741,356	-125,579	-0,426	-0,047
-740,342	44,707	0,233	0,158
-739,327	-120,251	-0,402	0,050
-738,312	13,146	0,109	0,062
-737,298	-26,813	-0,330	-0,142
-736,283	-162,952	0,136	-0,005
-735,269	-163,397	-0,306	-0,011
-734,254	56,522	0,221	0,158
-733,239	-61,222	-0,540	-0,167
-732,225	-91,325	0,389	0,081
-731,210	800,000	-0,051	0,127
-730,196	-96,806	0,117	0,023
-729,181	-42,719	0,046	-0,017
-728,167	156,990	-0,105	0,107
-727,152	288,439	-0,129	0,172
-726,137	713,420	0,039	-0,077
-725,123	-48,517	-0,088	-0,031
-724,108	-192,995	-0,104	-0,001
-723,094	800,000	0,040	-0,085
-722,079	239,789	0,046	-0,057
-721,064	-200,000	0,029	-0,112
-720,050	-200,000	-0,011	-0,116
-719,035	-5,693	-0,076	-0,038
-718,021	-111,709	-0,023	-0,003
-717,006	336,374	-0,062	-0,089
-715,991	-200,000	0,001	0,020
-714,977	-46,621	-0,112	-0,040
-713,962	-200,000	-0,026	-0,178
-712,948	145,463	-0,083	0,082
-711,933	-151,599	0,052	0,003
-710,918	-98,177	-0,106	-0,020
-709,904	31,665	-0,038	-0,024
-708,889	93,256	-0,116	-0,097
-707,875	-112,563	0,041	0,006
-706,860	39,076	-0,047	0,031
-705,845	211,297	-0,042	-0,049
-704,831	-132,177	0,007	0,001
-703,816	800,000	-0,023	-0,064
-702,802	798,244	-0,026	0,053
-701,787	800,000	-0,043	0,134
-700,772	-200,000	-0,008	0,040
-699,758	-58,920	0,156	-0,049
-698,743	694,671	-0,043	0,083
-697,729	89,102	0,091	-0,075
-696,714	463,630	0,075	-0,123
-695,699	-200,000	-0,007	0,035
-694,685	-200,000	0,020	-0,098
-693,670	-22,304	-0,085	0,038
-692,656	-159,565	-0,057	0,002
-691,641	193,984	0,026	0,029
-690,627	147,056	0,093	0,092
-689,612	738,831	-0,095	-0,190
-688,597	-95,709	0,029	0,006
-687,583	-3,834	0,057	-0,029
-686,568	218,776	-0,012	-0,014
-685,554	54,536	-0,062	0,044
-684,539	34,686	0,136	0,087
-683,524	800,000	-0,002	0,005
-682,510	-26,933	-0,012	0,005
-681,495	-37,214	0,073	0,028
-680,481	800,000	0,044	-0,091
-679,466	-108,421	-0,028	-0,004
-678,451	-46,627	0,134	-0,048
-677,437	91,489	0,129	-0,106
-676,422	-4,969	-0,062	-0,031
-675,408	431,968	0,070	0,112
-674,393	-47,751	-0,155	-0,055
-673,378	-158,547	0,078	-0,003
-672,364	-114,513	-0,159	0,022
-671,349	-91,469	0,063	0,013
-670,335	-97,717	-0,119	-0,022
-669,320	-56,850	0,095	0,031
-668,305	-70,614	-0,053	-0,015
-667,291	-109,546	0,092	0,014
-666,276	800,000	0,060	0,123
-665,262	22,303	-0,020	0,012
-664,247	800,000	-0,038	0,099
-663,232	-158,805	0,130	0,005
-662,218	800,000	-0,047	0,124
-661,203	-39,647	0,053	-0,020
-660,189	611,285	0,028	-0,051
-659,174	85,270	0,037	-0,030
-658,159	-200,000	0,022	-0,076
-657,145	-126,479	-0,040	-0,004
-656,130	-54,437	0,094	0,031
-655,116	800,000	-0,033	-0,089
-654,101	-54,354	0,108	0,036
-653,086	-200,000	0,013	-0,066
-652,072	21,996	-0,121	0,072
-651,057	-200,000	0,001	0,025
-650,043	-12,340	0,053	-0,026
-649,028	576,588	-0,102	-0,185
-648,014	99,146	-0,116	-0,099
-646,999	17,525	0,035	0,020
-645,984	290,512	-0,039	-0,053
-644,970	-200,000	0,001	-0,026
-643,955	-64,889	-0,182	-0,054
-642,941	50,084	-0,063	0,044
-641,926	-13,983	0,082	-0,039
-640,911	-200,000	-0,005	0,032
-639,897	-13,970	-0,150	0,071
-638,882	359,031	0,051	0,075
-637,868	192,363	-0,083	0,092
-636,853	115,791	0,054	0,049
-635,838	-200,000	-0,019	-0,076
-634,824	800,000	-0,023	-0,050
-633,809	21,279	-0,158	-0,094
-632,795	-200,000	0,014	-0,062
-631,780	-90,290	0,064	-0,014
-630,765	800,000	-0,030	0,093
-629,751	-37,662	0,035	0,014
-628,736	-34,375	-0,208	-0,083
-627,722	-200,000	-0,002	-0,027
-626,707	-146,595	-0,077	0,005
-625,692	-62,227	-0,043	0,013
-624,678	420,737	0,051	0,081
-623,663	-200,000	-0,008	0,076
-622,649	465,509	-0,060	-0,100
-621,634	169,213	-0,025	-0,026
-620,619	-102,377	-0,040	0,007
-619,605	-45,558	-0,085	-0,031
-618,590	177,302	0,091	0,097
-617,576	800,000	0,010	-0,021
-616,561	-200,000	-0,011	0,086
-615,546	177,260	-0,039	0,042
-614,532	800,000	-0,019	-0,059
-613,517	-13,661	-0,098	-0,046
-612,503	-65,185	0,080	0,024
-611,488	273,982	0,056	0,072
-610,474	107,526	0,018	0,016
-609,459	95,899	0,032	0,026
-608,444	71,251	-0,124	-0,095
-607,430	210,386	-0,067	0,077
-606,415	-114,409	-0,128	-0,018
-605,401	-108,236	0,164	0,026
-604,386	-67,877	0,041	-0,012
-603,371	763,835	-0,065	-0,130
-602,357	-137,408	-0,188	0,015
-601,342	-200,000	-0,001	0,083
-600,328	-12,172	-0,097	-0,046
-599,313	14,404	0,108	-0,062
-598,298	-123,053	-0,037	-0,004
-597,284	800,000	0,025	0,052
-596,269	46,344	0,137	0,093
-595,255	800,000	-0,006	-0,019
-594,240	-41,416	-0,083	0,031
-593,225	-33,403	0,029	-0,012
-592,211	-200,000	-0,041	-0,140
-591,196	367,657	-0,045	0,067
-590,182	-200,000	-0,019	0,293
-589,167	-121,256	0,059	-0,007
-588,152	161,676	-0,052	-0,053
-587,138	347,789	0,007	-0,011
-586,123	-41,181	-0,120	-0,045
-585,109	-200,000	-0,030	-0,151
-584,094	-173,535	0,129	0,003
-583,079	301,171	0,066	-0,090
-582,065	-41,303	0,187	0,070
-581,050	-102,348	0,049	-0,009
-580,036	-15,636	-0,074	-0,034
-579,021	-39,711	-0,080	-0,030
-578,006	800,000	0,044	-0,096
-576,992	800,000	-0,057	-0,172
-575,977	184,866	-0,058	-0,063
-574,963	-14,111	0,147	0,069
-573,948	31,948	-0,209	-0,132
-572,934	-200,000	-0,009	0,051
-571,919	-200,000	-0,011	-0,128
-570,904	181,903	-0,043	-0,047
-569,890	55,013	0,065	-0,046
-568,875	-200,000	-0,014	0,049
-567,861	-200,000	-0,007	-0,059
-566,846	-166,721	0,066	0,002
-565,831	199,924	0,045	0,051
-564,817	-158,366	-0,080	0,003
-563,802	-113,929	0,074	-0,010
-562,788	11,667	-0,060	-0,034
-561,773	-200,000	0,016	0,140
-560,758	265,093	0,050	-0,064
-559,744	-200,000	0,015	0,148
-558,729	-200,000	0,004	0,041
-557,715	436,958	-0,064	0,103
-556,700	-200,000	-0,000	-0,054
-555,685	-65,210	-0,116	0,034
-554,671	800,000	0,023	0,055
-553,656	-200,000	0,017	0,084
-552,642	-101,348	0,151	0,027
-551,627	-38,192	0,074	0,029
-550,612	-65,822	-0,023	0,007
-549,598	53,762	-0,069	-0,049
-548,583	-200,000	-0,018	-0,162
-547,569	212,909	-0,043	-0,050
-546,554	-200,000	-0,027	0,138
-545,539	17,621	-0,082	-0,048
-544,525	-35,820	-0,032	-0,013
-543,510	-33,989	0,048	-0,019
-542,496	128,964	-0,090	-0,084
-541,481	124,520	0,051	-0,047
-540,466	-200,000	-0,046	0,151
-539,452	-104,041	0,086	-0,015
-538,437	-90,545	-0,044	-0,009
-537,423	78,047	0,051	-0,040
-536,408	-200,000	0,004	0,122
-535,393	-200,000	-0,044	-0,164
-534,379	800,000	0,010	-0,023
-533,364	800,000	0,039	0,084
-532,350	-200,000	0,020	0,154
-531,335	1,436	0,119	0,062
-530,321	-51,860	-0,013	0,005
-529,306	-98,700	-0,060	-0,011
-528,291	303,780	-0,046	-0,062
-527,277	-200,000	0,013	-0,067
-526,262	-137,896	0,118	0,010
-525,248	-200,000	-0,034	-0,196
-524,233	800,000	0,038	0,085
-523,218	-157,053	-0,081	0,004
-522,204	-200,000	-0,017	0,095
-521,189	-81,881	-0,058	0,014
-520,175	18,306	-0,101	0,059
-519,160	56,443	0,069	0,049
-518,145	800,000	-0,060	-0,172
-517,131	-138,613	0,097	0,008
-516,116	379,482	0,031	0,047
-515,102	800,000	0,024	0,059
-514,087	271,903	0,039	-0,051
-513,072	425,174	0,036	-0,057
-512,058	71,913	0,067	0,051
-511,043	116,254	-0,033	-0,029
-510,029	-200,000	-0,005	-0,099
-509,014	-200,000	0,009	-0,062
-507,999	288,911	0,079	-0,105
-506,985	-30,234	-0,053	0,022
-505,970	150,737	0,026	0,026
-504,956	-57,369	-0,099	0,032
-503,941	8,946	-0,045	-0,025
-502,926	800,000	0,018	0,049
-501,912	800,000	0,042	-0,089
-500,897	-44,891	-0,180	-0,065
-499,883	-95,675	-0,092	-0,018
-498,868	800,000	-0,041	0,090
-497,853	-56,811	0,128	0,041
-496,839	-200,000	-0,005	0,157
-495,824	267,591	0,090	0,115
-494,810	-200,000	-0,001	-0,023
-493,795	-200,000	0,025	0,161
-492,781	-200,000	-0,017	-0,070
-491,766	800,000	0,056	-0,154
-490,751	-25,340	-0,084	0,036
-489,737	-200,000	0,004	-0,035
-488,722	194,804	0,103	-0,114
-487,708	446,435	0,063	-0,102
-486,693	4,190	0,093	0,050
-485,678	-200,000	-0,007	-0,024
-484,664	142,962	0,062	-0,060
-483,649	800,000	-0,044	-0,105
-482,635	700,398	0,123	-0,237
-481,620	283,824	-0,036	-0,047
-480,605	-100,940	0,044	0,008
-479,591	-200,000	0,001	0,158
-478,576	185,755	-0,085	-0,092
-477,562	235,301	-0,038	-0,047
-476,547	2,186	-0,080	0,042
-475,532	-51,312	-0,061	0,021
-474,518	-101,913	0,219	0,038
-473,503	-136,346	0,085	-0,007
-472,489	152,215	-0,038	0,038
-471,474	-200,000	-0,016	-0,062
-470,459	56,298	-0,179	-0,127
-469,445	25,548	0,168	-0,102
-468,430	-6,839	0,091	-0,045
-467,416	-200,000	-0,029	-0,138
-466,401	321,978	0,052	-0,073
-465,386	-200,000	0,001	0,075
-464,372	58,902	0,153	-0,109
-463,357	-200,000	-0,010	-0,145
-462,343	800,000	0,046	-0,105
-461,328	38,254	0,067	0,044
-460,313	34,874	-0,133	-0,085
-459,299	-200,000	0,025	-0,117
-458,284	578,265	-0,038	0,068
-457,270	-143,839	-0,198	0,013
-456,255	266,918	-0,062	-0,080
-455,241	-69,295	-0,083	-0,023
-454,226	87,498	-0,105	-0,084
-453,211	187,952	0,004	0,005
-452,197	346,353	0,056	-0,081
-451,182	280,983	-0,039	-0,051
-450,168	134,165	-0,090	0,085
-449,153	-200,000	-0,012	-0,069
-448,138	-119,119	-0,037	0,005
-447,124	-200,000	-0,023	-0,158
-446,109	124,256	0,061	-0,056
-445,095	-130,242	0,083	0,008
-444,080	-200,000	-0,006	0,035
-443,065	49,729	-0,054	0,037
-442,051	-200,000	-0,006	0,064
-441,036	22,644	0,163	-0,097
-440,022	-109,976	-0,105	-0,016
-439,007	161,770	-0,042	0,043
-437,992	106,561	0,075	0,065
-436,978	-19,422	0,046	-0,021
-435,963	-200,000	-0,005	0,038
-434,949	-152,987	-0,020	0,001
-433,934	-84,120	-0,058	-0,013
-432,919	570,857	-0,048	-0,086
-431,905	-200,000	-0,002	-0,046
-430,890	54,084	0,155	0,108
-429,876	-24,338	0,068	-0,030
-428,861	-40,970	0,044	0,017
-427,846	-200,000	0,001	0,021
-426,832	749,344	-0,023	-0,046
-425,817	-1,601	-0,031	0,016
-424,803	-110,628	-0,054	-0,008
-423,788	800,000	0,018	0,055
-422,773	-23,133	-0,028	0,012
-421,759	224,478	0,093	0,110
-420,744	-200,000	0,026	0,130
-419,730	232,615	-0,055	0,066
-418,715	800,000	-0,044	-0,142
-417,701	-200,000	0,009	-0,079
-416,686	104,218	-0,049	0,042
-415,671	551,262	-0,017	0,029
-414,657	-91,398	-0,069	-0,014
-413,642	712,084	0,047	0,090
-412,628	-141,950	-0,194	-0,014
-411,613	515,922	0,062	-0,105
-410,598	-87,409	-0,042	0,009
-409,584	-200,000	-0,006	-0,034
-408,569	-112,673	0,171	0,025
-407,555	-56,605	-0,090	-0,029
-406,540	-60,917	-0,104	0,032
-405,525	-200,000	0,002	-0,031
-404,511	800,000	-0,090	-0,205
-403,496	73,739	0,038	-0,029
-402,482	167,383	0,066	0,068
-401,467	-11,490	0,203	0,097
-400,452	-200,000	0,012	0,213
-399,438	800,000	0,068	0,157
-398,423	-54,121	0,069	-0,023
-397,409	85,573	-0,073	-0,058
-396,394	116,580	-0,079	0,071
-395,379	800,000	0,013	0,031
-394,365	-149,340	0,250	0,014
-393,350	25,118	-0,025	-0,015
-392,336	-78,965	-0,064	0,016
-391,321	-200,000	-0,009	0,084
-390,306	-146,720	-0,183	0,011
-389,292	-200,000	-0,034	0,191
-388,277	800,000	0,014	-0,033
-387,263	-200,000	0,015	0,096
-386,248	-38,760	-0,059	0,023
-385,233	50,184	-0,040	-0,028
-384,219	42,543	-0,127	0,084
-383,204	-200,000	0,000	-0,056
-382,190	-143,245	-0,094	-0,006
-381,175	800,000	-0,035	0,090
-380,160	-200,000	0,020	0,158
-379,146	-200,000	-0,001	0,290
-378,131	4,901	0,138	0,074
-377,117	107,212	-0,049	-0,043
-376,102	-177,851	0,064	0,001
-375,088	-25,558	-0,064	-0,027
-374,073	-200,000	0,019	-0,076
-373,058	800,000	0,055	-0,123
-372,044	-200,000	-0,003	0,073
-371,029	546,512	0,061	-0,107
-370,015	310,370	-0,048	-0,065
-369,000	78,104	-0,025	0,020
-367,985	-128,109	-0,043	0,004
-366,971	800,000	0,037	0,109
-365,956	376,251	-0,050	0,074
-364,942	261,762	-0,049	-0,062
-363,927	-200,000	0,007	0,051
-362,912	-200,000	0,015	-0,091
-361,898	-200,000	0,004	-0,041
-360,883	64,415	0,055	-0,040
-359,869	95,832	-0,035	-0,029
-358,854	-6,247	0,086	0,043
-357,839	244,950	-0,034	0,042
-356,825	-200,000	-0,016	0,124
-355,810	323,306	0,016	0,023
-354,796	178,416	-0,111	-0,118
-353,781	-58,262	-0,109	0,034
-352,766	-200,000	0,012	-0,082
-351,752	52,050	-0,147	-0,102
-350,737	-124,948	0,212	-0,023
-349,723	734,017	0,040	0,079
-348,708	-200,000	0,022	-0,162
-347,693	-157,266	0,148	0,006
-346,679	-200,000	-0,024	-0,206
-345,664	44,779	-0,104	-0,070
-344,650	76,447	0,032	-0,025
-343,635	22,504	0,069	-0,041
-342,620	-103,705	0,129	0,022
-341,606	800,000	-0,030	0,064
-340,591	135,649	-0,078	0,074
-339,577	87,498	-0,138	-0,111
-338,562	-66,284	-0,166	0,048
-337,548	41,989	0,149	-0,098
-336,533	-200,000	0,074	-0,000
-335,518	-142,946	0,037	-0,003
-334,504	800,000	0,024	0,066
-333,489	-200,000	0,014	-0,078
-332,475	37,669	-0,027	0,017
-331,460	127,414	-0,018	-0,016
-330,445	-72,517	-0,046	-0,012
-329,431	-103,698	0,073	0,012
-328,416	-49,018	-0,112	0,039
-327,402	602,402	-0,020	-0,037
-326,387	800,000	0,022	-0,063
-325,372	74,374	0,022	0,017
-324,358	36,894	0,111	0,071
-323,343	-200,000	0,014	0,051
-322,329	-175,085	-0,048	0,001
-321,314	800,000	-0,069	-0,174
-320,299	-46,867	0,137	-0,048
-319,285	26,762	-0,055	0,033
-318,270	-200,000	-0,000	-0,026
-317,256	317,736	-0,031	-0,042
-316,241	162,793	0,065	-0,066
-315,226	-78,455	0,116	0,029
-314,212	398,521	0,046	-0,070
-313,197	51,122	0,124	-0,085
-312,183	-37,551	0,047	0,018
-311,168	333,395	-0,064	0,090
-310,153	598,186	-0,096	-0,173
-309,139	-200,000	0,008	-0,047
-308,124	-200,000	0,000	0,044
-307,110	584,609	-0,033	0,060
-306,095	-200,000	-0,006	-0,023
-305,080	32,110	-0,161	0,101
-304,066	-200,000	-0,002	0,050
-303,051	-200,000	0,003	0,113
-302,037	-200,000	0,001	-0,051
-301,022	385,908	0,083	0,124
-300,008	-200,000	0,008	-0,066
-298,993	-200,000	0,039	0,128
-297,978	-200,000	0,004	-0,095
-296,964	106,144	0,113	-0,097
-295,949	-33,135	0,050	-0,020
-294,935	800,000	-0,032	-0,065
-293,920	-200,000	-0,009	0,059
-292,905	-16,506	0,124	-0,057
-291,891	-200,000	0,002	0,066
-290,876	337,154	0,062	0,087
-289,862	82,106	-0,073	0,057
-288,847	39,085	-0,131	-0,085
-287,832	-200,000	-0,002	-0,177
-286,818	140,900	0,098	0,094
-285,803	559,410	-0,101	0,178
-284,789	164,384	-0,044	-0,045
-283,774	800,000	0,006	0,013
-282,759	-65,260	-0,194	0,056
-281,745	336,367	0,014	-0,020
-280,730	-176,960	0,156	-0,003
-279,716	-4,435	0,079	-0,039
-278,701	-69,428	0,154	-0,043
-277,686	85,725	0,083	-0,066
-276,672	800,000	-0,022	0,054
-275,657	105,569	0,079	0,068
-274,643	-78,453	-0,156	0,038
-273,628	-200,000	-0,009	-0,099
-272,613	-168,703	0,060	-0,002
-271,599	-200,000	-0,018	0,076
-270,584	470,680	-0,045	0,074
-269,570	-143,071	0,071	-0,005
-268,555	800,000	-0,028	-0,058
-267,540	-200,000	0,010	-0,057
-266,526	224,420	-0,052	0,061
-265,511	-36,783	0,077	0,030
-264,497	800,000	0,028	-0,078
-263,482	491,633	0,040	0,066
-262,467	800,000	0,013	0,034
-261,453	-200,000	0,011	0,105
-260,438	59,765	-0,130	0,093
-259,424	-47,861	-0,148	0,052
-258,409	521,350	0,043	-0,073
-257,395	20,706	-0,134	-0,078
-256,380	376,037	0,042	0,063
-255,365	125,724	0,071	0,065
-254,351	180,906	0,038	0,040
-253,336	-81,451	0,181	-0,043
-252,322	800,000	0,037	0,093
-251,307	-200,000	0,018	0,072
-250,292	800,000	-0,018	-0,056
-249,278	170,406	0,140	0,146
-248,263	69,086	0,044	0,033
-247,249	-15,187	-0,021	0,010
-246,234	-1,547	-0,168	-0,086
-245,219	-55,847	-0,025	-0,008
-244,205	183,248	-0,039	-0,041
-243,190	-200,000	0,007	-0,043
-242,176	123,148	0,065	-0,058
-241,161	-163,011	0,148	-0,005
-240,146	254,940	-0,085	0,105
-239,132	-200,000	-0,007	-0,093
-238,117	-200,000	-0,004	0,102
-237,103	599,820	-0,036	0,064
-236,088	-200,000	0,025	-0,128
-235,073	-1,110	0,125	-0,064
-234,059	-200,000	0,005	0,205
-233,044	293,355	0,079	-0,104
-232,030	800,000	0,008	0,017
-231,015	163,212	0,084	0,085
-230,000	56,937	0,103	0,072
-228,986	321,475	-0,054	-0,074
-227,971	-92,903	-0,051	-0,010
-226,957	-35,469	0,153	-0,060
-225,942	-137,518	0,103	0,008
-224,927	800,000	0,009	-0,026
-223,913	-35,149	0,040	-0,016
-222,898	583,471	-0,027	0,048
-221,884	148,189	0,126	0,123
-220,869	-127,262	0,117	-0,012
-219,855	34,400	-0,068	-0,043
-218,840	78,372	0,069	0,053
-217,825	-184,485	-0,093	-0,001
-216,811	-200,000	0,012	-0,054
-215,796	-44,252	0,126	0,045
-214,782	100,187	0,075	0,063
-213,767	800,000	0,031	-0,078
-212,752	-200,000	0,007	0,100
-211,738	4,682	0,041	-0,022
-210,723	-115,269	-0,074	0,010
-209,709	-24,037	-0,050	0,022
-208,694	800,000	-0,021	0,054
-207,679	-19,204	0,035	-0,016
-206,665	-200,000	-0,030	-0,097
-205,650	-143,392	-0,109	-0,007
-204,636	-83,176	-0,132	0,031
-203,621	161,528	-0,030	-0,030
-202,606	-200,000	0,007	-0,096
-201,592	318,503	0,122	-0,168
-200,577	-106,320	-0,087	-0,014
-199,563	800,000	0,034	-0,086
-198,548	800,000	0,024	-0,055
-197,533	800,000	0,050	0,125
-196,519	-200,000	-0,006	0,042
-195,504	115,432	-0,053	0,047
-194,490	-43,882	-0,066	0,024
-193,475	-9,215	0,041	0,020
-192,460	59,479	0,061	0,043
-191,446	18,147	0,043	0,025
-190,431	-40,346	-0,081	-0,030
-189,417	-115,420	0,096	0,013
-188,402	-18,211	-0,103	0,046
-187,387	-200,000	0,021	0,107
-186,373	-200,000	0,008	-0,042
-185,358	-200,000	-0,010	-0,123
-184,344	-85,515	-0,198	-0,044
-183,329	141,485	0,148	0,141
-182,315	-200,000	-0,055	0,249
-181,300	-118,229	0,089	0,011
-180,285	-200,000	0,005	0,054
-179,271	-146,290	-0,048	-0,003
-178,256	279,785	0,046	-0,060
-177,242	-130,913	0,161	-0,015
-176,227	800,000	-0,094	0,198
-175,212	-73,281	-0,080	0,021
-174,198	10,513	-0,057	0,031
-173,183	-166,925	0,083	0,002
-172,169	-62,499	0,039	0,012
-171,154	-125,397	-0,059	-0,006
-170,139	-174,362	0,153	0,003
-169,125	271,409	-0,090	0,115
-168,110	-102,427	0,007	-0,001
-167,096	258,788	0,062	0,078
-166,081	-123,863	-0,181	0,020
-165,066	-200,000	0,010	-0,163
-164,052	615,674	0,074	0,135
-163,037	302,881	-0,069	0,092
-162,023	800,000	0,077	0,211
-161,008	800,000	-0,010	-0,030
-159,993	-200,000	0,019	0,147
-158,979	-18,967	0,060	-0,027
-157,964	-112,771	0,068	-0,010
-156,950	604,221	-0,016	-0,029
-155,935	379,299	-0,071	0,105
-154,920	60,631	0,072	0,052
-153,906	800,000	-0,035	-0,107
-152,891	689,463	-0,031	0,059
-151,877	-7,184	-0,045	-0,022
-150,862	-200,000	-0,012	-0,081
-149,847	486,076	-0,038	0,062
-148,833	-200,000	0,022	0,119
-147,818	-12,469	-0,074	-0,035
-146,804	232,068	-0,039	0,046
-145,789	-79,829	-0,062	-0,015
-144,775	-154,181	-0,068	0,003
-143,760	-200,000	-0,042	0,158
-142,745	-200,000	0,001	0,043
-141,731	82,555	0,066	0,051
-140,716	-200,000	0,054	0,176
-139,702	800,000	0,101	0,223
-138,687	-200,000	0,029	0,093
-137,672	-200,000	-0,015	0,081
-136,658	130,620	-0,114	-0,105
-135,643	17,328	0,150	-0,086
-134,629	84,467	-0,056	-0,044
-133,614	800,000	0,025	0,073
-132,599	94,938	-0,088	0,072
-131,585	-18,626	-0,024	0,011
-130,570	800,000	-0,017	0,045
-129,556	800,000	0,054	-0,131
-128,541	-200,000	0,003	-0,112
-127,526	174,571	0,059	0,061
-126,512	308,807	-0,035	-0,047
-125,497	228,742	-0,082	0,096
-124,483	-87,797	0,144	0,031
-123,468	800,000	-0,026	-0,068
-122,453	800,000	-0,008	-0,017
-121,439	587,094	-0,113	-0,201
-120,424	-31,841	-0,055	0,022
-119,410	148,990	0,053	0,052
-118,395	51,862	-0,109	-0,075
-117,380	137,057	-0,051	-0,048
-116,366	372,725	-0,033	0,048
-115,351	72,315	-0,154	-0,116
-114,337	273,384	-0,012	-0,016
-113,322	45,600	-0,101	-0,067
-112,307	119,399	-0,075	-0,067
-111,293	-120,496	0,039	-0,005
-110,278	100,055	0,055	0,046
-109,264	-121,471	0,171	0,020
-108,249	-200,000	-0,013	-0,054
-107,234	-200,000	0,000	-0,086
-106,220	800,000	-0,062	0,144
-105,205	-102,480	0,122	-0,021
-104,191	21,049	0,072	0,042
-103,176	645,214	-0,056	0,103
-102,162	40,423	-0,154	0,100
-101,147	165,436	-0,012	0,012
-100,132	-103,418	-0,054	0,009
-99,118	-83,009	-0,045	0,010
-98,103	61,249	0,030	0,021
-97,089	-200,000	-0,024	0,110
-96,074	-92,691	0,059	-0,012
-95,059	499,120	-0,028	-0,047
-94,045	800,000	0,062	0,136
-93,030	-42,946	-0,189	0,069
-92,016	59,171	-0,074	-0,052
-91,001	-200,000	0,040	0,139
-89,986	-88,471	0,059	0,013
-88,972	46,756	0,064	-0,042
-87,957	0,312	-0,146	-0,075
-86,943	800,000	0,014	-0,031
-85,928	800,000	-0,068	0,136
-84,913	800,000	-0,031	-0,071
-83,899	-65,122	-0,007	0,002
-82,884	155,158	-0,109	0,108
-81,870	-65,825	0,120	0,034
-80,855	-200,000	0,005	0,107
-79,840	118,080	0,012	-0,011
-78,826	800,000	-0,051	-0,116
-77,811	103,721	0,092	-0,078
-76,797	800,000	0,031	-0,069
-75,782	-200,000	0,011	0,087
-74,767	800,000	0,044	0,116
-73,753	-200,000	-0,010	0,135
-72,738	301,518	-0,016	0,021
-71,724	-77,760	-0,132	-0,033
-70,709	487,957	-0,063	-0,104
-69,694	30,054	-0,084	0,052
-68,680	5,230	0,060	0,032
-67,665	115,554	0,079	0,069
-66,651	-200,000	-0,004	-0,180
-65,636	-200,000	0,003	-0,111
-64,622	70,846	-0,066	-0,049
-63,607	-111,564	0,040	-0,006
-62,592	-6,617	0,061	-0,030
-61,578	426,416	0,041	-0,063
-60,563	-73,286	0,064	0,017
-59,549	-200,000	-0,001	0,175
-58,534	84,116	-2,485	-1,949
-57,519	47,513	0,426	-0,285
-56,505	-200,000	-1,663	-5,345
-55,490	417,361	1,140	1,756
-54,476	800,000	5,426	11,559
-53,461	-200,000	21,750	339,698
-52,446	800,000	760,314	2301,746
-51,432	516,231	1654,400	2788,365
-50,417	104,816	1620,662	1372,271
-49,403	74,878	1275,433	963,929
-48,388	25,935	1023,294	611,554
-47,373	19,264	989,283	569,115
-46,359	13,678	976,671	543,465
-45,344	9,679	973,154	528,325
-44,330	10,194	970,992	528,823
-43,315	9,095	969,331	524,288
-42,300	9,053	968,095	523,463
-41,286	9,051	967,167	522,934
-40,271	9,006	966,279	522,285
-39,257	9,046	965,350	521,892
-38,242	8,970	964,615	521,225
-37,227	9,010	963,610	520,792
-36,213	8,978	963,010	520,345
-35,198	9,019	962,107	519,969
-34,184	9,060	961,293	519,642
-33,169	8,982	960,298	518,831
-32,154	9,079	959,450	518,667
-31,140	9,049	958,674	518,130
-30,125	9,128	957,715	517,847
-29,111	9,086	956,864	517,230
-28,096	9,073	956,281	516,852
-27,082	9,100	955,415	516,450
-26,067	9,059	954,815	515,972
-25,052	8,996	954,123	515,374
-24,038	9,020	953,271	514,973
-23,023	9,010	952,767	514,646
-22,009	9,032	952,222	514,402
-20,994	9,044	951,637	514,105
-19,979	9,032	950,972	513,685
-18,965	9,049	950,184	513,296
-17,950	9,084	949,542	513,041
-16,936	8,977	949,105	512,441
-15,921	8,983	948,263	511,984
-14,906	8,972	947,562	511,550
-13,892	8,885	947,146	511,028
-12,877	8,925	946,394	510,730
-11,863	8,869	945,694	510,151
-10,848	8,894	945,206	509,946
-9,833	9,002	944,692	509,995
-8,819	8,916	944,208	509,438
-7,804	8,935	943,109	508,887
-6,790	8,851	942,828	508,448
-5,775	8,928	942,178	508,323
-4,760	8,981	941,498	508,104
-3,746	8,934	941,013	507,672
-2,731	8,831	940,201	506,886
-1,717	8,786	939,677	506,441
-0,702	8,770	938,928	505,966
0,313	8,582	938,186	505,733
1,327	11,957	936,034	515,221
2,342	20,449	784,606	454,264
3,356	15,491	450,893	253,518
4,371	-10,762	313,587	148,287
5,386	-14,647	296,087	136,054
6,400	-16,765	289,987	131,130
7,415	-16,787	287,543	129,991
8,429	-17,285	285,538	128,585
9,444	-17,301	284,666	128,165
10,459	-17,232	284,113	127,972
11,473	-17,039	283,415	127,835
12,488	-16,967	282,957	127,686
13,502	-17,233	282,673	127,289
14,517	-17,207	282,208	127,093
15,531	-17,054	281,836	127,063
16,546	-16,957	281,462	126,976
17,561	-17,061	281,106	126,704
18,575	-16,776	280,674	126,773
19,590	-17,033	280,441	126,409
20,604	-16,736	279,945	126,459
21,619	-16,978	279,689	126,100
22,634	-16,788	279,452	126,164
23,648	-16,769	279,037	125,984
24,663	-16,945	278,643	125,626
25,677	-16,847	278,464	125,628
26,692	-16,875	278,218	125,479
27,707	-16,859	277,982	125,376
28,721	-16,903	277,796	125,239
29,736	-16,955	277,420	125,009
30,750	-16,881	277,076	124,914
31,765	-16,865	276,948	124,860
32,780	-16,926	276,878	124,759
33,794	-16,775	276,387	124,670
34,809	-16,819	276,032	124,457
35,823	-16,841	275,914	124,372
36,838	-16,865	275,644	124,217
37,853	-16,731	275,271	124,163
38,867	-16,808	275,230	124,061
39,882	-16,832	274,949	123,901
40,896	-16,680	274,529	123,844
41,911	-16,778	274,452	123,705
42,926	-16,894	274,270	123,504
43,940	-16,990	273,789	123,186
44,955	-16,907	273,691	123,209
45,969	-16,838	273,409	123,136
46,984	-16,868	273,291	123,044
47,999	-16,871	273,070	122,930
49,013	-16,692	272,885	123,002
50,028	-16,716	272,616	122,848
51,042	-16,630	272,301	122,775
52,057	-16,787	271,958	122,464
53,071	-16,785	272,014	122,480
54,086	-16,694	271,735	122,428
55,101	-16,723	271,565	122,314
56,115	-16,803	271,167	122,050
57,130	-16,776	270,950	121,966
58,144	-16,928	270,723	121,712
59,159	-17,000	270,415	121,496
60,174	-17,025	270,195	121,363
61,188	-17,061	270,121	121,286
62,203	-16,740	269,675	121,371
63,217	-16,793	269,638	121,294
64,232	-16,873	269,351	121,081
65,247	-16,949	269,050	120,865
66,261	-16,821	268,862	120,888
67,276	-16,813	268,540	120,739
68,290	-16,940	268,522	120,604
69,305	-16,740	268,205	120,634
70,320	-16,857	267,926	120,391
71,334	-16,694	267,836	120,488
72,349	-16,890	267,636	120,208
73,363	-17,032	267,235	119,889
74,378	-16,937	267,036	119,875
75,393	-16,998	266,877	119,738
76,407	-16,824	266,573	119,749
77,422	-16,828	266,533	119,716
78,436	-16,694	266,085	119,626
79,451	-16,842	265,969	119,429
80,466	-16,804	265,645	119,307
81,480	-16,680	265,427	119,311
82,495	-16,762	265,408	119,217
83,509	-16,598	264,905	119,129
84,524	-16,658	264,951	119,085
85,539	-16,793	264,790	118,880
86,553	-16,815	264,529	118,732
87,568	-16,801	264,246	118,607
88,582	-16,894	264,069	118,434
89,597	-16,624	263,667	118,485
90,611	-16,852	263,643	118,259
91,626	-16,830	263,459	118,186
92,641	-16,791	263,138	118,067
93,655	-16,925	263,035	117,890
94,670	-16,836	262,588	117,759
95,684	-17,030	262,593	117,576
96,699	-16,684	262,240	117,718
97,714	-16,787	262,261	117,624
98,728	-16,755	262,066	117,555
99,743	-16,572	261,691	117,539
100,757	-16,665	261,659	117,431
101,772	-16,745	261,237	117,161
102,787	-16,762	261,076	117,063
103,801	-16,880	260,939	116,885
104,816	-16,785	260,604	116,810
105,830	-16,987	260,597	116,617
106,845	-16,802	260,306	116,640
107,860	-16,830	260,256	116,582
108,874	-16,606	259,851	116,589
109,889	-16,758	259,627	116,344
110,903	-16,808	259,447	116,208
111,918	-16,746	259,293	116,183
112,933	-16,787	259,106	116,054
113,947	-16,656	258,872	116,054
114,962	-16,715	258,660	115,896
115,976	-16,797	258,537	115,759
116,991	-16,686	258,271	115,727
118,006	-16,647	257,997	115,628
119,020	-16,814	258,040	115,491
120,035	-16,883	257,979	115,392
121,049	-16,723	257,503	115,309
122,064	-16,839	257,369	115,137
123,079	-16,802	257,076	115,028
124,093	-16,750	257,010	115,034
125,108	-16,686	256,658	114,922
126,122	-16,663	256,566	114,891
127,137	-16,558	256,346	114,873
128,151	-16,559	256,217	114,805
129,166	-16,545	256,005	114,712
130,181	-16,658	255,715	114,473
131,195	-16,721	255,561	114,339
132,210	-16,845	255,443	114,169
133,224	-16,821	255,176	114,060
134,239	-16,841	255,004	113,956
135,254	-16,794	254,705	113,853
136,268	-16,769	254,673	113,850
137,283	-16,475	254,292	113,923
138,297	-16,645	254,284	113,762
139,312	-16,830	254,033	113,481
140,327	-16,701	253,705	113,435
141,341	-16,861	253,711	113,290
142,356	-16,761	253,280	113,174
143,370	-16,873	253,084	112,979
144,385	-16,820	252,949	112,955
145,400	-16,800	252,770	112,881
146,414	-16,724	252,783	112,943
147,429	-16,729	252,502	112,802
148,443	-16,618	252,216	112,760
149,458	-16,793	252,089	112,543
150,473	-16,609	251,863	112,590
151,487	-16,774	251,728	112,379
152,502	-16,885	251,395	112,125
153,516	-16,626	251,284	112,287
154,531	-16,608	251,145	112,230
155,546	-16,835	251,089	112,001
156,560	-16,813	250,742	111,855
157,575	-16,708	250,325	111,748
158,589	-16,714	250,303	111,723
159,604	-16,985	250,204	111,440
160,619	-16,933	249,995	111,380
161,633	-16,889	249,828	111,333
162,648	-16,503	249,519	111,512
163,662	-16,679	249,448	111,321
164,677	-16,609	249,406	111,352
165,692	-16,711	249,063	111,103
166,706	-16,809	249,031	110,996
167,721	-16,749	248,842	110,953
168,735	-16,633	248,650	110,955
169,750	-16,741	248,570	110,818
170,764	-16,611	248,225	110,764
171,779	-16,890	248,087	110,458
172,794	-16,883	247,903	110,372
173,808	-16,848	247,808	110,349
174,823	-16,519	247,655	110,547
175,837	-16,653	247,416	110,318
176,852	-16,826	247,420	110,166
177,867	-16,607	247,000	110,151
178,881	-16,702	246,871	110,005
179,896	-16,730	246,843	109,959
180,910	-16,678	246,506	109,843
181,925	-16,747	246,362	109,711
182,940	-16,740	246,227	109,647
183,954	-16,777	245,938	109,478
184,969	-16,878	245,897	109,365
185,983	-16,640	245,829	109,524
186,998	-16,682	245,564	109,361
188,013	-16,830	245,304	109,113
189,027	-16,846	245,200	109,044
190,042	-16,863	245,012	108,936
191,056	-16,871	244,848	108,847
192,071	-16,857	244,592	108,735
193,086	-16,833	244,469	108,690
194,100	-16,843	244,241	108,571
195,115	-16,707	244,023	108,576
196,129	-16,873	243,922	108,385
197,144	-16,917	243,676	108,230
198,159	-16,908	243,487	108,144
199,173	-16,762	243,318	108,179
200,188	-16,945	243,108	107,926
201,202	-16,835	243,094	108,000
202,217	-16,728	242,851	107,970
203,232	-16,570	242,713	108,029
204,246	-17,125	242,404	107,428
205,261	-17,208	242,064	107,200
206,275	-15,820	242,399	108,474
207,290	-10,869	244,412	113,444
208,304	-4,395	246,222	119,635
209,319	-1,430	247,024	122,471
210,334	-0,574	247,513	123,413
211,348	0,640	247,543	124,423
212,363	1,225	247,688	124,969
213,377	1,257	247,651	124,966
214,392	1,783	247,533	125,331
215,407	1,947	247,452	125,414
216,421	2,094	247,263	125,429
217,436	2,065	247,190	125,357
218,450	2,216	246,924	125,335
219,465	2,203	246,858	125,279
220,480	1,851	246,607	124,851
221,494	1,577	246,455	124,537
222,509	1,313	246,015	124,087
223,523	1,277	245,831	123,953
224,538	1,176	245,490	123,688
225,553	1,009	245,329	123,458
226,567	1,055	245,235	123,438
227,582	0,870	245,151	123,233
228,596	0,967	245,003	123,226
229,611	1,060	244,678	123,128
230,626	0,924	244,602	122,968
231,640	1,017	244,603	123,034
232,655	0,932	244,259	122,780
233,669	1,045	244,023	122,743
234,684	0,905	243,962	122,587
235,699	1,013	243,885	122,625
236,713	1,025	243,652	122,507
237,728	0,977	243,417	122,339
238,742	1,092	243,292	122,359
239,757	0,980	243,098	122,160
240,772	1,036	243,020	122,154
241,786	1,058	242,766	122,034
242,801	0,887	242,730	121,867
243,815	0,820	242,638	121,755
244,830	1,066	242,292	121,770
245,844	0,923	242,289	121,642
246,859	0,934	241,944	121,466
247,874	1,152	241,944	121,631
248,888	1,079	241,601	121,390
249,903	1,138	241,571	121,411
250,917	1,195	241,426	121,373
251,932	1,049	241,404	121,234
252,947	0,961	241,280	121,090
253,961	0,942	240,999	120,923
254,976	0,852	240,916	120,798
255,990	1,005	240,648	120,775
257,005	1,195	240,384	120,785
258,020	1,044	240,466	120,694
259,034	1,042	240,244	120,570
260,049	0,920	240,083	120,381
261,063	1,085	239,822	120,372
262,078	1,134	239,648	120,312
263,093	0,975	239,607	120,154
264,107	1,208	239,390	120,220
265,122	1,076	239,342	120,080
266,136	1,070	239,107	119,947
267,151	1,080	239,030	119,906
268,166	1,005	238,830	119,735
269,180	1,092	238,499	119,627
270,195	1,087	238,608	119,667
271,209	0,998	238,385	119,474
272,224	1,026	238,279	119,433
273,239	0,903	238,000	119,185
274,253	1,049	237,931	119,256
275,268	1,016	237,659	119,082
276,282	1,076	237,524	119,051
277,297	0,893	237,393	118,831
278,312	1,006	237,257	118,841
279,326	1,258	237,135	118,968
280,341	1,356	236,973	118,953
281,355	0,971	236,882	118,593
282,370	1,042	236,846	118,621
283,384	1,089	236,592	118,520
284,399	0,957	236,499	118,360
285,414	1,053	236,242	118,296
286,428	1,157	236,088	118,289
287,443	1,119	236,080	118,245
288,457	1,000	235,787	117,995
289,472	0,927	235,665	117,866
290,487	1,052	235,419	117,830
291,501	1,211	235,244	117,856
292,516	0,988	235,276	117,688
293,530	1,037	235,026	117,591
294,545	1,057	234,954	117,559
295,560	0,985	234,916	117,474
296,574	0,935	234,656	117,295
297,589	1,194	234,433	117,374
298,603	1,184	234,331	117,305
299,618	1,264	234,059	117,220
300,633	1,039	234,091	117,051
301,647	1,577	233,818	117,321
302,662	1,315	233,709	117,054
303,676	1,335	233,528	116,968
304,691	1,061	233,455	116,708
305,706	1,153	233,324	116,704
306,720	1,171	233,118	116,604
307,735	1,150	233,132	116,584
308,749	1,289	232,829	116,530
309,764	1,050	232,696	116,269
310,779	1,108	232,452	116,181
311,793	1,063	232,395	116,107
312,808	1,176	232,281	116,127
313,822	1,362	231,986	116,112
314,837	1,357	231,894	116,052
315,852	1,215	231,815	115,893
316,866	1,093	231,611	115,687
317,881	1,444	231,463	115,872
318,895	1,511	231,318	115,841
319,910	1,313	231,209	115,624
320,925	1,310	231,066	115,540
321,939	1,069	230,963	115,294
322,954	1,271	230,844	115,378
323,968	1,206	230,572	115,183
324,983	1,378	230,472	115,254
325,997	1,196	230,311	115,024
327,012	1,243	230,139	114,964
328,027	1,306	229,940	114,901
329,041	1,324	229,896	114,883
330,056	1,200	229,766	114,714
331,070	1,308	229,710	114,758
332,085	1,252	229,443	114,572
333,100	1,346	229,216	114,520
334,114	1,310	229,046	114,397
335,129	1,319	228,941	114,342
336,143	1,330	228,768	114,253
337,158	1,459	228,641	114,277
338,173	1,570	228,480	114,270
339,187	1,606	228,327	114,211
340,202	1,383	228,249	113,993
341,216	1,125	228,153	113,740
342,231	1,165	228,041	113,705
343,246	1,182	227,863	113,618
344,260	1,311	227,645	113,597
345,275	1,585	227,552	113,746
346,289	1,426	227,235	113,459
347,304	1,355	227,351	113,453
348,319	1,241	227,028	113,196
349,333	1,521	226,812	113,288
350,348	1,212	226,811	113,046
351,362	1,422	226,747	113,161
352,377	1,088	226,666	112,860
353,392	1,247	226,437	112,855
354,406	1,340	226,209	112,801
355,421	192,206	1313,533	1380,854
356,435	153,981	1445,867	1380,718
