DTS Sentinel unit serial number:	SN410029Multiplexer serial number:	ORYXHardware model number:	OX2-SRSoftware version number:	ORYX F/W v4,00 Oryx Data Collector v3.7.2.0data status	okinstallation	B5 Nyhavnadifferential loss correction	single-endedforward channel	channel 2reverse channel	N/Adate	2023/12/13time	18:57:13forward acquisition time	300,00reverse acquisition time	0,00gamma	499,1914k internal	0,3160k external	0,3160temperature offset calibration	1,0000default loss term (dB/km)	0,3820temperature slope calibration	1,0000multiplexer offset coefficient	1,0000multiplexer slope coefficient	1,0000fibre end	0,00T internal ref (°C)	12,23T ext. ref 1 (°C)	-4,91T ext. ref 2 (°C)	-4,96length (m)	temperature (°C)	Stokes	anti-Stokes-744,400	-134,345	0,173	0,015
-743,385	-73,485	-0,236	-0,063
-742,371	220,799	0,089	0,106
-741,356	-62,935	-0,284	-0,086
-740,342	-74,706	0,113	0,030
-739,327	-107,164	-0,383	-0,062
-738,312	292,710	-0,039	0,052
-737,298	-13,066	-0,352	-0,168
-736,283	136,271	0,037	-0,035
-735,269	-77,811	-0,293	0,074
-734,254	265,462	0,171	0,220
-733,239	-0,096	-0,432	-0,226
-732,225	8,046	0,127	-0,070
-731,210	242,557	-0,092	0,114
-730,196	511,599	0,053	-0,092
-729,181	102,472	-0,059	-0,050
-728,167	-200,000	0,003	-0,017
-727,152	-97,792	-0,090	-0,017
-726,137	92,214	-0,054	0,045
-725,123	-1,542	-0,079	-0,041
-724,108	800,000	-0,046	-0,147
-723,094	255,164	-0,054	-0,069
-722,079	-200,000	0,001	-0,033
-721,064	-158,881	-0,073	-0,003
-720,050	567,450	-0,042	0,075
-719,035	800,000	-0,043	-0,127
-718,021	71,430	-0,107	0,082
-717,006	226,495	0,045	-0,054
-715,991	-116,808	-0,148	-0,020
-714,977	44,646	-0,130	0,088
-713,962	-10,213	-0,087	-0,042
-712,948	-115,025	0,125	-0,017
-711,933	-137,332	-0,141	0,012
-710,918	-200,000	-0,015	-0,086
-709,904	800,000	-0,061	-0,130
-708,889	-121,896	-0,178	0,021
-707,875	-20,794	-0,011	0,005
-706,860	183,695	0,039	0,043
-705,845	255,956	0,024	-0,031
-704,831	-119,936	-0,067	-0,008
-703,816	-24,783	-0,118	-0,051
-702,802	150,233	-0,056	-0,056
-701,787	190,550	0,018	-0,020
-700,772	-17,154	-0,035	0,016
-699,758	713,622	-0,039	-0,077
-698,743	-200,000	0,022	-0,178
-697,729	153,631	-0,054	-0,055
-696,714	-200,000	-0,024	-0,096
-695,699	234,561	0,102	0,123
-694,685	56,404	-0,028	-0,020
-693,670	420,277	-0,069	0,109
-692,656	-94,217	0,058	0,012
-691,641	-26,869	0,110	-0,047
-690,627	800,000	0,075	0,191
-689,612	800,000	0,039	0,082
-688,597	65,093	-0,037	0,027
-687,583	-157,929	-0,041	-0,002
-686,568	-200,000	-0,005	-0,091
-685,554	800,000	0,049	-0,143
-684,539	420,175	0,050	-0,079
-683,524	-200,000	0,006	0,072
-682,510	-120,717	0,033	0,004
-681,495	222,633	-0,030	-0,035
-680,481	300,168	0,028	-0,038
-679,466	-200,000	-0,008	-0,055
-678,451	-87,386	0,075	-0,017
-677,437	-200,000	0,001	0,030
-676,422	-200,000	0,003	0,044
-675,408	-200,000	-0,013	-0,103
-674,393	-64,370	0,200	0,059
-673,378	-99,206	-0,198	0,036
-672,364	711,563	0,025	-0,049
-671,349	32,281	0,049	0,031
-670,335	-87,457	-0,022	-0,005
-669,320	201,512	-0,084	0,095
-668,305	124,388	0,116	0,107
-667,291	-52,303	-0,050	-0,017
-666,276	800,000	0,009	-0,027
-665,262	-90,541	-0,116	-0,024
-664,247	800,000	0,022	0,049
-663,232	800,000	-0,022	-0,069
-662,218	-55,110	-0,057	-0,019
-661,203	-200,000	-0,022	0,138
-660,189	126,899	-0,087	0,081
-659,174	393,559	-0,044	0,068
-658,159	800,000	0,029	-0,076
-657,145	173,707	-0,100	-0,106
-656,130	261,585	0,036	-0,046
-655,116	-52,947	-0,262	-0,088
-654,101	510,508	0,018	0,031
-653,086	800,000	0,057	-0,141
-652,072	800,000	0,025	-0,052
-651,057	70,737	0,076	-0,058
-650,043	-200,000	-0,031	-0,236
-649,028	153,008	0,065	-0,065
-648,014	39,681	0,085	-0,056
-646,999	55,375	-0,114	0,081
-645,984	800,000	0,031	0,068
-644,970	107,161	0,087	0,076
-643,955	639,771	-0,069	-0,129
-642,941	-46,961	0,086	0,031
-641,926	-77,345	0,065	0,016
-640,911	-200,000	-0,014	0,138
-639,897	117,549	-0,070	0,063
-638,882	86,391	-0,084	0,068
-637,868	800,000	-0,048	-0,117
-636,853	800,000	-0,048	-0,111
-635,838	273,043	0,054	0,070
-634,824	160,316	0,031	0,032
-633,809	-47,027	0,058	0,021
-632,795	173,551	-0,102	0,108
-631,780	-200,000	-0,012	-0,060
-630,765	-200,000	-0,024	-0,130
-629,751	-200,000	0,004	-0,019
-628,736	800,000	0,064	-0,162
-627,722	-200,000	-0,021	-0,109
-626,707	800,000	-0,008	0,023
-625,692	-169,709	-0,062	-0,002
-624,678	47,692	-0,108	-0,074
-623,663	215,699	0,097	0,113
-622,649	-19,840	-0,058	0,026
-621,634	170,695	0,077	-0,081
-620,619	238,279	-0,106	-0,130
-619,605	-24,830	0,058	-0,025
-618,590	-200,000	0,009	-0,046
-617,576	-97,880	0,016	-0,003
-616,561	-7,740	-0,042	0,021
-615,546	-64,633	-0,133	0,039
-614,532	-7,566	0,081	-0,040
-613,517	275,947	-0,036	0,047
-612,503	25,151	-0,034	-0,020
-611,488	22,644	0,045	-0,027
-610,474	218,248	-0,047	-0,055
-609,459	161,492	-0,035	0,036
-608,444	-169,240	0,051	0,001
-607,430	800,000	-0,061	-0,183
-606,415	-104,745	-0,191	-0,032
-605,401	-113,332	0,111	0,016
-604,386	-200,000	0,002	0,055
-603,371	-200,000	-0,009	-0,044
-602,357	-93,259	-0,086	0,017
-601,342	27,325	-0,023	0,014
-600,328	175,244	-0,047	-0,050
-599,313	6,612	0,070	0,038
-598,298	-200,000	0,013	0,335
-597,284	800,000	0,042	0,131
-596,269	-200,000	-0,009	-0,093
-595,255	-200,000	0,001	0,168
-594,240	-30,989	-0,098	0,040
-593,225	83,405	-0,046	0,037
-592,211	304,081	0,109	-0,149
-591,196	800,000	0,028	-0,073
-590,182	-200,000	0,000	-0,061
-589,167	68,763	0,083	0,062
-588,152	454,656	0,012	-0,019
-587,138	92,679	0,068	-0,057
-586,123	-67,040	-0,169	-0,049
-585,109	612,717	-0,022	0,040
-584,094	-200,000	0,006	0,060
-583,079	102,339	-0,113	0,097
-582,065	800,000	-0,022	0,062
-581,050	72,317	0,108	-0,082
-580,036	-120,332	-0,096	0,012
-579,021	143,268	0,057	0,056
-578,006	-200,000	0,035	0,000
-576,992	3,341	-0,111	-0,059
-575,977	-182,465	0,061	-0,001
-574,963	-64,123	0,117	0,035
-573,948	63,204	0,055	-0,040
-572,934	800,000	-0,049	0,106
-571,919	286,194	0,007	0,010
-570,904	-200,000	0,010	-0,096
-569,890	-200,000	-0,011	-0,041
-568,875	184,046	0,016	0,017
-567,861	-200,000	-0,029	0,157
-566,846	281,876	-0,052	0,068
-565,831	-133,228	0,095	-0,009
-564,817	-45,194	-0,086	-0,031
-563,802	207,602	-0,043	0,049
-562,788	-200,000	0,015	-0,109
-561,773	25,380	0,074	0,045
-560,758	-74,822	0,060	0,016
-559,744	800,000	-0,018	-0,040
-558,729	800,000	0,056	0,114
-557,715	-58,085	-0,185	-0,059
-556,700	-200,000	-0,033	-0,187
-555,685	-104,100	-0,179	0,030
-554,671	40,099	0,068	0,044
-553,656	281,672	0,035	0,047
-552,642	37,153	-0,009	-0,006
-551,627	-200,000	0,001	-0,091
-550,612	56,742	0,033	0,023
-549,598	54,465	-0,076	0,053
-548,583	-200,000	0,003	-0,020
-547,569	399,686	-0,057	0,088
-546,554	-200,000	0,006	0,048
-545,539	-55,727	0,067	-0,022
-544,525	-200,000	-0,004	-0,018
-543,510	660,922	0,017	-0,032
-542,496	422,258	0,068	-0,107
-541,481	800,000	-0,048	-0,144
-540,466	230,459	0,085	-0,102
-539,452	-141,159	0,033	0,002
-538,437	800,000	-0,055	0,153
-537,423	800,000	-0,046	0,099
-536,408	487,539	0,030	-0,050
-535,393	-46,826	0,108	-0,038
-534,379	277,330	-0,084	0,110
-533,364	56,535	0,016	-0,012
-532,350	-200,000	-0,012	-0,094
-531,335	-119,247	0,124	0,016
-530,321	-95,967	-0,125	0,024
-529,306	631,209	0,033	-0,061
-528,291	361,088	-0,028	-0,042
-527,277	-200,000	0,002	0,020
-526,262	19,594	0,156	0,092
-525,248	5,228	-0,092	0,050
-524,233	-200,000	0,014	-0,127
-523,218	-14,999	0,086	0,040
-522,204	-8,872	0,028	-0,014
-521,189	78,950	-0,117	0,092
-520,175	800,000	0,021	-0,056
-519,160	-200,000	0,020	-0,155
-518,145	-29,522	0,025	0,010
-517,131	-200,000	-0,009	-0,091
-516,116	800,000	-0,040	0,107
-515,102	-31,971	0,027	-0,011
-514,087	135,876	0,012	0,011
-513,072	-200,000	-0,005	-0,100
-512,058	747,584	-0,020	0,039
-511,043	304,399	-0,071	0,096
-510,029	-200,000	0,025	0,197
-509,014	360,365	-0,091	0,133
-507,999	107,233	-0,121	0,105
-506,985	800,000	-0,033	-0,104
-505,970	-117,492	-0,146	0,019
-504,956	800,000	-0,012	-0,035
-503,941	-76,886	0,080	-0,020
-502,926	-200,000	0,013	-0,088
-501,912	800,000	0,023	0,073
-500,897	51,742	-0,078	-0,054
-499,883	-200,000	0,180	0,000
-498,868	800,000	-0,031	0,075
-497,853	800,000	0,027	0,077
-496,839	74,643	0,039	-0,030
-495,824	-200,000	-0,003	0,013
-494,810	13,334	-0,047	-0,026
-493,795	-200,000	-0,002	-0,101
-492,781	426,214	0,029	0,045
-491,766	-161,245	0,122	-0,005
-490,751	237,438	-0,153	-0,185
-489,737	-78,811	0,030	0,007
-488,722	242,022	0,138	0,168
-487,708	800,000	-0,030	-0,090
-486,693	-200,000	0,033	0,000
-485,678	253,341	-0,060	0,075
-484,664	-94,339	-0,069	0,014
-483,649	614,565	0,027	0,050
-482,635	-18,183	0,079	-0,036
-481,620	262,886	0,062	-0,079
-480,605	58,012	0,080	0,057
-479,591	800,000	-0,029	0,083
-478,576	-200,000	0,022	-0,125
-477,562	-200,000	-0,000	-0,052
-476,547	-200,000	0,027	-0,103
-475,532	-200,000	-0,006	0,061
-474,518	66,588	0,088	-0,065
-473,503	472,891	0,069	-0,114
-472,489	-18,989	0,064	0,029
-471,474	-46,868	-0,108	-0,038
-470,459	-137,292	-0,074	0,006
-469,445	-200,000	0,001	0,075
-468,430	-65,950	0,043	0,012
-467,416	19,005	-0,009	0,005
-466,401	-200,000	-0,011	-0,098
-465,386	-10,297	0,072	-0,035
-464,372	-200,000	-0,008	0,071
-463,357	800,000	0,049	-0,143
-462,343	-200,000	-0,012	0,052
-461,328	240,472	-0,105	-0,127
-460,313	-92,644	0,090	0,018
-459,299	-22,478	0,175	0,077
-458,284	-87,268	0,129	-0,028
-457,270	-6,399	-0,094	-0,046
-456,255	78,908	-0,022	-0,017
-455,241	-68,945	-0,091	-0,025
-454,226	126,241	-0,136	0,125
-453,211	-58,430	-0,145	0,046
-452,197	199,921	0,097	0,109
-451,182	-157,284	0,155	-0,007
-450,168	-200,000	0,051	0,177
-449,153	16,334	0,089	-0,051
-448,138	-200,000	-0,012	-0,102
-447,124	136,256	-0,070	-0,067
-446,109	800,000	-0,011	-0,036
-445,095	-187,826	-0,187	-0,002
-444,080	120,273	0,057	-0,051
-443,065	17,489	0,103	-0,059
-442,051	132,160	-0,027	0,026
-441,036	536,274	-0,040	0,069
-440,022	113,758	-0,113	0,100
-439,007	184,702	0,021	-0,023
-437,992	313,152	0,041	-0,057
-436,978	221,284	0,063	-0,074
-435,963	27,606	0,017	0,011
-434,949	176,430	-0,034	0,036
-433,934	-200,000	0,014	-0,104
-432,919	106,218	-0,033	-0,029
-431,905	-114,795	0,060	0,008
-430,890	-200,000	-0,010	-0,116
-429,876	112,367	0,083	0,073
-428,861	8,719	-0,104	-0,057
-427,846	-88,794	-0,069	0,015
-426,832	-165,944	-0,127	0,004
-425,817	89,784	0,064	0,052
-424,803	-98,968	0,114	-0,021
-423,788	163,995	-0,056	-0,057
-422,773	-51,042	0,092	0,031
-421,759	800,000	0,031	0,080
-420,744	299,517	-0,027	0,036
-419,730	-101,268	0,020	-0,004
-418,715	-95,274	-0,089	-0,017
-417,701	-200,000	-0,022	-0,161
-416,686	-9,492	-0,081	-0,039
-415,671	109,535	-0,011	0,010
-414,657	75,978	-0,100	0,077
-413,642	-153,470	0,030	0,001
-412,628	571,554	0,050	-0,089
-411,613	800,000	-0,035	-0,093
-410,598	-184,085	-0,155	0,002
-409,584	187,513	0,066	0,072
-408,569	-200,000	-0,003	0,040
-407,555	-58,876	0,093	0,029
-406,540	34,846	0,070	0,044
-405,525	-200,000	-0,019	-0,114
-404,511	-200,000	0,006	0,079
-403,496	-161,205	-0,117	-0,004
-402,482	1,858	0,061	-0,032
-401,467	354,667	-0,054	-0,079
-400,452	73,543	0,051	-0,039
-399,438	-125,048	0,152	-0,017
-398,423	-16,447	-0,088	-0,040
-397,409	-200,000	-0,042	-0,152
-396,394	44,825	0,046	-0,031
-395,379	-200,000	0,018	-0,081
-394,365	-19,799	0,038	0,017
-393,350	-66,704	0,026	-0,007
-392,336	800,000	-0,030	0,066
-391,321	-200,000	0,016	0,092
-390,306	417,549	-0,039	-0,060
-389,292	-200,000	0,008	-0,109
-388,277	606,771	-0,025	-0,045
-387,263	-200,000	0,027	-0,103
-386,248	112,229	0,084	-0,074
-385,233	-137,957	-0,144	0,012
-384,219	79,149	-0,041	0,032
-383,204	32,409	-0,045	-0,028
-382,190	605,747	-0,030	0,055
-381,175	800,000	0,032	0,095
-380,160	-100,549	0,136	0,024
-379,146	89,088	-0,145	0,117
-378,131	9,351	0,114	0,062
-377,117	-200,000	-0,009	0,053
-376,102	-200,000	0,028	0,165
-375,088	139,064	-0,011	0,011
-374,073	800,000	0,013	-0,039
-373,058	-200,000	0,001	0,090
-372,044	800,000	0,051	0,118
-371,029	143,146	-0,070	0,067
-370,015	-200,000	-0,006	0,082
-369,000	-42,640	-0,111	-0,041
-367,985	337,092	-0,034	-0,048
-366,971	-200,000	-0,034	0,181
-365,956	172,811	-0,082	0,086
-364,942	197,470	0,060	0,067
-363,927	-189,805	0,107	0,001
-362,912	800,000	0,010	-0,022
-361,898	800,000	-0,025	-0,080
-360,883	-21,627	0,146	-0,064
-359,869	237,580	-0,016	0,019
-358,854	-200,000	-0,020	0,164
-357,839	-200,000	-0,004	0,122
-356,825	65,246	-0,072	-0,052
-355,810	-136,720	-0,055	0,005
-354,796	-200,000	0,021	-0,124
-353,781	213,161	0,016	-0,018
-352,766	66,564	-0,026	0,019
-351,752	-200,000	-0,031	0,163
-350,737	-200,000	-0,022	-0,089
-349,723	-122,546	-0,051	-0,006
-348,708	-52,020	-0,038	-0,013
-347,693	-36,874	-0,178	-0,069
-346,679	578,859	0,023	0,041
-345,664	61,049	-0,012	0,009
-344,650	-157,669	-0,077	-0,003
-343,635	230,557	-0,068	-0,081
-342,620	-146,815	0,092	-0,006
-341,606	239,509	0,032	-0,038
-340,591	616,010	0,048	-0,088
-339,577	-16,753	-0,110	0,050
-338,562	-36,198	-0,171	-0,067
-337,548	-18,118	0,087	0,040
-336,533	800,000	0,056	0,117
-335,518	800,000	0,049	0,130
-334,504	-39,369	0,078	0,030
-333,489	800,000	-0,032	0,084
-332,475	253,320	0,063	-0,078
-331,460	333,141	0,036	-0,050
-330,445	164,569	0,023	0,023
-329,431	249,736	0,013	-0,016
-328,416	-37,298	-0,072	0,028
-327,402	113,518	0,112	0,099
-326,387	138,738	-0,140	0,133
-325,372	800,000	-0,009	0,027
-324,358	43,490	-0,092	-0,061
-323,343	800,000	-0,053	-0,118
-322,329	-20,207	-0,022	0,010
-321,314	800,000	0,034	0,082
-320,299	-17,862	0,189	0,086
-319,285	-53,323	-0,055	0,018
-318,270	43,715	-0,065	-0,043
-317,256	-200,000	-0,031	-0,144
-316,241	-99,857	0,086	0,015
-315,226	-116,598	0,066	-0,009
-314,212	37,206	0,120	0,077
-313,197	-200,000	-0,005	-0,063
-312,183	18,781	0,096	-0,055
-311,168	-200,000	-0,007	-0,137
-310,153	800,000	-0,038	0,084
-309,139	384,223	-0,092	0,137
-308,124	-200,000	0,026	-0,128
-307,110	257,034	0,049	0,061
-306,095	501,057	0,029	0,049
-305,080	-98,289	-0,174	-0,032
-304,066	548,118	0,038	-0,065
-303,051	-41,460	-0,040	-0,015
-302,037	401,277	0,025	-0,038
-301,022	-200,000	-0,022	-0,142
-300,008	-121,484	0,075	-0,009
-298,993	-109,553	0,133	-0,020
-297,978	-200,000	-0,004	-0,026
-296,964	-145,725	0,119	-0,008
-295,949	337,748	-0,064	-0,090
-294,935	15,511	0,050	-0,029
-293,920	-72,730	-0,048	-0,013
-292,905	800,000	0,019	-0,042
-291,891	-200,000	-0,032	-0,144
-290,876	-200,000	-0,003	0,057
-289,862	192,974	-0,064	0,070
-288,847	49,494	0,057	-0,039
-287,832	-11,059	-0,095	-0,045
-286,818	-200,000	-0,082	0,000
-285,803	-200,000	0,019	0,165
-284,789	-32,738	-0,098	0,039
-283,774	-29,904	0,167	-0,069
-282,759	-31,715	0,053	0,021
-281,745	-200,000	0,005	-0,063
-280,730	-200,000	0,018	0,128
-279,716	24,540	0,056	-0,033
-278,701	-136,553	-0,157	0,013
-277,686	-104,382	0,054	-0,009
-276,672	-200,000	0,001	-0,098
-275,657	95,948	-0,054	-0,045
-274,643	-10,002	0,055	0,027
-273,628	540,326	-0,070	-0,121
-272,613	-152,116	0,069	-0,004
-271,599	-49,761	0,052	0,018
-270,584	-33,891	0,147	-0,058
-269,570	534,905	0,059	0,102
-268,555	-128,713	0,027	-0,003
-267,540	-2,522	-0,045	0,023
-266,526	-34,535	0,087	0,034
-265,511	800,000	0,031	0,065
-264,497	-100,384	0,099	0,017
-263,482	-200,000	0,003	0,061
-262,467	-200,000	-0,013	-0,070
-261,453	-35,061	-0,082	0,032
-260,438	-117,025	0,070	0,009
-259,424	108,448	-0,101	-0,087
-258,409	45,673	0,026	0,017
-257,395	-200,000	0,020	0,078
-256,380	800,000	-0,043	0,095
-255,365	-68,571	0,142	-0,039
-254,351	-132,037	-0,137	-0,013
-253,336	-55,948	0,025	0,008
-252,322	-200,000	0,012	0,146
-251,307	800,000	0,060	0,136
-250,292	-200,000	0,018	-0,058
-249,278	-73,491	0,104	-0,027
-248,263	47,789	0,101	0,068
-247,249	-96,111	0,099	0,019
-246,234	-54,850	-0,061	-0,020
-245,219	-200,000	0,002	0,166
-244,205	800,000	0,025	-0,055
-243,190	227,691	-0,042	0,049
-242,176	-70,673	0,119	0,032
-241,161	624,697	0,079	0,144
-240,146	-200,000	-0,004	0,095
-239,132	-44,007	0,075	-0,027
-238,117	223,440	0,016	-0,019
-237,103	-29,384	0,028	0,011
-236,088	339,236	-0,070	-0,099
-235,073	800,000	0,027	0,063
-234,059	-80,118	0,061	-0,015
-233,044	-73,497	0,060	0,016
-232,030	-11,548	-0,097	-0,046
-231,015	-119,642	-0,078	0,010
-230,000	234,725	-0,048	-0,058
-228,986	497,616	0,078	0,131
-227,971	117,889	0,097	-0,086
-226,957	-200,000	-0,023	0,102
-225,942	-134,863	-0,071	0,006
-224,927	-200,000	0,003	-0,195
-223,913	-200,000	0,000	-0,114
-222,898	800,000	-0,067	-0,146
-221,884	-200,000	0,008	0,090
-220,869	109,778	0,066	-0,057
-219,855	175,909	0,099	0,104
-218,840	800,000	0,038	0,103
-217,825	168,290	-0,051	0,052
-216,811	-75,732	-0,105	-0,027
-215,796	-66,414	0,066	-0,019
-214,782	800,000	0,039	0,080
-213,767	83,647	0,082	0,065
-212,752	47,211	-0,137	0,092
-211,738	800,000	0,019	0,050
-210,723	481,560	-0,075	0,123
-209,709	325,043	-0,087	-0,120
-208,694	191,116	-0,099	0,107
-207,679	800,000	-0,058	-0,123
-206,665	-200,000	0,024	0,083
-205,650	253,678	-0,057	0,071
-204,636	-200,000	-0,021	0,077
-203,621	800,000	0,024	-0,053
-202,606	-114,421	-0,083	-0,011
-201,592	-173,094	-0,075	-0,002
-200,577	144,593	-0,102	-0,098
-199,563	435,413	0,033	-0,051
-198,548	-200,000	0,004	0,048
-197,533	85,520	-0,100	0,079
-196,519	225,575	0,054	0,064
-195,504	-25,298	-0,086	-0,036
-194,490	800,000	0,074	-0,152
-193,475	97,625	0,021	-0,017
-192,460	59,435	0,064	0,045
-191,446	-200,000	-0,006	0,029
-190,431	90,128	0,117	-0,095
-189,417	-108,994	-0,055	0,008
-188,402	-99,976	-0,072	-0,013
-187,387	26,394	-0,091	-0,055
-186,373	152,098	-0,114	-0,112
-185,358	9,847	-0,129	0,070
-184,344	-200,000	0,010	-0,041
-183,329	-200,000	-0,041	-0,152
-182,315	-200,000	-0,001	0,011
-181,300	-200,000	0,010	-0,105
-180,285	685,788	0,058	0,110
-179,271	-24,109	-0,002	0,001
-178,256	28,545	0,120	-0,073
-177,242	372,326	-0,054	-0,079
-176,227	800,000	-0,009	0,027
-175,212	800,000	-0,054	0,136
-174,198	163,641	0,042	-0,043
-173,183	-116,992	-0,088	0,011
-172,169	-200,000	-0,011	-0,131
-171,154	800,000	0,033	-0,103
-170,139	-77,613	0,048	0,012
-169,125	492,202	-0,072	0,120
-168,110	155,463	-0,052	0,052
-167,096	800,000	0,044	0,119
-166,081	800,000	0,008	0,016
-165,066	-66,369	0,032	-0,009
-164,052	555,631	0,105	-0,182
-163,037	69,251	0,084	0,063
-162,023	-45,330	0,077	0,027
-161,008	-200,000	0,006	-0,034
-159,993	-200,000	0,013	-0,062
-158,979	-200,000	-0,010	-0,100
-157,964	20,564	-0,080	-0,046
-156,950	-200,000	0,011	-0,060
-155,935	49,527	0,173	0,117
-154,920	-200,000	0,000	-0,038
-153,906	0,323	0,035	-0,018
-152,891	800,000	-0,040	0,085
-151,877	-200,000	-0,000	-0,064
-150,862	-200,000	0,002	-0,021
-149,847	638,068	0,029	0,054
-148,833	236,289	0,068	-0,081
-147,818	713,980	-0,011	-0,020
-146,804	-29,919	-0,071	-0,029
-145,789	130,062	-0,056	0,051
-144,775	42,781	0,138	-0,090
-143,760	96,887	-0,100	-0,083
-142,745	197,064	-0,031	0,034
-141,731	-142,916	0,117	-0,008
-140,716	-200,000	0,013	0,063
-139,702	177,013	-0,027	-0,028
-138,687	440,831	0,081	-0,127
-137,672	359,649	-0,058	-0,084
-136,658	651,313	-0,048	-0,089
-135,643	-200,000	0,020	0,132
-134,629	-75,796	-0,011	0,003
-133,614	68,003	-0,103	0,076
-132,599	-16,157	-0,016	-0,007
-131,585	161,753	0,079	-0,079
-130,570	180,436	-0,049	-0,051
-129,556	-25,959	-0,121	0,051
-128,541	147,116	0,039	-0,037
-127,526	507,616	0,079	0,133
-126,512	-52,030	0,071	-0,023
-125,497	23,991	-0,078	0,046
-124,483	135,279	0,077	-0,072
-123,468	-200,000	-0,009	0,102
-122,453	800,000	0,012	0,035
-121,439	-200,000	-0,021	-0,074
-120,424	250,737	-0,116	0,142
-119,410	-200,000	0,006	-0,055
-118,395	187,425	0,124	-0,133
-117,380	-200,000	-0,016	0,085
-116,366	-200,000	-0,003	-0,062
-115,351	349,652	-0,069	0,098
-114,337	-24,193	-0,069	-0,030
-113,322	35,945	0,129	0,082
-112,307	-8,464	-0,048	0,023
-111,293	-200,000	-0,011	0,094
-110,278	-200,000	-0,013	0,115
-109,264	-73,901	-0,078	-0,020
-108,249	-200,000	0,020	-0,125
-107,234	800,000	-0,064	-0,139
-106,220	-67,520	-0,145	-0,041
-105,205	41,039	0,082	-0,053
-104,191	-200,000	0,000	-0,022
-103,176	-48,316	0,072	0,025
-102,162	144,859	0,043	0,041
-101,147	88,198	-0,043	-0,034
-100,132	800,000	-0,032	-0,084
-99,118	-200,000	0,025	0,103
-98,103	240,088	-0,040	-0,048
-97,089	-200,000	0,020	-0,077
-96,074	-69,881	0,045	-0,012
-95,059	417,581	0,039	-0,060
-94,045	800,000	-0,021	0,066
-93,030	592,357	-0,017	0,030
-92,016	-200,000	-0,035	-0,124
-91,001	330,652	-0,019	-0,026
-89,986	653,264	0,045	0,084
-88,972	800,000	-0,009	-0,024
-87,957	-63,772	-0,051	0,015
-86,943	-74,386	0,081	0,021
-85,928	124,425	-0,056	-0,051
-84,913	321,079	-0,081	-0,111
-83,899	-28,131	-0,014	0,006
-82,884	-200,000	-0,003	0,116
-81,870	7,931	0,057	0,030
-80,855	65,327	0,053	0,039
-79,840	547,381	0,045	0,078
-78,826	800,000	-0,014	-0,041
-77,811	-200,000	0,004	-0,025
-76,797	52,190	0,066	0,045
-75,782	-136,331	0,149	-0,012
-74,767	-200,000	0,018	0,121
-73,753	-185,660	-0,195	-0,002
-72,738	-200,000	-0,012	-0,069
-71,724	45,021	-0,117	-0,077
-70,709	551,871	-0,079	0,137
-69,694	159,325	0,036	-0,036
-68,680	-200,000	-0,001	0,100
-67,665	9,718	0,095	-0,052
-66,651	800,000	-0,032	0,085
-65,636	190,280	-0,084	-0,091
-64,622	-200,000	0,028	0,125
-63,607	-24,408	-0,157	0,067
-62,592	-110,113	0,082	0,012
-61,578	-67,495	0,085	0,024
-60,563	783,233	0,072	-0,142
-59,549	143,391	-0,052	0,050
-58,534	58,586	-2,234	-1,571
-57,519	-200,000	0,027	-0,640
-56,505	-200,000	-1,337	-5,157
-55,490	164,322	0,825	0,835
-54,476	800,000	5,411	12,133
-53,461	-200,000	19,736	324,069
-52,446	800,000	753,001	2314,949
-51,432	535,578	1664,718	2842,963
-50,417	116,271	1641,366	1442,032
-49,403	84,986	1288,435	1012,005
-48,388	31,432	1028,367	632,142
-47,373	19,881	991,437	571,289
-46,359	16,239	979,109	552,197
-45,344	12,745	975,590	538,713
-44,330	13,146	973,788	539,015
-43,315	12,345	971,709	535,217
-42,300	12,245	970,987	534,471
-41,286	12,230	970,029	533,873
-40,271	12,297	968,967	533,487
-39,257	12,284	967,937	532,854
-38,242	12,243	967,237	532,315
-37,227	12,245	966,255	531,760
-36,213	12,210	965,306	531,103
-35,198	12,171	964,600	530,568
-34,184	12,254	963,848	530,402
-33,169	12,211	962,865	529,699
-32,154	12,336	961,926	529,570
-31,140	12,346	960,852	528,987
-30,125	12,284	960,313	528,468
-29,111	12,229	959,494	527,819
-28,096	12,300	958,827	527,663
-27,082	12,255	958,179	527,139
-26,067	12,265	957,325	526,680
-25,052	12,250	956,549	526,185
-24,038	12,242	955,917	525,788
-23,023	12,264	955,197	525,444
-22,009	12,322	954,621	525,294
-20,994	12,258	954,130	524,796
-19,979	12,344	953,459	524,681
-18,965	12,255	952,924	524,082
-17,950	12,288	952,262	523,803
-16,936	12,228	951,686	523,272
-15,921	12,213	950,902	522,772
-14,906	12,189	950,205	522,291
-13,892	12,130	949,456	521,672
-12,877	12,184	948,929	521,533
-11,863	12,118	948,291	520,951
-10,848	12,090	947,682	520,505
-9,833	12,223	947,353	520,730
-8,819	12,245	946,502	520,312
-7,804	12,131	945,876	519,583
-6,790	12,151	945,191	519,250
-5,775	12,145	944,834	519,013
-4,760	12,169	944,049	518,639
-3,746	12,121	943,583	518,210
-2,731	11,997	942,726	517,324
-1,717	12,033	942,093	517,072
-0,702	11,989	941,516	516,592
0,313	11,798	940,980	516,474
1,327	15,471	938,275	526,552
2,342	24,764	790,892	468,404
3,356	20,444	456,286	263,629
4,371	-7,685	315,217	152,085
5,386	-11,807	297,049	139,118
6,400	-14,055	290,973	134,020
7,415	-14,063	288,687	132,948
8,429	-14,059	286,975	132,152
9,444	-14,403	286,124	131,410
10,459	-14,025	285,621	131,538
11,473	-14,222	284,963	131,031
12,488	-14,154	284,463	130,855
13,502	-14,071	283,777	130,609
14,517	-13,946	283,568	130,622
15,531	-13,709	283,212	130,677
16,546	-13,498	282,583	130,579
17,561	-13,634	282,373	130,339
18,575	-13,421	282,067	130,391
19,590	-13,422	281,666	130,193
20,604	-13,407	281,360	130,055
21,619	-13,603	281,029	129,702
22,634	-13,559	280,787	129,620
23,648	-13,525	280,354	129,442
24,663	-13,590	280,117	129,259
25,677	-13,487	279,961	129,274
26,692	-13,388	279,491	129,140
27,707	-13,539	279,230	128,863
28,721	-13,439	279,035	128,858
29,736	-13,530	278,705	128,607
30,750	-13,463	278,334	128,488
31,765	-13,414	278,163	128,444
32,780	-13,559	278,118	128,274
33,794	-13,274	277,676	128,329
34,809	-13,541	277,468	127,968
35,823	-13,611	277,284	127,806
36,838	-13,362	276,944	127,873
37,853	-13,606	276,571	127,459
38,867	-13,400	276,451	127,587
39,882	-13,498	276,208	127,371
40,896	-13,375	275,874	127,322
41,911	-13,466	275,663	127,128
42,926	-13,361	275,442	127,113
43,940	-13,640	275,129	126,694
44,955	-13,226	274,890	126,961
45,969	-13,464	274,781	126,677
46,984	-13,431	274,509	126,571
47,999	-13,362	274,218	126,491
49,013	-13,369	274,010	126,376
50,028	-13,505	273,786	126,135
51,042	-13,552	273,531	125,962
52,057	-13,643	273,330	125,774
53,071	-13,629	273,203	125,717
54,086	-13,357	272,927	125,832
55,101	-13,489	272,765	125,624
56,115	-13,609	272,549	125,401
57,130	-13,504	272,212	125,333
58,144	-13,520	271,973	125,196
59,159	-13,428	271,611	125,104
60,174	-13,463	271,483	125,001
61,188	-13,761	271,261	124,612
62,203	-13,552	271,067	124,706
63,217	-13,374	270,889	124,777
64,232	-13,622	270,680	124,441
65,247	-13,614	270,296	124,260
66,261	-13,809	270,178	124,016
67,276	-13,623	269,941	124,066
68,290	-13,579	269,762	124,014
69,305	-13,575	269,411	123,845
70,320	-13,307	269,237	124,000
71,334	-13,378	269,064	123,843
72,349	-13,583	268,749	123,500
73,363	-13,613	268,474	123,336
74,378	-13,503	268,295	123,343
75,393	-13,638	268,161	123,147
76,407	-13,432	267,705	123,115
77,422	-13,486	267,761	123,080
78,436	-13,399	267,374	122,970
79,451	-13,541	267,087	122,698
80,466	-13,659	267,075	122,574
81,480	-13,414	266,794	122,657
82,495	-13,291	266,790	122,756
83,509	-13,523	266,450	122,378
84,524	-13,388	266,107	122,332
85,539	-13,449	266,122	122,272
86,553	-13,354	265,763	122,183
87,568	-13,507	265,608	121,962
88,582	-13,519	265,316	121,806
89,597	-13,382	265,131	121,834
90,611	-13,377	265,039	121,786
91,626	-13,555	264,918	121,559
92,641	-13,525	264,500	121,383
93,655	-13,521	264,404	121,332
94,670	-13,680	264,039	121,010
95,684	-13,395	263,769	121,131
96,699	-13,481	263,692	121,009
97,714	-13,581	263,411	120,779
98,728	-13,661	263,465	120,722
99,743	-13,435	263,053	120,724
100,757	-13,527	262,821	120,524
101,772	-13,628	262,655	120,348
102,787	-13,636	262,639	120,322
103,801	-13,527	262,262	120,236
104,816	-13,697	261,992	119,950
105,830	-13,569	262,006	120,060
106,845	-13,460	261,551	119,938
107,860	-13,603	261,492	119,772
108,874	-13,661	261,345	119,643
109,889	-13,605	260,946	119,500
110,903	-13,587	260,844	119,458
111,918	-13,543	260,431	119,298
112,933	-13,653	260,518	119,229
113,947	-13,304	260,170	119,367
114,962	-13,577	259,938	119,009
115,976	-13,598	259,925	118,974
116,991	-13,635	259,622	118,792
118,006	-13,486	259,415	118,819
119,020	-13,409	259,169	118,763
120,035	-13,530	259,269	118,691
121,049	-13,419	258,990	118,651
122,064	-13,530	258,667	118,394
123,079	-13,526	258,523	118,322
124,093	-13,444	258,239	118,253
125,108	-13,567	258,180	118,108
126,122	-13,447	257,931	118,089
127,137	-13,638	257,759	117,832
128,151	-13,518	257,501	117,809
129,166	-13,524	257,355	117,726
130,181	-13,468	257,056	117,627
131,195	-13,503	256,943	117,535
132,210	-13,468	256,641	117,417
133,224	-13,751	256,409	117,055
134,239	-13,464	256,283	117,236
135,254	-13,656	256,120	116,984
136,268	-13,691	255,988	116,883
137,283	-13,429	255,654	116,946
138,297	-13,368	255,563	116,947
139,312	-13,561	255,245	116,625
140,327	-13,565	255,100	116,545
141,341	-13,455	255,035	116,599
142,356	-13,779	254,749	116,179
143,370	-13,550	254,604	116,299
144,385	-13,603	254,478	116,186
145,400	-13,350	254,072	116,209
146,414	-13,536	254,046	116,025
147,429	-13,386	253,821	116,042
148,443	-13,428	253,613	115,900
149,458	-13,567	253,606	115,768
150,473	-13,444	253,289	115,718
151,487	-13,423	252,965	115,577
152,502	-13,469	252,780	115,443
153,516	-13,309	252,662	115,516
154,531	-13,365	252,571	115,416
155,546	-13,505	252,493	115,250
156,560	-13,457	252,251	115,171
157,575	-13,575	251,940	114,918
158,589	-13,479	251,675	114,869
159,604	-13,448	251,480	114,796
160,619	-13,285	251,413	114,893
161,633	-13,366	251,234	114,732
162,648	-13,448	251,208	114,641
163,662	-13,371	250,889	114,550
164,677	-13,419	250,775	114,447
165,692	-13,638	250,637	114,189
166,706	-13,243	250,324	114,370
167,721	-13,485	250,366	114,175
168,735	-13,495	250,097	114,033
169,750	-13,368	249,806	113,998
170,764	-13,403	249,745	113,930
171,779	-13,488	249,618	113,790
172,794	-13,437	249,508	113,772
173,808	-13,662	249,174	113,421
174,823	-13,543	249,121	113,487
175,837	-13,687	248,879	113,246
176,852	-13,463	248,758	113,368
177,867	-13,591	248,579	113,169
178,881	-13,700	248,456	113,012
179,896	-13,535	248,323	113,080
180,910	-13,327	247,994	113,093
181,925	-13,547	247,824	112,822
182,940	-13,538	247,694	112,761
183,954	-13,452	247,425	112,700
184,969	-13,222	247,128	112,746
185,983	-13,243	247,226	112,763
186,998	-13,431	247,123	112,549
188,013	-13,416	246,902	112,451
189,027	-13,393	246,570	112,309
190,042	-13,300	246,344	112,273
191,056	-13,556	246,099	111,940
192,071	-13,555	245,821	111,804
193,086	-13,665	245,739	111,666
194,100	-13,844	245,608	111,448
195,115	-13,659	245,466	111,526
196,129	-13,442	245,256	111,600
197,144	-13,691	245,029	111,282
198,159	-13,651	244,817	111,208
199,173	-13,510	244,748	111,283
200,188	-13,895	244,469	110,830
201,202	-13,948	244,337	110,716
202,217	-13,707	244,257	110,868
203,232	-13,726	243,994	110,724
204,246	-14,009	243,616	110,310
205,261	-14,960	243,193	109,330
206,275	-14,683	243,218	109,558
207,290	-10,793	244,659	113,399
208,304	-3,658	247,030	120,402
209,319	0,868	248,213	124,727
210,334	1,669	248,553	125,552
211,348	2,561	248,451	126,229
212,363	2,818	248,414	126,412
213,377	3,179	248,544	126,765
214,392	3,455	248,491	126,955
215,407	3,541	248,353	126,945
216,421	3,589	248,082	126,835
217,436	3,566	247,975	126,750
218,450	3,479	247,713	126,532
219,465	3,338	247,580	126,338
220,480	3,131	247,413	126,070
221,494	3,151	247,221	125,978
222,509	2,712	246,879	125,431
223,523	2,685	246,602	125,257
224,538	2,387	246,371	124,884
225,553	2,359	246,223	124,775
226,567	2,184	245,863	124,437
227,582	2,464	245,776	124,611
228,596	2,407	245,668	124,499
229,611	2,347	245,498	124,353
230,626	2,245	245,270	124,143
231,640	2,130	245,161	123,983
232,655	2,115	244,993	123,874
233,669	2,286	244,732	123,871
234,684	2,131	244,773	123,754
235,699	2,350	244,609	123,838
236,713	2,267	244,433	123,671
237,728	2,497	244,142	123,700
238,742	2,523	244,031	123,654
239,757	2,422	243,805	123,446
240,772	2,411	243,653	123,350
241,786	2,326	243,490	123,187
242,801	2,489	243,329	123,226
243,815	2,221	243,179	122,923
244,830	2,259	243,088	122,896
245,844	2,153	242,869	122,689
246,859	2,396	242,839	122,859
247,874	2,439	242,692	122,809
248,888	2,337	242,423	122,580
249,903	2,537	242,327	122,681
250,917	2,420	242,234	122,529
251,932	2,528	242,154	122,564
252,947	2,637	241,886	122,505
253,961	2,360	241,622	122,138
254,976	2,376	241,481	122,069
255,990	2,552	241,284	122,099
257,005	2,368	241,399	121,999
258,020	2,402	240,960	121,794
259,034	2,325	240,828	121,654
260,049	2,280	240,676	121,531
261,063	2,347	240,614	121,542
262,078	2,407	240,466	121,504
263,093	2,189	240,269	121,220
264,107	2,474	240,071	121,337
265,122	2,139	239,951	120,999
266,136	2,319	239,973	121,142
267,151	2,603	239,696	121,218
268,166	2,465	239,596	121,046
269,180	2,021	239,464	120,616
270,195	2,132	239,227	120,573
271,209	2,217	239,073	120,553
272,224	2,301	238,830	120,486
273,239	2,312	238,636	120,386
274,253	2,418	238,562	120,422
275,268	2,400	238,293	120,262
276,282	2,218	238,129	120,024
277,297	2,302	237,970	119,999
278,312	2,233	237,941	119,920
279,326	2,475	237,845	120,051
280,341	2,233	237,706	119,780
281,355	2,343	237,435	119,719
282,370	2,334	237,443	119,706
283,384	2,242	237,234	119,517
284,399	2,361	237,032	119,499
285,414	2,202	236,802	119,247
286,428	2,375	236,711	119,326
287,443	2,316	236,602	119,214
288,457	2,243	236,499	119,095
289,472	2,426	236,176	119,064
290,487	2,374	236,057	118,953
291,501	2,349	235,874	118,831
292,516	2,309	235,866	118,785
293,530	2,411	235,636	118,738
294,545	2,318	235,543	118,608
295,560	2,341	235,419	118,553
296,574	2,304	235,298	118,453
297,589	2,456	234,957	118,389
298,603	2,542	234,892	118,412
299,618	2,358	234,723	118,174
300,633	2,375	234,696	118,163
301,647	2,462	234,543	118,143
302,662	2,565	234,480	118,181
303,676	2,510	234,275	118,024
304,691	2,435	234,042	117,838
305,706	2,380	233,964	117,746
306,720	2,558	233,734	117,757
307,735	2,603	233,579	117,703
308,749	2,724	233,386	117,689
309,764	2,467	233,285	117,429
310,779	2,291	233,120	117,200
311,793	2,225	232,851	117,003
312,808	2,467	232,777	117,142
313,822	2,396	232,760	117,068
314,837	2,598	232,712	117,190
315,852	2,475	232,405	116,929
316,866	2,506	232,364	116,923
317,881	2,634	232,101	116,878
318,895	2,714	231,896	116,826
319,910	2,377	231,898	116,557
320,925	2,341	231,740	116,441
321,939	2,379	231,414	116,296
322,954	2,405	231,415	116,306
323,968	2,431	231,288	116,251
324,983	2,523	231,157	116,245
325,997	2,589	230,970	116,191
327,012	2,486	230,827	116,030
328,027	2,346	230,701	115,850
329,041	2,551	230,425	115,857
330,056	2,685	230,208	115,839
331,070	2,301	230,318	115,592
332,085	2,530	229,931	115,561
333,100	2,455	229,747	115,402
334,114	2,602	229,704	115,482
335,129	2,476	229,489	115,267
336,143	2,424	229,409	115,178
337,158	2,420	229,274	115,097
338,173	2,586	229,208	115,179
339,187	2,542	229,108	115,085
340,202	2,527	228,918	114,969
341,216	2,668	228,693	114,951
342,231	2,551	228,702	114,858
343,246	2,583	228,391	114,715
344,260	2,477	228,303	114,581
345,275	2,492	228,261	114,560
346,289	2,649	227,974	114,524
347,304	2,704	227,775	114,456
348,319	2,529	227,710	114,282
349,333	2,416	227,453	114,057
350,348	2,474	227,284	114,006
351,362	2,508	227,413	114,086
352,377	2,499	227,100	113,912
353,392	2,670	226,900	113,929
354,406	2,288	226,894	113,631
355,421	194,902	1315,347	1388,616
356,435	156,260	1447,891	1388,535
