DTS Sentinel unit serial number:	SN410029Multiplexer serial number:	ORYXHardware model number:	OX2-SRSoftware version number:	ORYX F/W v4,00 Oryx Data Collector v3.7.2.0data status	okinstallation	B5 Nyhavnadifferential loss correction	single-endedforward channel	channel 2reverse channel	N/Adate	2023/12/14time	07:12:13forward acquisition time	300,00reverse acquisition time	0,00gamma	499,1914k internal	0,3159k external	0,3159temperature offset calibration	1,0000default loss term (dB/km)	0,3820temperature slope calibration	1,0000multiplexer offset coefficient	1,0000multiplexer slope coefficient	1,0000fibre end	0,00T internal ref (°C)	7,25T ext. ref 1 (°C)	-9,20T ext. ref 2 (°C)	-9,31length (m)	temperature (°C)	Stokes	anti-Stokes-744,400	185,038	0,150	0,164
-743,385	-88,890	-0,441	-0,095
-742,371	-170,102	0,160	-0,004
-741,356	-31,733	-0,258	-0,106
-740,342	117,021	0,209	0,190
-739,327	-66,454	-0,407	-0,118
-738,312	58,595	0,169	-0,122
-737,298	39,034	-0,235	-0,154
-736,283	-23,209	0,209	0,092
-735,269	-144,033	-0,397	-0,027
-734,254	26,532	0,019	-0,012
-733,239	-45,871	-0,639	-0,231
-732,225	32,554	0,171	0,109
-731,210	800,000	0,044	0,099
-730,196	103,233	-0,047	-0,041
-729,181	450,593	0,028	-0,046
-728,167	-200,000	0,018	0,176
-727,152	-200,000	-0,024	-0,112
-726,137	184,345	-0,043	-0,047
-725,123	29,874	0,026	0,016
-724,108	800,000	-0,054	-0,122
-723,094	-68,694	-0,179	-0,051
-722,079	6,414	0,006	0,003
-721,064	-200,000	-0,010	0,055
-720,050	-91,836	-0,112	-0,023
-719,035	29,651	-0,077	0,048
-718,021	308,555	-0,039	-0,053
-717,006	-148,875	-0,184	0,011
-715,991	48,867	-0,097	-0,067
-714,977	-31,079	-0,065	-0,027
-713,962	12,819	0,043	-0,024
-712,948	-200,000	-0,014	-0,074
-711,933	789,664	-0,013	-0,027
-710,918	-200,000	0,003	-0,048
-709,904	50,679	-0,117	0,081
-708,889	80,364	-0,060	-0,047
-707,875	483,216	0,038	-0,063
-706,860	-151,542	0,154	-0,008
-705,845	-200,000	-0,002	0,059
-704,831	143,471	-0,117	0,115
-703,816	129,151	0,080	0,075
-702,802	40,743	-0,142	-0,094
-701,787	-56,353	0,148	-0,048
-700,772	-112,541	-0,126	0,018
-699,758	89,276	0,108	-0,088
-698,743	15,062	0,063	0,036
-697,729	-200,000	-0,017	0,139
-696,714	-37,720	-0,064	0,025
-695,699	-200,000	0,014	-0,089
-694,685	800,000	-0,027	0,076
-693,670	-196,300	-0,089	-0,000
-692,656	317,717	0,061	-0,086
-691,641	93,336	-0,110	-0,091
-690,627	-200,000	-0,001	0,123
-689,612	39,950	-0,011	0,007
-688,597	-164,135	-0,022	0,001
-687,583	-200,000	0,046	-0,185
-686,568	41,762	-0,111	-0,074
-685,554	83,825	0,132	-0,106
-684,539	800,000	0,029	0,079
-683,524	-112,506	0,032	0,005
-682,510	24,038	0,079	0,048
-681,495	503,279	-0,018	0,030
-680,481	-200,000	0,001	0,025
-679,466	-200,000	-0,008	-0,122
-678,451	-158,632	0,022	-0,001
-677,437	-200,000	0,009	0,035
-676,422	15,630	-0,044	0,025
-675,408	-200,000	0,007	-0,069
-674,393	-134,296	-0,013	0,001
-673,378	556,710	0,015	0,026
-672,364	27,665	-0,100	-0,062
-671,349	800,000	0,031	-0,068
-670,335	222,826	0,059	-0,071
-669,320	-58,462	0,067	0,021
-668,305	9,349	0,065	0,036
-667,291	1,347	-0,100	-0,053
-666,276	-200,000	-0,001	-0,081
-665,262	-16,719	-0,111	-0,051
-664,247	467,350	-0,065	-0,107
-663,232	566,489	-0,046	0,083
-662,218	-51,223	-0,111	0,038
-661,203	-103,192	-0,065	-0,011
-660,189	-130,648	-0,046	0,005
-659,174	267,025	0,074	-0,095
-658,159	-53,896	-0,144	-0,048
-657,145	744,533	-0,061	-0,120
-656,130	-200,000	0,026	-0,114
-655,116	-200,000	0,013	0,067
-654,101	-98,074	-0,078	0,015
-653,086	376,429	0,062	0,094
-652,072	37,023	-0,075	0,049
-651,057	49,336	0,072	0,050
-650,043	45,262	-0,030	0,021
-649,028	-200,000	-0,004	0,058
-648,014	-200,000	-0,008	0,026
-646,999	-200,000	0,010	0,111
-645,984	103,926	0,058	0,050
-644,970	-200,000	-0,004	-0,038
-643,955	-2,962	-0,092	-0,047
-642,941	-200,000	0,010	-0,163
-641,926	-13,277	0,084	0,040
-640,911	800,000	0,092	-0,278
-639,897	90,250	0,067	0,055
-638,882	142,024	0,024	-0,024
-637,868	119,677	-0,053	-0,049
-636,853	3,370	0,096	-0,051
-635,838	-200,000	-0,032	-0,138
-634,824	800,000	-0,060	-0,140
-633,809	539,866	-0,028	-0,048
-632,795	-73,117	-0,038	-0,010
-631,780	148,434	-0,030	0,030
-630,765	131,730	-0,056	-0,053
-629,751	800,000	-0,024	-0,076
-628,736	800,000	-0,049	0,116
-627,722	800,000	-0,034	-0,103
-626,707	-63,988	0,036	0,011
-625,692	2,736	0,113	-0,060
-624,678	-200,000	0,011	0,076
-623,663	41,355	-0,052	-0,034
-622,649	105,130	-0,041	-0,035
-621,634	800,000	-0,046	-0,114
-620,619	-200,000	0,006	-0,041
-619,605	-16,596	0,041	-0,019
-618,590	-75,832	-0,057	0,015
-617,576	416,447	-0,043	0,068
-616,561	290,502	-0,047	0,062
-615,546	-200,000	0,004	0,127
-614,532	331,941	-0,092	-0,130
-613,517	38,859	-0,131	-0,086
-612,503	202,461	-0,091	0,104
-611,488	-13,173	-0,016	0,008
-610,474	-200,000	0,004	0,075
-609,459	800,000	0,027	-0,056
-608,444	101,304	0,096	-0,082
-607,430	800,000	-0,074	-0,199
-606,415	800,000	-0,064	-0,143
-605,401	-1,883	0,116	-0,059
-604,386	-200,000	0,001	-0,042
-603,371	72,405	0,078	0,060
-602,357	-37,651	-0,149	0,058
-601,342	-134,521	-0,091	-0,008
-600,328	-57,564	-0,099	0,032
-599,313	333,589	-0,062	-0,088
-598,298	-200,000	-0,000	0,067
-597,284	-79,355	0,057	0,014
-596,269	797,563	0,026	-0,053
-595,255	800,000	-0,038	-0,094
-594,240	14,691	0,063	-0,036
-593,225	4,409	-0,035	0,019
-592,211	227,142	-0,068	0,082
-591,196	275,616	-0,007	0,010
-590,182	-153,431	0,112	-0,006
-589,167	49,582	0,051	-0,035
-588,152	-117,472	0,168	-0,022
-587,138	-71,911	-0,081	-0,022
-586,123	23,934	-0,077	-0,047
-585,109	-130,510	0,186	-0,018
-584,094	100,218	-0,048	0,041
-583,079	-117,338	0,125	-0,016
-582,065	-52,556	0,107	-0,036
-581,050	270,942	-0,028	0,036
-580,036	196,447	0,017	-0,019
-579,021	-200,000	0,017	-0,125
-578,006	-2,797	-0,069	-0,035
-576,992	-200,000	-0,001	-0,037
-575,977	221,719	-0,030	0,036
-574,963	-11,791	-0,080	0,038
-573,948	-18,430	0,078	0,035
-572,934	31,781	0,070	-0,044
-571,919	448,778	-0,048	-0,078
-570,904	647,680	0,019	0,035
-569,890	-89,858	-0,028	0,006
-568,875	490,286	0,085	0,142
-567,861	-195,581	-0,041	0,000
-566,846	391,886	0,049	-0,074
-565,831	-200,000	-0,013	-0,114
-564,817	-200,000	-0,013	0,067
-563,802	357,718	-0,052	-0,076
-562,788	10,383	-0,075	0,042
-561,773	-179,887	-0,148	-0,002
-560,758	0,527	0,080	0,042
-559,744	70,464	0,085	0,064
-558,729	354,937	0,044	0,064
-557,715	88,902	0,093	0,076
-556,700	-200,000	-0,002	0,051
-555,685	800,000	-0,044	0,126
-554,671	114,078	-0,035	-0,031
-553,656	70,891	0,071	0,053
-552,642	-68,343	-0,111	-0,031
-551,627	-200,000	0,003	0,012
-550,612	153,545	-0,072	0,072
-549,598	66,663	-0,087	-0,065
-548,583	587,809	-0,025	-0,045
-547,569	-87,416	0,068	0,015
-546,554	-116,379	0,110	0,015
-545,539	-200,000	0,020	0,107
-544,525	268,810	-0,070	0,090
-543,510	463,183	0,050	-0,082
-542,496	-67,673	-0,140	-0,040
-541,481	-69,520	-0,038	-0,011
-540,466	-200,000	-0,020	0,089
-539,452	-200,000	0,003	0,086
-538,437	800,000	-0,033	0,105
-537,423	-62,224	0,054	0,016
-536,408	-200,000	-0,002	-0,069
-535,393	800,000	-0,025	-0,071
-534,379	-200,000	-0,004	-0,052
-533,364	68,560	-0,046	-0,034
-532,350	7,848	0,168	0,092
-531,335	611,768	0,029	-0,053
-530,321	-200,000	-0,018	0,149
-529,306	77,578	-0,115	-0,090
-528,291	-60,922	-0,189	-0,058
-527,277	91,733	0,036	0,030
-526,262	1,924	-0,168	-0,088
-525,248	-200,000	-0,004	-0,075
-524,233	53,962	0,162	0,114
-523,218	-200,000	0,006	-0,031
-522,204	-59,638	-0,061	0,019
-521,189	728,069	-0,013	-0,026
-520,175	97,165	0,113	-0,095
-519,160	800,000	0,037	-0,108
-518,145	-69,026	-0,043	-0,012
-517,131	800,000	-0,075	0,203
-516,116	800,000	0,029	-0,077
-515,102	59,911	0,098	0,070
-514,087	36,235	-0,071	-0,046
-513,072	-122,659	0,133	-0,016
-512,058	73,155	0,087	-0,067
-511,043	-200,000	-0,013	-0,095
-510,029	-113,359	0,087	0,012
-509,014	314,741	0,071	0,097
-507,999	-73,490	-0,055	0,015
-506,985	800,000	0,006	-0,017
-505,970	-200,000	-0,003	0,095
-504,956	-112,549	0,136	-0,020
-503,941	525,632	0,018	0,031
-502,926	-24,330	0,046	0,020
-501,912	-65,592	-0,077	-0,022
-500,897	-200,000	-0,023	0,110
-499,883	-200,000	-0,016	-0,078
-498,868	8,582	-0,127	-0,070
-497,853	-200,000	-0,086	-0,000
-496,839	-70,342	-0,091	0,025
-495,824	-89,032	-0,062	-0,013
-494,810	-200,000	0,016	0,052
-493,795	55,740	0,037	-0,026
-492,781	170,960	-0,096	-0,101
-491,766	800,000	0,038	-0,085
-490,751	-112,854	0,086	-0,012
-489,737	448,177	-0,013	-0,021
-488,722	800,000	0,032	0,096
-487,708	402,682	-0,026	0,041
-486,693	31,195	-0,046	-0,029
-485,678	126,138	-0,117	-0,108
-484,664	-111,139	-0,152	-0,022
-483,649	243,289	0,073	-0,090
-482,635	569,923	0,094	-0,168
-481,620	800,000	-0,024	0,072
-480,605	-28,852	0,023	-0,010
-479,591	-200,000	-0,012	0,040
-478,576	-200,000	0,022	0,118
-477,562	-105,783	-0,037	-0,006
-476,547	-139,589	0,082	-0,006
-475,532	440,809	0,029	-0,046
-474,518	317,722	0,074	0,102
-473,503	17,706	0,108	-0,062
-472,489	239,969	0,087	0,105
-471,474	-200,000	0,016	-0,070
-470,459	-200,000	-0,023	-0,084
-469,445	-151,951	0,094	0,005
-468,430	-140,917	-0,114	-0,008
-467,416	-200,000	-0,003	0,085
-466,401	-2,781	0,122	0,062
-465,386	800,000	-0,023	-0,053
-464,372	-49,732	0,125	-0,043
-463,357	-200,000	-0,009	-0,108
-462,343	-200,000	0,044	-0,200
-461,328	585,871	-0,051	-0,091
-460,313	72,992	-0,044	0,034
-459,299	54,894	0,049	-0,035
-458,284	-94,006	0,028	0,006
-457,270	-116,134	0,084	0,011
-456,255	35,866	-0,060	0,039
-455,241	-71,647	-0,072	-0,020
-454,226	64,656	0,140	-0,102
-453,211	70,608	0,121	-0,091
-452,197	67,698	0,099	0,073
-451,182	800,000	-0,029	0,077
-450,168	-200,000	-0,015	0,171
-449,153	248,328	-0,046	0,057
-448,138	47,769	-0,076	-0,052
-447,124	-200,000	0,018	-0,191
-446,109	-200,000	-0,001	0,033
-445,095	71,709	-0,071	0,054
-444,080	57,076	0,083	0,059
-443,065	-50,802	0,021	0,007
-442,051	-200,000	-0,001	-0,037
-441,036	-158,876	0,044	0,002
-440,022	41,727	0,078	0,051
-439,007	161,042	-0,074	0,075
-437,992	103,213	0,068	-0,058
-436,978	-7,378	-0,112	0,055
-435,963	800,000	0,021	-0,052
-434,949	-200,000	-0,020	-0,066
-433,934	214,071	-0,112	-0,129
-432,919	315,035	0,070	0,096
-431,905	-134,243	0,103	0,009
-430,890	-49,307	0,076	-0,026
-429,876	650,313	0,029	0,055
-428,861	163,757	0,109	-0,111
-427,846	-144,695	-0,056	-0,004
-426,832	-200,000	0,023	-0,099
-425,817	-42,741	-0,065	-0,024
-424,803	117,720	-0,054	0,049
-423,788	-26,794	0,157	-0,066
-422,773	800,000	-0,076	0,153
-421,759	313,038	0,071	-0,097
-420,744	-114,565	0,114	0,016
-419,730	-200,000	-0,014	-0,169
-418,715	800,000	-0,019	0,042
-417,701	126,815	0,093	-0,086
-416,686	-148,191	0,120	0,007
-415,671	-126,465	-0,075	0,008
-414,657	800,000	0,023	-0,048
-413,642	79,476	0,024	0,018
-412,628	-79,309	0,070	0,017
-411,613	-200,000	-0,025	0,098
-410,598	352,566	-0,111	-0,161
-409,584	54,796	-0,149	0,105
-408,569	-2,687	-0,108	0,055
-407,555	-200,000	-0,004	-0,035
-406,540	-200,000	-0,004	0,048
-405,525	-200,000	0,011	0,041
-404,511	-9,060	-0,135	-0,065
-403,496	-80,207	-0,111	-0,027
-402,482	800,000	-0,010	0,024
-401,467	45,730	0,125	0,084
-400,452	372,668	-0,051	0,076
-399,438	800,000	0,035	0,110
-398,423	-163,665	-0,171	-0,006
-397,409	47,917	-0,076	-0,051
-396,394	800,000	0,076	-0,161
-395,379	116,623	-0,099	-0,088
-394,365	-149,639	0,018	-0,001
-393,350	453,064	0,034	0,055
-392,336	-200,000	-0,001	0,056
-391,321	-89,688	-0,017	0,004
-390,306	53,549	-0,160	-0,111
-389,292	-200,000	-0,015	-0,067
-388,277	539,664	0,025	0,043
-387,263	-200,000	0,032	-0,134
-386,248	49,926	0,100	0,069
-385,233	378,471	0,063	0,093
-384,219	-200,000	-0,015	0,088
-383,204	196,485	-0,081	-0,090
-382,190	54,432	-0,111	-0,078
-381,175	447,784	-0,079	-0,126
-380,160	-110,494	0,050	0,007
-379,146	524,056	-0,047	0,081
-378,131	-200,000	0,025	0,126
-377,117	-196,983	-0,143	-0,001
-376,102	75,632	-0,139	0,107
-375,088	-99,515	-0,165	0,030
-374,073	54,489	-0,028	-0,019
-373,058	10,821	-0,035	0,019
-372,044	84,410	-0,042	0,033
-371,029	-99,422	0,085	0,015
-370,015	-42,250	-0,116	0,043
-369,000	-200,000	-0,013	0,099
-367,985	381,488	0,079	0,118
-366,971	-200,000	-0,013	0,116
-365,956	-82,449	0,051	0,012
-364,942	-101,877	0,063	-0,011
-363,927	198,159	-0,053	0,059
-362,912	78,694	0,043	0,033
-361,898	-51,884	-0,084	-0,028
-360,883	-43,996	0,074	-0,027
-359,869	-110,753	-0,092	-0,014
-358,854	380,306	-0,041	0,061
-357,839	89,451	0,093	0,076
-356,825	26,762	-0,083	0,050
-355,810	400,134	0,034	0,051
-354,796	-166,615	-0,073	0,002
-353,781	-121,972	0,024	0,003
-352,766	228,387	0,028	0,033
-351,752	-31,522	0,064	-0,026
-350,737	48,661	0,066	-0,045
-349,723	43,153	0,109	0,072
-348,708	-180,204	0,043	0,001
-347,693	-66,206	0,080	-0,023
-346,679	800,000	0,015	-0,041
-345,664	-90,948	0,124	-0,026
-344,650	28,683	-0,042	-0,026
-343,635	-3,433	0,107	0,054
-342,620	-200,000	0,006	0,043
-341,606	-140,016	-0,161	-0,012
-340,591	700,147	0,044	-0,085
-339,577	297,292	-0,058	0,077
-338,562	22,432	-0,117	0,069
-337,548	-140,695	-0,083	0,006
-336,533	800,000	-0,003	0,011
-335,518	-125,269	0,061	-0,007
-334,504	27,250	-0,056	-0,034
-333,489	-157,703	-0,240	-0,010
-332,475	800,000	-0,070	-0,159
-331,460	270,365	-0,076	0,097
-330,445	229,053	0,051	0,061
-329,431	-157,179	0,245	-0,011
-328,416	166,033	0,063	0,065
-327,402	36,081	0,056	0,035
-326,387	-92,155	-0,128	0,026
-325,372	-120,252	-0,108	-0,013
-324,358	-137,409	0,107	-0,009
-323,343	-200,000	-0,012	-0,073
-322,329	-200,000	-0,010	0,092
-321,314	-200,000	0,029	0,113
-320,299	-152,282	0,082	0,004
-319,285	55,081	-0,061	-0,043
-318,270	-200,000	-0,024	-0,128
-317,256	-200,000	0,002	-0,077
-316,241	-200,000	0,001	-0,004
-315,226	-53,409	0,076	-0,025
-314,212	-200,000	0,027	0,106
-313,197	800,000	0,009	-0,021
-312,183	281,788	0,057	0,075
-311,168	58,834	-0,093	-0,066
-310,153	17,774	-0,131	-0,075
-309,139	163,323	-0,063	-0,064
-308,124	-200,000	0,005	-0,146
-307,110	800,000	0,043	0,087
-306,095	399,519	-0,058	0,089
-305,080	213,757	0,048	-0,055
-304,066	800,000	-0,042	-0,133
-303,051	113,516	-0,125	-0,110
-302,037	81,962	-0,108	0,085
-301,022	-103,379	0,053	-0,009
-300,008	218,776	-0,096	-0,112
-298,993	333,345	0,023	0,032
-297,978	800,000	0,076	0,176
-296,964	-200,000	-0,016	0,081
-295,949	-14,822	-0,134	-0,062
-294,935	-200,000	0,009	-0,047
-293,920	79,328	-0,073	0,057
-292,905	-149,734	0,121	0,007
-291,891	414,014	-0,028	0,043
-290,876	84,284	-0,045	-0,036
-289,862	349,620	0,055	-0,080
-288,847	434,022	0,059	-0,094
-287,832	-67,904	-0,152	0,043
-286,818	-45,712	0,064	0,023
-285,803	-60,286	0,109	0,033
-284,789	-133,490	0,136	0,012
-283,774	-175,262	0,055	0,001
-282,759	281,332	0,075	0,097
-281,745	143,489	-0,097	-0,093
-280,730	259,694	-0,033	-0,041
-279,716	-59,324	0,106	0,033
-278,701	-34,871	-0,012	-0,005
-277,686	-91,231	0,190	-0,039
-276,672	-28,220	0,183	0,076
-275,657	29,056	0,094	0,057
-274,643	-146,367	-0,143	-0,009
-273,628	-51,884	-0,049	0,017
-272,613	-101,703	0,150	-0,026
-271,599	-99,373	0,079	-0,014
-270,584	-200,000	0,003	0,043
-269,570	-94,832	0,033	-0,006
-268,555	-75,585	0,107	0,027
-267,540	237,553	-0,024	-0,029
-266,526	800,000	-0,040	-0,087
-265,511	-107,960	-0,080	0,012
-264,497	-200,000	0,016	-0,108
-263,482	-117,186	0,193	0,025
-262,467	5,821	-0,042	0,023
-261,453	86,145	0,082	0,066
-260,438	-200,000	-0,007	0,057
-259,424	-7,945	-0,151	-0,073
-258,409	69,102	0,063	-0,047
-257,395	17,541	0,106	-0,061
-256,380	272,233	0,015	0,019
-255,365	798,205	-0,061	0,123
-254,351	-200,000	0,040	0,168
-253,336	621,166	0,045	0,082
-252,322	-200,000	-0,041	-0,142
-251,307	-11,893	-0,027	-0,013
-250,292	800,000	0,028	0,080
-249,278	-200,000	-0,017	0,067
-248,263	45,672	0,096	0,064
-247,249	-66,163	-0,080	-0,023
-246,234	-17,630	-0,100	-0,045
-245,219	407,339	0,015	-0,024
-244,205	317,110	-0,040	-0,055
-243,190	-166,824	0,033	-0,001
-242,176	-164,498	0,076	0,002
-241,161	-0,247	0,102	-0,052
-240,146	800,000	0,008	-0,022
-239,132	322,643	0,065	0,090
-238,117	-200,000	0,030	-0,118
-237,103	800,000	0,051	-0,153
-236,088	305,665	0,080	-0,108
-235,073	321,850	0,040	0,055
-234,059	505,754	0,096	0,162
-233,044	235,296	-0,036	0,043
-232,030	280,793	-0,046	-0,059
-231,015	54,648	-0,070	-0,049
-230,000	-9,445	0,072	-0,035
-228,986	-34,832	0,128	-0,050
-227,971	-11,706	0,032	0,015
-226,957	162,731	-0,060	-0,060
-225,942	800,000	-0,031	0,064
-224,927	-73,633	-0,080	-0,021
-223,913	-47,011	-0,069	0,024
-222,898	106,768	-0,054	-0,047
-221,884	2,446	0,135	0,070
-220,869	-200,000	0,007	0,036
-219,855	800,000	0,036	-0,110
-218,840	-200,000	0,018	0,091
-217,825	7,776	-0,050	0,027
-216,811	-200,000	-0,014	-0,064
-215,796	173,782	0,024	-0,025
-214,782	7,116	0,095	0,051
-213,767	-113,899	0,063	0,009
-212,752	-104,749	0,046	-0,008
-211,738	-200,000	-0,016	-0,055
-210,723	800,000	0,054	0,149
-209,709	191,434	0,054	-0,059
-208,694	-200,000	0,020	0,159
-207,679	800,000	0,038	0,089
-206,665	0,815	0,157	0,081
-205,650	-51,998	0,142	0,047
-204,636	86,794	0,131	0,104
-203,621	177,535	-0,045	0,047
-202,606	52,162	-0,059	-0,041
-201,592	-45,860	-0,177	-0,063
-200,577	402,600	-0,067	-0,102
-199,563	148,682	0,054	0,052
-198,548	-190,384	-0,028	0,000
-197,533	-200,000	-0,018	-0,080
-196,519	-61,050	0,055	-0,017
-195,504	647,643	0,008	0,015
-194,490	317,169	0,060	0,082
-193,475	294,794	0,070	0,093
-192,460	-56,012	-0,047	-0,015
-191,446	-39,615	0,117	0,044
-190,431	-159,146	-0,070	0,003
-189,417	-84,157	-0,124	-0,028
-188,402	-165,919	-0,114	-0,003
-187,387	204,762	-0,046	0,052
-186,373	-174,191	0,021	0,000
-185,358	-55,213	0,126	0,040
-184,344	-200,000	0,005	0,120
-183,329	800,000	-0,018	-0,046
-182,315	0,466	0,044	0,023
-181,300	-171,890	-0,255	-0,006
-180,285	220,885	-0,050	-0,058
-179,271	153,209	-0,053	0,053
-178,256	-37,654	0,170	0,065
-177,242	-36,636	-0,148	0,057
-176,227	451,686	0,074	0,118
-175,212	-180,241	-0,042	0,001
-174,198	585,426	-0,031	-0,056
-173,183	-165,873	0,042	0,001
-172,169	388,564	0,014	0,021
-171,154	-200,000	0,039	0,201
-170,139	-105,899	-0,126	-0,020
-169,125	764,930	0,085	0,168
-168,110	125,098	-0,052	-0,047
-167,096	340,392	-0,070	-0,099
-166,081	-158,260	-0,112	0,005
-165,066	-10,017	-0,065	-0,031
-164,052	283,870	0,064	0,084
-163,037	45,689	-0,072	0,048
-162,023	532,736	-0,042	-0,072
-161,008	18,719	-0,079	0,045
-159,993	-157,067	-0,113	-0,005
-158,979	93,967	0,052	0,043
-157,964	74,411	-0,108	-0,081
-156,950	-28,033	-0,037	0,015
-155,935	-200,000	-0,038	0,125
-154,920	5,326	0,052	0,028
-153,906	-24,038	-0,029	-0,012
-152,891	800,000	0,035	0,091
-151,877	34,704	0,069	-0,043
-150,862	-93,004	0,030	0,006
-149,847	13,187	-0,178	0,099
-148,833	-0,325	0,036	-0,018
-147,818	-200,000	-0,016	0,125
-146,804	404,625	0,051	0,078
-145,789	109,963	0,082	-0,070
-144,775	23,924	0,031	-0,018
-143,760	364,971	0,096	-0,140
-142,745	-200,000	0,009	-0,066
-141,731	27,065	0,074	0,045
-140,716	796,502	-0,029	-0,057
-139,702	690,275	-0,058	0,109
-138,687	-39,670	-0,092	0,035
-137,672	800,000	-0,024	-0,060
-136,658	-200,000	-0,003	0,010
-135,643	-68,318	0,113	0,031
-134,629	523,536	0,033	-0,056
-133,614	331,804	0,090	0,125
-132,599	-200,000	0,045	0,162
-131,585	418,184	-0,044	0,067
-130,570	97,068	-0,055	-0,045
-129,556	800,000	-0,005	-0,014
-128,541	-200,000	0,015	0,064
-127,526	-65,948	0,047	-0,013
-126,512	800,000	-0,032	-0,088
-125,497	-52,495	0,078	-0,026
-124,483	-200,000	-0,004	0,088
-123,468	-200,000	0,002	0,063
-122,453	-200,000	0,017	0,086
-121,439	-50,683	-0,138	-0,046
-120,424	429,918	-0,105	-0,164
-119,410	184,424	0,151	0,161
-118,395	171,952	0,031	0,032
-117,380	282,171	-0,025	-0,033
-116,366	-10,836	0,100	-0,047
-115,351	800,000	-0,051	0,109
-114,337	10,565	-0,074	-0,040
-113,322	20,695	0,057	0,033
-112,307	332,909	-0,118	0,164
-111,293	800,000	0,021	0,048
-110,278	-200,000	-0,012	-0,038
-109,264	-179,015	0,102	0,002
-108,249	27,301	-0,010	-0,006
-107,234	-70,419	0,046	-0,013
-106,220	-200,000	-0,025	-0,145
-105,205	-67,262	0,111	-0,031
-104,191	-200,000	-0,032	0,109
-103,176	-160,047	0,146	0,006
-102,162	48,289	-0,156	0,105
-101,147	-200,000	0,014	0,072
-100,132	-200,000	-0,008	0,085
-99,118	-200,000	-0,002	-0,018
-98,103	332,947	0,011	-0,015
-97,089	77,700	0,088	0,067
-96,074	346,009	0,076	-0,107
-95,059	118,837	-0,084	0,074
-94,045	138,582	0,074	-0,070
-93,030	-0,953	-0,142	-0,072
-92,016	-8,616	0,071	0,034
-91,001	178,084	-0,079	0,083
-89,986	714,557	0,070	-0,135
-88,972	237,002	0,045	-0,054
-87,957	398,299	-0,055	0,083
-86,943	-48,400	-0,013	0,004
-85,928	-165,556	0,107	-0,003
-84,913	205,161	-0,119	-0,133
-83,899	-200,000	0,014	0,117
-82,884	173,540	-0,026	0,027
-81,870	-200,000	-0,010	-0,042
-80,855	73,994	-0,080	-0,060
-79,840	462,923	-0,094	0,151
-78,826	-152,962	-0,052	0,003
-77,811	132,090	-0,089	-0,082
-76,797	-86,375	-0,024	0,005
-75,782	160,980	-0,017	0,017
-74,767	-200,000	0,013	0,125
-73,753	204,569	0,118	0,132
-72,738	-84,433	-0,044	-0,010
-71,724	-200,000	0,009	-0,052
-70,709	-200,000	-0,027	-0,149
-69,694	800,000	0,036	0,076
-68,680	1,456	-0,029	0,015
-67,665	-200,000	0,010	0,081
-66,651	509,105	0,035	0,059
-65,636	-52,149	0,079	-0,026
-64,622	-200,000	0,017	-0,066
-63,607	-132,361	0,174	0,016
-62,592	-15,465	0,110	-0,050
-61,578	49,499	-0,093	0,063
-60,563	-38,854	0,181	0,068
-59,549	165,667	-0,073	0,074
-58,534	82,407	-2,816	-2,191
-57,519	-112,379	0,567	-0,080
-56,505	-200,000	-1,650	-5,493
-55,490	442,229	1,303	2,054
-54,476	800,000	5,359	11,307
-53,461	-200,000	22,820	348,051
-52,446	800,000	764,323	2267,741
-51,432	499,445	1643,893	2728,338
-50,417	93,594	1601,652	1300,306
-49,403	61,485	1257,390	895,796
-48,388	21,459	1009,335	587,134
-47,373	18,566	977,090	558,885
-46,359	12,085	963,764	530,220
-45,344	7,898	961,007	515,074
-44,330	8,298	958,473	514,996
-43,315	7,343	957,107	511,144
-42,300	7,332	955,745	510,360
-41,286	7,309	954,935	509,834
-40,271	7,302	953,879	509,227
-39,257	7,277	952,972	508,642
-38,242	7,344	951,865	508,248
-37,227	7,268	951,153	507,604
-36,213	7,288	950,427	507,259
-35,198	7,238	949,648	506,663
-34,184	7,275	948,864	506,344
-33,169	7,266	948,108	505,892
-32,154	7,337	947,202	505,615
-31,140	7,319	946,209	505,008
-30,125	7,284	945,503	504,499
-29,111	7,343	944,802	504,294
-28,096	7,335	944,182	503,916
-27,082	7,277	943,467	503,330
-26,067	7,275	942,840	502,970
-25,052	7,261	941,921	502,414
-24,038	7,292	941,124	502,067
-23,023	7,225	940,640	501,577
-22,009	7,271	939,887	501,300
-20,994	7,275	939,334	500,997
-19,979	7,275	938,922	500,758
-18,965	7,246	938,181	500,253
-17,950	7,257	937,482	499,893
-16,936	7,173	937,178	499,445
-15,921	7,246	936,145	499,107
-14,906	7,244	935,516	498,744
-13,892	7,177	934,940	498,205
-12,877	7,127	934,174	497,620
-11,863	7,142	933,714	497,402
-10,848	7,166	933,186	497,176
-9,833	7,271	932,559	497,154
-8,819	7,209	931,961	496,621
-7,804	7,163	931,466	496,192
-6,790	7,146	930,728	495,727
-5,775	7,251	930,237	495,776
-4,760	7,212	929,636	495,314
-3,746	7,211	929,013	494,957
-2,731	7,043	928,379	494,072
-1,717	6,972	927,861	493,554
-0,702	7,045	926,980	493,297
0,313	6,896	926,260	493,190
1,327	10,274	923,855	502,428
2,342	18,819	772,624	442,371
3,356	13,757	443,096	246,136
4,371	-12,309	309,329	144,394
5,386	-16,123	292,138	132,539
6,400	-18,358	286,083	127,588
7,415	-18,299	283,430	126,451
8,429	-18,851	281,577	125,081
9,444	-18,978	280,880	124,637
10,459	-18,868	280,102	124,387
11,473	-19,050	279,496	123,932
12,488	-18,901	279,122	123,898
13,502	-18,865	278,741	123,752
14,517	-18,792	278,110	123,530
15,531	-18,722	277,570	123,346
16,546	-18,727	277,451	123,277
17,561	-18,557	276,855	123,163
18,575	-18,508	276,631	123,099
19,590	-18,675	276,339	122,800
20,604	-18,610	276,018	122,708
21,619	-18,766	275,609	122,368
22,634	-18,544	275,324	122,439
23,648	-18,789	275,052	122,077
24,663	-18,658	274,731	122,047
25,677	-18,679	274,599	121,958
26,692	-18,547	274,218	121,901
27,707	-18,628	273,940	121,691
28,721	-18,571	273,666	121,612
29,736	-18,633	273,465	121,453
30,750	-18,691	273,237	121,287
31,765	-18,614	272,859	121,180
32,780	-18,592	272,731	121,133
33,794	-18,700	272,467	120,904
34,809	-18,707	272,218	120,777
35,823	-18,556	271,859	120,747
36,838	-18,640	271,643	120,563
37,853	-18,606	271,360	120,457
38,867	-18,449	270,960	120,414
39,882	-18,434	270,732	120,317
40,896	-18,474	270,694	120,252
41,911	-18,524	270,409	120,068
42,926	-18,437	270,099	120,000
43,940	-18,790	269,952	119,599
44,955	-18,605	269,641	119,621
45,969	-18,650	269,441	119,480
46,984	-18,396	269,212	119,601
47,999	-18,571	269,091	119,376
49,013	-18,343	269,055	119,559
50,028	-18,440	268,720	119,310
51,042	-18,478	268,459	119,149
52,057	-18,472	268,189	119,024
53,071	-18,386	267,958	118,989
54,086	-18,534	267,738	118,746
55,101	-18,463	267,626	118,750
56,115	-18,448	267,301	118,610
57,130	-18,504	267,020	118,424
58,144	-18,508	266,660	118,249
59,159	-18,609	266,461	118,058
60,174	-18,542	266,108	117,953
61,188	-18,668	266,064	117,809
62,203	-18,774	266,057	117,698
63,217	-18,519	265,592	117,713
64,232	-18,613	265,470	117,564
65,247	-18,653	265,196	117,395
66,261	-18,535	264,905	117,362
67,276	-18,561	264,726	117,250
68,290	-18,479	264,610	117,262
69,305	-18,484	264,227	117,077
70,320	-18,469	264,061	117,006
71,334	-18,614	263,916	116,802
72,349	-18,416	263,540	116,802
73,363	-18,782	263,309	116,361
74,378	-18,668	263,102	116,362
75,393	-18,498	262,877	116,404
76,407	-18,565	262,803	116,301
77,422	-18,524	262,483	116,186
78,436	-18,530	262,247	116,065
79,451	-18,646	261,998	115,841
80,466	-18,615	261,800	115,771
81,480	-18,393	261,463	115,809
82,495	-18,422	261,298	115,700
83,509	-18,535	261,149	115,524
84,524	-18,506	261,078	115,508
85,539	-18,388	260,739	115,452
86,553	-18,339	260,536	115,395
87,568	-18,520	260,240	115,094
88,582	-18,583	260,189	115,004
89,597	-18,433	259,877	114,990
90,611	-18,510	259,685	114,826
91,626	-18,551	259,514	114,704
92,641	-18,449	259,143	114,620
93,655	-18,315	258,971	114,652
94,670	-18,499	258,711	114,365
95,684	-18,479	258,604	114,325
96,699	-18,585	258,430	114,145
97,714	-18,717	258,228	113,929
98,728	-18,557	258,083	113,995
99,743	-18,407	257,895	114,033
100,757	-18,454	257,666	113,881
101,772	-18,556	257,510	113,712
102,787	-18,514	257,024	113,524
103,801	-18,335	256,908	113,620
104,816	-18,376	256,745	113,502
105,830	-18,397	256,571	113,396
106,845	-18,548	256,382	113,171
107,860	-18,356	256,124	113,214
108,874	-18,439	255,971	113,064
109,889	-18,682	255,840	112,785
110,903	-18,617	255,528	112,693
111,918	-18,429	255,286	112,739
112,933	-18,458	255,100	112,623
113,947	-18,577	255,005	112,467
114,962	-18,448	254,763	112,463
115,976	-18,368	254,490	112,401
116,991	-18,395	254,346	112,304
118,006	-18,474	254,128	112,129
119,020	-18,528	254,070	112,047
120,035	-18,521	253,916	111,975
121,049	-18,566	253,685	111,825
122,064	-18,533	253,498	111,761
123,079	-18,606	253,438	111,662
124,093	-18,462	253,118	111,634
125,108	-18,527	252,855	111,452
126,122	-18,211	252,681	111,637
127,137	-18,279	252,530	111,502
128,151	-18,450	252,272	111,232
129,166	-18,456	252,093	111,138
130,181	-18,311	251,791	111,119
131,195	-18,511	251,729	110,911
132,210	-18,422	251,493	110,872
133,224	-18,375	251,300	110,817
134,239	-18,450	250,986	110,606
135,254	-18,515	250,825	110,469
136,268	-18,513	250,717	110,414
137,283	-18,421	250,531	110,400
138,297	-18,338	250,348	110,380
139,312	-18,340	250,152	110,283
140,327	-18,264	249,870	110,213
141,341	-18,378	249,799	110,075
142,356	-18,447	249,446	109,851
143,370	-18,470	249,391	109,797
144,385	-18,410	249,070	109,697
145,400	-18,482	248,820	109,517
146,414	-18,505	248,781	109,471
147,429	-18,494	248,551	109,368
148,443	-18,278	248,208	109,390
149,458	-18,423	248,101	109,211
150,473	-18,435	247,956	109,127
151,487	-18,537	247,835	108,978
152,502	-18,409	247,856	109,085
153,516	-18,552	247,541	108,817
154,531	-18,346	247,374	108,906
155,546	-18,464	247,098	108,676
156,560	-18,328	246,856	108,674
157,575	-18,420	246,707	108,522
158,589	-18,387	246,504	108,450
159,604	-18,369	246,114	108,284
160,619	-18,410	246,171	108,265
161,633	-18,713	245,983	107,921
162,648	-18,587	245,822	107,946
163,662	-18,510	245,596	107,900
164,677	-18,584	245,638	107,848
165,692	-18,278	245,280	107,935
166,706	-18,340	245,206	107,842
167,721	-18,573	245,002	107,549
168,735	-18,511	244,751	107,481
169,750	-18,523	244,682	107,431
170,764	-18,425	244,586	107,460
171,779	-18,378	244,260	107,346
172,794	-18,285	244,144	107,362
173,808	-18,464	243,913	107,104
174,823	-18,335	243,894	107,192
175,837	-18,377	243,613	107,024
176,852	-18,369	243,394	106,925
177,867	-18,443	243,179	106,761
178,881	-18,383	243,030	106,735
179,896	-18,359	242,893	106,685
180,910	-18,270	242,707	106,667
181,925	-18,221	242,541	106,625
182,940	-18,549	242,341	106,258
183,954	-18,479	242,108	106,204
184,969	-18,364	242,201	106,329
185,983	-18,405	241,929	106,167
186,998	-18,399	241,739	106,079
188,013	-18,522	241,429	105,833
189,027	-18,475	241,326	105,817
190,042	-18,467	241,160	105,742
191,056	-18,532	241,018	105,616
192,071	-18,555	240,759	105,475
193,086	-18,496	240,490	105,396
194,100	-18,516	240,463	105,358
195,115	-18,359	240,221	105,370
196,129	-18,560	240,015	105,108
197,144	-18,412	239,812	105,129
198,159	-18,338	239,735	105,146
199,173	-18,398	239,438	104,958
200,188	-18,663	239,405	104,720
201,202	-18,351	239,181	104,864
202,217	-18,588	239,028	104,597
203,232	-18,220	238,842	104,802
204,246	-18,331	238,539	104,571
205,261	-18,707	238,465	104,227
206,275	-17,143	238,841	105,640
207,290	-12,448	240,556	110,192
208,304	-5,832	242,573	116,498
209,319	-2,120	243,598	120,011
210,334	-1,132	243,825	120,918
211,348	-0,255	243,862	121,641
212,363	0,241	243,951	122,078
213,377	0,417	243,896	122,183
214,392	0,737	243,815	122,393
215,407	0,820	243,791	122,437
216,421	1,257	243,419	122,595
217,436	1,260	243,479	122,616
218,450	1,091	243,260	122,358
219,465	1,191	243,181	122,388
220,480	1,162	243,040	122,283
221,494	1,128	242,967	122,208
222,509	0,699	242,582	121,656
223,523	0,719	242,197	121,468
224,538	0,652	242,028	121,318
225,553	0,558	241,955	121,195
226,567	0,556	241,704	121,057
227,582	0,451	241,674	120,946
228,596	0,570	241,469	120,929
229,611	0,559	241,278	120,814
230,626	0,563	241,110	120,723
231,640	0,610	240,945	120,667
232,655	0,330	240,855	120,386
233,669	0,408	240,761	120,391
234,684	0,425	240,512	120,269
235,699	0,652	240,315	120,342
236,713	0,491	240,181	120,135
237,728	0,477	240,064	120,054
238,742	0,385	239,791	119,834
239,757	0,574	239,488	119,822
240,772	0,471	239,562	119,766
241,786	0,535	239,345	119,699
242,801	0,483	239,231	119,589
243,815	0,362	239,206	119,470
244,830	0,446	238,988	119,417
245,844	0,336	238,792	119,221
246,859	0,547	238,540	119,253
247,874	0,554	238,347	119,151
248,888	0,455	238,258	119,017
249,903	0,421	238,258	118,980
250,917	0,617	238,032	119,011
251,932	0,578	237,871	118,889
252,947	0,716	237,579	118,842
253,961	0,777	237,434	118,807
254,976	0,578	237,265	118,555
255,990	0,521	237,140	118,437
257,005	0,493	237,015	118,342
258,020	0,595	236,973	118,390
259,034	0,571	236,746	118,248
260,049	0,610	236,646	118,218
261,063	0,685	236,367	118,127
262,078	0,714	236,205	118,058
263,093	0,620	236,051	117,897
264,107	0,572	236,121	117,884
265,122	0,648	235,849	117,796
266,136	0,495	235,729	117,607
267,151	0,497	235,434	117,450
268,166	0,451	235,437	117,405
269,180	0,348	235,258	117,225
270,195	0,552	235,105	117,298
271,209	0,640	235,029	117,319
272,224	0,718	234,707	117,208
273,239	0,430	234,652	116,945
274,253	0,619	234,480	116,996
275,268	0,469	234,257	116,758
276,282	0,616	234,076	116,772
277,297	0,470	233,949	116,584
278,312	0,689	233,818	116,679
279,326	0,421	233,760	116,432
280,341	0,626	233,490	116,446
281,355	0,575	233,351	116,327
282,370	0,781	233,233	116,416
283,384	0,644	233,097	116,233
284,399	0,367	233,009	115,964
285,414	0,601	232,759	116,010
286,428	0,680	232,670	116,016
287,443	0,591	232,602	115,903
288,457	0,524	232,481	115,781
289,472	0,633	232,312	115,771
290,487	0,461	232,076	115,510
291,501	0,385	231,885	115,347
292,516	0,531	231,856	115,434
293,530	0,672	231,700	115,455
294,545	0,637	231,524	115,330
295,560	0,516	231,300	115,114
296,574	0,654	231,208	115,165
297,589	0,666	231,032	115,076
298,603	0,791	230,853	115,072
299,618	0,757	230,807	115,012
300,633	0,863	230,597	114,978
301,647	0,766	230,512	114,852
302,662	0,974	230,400	114,945
303,676	0,911	230,178	114,776
304,691	0,888	230,081	114,700
305,706	1,024	229,883	114,694
306,720	0,748	229,865	114,465
307,735	0,733	229,661	114,342
308,749	1,006	229,597	114,508
309,764	0,747	229,303	114,154
310,779	0,854	229,244	114,195
311,793	0,803	229,129	114,090
312,808	0,844	228,901	113,997
313,822	0,738	228,704	113,808
314,837	0,833	228,675	113,855
315,852	0,719	228,525	113,684
316,866	0,952	228,287	113,732
317,881	0,932	228,153	113,639
318,895	0,962	227,954	113,553
319,910	0,917	227,807	113,436
320,925	0,806	227,753	113,315
321,939	0,801	227,424	113,138
322,954	0,990	227,455	113,285
323,968	0,918	227,384	113,186
324,983	1,079	227,127	113,169
325,997	0,805	227,107	112,943
327,012	1,128	226,847	113,046
328,027	0,979	226,703	112,852
329,041	0,866	226,474	112,643
330,056	0,854	226,583	112,679
331,070	0,805	226,317	112,500
332,085	0,967	226,191	112,548
333,100	0,875	225,846	112,298
334,114	0,652	225,753	112,075
335,129	1,151	225,594	112,358
336,143	0,970	225,455	112,144
337,158	1,096	225,418	112,210
338,173	0,821	225,234	111,904
339,187	0,827	225,157	111,860
340,202	1,070	225,018	111,961
341,216	1,163	224,895	111,959
342,231	0,969	224,658	111,687
343,246	0,880	224,524	111,545
344,260	1,035	224,488	111,632
345,275	1,050	224,310	111,545
346,289	0,983	224,189	111,424
347,304	1,092	224,061	111,432
348,319	1,117	223,811	111,315
349,333	1,113	223,646	111,221
350,348	1,099	223,466	111,111
351,362	0,937	223,426	110,962
352,377	0,782	223,391	110,820
353,392	1,324	223,206	111,117
354,406	0,915	222,949	110,679
355,421	192,288	1310,503	1375,655
356,435	153,962	1442,841	1375,481
