DTS Sentinel unit serial number:	SN410029Multiplexer serial number:	ORYXHardware model number:	OX2-SRSoftware version number:	ORYX F/W v4,00 Oryx Data Collector v3.7.2.0data status	okinstallation	B5 Nyhavnadifferential loss correction	single-endedforward channel	channel 2reverse channel	N/Adate	2023/12/14time	18:47:13forward acquisition time	300,00reverse acquisition time	0,00gamma	499,1914k internal	0,3156k external	0,3156temperature offset calibration	1,0000default loss term (dB/km)	0,3820temperature slope calibration	1,0000multiplexer offset coefficient	1,0000multiplexer slope coefficient	1,0000fibre end	0,00T internal ref (°C)	8,61T ext. ref 1 (°C)	-6,42T ext. ref 2 (°C)	-6,48length (m)	temperature (°C)	Stokes	anti-Stokes-744,400	-66,115	0,096	0,028
-743,385	-75,018	-0,417	-0,109
-742,371	800,000	0,082	0,171
-741,356	-102,989	-0,252	0,044
-740,342	275,593	0,139	0,182
-739,327	-160,883	-0,381	0,015
-738,312	800,000	0,012	0,035
-737,298	-13,289	-0,354	-0,169
-736,283	540,083	0,169	0,299
-735,269	-94,812	-0,349	-0,069
-734,254	-57,353	0,181	0,058
-733,239	-58,894	-0,597	-0,189
-732,225	-93,976	0,265	0,053
-731,210	340,099	-0,095	0,136
-730,196	-156,595	-0,100	0,005
-729,181	271,431	0,096	-0,125
-728,167	-95,755	0,022	0,004
-727,152	-182,545	0,276	0,004
-726,137	2,796	-0,202	-0,108
-725,123	-167,460	0,014	0,000
-724,108	82,868	-0,044	0,036
-723,094	-200,000	-0,010	-0,184
-722,079	92,188	-0,086	0,071
-721,064	800,000	0,045	0,109
-720,050	-132,105	0,097	0,009
-719,035	-160,763	0,056	0,002
-718,021	-131,555	0,105	-0,010
-717,006	526,550	-0,090	-0,157
-715,991	-200,000	-0,047	-0,175
-714,977	-109,048	-0,137	-0,021
-713,962	-181,490	-0,205	0,003
-712,948	-35,445	0,056	-0,022
-711,933	418,025	0,038	-0,061
-710,918	-200,000	-0,026	-0,137
-709,904	-200,000	-0,051	-0,185
-708,889	95,667	-0,068	-0,057
-707,875	118,050	0,036	-0,033
-706,860	-150,361	-0,095	-0,005
-705,845	800,000	-0,030	-0,070
-704,831	-61,897	-0,075	0,023
-703,816	144,983	-0,067	0,066
-702,802	-200,000	0,001	-0,069
-701,787	-200,000	-0,013	-0,149
-700,772	-200,000	-0,017	-0,119
-699,758	-142,402	0,108	-0,008
-698,743	-87,320	0,055	-0,012
-697,729	-0,085	0,078	-0,041
-696,714	197,000	-0,031	0,035
-695,699	-200,000	0,003	-0,212
-694,685	800,000	-0,057	-0,122
-693,670	-200,000	-0,018	0,093
-692,656	-58,342	0,082	0,026
-691,641	-200,000	0,002	0,017
-690,627	-124,174	0,096	0,011
-689,612	-200,000	0,003	-0,093
-688,597	-200,000	0,016	-0,074
-687,583	-200,000	-0,022	-0,088
-686,568	101,434	0,008	0,007
-685,554	-31,493	0,065	0,027
-684,539	800,000	-0,014	0,032
-683,524	-117,910	0,148	0,019
-682,510	-66,084	0,137	-0,040
-681,495	800,000	-0,044	0,112
-680,481	-200,000	-0,034	-0,113
-679,466	512,251	-0,110	-0,189
-678,451	458,275	0,011	-0,018
-677,437	226,522	-0,077	-0,092
-676,422	192,988	-0,104	0,115
-675,408	-63,592	0,106	0,032
-674,393	725,881	-0,026	-0,051
-673,378	-200,000	-0,009	-0,078
-672,364	800,000	0,044	-0,129
-671,349	22,873	-0,034	0,021
-670,335	7,515	-0,073	0,040
-669,320	-200,000	0,011	0,047
-668,305	240,289	0,052	-0,064
-667,291	-17,073	0,127	-0,059
-666,276	356,560	0,103	-0,152
-665,262	159,747	-0,116	-0,118
-664,247	-200,000	0,009	-0,081
-663,232	-73,490	-0,098	-0,026
-662,218	-200,000	0,023	0,100
-661,203	-111,103	-0,101	0,015
-660,189	126,820	-0,031	0,029
-659,174	-200,000	0,002	0,014
-658,159	-192,289	-0,123	0,001
-657,145	-52,574	0,072	-0,024
-656,130	69,839	0,061	0,046
-655,116	206,910	0,076	0,088
-654,101	800,000	0,038	0,110
-653,086	-200,000	0,018	-0,069
-652,072	-41,408	-0,043	-0,016
-651,057	-200,000	0,024	-0,192
-650,043	-14,588	0,034	0,016
-649,028	-9,767	0,017	0,008
-648,014	-200,000	0,004	-0,067
-646,999	-142,706	-0,102	0,007
-645,984	148,337	-0,086	-0,085
-644,970	184,284	0,073	0,079
-643,955	273,708	-0,041	0,053
-642,941	-85,413	-0,172	-0,039
-641,926	-26,824	0,156	-0,067
-640,911	44,712	-0,131	-0,088
-639,897	-200,000	-0,003	0,070
-638,882	176,966	-0,052	0,056
-637,868	212,733	-0,084	0,098
-636,853	-119,117	-0,041	0,005
-635,838	241,364	-0,057	-0,070
-634,824	800,000	-0,011	-0,030
-633,809	-80,595	0,077	0,019
-632,795	-200,000	0,003	0,109
-631,780	-200,000	-0,004	0,071
-630,765	-36,806	0,062	0,024
-629,751	776,498	0,032	-0,065
-628,736	-200,000	-0,035	-0,114
-627,722	-72,822	-0,112	-0,030
-626,707	335,288	-0,060	0,085
-625,692	-200,000	-0,014	0,129
-624,678	-112,992	0,198	0,028
-623,663	-200,000	0,005	0,087
-622,649	53,084	0,082	0,058
-621,634	-200,000	0,012	-0,087
-620,619	800,000	0,048	-0,101
-619,605	330,576	0,045	0,063
-618,590	326,289	0,008	-0,011
-617,576	-200,000	-0,029	0,097
-616,561	-200,000	-0,004	0,148
-615,546	-200,000	-0,001	0,061
-614,532	800,000	-0,021	0,056
-613,517	398,657	0,022	0,034
-612,503	-189,016	0,142	-0,001
-611,488	73,700	0,095	0,073
-610,474	405,976	-0,079	0,123
-609,459	800,000	0,029	0,092
-608,444	800,000	0,015	0,041
-607,430	136,892	-0,160	-0,153
-606,415	225,068	-0,089	-0,106
-605,401	800,000	0,041	-0,117
-604,386	692,137	0,029	-0,056
-603,371	-200,000	-0,015	0,119
-602,357	-98,143	0,091	0,017
-601,342	-16,537	0,060	0,028
-600,328	-200,000	0,015	-0,057
-599,313	-42,660	-0,117	0,043
-598,298	114,418	-0,052	0,046
-597,284	177,081	0,056	-0,060
-596,269	-67,294	-0,227	-0,065
-595,255	31,742	0,101	-0,063
-594,240	178,091	-0,063	-0,068
-593,225	253,806	-0,049	0,062
-592,211	-200,000	-0,010	0,083
-591,196	800,000	-0,039	-0,106
-590,182	42,540	0,138	-0,092
-589,167	-34,624	-0,080	0,032
-588,152	5,239	0,018	0,010
-587,138	31,001	-0,108	0,068
-586,123	-200,000	-0,009	-0,158
-585,109	-200,000	-0,016	-0,101
-584,094	-112,544	-0,071	0,010
-583,079	749,359	0,027	-0,054
-582,065	107,425	0,112	0,097
-581,050	405,232	0,074	0,114
-580,036	-62,290	0,102	-0,031
-579,021	800,000	-0,038	0,117
-578,006	115,436	0,048	0,043
-576,992	420,703	0,065	-0,102
-575,977	800,000	0,027	0,079
-574,963	171,702	-0,072	0,076
-573,948	-200,000	0,029	0,159
-572,934	39,341	0,091	-0,060
-571,919	-200,000	0,041	-0,251
-570,904	606,823	-0,048	-0,089
-569,890	-81,038	-0,101	0,024
-568,875	-200,000	-0,043	0,157
-567,861	-14,135	0,004	0,002
-566,846	800,000	-0,058	0,158
-565,831	293,555	-0,063	0,084
-564,817	800,000	0,034	-0,084
-563,802	18,410	-0,035	0,021
-562,788	-1,392	-0,090	0,046
-561,773	-23,347	0,030	-0,013
-560,758	52,363	0,050	0,035
-559,744	110,073	0,032	0,028
-558,729	-200,000	0,018	-0,066
-557,715	-200,000	-0,015	0,071
-556,700	25,916	-0,075	-0,046
-555,685	800,000	0,022	-0,065
-554,671	-200,000	0,001	0,008
-553,656	-21,613	0,010	0,004
-552,642	-200,000	0,009	0,030
-551,627	513,786	-0,053	0,090
-550,612	-200,000	-0,007	0,086
-549,598	11,580	0,195	-0,109
-548,583	60,656	0,048	0,035
-547,569	-53,479	0,052	-0,017
-546,554	60,679	-0,082	-0,059
-545,539	-15,515	0,127	0,059
-544,525	-151,542	0,103	0,005
-543,510	800,000	0,034	-0,103
-542,496	-200,000	-0,011	0,035
-541,481	65,819	-0,049	0,036
-540,466	-200,000	-0,006	0,065
-539,452	-200,000	0,017	-0,150
-538,437	22,273	0,071	-0,042
-537,423	380,996	-0,049	-0,073
-536,408	-38,501	0,062	0,024
-535,393	394,958	-0,047	-0,072
-534,379	-200,000	0,022	0,160
-533,364	-200,000	-0,016	-0,057
-532,350	-200,000	0,017	0,069
-531,335	-24,862	-0,057	0,025
-530,321	800,000	-0,016	0,047
-529,306	-200,000	-0,017	0,058
-528,291	796,589	0,037	-0,074
-527,277	-51,605	0,058	-0,020
-526,262	478,431	0,024	0,040
-525,248	405,309	0,035	0,054
-524,233	-54,174	0,033	0,011
-523,218	119,161	-0,049	0,044
-522,204	575,986	-0,127	0,229
-521,189	-83,002	0,024	0,006
-520,175	-144,435	-0,164	0,011
-519,160	-200,000	-0,002	0,127
-518,145	59,088	0,076	0,055
-517,131	668,127	0,035	-0,066
-516,116	760,078	-0,032	0,063
-515,102	-76,982	0,136	-0,034
-514,087	800,000	0,020	-0,044
-513,072	-200,000	-0,022	0,081
-512,058	94,957	0,090	-0,074
-511,043	41,353	0,068	0,045
-510,029	-200,000	-0,006	0,097
-509,014	108,848	0,071	0,062
-507,999	-200,000	-0,004	0,077
-506,985	-200,000	-0,029	0,097
-505,970	-132,693	-0,097	0,009
-504,956	800,000	-0,018	-0,057
-503,941	-51,134	-0,050	0,017
-502,926	-148,469	0,036	0,002
-501,912	800,000	0,029	0,084
-500,897	-67,482	0,024	-0,007
-499,883	-200,000	0,040	-0,134
-498,868	-6,101	-0,051	0,025
-497,853	-100,329	-0,062	0,011
-496,839	-200,000	0,000	-0,026
-495,824	800,000	-0,051	-0,145
-494,810	-200,000	0,025	0,120
-493,795	-200,000	-0,004	0,130
-492,781	-200,000	-0,002	-0,042
-491,766	800,000	0,032	0,065
-490,751	-200,000	-0,034	-0,136
-489,737	-200,000	0,018	-0,156
-488,722	-128,082	-0,119	0,012
-487,708	-200,000	0,025	0,080
-486,693	3,199	-0,014	0,007
-485,678	800,000	-0,047	-0,140
-484,664	-200,000	0,023	-0,091
-483,649	238,044	-0,065	-0,078
-482,635	-172,698	-0,064	-0,001
-481,620	800,000	0,053	0,113
-480,605	-88,909	-0,034	-0,007
-479,591	32,769	-0,053	-0,034
-478,576	-71,520	-0,074	0,020
-477,562	-78,461	0,114	-0,028
-476,547	21,424	-0,023	0,014
-475,532	-70,307	0,156	-0,043
-474,518	28,521	0,036	-0,022
-473,503	-200,000	-0,017	-0,070
-472,489	418,765	0,027	-0,043
-471,474	-174,459	-0,041	0,001
-470,459	-94,202	-0,089	0,018
-469,445	-65,571	0,084	-0,024
-468,430	-200,000	-0,042	0,187
-467,416	-200,000	0,002	-0,037
-466,401	137,299	0,076	-0,073
-465,386	11,802	0,049	0,028
-464,372	96,187	0,095	0,079
-463,357	-200,000	0,004	-0,043
-462,343	800,000	-0,064	-0,160
-461,328	800,000	0,054	-0,122
-460,313	-200,000	0,041	-0,143
-459,299	-155,853	0,048	-0,002
-458,284	800,000	0,056	0,143
-457,270	-137,574	-0,099	-0,008
-456,255	2,042	-0,041	-0,022
-455,241	-20,445	0,108	-0,048
-454,226	-9,632	-0,129	0,062
-453,211	42,605	0,106	-0,070
-452,197	-96,234	-0,088	0,017
-451,182	21,668	0,064	-0,038
-450,168	226,357	-0,057	0,067
-449,153	800,000	-0,050	-0,107
-448,138	-2,746	-0,052	-0,027
-447,124	633,965	-0,043	0,081
-446,109	615,374	-0,029	0,054
-445,095	52,821	0,009	-0,006
-444,080	-46,051	0,157	0,056
-443,065	-51,107	0,066	-0,022
-442,051	-2,783	0,023	-0,011
-441,036	-200,000	-0,022	-0,111
-440,022	-109,529	-0,039	-0,006
-439,007	82,489	-0,036	-0,028
-437,992	619,948	0,041	0,076
-436,978	458,197	0,069	0,113
-435,963	-200,000	-0,013	0,068
-434,949	2,206	-0,195	-0,102
-433,934	-71,384	0,102	0,028
-432,919	-200,000	-0,020	0,117
-431,905	15,672	0,070	0,040
-430,890	330,194	0,080	-0,113
-429,876	214,916	0,070	0,081
-428,861	49,129	-0,065	-0,045
-427,846	55,702	-0,042	-0,030
-426,832	-28,858	-0,100	0,042
-425,817	74,512	0,071	-0,055
-424,803	7,038	0,090	0,049
-423,788	69,464	0,157	-0,117
-422,773	78,684	-0,076	0,059
-421,759	-54,459	0,201	0,066
-420,744	237,396	-0,086	-0,103
-419,730	-200,000	0,012	0,095
-418,715	-200,000	0,017	-0,127
-417,701	63,970	0,101	-0,074
-416,686	200,130	0,094	0,106
-415,671	800,000	0,034	0,095
-414,657	-200,000	0,007	0,039
-413,642	-200,000	0,017	-0,058
-412,628	-200,000	0,002	-0,033
-411,613	-5,385	-0,130	-0,065
-410,598	800,000	0,007	-0,022
-409,584	-118,460	-0,079	-0,010
-408,569	-124,942	-0,023	-0,003
-407,555	280,896	0,037	0,048
-406,540	-59,544	0,166	-0,052
-405,525	477,262	-0,027	-0,044
-404,511	-35,974	0,043	-0,017
-403,496	-200,000	-0,033	-0,141
-402,482	485,230	0,040	0,067
-401,467	-11,822	-0,068	0,032
-400,452	23,594	0,221	0,132
-399,438	112,250	-0,090	-0,079
-398,423	-200,000	-0,004	-0,200
-397,409	-68,483	-0,070	0,020
-396,394	800,000	-0,004	0,010
-395,379	-200,000	-0,002	0,219
-394,365	800,000	-0,034	0,093
-393,350	373,723	0,056	0,083
-392,336	-29,919	-0,110	0,046
-391,321	-47,659	0,032	-0,011
-390,306	800,000	0,047	-0,117
-389,292	357,370	0,034	0,050
-388,277	800,000	0,055	-0,149
-387,263	184,251	-0,047	0,051
-386,248	800,000	0,032	0,074
-385,233	421,020	-0,031	0,049
-384,219	-121,579	-0,054	-0,006
-383,204	81,671	-0,019	-0,015
-382,190	-200,000	0,032	0,000
-381,175	461,217	0,028	0,045
-380,160	800,000	0,035	0,101
-379,146	507,155	-0,056	0,095
-378,131	-115,700	-0,048	-0,007
-377,117	619,170	-0,015	-0,028
-376,102	-52,047	0,123	0,041
-375,088	800,000	0,020	0,048
-374,073	243,580	0,066	-0,081
-373,058	689,522	-0,047	0,090
-372,044	-200,000	-0,022	0,088
-371,029	-87,165	0,125	-0,027
-370,015	-200,000	-0,015	-0,080
-369,000	739,804	-0,044	-0,087
-367,985	92,608	-0,091	0,074
-366,971	113,396	-0,096	-0,084
-365,956	-65,070	0,006	-0,002
-364,942	211,079	-0,068	-0,078
-363,927	-135,504	-0,053	-0,005
-362,912	270,932	-0,075	0,097
-361,898	56,318	-0,165	0,117
-360,883	-65,422	-0,067	0,020
-359,869	800,000	-0,022	-0,060
-358,854	134,798	0,084	-0,080
-357,839	-177,613	0,136	0,002
-356,825	685,628	0,075	-0,143
-355,810	800,000	-0,043	-0,101
-354,796	172,727	-0,086	-0,090
-353,781	-200,000	0,006	0,031
-352,766	-124,767	0,103	-0,011
-351,752	800,000	0,030	-0,072
-350,737	-140,809	0,069	-0,005
-349,723	36,921	0,021	-0,013
-348,708	800,000	0,049	-0,110
-347,693	-200,000	-0,005	0,183
-346,679	96,846	-0,047	-0,039
-345,664	-70,223	-0,020	-0,006
-344,650	79,082	-0,061	-0,047
-343,635	287,822	-0,087	-0,114
-342,620	-52,964	-0,180	-0,060
-341,606	124,682	-0,040	0,036
-340,591	-200,000	0,016	-0,118
-339,577	800,000	0,023	0,063
-338,562	-15,338	-0,088	-0,041
-337,548	800,000	0,060	0,130
-336,533	-200,000	-0,003	-0,099
-335,518	205,875	0,074	0,083
-334,504	-126,459	0,109	-0,012
-333,489	-200,000	0,019	-0,103
-332,475	87,011	-0,040	0,032
-331,460	224,705	-0,036	0,042
-330,445	665,772	0,053	-0,100
-329,431	791,232	0,045	0,091
-328,416	-200,000	0,022	0,109
-327,402	422,796	0,064	0,100
-326,387	-86,543	0,086	0,019
-325,372	-107,535	-0,122	-0,019
-324,358	800,000	0,061	-0,149
-323,343	-200,000	-0,017	-0,098
-322,329	-92,376	0,079	0,016
-321,314	116,590	0,064	-0,057
-320,299	-127,290	0,092	0,010
-319,285	470,763	-0,048	-0,079
-318,270	111,732	-0,085	0,074
-317,256	94,950	-0,038	-0,032
-316,241	-67,882	-0,109	-0,031
-315,226	-132,085	-0,022	-0,002
-314,212	-200,000	0,013	0,068
-313,197	119,886	0,109	0,098
-312,183	800,000	0,023	-0,069
-311,168	134,025	0,026	-0,025
-310,153	77,958	0,064	-0,049
-309,139	-200,000	0,013	-0,043
-308,124	445,244	-0,034	-0,055
-307,110	206,350	0,071	-0,080
-306,095	-132,411	-0,123	-0,011
-305,080	-115,773	-0,015	-0,002
-304,066	101,167	-0,081	0,069
-303,051	141,040	0,011	0,010
-302,037	74,730	0,054	-0,041
-301,022	100,118	-0,156	-0,131
-300,008	726,972	-0,013	0,025
-298,993	266,136	-0,052	-0,066
-297,978	-200,000	0,058	0,000
-296,964	188,637	-0,028	0,031
-295,949	-4,274	-0,030	-0,015
-294,935	-80,750	-0,069	-0,016
-293,920	139,175	-0,086	0,082
-292,905	353,859	0,062	-0,089
-291,891	713,987	-0,058	0,112
-290,876	329,003	0,016	-0,023
-289,862	-139,211	0,094	-0,007
-288,847	-200,000	-0,001	-0,131
-287,832	109,856	-0,061	-0,053
-286,818	197,625	0,038	0,042
-285,803	197,127	0,030	0,033
-284,789	-200,000	-0,014	0,047
-283,774	313,877	-0,026	-0,036
-282,759	189,766	0,024	0,027
-281,745	-150,409	-0,233	-0,013
-280,730	2,588	0,085	-0,045
-279,716	-58,040	-0,129	-0,040
-278,701	-200,000	0,001	0,150
-277,686	100,174	-0,105	0,088
-276,672	-200,000	0,020	0,121
-275,657	800,000	-0,029	0,070
-274,643	58,585	-0,121	-0,086
-273,628	-81,819	-0,071	-0,017
-272,613	33,574	-0,040	0,025
-271,599	-200,000	-0,008	0,077
-270,584	-143,752	0,071	-0,005
-269,570	-30,963	0,046	-0,019
-268,555	184,042	0,035	0,038
-267,540	-64,877	0,052	-0,015
-266,526	64,860	-0,057	0,042
-265,511	-200,000	0,008	-0,068
-264,497	-200,000	0,002	-0,094
-263,482	-18,398	0,110	0,050
-262,467	157,418	-0,005	-0,005
-261,453	800,000	0,030	0,079
-260,438	-200,000	-0,000	-0,117
-259,424	800,000	-0,004	-0,011
-258,409	49,672	0,045	0,030
-257,395	659,528	-0,034	0,064
-256,380	800,000	-0,016	0,051
-255,365	-4,853	0,125	-0,062
-254,351	-200,000	-0,006	-0,062
-253,336	-96,856	0,110	-0,021
-252,322	209,845	-0,052	0,059
-251,307	56,460	0,095	0,066
-250,292	228,567	0,015	-0,017
-249,278	-200,000	0,012	0,048
-248,263	-106,978	0,042	-0,007
-247,249	-45,445	0,083	0,030
-246,234	-200,000	-0,033	0,110
-245,219	-4,483	-0,099	0,050
-244,205	53,102	-0,115	-0,080
-243,190	-200,000	-0,007	-0,070
-242,176	-50,345	0,116	-0,040
-241,161	43,434	0,131	-0,086
-240,146	215,913	-0,047	-0,054
-239,132	-200,000	-0,017	-0,106
-238,117	800,000	0,039	-0,115
-237,103	411,204	-0,032	-0,049
-236,088	-34,157	0,109	0,043
-235,073	225,065	0,087	-0,101
-234,059	-11,456	0,038	-0,018
-233,044	20,215	0,028	-0,017
-232,030	-40,166	-0,093	0,035
-231,015	-13,447	0,081	-0,038
-230,000	-126,591	0,102	0,011
-228,986	-200,000	-0,002	0,019
-227,971	800,000	-0,013	-0,032
-226,957	-76,652	0,151	-0,038
-225,942	-200,000	0,009	0,152
-224,927	244,458	-0,033	0,040
-223,913	21,277	-0,118	-0,069
-222,898	-44,045	0,050	0,018
-221,884	457,036	-0,026	-0,042
-220,869	-200,000	0,014	0,105
-219,855	-105,764	-0,057	0,009
-218,840	100,841	-0,043	-0,036
-217,825	410,832	0,030	-0,046
-216,811	-200,000	0,000	-0,057
-215,796	-99,748	-0,130	0,023
-214,782	35,333	-0,076	-0,048
-213,767	148,847	-0,061	-0,060
-212,752	12,600	-0,044	0,024
-211,738	800,000	-0,040	-0,089
-210,723	-59,447	-0,085	-0,026
-209,709	800,000	-0,024	0,060
-208,694	-200,000	0,009	0,094
-207,679	322,083	-0,082	-0,113
-206,665	171,283	-0,067	0,069
-205,650	-3,825	0,067	0,034
-204,636	-127,402	0,041	0,004
-203,621	-200,000	-0,006	0,124
-202,606	-200,000	0,001	0,028
-201,592	104,129	-0,073	0,062
-200,577	-200,000	-0,037	-0,159
-199,563	144,739	0,074	-0,071
-198,548	19,426	0,068	0,039
-197,533	800,000	-0,013	0,026
-196,519	2,961	0,116	0,061
-195,504	415,268	-0,054	0,084
-194,490	-74,635	-0,078	-0,020
-193,475	-199,351	0,067	-0,000
-192,460	307,927	0,069	0,093
-191,446	800,000	0,025	-0,060
-190,431	57,010	0,044	-0,031
-189,417	-198,295	0,126	0,001
-188,402	-200,000	0,013	-0,102
-187,387	10,707	-0,102	-0,056
-186,373	-80,807	0,123	0,029
-185,358	-152,075	-0,102	0,005
-184,344	30,213	0,067	0,041
-183,329	113,196	-0,059	-0,051
-182,315	48,297	-0,126	-0,085
-181,300	-31,541	-0,110	0,044
-180,285	169,026	-0,042	-0,043
-179,271	-72,517	-0,077	0,020
-178,256	140,501	-0,080	0,077
-177,242	-82,927	0,047	0,011
-176,227	-200,000	-0,007	0,026
-175,212	-32,668	0,169	0,067
-174,198	-200,000	0,005	0,100
-173,183	-84,547	0,084	-0,019
-172,169	379,079	-0,028	-0,041
-171,154	-200,000	0,008	-0,088
-170,139	800,000	0,044	-0,108
-169,125	-200,000	0,001	-0,165
-168,110	-200,000	0,002	0,052
-167,096	-83,509	0,065	-0,015
-166,081	564,232	-0,086	-0,150
-165,066	-87,524	-0,032	-0,007
-164,052	18,724	-0,063	-0,037
-163,037	-200,000	0,009	0,039
-162,023	8,116	-0,089	0,048
-161,008	101,258	-0,097	0,081
-159,993	-5,658	-0,046	0,022
-158,979	784,340	0,018	-0,036
-157,964	110,533	-0,097	-0,084
-156,950	800,000	-0,028	0,085
-155,935	800,000	0,027	0,068
-154,920	-200,000	0,013	0,053
-153,906	-200,000	-0,029	0,095
-152,891	290,691	0,077	-0,101
-151,877	449,962	-0,059	-0,094
-150,862	-20,973	0,125	-0,055
-149,847	-27,550	0,029	0,012
-148,833	-200,000	-0,002	0,087
-147,818	-200,000	-0,022	-0,098
-146,804	-2,449	0,012	-0,006
-145,789	800,000	-0,031	0,095
-144,775	-115,640	-0,033	-0,004
-143,760	492,548	0,057	0,095
-142,745	-29,053	-0,116	0,048
-141,731	-69,648	0,078	0,021
-140,716	380,319	-0,042	0,062
-139,702	372,944	0,030	0,045
-138,687	-134,865	-0,154	0,013
-137,672	350,185	-0,050	0,071
-136,658	491,367	0,035	0,059
-135,643	64,207	-0,104	-0,076
-134,629	246,164	0,045	0,055
-133,614	-200,000	0,000	0,111
-132,599	63,164	0,119	0,086
-131,585	-52,070	-0,070	0,023
-130,570	-19,025	0,017	0,008
-129,556	-32,482	-0,130	-0,052
-128,541	-62,793	-0,099	-0,029
-127,526	-42,915	0,092	-0,034
-126,512	-104,017	0,077	-0,013
-125,497	634,297	0,015	-0,027
-124,483	-200,000	-0,002	-0,028
-123,468	-77,805	-0,163	0,040
-122,453	189,087	0,169	-0,182
-121,439	-200,000	-0,001	0,080
-120,424	8,692	0,027	0,015
-119,410	12,478	0,162	-0,089
-118,395	-200,000	0,030	-0,168
-117,380	-132,654	-0,079	0,007
-116,366	171,541	-0,024	0,025
-115,351	-200,000	0,022	-0,074
-114,337	11,838	-0,178	0,098
-113,322	158,350	0,088	0,088
-112,307	-151,685	0,153	0,008
-111,293	800,000	0,011	0,029
-110,278	-15,584	-0,076	-0,035
-109,264	-68,394	0,084	0,023
-108,249	481,594	-0,060	-0,098
-107,234	415,500	-0,037	-0,057
-106,220	3,735	-0,033	0,017
-105,205	-200,000	0,012	0,066
-104,191	240,200	0,100	0,120
-103,176	-79,268	0,160	0,039
-102,162	169,438	0,059	-0,061
-101,147	-200,000	-0,004	-0,067
-100,132	-200,000	-0,009	-0,158
-99,118	-17,274	0,166	-0,075
-98,103	800,000	-0,032	-0,081
-97,089	-137,887	0,073	0,006
-96,074	45,644	0,092	0,061
-95,059	255,728	-0,052	0,064
-94,045	-40,163	-0,035	-0,013
-93,030	-117,738	-0,164	0,021
-92,016	800,000	-0,011	-0,024
-91,001	456,576	0,060	-0,097
-89,986	-9,372	0,031	-0,015
-88,972	-100,244	-0,058	-0,010
-87,957	-68,921	0,079	0,022
-86,943	92,429	-0,075	0,061
-85,928	-200,000	0,008	-0,091
-84,913	800,000	-0,021	-0,047
-83,899	215,294	-0,050	0,057
-82,884	101,856	0,069	0,058
-81,870	800,000	-0,012	0,026
-80,855	121,951	0,070	0,063
-79,840	157,620	-0,050	-0,050
-78,826	233,503	-0,060	-0,071
-77,811	-140,452	-0,036	-0,003
-76,797	-200,000	0,008	-0,041
-75,782	-200,000	0,024	0,085
-74,767	-55,462	0,100	-0,032
-73,753	-200,000	0,002	-0,032
-72,738	-200,000	-0,002	-0,051
-71,724	-200,000	0,019	-0,118
-70,709	57,065	-0,076	0,053
-69,694	48,643	0,057	-0,038
-68,680	216,643	0,097	-0,111
-67,665	-37,471	0,057	0,022
-66,651	37,225	-0,143	-0,091
-65,636	-177,865	0,162	-0,003
-64,622	10,234	-0,174	-0,095
-63,607	800,000	-0,044	-0,117
-62,592	-200,000	-0,061	-0,212
-61,578	-14,821	-0,047	-0,022
-60,563	-200,000	-0,015	0,051
-59,549	800,000	-0,037	0,088
-58,534	66,301	-2,551	-1,858
-57,519	80,140	0,373	-0,288
-56,505	800,000	-1,723	-5,346
-55,490	523,250	1,117	1,892
-54,476	800,000	5,208	11,215
-53,461	-200,000	21,959	341,007
-52,446	800,000	761,685	2297,390
-51,432	512,869	1654,543	2779,068
-50,417	103,715	1619,470	1364,994
-49,403	73,963	1274,173	958,651
-48,388	25,413	1022,467	608,837
-47,373	19,093	988,476	567,675
-46,359	13,292	975,945	541,400
-45,344	9,259	972,560	526,238
-44,330	9,859	970,335	526,985
-43,315	8,658	968,825	522,202
-42,300	8,663	967,392	521,425
-41,286	8,726	966,378	521,066
-40,271	8,648	965,410	520,269
-39,257	8,698	964,458	519,897
-38,242	8,634	963,738	519,278
-37,227	8,593	962,993	518,723
-36,213	8,631	962,120	518,357
-35,198	8,642	961,312	517,937
-34,184	8,633	960,345	517,367
-33,169	8,620	959,466	516,831
-32,154	8,711	958,665	516,673
-31,140	8,706	957,686	516,108
-30,125	8,685	956,805	515,546
-29,111	8,644	956,120	515,022
-28,096	8,709	955,545	514,904
-27,082	8,657	954,867	514,349
-26,067	8,619	953,911	513,691
-25,052	8,597	953,280	513,260
-24,038	8,595	952,691	512,915
-23,023	8,576	951,781	512,344
-22,009	8,679	951,370	512,433
-20,994	8,618	950,807	511,916
-19,979	8,650	950,212	511,678
-18,965	8,588	949,561	511,106
-17,950	8,643	948,914	510,914
-16,936	8,622	948,085	510,382
-15,921	8,584	947,460	509,904
-14,906	8,548	946,899	509,466
-13,892	8,623	946,153	509,283
-12,877	8,543	945,594	508,707
-11,863	8,538	944,816	508,250
-10,848	8,543	944,385	508,015
-9,833	8,582	944,087	507,961
-8,819	8,536	943,369	507,408
-7,804	8,536	942,621	506,983
-6,790	8,518	941,934	506,536
-5,775	8,567	941,465	506,421
-4,760	8,557	940,773	505,997
-3,746	8,532	940,221	505,599
-2,731	8,388	939,408	504,686
-1,717	8,393	938,788	504,349
-0,702	8,356	938,247	503,921
0,313	8,219	937,512	503,850
1,327	11,679	935,443	513,645
2,342	20,641	783,676	453,903
3,356	16,050	450,749	254,102
4,371	-10,347	313,754	148,705
5,386	-13,972	296,400	136,785
6,400	-15,912	290,181	131,972
7,415	-16,506	287,477	130,145
8,429	-17,414	285,548	128,370
9,444	-17,545	284,726	127,861
10,459	-17,538	284,125	127,587
11,473	-17,637	283,389	127,149
12,488	-17,439	282,810	127,070
13,502	-17,512	282,461	126,831
14,517	-17,448	282,035	126,691
15,531	-17,702	281,640	126,257
16,546	-17,572	281,070	126,115
17,561	-17,720	280,800	125,840
18,575	-17,621	280,503	125,791
19,590	-17,722	279,973	125,445
20,604	-17,460	279,748	125,584
21,619	-17,651	279,447	125,255
22,634	-17,657	278,915	125,000
23,648	-17,501	278,669	125,028
24,663	-17,670	278,433	124,749
25,677	-17,688	278,230	124,629
26,692	-17,564	277,864	124,573
27,707	-17,612	277,712	124,448
28,721	-17,456	277,185	124,348
29,736	-17,519	277,026	124,207
30,750	-17,636	276,879	124,019
31,765	-17,708	276,594	123,812
32,780	-17,700	276,452	123,745
33,794	-17,666	275,984	123,556
34,809	-17,516	275,787	123,599
35,823	-17,583	275,627	123,453
36,838	-17,731	275,341	123,174
37,853	-17,295	274,893	123,373
38,867	-17,632	275,028	123,106
39,882	-17,574	274,584	122,950
40,896	-17,406	274,221	122,934
41,911	-17,601	274,152	122,710
42,926	-17,622	274,005	122,613
43,940	-17,780	273,644	122,293
44,955	-17,727	273,349	122,200
45,969	-17,647	273,123	122,162
46,984	-17,519	272,817	122,134
47,999	-17,408	272,681	122,165
49,013	-17,568	272,639	121,987
50,028	-17,660	272,342	121,757
51,042	-17,492	272,117	121,803
52,057	-17,507	271,866	121,666
53,071	-17,489	271,688	121,591
54,086	-17,610	271,297	121,294
55,101	-17,460	271,068	121,319
56,115	-17,538	270,996	121,203
57,130	-17,454	270,770	121,170
58,144	-17,541	270,378	120,903
59,159	-17,560	270,178	120,785
60,174	-17,523	269,820	120,648
61,188	-17,377	269,718	120,727
62,203	-17,605	269,490	120,404
63,217	-17,400	269,375	120,531
64,232	-17,622	269,131	120,207
65,247	-17,423	268,724	120,197
66,261	-17,728	268,665	119,880
67,276	-17,469	268,318	119,952
68,290	-17,633	268,188	119,733
69,305	-17,501	268,044	119,779
70,320	-17,447	267,550	119,596
71,334	-17,508	267,492	119,504
72,349	-17,418	267,158	119,426
73,363	-17,445	266,923	119,286
74,378	-17,551	266,706	119,082
75,393	-17,575	266,583	118,994
76,407	-17,579	266,282	118,846
77,422	-17,575	266,133	118,772
78,436	-17,608	265,938	118,645
79,451	-17,410	265,564	118,647
80,466	-17,674	265,412	118,329
81,480	-17,517	265,179	118,357
82,495	-17,478	264,952	118,280
83,509	-17,566	264,981	118,204
84,524	-17,511	264,465	118,012
85,539	-17,520	264,223	117,886
86,553	-17,531	264,215	117,862
87,568	-17,648	263,923	117,615
88,582	-17,570	263,741	117,594
89,597	-17,244	263,534	117,783
90,611	-17,489	263,333	117,464
91,626	-17,387	263,130	117,454
92,641	-17,561	262,878	117,175
93,655	-17,480	262,737	117,174
94,670	-17,463	262,404	117,031
95,684	-17,438	262,237	116,968
96,699	-17,684	262,095	116,674
97,714	-17,307	261,837	116,886
98,728	-17,494	261,728	116,660
99,743	-17,337	261,539	116,705
100,757	-17,511	261,246	116,410
101,772	-17,448	260,991	116,341
102,787	-17,406	260,762	116,266
103,801	-17,575	260,660	116,061
104,816	-17,524	260,410	115,984
105,830	-17,311	260,172	116,056
106,845	-17,410	260,080	115,917
107,860	-17,341	259,746	115,819
108,874	-17,401	259,583	115,682
109,889	-17,374	259,418	115,622
110,903	-17,421	259,217	115,481
111,918	-17,284	258,994	115,493
112,933	-17,292	258,668	115,329
113,947	-17,486	258,724	115,173
114,962	-17,412	258,399	115,084
115,976	-17,431	258,180	114,959
116,991	-17,535	258,074	114,810
118,006	-17,395	257,728	114,769
119,020	-17,451	257,611	114,658
120,035	-17,446	257,425	114,569
121,049	-17,337	257,369	114,629
122,064	-17,323	257,219	114,565
123,079	-17,329	256,804	114,364
124,093	-17,407	256,668	114,226
125,108	-17,309	256,390	114,177
126,122	-17,395	256,374	114,085
127,137	-17,366	256,081	113,970
128,151	-17,327	255,895	113,910
129,166	-17,493	255,692	113,666
130,181	-17,450	255,568	113,638
131,195	-17,410	255,196	113,497
132,210	-17,413	255,046	113,417
133,224	-17,412	255,026	113,399
134,239	-17,172	254,667	113,437
135,254	-17,297	254,533	113,259
136,268	-17,382	254,229	113,041
137,283	-17,412	254,126	112,959
138,297	-17,365	253,934	112,904
139,312	-17,246	253,769	112,923
140,327	-17,322	253,477	112,717
141,341	-17,387	253,172	112,516
142,356	-17,223	253,157	112,640
143,370	-17,161	252,954	112,593
144,385	-17,381	252,673	112,269
145,400	-17,317	252,504	112,239
146,414	-17,529	252,353	111,980
147,429	-17,270	252,193	112,121
148,443	-17,342	252,053	111,987
149,458	-17,340	251,711	111,827
150,473	-17,267	251,496	111,784
151,487	-17,233	251,396	111,758
152,502	-17,176	251,253	111,734
153,516	-17,319	250,994	111,486
154,531	-17,242	250,762	111,439
155,546	-17,198	250,582	111,386
156,560	-17,510	250,454	111,055
157,575	-17,247	250,469	111,275
158,589	-17,225	250,171	111,151
159,604	-17,490	249,832	110,766
160,619	-17,289	249,853	110,935
161,633	-17,427	249,533	110,667
162,648	-17,058	249,350	110,888
163,662	-17,222	249,337	110,733
164,677	-17,250	249,157	110,620
165,692	-17,180	248,843	110,529
166,706	-17,269	248,708	110,385
167,721	-17,458	248,566	110,153
168,735	-17,293	248,535	110,268
169,750	-17,390	248,339	110,090
170,764	-17,167	248,071	110,148
171,779	-17,252	247,959	110,018
172,794	-17,164	247,877	110,046
173,808	-17,424	247,665	109,724
174,823	-17,183	247,340	109,771
175,837	-17,311	247,175	109,581
176,852	-17,365	247,071	109,481
177,867	-17,328	246,931	109,439
178,881	-17,220	246,799	109,462
179,896	-17,217	246,512	109,327
180,910	-17,180	246,275	109,243
181,925	-17,436	246,170	108,973
182,940	-17,365	246,023	108,957
183,954	-17,233	245,780	108,950
184,969	-17,411	245,677	108,747
185,983	-17,323	245,611	108,781
186,998	-17,278	245,292	108,667
188,013	-17,253	245,105	108,596
189,027	-17,181	244,956	108,580
190,042	-17,258	244,884	108,474
191,056	-17,206	244,630	108,395
192,071	-17,134	244,364	108,327
193,086	-17,132	244,234	108,261
194,100	-17,097	244,067	108,206
195,115	-17,036	243,912	108,178
196,129	-17,025	243,641	108,058
197,144	-17,109	243,449	107,894
198,159	-17,161	243,367	107,805
199,173	-17,126	243,086	107,700
200,188	-17,139	242,960	107,623
201,202	-16,983	242,719	107,634
202,217	-17,097	242,654	107,503
203,232	-17,056	242,318	107,378
204,246	-17,018	242,186	107,341
205,261	-16,829	242,117	107,455
206,275	-15,113	242,588	109,058
207,290	-11,342	244,061	112,811
208,304	-5,745	245,777	118,218
209,319	-3,015	246,704	120,914
210,334	-2,290	246,578	121,440
211,348	-1,531	246,732	122,132
212,363	-1,200	246,765	122,411
213,377	-0,638	246,855	122,909
214,392	-0,210	246,804	123,227
215,407	0,272	246,748	123,586
216,421	0,368	246,658	123,608
217,436	0,370	246,523	123,531
218,450	0,276	246,293	123,328
219,465	0,489	246,144	123,418
220,480	0,392	245,963	123,236
221,494	0,421	245,978	123,256
222,509	0,330	245,641	123,002
223,523	0,161	245,450	122,757
224,538	0,121	245,190	122,583
225,553	0,098	244,935	122,426
226,567	0,052	244,967	122,393
227,582	-0,085	244,745	122,160
228,596	0,187	244,523	122,260
229,611	0,035	244,364	122,046
230,626	-0,126	244,321	121,881
231,640	0,066	244,050	121,892
232,655	0,066	243,826	121,769
233,669	-0,067	243,819	121,647
234,684	-0,033	243,605	121,557
235,699	0,016	243,390	121,478
236,713	0,067	243,148	121,388
237,728	0,077	243,121	121,372
238,742	0,155	242,756	121,242
239,757	-0,020	242,880	121,151
240,772	-0,027	242,622	121,006
241,786	0,001	242,469	120,942
242,801	-0,127	242,347	120,767
243,815	0,015	242,137	120,765
244,830	-0,085	242,149	120,680
245,844	0,010	241,802	120,573
246,859	-0,120	241,724	120,419
247,874	-0,120	241,486	120,289
248,888	0,056	241,442	120,398
249,903	0,331	241,158	120,468
250,917	0,164	241,048	120,267
251,932	0,151	240,914	120,180
252,947	0,104	240,783	120,065
253,961	0,012	240,550	119,865
254,976	-0,065	240,496	119,766
255,990	0,207	240,106	119,778
257,005	0,032	240,173	119,661
258,020	-0,189	240,052	119,414
259,034	0,029	239,792	119,448
260,049	0,262	239,531	119,492
261,063	0,149	239,524	119,388
262,078	0,029	239,322	119,182
263,093	0,067	239,132	119,106
264,107	0,102	239,071	119,093
265,122	-0,019	238,904	118,903
266,136	-0,011	238,741	118,818
267,151	0,140	238,486	118,800
268,166	-0,092	238,384	118,554
269,180	-0,039	238,229	118,509
270,195	-0,113	238,196	118,424
271,209	-0,197	238,097	118,297
272,224	-0,033	237,760	118,249
273,239	0,080	237,740	118,318
274,253	0,122	237,525	118,234
275,268	0,059	237,260	118,041
276,282	0,102	237,193	118,031
277,297	0,165	237,027	117,988
278,312	0,206	236,939	117,966
279,326	-0,193	236,906	117,624
280,341	-0,044	236,562	117,560
281,355	0,069	236,480	117,598
282,370	0,084	236,418	117,569
283,384	0,168	236,086	117,459
284,399	0,186	235,947	117,394
285,414	-0,034	235,863	117,169
286,428	0,113	235,776	117,231
287,443	0,256	235,590	117,239
288,457	0,177	235,456	117,100
289,472	0,149	235,258	116,970
290,487	0,154	235,016	116,842
291,501	0,198	234,884	116,801
292,516	0,192	234,957	116,822
293,530	0,032	234,718	116,568
294,545	0,135	234,672	116,615
295,560	0,248	234,357	116,537
296,574	0,197	234,266	116,441
297,589	0,242	234,054	116,360
298,603	0,268	233,986	116,336
299,618	0,216	233,764	116,175
300,633	0,210	233,547	116,052
301,647	0,180	233,689	116,089
302,662	0,366	233,355	116,056
303,676	0,325	233,295	115,985
304,691	0,379	233,058	115,899
305,706	0,632	232,752	115,931
306,720	0,332	232,815	115,720
307,735	0,572	232,600	115,789
308,749	0,385	232,609	115,639
309,764	0,421	232,331	115,518
310,779	0,304	232,273	115,388
311,793	0,533	231,887	115,362
312,808	0,299	231,798	115,129
313,822	0,222	231,715	115,017
314,837	0,437	231,474	115,052
315,852	0,521	231,405	115,072
316,866	0,443	231,323	114,962
317,881	0,298	231,153	114,756
318,895	0,366	230,835	114,640
319,910	0,570	230,723	114,730
320,925	0,325	230,609	114,476
321,939	0,308	230,578	114,437
322,954	0,313	230,513	114,398
323,968	0,576	230,201	114,434
324,983	0,494	230,097	114,310
325,997	0,298	230,042	114,122
327,012	0,478	229,841	114,150
328,027	0,366	229,571	113,921
329,041	0,192	229,573	113,779
330,056	0,374	229,339	113,791
331,070	0,357	229,328	113,762
332,085	0,351	229,059	113,614
333,100	0,555	228,953	113,707
334,114	0,502	228,741	113,551
335,129	0,331	228,615	113,349
336,143	0,322	228,387	113,219
337,158	0,505	228,312	113,310
338,173	0,631	228,155	113,317
339,187	0,550	228,118	113,227
340,202	0,621	227,985	113,205
341,216	0,598	227,725	113,048
342,231	0,636	227,534	112,972
343,246	0,798	227,471	113,052
344,260	0,513	227,504	112,844
345,275	0,784	227,248	112,911
346,289	0,665	227,092	112,734
347,304	0,708	226,849	112,636
348,319	0,647	226,777	112,544
349,333	0,603	226,614	112,420
350,348	0,639	226,418	112,339
351,362	0,520	226,344	112,204
352,377	0,800	226,100	112,282
353,392	0,548	226,107	112,087
354,406	0,604	226,081	112,106
355,421	193,514	1311,741	1382,124
356,435	155,081	1443,884	1381,973
