DTS Sentinel unit serial number:	SN410029Multiplexer serial number:	ORYXHardware model number:	OX2-SRSoftware version number:	ORYX F/W v4,00 Oryx Data Collector v3.7.2.0data status	okinstallation	B5 Nyhavnadifferential loss correction	single-endedforward channel	channel 2reverse channel	N/Adate	2023/12/11time	15:27:13forward acquisition time	300,00reverse acquisition time	0,00gamma	499,1914k internal	0,3166k external	0,3166temperature offset calibration	1,0000default loss term (dB/km)	0,3820temperature slope calibration	1,0000multiplexer offset coefficient	1,0000multiplexer slope coefficient	1,0000fibre end	0,00T internal ref (°C)	13,33T ext. ref 1 (°C)	-1,87T ext. ref 2 (°C)	-1,92length (m)	temperature (°C)	Stokes	anti-Stokes-744,400	800,000	0,026	0,085
-743,385	-29,617	-0,295	0,123
-742,371	-200,000	0,040	0,148
-741,356	-180,905	-0,312	0,005
-740,342	-73,091	0,207	0,055
-739,327	-117,806	-0,304	0,040
-738,312	-84,169	0,062	0,014
-737,298	-41,485	-0,312	-0,117
-736,283	-122,450	-0,103	0,012
-735,269	-70,429	-0,268	0,074
-734,254	-38,032	0,069	0,027
-733,239	-29,158	-0,577	-0,242
-732,225	290,288	0,128	0,171
-731,210	125,333	-0,036	0,034
-730,196	-200,000	-0,020	-0,153
-729,181	-85,724	-0,121	-0,027
-728,167	-4,662	-0,040	-0,020
-727,152	-58,532	-0,020	0,006
-726,137	145,151	-0,046	-0,045
-725,123	-120,361	-0,008	-0,001
-724,108	-86,525	-0,045	-0,010
-723,094	-56,355	-0,052	0,017
-722,079	-142,446	-0,055	0,004
-721,064	369,129	0,062	0,093
-720,050	247,888	-0,031	0,039
-719,035	-11,863	0,130	0,062
-718,021	405,672	-0,010	-0,016
-717,006	365,556	-0,054	-0,081
-715,991	-30,524	-0,077	0,032
-714,977	213,211	-0,025	-0,029
-713,962	800,000	-0,045	-0,143
-712,948	46,885	0,175	0,119
-711,933	83,285	0,036	0,028
-710,918	350,045	0,042	0,060
-709,904	783,444	-0,016	0,033
-708,889	-200,000	-0,021	-0,111
-707,875	83,228	-0,072	-0,057
-706,860	90,454	-0,008	0,006
-705,845	-62,171	0,104	0,032
-704,831	-3,678	-0,109	-0,055
-703,816	3,541	-0,077	0,041
-702,802	-93,362	-0,032	0,006
-701,787	-200,000	0,000	0,099
-700,772	108,253	-0,118	0,103
-699,758	-88,153	0,071	0,016
-698,743	800,000	-0,059	0,132
-697,729	-26,732	0,083	0,036
-696,714	195,641	0,062	0,069
-695,699	-200,000	0,023	0,161
-694,685	-144,947	-0,122	0,008
-693,670	-70,822	-0,024	-0,007
-692,656	800,000	0,046	-0,118
-691,641	51,863	-0,061	-0,043
-690,627	-200,000	0,029	0,161
-689,612	-56,312	-0,090	-0,029
-688,597	209,788	0,132	-0,152
-687,583	-9,541	-0,161	-0,078
-686,568	-175,907	-0,072	0,001
-685,554	-129,363	-0,278	-0,028
-684,539	184,699	-0,083	0,091
-683,524	-64,230	0,119	-0,035
-682,510	-45,650	0,147	-0,053
-681,495	-9,454	0,049	-0,024
-680,481	-200,000	0,008	-0,070
-679,466	102,167	-0,053	0,045
-678,451	389,344	0,077	0,117
-677,437	734,986	0,046	-0,090
-676,422	224,101	0,021	-0,024
-675,408	113,829	-0,097	0,087
-674,393	18,000	-0,076	-0,044
-673,378	-195,637	0,062	-0,000
-672,364	268,058	-0,053	-0,068
-671,349	7,581	-0,082	-0,045
-670,335	58,346	-0,159	-0,115
-669,320	-200,000	-0,012	0,080
-668,305	-200,000	-0,035	0,116
-667,291	206,940	0,055	0,063
-666,276	800,000	-0,025	-0,066
-665,262	46,493	-0,091	-0,062
-664,247	-17,652	-0,082	0,038
-663,232	-149,843	0,161	-0,009
-662,218	-50,587	0,077	0,026
-661,203	-45,581	-0,123	0,044
-660,189	17,747	-0,036	-0,021
-659,174	-200,000	-0,010	0,083
-658,159	800,000	0,035	-0,104
-657,145	-102,262	0,071	0,012
-656,130	16,950	0,072	-0,041
-655,116	14,524	0,059	0,034
-654,101	-200,000	0,004	0,018
-653,086	-93,157	-0,138	-0,028
-652,072	98,766	-0,023	0,019
-651,057	-200,000	0,055	-0,238
-650,043	-25,327	-0,115	-0,050
-649,028	451,563	0,022	0,037
-648,014	800,000	-0,073	0,151
-646,999	-200,000	0,001	0,163
-645,984	109,345	-0,034	-0,030
-644,970	47,108	-0,027	0,018
-643,955	-152,760	0,067	0,003
-642,941	-200,000	-0,010	-0,140
-641,926	800,000	-0,027	0,065
-640,911	-200,000	-0,027	0,107
-639,897	-53,078	-0,090	-0,030
-638,882	231,513	0,056	-0,068
-637,868	-86,715	0,112	0,025
-636,853	72,276	0,102	-0,078
-635,838	585,995	0,019	-0,035
-634,824	-70,239	-0,027	0,007
-633,809	179,175	-0,022	-0,024
-632,795	263,216	0,053	0,068
-631,780	-200,000	0,029	0,154
-630,765	54,225	-0,021	0,015
-629,751	-200,000	-0,017	-0,110
-628,736	99,527	-0,088	0,075
-627,722	-100,526	0,146	0,026
-626,707	-111,524	-0,060	0,009
-625,692	800,000	-0,034	0,070
-624,678	-200,000	0,005	0,024
-623,663	51,952	-0,135	-0,094
-622,649	80,459	-0,109	-0,086
-621,634	36,597	0,069	0,044
-620,619	800,000	0,030	-0,083
-619,605	133,371	-0,023	0,022
-618,590	-200,000	0,012	-0,064
-617,576	234,520	0,069	-0,084
-616,561	439,356	0,069	0,110
-615,546	139,493	0,049	-0,047
-614,532	800,000	-0,045	-0,130
-613,517	395,306	-0,078	0,120
-612,503	-200,000	-0,005	0,047
-611,488	37,362	-0,050	0,033
-610,474	800,000	-0,039	0,082
-609,459	-52,796	-0,059	0,020
-608,444	-87,429	0,039	-0,009
-607,430	-22,656	-0,064	-0,028
-606,415	800,000	0,010	-0,031
-605,401	-79,972	0,098	-0,024
-604,386	-200,000	0,004	0,039
-603,371	98,411	0,067	-0,056
-602,357	277,289	0,070	-0,091
-601,342	2,375	-0,095	0,050
-600,328	-200,000	0,021	-0,245
-599,313	800,000	-0,051	-0,105
-598,298	121,164	0,045	0,041
-597,284	-55,851	0,242	0,079
-596,269	-86,240	-0,043	-0,010
-595,255	186,411	-0,095	-0,104
-594,240	13,966	-0,122	-0,069
-593,225	-60,971	-0,093	-0,028
-592,211	800,000	0,039	-0,085
-591,196	-40,312	0,036	0,014
-590,182	-200,000	-0,044	0,147
-589,167	380,419	0,024	-0,035
-588,152	134,122	0,109	-0,103
-587,138	-200,000	-0,004	-0,112
-586,123	-200,000	-0,010	-0,042
-585,109	252,201	0,037	-0,047
-584,094	-200,000	-0,005	0,075
-583,079	-200,000	-0,021	-0,105
-582,065	-84,425	0,049	0,011
-581,050	800,000	0,021	0,061
-580,036	28,820	-0,032	-0,020
-579,021	301,089	-0,087	0,117
-578,006	-20,980	0,073	0,033
-576,992	497,881	0,061	-0,103
-575,977	-200,000	-0,007	-0,027
-574,963	-181,424	0,084	0,001
-573,948	-11,957	-0,077	0,037
-572,934	97,004	-0,057	-0,048
-571,919	800,000	-0,049	-0,151
-570,904	175,750	-0,067	-0,072
-569,890	541,345	0,034	-0,059
-568,875	49,601	0,049	0,034
-567,861	63,024	-0,094	0,069
-566,846	17,719	-0,069	0,040
-565,831	531,114	-0,039	-0,068
-564,817	-200,000	-0,005	-0,065
-563,802	467,269	-0,046	0,075
-562,788	-200,000	0,005	0,062
-561,773	-170,063	0,085	-0,002
-560,758	291,114	0,030	0,040
-559,744	595,695	-0,069	-0,126
-558,729	-200,000	-0,008	0,051
-557,715	-139,582	-0,091	0,007
-556,700	107,127	-0,110	-0,095
-555,685	182,426	0,067	-0,072
-554,671	405,602	-0,073	0,113
-553,656	-200,000	-0,004	0,027
-552,642	-200,000	0,005	0,047
-551,627	-142,178	-0,129	0,009
-550,612	-70,187	-0,069	-0,019
-549,598	-200,000	-0,003	-0,137
-548,583	-68,357	0,084	-0,024
-547,569	-57,494	0,053	-0,017
-546,554	477,107	0,054	0,090
-545,539	71,118	0,027	-0,020
-544,525	142,604	-0,077	0,074
-543,510	-200,000	0,002	-0,018
-542,496	800,000	-0,040	-0,086
-541,481	-200,000	-0,017	-0,102
-540,466	94,716	0,036	0,030
-539,452	46,574	0,027	0,018
-538,437	386,035	0,034	-0,052
-537,423	-7,891	0,052	-0,025
-536,408	800,000	-0,065	0,138
-535,393	-82,708	0,051	0,012
-534,379	144,856	-0,047	0,045
-533,364	-158,634	-0,076	-0,003
-532,350	-200,000	0,018	-0,067
-531,335	-9,722	0,142	0,069
-530,321	-3,408	-0,110	-0,055
-529,306	-75,836	0,024	-0,006
-528,291	482,555	0,045	-0,074
-527,277	-200,000	0,012	-0,201
-526,262	101,113	-0,018	0,015
-525,248	-26,302	0,118	-0,050
-524,233	37,694	-0,102	0,066
-523,218	-89,687	0,080	-0,017
-522,204	101,640	0,049	0,042
-521,189	237,602	0,040	0,048
-520,175	-200,000	0,003	-0,010
-519,160	-200,000	-0,003	0,024
-518,145	235,610	0,018	0,022
-517,131	-163,776	0,097	0,003
-516,116	-200,000	-0,006	-0,120
-515,102	126,580	0,076	0,070
-514,087	800,000	-0,065	-0,192
-513,072	-200,000	-0,011	-0,050
-512,058	-46,239	-0,123	-0,044
-511,043	-105,488	0,115	0,019
-510,029	80,279	-0,123	0,096
-509,014	-200,000	0,031	-0,103
-507,999	-112,820	-0,174	0,025
-506,985	-134,196	-0,059	-0,005
-505,970	-9,596	-0,151	-0,073
-504,956	-95,057	-0,133	0,026
-503,941	16,488	0,061	-0,035
-502,926	23,646	0,066	-0,039
-501,912	-36,301	0,130	0,051
-500,897	29,481	0,112	-0,069
-499,883	800,000	-0,048	-0,114
-498,868	-200,000	0,022	-0,196
-497,853	-200,000	-0,008	0,042
-496,839	-121,950	-0,158	-0,019
-495,824	-87,169	0,105	-0,023
-494,810	-69,582	0,071	0,020
-493,795	261,804	-0,084	-0,106
-492,781	150,919	-0,115	-0,114
-491,766	-200,000	0,005	-0,068
-490,751	-155,196	-0,201	0,009
-489,737	67,311	-0,038	-0,028
-488,722	351,882	0,019	0,028
-487,708	-200,000	-0,011	0,162
-486,693	791,922	-0,021	-0,041
-485,678	106,848	0,145	-0,125
-484,664	419,487	-0,102	-0,159
-483,649	-200,000	0,035	-0,143
-482,635	-200,000	0,022	0,147
-481,620	90,283	-0,040	0,033
-480,605	57,193	-0,120	-0,085
-479,591	284,523	0,091	0,120
-478,576	-21,250	-0,073	0,032
-477,562	163,520	0,043	-0,044
-476,547	134,855	0,051	0,049
-475,532	-70,591	0,054	0,015
-474,518	194,250	0,024	0,026
-473,503	-200,000	-0,020	-0,096
-472,489	-200,000	0,014	0,089
-471,474	414,354	-0,055	0,086
-470,459	49,137	0,038	-0,026
-469,445	-200,000	-0,007	-0,208
-468,430	-200,000	-0,014	-0,110
-467,416	-137,117	0,111	-0,009
-466,401	614,826	-0,031	0,057
-465,386	401,983	-0,056	0,086
-464,372	-126,066	-0,073	-0,008
-463,357	112,285	-0,067	0,059
-462,343	-200,000	-0,016	-0,093
-461,328	-64,698	-0,123	0,036
-460,313	9,496	-0,056	-0,031
-459,299	788,383	0,034	-0,068
-458,284	-116,335	0,082	0,011
-457,270	370,108	-0,032	0,048
-456,255	-146,360	-0,017	0,001
-455,241	36,095	0,063	-0,040
-454,226	-49,980	0,049	-0,017
-453,211	800,000	0,009	0,020
-452,197	19,189	0,088	0,051
-451,182	-8,569	0,025	-0,012
-450,168	95,319	-0,043	0,035
-449,153	-200,000	0,008	0,041
-448,138	320,200	0,086	-0,118
-447,124	-200,000	-0,003	0,030
-446,109	-200,000	-0,009	0,034
-445,095	87,144	0,110	0,088
-444,080	1,102	0,150	0,078
-443,065	181,630	-0,083	0,089
-442,051	800,000	-0,026	-0,065
-441,036	-81,792	-0,089	0,021
-440,022	2,786	-0,085	0,045
-439,007	680,786	-0,020	-0,038
-437,992	-200,000	0,015	-0,162
-436,978	-200,000	-0,000	-0,015
-435,963	-200,000	0,000	-0,052
-434,949	80,818	-0,061	-0,048
-433,934	144,496	-0,062	-0,060
-432,919	-200,000	0,000	0,058
-431,905	-111,031	0,062	-0,009
-430,890	-200,000	-0,012	-0,043
-429,876	-200,000	0,029	-0,119
-428,861	-36,887	0,044	0,017
-427,846	94,215	-0,084	-0,069
-426,832	800,000	-0,053	-0,114
-425,817	-23,042	-0,197	-0,086
-424,803	800,000	0,057	-0,143
-423,788	-44,034	0,107	0,039
-422,773	293,484	-0,046	0,060
-421,759	113,061	-0,117	0,103
-420,744	2,077	-0,055	-0,029
-419,730	56,818	-0,090	-0,064
-418,715	86,349	0,126	-0,101
-417,701	-109,782	0,164	0,025
-416,686	-200,000	-0,004	0,108
-415,671	530,926	0,056	0,097
-414,657	99,742	0,036	-0,030
-413,642	287,308	-0,095	0,124
-412,628	27,560	-0,076	-0,046
-411,613	-200,000	-0,012	0,101
-410,598	137,861	0,107	-0,102
-409,584	-200,000	0,028	-0,093
-408,569	240,761	0,065	0,079
-407,555	-200,000	-0,017	-0,070
-406,540	-200,000	0,008	-0,079
-405,525	0,656	0,154	0,080
-404,511	-200,000	-0,007	0,100
-403,496	158,694	0,024	-0,025
-402,482	319,087	0,059	0,081
-401,467	132,315	0,109	0,102
-400,452	-58,385	0,022	-0,007
-399,438	6,702	-0,065	-0,035
-398,423	-11,252	0,103	-0,049
-397,409	150,767	-0,080	-0,079
-396,394	-61,852	0,073	0,022
-395,379	-200,000	-0,005	0,094
-394,365	-200,000	0,003	-0,037
-393,350	19,127	0,075	0,044
-392,336	136,929	-0,058	-0,055
-391,321	88,408	0,067	0,054
-390,306	-78,447	-0,112	0,028
-389,292	73,713	0,043	0,033
-388,277	59,181	0,096	0,068
-387,263	44,461	-0,081	-0,054
-386,248	93,281	0,062	0,051
-385,233	800,000	0,009	0,027
-384,219	155,032	-0,008	-0,008
-383,204	-183,871	0,181	0,002
-382,190	-156,496	-0,060	0,003
-381,175	66,118	0,063	0,046
-380,160	412,521	0,034	0,053
-379,146	-200,000	-0,018	-0,080
-378,131	800,000	-0,056	0,149
-377,117	388,409	-0,048	0,072
-376,102	170,717	0,048	-0,050
-375,088	-9,918	0,050	0,024
-374,073	-200,000	0,006	-0,081
-373,058	-200,000	-0,036	0,142
-372,044	18,433	0,101	0,058
-371,029	37,792	0,100	0,064
-370,015	35,379	-0,045	0,029
-369,000	390,328	-0,079	-0,120
-367,985	800,000	0,021	-0,066
-366,971	13,406	-0,031	0,018
-365,956	800,000	-0,026	-0,067
-364,942	-27,058	0,117	-0,049
-363,927	-200,000	0,003	-0,084
-362,912	21,016	-0,096	-0,056
-361,898	419,957	-0,058	-0,090
-360,883	53,346	0,025	-0,018
-359,869	70,225	-0,075	-0,056
-358,854	159,666	0,092	-0,093
-357,839	-33,239	0,119	-0,048
-356,825	-37,521	-0,090	0,034
-355,810	14,939	0,054	-0,030
-354,796	228,446	0,059	0,070
-353,781	-124,927	0,064	-0,007
-352,766	-200,000	-0,011	0,040
-351,752	-200,000	-0,018	-0,130
-350,737	507,362	0,012	-0,020
-349,723	-123,033	0,047	-0,005
-348,708	-51,336	0,020	-0,007
-347,693	242,720	0,090	-0,110
-346,679	144,979	0,021	-0,020
-345,664	-200,000	0,002	-0,137
-344,650	-200,000	0,002	-0,029
-343,635	184,345	0,055	0,059
-342,620	324,082	0,078	0,109
-341,606	55,006	-0,056	0,039
-340,591	-86,582	0,084	0,018
-339,577	-200,000	0,049	-0,175
-338,562	-36,572	-0,190	0,074
-337,548	800,000	-0,041	-0,094
-336,533	614,566	0,026	0,047
-335,518	-200,000	-0,045	0,153
-334,504	311,312	0,074	0,100
-333,489	-98,221	-0,074	-0,014
-332,475	199,513	0,066	0,073
-331,460	-65,708	0,044	0,013
-330,445	-117,483	-0,113	0,015
-329,431	-200,000	-0,021	0,129
-328,416	157,630	0,039	0,039
-327,402	-116,430	0,109	0,014
-326,387	800,000	0,022	-0,067
-325,372	-179,792	-0,044	-0,001
-324,358	11,168	-0,095	-0,052
-323,343	264,525	0,065	0,082
-322,329	800,000	0,046	0,109
-321,314	-200,000	0,021	0,114
-320,299	275,911	0,023	-0,030
-319,285	-45,740	-0,118	0,042
-318,270	-200,000	-0,011	0,037
-317,256	-33,573	-0,217	0,086
-316,241	-95,020	0,052	-0,010
-315,226	155,730	0,015	-0,015
-314,212	-93,213	0,108	0,022
-313,197	800,000	-0,063	0,130
-312,183	488,977	-0,113	-0,187
-311,168	-90,936	0,099	0,020
-310,153	473,842	-0,025	-0,042
-309,139	343,796	-0,071	0,101
-308,124	153,350	0,056	0,055
-307,110	104,355	0,039	-0,033
-306,095	706,482	0,043	0,083
-305,080	237,678	-0,016	0,019
-304,066	290,775	-0,041	-0,053
-303,051	-105,480	-0,188	-0,031
-302,037	-200,000	0,033	0,122
-301,022	800,000	-0,040	0,088
-300,008	-200,000	0,023	0,092
-298,993	-21,070	-0,099	0,043
-297,978	322,978	0,052	-0,072
-296,964	242,221	-0,042	-0,051
-295,949	53,443	-0,095	-0,065
-294,935	570,284	-0,062	0,109
-293,920	-39,165	-0,050	0,019
-292,905	-2,235	0,039	-0,019
-291,891	12,317	-0,059	-0,033
-290,876	-118,059	0,067	-0,009
-289,862	72,877	0,028	0,021
-288,847	587,412	-0,125	-0,223
-287,832	10,888	-0,104	0,057
-286,818	166,947	0,105	0,108
-285,803	-0,930	-0,068	0,035
-284,789	159,663	0,123	0,124
-283,774	137,375	-0,047	0,044
-282,759	800,000	-0,016	-0,037
-281,745	119,245	0,087	0,078
-280,730	500,938	-0,027	-0,045
-279,716	122,538	-0,044	0,040
-278,701	800,000	0,033	0,093
-277,686	-73,590	0,095	0,025
-276,672	-1,053	-0,042	-0,021
-275,657	212,436	-0,031	0,035
-274,643	-105,466	0,113	0,018
-273,628	-200,000	0,000	0,053
-272,613	-200,000	-0,032	-0,129
-271,599	-42,353	-0,049	-0,018
-270,584	800,000	-0,031	0,071
-269,570	11,053	0,040	-0,022
-268,555	-19,684	0,097	0,043
-267,540	180,738	0,051	-0,054
-266,526	-61,452	0,060	0,018
-265,511	17,510	0,018	0,010
-264,497	-22,815	-0,033	-0,014
-263,482	800,000	0,036	0,074
-262,467	606,995	-0,049	0,089
-261,453	-200,000	-0,026	0,105
-260,438	515,332	-0,017	0,028
-259,424	149,089	-0,064	-0,063
-258,409	-43,159	-0,034	-0,012
-257,395	149,494	-0,053	-0,052
-256,380	115,141	0,041	0,036
-255,365	336,368	-0,085	0,119
-254,351	-165,455	0,254	0,008
-253,336	-200,000	-0,011	-0,123
-252,322	800,000	0,025	0,051
-251,307	800,000	0,056	-0,146
-250,292	121,524	0,018	-0,016
-249,278	-200,000	-0,013	0,060
-248,263	-22,998	0,117	-0,051
-247,249	40,791	0,048	-0,031
-246,234	191,099	-0,066	-0,072
-245,219	732,824	-0,052	0,101
-244,205	-200,000	-0,002	0,082
-243,190	-81,588	0,033	0,008
-242,176	-125,073	0,071	0,008
-241,161	-95,698	-0,089	-0,017
-240,146	-81,441	0,122	0,029
-239,132	-200,000	-0,020	0,078
-238,117	365,113	-0,028	-0,041
-237,103	-200,000	0,023	0,124
-236,088	-143,927	0,134	0,009
-235,073	299,592	-0,011	-0,015
-234,059	162,504	-0,086	0,087
-233,044	800,000	-0,016	-0,036
-232,030	568,569	-0,060	-0,106
-231,015	138,949	-0,099	-0,094
-230,000	-200,000	-0,015	-0,091
-228,986	60,552	0,050	-0,035
-227,971	309,991	0,057	0,076
-226,957	-200,000	-0,036	0,167
-225,942	800,000	-0,032	-0,079
-224,927	-45,351	-0,026	0,009
-223,913	-51,405	0,137	-0,046
-222,898	169,594	-0,058	-0,059
-221,884	-200,000	-0,005	-0,113
-220,869	800,000	0,061	0,145
-219,855	25,469	0,086	-0,051
-218,840	-45,286	0,018	0,006
-217,825	-141,549	-0,146	0,010
-216,811	-200,000	-0,003	0,041
-215,796	-28,536	-0,040	0,016
-214,782	-200,000	-0,001	-0,042
-213,767	363,818	-0,070	-0,102
-212,752	-154,053	0,083	-0,004
-211,738	800,000	0,039	0,111
-210,723	-92,091	-0,071	-0,014
-209,709	-43,545	-0,067	-0,024
-208,694	-80,201	-0,065	0,015
-207,679	20,062	0,092	0,053
-206,665	-46,890	-0,048	-0,017
-205,650	46,381	-0,034	-0,023
-204,636	-200,000	0,005	0,059
-203,621	-200,000	-0,003	-0,084
-202,606	688,161	-0,046	-0,088
-201,592	800,000	-0,032	-0,076
-200,577	-26,920	0,084	-0,035
-199,563	-200,000	-0,001	-0,015
-198,548	-200,000	0,018	0,126
-197,533	-200,000	0,012	0,122
-196,519	800,000	0,027	0,071
-195,504	800,000	-0,025	-0,079
-194,490	285,130	-0,054	0,070
-193,475	408,000	-0,021	-0,032
-192,460	305,496	0,050	-0,067
-191,446	-23,597	-0,031	0,013
-190,431	800,000	-0,049	0,113
-189,417	133,511	-0,042	0,039
-188,402	-200,000	0,007	-0,064
-187,387	-200,000	0,018	0,097
-186,373	-200,000	-0,031	0,160
-185,358	111,004	-0,038	0,033
-184,344	-55,325	0,030	0,010
-183,329	255,242	0,091	0,112
-182,315	70,132	0,184	0,137
-181,300	800,000	-0,046	0,116
-180,285	90,394	-0,074	-0,060
-179,271	597,227	0,070	-0,125
-178,256	-200,000	0,032	-0,102
-177,242	-42,966	0,094	0,034
-176,227	235,369	-0,024	0,029
-175,212	-200,000	-0,042	0,169
-174,198	800,000	0,059	0,161
-173,183	142,442	-0,119	0,114
-172,169	45,034	-0,065	-0,043
-171,154	166,969	-0,050	-0,051
-170,139	800,000	-0,017	0,053
-169,125	-200,000	-0,026	0,176
-168,110	-200,000	-0,015	0,060
-167,096	-200,000	0,014	0,071
-166,081	800,000	-0,038	-0,087
-165,066	-83,867	0,105	0,024
-164,052	800,000	-0,002	0,006
-163,037	-16,477	-0,114	0,052
-162,023	351,269	0,059	-0,084
-161,008	450,807	0,063	0,100
-159,993	420,239	-0,059	-0,092
-158,979	-66,048	0,031	0,009
-157,964	-100,874	-0,121	-0,021
-156,950	800,000	0,096	-0,194
-155,935	362,481	0,043	0,062
-154,920	7,434	0,017	0,009
-153,906	-200,000	0,002	0,117
-152,891	45,239	0,094	-0,062
-151,877	-200,000	0,018	-0,169
-150,862	-19,013	0,043	0,019
-149,847	-200,000	-0,021	0,070
-148,833	-200,000	0,021	0,074
-147,818	800,000	-0,055	-0,134
-146,804	-62,736	0,089	-0,026
-145,789	-200,000	-0,013	0,055
-144,775	72,110	0,105	0,079
-143,760	100,193	-0,088	-0,074
-142,745	-200,000	0,024	-0,121
-141,731	24,952	0,057	-0,034
-140,716	800,000	0,032	-0,080
-139,702	-51,552	0,126	-0,042
-138,687	220,479	-0,017	-0,019
-137,672	-200,000	-0,024	-0,111
-136,658	-200,000	-0,001	0,005
-135,643	-200,000	-0,004	-0,015
-134,629	467,453	-0,055	-0,089
-133,614	226,133	-0,018	0,021
-132,599	378,102	0,039	-0,057
-131,585	-200,000	-0,030	0,194
-130,570	-88,210	0,047	0,010
-129,556	-200,000	0,029	-0,112
-128,541	265,873	-0,042	0,053
-127,526	-200,000	0,011	0,093
-126,512	-200,000	-0,032	-0,111
-125,497	188,002	-0,053	-0,057
-124,483	-100,367	-0,014	0,002
-123,468	-82,448	-0,026	0,006
-122,453	-144,861	-0,130	0,008
-121,439	412,713	0,033	-0,051
-120,424	-121,359	0,048	-0,006
-119,410	156,050	-0,098	0,097
-118,395	-8,477	-0,110	0,053
-117,380	71,883	-0,022	0,016
-116,366	800,000	-0,046	0,102
-115,351	225,029	0,038	-0,044
-114,337	800,000	0,014	-0,032
-113,322	-200,000	0,011	0,050
-112,307	-98,930	-0,084	0,015
-111,293	-119,461	0,159	0,020
-110,278	-200,000	0,001	-0,006
-109,264	545,042	0,032	0,055
-108,249	43,903	0,123	0,081
-107,234	-101,690	-0,129	0,022
-106,220	-200,000	-0,006	0,128
-105,205	213,304	0,076	-0,086
-104,191	60,887	-0,150	0,107
-103,176	72,407	-0,080	0,060
-102,162	435,026	-0,049	-0,076
-101,147	-22,352	0,037	-0,016
-100,132	800,000	0,015	-0,043
-99,118	-200,000	0,009	0,047
-98,103	-200,000	0,003	-0,077
-97,089	-42,098	0,094	0,034
-96,074	-200,000	-0,018	0,062
-95,059	-78,733	0,038	0,009
-94,045	800,000	-0,060	-0,138
-93,030	25,292	0,042	-0,025
-92,016	105,779	0,036	0,031
-91,001	-61,370	0,039	0,012
-89,986	-102,284	0,070	-0,012
-88,972	8,502	0,109	0,058
-87,957	11,445	0,080	0,044
-86,943	-200,000	0,007	-0,032
-85,928	-200,000	0,000	-0,053
-84,913	312,078	0,069	-0,093
-83,899	-200,000	-0,012	0,050
-82,884	390,700	0,097	0,145
-81,870	-200,000	-0,002	0,095
-80,855	-42,377	-0,046	-0,017
-79,840	-200,000	-0,004	0,022
-78,826	237,554	0,021	0,025
-77,811	-200,000	0,012	-0,055
-76,797	-200,000	0,040	0,189
-75,782	166,489	-0,090	0,091
-74,767	800,000	0,010	0,029
-73,753	268,958	-0,072	-0,091
-72,738	-29,561	0,116	-0,047
-71,724	133,463	-0,110	-0,102
-70,709	-200,000	0,007	-0,126
-69,694	-78,611	-0,104	0,025
-68,680	74,830	0,089	0,067
-67,665	-6,941	0,093	-0,045
-66,651	-200,000	0,017	0,104
-65,636	-200,000	-0,022	0,095
-64,622	82,670	-0,064	-0,050
-63,607	-200,000	-0,014	-0,077
-62,592	-200,000	0,044	-0,203
-61,578	77,452	0,071	0,054
-60,563	-200,000	0,022	0,102
-59,549	-71,141	-0,234	0,063
-58,534	53,196	-2,126	-1,456
-57,519	-200,000	-0,084	-0,656
-56,505	-200,000	-1,331	-5,136
-55,490	103,416	0,959	0,805
-54,476	800,000	5,368	12,312
-53,461	-200,000	18,877	320,561
-52,446	800,000	741,970	2331,162
-51,432	554,585	1656,556	2863,867
-50,417	110,986	1639,673	1412,629
-49,403	74,771	1289,814	970,589
-48,388	29,892	1030,803	627,172
-47,373	19,703	993,454	570,756
-46,359	16,976	981,538	554,926
-45,344	13,672	977,589	541,823
-44,330	13,995	975,954	541,956
-43,315	13,406	973,953	538,894
-42,300	13,336	972,950	538,088
-41,286	13,354	971,978	537,590
-40,271	13,383	971,019	537,134
-39,257	13,389	970,094	536,619
-38,242	13,338	969,246	535,961
-37,227	13,353	968,547	535,605
-36,213	13,359	967,409	534,973
-35,198	13,259	966,685	534,224
-34,184	13,340	966,047	534,116
-33,169	13,338	964,889	533,446
-32,154	13,460	963,853	533,248
-31,140	13,372	962,958	532,447
-30,125	13,402	962,309	532,163
-29,111	13,349	961,591	531,574
-28,096	13,367	961,020	531,296
-27,082	13,431	960,236	531,048
-26,067	13,356	959,357	530,298
-25,052	13,383	958,843	530,081
-24,038	13,386	958,134	529,678
-23,023	13,309	957,657	529,145
-22,009	13,416	956,829	529,011
-20,994	13,382	955,999	528,423
-19,979	13,378	955,539	528,133
-18,965	13,372	954,704	527,631
-17,950	13,395	954,377	527,504
-16,936	13,298	953,729	526,815
-15,921	13,351	952,973	526,544
-14,906	13,286	952,362	525,979
-13,892	13,329	951,665	525,712
-12,877	13,249	950,846	524,983
-11,863	13,229	950,278	524,582
-10,848	13,198	949,793	524,196
-9,833	13,335	949,336	524,360
-8,819	13,274	948,523	523,694
-7,804	13,237	948,124	523,335
-6,790	13,265	947,294	522,948
-5,775	13,333	946,821	522,882
-4,760	13,315	946,180	522,448
-3,746	13,238	945,693	521,916
-2,731	13,111	945,036	521,127
-1,717	13,104	944,260	520,657
-0,702	13,107	943,660	520,316
0,313	12,896	943,029	520,084
1,327	16,500	940,443	529,998
2,342	26,017	794,554	472,972
3,356	22,460	459,372	267,989
4,371	-4,988	317,376	155,748
5,386	-8,793	299,220	142,944
6,400	-10,772	293,205	138,077
7,415	-11,245	290,667	136,400
8,429	-11,605	288,847	135,179
9,444	-11,736	288,136	134,705
10,459	-11,671	287,524	134,470
11,473	-11,848	286,877	133,982
12,488	-11,624	286,327	133,933
13,502	-11,823	285,893	133,523
14,517	-11,578	285,437	133,537
15,531	-11,720	284,941	133,156
16,546	-11,677	284,642	133,045
17,561	-11,667	284,281	132,875
18,575	-11,493	283,964	132,883
19,590	-11,765	283,500	132,391
20,604	-11,518	283,233	132,493
21,619	-11,595	282,843	132,224
22,634	-11,747	282,588	131,947
23,648	-11,572	282,052	131,853
24,663	-11,562	281,929	131,794
25,677	-11,569	281,696	131,667
26,692	-11,744	281,456	131,375
27,707	-11,555	281,055	131,356
28,721	-11,790	280,961	131,076
29,736	-11,548	280,604	131,129
30,750	-11,904	280,357	130,662
31,765	-11,675	280,117	130,758
32,780	-11,614	279,827	130,669
33,794	-11,732	279,499	130,391
34,809	-11,643	279,297	130,370
35,823	-11,720	278,919	130,109
36,838	-11,595	278,655	130,093
37,853	-11,843	278,614	129,826
38,867	-11,748	278,222	129,723
39,882	-11,774	278,141	129,649
40,896	-11,636	277,803	129,610
41,911	-11,651	277,482	129,435
42,926	-11,702	277,352	129,315
43,940	-11,749	277,125	129,153
44,955	-11,777	276,712	128,922
45,969	-11,702	276,503	128,883
46,984	-11,669	276,444	128,876
47,999	-11,750	276,150	128,651
49,013	-11,763	275,853	128,489
50,028	-11,866	275,611	128,268
51,042	-11,877	275,454	128,173
52,057	-11,851	275,076	128,010
53,071	-11,968	274,946	127,829
54,086	-11,667	274,690	127,979
55,101	-11,735	274,487	127,811
56,115	-11,925	274,501	127,629
57,130	-11,751	274,081	127,584
58,144	-11,574	273,833	127,622
59,159	-11,666	273,624	127,428
60,174	-11,714	273,405	127,269
61,188	-11,736	273,267	127,174
62,203	-11,660	272,925	127,073
63,217	-11,597	272,833	127,077
64,232	-11,637	272,503	126,875
65,247	-11,582	272,172	126,761
66,261	-11,607	271,974	126,634
67,276	-11,758	271,745	126,377
68,290	-11,767	271,625	126,302
69,305	-11,558	271,338	126,350
70,320	-11,711	271,125	126,098
71,334	-11,606	270,861	126,061
72,349	-11,527	270,769	126,079
73,363	-11,595	270,431	125,849
74,378	-11,650	270,225	125,691
75,393	-11,795	269,979	125,432
76,407	-11,748	269,830	125,395
77,422	-11,792	269,730	125,297
78,436	-11,643	269,313	125,228
79,451	-11,678	269,037	125,057
80,466	-11,666	268,902	124,994
81,480	-11,750	268,724	124,823
82,495	-11,771	268,533	124,704
83,509	-11,695	268,278	124,644
84,524	-11,740	268,209	124,559
85,539	-11,749	267,910	124,402
86,553	-11,561	267,617	124,425
87,568	-11,613	267,375	124,255
88,582	-11,638	267,189	124,135
89,597	-11,641	267,098	124,078
90,611	-11,678	266,877	123,931
91,626	-11,738	266,631	123,751
92,641	-11,620	266,442	123,759
93,655	-11,542	266,106	123,662
94,670	-11,743	266,058	123,448
95,684	-11,579	265,850	123,488
96,699	-11,737	265,708	123,269
97,714	-11,612	265,372	123,214
98,728	-11,545	265,283	123,223
99,743	-11,884	265,212	122,874
100,757	-11,438	264,731	123,040
101,772	-11,800	264,645	122,665
102,787	-11,682	264,233	122,568
103,801	-11,727	264,184	122,494
104,816	-11,857	263,922	122,246
105,830	-11,683	263,686	122,281
106,845	-11,729	263,745	122,256
107,860	-11,588	263,308	122,168
108,874	-11,468	263,034	122,137
109,889	-11,736	263,010	121,876
110,903	-11,568	262,736	121,889
111,918	-11,638	262,460	121,687
112,933	-11,602	262,387	121,675
113,947	-11,625	262,189	121,552
114,962	-11,729	261,898	121,313
115,976	-11,759	261,943	121,297
116,991	-11,759	261,642	121,147
118,006	-11,662	261,440	121,128
119,020	-11,601	261,220	121,070
120,035	-11,659	260,889	120,854
121,049	-11,674	260,937	120,852
122,064	-11,754	260,732	120,676
123,079	-11,729	260,572	120,613
124,093	-11,668	260,367	120,561
125,108	-11,668	260,021	120,390
126,122	-11,666	259,976	120,360
127,137	-11,848	259,760	120,090
128,151	-11,712	259,632	120,139
129,166	-11,531	259,350	120,157
130,181	-11,626	259,059	119,928
131,195	-11,732	258,947	119,773
132,210	-11,681	258,754	119,718
133,224	-11,621	258,483	119,634
134,239	-11,796	258,298	119,385
135,254	-11,410	258,136	119,636
136,268	-11,618	257,960	119,362
137,283	-11,772	257,759	119,125
138,297	-11,576	257,435	119,134
139,312	-11,821	257,218	118,811
140,327	-11,696	257,106	118,857
141,341	-11,542	256,952	118,909
142,356	-11,616	256,884	118,802
143,370	-11,515	256,549	118,724
144,385	-11,461	256,489	118,733
145,400	-11,696	256,270	118,418
146,414	-11,593	256,014	118,378
147,429	-11,520	255,873	118,366
148,443	-11,551	255,700	118,247
149,458	-11,582	255,604	118,166
150,473	-11,554	255,345	118,060
151,487	-11,732	255,215	117,836
152,502	-11,579	254,958	117,839
153,516	-11,496	254,673	117,768
154,531	-11,509	254,534	117,681
155,546	-11,625	254,334	117,479
156,560	-11,622	254,220	117,419
157,575	-11,697	254,010	117,247
158,589	-11,405	253,633	117,312
159,604	-11,380	253,571	117,294
160,619	-11,190	253,443	117,387
161,633	-11,528	253,283	117,014
162,648	-11,531	253,197	116,961
163,662	-11,531	253,006	116,862
164,677	-11,650	252,800	116,656
165,692	-11,514	252,632	116,684
166,706	-11,361	252,325	116,661
167,721	-11,385	252,340	116,637
168,735	-11,490	252,168	116,459
169,750	-11,664	251,992	116,219
170,764	-11,625	251,886	116,193
171,779	-11,705	251,770	116,061
172,794	-11,340	251,434	116,205
173,808	-11,674	251,284	115,842
174,823	-11,687	251,129	115,749
175,837	-11,738	250,887	115,585
176,852	-11,615	250,744	115,612
177,867	-11,672	250,644	115,508
178,881	-11,776	250,569	115,376
179,896	-11,476	250,212	115,453
180,910	-11,573	250,128	115,323
181,925	-11,698	249,868	115,088
182,940	-11,515	249,826	115,211
183,954	-11,326	249,482	115,201
184,969	-11,607	249,513	114,969
185,983	-11,423	249,264	114,999
186,998	-11,186	248,991	115,061
188,013	-11,436	249,029	114,859
189,027	-11,418	248,758	114,739
190,042	-11,503	248,580	114,575
191,056	-11,623	248,278	114,326
192,071	-11,724	248,154	114,175
193,086	-11,682	247,992	114,125
194,100	-11,378	247,737	114,250
195,115	-11,482	247,605	114,092
196,129	-11,323	247,320	114,083
197,144	-11,494	247,078	113,820
198,159	-11,733	247,004	113,577
199,173	-11,481	246,958	113,755
200,188	-11,545	246,599	113,526
201,202	-11,593	246,470	113,417
202,217	-11,732	246,219	113,177
203,232	-11,535	245,935	113,198
204,246	-11,339	246,170	113,459
205,261	-10,617	246,023	113,977
206,275	-10,824	245,879	113,729
207,290	-9,254	246,457	115,284
208,304	-6,145	247,507	118,343
209,319	-3,657	248,119	120,690
210,334	-2,625	248,133	121,542
211,348	-1,876	248,318	122,243
212,363	-1,461	248,464	122,649
213,377	-0,888	248,319	123,041
214,392	-0,574	248,237	123,249
215,407	-0,632	248,136	123,140
216,421	-0,506	247,911	123,121
217,436	-0,505	247,757	123,035
218,450	-0,553	247,434	122,824
219,465	-0,561	247,372	122,776
220,480	-0,773	247,225	122,517
221,494	-0,651	247,054	122,521
222,509	-0,888	246,928	122,254
223,523	-0,712	246,702	122,275
224,538	-0,900	246,568	122,043
225,553	-0,887	246,501	122,010
226,567	-0,871	246,167	121,847
227,582	-0,753	245,977	121,839
228,596	-0,722	245,886	121,808
229,611	-0,889	245,838	121,636
230,626	-0,961	245,637	121,467
231,640	-0,808	245,390	121,459
232,655	-0,896	245,366	121,365
233,669	-0,957	245,237	121,241
234,684	-0,805	244,903	121,189
235,699	-0,717	244,750	121,174
236,713	-0,842	244,582	120,978
237,728	-0,723	244,536	121,041
238,742	-0,782	244,252	120,842
239,757	-0,937	244,213	120,686
240,772	-0,899	243,914	120,558
241,786	-0,679	243,727	120,634
242,801	-0,833	243,661	120,465
243,815	-0,842	243,539	120,387
244,830	-0,898	243,320	120,223
245,844	-0,587	243,269	120,439
246,859	-0,714	242,877	120,130
247,874	-0,867	242,842	119,979
248,888	-0,811	242,620	119,904
249,903	-0,738	242,406	119,846
250,917	-0,843	242,490	119,793
251,932	-0,711	242,138	119,714
252,947	-0,742	241,848	119,535
253,961	-0,785	241,743	119,438
254,976	-0,850	241,680	119,344
255,990	-0,836	241,512	119,262
257,005	-0,725	241,425	119,297
258,020	-0,776	241,277	119,173
259,034	-0,654	241,093	119,168
260,049	-0,687	240,990	119,080
261,063	-0,786	240,766	118,881
262,078	-0,831	240,548	118,726
263,093	-0,705	240,483	118,784
264,107	-0,825	240,319	118,597
265,122	-0,612	240,065	118,631
266,136	-0,781	239,984	118,446
267,151	-0,770	239,811	118,358
268,166	-0,839	239,725	118,250
269,180	-0,834	239,536	118,150
270,195	-0,815	239,396	118,086
271,209	-0,681	239,210	118,090
272,224	-0,712	239,150	118,026
273,239	-0,684	238,932	117,929
274,253	-0,521	238,696	117,932
275,268	-0,917	238,789	117,653
276,282	-0,854	238,479	117,540
277,297	-0,705	238,142	117,481
278,312	-0,852	238,263	117,415
279,326	-0,754	237,837	117,271
280,341	-0,593	237,999	117,467
281,355	-0,598	237,642	117,277
282,370	-0,554	237,647	117,303
283,384	-0,856	237,549	117,007
284,399	-0,666	237,209	116,978
285,414	-0,764	237,097	116,836
286,428	-0,385	236,950	117,050
287,443	-0,480	236,716	116,849
288,457	-0,642	236,661	116,686
289,472	-0,757	236,461	116,486
290,487	-0,468	236,268	116,607
291,501	-0,527	236,171	116,503
292,516	-0,564	235,928	116,344
293,530	-0,615	235,871	116,265
294,545	-0,667	235,799	116,178
295,560	-0,637	235,690	116,138
296,574	-0,712	235,474	115,963
297,589	-0,692	235,326	115,895
298,603	-0,668	235,010	115,748
299,618	-0,809	234,941	115,594
300,633	-0,614	234,942	115,736
301,647	-0,625	234,854	115,674
302,662	-0,544	234,592	115,597
303,676	-0,573	234,347	115,443
304,691	-0,572	234,346	115,433
305,706	-0,619	234,119	115,275
306,720	-0,473	233,928	115,284
307,735	-0,693	233,881	115,080
308,749	-0,586	233,791	115,108
309,764	-0,539	233,647	115,064
310,779	-0,615	233,337	114,841
311,793	-0,343	233,154	114,951
312,808	-0,454	233,050	114,804
313,822	-0,545	232,981	114,689
314,837	-0,478	232,822	114,653
315,852	-0,414	232,642	114,603
316,866	-0,388	232,595	114,590
317,881	-0,478	232,305	114,368
318,895	-0,402	232,069	114,299
319,910	-0,410	231,985	114,242
320,925	-0,582	231,988	114,101
321,939	-0,473	231,717	114,041
322,954	-0,347	231,690	114,114
323,968	-0,278	231,506	114,066
324,983	-0,378	231,282	113,869
325,997	-0,498	231,143	113,699
327,012	-0,381	231,089	113,752
328,027	-0,397	230,901	113,637
329,041	-0,289	230,708	113,614
330,056	-0,382	230,662	113,510
331,070	-0,396	230,418	113,369
332,085	-0,147	230,271	113,477
333,100	-0,254	230,252	113,375
334,114	-0,308	230,049	113,224
335,129	-0,313	229,849	113,112
336,143	-0,262	229,632	113,034
337,158	-0,232	229,634	113,048
338,173	-0,085	229,500	113,083
339,187	0,033	229,291	113,059
340,202	-0,019	229,025	112,878
341,216	-0,177	229,022	112,748
342,231	0,071	228,864	112,847
343,246	-0,214	228,803	112,592
344,260	-0,394	228,671	112,381
345,275	-0,136	228,564	112,513
346,289	0,017	228,242	112,459
347,304	-0,248	228,289	112,273
348,319	-0,138	227,927	112,168
349,333	-0,040	227,873	112,205
350,348	0,018	227,753	112,179
351,362	-0,278	227,647	111,895
352,377	-0,352	227,467	111,741
353,392	0,111	227,444	112,067
354,406	0,081	227,206	111,917
355,421	196,991	1317,931	1395,253
356,435	158,018	1450,781	1395,217
