DTS Sentinel unit serial number:	SN410029Multiplexer serial number:	ORYXHardware model number:	OX2-SRSoftware version number:	ORYX F/W v4,00 Oryx Data Collector v3.7.2.0data status	okinstallation	B5 Nyhavnadifferential loss correction	single-endedforward channel	channel 2reverse channel	N/Adate	2023/12/13time	00:27:13forward acquisition time	300,00reverse acquisition time	0,00gamma	499,1914k internal	0,3159k external	0,3159temperature offset calibration	1,0000default loss term (dB/km)	0,3820temperature slope calibration	1,0000multiplexer offset coefficient	1,0000multiplexer slope coefficient	1,0000fibre end	0,00T internal ref (°C)	14,27T ext. ref 1 (°C)	-2,23T ext. ref 2 (°C)	-2,57length (m)	temperature (°C)	Stokes	anti-Stokes-744,400	73,255	0,065	0,050
-743,385	-62,110	-0,344	-0,105
-742,371	-73,073	0,200	-0,054
-741,356	-131,485	-0,224	0,021
-740,342	21,356	0,112	0,067
-739,327	-113,111	-0,113	0,016
-738,312	448,569	-0,040	0,066
-737,298	-151,054	-0,316	0,017
-736,283	445,440	0,118	0,191
-735,269	5,786	-0,186	-0,101
-734,254	198,349	0,087	0,099
-733,239	10,582	-0,446	-0,250
-732,225	-166,102	0,193	0,006
-731,210	-11,122	-0,035	-0,017
-730,196	76,541	-0,051	-0,040
-729,181	-136,860	-0,057	0,005
-728,167	-104,161	-0,062	0,011
-727,152	-200,000	0,008	0,078
-726,137	-28,058	-0,164	-0,070
-725,123	-200,000	-0,014	-0,071
-724,108	-5,002	-0,132	-0,067
-723,094	-200,000	-0,050	-0,194
-722,079	-39,088	0,061	0,024
-721,064	407,876	-0,050	-0,078
-720,050	-15,673	-0,132	-0,062
-719,035	-84,670	-0,076	0,018
-718,021	-43,155	-0,123	-0,045
-717,006	-13,081	-0,145	0,069
-715,991	774,900	-0,011	-0,023
-714,977	-200,000	0,005	-0,034
-713,962	-200,000	-0,056	-0,208
-712,948	265,643	0,067	-0,087
-711,933	476,571	0,021	0,034
-710,918	-200,000	0,008	-0,095
-709,904	-200,000	-0,003	-0,082
-708,889	-72,485	0,069	-0,019
-707,875	-200,000	0,015	-0,102
-706,860	-100,493	0,020	0,004
-705,845	-0,267	0,132	0,069
-704,831	-8,041	0,103	0,051
-703,816	25,167	-0,105	-0,064
-702,802	-77,160	-0,058	0,015
-701,787	54,912	-0,058	-0,041
-700,772	-32,036	-0,098	0,040
-699,758	560,464	0,022	0,039
-698,743	76,597	0,045	-0,035
-697,729	52,370	0,117	-0,082
-696,714	-200,000	-0,014	-0,067
-695,699	136,049	0,021	0,020
-694,685	433,202	0,044	-0,070
-693,670	181,084	-0,028	-0,030
-692,656	26,490	-0,101	-0,062
-691,641	-200,000	-0,011	0,054
-690,627	-129,585	0,050	0,005
-689,612	-86,488	-0,037	-0,008
-688,597	800,000	-0,048	-0,138
-687,583	26,731	-0,118	-0,072
-686,568	800,000	-0,036	-0,102
-685,554	95,717	0,037	0,031
-684,539	5,595	0,138	-0,075
-683,524	171,062	0,056	0,060
-682,510	408,809	-0,073	0,115
-681,495	800,000	0,043	-0,094
-680,481	-200,000	-0,040	-0,166
-679,466	-200,000	0,005	0,027
-678,451	108,941	0,001	-0,001
-677,437	188,277	0,018	0,020
-676,422	94,372	0,101	-0,084
-675,408	736,107	0,005	0,010
-674,393	-68,194	-0,028	-0,008
-673,378	135,276	0,048	-0,046
-672,364	289,823	-0,038	-0,051
-671,349	-200,000	0,012	-0,096
-670,335	-200,000	-0,002	-0,176
-669,320	800,000	0,023	-0,054
-668,305	800,000	-0,038	-0,111
-667,291	-200,000	-0,023	0,087
-666,276	346,310	-0,121	-0,175
-665,262	-133,944	0,103	0,009
-664,247	800,000	0,042	-0,122
-663,232	-31,566	0,056	0,023
-662,218	800,000	0,045	0,103
-661,203	-41,948	-0,048	-0,018
-660,189	-74,363	0,092	-0,024
-659,174	53,709	-0,106	-0,074
-658,159	-200,000	-0,006	0,150
-657,145	154,838	-0,029	0,029
-656,130	-23,666	0,145	-0,064
-655,116	800,000	0,029	-0,088
-654,101	-52,886	0,111	0,037
-653,086	26,050	-0,104	0,064
-652,072	800,000	0,077	-0,162
-651,057	-109,154	-0,176	0,027
-650,043	-200,000	-0,002	-0,078
-649,028	-200,000	0,019	-0,108
-648,014	2,118	-0,052	-0,028
-646,999	-158,094	0,120	0,005
-645,984	263,725	-0,062	0,079
-644,970	-5,458	-0,063	0,032
-643,955	643,275	0,059	-0,111
-642,941	421,064	-0,057	-0,090
-641,926	116,137	0,049	-0,044
-640,911	15,871	0,053	-0,030
-639,897	763,253	-0,043	-0,086
-638,882	352,682	-0,017	0,025
-637,868	242,154	-0,024	-0,029
-636,853	28,139	-0,134	-0,083
-635,838	-51,412	-0,170	0,058
-634,824	236,779	-0,062	-0,076
-633,809	800,000	-0,048	-0,132
-632,795	197,243	0,084	0,094
-631,780	136,372	0,087	-0,083
-630,765	-129,261	-0,078	-0,008
-629,751	176,696	-0,075	0,080
-628,736	1,083	-0,075	0,040
-627,722	800,000	0,065	-0,176
-626,707	349,946	-0,057	-0,083
-625,692	-180,146	0,116	-0,002
-624,678	-200,000	-0,043	0,145
-623,663	88,489	-0,086	-0,070
-622,649	-200,000	-0,014	-0,110
-621,634	220,864	-0,140	-0,165
-620,619	-40,770	-0,064	-0,024
-619,605	18,942	0,145	-0,085
-618,590	540,691	0,061	-0,107
-617,576	36,312	-0,035	0,023
-616,561	182,652	0,070	-0,076
-615,546	800,000	-0,011	-0,023
-614,532	-14,447	-0,111	0,052
-613,517	-145,411	-0,186	-0,012
-612,503	93,955	-0,037	-0,031
-611,488	800,000	0,042	0,135
-610,474	-40,023	0,155	0,059
-609,459	131,648	-0,090	-0,085
-608,444	-65,459	-0,073	0,021
-607,430	53,556	0,035	-0,025
-606,415	39,127	-0,085	-0,055
-605,401	536,964	0,019	-0,033
-604,386	384,778	0,041	0,063
-603,371	197,961	0,051	-0,058
-602,357	208,931	0,093	0,107
-601,342	-94,848	0,016	0,003
-600,328	800,000	-0,094	-0,208
-599,313	-133,331	-0,145	-0,013
-598,298	181,969	0,070	0,075
-597,284	-200,000	0,013	0,127
-596,269	-108,820	0,047	0,007
-595,255	46,786	-0,028	-0,019
-594,240	-200,000	0,007	0,047
-593,225	800,000	0,022	0,050
-592,211	-97,409	0,066	0,012
-591,196	800,000	-0,016	0,046
-590,182	-81,539	-0,098	0,023
-589,167	655,307	-0,103	-0,194
-588,152	248,524	-0,028	0,035
-587,138	-200,000	-0,027	0,108
-586,123	53,588	-0,068	0,048
-585,109	131,255	0,055	-0,052
-584,094	-115,695	0,061	0,008
-583,079	800,000	0,028	-0,066
-582,065	-143,540	0,122	0,008
-581,050	-200,000	-0,002	0,042
-580,036	9,370	-0,090	-0,050
-579,021	73,574	-0,056	-0,043
-578,006	-118,615	-0,020	-0,003
-576,992	-21,781	-0,045	0,020
-575,977	-87,429	0,070	-0,015
-574,963	-200,000	0,012	0,148
-573,948	48,606	-0,036	0,024
-572,934	69,478	-0,034	-0,026
-571,919	800,000	-0,067	-0,160
-570,904	-200,000	-0,026	-0,106
-569,890	-13,117	-0,128	-0,061
-568,875	120,840	-0,008	0,008
-567,861	-32,417	0,037	-0,015
-566,846	-200,000	-0,001	-0,025
-565,831	-200,000	0,026	-0,104
-564,817	141,947	-0,057	-0,056
-563,802	169,805	-0,066	0,069
-562,788	-105,644	-0,052	-0,009
-561,773	-66,174	0,094	-0,027
-560,758	409,138	-0,016	-0,025
-559,744	538,454	0,032	0,057
-558,729	620,267	0,036	0,067
-557,715	-200,000	-0,009	-0,129
-556,700	-200,000	0,003	-0,040
-555,685	-39,817	-0,032	0,012
-554,671	-200,000	-0,017	0,062
-553,656	100,072	0,118	0,100
-552,642	-128,868	0,090	-0,009
-551,627	800,000	0,011	-0,028
-550,612	-132,499	-0,084	-0,008
-549,598	-5,675	0,083	-0,042
-548,583	-54,685	-0,085	-0,028
-547,569	218,993	-0,034	0,040
-546,554	-200,000	0,007	-0,110
-545,539	-54,836	-0,018	-0,006
-544,525	800,000	0,048	-0,105
-543,510	105,277	0,041	0,036
-542,496	418,613	-0,031	0,049
-541,481	86,312	0,050	-0,041
-540,466	-137,914	-0,090	-0,007
-539,452	-200,000	0,011	0,053
-538,437	112,526	0,146	0,129
-537,423	800,000	-0,035	-0,074
-536,408	-200,000	-0,020	-0,085
-535,393	-100,988	-0,101	-0,018
-534,379	-200,000	0,019	0,138
-533,364	-200,000	0,001	0,012
-532,350	-31,872	0,065	0,027
-531,335	13,131	0,062	-0,035
-530,321	-200,000	0,022	0,112
-529,306	-200,000	0,013	0,096
-528,291	-138,241	-0,028	0,002
-527,277	24,373	-0,084	-0,050
-526,262	-110,056	0,054	0,008
-525,248	-12,271	-0,054	-0,026
-524,233	248,516	-0,053	0,066
-523,218	-101,857	0,102	0,018
-522,204	11,075	-0,144	-0,080
-521,189	256,980	-0,033	0,041
-520,175	-200,000	-0,007	-0,052
-519,160	-200,000	-0,005	0,137
-518,145	66,866	0,046	0,034
-517,131	217,356	0,068	0,080
-516,116	60,633	0,061	0,044
-515,102	-131,528	0,148	-0,014
-514,087	-122,346	-0,135	0,016
-513,072	-200,000	-0,025	-0,176
-512,058	292,991	0,073	0,097
-511,043	-34,870	0,028	-0,011
-510,029	45,547	-0,097	0,066
-509,014	284,710	0,074	0,098
-507,999	-200,000	0,040	0,131
-506,985	-56,439	0,136	-0,044
-505,970	-183,823	-0,154	-0,002
-504,956	185,303	-0,037	-0,040
-503,941	-53,812	-0,069	0,023
-502,926	800,000	0,032	-0,072
-501,912	376,698	0,063	0,094
-500,897	-200,000	-0,004	0,033
-499,883	123,038	-0,007	-0,006
-498,868	-29,388	-0,201	-0,084
-497,853	-155,277	-0,027	0,001
-496,839	86,601	0,070	-0,056
-495,824	-74,350	0,041	-0,011
-494,810	800,000	0,081	-0,222
-493,795	500,691	0,147	0,248
-492,781	226,641	-0,083	0,099
-491,766	106,833	-0,045	0,039
-490,751	-50,578	-0,162	-0,056
-489,737	20,014	0,128	0,075
-488,722	43,554	0,093	0,062
-487,708	25,962	0,214	0,130
-486,693	42,787	-0,055	-0,036
-485,678	59,326	0,109	0,078
-484,664	58,578	-0,065	0,046
-483,649	-200,000	-0,006	-0,031
-482,635	-200,000	0,003	-0,044
-481,620	-79,368	0,079	-0,019
-480,605	29,949	0,032	0,020
-479,591	-35,119	0,018	0,007
-478,576	345,684	-0,059	-0,084
-477,562	-108,485	0,244	0,038
-476,547	-144,583	0,047	0,003
-475,532	-139,099	0,183	0,014
-474,518	800,000	0,017	-0,043
-473,503	-200,000	-0,001	0,065
-472,489	-23,225	-0,072	-0,031
-471,474	363,093	0,055	-0,081
-470,459	-17,901	0,018	0,008
-469,445	-200,000	-0,051	-0,196
-468,430	-200,000	-0,015	0,061
-467,416	-200,000	0,006	0,094
-466,401	420,012	-0,026	0,041
-465,386	-200,000	0,005	0,068
-464,372	36,391	0,116	0,074
-463,357	-12,658	-0,092	0,044
-462,343	50,897	0,042	0,029
-461,328	471,844	-0,030	-0,050
-460,313	800,000	0,009	-0,022
-459,299	-127,756	0,146	0,015
-458,284	192,010	0,100	0,110
-457,270	29,122	-0,120	0,074
-456,255	20,842	0,043	-0,025
-455,241	-1,276	-0,119	-0,061
-454,226	-200,000	-0,003	-0,080
-453,211	-200,000	-0,025	-0,082
-452,197	194,042	0,054	0,060
-451,182	-46,007	0,066	0,024
-450,168	142,331	0,057	0,055
-449,153	-200,000	0,040	0,151
-448,138	-138,592	-0,104	0,008
-447,124	11,996	-0,105	0,059
-446,109	302,887	-0,090	-0,121
-445,095	-68,619	0,073	-0,020
-444,080	-83,487	0,031	0,007
-443,065	800,000	0,052	0,128
-442,051	269,223	0,073	0,093
-441,036	199,314	0,085	0,095
-440,022	601,931	-0,042	0,076
-439,007	-200,000	-0,011	0,144
-437,992	40,688	0,068	-0,045
-436,978	-1,188	0,025	-0,013
-435,963	642,253	0,035	-0,066
-434,949	55,253	-0,066	-0,047
-433,934	-26,403	-0,010	-0,004
-432,919	-200,000	0,011	-0,224
-431,905	-11,481	-0,094	-0,045
-430,890	-200,000	0,000	-0,092
-429,876	-200,000	0,002	0,082
-428,861	-85,389	-0,043	-0,010
-427,846	800,000	0,032	-0,080
-426,832	-99,392	0,036	-0,007
-425,817	-152,111	-0,179	-0,009
-424,803	-105,419	-0,119	-0,019
-423,788	249,316	0,061	0,075
-422,773	183,588	-0,073	-0,079
-421,759	-200,000	-0,001	-0,135
-420,744	190,032	-0,099	-0,108
-419,730	64,362	-0,095	0,070
-418,715	-158,789	0,007	0,000
-417,701	-200,000	0,010	-0,117
-416,686	-95,510	0,086	0,017
-415,671	90,789	0,052	-0,042
-414,657	-200,000	0,010	0,061
-413,642	440,675	0,066	0,105
-412,628	-130,354	0,084	-0,008
-411,613	-200,000	-0,004	-0,067
-410,598	800,000	-0,044	-0,133
-409,584	778,126	-0,051	-0,102
-408,569	736,900	0,013	0,025
-407,555	-200,000	0,022	-0,162
-406,540	-200,000	0,030	0,135
-405,525	-125,203	-0,048	0,005
-404,511	800,000	-0,056	-0,175
-403,496	-177,160	-0,044	-0,001
-402,482	-200,000	0,010	0,117
-401,467	364,870	-0,061	0,089
-400,452	-200,000	0,000	-0,005
-399,438	800,000	0,015	-0,039
-398,423	295,330	-0,080	-0,107
-397,409	-68,251	-0,096	0,027
-396,394	-200,000	0,013	-0,143
-395,379	800,000	0,029	0,070
-394,365	82,168	0,062	-0,049
-393,350	800,000	0,064	0,159
-392,336	-98,158	0,069	-0,013
-391,321	-200,000	0,005	-0,031
-390,306	465,708	-0,091	-0,149
-389,292	-196,796	-0,043	0,000
-388,277	224,511	-0,015	-0,018
-387,263	-121,878	0,171	0,020
-386,248	180,335	-0,064	0,069
-385,233	-200,000	0,016	0,074
-384,219	-129,788	0,082	-0,008
-383,204	-200,000	0,007	0,092
-382,190	-200,000	0,002	0,106
-381,175	-120,889	-0,123	0,015
-380,160	-200,000	0,014	-0,098
-379,146	-200,000	-0,012	0,049
-378,131	-71,328	-0,114	-0,031
-377,117	-200,000	-0,018	-0,079
-376,102	-200,000	0,013	0,119
-375,088	-200,000	-0,022	0,111
-374,073	56,618	-0,097	-0,069
-373,058	253,416	0,077	0,096
-372,044	168,947	-0,056	0,058
-371,029	203,605	0,001	-0,001
-370,015	-132,781	0,145	0,013
-369,000	60,797	-0,045	0,032
-367,985	800,000	-0,012	-0,033
-366,971	40,376	-0,045	0,029
-365,956	-200,000	0,010	0,073
-364,942	110,654	0,076	0,066
-363,927	-2,313	0,057	-0,029
-362,912	-34,092	-0,035	-0,014
-361,898	-161,718	-0,175	0,006
-360,883	-47,767	0,098	-0,034
-359,869	-45,563	-0,014	0,005
-358,854	85,397	-0,085	0,067
-357,839	800,000	-0,056	0,153
-356,825	318,260	-0,050	0,069
-355,810	356,878	-0,095	-0,138
-354,796	-200,000	0,027	-0,102
-353,781	800,000	-0,045	-0,092
-352,766	-7,260	0,096	0,047
-351,752	16,713	-0,063	0,036
-350,737	512,403	0,072	0,123
-349,723	-78,919	0,063	0,016
-348,708	800,000	0,017	0,034
-347,693	800,000	-0,047	-0,135
-346,679	-99,260	-0,192	-0,035
-345,664	-200,000	0,001	0,038
-344,650	674,834	-0,053	0,101
-343,635	-90,625	-0,080	0,017
-342,620	633,226	-0,009	-0,017
-341,606	-88,473	-0,090	0,019
-340,591	-200,000	0,019	-0,094
-339,577	61,546	-0,052	-0,037
-338,562	-200,000	-0,012	-0,046
-337,548	-200,000	-0,007	0,122
-336,533	-37,547	0,097	-0,037
-335,518	-200,000	0,017	0,107
-334,504	-200,000	0,041	0,176
-333,489	-200,000	-0,002	0,013
-332,475	159,039	-0,049	-0,050
-331,460	42,461	-0,066	0,043
-330,445	-200,000	-0,008	-0,092
-329,431	-97,586	0,114	-0,021
-328,416	57,704	0,130	-0,092
-327,402	-92,382	0,099	-0,020
-326,387	800,000	-0,038	-0,105
-325,372	515,710	-0,102	-0,173
-324,358	54,599	0,048	-0,033
-323,343	215,693	-0,093	0,108
-322,329	-200,000	0,016	0,129
-321,314	-200,000	0,007	0,032
-320,299	91,301	-0,033	0,027
-319,285	50,978	-0,104	0,071
-318,270	-200,000	0,005	-0,113
-317,256	-65,784	-0,192	0,055
-316,241	15,799	-0,099	0,057
-315,226	676,867	0,044	-0,082
-314,212	-83,179	0,127	-0,029
-313,197	145,914	-0,077	0,075
-312,183	800,000	-0,008	-0,025
-311,168	437,608	0,024	-0,039
-310,153	-200,000	0,013	-0,091
-309,139	-146,016	0,075	0,005
-308,124	-200,000	-0,007	-0,048
-307,110	-200,000	0,003	-0,145
-306,095	-200,000	0,047	0,182
-305,080	159,704	-0,080	0,081
-304,066	800,000	0,034	0,089
-303,051	-200,000	-0,013	0,130
-302,037	-200,000	0,043	0,155
-301,022	324,563	0,064	0,089
-300,008	185,708	-0,022	0,024
-298,993	273,770	0,046	-0,059
-297,978	-200,000	0,007	-0,027
-296,964	261,239	-0,032	0,041
-295,949	800,000	0,027	-0,064
-294,935	27,186	0,035	-0,022
-293,920	179,006	0,050	0,053
-292,905	104,956	0,142	0,121
-291,891	800,000	-0,030	0,065
-290,876	157,299	-0,023	-0,023
-289,862	294,395	-0,129	-0,171
-288,847	-125,313	0,090	0,010
-287,832	800,000	-0,007	0,021
-286,818	237,226	0,010	0,012
-285,803	470,622	0,103	0,168
-284,789	-200,000	-0,005	-0,063
-283,774	12,504	0,047	-0,026
-282,759	54,180	0,090	-0,062
-281,745	5,389	-0,098	0,052
-280,730	-3,608	0,116	0,058
-279,716	54,234	0,115	0,080
-278,701	391,421	0,072	-0,109
-277,686	251,444	0,057	0,071
-276,672	-200,000	0,030	0,131
-275,657	-107,495	0,040	0,006
-274,643	127,020	0,023	0,021
-273,628	53,542	-0,160	-0,111
-272,613	800,000	0,032	-0,076
-271,599	-200,000	0,022	-0,081
-270,584	-200,000	0,008	0,031
-269,570	-200,000	0,008	-0,096
-268,555	-200,000	0,004	0,057
-267,540	23,748	-0,116	-0,069
-266,526	365,011	0,104	-0,153
-265,511	-81,288	0,122	0,029
-264,497	-49,431	-0,104	0,036
-263,482	800,000	0,028	0,079
-262,467	800,000	0,043	0,120
-261,453	800,000	0,031	0,088
-260,438	196,026	0,067	0,074
-259,424	-19,323	-0,093	0,041
-258,409	-39,404	-0,016	-0,006
-257,395	-131,046	-0,044	0,004
-256,380	562,305	0,030	-0,053
-255,365	800,000	0,039	-0,080
-254,351	281,424	-0,027	-0,036
-253,336	-41,985	-0,060	0,022
-252,322	800,000	0,023	-0,059
-251,307	-200,000	0,019	-0,103
-250,292	800,000	0,017	0,048
-249,278	293,458	0,091	0,120
-248,263	800,000	0,007	0,022
-247,249	124,856	0,064	-0,058
-246,234	-200,000	0,013	-0,049
-245,219	800,000	0,006	0,017
-244,205	112,413	0,056	-0,049
-243,190	-5,736	-0,053	0,026
-242,176	800,000	-0,015	0,047
-241,161	12,507	-0,155	0,086
-240,146	-38,795	0,069	0,026
-239,132	800,000	0,001	0,002
-238,117	-79,663	-0,062	-0,015
-237,103	800,000	0,079	-0,168
-236,088	-200,000	0,006	0,089
-235,073	86,362	0,114	0,091
-234,059	540,897	-0,016	-0,027
-233,044	29,858	-0,136	-0,084
-232,030	800,000	0,030	-0,088
-231,015	-167,505	0,104	-0,003
-230,000	-142,958	-0,080	0,005
-228,986	800,000	0,028	-0,070
-227,971	-56,611	-0,048	0,015
-226,957	525,084	0,049	0,083
-225,942	216,824	-0,020	-0,023
-224,927	-137,675	-0,058	-0,005
-223,913	676,137	0,042	0,079
-222,898	-100,879	-0,201	-0,035
-221,884	62,700	0,013	0,009
-220,869	-135,828	-0,032	-0,003
-219,855	-90,282	0,110	-0,023
-218,840	203,275	0,031	-0,035
-217,825	315,028	0,043	-0,059
-216,811	41,157	-0,100	-0,065
-215,796	-200,000	-0,021	-0,108
-214,782	58,280	-0,067	-0,048
-213,767	-200,000	0,004	0,067
-212,752	-200,000	0,029	0,121
-211,738	-61,001	-0,095	0,029
-210,723	800,000	-0,025	0,052
-209,709	-71,382	0,070	0,019
-208,694	517,337	0,037	0,063
-207,679	-64,525	-0,034	0,010
-206,665	-200,000	-0,000	-0,042
-205,650	373,724	0,102	0,151
-204,636	-71,759	-0,070	-0,019
-203,621	19,807	0,113	-0,066
-202,606	0,614	-0,069	0,036
-201,592	633,870	-0,043	-0,079
-200,577	30,911	-0,083	0,051
-199,563	32,253	0,100	-0,062
-198,548	-8,283	0,097	0,047
-197,533	82,845	0,118	0,092
-196,519	-200,000	-0,006	0,051
-195,504	-200,000	0,014	-0,066
-194,490	-11,696	-0,050	-0,023
-193,475	32,273	0,063	0,039
-192,460	604,268	-0,024	0,044
-191,446	-200,000	0,016	-0,062
-190,431	-200,000	-0,004	0,092
-189,417	308,979	0,023	0,031
-188,402	88,918	0,087	0,070
-187,387	-110,503	-0,133	-0,020
-186,373	-200,000	0,018	-0,104
-185,358	200,929	-0,025	0,028
-184,344	185,646	0,079	-0,085
-183,329	-200,000	0,018	0,116
-182,315	-121,207	0,075	-0,009
-181,300	-200,000	-0,016	-0,084
-180,285	-200,000	-0,002	0,069
-179,271	-114,239	0,126	-0,017
-178,256	-200,000	0,001	0,006
-177,242	368,914	0,015	-0,022
-176,227	-200,000	-0,005	0,041
-175,212	-200,000	-0,008	-0,034
-174,198	-116,311	-0,089	-0,012
-173,183	-114,989	-0,156	0,021
-172,169	548,612	0,070	-0,121
-171,154	800,000	-0,038	-0,104
-170,139	-200,000	0,006	0,025
-169,125	-23,911	0,103	0,044
-168,110	800,000	-0,050	0,116
-167,096	-53,159	0,025	0,008
-166,081	232,549	0,070	-0,083
-165,066	-200,000	-0,006	-0,064
-164,052	338,415	-0,041	-0,058
-163,037	39,685	0,117	0,075
-162,023	-1,618	-0,041	0,021
-161,008	723,823	-0,061	0,117
-159,993	102,930	0,143	0,120
-158,979	31,098	-0,133	-0,082
-157,964	204,277	-0,022	-0,025
-156,950	34,968	0,041	-0,026
-155,935	113,996	0,055	-0,048
-154,920	800,000	-0,028	-0,075
-153,906	421,726	-0,060	-0,093
-152,891	-200,000	0,013	-0,060
-151,877	-200,000	-0,021	0,077
-150,862	-50,366	0,051	0,017
-149,847	-60,347	0,119	0,036
-148,833	15,994	0,050	0,028
-147,818	404,468	0,042	0,064
-146,804	-73,156	-0,124	-0,033
-145,789	340,514	0,048	0,068
-144,775	-200,000	0,024	0,079
-143,760	-56,510	-0,125	-0,040
-142,745	189,107	0,033	0,036
-141,731	-73,195	0,045	-0,012
-140,716	-148,928	0,049	0,003
-139,702	-44,983	0,135	0,048
-138,687	-121,212	-0,169	-0,020
-137,672	800,000	0,057	-0,153
-136,658	-200,000	-0,011	0,162
-135,643	-200,000	0,014	-0,061
-134,629	-200,000	0,044	0,144
-133,614	525,969	0,048	0,081
-132,599	-138,349	0,182	-0,014
-131,585	-136,037	0,133	0,011
-130,570	800,000	0,021	-0,062
-129,556	-106,237	-0,187	0,030
-128,541	5,060	-0,107	-0,056
-127,526	28,018	-0,055	0,033
-126,512	80,799	0,068	0,053
-125,497	-200,000	0,002	0,013
-124,483	-200,000	0,041	-0,133
-123,468	-200,000	-0,000	-0,093
-122,453	-200,000	-0,017	-0,132
-121,439	800,000	0,002	-0,006
-120,424	152,223	-0,100	-0,098
-119,410	800,000	0,071	-0,173
-118,395	-65,388	0,191	-0,055
-117,380	800,000	0,028	0,087
-116,366	30,036	-0,132	0,081
-115,351	120,263	0,038	-0,034
-114,337	-200,000	0,023	-0,085
-113,322	-54,351	0,101	-0,033
-112,307	-163,911	-0,131	0,004
-111,293	48,863	0,127	0,085
-110,278	-41,010	-0,066	-0,025
-109,264	480,506	0,045	-0,073
-108,249	-200,000	-0,010	0,062
-107,234	355,299	-0,053	-0,077
-106,220	289,219	0,036	-0,047
-105,205	800,000	-0,027	0,075
-104,191	160,746	0,011	0,011
-103,176	-182,868	-0,018	-0,000
-102,162	-136,583	0,139	0,011
-101,147	328,534	-0,086	-0,119
-100,132	69,618	-0,102	-0,076
-99,118	-59,550	-0,137	0,042
-98,103	5,549	-0,064	-0,034
-97,089	-121,524	0,077	0,009
-96,074	717,545	0,049	0,094
-95,059	99,763	-0,082	-0,068
-94,045	145,359	-0,131	-0,126
-93,030	59,072	0,066	-0,047
-92,016	128,696	-0,049	0,045
-91,001	-200,000	0,013	-0,061
-89,986	-9,630	0,059	-0,028
-88,972	75,698	0,047	0,036
-87,957	-200,000	-0,019	-0,151
-86,943	-12,663	-0,020	0,009
-85,928	136,938	-0,095	0,089
-84,913	141,097	-0,098	-0,093
-83,899	-11,495	-0,156	0,074
-82,884	-22,084	0,227	-0,099
-81,870	-102,970	0,051	-0,009
-80,855	203,067	0,038	0,042
-79,840	146,395	0,054	0,052
-78,826	146,272	-0,125	0,121
-77,811	162,352	-0,036	-0,036
-76,797	-200,000	-0,014	0,108
-75,782	-200,000	-0,007	-0,028
-74,767	-49,262	-0,119	0,041
-73,753	-45,950	0,107	-0,038
-72,738	-22,532	-0,061	0,026
-71,724	121,095	0,029	-0,026
-70,709	-15,999	-0,133	-0,060
-69,694	800,000	0,053	-0,124
-68,680	5,036	0,043	-0,023
-67,665	-200,000	0,016	0,086
-66,651	647,378	0,035	0,064
-65,636	800,000	0,037	-0,108
-64,622	-200,000	0,028	-0,178
-63,607	401,632	-0,059	-0,090
-62,592	-80,598	0,170	-0,040
-61,578	-45,181	-0,102	0,036
-60,563	-110,805	0,089	-0,013
-59,549	-82,619	0,056	0,013
-58,534	28,571	-2,003	-1,213
-57,519	800,000	-0,282	-0,815
-56,505	-200,000	-1,289	-5,013
-55,490	80,669	0,821	0,634
-54,476	800,000	5,286	11,968
-53,461	-200,000	18,281	303,408
-52,446	800,000	736,341	2288,493
-51,432	550,701	1652,773	2855,975
-50,417	110,236	1639,017	1411,821
-49,403	74,573	1289,750	972,048
-48,388	30,802	1029,713	631,099
-47,373	20,012	992,064	572,339
-46,359	17,863	979,605	558,066
-45,344	14,622	975,780	545,229
-44,330	14,944	974,114	545,332
-43,315	14,325	972,375	542,310
-42,300	14,288	971,142	541,481
-41,286	14,316	970,306	541,084
-40,271	14,272	969,382	540,405
-39,257	14,290	968,482	539,938
-38,242	14,255	967,738	539,390
-37,227	14,322	966,703	539,008
-36,213	14,363	965,678	538,549
-35,198	14,313	964,813	537,883
-34,184	14,341	964,155	537,586
-33,169	14,249	963,189	536,726
-32,154	14,330	962,222	536,430
-31,140	14,321	961,461	535,956
-30,125	14,336	960,659	535,535
-29,111	14,227	959,858	534,717
-28,096	14,265	959,206	534,454
-27,082	14,309	958,507	534,186
-26,067	14,259	957,928	533,679
-25,052	14,325	957,034	533,373
-24,038	14,294	956,396	532,896
-23,023	14,282	955,687	532,440
-22,009	14,347	954,898	532,190
-20,994	14,267	954,377	531,622
-19,979	14,268	953,772	531,265
-18,965	14,268	953,247	530,954
-17,950	14,352	952,494	530,781
-16,936	14,227	951,972	530,070
-15,921	14,214	951,307	529,636
-14,906	14,222	950,404	529,138
-13,892	14,212	949,839	528,771
-12,877	14,201	949,201	528,358
-11,863	14,170	948,427	527,810
-10,848	14,166	948,131	527,610
-9,833	14,264	947,517	527,559
-8,819	14,252	946,852	527,131
-7,804	14,248	946,180	526,722
-6,790	14,210	945,611	526,263
-5,775	14,217	945,392	526,143
-4,760	14,280	944,342	525,739
-3,746	14,220	943,878	525,270
-2,731	14,086	943,280	524,491
-1,717	14,054	942,516	523,943
-0,702	14,052	941,960	523,605
0,313	13,828	941,347	523,348
1,327	17,043	938,920	532,106
2,342	25,821	794,684	473,654
3,356	22,195	460,280	268,748
4,371	-4,617	317,316	156,490
5,386	-8,473	299,086	143,545
6,400	-10,508	292,867	138,510
7,415	-10,821	290,502	137,067
8,429	-11,091	288,919	136,041
9,444	-11,124	288,047	135,586
10,459	-11,008	287,368	135,368
11,473	-10,968	286,755	135,107
12,488	-10,861	286,346	135,007
13,502	-10,975	285,785	134,619
14,517	-11,029	285,364	134,355
15,531	-10,801	284,818	134,309
16,546	-10,869	284,644	134,149
17,561	-10,801	284,052	133,924
18,575	-10,799	283,701	133,749
19,590	-10,946	283,428	133,466
20,604	-10,847	283,112	133,400
21,619	-10,707	282,733	133,345
22,634	-10,852	282,456	133,063
23,648	-11,134	282,207	132,661
24,663	-10,768	281,799	132,810
25,677	-10,813	281,574	132,649
26,692	-10,864	281,331	132,474
27,707	-10,787	280,968	132,365
28,721	-10,934	280,941	132,199
29,736	-10,743	280,410	132,121
30,750	-10,691	280,110	132,018
31,765	-10,970	280,010	131,692
32,780	-10,912	279,811	131,642
33,794	-10,751	279,497	131,636
34,809	-10,786	279,207	131,454
35,823	-10,843	278,915	131,251
36,838	-10,973	278,667	130,999
37,853	-10,887	278,335	130,913
38,867	-11,018	278,290	130,756
39,882	-10,881	277,999	130,737
40,896	-10,830	277,782	130,672
41,911	-11,071	277,566	130,330
42,926	-10,772	277,201	130,430
43,940	-10,832	276,951	130,244
44,955	-10,992	276,698	129,963
45,969	-10,913	276,453	129,910
46,984	-11,268	276,321	129,502
47,999	-11,353	275,978	129,250
49,013	-11,479	275,774	129,024
50,028	-11,350	275,350	128,935
51,042	-11,540	275,152	128,653
52,057	-11,843	274,960	128,267
53,071	-11,581	274,824	128,439
54,086	-11,521	274,612	128,384
55,101	-11,393	274,289	128,341
56,115	-11,169	274,325	128,556
57,130	-10,977	274,067	128,603
58,144	-10,860	274,010	128,674
59,159	-10,668	273,619	128,658
60,174	-10,826	273,476	128,432
61,188	-10,871	273,136	128,219
62,203	-10,768	272,853	128,170
63,217	-10,770	272,752	128,110
64,232	-10,841	272,588	127,956
65,247	-10,826	272,293	127,819
66,261	-10,955	272,078	127,587
67,276	-10,951	271,781	127,440
68,290	-11,089	271,425	127,134
69,305	-11,219	271,282	126,937
70,320	-11,326	271,175	126,776
71,334	-11,065	271,001	126,924
72,349	-10,956	270,730	126,887
73,363	-10,818	270,424	126,859
74,378	-11,042	270,371	126,617
75,393	-10,999	270,183	126,557
76,407	-10,651	269,743	126,659
77,422	-10,741	269,697	126,543
78,436	-10,903	269,527	126,304
79,451	-10,870	269,252	126,193
80,466	-10,790	268,911	126,096
81,480	-11,036	268,812	125,813
82,495	-11,081	268,576	125,651
83,509	-10,915	268,394	125,706
84,524	-10,860	268,065	125,590
85,539	-11,043	267,722	125,252
86,553	-11,065	267,616	125,171
87,568	-11,068	267,381	125,048
88,582	-11,074	267,190	124,942
89,597	-10,993	266,988	124,910
90,611	-10,714	266,810	125,067
91,626	-10,751	266,773	125,006
92,641	-10,787	266,481	124,825
93,655	-10,903	266,208	124,581
94,670	-10,883	266,122	124,548
95,684	-10,776	265,671	124,422
96,699	-10,864	265,680	124,336
97,714	-10,894	265,454	124,193
98,728	-11,060	265,248	123,936
99,743	-11,032	264,983	123,826
100,757	-11,111	264,824	123,669
101,772	-11,023	264,525	123,598
102,787	-11,021	264,338	123,501
103,801	-11,006	264,283	123,478
104,816	-10,765	264,059	123,578
105,830	-10,798	263,785	123,409
106,845	-10,796	263,688	123,355
107,860	-10,685	263,484	123,348
108,874	-11,005	263,206	122,920
109,889	-10,695	263,067	123,122
110,903	-10,711	262,820	122,981
111,918	-10,988	262,597	122,618
112,933	-10,999	262,404	122,508
113,947	-10,927	262,300	122,512
114,962	-10,900	262,171	122,465
115,976	-10,758	261,999	122,500
116,991	-11,028	261,704	122,112
118,006	-10,922	261,598	122,145
119,020	-10,801	261,484	122,188
120,035	-10,776	261,277	122,103
121,049	-10,892	261,064	121,890
122,064	-10,934	260,949	121,788
123,079	-10,789	260,509	121,700
124,093	-10,894	260,332	121,514
125,108	-11,029	260,104	121,278
126,122	-11,124	260,048	121,157
127,137	-11,326	259,718	120,814
128,151	-11,229	259,569	120,820
129,166	-11,093	259,401	120,850
130,181	-11,204	259,214	120,655
131,195	-11,101	258,866	120,573
132,210	-10,960	258,878	120,691
133,224	-10,883	258,712	120,670
134,239	-10,682	258,431	120,704
135,254	-10,949	258,428	120,459
136,268	-10,979	258,031	120,236
137,283	-11,164	257,826	119,969
138,297	-11,347	257,611	119,699
139,312	-11,332	257,370	119,589
140,327	-10,996	257,226	119,804
141,341	-10,671	257,129	120,031
142,356	-10,804	257,002	119,845
143,370	-10,856	256,739	119,667
144,385	-10,578	256,606	119,835
145,400	-10,821	256,458	119,544
146,414	-10,772	256,222	119,466
147,429	-10,615	255,975	119,477
148,443	-10,611	255,880	119,425
149,458	-10,735	255,656	119,202
150,473	-10,606	255,488	119,225
151,487	-10,722	255,263	119,010
152,502	-10,709	255,051	118,911
153,516	-10,844	254,904	118,716
154,531	-10,780	254,854	118,737
155,546	-10,873	254,681	118,566
156,560	-10,711	254,371	118,550
157,575	-10,713	254,120	118,421
158,589	-10,773	253,993	118,299
159,604	-10,697	253,800	118,265
160,619	-10,759	253,626	118,119
161,633	-10,717	253,391	118,035
162,648	-10,645	253,386	118,085
163,662	-10,695	253,293	117,988
164,677	-10,760	252,998	117,784
165,692	-10,712	252,851	117,746
166,706	-10,734	252,674	117,634
167,721	-10,653	252,465	117,596
168,735	-10,697	252,312	117,476
169,750	-10,521	252,083	117,509
170,764	-10,720	251,969	117,276
171,779	-10,744	251,948	117,236
172,794	-10,790	251,673	117,058
173,808	-10,797	251,502	116,962
174,823	-11,055	251,144	116,566
175,837	-11,348	251,107	116,291
176,852	-10,844	251,016	116,665
177,867	-10,659	250,877	116,747
178,881	-10,602	250,635	116,672
179,896	-10,588	250,223	116,481
180,910	-10,746	250,342	116,393
181,925	-10,786	250,335	116,346
182,940	-10,631	249,866	116,248
183,954	-10,690	249,619	116,073
184,969	-10,636	249,711	116,151
185,983	-10,407	249,443	116,208
186,998	-10,640	249,312	115,941
188,013	-10,563	249,105	115,899
189,027	-10,868	249,013	115,590
190,042	-10,683	248,826	115,648
191,056	-10,619	248,534	115,556
192,071	-10,642	248,457	115,490
193,086	-10,608	248,178	115,379
194,100	-10,638	248,000	115,261
195,115	-10,693	247,824	115,123
196,129	-10,781	247,840	115,047
197,144	-10,831	247,377	114,780
198,159	-10,597	247,222	114,892
199,173	-10,661	247,069	114,757
200,188	-10,797	246,930	114,570
201,202	-10,912	246,650	114,334
202,217	-11,275	246,328	113,874
203,232	-11,157	246,178	113,892
204,246	-10,605	246,192	114,346
205,261	-10,395	245,963	114,403
206,275	-11,414	245,685	113,421
207,290	-7,127	247,408	117,771
208,304	0,837	249,992	125,661
209,319	4,187	250,783	128,853
210,334	4,422	250,732	129,011
211,348	4,670	250,695	129,187
212,363	5,020	250,576	129,407
213,377	4,970	250,475	129,302
214,392	4,753	250,211	128,972
215,407	4,860	250,008	128,945
216,421	4,837	249,893	128,856
217,436	5,033	249,848	128,985
218,450	5,247	249,571	129,008
219,465	4,831	249,420	128,573
220,480	4,939	249,115	128,493
221,494	4,676	249,010	128,210
222,509	4,516	249,054	128,089
223,523	4,623	248,699	127,983
224,538	4,182	248,450	127,479
225,553	4,339	248,339	127,541
226,567	4,492	248,121	127,544
227,582	4,492	248,160	127,552
228,596	4,543	247,883	127,440
229,611	4,192	247,661	127,026
230,626	4,242	247,542	126,994
231,640	4,218	247,202	126,789
232,655	4,350	247,204	126,887
233,669	4,193	247,009	126,646
234,684	4,311	246,688	126,568
235,699	4,443	246,723	126,683
236,713	4,732	246,527	126,808
237,728	4,454	246,284	126,443
238,742	4,307	246,175	126,256
239,757	4,367	245,960	126,183
240,772	4,096	245,865	125,902
241,786	4,415	245,815	126,126
242,801	4,164	245,553	125,775
243,815	4,318	245,438	125,831
244,830	4,350	245,332	125,792
245,844	4,398	245,156	125,729
246,859	4,366	244,796	125,507
247,874	4,131	244,789	125,301
248,888	4,233	244,751	125,354
249,903	4,446	244,454	125,363
250,917	4,455	244,355	125,308
251,932	4,592	244,255	125,357
252,947	4,506	244,118	125,206
253,961	4,255	243,839	124,849
254,976	4,464	243,738	124,955
255,990	4,466	243,494	124,820
257,005	4,231	243,398	124,570
258,020	4,171	243,081	124,348
259,034	4,445	242,852	124,441
260,049	4,652	242,868	124,605
261,063	4,281	242,605	124,160
262,078	4,250	242,410	124,025
263,093	4,570	242,232	124,180
264,107	4,470	242,317	124,131
265,122	4,240	242,017	123,782
266,136	4,348	242,007	123,853
267,151	4,718	241,900	124,084
268,166	4,372	241,554	123,618
269,180	4,144	241,346	123,318
270,195	4,786	241,547	123,924
271,209	4,868	241,351	123,877
272,224	4,426	240,988	123,327
273,239	4,257	240,571	122,969
274,253	4,183	240,485	122,854
275,268	4,234	240,691	122,989
276,282	4,520	240,527	123,122
277,297	4,137	240,156	122,616
278,312	4,085	240,203	122,588
279,326	4,519	239,879	122,757
280,341	4,365	239,817	122,592
281,355	4,272	239,648	122,421
282,370	4,646	239,481	122,621
283,384	4,557	239,245	122,419
284,399	4,212	239,082	122,051
285,414	4,095	238,955	121,884
286,428	4,093	238,792	121,788
287,443	4,202	238,745	121,839
288,457	4,369	238,645	121,909
289,472	4,524	238,423	121,907
290,487	4,491	238,322	121,819
291,501	4,127	238,129	121,422
292,516	4,014	237,924	121,217
293,530	3,892	237,679	120,986
294,545	4,387	237,721	121,386
295,560	4,402	237,525	121,287
296,574	4,126	237,245	120,916
297,589	4,180	237,122	120,886
298,603	4,515	237,220	121,188
299,618	4,404	236,982	120,968
300,633	4,421	236,869	120,913
301,647	4,673	236,701	121,014
302,662	4,641	236,583	120,918
303,676	4,874	236,313	120,951
304,691	4,705	236,317	120,810
305,706	4,750	236,176	120,762
306,720	4,894	235,940	120,744
307,735	4,512	235,898	120,413
308,749	4,290	235,656	120,106
309,764	4,368	235,298	119,974
310,779	3,995	235,036	119,540
311,793	3,750	234,889	119,264
312,808	3,857	234,635	119,207
313,822	3,564	234,625	118,964
314,837	3,941	234,499	119,182
315,852	4,060	234,531	119,280
316,866	4,352	234,518	119,489
317,881	4,503	234,336	119,502
318,895	4,364	233,980	119,202
319,910	4,353	233,886	119,136
320,925	4,282	233,647	118,949
321,939	4,280	233,653	118,939
322,954	4,739	233,538	119,224
323,968	4,479	233,339	118,912
324,983	4,390	233,262	118,794
325,997	4,844	233,152	119,076
327,012	4,559	232,863	118,699
328,027	4,333	232,730	118,447
329,041	4,552	232,692	118,585
330,056	5,053	232,723	118,975
331,070	5,121	232,570	118,938
332,085	4,956	232,193	118,609
333,100	4,649	232,039	118,285
334,114	4,415	231,964	118,057
335,129	4,890	231,799	118,325
336,143	4,733	231,888	118,240
337,158	4,785	231,436	118,038
338,173	4,567	231,288	117,787
339,187	4,340	231,168	117,541
340,202	4,788	230,873	117,722
341,216	4,536	230,730	117,447
342,231	4,638	230,591	117,443
343,246	4,483	230,530	117,284
344,260	4,607	230,571	117,389
345,275	4,629	230,400	117,308
346,289	4,837	230,184	117,345
347,304	4,720	230,113	117,210
348,319	4,971	229,775	117,218
349,333	4,636	229,661	116,895
350,348	4,184	229,470	116,446
351,362	4,281	229,366	116,456
352,377	4,272	229,127	116,318
353,392	4,003	229,115	116,098
354,406	4,476	229,088	116,430
355,421	196,314	1320,377	1399,016
356,435	157,494	1453,311	1398,995
