DTS Sentinel unit serial number:	SN410029Multiplexer serial number:	ORYXHardware model number:	OX2-SRSoftware version number:	ORYX F/W v4,00 Oryx Data Collector v3.7.2.0data status	okinstallation	B5 Nyhavnadifferential loss correction	single-endedforward channel	channel 2reverse channel	N/Adate	2023/12/12time	14:27:13forward acquisition time	300,00reverse acquisition time	0,00gamma	499,1914k internal	0,3156k external	0,3156temperature offset calibration	1,0000default loss term (dB/km)	0,3820temperature slope calibration	1,0000multiplexer offset coefficient	1,0000multiplexer slope coefficient	1,0000fibre end	0,00T internal ref (°C)	15,85T ext. ref 1 (°C)	-0,32T ext. ref 2 (°C)	-0,59length (m)	temperature (°C)	Stokes	anti-Stokes-744,400	145,094	0,045	0,045
-743,385	-88,101	-0,374	0,082
-742,371	-127,400	0,134	-0,014
-741,356	-102,628	-0,189	-0,033
-740,342	-71,077	0,153	-0,042
-739,327	84,982	-0,256	0,207
-738,312	-20,680	0,156	0,070
-737,298	-45,427	-0,310	0,113
-736,283	-72,306	0,127	-0,035
-735,269	-91,541	-0,355	0,074
-734,254	800,000	0,043	-0,124
-733,239	-99,024	-0,430	-0,080
-732,225	106,318	0,100	-0,087
-731,210	-200,000	0,025	0,105
-730,196	800,000	-0,025	-0,065
-729,181	-97,482	-0,215	0,041
-728,167	-200,000	0,020	0,120
-727,152	163,956	0,034	-0,035
-726,137	613,848	-0,057	-0,105
-725,123	-89,483	-0,115	-0,025
-724,108	-66,215	-0,075	-0,022
-723,094	27,143	-0,050	0,031
-722,079	32,697	-0,089	0,057
-721,064	-136,524	0,174	0,015
-720,050	-200,000	-0,021	-0,155
-719,035	2,056	-0,111	-0,059
-718,021	22,314	-0,073	0,044
-717,006	-200,000	0,015	-0,082
-715,991	474,213	-0,086	-0,144
-714,977	-1,464	-0,067	-0,035
-713,962	38,430	-0,138	0,091
-712,948	58,178	0,074	-0,053
-711,933	4,877	0,082	-0,044
-710,918	85,101	-0,103	-0,083
-709,904	-47,061	-0,038	0,014
-708,889	178,786	-0,107	-0,115
-707,875	-44,859	-0,118	-0,043
-706,860	126,531	-0,093	-0,087
-705,845	-200,000	-0,029	0,096
-704,831	222,735	-0,007	0,008
-703,816	183,341	0,029	0,031
-702,802	260,372	-0,060	0,077
-701,787	-117,314	-0,133	0,018
-700,772	-200,000	0,003	-0,018
-699,758	800,000	-0,041	-0,084
-698,743	171,578	0,071	-0,075
-697,729	-83,996	-0,106	-0,025
-696,714	-200,000	-0,017	-0,057
-695,699	211,895	0,020	0,023
-694,685	-71,983	0,181	-0,049
-693,670	-28,021	-0,047	-0,020
-692,656	50,272	-0,106	-0,073
-691,641	-200,000	-0,020	0,149
-690,627	394,697	-0,043	-0,067
-689,612	328,113	0,030	-0,042
-688,597	250,565	0,016	-0,020
-687,583	-168,114	-0,137	-0,004
-686,568	-21,723	-0,055	-0,024
-685,554	-77,445	0,098	-0,025
-684,539	253,623	0,096	0,121
-683,524	372,552	-0,015	0,022
-682,510	50,097	-0,074	0,052
-681,495	569,499	-0,040	-0,072
-680,481	-200,000	0,019	-0,247
-679,466	6,740	0,101	-0,055
-678,451	-90,871	-0,084	-0,018
-677,437	800,000	0,010	-0,025
-676,422	627,580	0,022	0,041
-675,408	-200,000	0,004	0,016
-674,393	-200,000	0,024	-0,081
-673,378	351,604	0,037	-0,054
-672,364	-102,130	-0,258	-0,045
-671,349	-162,018	-0,165	-0,006
-670,335	-200,000	0,014	0,095
-669,320	-52,119	0,049	-0,016
-668,305	-190,843	0,036	0,000
-667,291	800,000	0,019	-0,047
-666,276	-18,688	-0,130	-0,059
-665,262	710,983	0,028	-0,055
-664,247	172,204	-0,079	-0,084
-663,232	800,000	-0,027	0,073
-662,218	-44,813	0,083	0,030
-661,203	111,771	-0,056	-0,050
-660,189	-200,000	0,004	-0,113
-659,174	-77,253	0,033	-0,008
-658,159	800,000	0,010	0,022
-657,145	266,587	-0,083	-0,107
-656,130	-200,000	-0,008	0,070
-655,116	800,000	-0,022	0,047
-654,101	399,543	0,093	0,144
-653,086	324,401	0,061	-0,086
-652,072	118,598	-0,055	-0,050
-651,057	61,479	-0,179	0,131
-650,043	-200,000	-0,009	-0,069
-649,028	-200,000	-0,013	-0,089
-648,014	348,201	-0,049	0,071
-646,999	-200,000	-0,005	-0,028
-645,984	800,000	-0,009	-0,023
-644,970	179,006	-0,143	-0,154
-643,955	213,112	-0,008	-0,009
-642,941	800,000	-0,042	-0,123
-641,926	-73,805	-0,072	-0,019
-640,911	800,000	0,042	0,086
-639,897	-200,000	0,001	0,126
-638,882	800,000	0,031	0,086
-637,868	-77,127	-0,095	-0,024
-636,853	-101,111	0,058	-0,010
-635,838	-200,000	0,008	-0,106
-634,824	-35,143	-0,099	-0,039
-633,809	-31,316	0,064	-0,027
-632,795	800,000	-0,026	0,072
-631,780	274,247	0,037	-0,048
-630,765	470,202	-0,041	-0,068
-629,751	180,964	-0,146	-0,157
-628,736	-200,000	-0,008	-0,078
-627,722	-200,000	0,047	-0,185
-626,707	-36,879	-0,031	0,012
-625,692	-45,213	0,167	-0,061
-624,678	196,918	-0,018	-0,020
-623,663	157,185	-0,107	0,109
-622,649	37,462	0,062	0,041
-621,634	-126,661	0,085	0,009
-620,619	116,786	0,037	0,034
-619,605	-200,000	-0,005	0,055
-618,590	11,953	-0,154	-0,087
-617,576	800,000	-0,053	0,127
-616,561	-200,000	0,008	0,179
-615,546	800,000	-0,031	-0,081
-614,532	503,166	0,044	-0,076
-613,517	-166,135	0,034	-0,001
-612,503	-82,087	0,059	0,014
-611,488	-200,000	-0,018	0,074
-610,474	-34,671	-0,063	0,025
-609,459	-139,338	-0,051	-0,004
-608,444	-80,872	0,150	0,036
-607,430	105,960	0,043	0,038
-606,415	466,493	-0,018	-0,029
-605,401	-200,000	0,002	-0,070
-604,386	-45,423	-0,158	-0,057
-603,371	30,121	-0,053	-0,033
-602,357	-27,754	-0,060	-0,025
-601,342	-200,000	0,014	0,183
-600,328	800,000	0,016	0,045
-599,313	-46,018	-0,122	-0,044
-598,298	-200,000	0,004	-0,103
-597,284	-200,000	-0,015	-0,064
-596,269	800,000	0,042	0,090
-595,255	201,701	0,066	0,074
-594,240	-200,000	0,054	-0,175
-593,225	59,358	-0,062	0,045
-592,211	198,084	0,070	-0,078
-591,196	800,000	-0,013	-0,027
-590,182	37,757	-0,005	0,003
-589,167	-48,274	0,041	-0,015
-588,152	-200,000	0,000	-0,013
-587,138	-200,000	0,010	0,079
-586,123	-200,000	-0,053	0,201
-585,109	-200,000	-0,013	-0,133
-584,094	-200,000	-0,022	0,073
-583,079	800,000	-0,072	-0,171
-582,065	69,814	-0,097	0,073
-581,050	800,000	-0,021	-0,064
-580,036	-200,000	0,013	-0,140
-579,021	-200,000	-0,016	0,095
-578,006	-200,000	-0,006	-0,111
-576,992	316,353	0,010	-0,014
-575,977	-200,000	-0,020	0,084
-574,963	196,134	-0,065	0,072
-573,948	290,016	0,019	-0,026
-572,934	-200,000	0,003	-0,085
-571,919	800,000	-0,032	0,086
-570,904	-200,000	-0,004	-0,107
-569,890	-200,000	0,017	0,058
-568,875	25,905	0,063	0,038
-567,861	-88,296	-0,063	0,014
-566,846	282,728	0,064	0,085
-565,831	252,839	-0,085	0,106
-564,817	46,355	-0,125	-0,085
-563,802	-200,000	-0,013	-0,156
-562,788	216,100	-0,037	-0,043
-561,773	-200,000	-0,011	0,123
-560,758	124,551	0,048	0,044
-559,744	-200,000	-0,007	0,202
-558,729	800,000	0,020	-0,044
-557,715	5,345	-0,175	-0,094
-556,700	151,394	-0,092	-0,092
-555,685	-200,000	-0,013	0,063
-554,671	-96,516	0,051	-0,010
-553,656	-46,261	-0,062	0,022
-552,642	-108,976	0,102	-0,016
-551,627	-200,000	-0,006	-0,042
-550,612	273,198	-0,092	0,119
-549,598	290,773	0,033	0,043
-548,583	-85,091	0,117	0,027
-547,569	-71,402	-0,048	0,013
-546,554	-88,675	0,122	-0,026
-545,539	656,846	0,044	-0,083
-544,525	800,000	-0,063	0,133
-543,510	-58,038	-0,093	0,029
-542,496	-200,000	0,006	-0,059
-541,481	264,679	-0,045	0,057
-540,466	-47,985	0,100	-0,035
-539,452	800,000	-0,019	0,047
-538,437	-142,923	0,110	-0,008
-537,423	80,156	-0,135	0,107
-536,408	800,000	-0,016	-0,036
-535,393	800,000	0,030	-0,085
-534,379	-200,000	-0,028	-0,130
-533,364	-200,000	-0,016	0,097
-532,350	-40,994	0,018	-0,007
-531,335	-90,380	-0,164	-0,035
-530,321	800,000	-0,016	-0,051
-529,306	312,505	0,079	0,109
-528,291	11,794	-0,080	-0,045
-527,277	800,000	-0,084	-0,235
-526,262	-200,000	-0,009	-0,095
-525,248	312,862	0,074	-0,102
-524,233	132,015	0,057	0,054
-523,218	67,173	0,050	-0,037
-522,204	-80,397	-0,072	-0,017
-521,189	507,345	0,057	-0,097
-520,175	615,322	0,044	-0,082
-519,160	-22,940	0,105	0,046
-518,145	-64,299	0,055	-0,016
-517,131	-200,000	0,027	-0,133
-516,116	166,819	0,040	0,042
-515,102	-26,811	0,032	0,014
-514,087	-200,000	0,019	-0,103
-513,072	-200,000	-0,011	-0,089
-512,058	-14,694	-0,105	0,049
-511,043	39,412	-0,122	-0,080
-510,029	800,000	0,040	0,103
-509,014	-173,569	0,104	-0,002
-507,999	-110,180	0,040	-0,006
-506,985	-88,827	0,025	-0,005
-505,970	52,457	-0,068	-0,047
-504,956	63,500	-0,172	-0,126
-503,941	50,769	0,075	-0,052
-502,926	800,000	0,037	0,105
-501,912	-9,973	-0,053	0,025
-500,897	220,742	0,069	0,081
-499,883	39,443	-0,093	-0,061
-498,868	-115,631	0,064	0,009
-497,853	-200,000	0,005	0,060
-496,839	800,000	0,046	0,116
-495,824	91,293	0,116	0,095
-494,810	104,463	-0,074	0,064
-493,795	-93,718	0,117	0,023
-492,781	128,741	0,109	0,101
-491,766	800,000	-0,042	0,104
-490,751	-83,144	-0,116	0,027
-489,737	-157,390	-0,046	-0,002
-488,722	-103,703	0,052	-0,009
-487,708	-32,057	-0,119	0,048
-486,693	31,636	0,072	-0,045
-485,678	-13,553	0,153	0,072
-484,664	118,625	-0,070	0,063
-483,649	800,000	0,032	0,098
-482,635	146,904	0,099	0,098
-481,620	102,020	0,124	0,106
-480,605	800,000	0,101	0,211
-479,591	713,167	-0,090	0,175
-478,576	-53,928	-0,161	0,053
-477,562	542,202	0,060	0,104
-476,547	-128,473	-0,117	0,012
-475,532	800,000	0,018	0,049
-474,518	-200,000	0,006	0,107
-473,503	551,173	0,034	0,060
-472,489	76,135	0,131	0,101
-471,474	-200,000	-0,023	-0,099
-470,459	800,000	-0,040	-0,090
-469,445	172,436	-0,040	-0,042
-468,430	376,053	-0,025	0,037
-467,416	-13,558	-0,068	0,032
-466,401	325,241	-0,020	0,028
-465,386	800,000	0,032	0,075
-464,372	398,736	-0,153	0,235
-463,357	-63,337	-0,042	0,013
-462,343	232,700	-0,047	-0,056
-461,328	-97,948	0,037	-0,007
-460,313	-143,989	0,117	0,008
-459,299	-16,904	-0,092	-0,042
-458,284	794,633	0,072	0,146
-457,270	-200,000	-0,001	0,095
-456,255	-200,000	-0,036	-0,147
-455,241	800,000	-0,009	-0,026
-454,226	36,824	-0,073	0,047
-453,211	67,028	0,036	0,026
-452,197	800,000	0,028	0,065
-451,182	48,726	-0,064	0,043
-450,168	800,000	0,056	0,114
-449,153	-94,906	-0,060	-0,012
-448,138	273,708	-0,031	0,041
-447,124	-17,240	-0,082	-0,038
-446,109	800,000	0,023	-0,062
-445,095	207,573	-0,107	-0,122
-444,080	-200,000	-0,001	-0,016
-443,065	-200,000	0,023	0,141
-442,051	329,336	-0,024	-0,034
-441,036	-94,682	0,053	-0,010
-440,022	57,028	-0,082	-0,058
-439,007	800,000	-0,016	0,034
-437,992	17,506	0,098	0,057
-436,978	-54,910	-0,147	0,048
-435,963	-200,000	0,003	0,075
-434,949	-200,000	0,008	-0,081
-433,934	-189,498	-0,113	-0,001
-432,919	25,165	-0,094	-0,057
-431,905	-200,000	0,005	-0,159
-430,890	122,532	-0,083	-0,075
-429,876	-67,310	0,216	0,061
-428,861	316,562	-0,097	0,134
-427,846	635,405	-0,021	-0,039
-426,832	46,107	-0,050	0,034
-425,817	-134,314	-0,095	-0,008
-424,803	-127,327	0,057	0,006
-423,788	-200,000	-0,028	0,223
-422,773	107,306	0,079	0,068
-421,759	28,570	0,059	0,036
-420,744	-95,168	-0,080	0,016
-419,730	69,167	-0,033	-0,025
-418,715	-166,499	-0,158	0,005
-417,701	513,115	0,070	-0,120
-416,686	127,987	0,028	-0,026
-415,671	49,384	-0,067	-0,046
-414,657	-200,000	-0,010	0,121
-413,642	-42,642	0,026	0,010
-412,628	-100,636	0,060	0,011
-411,613	800,000	-0,082	0,203
-410,598	25,744	0,044	0,027
-409,584	-102,642	0,066	0,011
-408,569	-64,462	-0,053	-0,016
-407,555	800,000	0,037	0,097
-406,540	-200,000	-0,006	-0,057
-405,525	-155,778	-0,100	0,005
-404,511	-164,002	-0,064	0,002
-403,496	800,000	-0,030	-0,074
-402,482	73,865	-0,081	0,062
-401,467	-200,000	-0,017	0,115
-400,452	-31,747	0,084	0,034
-399,438	134,965	-0,042	0,039
-398,423	-200,000	0,010	-0,079
-397,409	-200,000	-0,021	-0,133
-396,394	-142,153	-0,030	0,002
-395,379	-146,300	0,205	0,013
-394,365	-26,142	0,115	-0,049
-393,350	137,063	0,093	-0,089
-392,336	800,000	-0,030	0,084
-391,321	-38,135	-0,084	0,032
-390,306	-120,266	-0,124	0,015
-389,292	-18,548	-0,115	-0,052
-388,277	-95,334	0,112	0,022
-387,263	41,753	-0,133	-0,087
-386,248	568,363	0,067	0,119
-385,233	-99,283	-0,103	0,019
-384,219	513,638	0,027	0,047
-383,204	7,991	-0,125	-0,068
-382,190	-200,000	-0,000	0,029
-381,175	296,660	-0,036	-0,049
-380,160	526,295	-0,065	0,111
-379,146	800,000	-0,032	0,080
-378,131	193,448	0,126	-0,139
-377,117	134,574	-0,020	-0,019
-376,102	-124,896	0,095	-0,011
-375,088	340,691	-0,030	0,043
-374,073	-200,000	-0,023	-0,134
-373,058	205,872	0,117	0,132
-372,044	125,687	-0,077	0,070
-371,029	264,611	0,119	-0,151
-370,015	291,381	0,066	0,087
-369,000	16,509	0,068	0,039
-367,985	-111,811	-0,144	0,021
-366,971	-200,000	0,010	-0,066
-365,956	-36,712	0,110	-0,043
-364,942	-69,838	-0,123	-0,034
-363,927	-43,559	0,093	0,034
-362,912	187,511	-0,093	0,101
-361,898	48,911	0,077	0,053
-360,883	800,000	-0,012	-0,028
-359,869	-152,966	-0,164	-0,008
-358,854	-200,000	-0,009	-0,086
-357,839	90,939	-0,008	0,007
-356,825	54,227	-0,091	0,063
-355,810	800,000	0,028	-0,063
-354,796	28,616	-0,102	0,062
-353,781	71,703	-0,041	0,031
-352,766	82,118	0,194	-0,152
-351,752	105,019	-0,035	-0,030
-350,737	302,252	0,059	-0,079
-349,723	-106,541	0,019	-0,003
-348,708	-200,000	-0,009	0,032
-347,693	-200,000	0,055	-0,208
-346,679	-126,977	0,108	0,011
-345,664	105,849	-0,061	0,053
-344,650	-139,697	-0,043	-0,003
-343,635	-200,000	0,006	0,044
-342,620	-62,205	-0,113	0,034
-341,606	-200,000	0,005	0,072
-340,591	-4,620	0,057	-0,029
-339,577	37,668	-0,030	-0,019
-338,562	-200,000	0,017	-0,068
-337,548	-116,907	-0,039	-0,005
-336,533	131,516	0,054	-0,050
-335,518	112,041	0,061	0,053
-334,504	771,325	0,049	-0,098
-333,489	-161,554	-0,149	0,005
-332,475	-23,238	0,113	0,049
-331,460	258,958	0,044	-0,055
-330,445	256,265	-0,055	0,069
-329,431	92,646	0,079	-0,064
-328,416	800,000	-0,020	0,053
-327,402	-200,000	0,003	0,143
-326,387	28,958	0,162	-0,099
-325,372	-165,120	-0,125	-0,004
-324,358	174,037	-0,082	-0,086
-323,343	800,000	-0,028	-0,065
-322,329	-200,000	0,004	0,074
-321,314	-34,407	-0,102	-0,041
-320,299	-200,000	0,005	-0,021
-319,285	243,291	0,056	0,069
-318,270	-75,876	-0,130	0,033
-317,256	160,258	0,070	-0,071
-316,241	1,035	-0,113	-0,059
-315,226	266,071	0,059	-0,075
-314,212	94,570	-0,037	0,030
-313,197	-142,546	0,237	-0,017
-312,183	37,097	0,092	-0,059
-311,168	310,049	0,091	-0,124
-310,153	-200,000	0,010	-0,096
-309,139	-45,097	0,071	-0,025
-308,124	296,936	0,021	0,028
-307,110	-95,931	0,065	0,012
-306,095	88,038	-0,109	0,088
-305,080	800,000	0,042	0,088
-304,066	157,858	-0,022	0,022
-303,051	-200,000	0,017	-0,087
-302,037	-200,000	0,024	-0,255
-301,022	-66,466	-0,014	-0,004
-300,008	-200,000	0,009	0,173
-298,993	-200,000	0,010	0,050
-297,978	627,993	0,075	0,138
-296,964	-133,706	-0,031	-0,003
-295,949	-200,000	0,001	0,022
-294,935	-179,699	-0,145	0,002
-293,920	-114,414	0,155	-0,021
-292,905	64,858	0,042	-0,031
-291,891	-200,000	-0,035	0,167
-290,876	-97,913	0,145	0,027
-289,862	-47,508	-0,090	0,031
-288,847	-200,000	-0,003	-0,053
-287,832	443,488	0,047	0,075
-286,818	125,663	-0,108	-0,099
-285,803	-200,000	0,007	-0,092
-284,789	194,440	0,046	0,050
-283,774	33,112	-0,122	0,077
-282,759	778,125	0,035	-0,069
-281,745	192,493	-0,102	-0,111
-280,730	33,982	0,088	-0,055
-279,716	800,000	0,040	-0,087
-278,701	800,000	0,022	-0,050
-277,686	58,645	0,079	-0,056
-276,672	-200,000	-0,019	0,119
-275,657	800,000	0,025	0,079
-274,643	-200,000	-0,015	-0,176
-273,628	-153,085	-0,036	-0,002
-272,613	355,619	0,012	0,018
-271,599	-22,504	0,046	-0,020
-270,584	-90,325	0,188	0,039
-269,570	46,121	0,075	0,050
-268,555	133,770	0,071	-0,066
-267,540	-82,968	0,107	0,025
-266,526	-154,236	0,082	-0,004
-265,511	-200,000	0,135	0,000
-264,497	514,026	0,086	0,146
-263,482	-73,291	0,129	-0,034
-262,467	-200,000	0,019	-0,062
-261,453	25,424	0,046	-0,028
-260,438	497,111	-0,012	-0,021
-259,424	-200,000	0,001	-0,119
-258,409	23,904	0,118	-0,070
-257,395	59,713	-0,015	-0,011
-256,380	-142,267	-0,059	0,004
-255,365	-48,615	0,164	-0,057
-254,351	347,985	-0,016	-0,023
-253,336	-73,903	-0,055	-0,014
-252,322	-43,860	-0,030	0,011
-251,307	16,325	0,052	-0,029
-250,292	89,248	-0,089	0,072
-249,278	-200,000	0,003	-0,024
-248,263	-15,952	-0,007	0,003
-247,249	-106,201	0,119	-0,019
-246,234	194,113	-0,073	0,080
-245,219	-124,994	0,122	0,013
-244,205	-66,297	-0,101	-0,029
-243,190	-200,000	-0,013	-0,041
-242,176	800,000	0,034	0,099
-241,161	376,274	0,052	-0,078
-240,146	-200,000	-0,000	0,189
-239,132	729,325	0,036	0,071
-238,117	122,402	-0,026	0,023
-237,103	96,887	-0,017	-0,014
-236,088	437,110	-0,044	-0,070
-235,073	-85,398	0,159	0,035
-234,059	800,000	-0,035	0,106
-233,044	-200,000	-0,006	0,068
-232,030	172,835	-0,089	-0,093
-231,015	-50,530	0,064	-0,022
-230,000	-200,000	-0,021	-0,145
-228,986	421,085	0,035	-0,055
-227,971	658,076	-0,020	-0,037
-226,957	60,692	0,062	-0,044
-225,942	-200,000	0,003	0,051
-224,927	800,000	0,013	-0,040
-223,913	-127,709	-0,096	0,010
-222,898	189,458	0,077	0,084
-221,884	20,177	-0,113	0,066
-220,869	-200,000	0,000	-0,163
-219,855	-200,000	-0,038	0,147
-218,840	474,968	0,046	0,075
-217,825	-20,837	-0,029	-0,013
-216,811	-200,000	-0,007	0,095
-215,796	193,416	0,007	0,008
-214,782	-200,000	0,025	-0,081
-213,767	31,890	0,041	-0,026
-212,752	733,696	0,089	0,173
-211,738	265,000	-0,092	-0,116
-210,723	800,000	-0,051	-0,146
-209,709	800,000	-0,057	-0,167
-208,694	494,646	0,084	-0,140
-207,679	-10,475	0,108	-0,052
-206,665	-74,611	-0,071	0,018
-205,650	185,199	0,065	-0,070
-204,636	-200,000	-0,007	0,072
-203,621	-200,000	-0,013	0,041
-202,606	580,406	-0,051	0,091
-201,592	567,122	-0,016	0,029
-200,577	-74,869	0,105	0,027
-199,563	800,000	0,024	-0,062
-198,548	761,438	-0,044	0,087
-197,533	-123,448	0,098	0,011
-196,519	800,000	0,020	0,058
-195,504	-168,057	0,049	-0,001
-194,490	-23,448	-0,217	-0,094
-193,475	-200,000	-0,004	0,073
-192,460	-175,201	0,219	-0,004
-191,446	800,000	-0,028	-0,077
-190,431	-200,000	-0,004	-0,048
-189,417	-37,386	0,080	0,031
-188,402	-178,465	0,090	-0,001
-187,387	-14,591	0,044	-0,020
-186,373	173,962	-0,033	0,034
-185,358	186,960	0,058	0,062
-184,344	95,247	-0,021	0,017
-183,329	301,320	-0,017	0,023
-182,315	-119,715	-0,023	0,003
-181,300	-138,649	-0,015	-0,001
-180,285	200,112	-0,090	0,100
-179,271	131,198	-0,093	-0,086
-178,256	-200,000	0,014	-0,132
-177,242	156,966	0,051	-0,051
-176,227	-121,920	-0,096	0,011
-175,212	548,820	-0,033	-0,057
-174,198	-200,000	-0,011	-0,085
-173,183	-54,966	0,113	-0,037
-172,169	-123,598	0,042	-0,005
-171,154	94,621	0,050	0,041
-170,139	-200,000	-0,035	-0,173
-169,125	800,000	-0,013	0,035
-168,110	-200,000	0,028	0,127
-167,096	99,880	0,064	-0,053
-166,081	358,756	0,088	-0,128
-165,066	357,217	-0,111	-0,160
-164,052	800,000	0,053	-0,151
-163,037	-200,000	0,025	0,114
-162,023	132,769	-0,112	0,104
-161,008	223,469	-0,041	0,047
-159,993	-166,079	-0,052	0,002
-158,979	77,467	0,040	-0,031
-157,964	800,000	-0,029	-0,086
-156,950	163,952	-0,020	0,021
-155,935	-200,000	0,018	-0,115
-154,920	213,759	0,036	0,041
-153,906	-58,461	-0,021	0,007
-152,891	185,902	0,048	0,051
-151,877	-9,817	-0,091	-0,043
-150,862	120,443	-0,050	0,045
-149,847	353,200	0,046	-0,066
-148,833	16,467	-0,043	0,025
-147,818	312,009	-0,058	0,079
-146,804	800,000	-0,025	0,055
-145,789	-200,000	0,001	0,150
-144,775	29,305	0,061	0,037
-143,760	-200,000	0,021	-0,118
-142,745	-77,798	-0,015	-0,004
-141,731	-200,000	0,045	0,154
-140,716	-200,000	-0,012	-0,066
-139,702	800,000	-0,011	-0,029
-138,687	-200,000	-0,011	0,044
-137,672	205,406	0,038	-0,043
-136,658	-47,427	0,077	0,027
-135,643	544,444	0,024	-0,042
-134,629	68,372	0,024	-0,018
-133,614	426,214	-0,009	0,015
-132,599	26,948	-0,058	-0,035
-131,585	-153,616	0,103	-0,005
-130,570	777,577	-0,055	0,108
-129,556	-9,336	-0,103	0,049
-128,541	232,182	-0,106	-0,125
-127,526	-200,000	0,017	-0,081
-126,512	-113,912	0,041	-0,006
-125,497	800,000	-0,017	0,043
-124,483	-200,000	-0,015	0,193
-123,468	4,347	0,104	0,055
-122,453	140,693	-0,093	0,089
-121,439	-86,091	-0,047	0,010
-120,424	740,053	0,043	-0,084
-119,410	-200,000	0,023	0,110
-118,395	800,000	0,031	0,073
-117,380	169,457	-0,043	-0,044
-116,366	349,699	-0,081	0,116
-115,351	114,725	-0,046	-0,041
-114,337	-63,567	-0,062	-0,018
-113,322	800,000	-0,047	0,126
-112,307	-200,000	0,022	0,165
-111,293	271,985	-0,006	0,008
-110,278	-200,000	-0,016	-0,107
-109,264	744,811	-0,008	-0,015
-108,249	449,125	0,023	0,036
-107,234	302,248	0,013	0,017
-106,220	-200,000	0,003	-0,018
-105,205	-37,976	-0,075	0,029
-104,191	595,091	0,022	-0,039
-103,176	285,214	0,006	0,008
-102,162	-200,000	-0,014	-0,089
-101,147	1,424	-0,094	-0,048
-100,132	-8,478	-0,149	0,072
-99,118	-200,000	0,033	-0,113
-98,103	-200,000	-0,015	-0,185
-97,089	-7,449	0,087	0,042
-96,074	-200,000	-0,012	-0,042
-95,059	-200,000	0,049	-0,169
-94,045	-200,000	-0,021	0,139
-93,030	-62,013	-0,061	-0,018
-92,016	140,173	-0,063	-0,060
-91,001	-106,496	-0,098	0,016
-89,986	20,219	-0,110	-0,064
-88,972	185,115	-0,045	0,048
-87,957	358,124	-0,016	0,023
-86,943	152,149	0,072	0,070
-85,928	42,599	-0,028	-0,019
-84,913	800,000	0,053	-0,135
-83,899	-200,000	0,017	-0,154
-82,884	-200,000	0,025	-0,161
-81,870	-7,771	0,081	0,039
-80,855	-36,296	-0,126	-0,048
-79,840	-90,040	0,081	0,017
-78,826	69,956	-0,079	-0,058
-77,811	352,720	-0,052	-0,074
-76,797	-97,704	0,144	0,027
-75,782	-70,119	-0,081	0,022
-74,767	215,845	0,056	-0,064
-73,753	-200,000	0,022	0,090
-72,738	80,958	0,112	0,087
-71,724	-76,273	-0,095	0,024
-70,709	33,798	0,052	-0,032
-69,694	105,217	0,095	0,081
-68,680	-91,346	-0,065	-0,013
-67,665	244,340	0,046	-0,056
-66,651	271,056	-0,067	0,085
-65,636	99,426	-0,045	-0,037
-64,622	-200,000	0,007	-0,059
-63,607	-200,000	0,064	-0,236
-62,592	-200,000	-0,036	-0,170
-61,578	-200,000	0,041	-0,176
-60,563	67,628	0,070	0,051
-59,549	800,000	0,010	-0,020
-58,534	-8,185	-1,950	-0,940
-57,519	800,000	-0,313	-0,933
-56,505	-200,000	-1,238	-4,903
-55,490	-26,012	0,777	0,327
-54,476	800,000	5,408	11,896
-53,461	-200,000	17,460	285,224
-52,446	800,000	723,161	2231,114
-51,432	544,384	1638,990	2820,990
-50,417	112,097	1631,301	1415,076
-49,403	76,240	1286,417	976,916
-48,388	32,847	1028,662	637,880
-47,373	20,341	990,426	572,902
-46,359	18,789	978,758	561,034
-45,344	16,226	974,682	550,278
-44,330	16,399	973,152	549,959
-43,315	15,957	971,368	547,485
-42,300	15,887	970,262	546,611
-41,286	15,837	969,350	545,914
-40,271	15,805	968,332	545,215
-39,257	15,930	967,354	545,047
-38,242	15,858	966,655	544,399
-37,227	15,897	965,755	543,996
-36,213	15,889	964,726	543,371
-35,198	15,906	963,933	542,955
-34,184	15,900	963,340	542,582
-33,169	15,827	962,208	541,686
-32,154	15,893	961,288	541,360
-31,140	15,918	960,423	540,933
-30,125	15,980	959,636	540,667
-29,111	15,926	958,891	540,052
-28,096	15,900	958,217	539,567
-27,082	15,925	957,761	539,370
-26,067	15,938	956,848	538,875
-25,052	15,878	956,000	538,185
-24,038	15,807	955,546	537,678
-23,023	15,868	954,761	537,414
-22,009	15,893	954,107	537,104
-20,994	15,886	953,607	536,777
-19,979	15,933	952,910	536,515
-18,965	15,949	952,282	536,192
-17,950	15,878	951,802	535,673
-16,936	15,850	951,019	535,122
-15,921	15,828	950,385	534,673
-14,906	15,782	949,618	534,073
-13,892	15,771	948,938	533,634
-12,877	15,782	948,344	533,314
-11,863	15,661	947,973	532,698
-10,848	15,761	947,204	532,565
-9,833	15,796	946,815	532,435
-8,819	15,808	946,073	532,035
-7,804	15,805	945,377	531,614
-6,790	15,765	944,914	531,203
-5,775	15,768	944,287	530,841
-4,760	15,779	943,511	530,419
-3,746	15,751	942,949	529,991
-2,731	15,611	942,361	529,196
-1,717	15,595	941,720	528,766
-0,702	15,602	941,049	528,391
0,313	15,412	940,587	528,326
1,327	18,579	938,246	536,954
2,342	27,591	795,646	479,261
3,356	24,480	459,505	271,999
4,371	-2,460	313,980	157,270
5,386	-6,654	295,911	143,967
6,400	-8,616	290,036	139,149
7,415	-9,155	287,424	137,354
8,429	-9,239	285,865	136,514
9,444	-9,269	284,965	136,043
10,459	-9,142	284,236	135,807
11,473	-9,370	283,710	135,322
12,488	-9,102	283,202	135,327
13,502	-9,276	282,819	134,964
14,517	-9,259	282,252	134,698
15,531	-9,400	281,840	134,353
16,546	-9,295	281,378	134,222
17,561	-9,262	281,156	134,135
18,575	-9,109	280,707	134,057
19,590	-9,412	280,265	133,543
20,604	-9,138	280,023	133,678
21,619	-9,364	279,739	133,315
22,634	-9,422	279,468	133,118
23,648	-9,275	279,033	133,039
24,663	-9,248	278,674	132,883
25,677	-9,284	278,666	132,832
26,692	-9,248	278,259	132,660
27,707	-9,365	277,915	132,373
28,721	-9,316	277,594	132,255
29,736	-9,337	277,399	132,131
30,750	-9,243	277,040	132,037
31,765	-9,311	276,890	131,889
32,780	-9,206	276,774	131,921
33,794	-9,392	276,514	131,610
34,809	-9,292	276,143	131,516
35,823	-9,278	276,005	131,452
36,838	-9,373	275,730	131,220
37,853	-9,543	275,469	130,924
38,867	-9,242	275,160	131,048
39,882	-9,370	275,071	130,874
40,896	-9,364	274,749	130,714
41,911	-9,373	274,497	130,574
42,926	-9,539	274,334	130,330
43,940	-9,467	273,992	130,223
44,955	-9,388	273,787	130,189
45,969	-9,469	273,467	129,948
46,984	-9,504	273,372	129,859
47,999	-9,785	272,888	129,356
49,013	-9,967	272,635	129,055
50,028	-10,079	272,404	128,831
51,042	-10,214	272,197	128,596
52,057	-10,307	271,943	128,378
53,071	-10,260	271,762	128,325
54,086	-9,931	271,477	128,483
55,101	-9,774	271,414	128,587
56,115	-9,588	271,212	128,652
57,130	-9,394	271,106	128,769
58,144	-9,092	270,902	128,940
59,159	-9,120	270,713	128,813
60,174	-9,113	270,427	128,672
61,188	-9,169	270,296	128,546
62,203	-9,312	270,165	128,341
63,217	-9,321	269,820	128,157
64,232	-9,240	269,621	128,125
65,247	-9,213	269,322	127,997
66,261	-9,090	269,211	128,046
67,276	-9,372	268,822	127,591
68,290	-9,678	268,762	127,271
69,305	-9,407	268,377	127,325
70,320	-9,645	268,199	127,012
71,334	-9,545	268,041	127,017
72,349	-9,432	267,963	127,072
73,363	-9,345	267,744	127,036
74,378	-9,173	267,359	126,998
75,393	-9,109	267,186	126,963
76,407	-9,295	267,039	126,713
77,422	-9,423	266,818	126,480
78,436	-9,141	266,548	126,597
79,451	-9,149	266,252	126,438
80,466	-9,232	266,001	126,232
81,480	-9,365	265,805	126,008
82,495	-9,353	265,659	125,938
83,509	-9,409	265,520	125,811
84,524	-9,402	265,193	125,651
85,539	-9,424	264,891	125,477
86,553	-9,857	264,965	125,111
87,568	-9,635	264,721	125,183
88,582	-9,493	264,313	125,107
89,597	-9,432	264,166	125,081
90,611	-9,358	264,146	125,127
91,626	-9,394	263,964	124,997
92,641	-9,128	263,703	125,101
93,655	-9,353	263,543	124,813
94,670	-9,575	263,211	124,446
95,684	-9,272	263,086	124,647
96,699	-9,315	262,935	124,526
97,714	-9,494	262,652	124,221
98,728	-9,497	262,371	124,074
99,743	-9,477	262,247	124,022
100,757	-9,749	261,969	123,638
101,772	-9,792	261,898	123,554
102,787	-9,487	261,665	123,705
103,801	-9,454	261,542	123,665
104,816	-9,346	261,390	123,678
105,830	-9,225	261,153	123,662
106,845	-9,292	260,988	123,514
107,860	-9,227	260,749	123,447
108,874	-9,206	260,339	123,260
109,889	-9,361	260,382	123,133
110,903	-9,404	260,114	122,957
111,918	-9,474	259,913	122,789
112,933	-9,380	259,724	122,772
113,947	-9,328	259,613	122,755
114,962	-9,430	259,395	122,550
115,976	-9,412	259,151	122,440
116,991	-9,126	259,045	122,630
118,006	-9,180	258,812	122,461
119,020	-9,460	258,650	122,129
120,035	-9,057	258,478	122,389
121,049	-9,201	258,304	122,170
122,064	-9,318	258,199	122,007
123,079	-9,071	257,965	122,102
124,093	-9,259	257,676	121,790
125,108	-9,599	257,467	121,383
126,122	-9,393	257,192	121,423
127,137	-9,756	257,075	121,040
128,151	-9,484	256,830	121,151
129,166	-9,442	256,752	121,140
130,181	-9,610	256,449	120,840
131,195	-9,681	256,281	120,689
132,210	-9,567	256,291	120,782
133,224	-9,148	255,844	120,923
134,239	-9,223	255,937	120,891
135,254	-9,205	255,585	120,729
136,268	-9,266	255,442	120,599
137,283	-9,585	255,108	120,155
138,297	-9,664	254,773	119,919
139,312	-9,621	254,646	119,885
140,327	-9,470	254,495	119,933
141,341	-9,087	254,281	120,152
142,356	-9,151	254,355	120,120
143,370	-8,972	254,026	120,108
144,385	-9,016	254,114	120,101
145,400	-9,062	253,858	119,929
146,414	-8,995	253,620	119,864
147,429	-9,062	253,373	119,679
148,443	-9,154	253,327	119,567
149,458	-9,065	253,025	119,491
150,473	-9,166	252,841	119,307
151,487	-9,256	252,672	119,139
152,502	-9,025	252,632	119,308
153,516	-8,970	252,357	119,214
154,531	-9,218	252,211	118,923
155,546	-9,027	251,947	118,950
156,560	-8,951	251,846	118,957
157,575	-8,921	251,550	118,832
158,589	-9,081	251,348	118,590
159,604	-8,933	251,238	118,653
160,619	-9,076	251,073	118,443
161,633	-9,202	250,975	118,280
162,648	-8,983	250,687	118,319
163,662	-9,074	250,548	118,166
164,677	-8,914	250,386	118,214
165,692	-9,113	250,399	118,042
166,706	-9,138	250,208	117,920
167,721	-9,163	249,866	117,727
168,735	-9,001	249,838	117,840
169,750	-8,959	249,628	117,766
170,764	-8,964	249,531	117,706
171,779	-9,010	249,459	117,622
172,794	-8,892	249,178	117,578
173,808	-8,904	249,002	117,475
174,823	-9,491	248,798	116,875
175,837	-9,526	248,448	116,671
176,852	-9,195	248,474	116,951
177,867	-9,092	248,440	117,010
178,881	-9,054	248,045	116,845
179,896	-8,932	247,855	116,848
180,910	-8,797	247,882	116,963
181,925	-8,998	247,668	116,684
182,940	-9,086	247,518	116,529
183,954	-8,989	247,291	116,493
184,969	-9,033	247,143	116,376
185,983	-8,940	246,898	116,327
186,998	-8,891	246,761	116,293
188,013	-8,891	246,529	116,174
189,027	-8,893	246,360	116,082
190,042	-8,941	246,206	115,959
191,056	-8,951	245,998	115,842
192,071	-8,976	245,956	115,791
193,086	-9,137	245,822	115,585
194,100	-8,995	245,621	115,598
195,115	-8,824	245,378	115,614
196,129	-8,983	245,218	115,397
197,144	-9,069	245,109	115,265
198,159	-8,976	244,800	115,186
199,173	-8,922	244,643	115,146
200,188	-9,117	244,506	114,911
201,202	-9,362	244,197	114,554
202,217	-9,359	243,959	114,435
203,232	-9,366	243,661	114,280
204,246	-9,062	243,656	114,516
205,261	-8,710	243,763	114,844
206,275	-9,491	243,333	113,992
207,290	-5,888	244,566	117,521
208,304	0,875	246,766	124,162
209,319	3,758	247,591	126,951
210,334	4,029	247,566	127,150
211,348	4,426	247,416	127,390
212,363	4,530	247,415	127,464
213,377	4,899	247,196	127,644
214,392	4,504	247,062	127,237
215,407	4,377	247,017	127,098
216,421	4,552	246,694	127,065
217,436	4,747	246,624	127,178
218,450	5,066	246,450	127,339
219,465	4,391	246,323	126,709
220,480	4,374	246,124	126,580
221,494	4,152	246,023	126,334
222,509	4,143	245,823	126,213
223,523	4,178	245,401	126,014
224,538	3,724	245,199	125,528
225,553	3,858	245,063	125,557
226,567	3,926	244,930	125,533
227,582	3,944	244,844	125,492
228,596	4,000	244,860	125,535
229,611	3,719	244,481	125,101
230,626	3,802	244,383	125,107
231,640	4,077	244,031	125,139
232,655	4,231	243,976	125,225
233,669	4,003	243,852	124,965
234,684	3,685	243,650	124,593
235,699	4,193	243,702	125,020
236,713	4,295	243,476	124,976
237,728	3,959	243,130	124,515
238,742	3,773	243,087	124,331
239,757	3,709	242,869	124,158
240,772	3,871	242,680	124,180
241,786	3,992	242,557	124,204
242,801	3,992	242,340	124,081
243,815	3,694	242,231	123,775
244,830	3,797	242,294	123,879
245,844	4,293	242,060	124,148
246,859	3,994	241,793	123,760
247,874	3,970	241,600	123,630
248,888	4,144	241,442	123,678
249,903	3,760	241,516	123,396
250,917	4,099	241,403	123,599
251,932	4,403	241,096	123,675
252,947	4,374	240,878	123,529
253,961	3,873	240,722	123,037
254,976	4,133	240,608	123,176
255,990	4,311	240,291	123,145
257,005	3,980	240,270	122,858
258,020	3,681	240,166	122,556
259,034	3,708	240,011	122,487
260,049	4,151	239,760	122,701
261,063	3,860	239,597	122,375
262,078	4,079	239,339	122,406
263,093	4,092	239,392	122,433
264,107	4,238	239,210	122,445
265,122	3,904	239,087	122,106
266,136	4,248	238,767	122,204
267,151	4,396	238,700	122,277
268,166	4,073	238,484	121,899
269,180	3,834	238,344	121,628
270,195	4,363	238,405	122,067
271,209	4,752	238,322	122,321
272,224	3,993	237,920	121,504
273,239	3,601	237,682	121,063
274,253	3,759	237,562	121,115
275,268	4,101	237,537	121,361
276,282	4,038	237,291	121,176
277,297	3,918	237,019	120,932
278,312	3,870	237,039	120,893
279,326	3,881	236,930	120,836
280,341	4,094	236,730	120,889
281,355	4,239	236,482	120,866
282,370	4,109	236,476	120,750
283,384	4,043	236,215	120,555
284,399	3,738	236,263	120,329
285,414	3,705	235,946	120,132
286,428	3,858	235,857	120,195
287,443	3,911	235,807	120,200
288,457	3,958	235,751	120,198
289,472	4,394	235,386	120,341
290,487	4,330	235,046	120,106
291,501	3,802	234,971	119,646
292,516	3,820	234,814	119,570
293,530	3,590	234,684	119,314
294,545	3,947	234,632	119,554
295,560	4,138	234,506	119,628
296,574	3,628	234,223	119,077
297,589	3,806	234,171	119,179
298,603	4,076	234,093	119,337
299,618	4,252	233,959	119,395
300,633	4,195	233,824	119,271
301,647	4,091	233,737	119,135
302,662	4,499	233,594	119,368
303,676	4,318	233,401	119,119
304,691	3,930	233,313	118,763
305,706	4,548	233,040	119,090
306,720	4,516	232,967	119,017
307,735	4,155	232,837	118,663
308,749	4,164	232,625	118,551
309,764	3,906	232,343	118,198
310,779	3,792	232,174	118,014
311,793	3,930	231,931	117,986
312,808	3,821	231,697	117,773
313,822	3,670	231,724	117,661
314,837	3,815	231,600	117,699
315,852	3,872	231,447	117,653
316,866	3,883	231,425	117,640
317,881	3,919	231,240	117,563
318,895	3,989	231,008	117,488
319,910	4,437	230,908	117,769
320,925	4,358	230,790	117,638
321,939	3,909	230,672	117,225
322,954	4,001	230,657	117,278
323,968	4,186	230,273	117,212
324,983	3,798	230,147	116,842
325,997	3,914	230,046	116,869
327,012	4,239	229,929	117,046
328,027	4,227	229,824	116,973
329,041	4,635	229,703	117,211
330,056	4,925	229,837	117,488
331,070	4,849	229,542	117,269
332,085	4,242	229,493	116,774
333,100	4,232	229,114	116,563
334,114	4,282	228,921	116,492
335,129	4,346	228,901	116,520
336,143	4,662	228,704	116,648
337,158	4,585	228,559	116,505
338,173	4,381	228,334	116,227
339,187	4,205	228,209	116,020
340,202	4,294	228,125	116,034
341,216	4,317	227,907	115,930
342,231	4,109	227,814	115,716
343,246	4,173	227,687	115,689
344,260	4,334	227,445	115,677
345,275	4,608	227,357	115,827
346,289	4,552	227,207	115,699
347,304	4,457	227,226	115,626
348,319	4,509	226,993	115,537
349,333	4,434	226,873	115,409
350,348	4,136	226,698	115,087
351,362	4,238	226,520	115,063
352,377	4,042	226,269	114,779
353,392	3,977	226,030	114,600
354,406	4,139	225,882	114,634
355,421	195,129	1323,082	1399,135
356,435	156,382	1456,763	1399,140
