DTS Sentinel unit serial number:	SN410029Multiplexer serial number:	ORYXHardware model number:	OX2-SRSoftware version number:	ORYX F/W v4,00 Oryx Data Collector v3.7.2.0data status	okinstallation	B5 Nyhavnadifferential loss correction	single-endedforward channel	channel 2reverse channel	N/Adate	2023/12/13time	00:02:13forward acquisition time	300,00reverse acquisition time	0,00gamma	499,1914k internal	0,3159k external	0,3159temperature offset calibration	1,0000default loss term (dB/km)	0,3820temperature slope calibration	1,0000multiplexer offset coefficient	1,0000multiplexer slope coefficient	1,0000fibre end	0,00T internal ref (°C)	14,36T ext. ref 1 (°C)	-2,16T ext. ref 2 (°C)	-2,46length (m)	temperature (°C)	Stokes	anti-Stokes-744,400	38,414	0,164	0,107
-743,385	-110,145	-0,258	-0,039
-742,371	-17,375	0,250	0,116
-741,356	-200,000	-0,277	0,001
-740,342	-102,759	0,066	-0,011
-739,327	-70,392	-0,354	-0,098
-738,312	800,000	0,075	0,176
-737,298	105,141	-0,117	-0,101
-736,283	-118,950	0,111	0,014
-735,269	-79,564	-0,210	0,052
-734,254	-11,780	0,046	0,022
-733,239	-31,806	-0,401	-0,165
-732,225	-89,201	0,275	-0,059
-731,210	800,000	0,053	0,160
-730,196	-150,221	-0,147	-0,008
-729,181	63,319	0,088	-0,065
-728,167	800,000	-0,015	-0,042
-727,152	0,845	-0,184	0,097
-726,137	-200,000	-0,007	-0,050
-725,123	-143,535	-0,114	0,008
-724,108	-47,763	-0,123	-0,044
-723,094	800,000	0,028	-0,082
-722,079	32,805	-0,100	-0,064
-721,064	-200,000	-0,008	-0,061
-720,050	-30,563	-0,133	-0,055
-719,035	-154,618	-0,034	0,002
-718,021	95,473	-0,101	0,085
-717,006	108,960	-0,154	-0,136
-715,991	196,057	-0,047	0,053
-714,977	-200,000	0,034	0,120
-713,962	51,792	-0,009	-0,006
-712,948	-115,909	0,163	0,022
-711,933	537,708	-0,045	-0,079
-710,918	-0,059	-0,142	-0,074
-709,904	43,573	0,055	-0,037
-708,889	-165,868	-0,146	-0,005
-707,875	367,235	0,056	-0,083
-706,860	-48,068	-0,007	-0,002
-705,845	132,999	-0,087	-0,083
-704,831	148,064	0,160	-0,159
-703,816	223,812	0,055	-0,065
-702,802	-200,000	0,011	-0,092
-701,787	-200,000	-0,008	-0,209
-700,772	-200,000	-0,007	-0,175
-699,758	800,000	-0,054	-0,122
-698,743	-200,000	0,027	0,132
-697,729	-90,598	-0,144	0,030
-696,714	-49,740	0,025	0,009
-695,699	20,360	0,053	0,031
-694,685	178,612	-0,101	-0,109
-693,670	26,790	0,096	0,059
-692,656	80,696	-0,090	0,072
-691,641	-200,000	0,016	0,076
-690,627	110,649	-0,023	-0,021
-689,612	66,133	-0,005	0,004
-688,597	-200,000	0,022	0,105
-687,583	132,760	-0,049	-0,046
-686,568	800,000	0,038	-0,100
-685,554	-87,360	-0,128	-0,028
-684,539	-48,640	0,104	-0,036
-683,524	51,382	0,044	0,031
-682,510	800,000	-0,017	-0,035
-681,495	-62,241	0,055	0,017
-680,481	-190,399	-0,098	0,001
-679,466	17,898	0,064	-0,038
-678,451	194,443	-0,079	0,088
-677,437	144,639	-0,122	0,120
-676,422	-200,000	0,007	-0,031
-675,408	16,595	-0,112	-0,065
-674,393	156,824	-0,060	0,061
-673,378	800,000	0,031	-0,071
-672,364	114,004	-0,082	-0,074
-671,349	-200,000	0,005	-0,149
-670,335	-60,909	-0,042	0,013
-669,320	353,123	-0,015	0,023
-668,305	223,660	0,084	-0,100
-667,291	205,579	0,043	-0,050
-666,276	-200,000	0,004	-0,090
-665,262	-200,000	0,006	0,032
-664,247	-74,414	-0,060	-0,016
-663,232	156,311	-0,069	-0,070
-662,218	4,349	0,062	-0,033
-661,203	-200,000	-0,013	0,056
-660,189	-30,649	-0,141	-0,058
-659,174	13,353	-0,091	-0,052
-658,159	-35,240	-0,109	-0,044
-657,145	611,956	-0,044	-0,081
-656,130	-200,000	-0,006	0,069
-655,116	271,543	-0,083	0,108
-654,101	-8,625	-0,074	-0,036
-653,086	106,548	-0,073	0,063
-652,072	800,000	0,003	0,008
-651,057	-173,394	-0,042	-0,001
-650,043	76,762	-0,020	-0,016
-649,028	32,154	-0,125	-0,079
-648,014	734,563	0,031	-0,062
-646,999	48,407	-0,035	0,024
-645,984	-137,022	0,043	-0,004
-644,970	579,830	-0,016	0,028
-643,955	-200,000	0,017	-0,079
-642,941	204,409	0,083	-0,095
-641,926	-70,206	-0,008	0,002
-640,911	121,552	0,087	-0,079
-639,897	800,000	0,007	0,022
-638,882	-200,000	-0,011	0,044
-637,868	555,820	0,062	-0,111
-636,853	23,957	-0,134	-0,081
-635,838	-200,000	0,002	-0,053
-634,824	319,198	0,030	0,042
-633,809	720,618	0,060	0,118
-632,795	-62,545	-0,171	-0,052
-631,780	800,000	-0,031	-0,090
-630,765	-200,000	0,003	-0,080
-629,751	236,743	0,068	-0,083
-628,736	800,000	0,037	-0,081
-627,722	-200,000	0,010	0,090
-626,707	-95,433	0,051	-0,010
-625,692	153,722	0,074	0,074
-624,678	287,502	0,029	0,039
-623,663	-150,873	-0,164	-0,009
-622,649	140,275	-0,044	-0,042
-621,634	800,000	-0,028	-0,070
-620,619	236,618	-0,065	-0,078
-619,605	800,000	0,045	0,118
-618,590	172,946	0,150	0,159
-617,576	-200,000	0,003	0,094
-616,561	800,000	-0,008	0,025
-615,546	39,948	-0,050	-0,033
-614,532	69,088	-0,187	-0,140
-613,517	60,373	0,072	-0,052
-612,503	-200,000	-0,006	0,044
-611,488	-200,000	0,017	0,138
-610,474	-200,000	0,003	0,093
-609,459	-200,000	-0,007	0,061
-608,444	404,997	-0,040	0,062
-607,430	-148,631	-0,033	0,002
-606,415	-109,369	-0,024	0,004
-605,401	155,240	0,046	-0,046
-604,386	-92,254	0,130	-0,027
-603,371	68,912	0,145	-0,109
-602,357	755,692	0,039	-0,077
-601,342	800,000	-0,034	-0,090
-600,328	-86,980	-0,112	-0,025
-599,313	71,325	-0,051	-0,039
-598,298	-200,000	0,018	-0,097
-597,284	491,523	0,033	0,055
-596,269	319,518	-0,032	-0,045
-595,255	-200,000	-0,013	0,082
-594,240	39,018	-0,064	0,042
-593,225	133,177	0,026	0,025
-592,211	-35,098	-0,114	-0,045
-591,196	125,461	0,056	0,052
-590,182	27,844	0,074	-0,045
-589,167	-86,623	0,087	-0,019
-588,152	-200,000	0,005	0,017
-587,138	310,164	-0,038	0,052
-586,123	-200,000	0,019	-0,086
-585,109	-27,595	-0,135	0,057
-584,094	172,618	-0,077	-0,081
-583,079	137,394	0,052	-0,050
-582,065	98,420	-0,029	0,024
-581,050	-136,711	0,133	-0,011
-580,036	97,203	-0,135	-0,113
-579,021	-26,522	0,053	0,022
-578,006	41,841	-0,055	0,036
-576,992	6,126	0,032	0,017
-575,977	-91,005	-0,142	0,030
-574,963	18,029	0,093	0,054
-573,948	-158,734	0,143	-0,006
-572,934	-64,563	-0,069	0,020
-571,919	-49,805	-0,073	-0,025
-570,904	-200,000	-0,060	-0,240
-569,890	426,155	-0,038	-0,060
-568,875	748,767	-0,074	0,147
-567,861	64,230	0,142	-0,104
-566,846	-200,000	0,024	-0,089
-565,831	-104,354	-0,102	0,017
-564,817	-162,439	0,082	-0,003
-563,802	800,000	-0,035	-0,090
-562,788	53,365	0,062	-0,043
-561,773	-106,777	-0,089	0,014
-560,758	-152,609	0,124	0,006
-559,744	581,397	-0,050	0,090
-558,729	81,747	-0,100	-0,079
-557,715	25,400	0,071	0,043
-556,700	-137,677	0,079	0,006
-555,685	800,000	0,034	-0,087
-554,671	-168,564	0,174	-0,005
-553,656	-200,000	-0,002	-0,085
-552,642	800,000	0,058	0,146
-551,627	69,846	-0,085	-0,064
-550,612	274,308	-0,030	0,039
-549,598	262,682	-0,073	-0,092
-548,583	161,267	-0,079	0,081
-547,569	-97,370	-0,043	0,008
-546,554	-121,418	-0,148	0,018
-545,539	-200,000	-0,026	0,117
-544,525	800,000	0,011	0,034
-543,510	50,590	-0,075	0,052
-542,496	-200,000	-0,026	-0,154
-541,481	109,568	0,048	0,042
-540,466	-1,631	-0,125	0,064
-539,452	371,678	0,088	0,131
-538,437	210,268	0,070	-0,081
-537,423	-200,000	-0,009	-0,040
-536,408	216,640	-0,092	-0,108
-535,393	438,238	0,038	-0,061
-534,379	90,793	-0,126	-0,103
-533,364	-200,000	0,010	0,075
-532,350	10,406	0,134	0,074
-531,335	27,940	0,081	0,050
-530,321	-200,000	0,032	-0,119
-529,306	800,000	0,055	-0,139
-528,291	800,000	-0,091	-0,187
-527,277	-150,907	-0,124	-0,007
-526,262	62,141	-0,160	-0,117
-525,248	800,000	-0,020	-0,042
-524,233	-79,900	-0,072	0,017
-523,218	-85,518	0,054	-0,012
-522,204	403,761	0,025	-0,038
-521,189	601,388	-0,080	-0,147
-520,175	-200,000	0,022	0,197
-519,160	553,917	-0,080	-0,140
-518,145	56,647	0,044	-0,031
-517,131	598,689	-0,055	0,100
-516,116	50,670	0,136	0,094
-515,102	212,102	-0,044	0,051
-514,087	386,109	-0,005	-0,007
-513,072	-200,000	0,018	0,106
-512,058	-21,876	0,068	-0,030
-511,043	800,000	0,047	-0,140
-510,029	658,456	0,026	0,049
-509,014	163,005	-0,115	-0,118
-507,999	-200,000	0,004	-0,221
-506,985	-16,910	0,090	-0,042
-505,970	146,920	0,043	-0,043
-504,956	-200,000	0,008	0,129
-503,941	214,729	-0,118	-0,137
-502,926	-200,000	-0,015	-0,085
-501,912	764,659	0,058	0,116
-500,897	306,863	-0,096	-0,131
-499,883	-37,467	-0,136	-0,053
-498,868	345,226	-0,081	0,117
-497,853	150,677	-0,013	0,013
-496,839	102,994	-0,078	0,067
-495,824	-200,000	-0,039	0,146
-494,810	-72,999	0,202	0,054
-493,795	256,171	-0,048	0,060
-492,781	106,937	-0,034	-0,029
-491,766	413,354	0,062	-0,097
-490,751	338,082	0,093	-0,132
-489,737	-200,000	0,007	-0,047
-488,722	-78,339	0,199	0,049
-487,708	-200,000	0,020	0,076
-486,693	93,376	-0,069	0,057
-485,678	-200,000	0,001	-0,146
-484,664	354,580	0,023	-0,033
-483,649	17,722	-0,117	-0,068
-482,635	-97,040	0,125	-0,024
-481,620	-107,884	-0,017	-0,003
-480,605	-200,000	-0,015	0,134
-479,591	266,326	-0,098	0,125
-478,576	282,269	0,024	0,032
-477,562	800,000	0,012	0,033
-476,547	76,943	-0,116	-0,090
-475,532	-38,195	0,114	0,044
-474,518	548,485	0,053	0,094
-473,503	498,312	-0,063	0,106
-472,489	800,000	-0,017	0,046
-471,474	800,000	-0,029	0,080
-470,459	-138,069	0,094	0,008
-469,445	-200,000	0,010	0,041
-468,430	800,000	0,018	0,052
-467,416	800,000	0,085	0,222
-466,401	739,664	0,063	0,125
-465,386	613,425	0,091	0,167
-464,372	153,825	0,068	0,068
-463,357	277,504	0,010	-0,013
-462,343	71,356	0,085	-0,065
-461,328	-118,070	-0,030	0,004
-460,313	800,000	0,025	-0,062
-459,299	195,336	0,026	0,029
-458,284	-144,808	0,048	0,003
-457,270	-200,000	-0,022	-0,088
-456,255	33,907	-0,084	-0,053
-455,241	-200,000	0,008	0,054
-454,226	-1,231	0,079	-0,041
-453,211	-200,000	0,016	0,126
-452,197	346,838	0,065	-0,093
-451,182	800,000	0,033	0,092
-450,168	-200,000	0,041	0,181
-449,153	584,042	-0,028	0,050
-448,138	-75,429	-0,078	0,020
-447,124	800,000	-0,051	0,149
-446,109	388,279	0,063	0,095
-445,095	-200,000	-0,012	0,104
-444,080	-189,850	0,047	0,000
-443,065	-18,278	-0,045	0,021
-442,051	90,431	-0,073	0,059
-441,036	-200,000	0,002	-0,134
-440,022	-51,307	-0,125	-0,042
-439,007	800,000	0,030	0,085
-437,992	-200,000	-0,025	0,146
-436,978	665,540	0,062	0,118
-435,963	187,306	-0,037	0,041
-434,949	6,433	0,062	-0,033
-433,934	71,079	-0,098	0,074
-432,919	-200,000	0,021	0,080
-431,905	127,750	-0,081	-0,075
-430,890	-200,000	0,006	-0,125
-429,876	-200,000	0,007	0,156
-428,861	800,000	-0,016	0,050
-427,846	-200,000	0,004	0,040
-426,832	-200,000	0,002	-0,024
-425,817	-79,071	0,057	0,014
-424,803	-135,293	-0,036	-0,003
-423,788	800,000	-0,032	0,092
-422,773	-200,000	-0,009	0,031
-421,759	64,448	-0,057	-0,042
-420,744	310,647	0,032	-0,044
-419,730	71,055	0,125	-0,094
-418,715	292,304	-0,061	0,081
-417,701	-117,647	0,069	0,009
-416,686	758,426	-0,021	0,041
-415,671	-136,374	0,096	-0,008
-414,657	661,440	0,031	0,059
-413,642	171,299	0,033	0,035
-412,628	-126,589	-0,025	0,003
-411,613	-143,477	0,081	0,006
-410,598	-200,000	-0,010	-0,041
-409,584	-0,767	-0,038	0,020
-408,569	216,143	0,033	-0,039
-407,555	800,000	-0,014	-0,040
-406,540	800,000	-0,044	0,118
-405,525	-200,000	-0,016	-0,098
-404,511	788,905	-0,145	-0,291
-403,496	316,393	-0,085	-0,116
-402,482	-45,292	0,021	0,008
-401,467	-40,977	0,049	0,018
-400,452	34,660	0,032	0,020
-399,438	800,000	0,017	0,036
-398,423	270,444	-0,039	-0,050
-397,409	-100,588	0,093	-0,017
-396,394	-122,844	0,061	0,007
-395,379	-200,000	-0,015	-0,084
-394,365	-100,110	-0,064	0,012
-393,350	-200,000	0,009	-0,087
-392,336	-146,760	0,134	-0,008
-391,321	-200,000	-0,022	0,129
-390,306	-146,595	-0,101	-0,006
-389,292	142,180	-0,076	-0,073
-388,277	-200,000	0,014	-0,049
-387,263	-75,652	0,106	0,027
-386,248	489,509	-0,018	0,030
-385,233	61,455	-0,081	0,058
-384,219	136,933	-0,075	0,071
-383,204	262,783	-0,051	-0,064
-382,190	18,961	0,047	0,028
-381,175	752,486	0,041	0,082
-380,160	800,000	-0,018	-0,042
-379,146	-200,000	0,012	0,059
-378,131	800,000	0,058	0,143
-377,117	-114,916	0,118	-0,016
-376,102	-86,900	0,078	-0,017
-375,088	800,000	0,035	0,081
-374,073	194,704	0,090	-0,099
-373,058	-200,000	-0,008	-0,102
-372,044	6,603	-0,031	0,017
-371,029	81,707	0,061	0,048
-370,015	441,356	0,052	0,083
-369,000	80,930	-0,034	0,026
-367,985	800,000	0,078	-0,174
-366,971	-51,396	-0,026	-0,009
-365,956	-8,935	0,088	-0,043
-364,942	-158,269	0,069	-0,003
-363,927	-125,753	-0,070	0,008
-362,912	-200,000	0,032	0,185
-361,898	291,199	0,023	-0,031
-360,883	205,813	-0,053	0,060
-359,869	88,528	0,093	-0,075
-358,854	800,000	-0,037	0,112
-357,839	-66,548	-0,056	0,016
-356,825	172,138	-0,066	0,069
-355,810	-32,254	0,029	-0,012
-354,796	-200,000	-0,006	-0,072
-353,781	-32,289	-0,051	-0,021
-352,766	446,229	0,065	-0,104
-351,752	-200,000	0,016	0,088
-350,737	43,933	0,132	0,088
-349,723	800,000	-0,033	-0,074
-348,708	127,171	-0,083	-0,076
-347,693	65,392	-0,153	0,112
-346,679	-12,049	0,040	-0,019
-345,664	-149,818	-0,114	-0,006
-344,650	800,000	-0,028	-0,064
-343,635	-31,066	0,095	-0,039
-342,620	74,746	0,053	0,040
-341,606	411,643	-0,053	0,082
-340,591	41,602	-0,089	0,059
-339,577	-200,000	-0,036	-0,170
-338,562	-40,142	-0,079	0,030
-337,548	800,000	-0,015	-0,034
-336,533	-111,754	0,099	-0,014
-335,518	50,000	0,130	-0,089
-334,504	-93,838	0,082	0,016
-333,489	768,708	-0,038	-0,075
-332,475	-200,000	-0,004	0,037
-331,460	-200,000	-0,004	0,038
-330,445	-200,000	0,008	-0,094
-329,431	145,427	-0,106	0,102
-328,416	381,384	0,040	-0,060
-327,402	-200,000	0,017	0,208
-326,387	685,452	0,034	0,064
-325,372	-200,000	0,003	-0,061
-324,358	-200,000	0,004	-0,047
-323,343	309,871	-0,037	-0,051
-322,329	-102,595	0,153	0,026
-321,314	-8,450	-0,096	0,047
-320,299	566,021	0,004	-0,006
-319,285	2,350	-0,121	-0,063
-318,270	2,161	-0,070	0,037
-317,256	-67,388	0,117	0,033
-316,241	140,561	0,046	-0,044
-315,226	163,232	0,123	-0,125
-314,212	414,684	0,105	0,162
-313,197	-200,000	0,017	0,084
-312,183	-200,000	0,013	0,151
-311,168	2,806	-0,023	0,012
-310,153	40,527	0,033	0,021
-309,139	-200,000	0,004	0,127
-308,124	-41,738	-0,170	0,063
-307,110	34,292	-0,107	-0,067
-306,095	228,223	0,067	0,079
-305,080	-182,558	-0,208	-0,003
-304,066	-200,000	-0,024	-0,079
-303,051	-84,942	-0,106	0,024
-302,037	-165,373	0,054	0,002
-301,022	-130,490	0,060	0,006
-300,008	399,219	-0,022	0,034
-298,993	-120,290	-0,090	0,011
-297,978	-20,323	0,108	-0,048
-296,964	253,675	-0,098	-0,122
-295,949	266,759	-0,146	-0,185
-294,935	-131,398	-0,093	-0,009
-293,920	-11,696	0,148	-0,070
-292,905	-109,975	0,120	-0,018
-291,891	-200,000	0,001	-0,008
-290,876	39,478	0,057	-0,037
-289,862	-80,462	0,065	-0,015
-288,847	-200,000	0,008	-0,054
-287,832	542,133	0,045	0,078
-286,818	69,826	-0,166	-0,124
-285,803	-50,119	0,038	0,013
-284,789	569,717	0,079	0,141
-283,774	91,221	-0,130	0,105
-282,759	-165,891	0,099	-0,003
-281,745	390,031	0,020	0,031
-280,730	-200,000	-0,001	-0,121
-279,716	-200,000	0,020	-0,095
-278,701	-26,112	0,146	-0,062
-277,686	241,480	0,082	-0,099
-276,672	263,496	0,023	0,029
-275,657	-200,000	-0,003	-0,115
-274,643	-200,000	0,002	-0,042
-273,628	-59,536	-0,083	-0,026
-272,613	800,000	-0,039	-0,113
-271,599	-200,000	0,003	0,035
-270,584	-200,000	0,023	-0,156
-269,570	-40,383	-0,060	-0,023
-268,555	65,380	-0,043	-0,031
-267,540	-28,484	-0,114	0,047
-266,526	800,000	-0,042	-0,125
-265,511	-200,000	0,002	0,038
-264,497	-122,378	0,115	-0,013
-263,482	281,139	-0,055	0,071
-262,467	455,857	-0,016	-0,025
-261,453	-34,510	0,103	0,041
-260,438	-128,524	0,057	0,006
-259,424	-101,000	-0,059	-0,010
-258,409	-88,747	-0,033	-0,007
-257,395	42,788	0,098	0,064
-256,380	36,303	-0,047	0,030
-255,365	510,604	0,045	-0,075
-254,351	-200,000	-0,019	0,079
-253,336	-67,869	0,166	-0,047
-252,322	800,000	-0,033	-0,087
-251,307	474,829	-0,066	-0,107
-250,292	55,673	-0,048	-0,034
-249,278	483,853	0,047	-0,077
-248,263	-25,196	-0,066	-0,028
-247,249	-200,000	0,012	0,070
-246,234	800,000	0,028	0,064
-245,219	143,941	0,034	-0,033
-244,205	5,329	0,084	0,045
-243,190	493,914	-0,081	-0,135
-242,176	478,336	0,071	-0,116
-241,161	800,000	-0,058	0,146
-240,146	-92,044	0,266	-0,054
-239,132	-104,524	-0,027	0,004
-238,117	-126,645	-0,142	-0,015
-237,103	800,000	0,033	0,069
-236,088	800,000	0,039	-0,089
-235,073	-95,020	0,047	0,009
-234,059	800,000	-0,020	0,044
-233,044	800,000	0,032	0,074
-232,030	179,020	-0,166	0,175
-231,015	537,500	-0,037	-0,064
-230,000	-136,568	-0,162	-0,013
-228,986	261,136	0,024	-0,030
-227,971	-130,414	-0,045	-0,004
-226,957	53,566	-0,035	-0,024
-225,942	69,208	0,031	-0,023
-224,927	-19,560	0,034	-0,015
-223,913	373,999	-0,056	-0,083
-222,898	362,292	-0,015	-0,022
-221,884	24,221	-0,037	0,022
-220,869	-200,000	-0,020	0,114
-219,855	-137,722	0,051	-0,004
-218,840	90,053	0,106	-0,086
-217,825	-200,000	0,010	0,141
-216,811	270,839	-0,029	0,036
-215,796	800,000	0,015	-0,031
-214,782	800,000	-0,034	-0,072
-213,767	-200,000	0,019	-0,069
-212,752	57,198	-0,045	-0,032
-211,738	269,845	-0,065	-0,083
-210,723	543,534	-0,072	0,124
-209,709	15,991	-0,057	0,032
-208,694	385,233	-0,067	0,100
-207,679	800,000	0,014	0,039
-206,665	-7,804	-0,068	0,033
-205,650	800,000	0,035	0,095
-204,636	800,000	-0,065	0,148
-203,621	-200,000	0,025	0,137
-202,606	-21,571	-0,103	0,045
-201,592	800,000	0,040	-0,088
-200,577	625,149	0,043	0,079
-199,563	800,000	-0,011	-0,036
-198,548	368,296	-0,014	0,021
-197,533	-101,096	-0,032	-0,006
-196,519	800,000	0,086	0,184
-195,504	800,000	-0,025	0,054
-194,490	293,074	-0,034	-0,045
-193,475	800,000	-0,069	-0,177
-192,460	800,000	0,042	-0,098
-191,446	-60,911	-0,049	-0,015
-190,431	-200,000	-0,009	-0,069
-189,417	800,000	0,061	0,180
-188,402	2,078	-0,084	-0,043
-187,387	-160,108	-0,152	-0,006
-186,373	-53,313	-0,061	-0,020
-185,358	-164,402	0,197	0,006
-184,344	60,330	-0,054	-0,038
-183,329	-172,872	0,069	0,002
-182,315	488,464	-0,088	-0,146
-181,300	-200,000	0,011	-0,126
-180,285	337,123	-0,066	-0,092
-179,271	56,619	-0,113	0,079
-178,256	80,450	0,077	-0,059
-177,242	72,165	-0,091	0,068
-176,227	-87,081	0,123	0,027
-175,212	-96,926	0,144	0,027
-174,198	-159,523	-0,133	-0,005
-173,183	-149,917	0,060	-0,003
-172,169	69,205	0,098	-0,073
-171,154	124,666	0,052	0,048
-170,139	-111,797	0,113	0,016
-169,125	-200,000	0,018	0,150
-168,110	70,038	-0,090	0,067
-167,096	-200,000	0,000	0,008
-166,081	363,657	0,055	0,079
-165,066	-112,527	-0,049	-0,007
-164,052	-200,000	-0,002	0,051
-163,037	115,266	-0,053	0,047
-162,023	-51,275	0,032	-0,011
-161,008	-139,886	0,039	-0,003
-159,993	59,671	0,046	0,033
-158,979	-57,421	0,099	-0,031
-157,964	-75,042	0,007	0,002
-156,950	5,855	-0,098	0,052
-155,935	800,000	-0,005	-0,011
-154,920	138,447	0,077	0,073
-153,906	196,549	0,081	0,089
-152,891	56,644	0,098	-0,068
-151,877	48,786	-0,037	0,025
-150,862	-88,165	-0,106	0,023
-149,847	110,712	0,042	-0,036
-148,833	262,227	0,101	-0,126
-147,818	-95,904	0,174	0,033
-146,804	281,234	0,043	0,055
-145,789	800,000	-0,029	-0,058
-144,775	-15,724	-0,053	-0,024
-143,760	387,258	-0,101	-0,151
-142,745	800,000	-0,017	0,051
-141,731	-56,208	-0,064	0,020
-140,716	-30,672	0,101	0,041
-139,702	91,376	-0,129	0,104
-138,687	15,304	-0,104	0,058
-137,672	-85,209	0,130	-0,029
-136,658	-72,744	-0,125	0,033
-135,643	114,341	-0,043	-0,037
-134,629	-200,000	0,018	0,061
-133,614	226,157	-0,061	0,071
-132,599	267,975	0,077	0,098
-131,585	-6,519	0,135	0,066
-130,570	-133,430	-0,133	-0,012
-129,556	800,000	0,066	-0,138
-128,541	-154,334	0,073	-0,003
-127,526	199,434	0,034	-0,037
-126,512	248,886	-0,056	0,068
-125,497	-200,000	-0,034	0,121
-124,483	158,341	-0,075	0,075
-123,468	449,091	0,074	0,118
-122,453	-200,000	0,006	-0,070
-121,439	-200,000	0,033	-0,169
-120,424	-198,834	0,057	0,000
-119,410	144,237	0,079	0,076
-118,395	-62,450	0,057	-0,017
-117,380	73,945	0,021	-0,016
-116,366	588,417	-0,035	-0,062
-115,351	-200,000	0,009	0,079
-114,337	800,000	-0,048	0,103
-113,322	800,000	0,010	-0,027
-112,307	-153,958	0,090	0,004
-111,293	71,307	-0,090	-0,067
-110,278	-200,000	0,009	-0,120
-109,264	-200,000	-0,023	-0,076
-108,249	800,000	-0,014	-0,033
-107,234	-192,827	-0,060	0,000
-106,220	-71,441	-0,055	0,015
-105,205	198,672	-0,105	-0,116
-104,191	41,325	-0,026	0,017
-103,176	186,853	0,129	0,138
-102,162	-200,000	-0,022	-0,130
-101,147	800,000	0,018	0,058
-100,132	223,483	0,060	0,070
-99,118	218,446	-0,059	-0,068
-98,103	-87,938	0,103	0,022
-97,089	-200,000	0,012	0,138
-96,074	800,000	0,057	0,117
-95,059	-200,000	-0,003	0,076
-94,045	800,000	-0,012	-0,031
-93,030	96,821	-0,065	-0,054
-92,016	401,051	-0,031	0,047
-91,001	-29,957	-0,107	-0,043
-89,986	800,000	-0,031	0,070
-88,972	391,267	0,097	0,146
-87,957	-200,000	0,039	-0,126
-86,943	-147,401	0,106	0,006
-85,928	109,166	-0,097	0,083
-84,913	-16,725	-0,014	0,006
-83,899	40,045	-0,184	-0,118
-82,884	53,115	0,022	-0,015
-81,870	-45,722	0,051	0,018
-80,855	-15,692	0,072	0,033
-79,840	60,171	0,053	0,038
-78,826	-14,703	-0,087	-0,040
-77,811	-16,823	-0,075	0,034
-76,797	-59,036	0,039	-0,012
-75,782	336,533	-0,073	0,102
-74,767	34,814	-0,025	-0,016
-73,753	19,324	0,122	0,070
-72,738	84,398	0,096	-0,075
-71,724	144,929	0,038	-0,037
-70,709	-101,507	0,128	0,022
-69,694	-44,848	0,067	-0,024
-68,680	-37,264	0,046	0,018
-67,665	-62,982	-0,099	0,029
-66,651	229,480	-0,118	0,138
-65,636	-93,061	0,203	-0,040
-64,622	-12,887	-0,130	0,061
-63,607	40,586	-0,098	0,063
-62,592	549,129	-0,022	-0,038
-61,578	105,868	-0,029	0,024
-60,563	118,229	0,087	0,077
-59,549	800,000	-0,089	0,187
-58,534	4,673	-1,950	-1,024
-57,519	-200,000	-0,213	-0,919
-56,505	-200,000	-1,289	-4,900
-55,490	110,162	0,737	0,635
-54,476	800,000	5,333	11,893
-53,461	-200,000	18,273	302,860
-52,446	800,000	736,213	2282,283
-51,432	547,899	1652,776	2849,633
-50,417	109,945	1638,933	1410,133
-49,403	74,569	1289,382	971,603
-48,388	30,855	1029,454	631,021
-47,373	20,032	991,788	572,155
-46,359	17,871	979,245	557,798
-45,344	14,701	975,436	545,210
-44,330	15,061	973,739	545,421
-43,315	14,471	972,041	542,515
-42,300	14,367	971,012	541,581
-41,286	14,425	969,905	541,130
-40,271	14,397	968,950	540,485
-39,257	14,394	967,954	539,900
-38,242	14,412	967,271	539,554
-37,227	14,411	966,278	538,975
-36,213	14,337	965,538	538,303
-35,198	14,360	964,554	537,806
-34,184	14,401	963,834	537,516
-33,169	14,341	962,783	536,715
-32,154	14,393	961,785	536,304
-31,140	14,333	961,122	535,721
-30,125	14,415	960,319	535,518
-29,111	14,449	959,375	535,079
-28,096	14,381	958,919	534,582
-27,082	14,380	958,070	534,085
-26,067	14,364	957,410	533,645
-25,052	14,381	956,492	533,166
-24,038	14,418	955,930	532,952
-23,023	14,390	955,364	532,526
-22,009	14,406	954,709	532,189
-20,994	14,374	954,127	531,741
-19,979	14,419	953,302	531,406
-18,965	14,421	952,707	531,059
-17,950	14,437	952,110	530,757
-16,936	14,357	951,476	530,124
-15,921	14,299	950,847	529,570
-14,906	14,337	950,143	529,278
-13,892	14,298	949,412	528,725
-12,877	14,259	948,745	528,208
-11,863	14,284	948,182	527,953
-10,848	14,261	947,665	527,570
-9,833	14,328	947,298	527,560
-8,819	14,327	946,700	527,200
-7,804	14,296	946,058	526,724
-6,790	14,287	945,506	526,367
-5,775	14,317	944,895	526,103
-4,760	14,310	944,243	525,697
-3,746	14,257	943,680	525,194
-2,731	14,125	942,944	524,343
-1,717	14,145	942,183	523,965
-0,702	14,135	941,489	523,524
0,313	13,917	941,008	523,357
1,327	17,109	938,665	532,086
2,342	25,969	794,413	473,810
3,356	22,403	459,819	268,758
4,371	-4,382	316,776	156,453
5,386	-8,355	298,589	143,406
6,400	-10,219	292,381	138,547
7,415	-10,805	290,167	136,903
8,429	-10,884	288,678	136,111
9,444	-11,110	287,905	135,512
10,459	-10,865	287,176	135,398
11,473	-10,767	286,449	135,138
12,488	-10,748	286,011	134,939
13,502	-10,881	285,457	134,535
14,517	-10,779	285,134	134,471
15,531	-10,826	284,645	134,182
16,546	-10,850	284,345	134,005
17,561	-10,841	283,901	133,793
18,575	-10,821	283,613	133,664
19,590	-10,971	283,153	133,291
20,604	-10,836	282,981	133,329
21,619	-11,022	282,635	132,974
22,634	-10,819	282,168	132,938
23,648	-10,927	281,830	132,663
24,663	-10,942	281,512	132,487
25,677	-11,005	281,380	132,352
26,692	-10,641	281,075	132,546
27,707	-10,998	280,851	132,087
28,721	-10,941	280,638	132,029
29,736	-10,884	280,231	131,881
30,750	-10,797	280,003	131,845
31,765	-10,860	279,802	131,678
32,780	-10,877	279,501	131,508
33,794	-10,862	279,310	131,422
34,809	-10,932	278,951	131,174
35,823	-10,952	278,742	131,045
36,838	-10,908	278,360	130,896
37,853	-10,986	278,251	130,758
38,867	-10,917	277,932	130,662
39,882	-10,909	277,776	130,586
40,896	-10,843	277,472	130,493
41,911	-10,889	277,198	130,309
42,926	-10,883	276,995	130,207
43,940	-10,825	276,702	130,113
44,955	-11,067	276,648	129,848
45,969	-10,960	276,346	129,796
46,984	-11,219	276,061	129,406
47,999	-11,220	275,668	129,209
49,013	-11,371	275,438	128,948
50,028	-11,426	275,133	128,742
51,042	-11,522	274,950	128,555
52,057	-11,686	274,658	128,253
53,071	-11,605	274,455	128,223
54,086	-11,375	274,285	128,348
55,101	-11,261	274,070	128,341
56,115	-10,956	273,965	128,566
57,130	-10,829	273,852	128,620
58,144	-10,771	273,524	128,508
59,159	-10,677	273,329	128,493
60,174	-10,782	273,141	128,296
61,188	-10,839	272,972	128,151
62,203	-10,807	272,708	128,046
63,217	-10,925	272,471	127,813
64,232	-10,915	272,363	127,762
65,247	-10,712	271,967	127,752
66,261	-10,831	271,803	127,554
67,276	-10,859	271,605	127,423
68,290	-10,981	271,084	127,054
69,305	-11,023	270,836	126,888
70,320	-10,962	270,702	126,871
71,334	-10,835	270,531	126,896
72,349	-10,852	270,360	126,789
73,363	-10,716	270,235	126,844
74,378	-10,768	269,938	126,646
75,393	-10,913	269,953	126,508
76,407	-10,874	269,666	126,398
77,422	-10,933	269,359	126,189
78,436	-10,721	269,006	126,207
79,451	-10,895	268,852	125,963
80,466	-10,762	268,477	125,898
81,480	-11,085	268,432	125,571
82,495	-11,039	268,119	125,456
83,509	-10,859	267,932	125,521
84,524	-10,914	267,735	125,367
85,539	-11,010	267,608	125,209
86,553	-10,948	267,323	125,121
87,568	-10,758	267,110	125,183
88,582	-10,976	266,958	124,902
89,597	-11,061	266,814	124,746
90,611	-10,866	266,541	124,784
91,626	-10,824	266,471	124,779
92,641	-10,881	266,320	124,645
93,655	-10,857	265,993	124,503
94,670	-10,827	265,761	124,410
95,684	-10,863	265,469	124,230
96,699	-10,903	265,358	124,131
97,714	-10,755	265,119	124,141
98,728	-11,003	265,025	123,863
99,743	-11,071	264,720	123,648
100,757	-11,034	264,537	123,585
101,772	-10,823	264,268	123,638
102,787	-10,788	263,970	123,519
103,801	-10,945	263,912	123,339
104,816	-10,811	263,667	123,334
105,830	-10,891	263,796	123,312
106,845	-10,925	263,524	123,143
107,860	-10,832	263,225	123,075
108,874	-10,853	263,054	122,966
109,889	-10,931	262,744	122,741
110,903	-10,972	262,616	122,633
111,918	-10,863	262,261	122,553
112,933	-10,826	262,138	122,518
113,947	-10,705	261,950	122,527
114,962	-10,766	261,796	122,390
115,976	-10,826	261,555	122,213
116,991	-10,830	261,313	122,086
118,006	-10,961	261,335	121,969
119,020	-10,798	261,053	121,971
120,035	-10,762	260,903	121,921
121,049	-10,666	260,763	121,929
122,064	-10,715	260,626	121,811
123,079	-10,813	260,161	121,497
124,093	-10,773	260,137	121,510
125,108	-11,027	259,811	121,123
126,122	-11,186	259,511	120,833
127,137	-11,254	259,441	120,730
128,151	-11,060	259,144	120,751
129,166	-11,056	259,077	120,713
130,181	-10,876	258,719	120,693
131,195	-10,961	258,523	120,516
132,210	-10,905	258,454	120,522
133,224	-10,756	258,353	120,595
134,239	-10,865	258,163	120,400
135,254	-11,022	257,972	120,164
136,268	-11,094	257,736	119,980
137,283	-11,073	257,398	119,830
138,297	-11,203	257,282	119,653
139,312	-11,140	257,003	119,566
140,327	-11,110	256,910	119,539
141,341	-10,755	256,808	119,789
142,356	-10,827	256,805	119,715
143,370	-10,799	256,487	119,579
144,385	-10,632	256,361	119,655
145,400	-10,657	256,040	119,473
146,414	-10,687	255,911	119,377
147,429	-10,565	255,787	119,414
148,443	-10,688	255,613	119,215
149,458	-10,585	255,287	119,141
150,473	-10,539	255,184	119,123
151,487	-10,764	254,944	118,806
152,502	-10,776	254,776	118,707
153,516	-10,536	254,462	118,756
154,531	-10,613	254,430	118,664
155,546	-10,636	254,217	118,535
156,560	-10,583	254,110	118,520
157,575	-10,810	253,932	118,231
158,589	-10,799	253,697	118,121
159,604	-10,704	253,484	118,093
160,619	-10,770	253,363	117,969
161,633	-10,673	252,994	117,870
162,648	-10,713	253,028	117,841
163,662	-10,690	252,996	117,835
164,677	-10,506	252,651	117,821
165,692	-10,565	252,556	117,716
166,706	-10,589	252,341	117,584
167,721	-10,498	252,022	117,502
168,735	-10,510	251,968	117,457
169,750	-10,677	251,818	117,235
170,764	-10,660	251,677	117,173
171,779	-10,740	251,696	117,104
172,794	-10,685	251,444	117,022
173,808	-10,647	251,160	116,912
174,823	-10,920	250,991	116,592
175,837	-11,292	250,651	116,109
176,852	-10,857	250,567	116,427
177,867	-10,564	250,459	116,614
178,881	-10,445	250,369	116,662
179,896	-10,503	250,065	116,461
180,910	-10,472	249,965	116,430
181,925	-10,541	249,729	116,252
182,940	-10,706	249,645	116,064
183,954	-10,742	249,440	115,928
184,969	-10,609	249,243	115,938
185,983	-10,821	249,181	115,720
186,998	-10,566	248,978	115,830
188,013	-10,692	248,723	115,595
189,027	-10,559	248,524	115,604
190,042	-10,568	248,461	115,556
191,056	-10,674	248,301	115,383
192,071	-10,598	248,091	115,338
193,086	-10,873	247,872	114,997
194,100	-10,669	247,806	115,127
195,115	-10,408	247,325	115,110
196,129	-10,609	247,365	114,951
197,144	-10,739	247,164	114,740
198,159	-10,826	246,989	114,576
199,173	-10,602	246,699	114,617
200,188	-10,697	246,643	114,502
201,202	-10,908	246,269	114,143
202,217	-11,057	246,089	113,926
203,232	-10,966	245,804	113,859
204,246	-10,908	245,930	113,956
205,261	-10,328	245,610	114,276
206,275	-11,492	245,315	113,168
207,290	-6,899	247,126	117,807
208,304	0,935	249,773	125,613
209,319	3,992	250,539	128,544
210,334	4,547	250,343	128,895
211,348	4,704	250,486	129,088
212,363	4,866	250,202	129,065
213,377	5,127	250,117	129,227
214,392	5,038	249,946	129,053
215,407	4,832	249,766	128,777
216,421	4,852	249,497	128,645
217,436	5,074	249,444	128,790
218,450	5,084	249,413	128,770
219,465	4,690	249,188	128,316
220,480	4,522	248,906	128,020
221,494	4,639	248,720	128,010
222,509	4,677	248,523	127,929
223,523	4,436	248,418	127,664
224,538	4,349	248,105	127,420
225,553	4,504	247,976	127,470
226,567	4,464	247,841	127,356
227,582	4,512	247,652	127,287
228,596	4,569	247,512	127,251
229,611	4,256	247,320	126,883
230,626	4,236	247,036	126,709
231,640	4,288	246,876	126,659
232,655	4,373	246,786	126,671
233,669	4,170	246,646	126,422
234,684	4,210	246,269	126,250
235,699	4,352	246,484	126,465
236,713	4,571	246,247	126,512
237,728	4,483	245,931	126,266
238,742	4,195	245,814	125,960
239,757	4,014	245,585	125,683
240,772	4,299	245,456	125,839
241,786	4,287	245,246	125,710
242,801	4,058	245,262	125,520
243,815	4,174	245,095	125,518
244,830	4,537	244,776	125,639
245,844	4,735	244,640	125,718
246,859	4,245	244,671	125,325
247,874	4,379	244,322	125,244
248,888	4,399	244,127	125,149
249,903	4,292	244,214	125,096
250,917	4,440	243,994	125,091
251,932	4,670	243,839	125,187
252,947	4,511	243,716	124,985
253,961	4,294	243,484	124,679
254,976	4,457	243,265	124,687
255,990	4,404	243,247	124,624
257,005	4,216	242,961	124,315
258,020	4,170	242,807	124,188
259,034	4,307	242,688	124,226
260,049	4,322	242,556	124,160
261,063	4,095	242,346	123,859
262,078	4,168	242,185	123,824
263,093	4,536	241,996	124,012
264,107	4,467	242,039	123,967
265,122	4,249	241,879	123,699
266,136	4,421	241,571	123,669
267,151	4,497	241,432	123,647
268,166	4,279	241,231	123,359
269,180	4,230	240,914	123,146
270,195	4,639	241,095	123,555
271,209	5,159	241,041	123,931
272,224	4,315	240,682	123,063
273,239	4,071	240,291	122,658
274,253	4,155	240,269	122,703
275,268	4,254	240,217	122,743
276,282	4,350	240,101	122,750
277,297	4,158	239,835	122,450
278,312	4,258	239,586	122,392
279,326	4,467	239,670	122,589
280,341	4,433	239,341	122,383
281,355	4,397	239,351	122,350
282,370	4,509	239,172	122,335
283,384	4,385	239,046	122,162
284,399	4,083	238,812	121,793
285,414	4,029	238,576	121,619
286,428	4,437	238,493	121,888
287,443	4,022	238,448	121,526
288,457	4,278	238,214	121,598
289,472	4,426	238,073	121,632
290,487	4,622	237,878	121,675
291,501	3,994	237,698	121,079
292,516	3,983	237,608	121,013
293,530	3,940	237,352	120,839
294,545	4,324	237,390	121,149
295,560	4,529	237,105	121,154
296,574	4,013	236,872	120,619
297,589	4,131	236,720	120,623
298,603	4,331	236,771	120,795
299,618	4,623	236,569	120,909
300,633	4,379	236,519	120,683
301,647	4,347	236,431	120,602
302,662	4,954	236,233	120,964
303,676	4,840	236,048	120,770
304,691	4,575	235,865	120,459
305,706	4,764	235,888	120,607
306,720	4,652	235,714	120,420
307,735	4,512	235,477	120,180
308,749	4,211	235,313	119,851
309,764	4,220	234,996	119,686
310,779	4,203	234,884	119,605
311,793	3,811	234,691	119,192
312,808	3,667	234,362	118,903
313,822	3,547	234,353	118,794
314,837	3,986	234,270	119,082
315,852	4,422	234,057	119,300
316,866	4,263	234,189	119,234
317,881	4,587	233,919	119,336
318,895	4,469	233,762	119,153
319,910	4,499	233,650	119,109
320,925	4,091	233,321	118,617
321,939	4,264	233,254	118,705
322,954	4,487	233,365	118,923
323,968	4,480	233,129	118,787
324,983	4,439	232,856	118,605
325,997	4,530	232,660	118,565
327,012	4,534	232,640	118,547
328,027	4,314	232,447	118,270
329,041	4,643	232,373	118,473
330,056	5,067	232,453	118,828
331,070	5,191	232,169	118,767
332,085	4,850	231,858	118,337
333,100	4,351	231,830	117,931
334,114	4,322	231,537	117,750
335,129	4,793	231,469	118,064
336,143	4,719	231,420	117,972
337,158	4,768	231,118	117,844
338,173	4,597	230,833	117,559
339,187	4,510	230,847	117,489
340,202	4,534	230,740	117,443
341,216	4,588	230,619	117,411
342,231	4,360	230,501	117,168
343,246	4,422	230,180	117,041
344,260	4,335	230,203	116,977
345,275	4,613	230,185	117,168
346,289	4,733	229,965	117,136
347,304	4,781	229,744	117,049
348,319	4,801	229,534	116,947
349,333	4,521	229,411	116,662
350,348	4,383	229,261	116,471
351,362	4,544	229,043	116,472
352,377	3,842	228,856	115,838
353,392	3,902	228,723	115,806
354,406	4,264	228,501	115,955
355,421	196,203	1319,241	1397,240
356,435	157,387	1452,102	1397,210
