DTS Sentinel unit serial number:	SN410029Multiplexer serial number:	ORYXHardware model number:	OX2-SRSoftware version number:	ORYX F/W v4,00 Oryx Data Collector v3.7.2.0data status	okinstallation	B5 Nyhavnadifferential loss correction	single-endedforward channel	channel 2reverse channel	N/Adate	2023/12/14time	04:17:13forward acquisition time	300,00reverse acquisition time	0,00gamma	499,1914k internal	0,3156k external	0,3156temperature offset calibration	1,0000default loss term (dB/km)	0,3820temperature slope calibration	1,0000multiplexer offset coefficient	1,0000multiplexer slope coefficient	1,0000fibre end	0,00T internal ref (°C)	7,93T ext. ref 1 (°C)	-8,50T ext. ref 2 (°C)	-8,58length (m)	temperature (°C)	Stokes	anti-Stokes-744,400	61,092	0,113	0,083
-743,385	-150,694	-0,381	-0,021
-742,371	259,442	0,130	0,165
-741,356	-190,979	-0,302	0,002
-740,342	-11,581	0,113	0,055
-739,327	-97,507	-0,334	0,063
-738,312	-57,066	0,139	-0,045
-737,298	89,578	-0,363	-0,299
-736,283	87,929	0,106	0,087
-735,269	-163,382	-0,310	-0,011
-734,254	800,000	0,046	0,135
-733,239	14,407	-0,577	-0,331
-732,225	-50,927	0,343	0,118
-731,210	78,455	-0,115	-0,091
-730,196	-200,000	0,011	-0,083
-729,181	128,836	0,013	0,013
-728,167	-200,000	-0,042	-0,139
-727,152	410,673	-0,060	0,094
-726,137	123,748	0,028	0,026
-725,123	302,277	-0,103	-0,140
-724,108	-110,284	-0,147	0,022
-723,094	-200,000	-0,008	-0,068
-722,079	47,650	-0,122	-0,084
-721,064	584,509	-0,058	-0,106
-720,050	-185,213	-0,080	-0,001
-719,035	41,592	-0,011	-0,007
-718,021	-2,771	-0,091	-0,047
-717,006	-11,850	-0,058	0,028
-715,991	-56,073	-0,182	0,059
-714,977	-63,594	-0,120	-0,036
-713,962	-200,000	-0,013	-0,114
-712,948	-80,221	0,141	-0,034
-711,933	800,000	-0,022	-0,055
-710,918	-5,247	-0,047	0,024
-709,904	28,740	-0,082	0,051
-708,889	412,150	0,078	-0,123
-707,875	258,784	-0,037	-0,047
-706,860	-52,886	0,019	-0,006
-705,845	-200,000	0,014	0,115
-704,831	-200,000	0,017	0,152
-703,816	136,151	0,061	0,059
-702,802	20,390	0,042	0,025
-701,787	-75,681	-0,029	-0,008
-700,772	315,722	-0,071	-0,099
-699,758	-164,528	0,065	0,002
-698,743	-126,159	0,112	-0,012
-697,729	75,027	-0,024	0,019
-696,714	37,593	0,122	-0,079
-695,699	-200,000	0,005	-0,054
-694,685	-175,130	-0,081	0,002
-693,670	800,000	0,013	-0,038
-692,656	62,964	-0,060	-0,044
-691,641	50,858	0,071	0,050
-690,627	-3,783	0,176	0,090
-689,612	60,793	-0,122	-0,089
-688,597	37,667	0,047	0,030
-687,583	-91,862	-0,034	0,007
-686,568	800,000	-0,035	-0,106
-685,554	597,609	-0,047	0,087
-684,539	800,000	-0,017	0,035
-683,524	127,297	-0,047	-0,044
-682,510	115,948	-0,057	0,052
-681,495	235,559	-0,101	-0,123
-680,481	338,162	0,086	-0,124
-679,466	-5,682	-0,103	-0,052
-678,451	774,924	0,051	0,104
-677,437	88,098	0,064	0,052
-676,422	357,726	-0,053	0,079
-675,408	212,885	0,031	0,037
-674,393	-200,000	-0,031	0,000
-673,378	32,733	-0,062	0,039
-672,364	-93,796	0,110	-0,022
-671,349	53,305	-0,007	-0,005
-670,335	174,713	0,036	0,038
-669,320	769,168	0,030	0,060
-668,305	-52,086	0,096	0,033
-667,291	177,375	0,037	-0,040
-666,276	-60,465	0,076	-0,024
-665,262	800,000	-0,029	-0,062
-664,247	-200,000	0,014	-0,113
-663,232	4,998	-0,067	-0,036
-662,218	235,996	0,014	-0,017
-661,203	-200,000	-0,006	0,044
-660,189	800,000	-0,041	-0,096
-659,174	-200,000	-0,029	0,112
-658,159	-54,129	0,067	-0,022
-657,145	-61,862	-0,067	0,020
-656,130	800,000	-0,018	0,039
-655,116	348,063	0,021	0,031
-654,101	387,739	0,051	-0,077
-653,086	20,188	-0,084	-0,050
-652,072	-200,000	0,034	-0,243
-651,057	150,937	0,027	-0,027
-650,043	-151,319	-0,062	-0,003
-649,028	127,221	0,111	0,104
-648,014	139,408	-0,156	0,151
-646,999	-200,000	0,026	0,093
-645,984	94,117	0,082	0,068
-644,970	-200,000	-0,011	-0,111
-643,955	-200,000	-0,013	0,106
-642,941	234,915	0,015	-0,018
-641,926	120,046	-0,047	-0,043
-640,911	800,000	0,032	0,074
-639,897	-23,514	0,070	0,031
-638,882	14,063	-0,090	-0,052
-637,868	256,688	0,031	0,039
-636,853	9,846	-0,099	-0,055
-635,838	266,431	0,047	-0,060
-634,824	53,226	-0,018	0,012
-633,809	-200,000	0,005	-0,038
-632,795	800,000	-0,044	0,130
-631,780	274,923	0,003	-0,005
-630,765	155,212	-0,074	-0,075
-629,751	-136,228	-0,149	-0,013
-628,736	-139,335	-0,139	0,011
-627,722	-121,287	0,045	0,005
-626,707	-9,862	0,060	-0,029
-625,692	800,000	-0,046	-0,094
-624,678	-68,490	0,044	0,012
-623,663	330,533	0,050	-0,071
-622,649	17,485	-0,061	0,036
-621,634	249,898	-0,027	0,034
-620,619	119,735	-0,063	0,058
-619,605	-56,553	0,085	0,028
-618,590	-127,573	0,128	0,013
-617,576	-200,000	0,004	-0,017
-616,561	-15,624	0,054	0,025
-615,546	800,000	0,028	0,061
-614,532	-5,799	-0,118	-0,059
-613,517	-35,816	0,029	-0,011
-612,503	800,000	-0,042	0,095
-611,488	158,347	0,079	-0,081
-610,474	800,000	0,013	0,037
-609,459	-87,906	-0,058	0,013
-608,444	-200,000	-0,010	-0,128
-607,430	-200,000	-0,003	-0,022
-606,415	162,270	-0,054	-0,055
-605,401	-200,000	-0,002	0,029
-604,386	245,989	-0,045	0,056
-603,371	-148,035	0,104	0,006
-602,357	335,274	-0,057	0,081
-601,342	700,553	0,038	-0,074
-600,328	-86,937	-0,072	-0,016
-599,313	332,092	-0,063	0,089
-598,298	-23,257	-0,078	0,034
-597,284	596,419	-0,046	0,084
-596,269	190,649	-0,069	-0,076
-595,255	-13,237	0,045	0,021
-594,240	149,262	-0,094	0,094
-593,225	-200,000	0,005	-0,082
-592,211	-29,705	-0,068	0,028
-591,196	-200,000	0,019	0,201
-590,182	117,537	0,073	-0,066
-589,167	509,155	0,033	0,057
-588,152	-35,603	-0,145	-0,057
-587,138	85,453	0,068	0,055
-586,123	-200,000	-0,001	-0,040
-585,109	800,000	-0,032	-0,081
-584,094	800,000	-0,018	0,039
-583,079	405,416	0,048	-0,075
-582,065	397,078	-0,055	0,084
-581,050	321,893	0,066	0,092
-580,036	800,000	-0,089	0,207
-579,021	-200,000	0,003	-0,070
-578,006	-74,106	-0,107	-0,028
-576,992	-8,970	0,056	0,028
-575,977	-64,165	0,007	-0,002
-574,963	60,270	0,045	0,032
-573,948	465,005	0,023	-0,037
-572,934	800,000	0,017	-0,047
-571,919	-141,488	-0,163	-0,012
-570,904	48,123	-0,039	-0,027
-569,890	203,373	0,051	0,058
-568,875	406,133	0,021	0,033
-567,861	-200,000	0,020	0,093
-566,846	-200,000	0,003	0,034
-565,831	800,000	-0,020	0,058
-564,817	-200,000	0,005	-0,115
-563,802	56,323	0,063	-0,045
-562,788	65,242	-0,109	0,080
-561,773	-200,000	0,011	0,050
-560,758	-200,000	0,006	0,020
-559,744	-30,369	-0,044	-0,018
-558,729	-41,568	0,088	-0,033
-557,715	80,745	0,040	0,031
-556,700	545,790	-0,038	-0,066
-555,685	-107,278	-0,170	-0,027
-554,671	-54,724	-0,076	-0,025
-553,656	630,501	0,044	0,082
-552,642	166,093	0,065	0,068
-551,627	800,000	0,015	-0,045
-550,612	-52,027	-0,125	-0,042
-549,598	-70,842	-0,014	0,004
-548,583	35,676	0,130	-0,083
-547,569	575,545	-0,016	0,029
-546,554	-142,134	-0,033	-0,002
-545,539	38,891	0,211	0,137
-544,525	-148,651	0,146	-0,009
-543,510	-121,140	0,042	-0,005
-542,496	30,511	0,095	-0,059
-541,481	800,000	0,011	-0,022
-540,466	-200,000	0,011	0,110
-539,452	484,953	0,094	0,156
-538,437	79,933	-0,084	-0,066
-537,423	28,429	0,090	0,056
-536,408	5,867	-0,074	-0,040
-535,393	800,000	0,027	0,079
-534,379	-64,405	-0,100	0,030
-533,364	695,634	0,056	0,109
-532,350	105,258	-0,071	-0,061
-531,335	-24,652	0,115	-0,050
-530,321	202,696	-0,037	-0,042
-529,306	420,617	-0,034	-0,053
-528,291	-141,869	-0,036	0,003
-527,277	11,655	-0,076	-0,042
-526,262	-2,267	-0,031	-0,016
-525,248	-87,096	0,025	-0,006
-524,233	-60,673	-0,094	0,029
-523,218	-200,000	-0,001	-0,040
-522,204	444,916	-0,080	-0,129
-521,189	-10,952	-0,075	0,036
-520,175	-13,797	-0,022	0,010
-519,160	-200,000	-0,001	0,137
-518,145	-200,000	0,026	-0,117
-517,131	-39,977	-0,139	-0,053
-516,116	-200,000	0,019	0,106
-515,102	800,000	0,028	-0,085
-514,087	412,481	0,052	0,081
-513,072	87,165	-0,081	-0,065
-512,058	41,749	-0,045	0,030
-511,043	131,046	0,116	-0,109
-510,029	-40,555	0,066	0,025
-509,014	381,702	0,045	-0,068
-507,999	-200,000	0,021	-0,088
-506,985	247,423	0,042	0,052
-505,970	-141,765	-0,103	-0,007
-504,956	800,000	-0,036	0,102
-503,941	611,735	-0,070	-0,128
-502,926	275,402	0,078	0,101
-501,912	354,262	0,113	0,164
-500,897	-200,000	-0,005	-0,032
-499,883	-25,491	-0,019	-0,008
-498,868	207,084	-0,056	0,064
-497,853	104,277	-0,077	-0,066
-496,839	-200,000	0,026	-0,163
-495,824	-200,000	-0,018	-0,126
-494,810	136,504	0,045	0,043
-493,795	800,000	-0,024	0,075
-492,781	-200,000	0,034	0,183
-491,766	172,876	0,106	-0,111
-490,751	-200,000	0,019	-0,085
-489,737	-106,890	0,046	0,007
-488,722	-41,426	0,080	0,030
-487,708	800,000	-0,020	0,058
-486,693	-31,399	-0,100	0,041
-485,678	137,808	0,053	-0,051
-484,664	146,059	-0,229	-0,225
-483,649	800,000	0,051	0,125
-482,635	478,442	0,060	-0,100
-481,620	-70,498	-0,121	0,033
-480,605	-200,000	-0,001	0,041
-479,591	-139,043	0,107	-0,008
-478,576	-39,298	-0,114	0,043
-477,562	800,000	-0,025	-0,068
-476,547	96,279	-0,028	0,023
-475,532	17,062	0,136	0,078
-474,518	-102,899	0,318	-0,055
-473,503	438,285	-0,038	-0,061
-472,489	393,298	0,022	-0,034
-471,474	246,189	-0,056	0,069
-470,459	-200,000	0,014	-0,063
-469,445	-13,465	0,038	0,018
-468,430	-200,000	-0,005	-0,169
-467,416	-200,000	0,004	-0,094
-466,401	-67,921	-0,119	0,034
-465,386	380,306	-0,053	0,079
-464,372	-39,768	0,016	0,006
-463,357	-200,000	-0,008	-0,034
-462,343	196,309	-0,032	-0,036
-461,328	109,337	0,082	-0,072
-460,313	-200,000	0,006	0,026
-459,299	-95,464	-0,012	-0,002
-458,284	-48,856	0,046	-0,016
-457,270	800,000	0,063	0,140
-456,255	-88,967	-0,047	-0,010
-455,241	-84,667	-0,239	-0,055
-454,226	78,635	0,078	-0,061
-453,211	-84,150	0,024	-0,005
-452,197	-69,347	0,136	-0,038
-451,182	-200,000	0,001	0,041
-450,168	-200,000	-0,016	0,231
-449,153	607,580	0,017	-0,031
-448,138	-200,000	0,016	0,061
-447,124	-200,000	-0,014	-0,074
-446,109	249,187	-0,015	0,019
-445,095	262,111	0,054	0,068
-444,080	133,481	-0,070	0,066
-443,065	184,128	-0,014	0,015
-442,051	19,992	0,052	0,031
-441,036	170,187	0,043	0,045
-440,022	800,000	0,012	-0,037
-439,007	144,811	-0,046	0,045
-437,992	16,803	0,048	0,028
-436,978	-145,510	0,144	-0,009
-435,963	244,024	-0,041	0,050
-434,949	149,086	-0,086	0,085
-433,934	800,000	0,034	-0,078
-432,919	800,000	-0,052	-0,110
-431,905	125,614	0,046	-0,042
-430,890	-134,631	0,177	0,016
-429,876	54,202	-0,018	0,013
-428,861	214,236	-0,089	-0,103
-427,846	9,109	-0,074	-0,041
-426,832	250,752	-0,046	-0,057
-425,817	-53,849	0,063	-0,021
-424,803	-48,779	-0,064	-0,022
-423,788	555,633	0,013	-0,022
-422,773	-200,000	-0,031	-0,132
-421,759	800,000	0,027	0,068
-420,744	239,883	-0,042	-0,051
-419,730	207,565	0,049	-0,056
-418,715	255,177	-0,041	0,051
-417,701	-200,000	0,020	-0,068
-416,686	156,543	0,066	-0,067
-415,671	-17,483	0,189	-0,086
-414,657	-76,038	-0,079	0,020
-413,642	-84,389	0,029	-0,007
-412,628	87,259	-0,081	-0,065
-411,613	800,000	0,066	-0,148
-410,598	171,297	-0,036	-0,038
-409,584	191,406	0,094	-0,103
-408,569	-111,098	0,152	-0,022
-407,555	72,643	-0,036	-0,028
-406,540	133,461	0,043	0,041
-405,525	-82,992	0,044	0,010
-404,511	-200,000	-0,016	0,202
-403,496	-200,000	-0,023	-0,083
-402,482	686,277	0,084	-0,161
-401,467	800,000	-0,012	-0,030
-400,452	-117,116	-0,114	0,015
-399,438	800,000	0,012	-0,036
-398,423	258,790	0,089	0,112
-397,409	-75,611	0,076	-0,019
-396,394	-200,000	0,023	-0,084
-395,379	-54,662	-0,040	-0,013
-394,365	-106,962	0,049	0,008
-393,350	-200,000	0,006	-0,024
-392,336	-200,000	0,020	0,096
-391,321	71,464	-0,082	-0,062
-390,306	-15,010	-0,096	0,044
-389,292	-200,000	0,014	0,061
-388,277	377,004	0,045	0,067
-387,263	800,000	0,023	-0,050
-386,248	9,283	0,031	-0,017
-385,233	236,004	-0,022	-0,027
-384,219	132,622	-0,057	-0,054
-383,204	254,180	0,063	-0,079
-382,190	-73,043	-0,092	0,024
-381,175	722,963	-0,030	-0,058
-380,160	-90,927	0,088	0,018
-379,146	800,000	-0,011	0,029
-378,131	-200,000	-0,030	0,117
-377,117	425,940	0,058	-0,091
-376,102	-58,472	0,093	0,029
-375,088	800,000	0,013	0,033
-374,073	-86,894	0,104	-0,023
-373,058	800,000	-0,021	0,050
-372,044	13,177	-0,013	-0,007
-371,029	-74,005	-0,077	-0,020
-370,015	-35,254	-0,064	0,025
-369,000	-130,681	-0,163	-0,016
-367,985	163,709	0,077	-0,079
-366,971	-200,000	-0,008	-0,042
-365,956	-200,000	-0,002	-0,034
-364,942	800,000	0,023	-0,067
-363,927	-200,000	-0,013	-0,078
-362,912	-39,906	-0,078	-0,029
-361,898	-45,369	-0,015	-0,005
-360,883	358,841	-0,048	0,070
-359,869	-72,120	0,060	0,016
-358,854	800,000	-0,059	-0,138
-357,839	-200,000	-0,025	0,087
-356,825	80,845	0,091	0,071
-355,810	800,000	0,018	-0,041
-354,796	91,598	-0,043	-0,035
-353,781	-25,259	-0,066	0,028
-352,766	-174,911	0,096	0,002
-351,752	-70,889	0,104	-0,028
-350,737	32,286	0,105	-0,066
-349,723	97,081	0,056	-0,047
-348,708	-200,000	0,020	0,136
-347,693	75,932	-0,064	0,049
-346,679	-32,775	-0,082	0,033
-345,664	261,805	0,015	0,019
-344,650	135,968	-0,074	-0,070
-343,635	295,914	-0,064	-0,085
-342,620	344,164	0,018	0,026
-341,606	-35,726	0,077	-0,030
-340,591	10,801	-0,149	-0,082
-339,577	6,684	-0,041	-0,022
-338,562	800,000	0,020	-0,052
-337,548	-200,000	0,011	0,076
-336,533	-37,995	0,085	-0,033
-335,518	-200,000	-0,006	-0,095
-334,504	-0,569	0,041	-0,021
-333,489	-84,120	0,054	-0,012
-332,475	-200,000	0,003	-0,056
-331,460	48,549	-0,073	-0,049
-330,445	-43,228	-0,021	-0,008
-329,431	-79,178	0,110	-0,027
-328,416	52,014	0,071	0,049
-327,402	322,965	-0,052	0,072
-326,387	-200,000	0,022	0,116
-325,372	-144,752	-0,085	0,006
-324,358	-98,328	-0,053	-0,010
-323,343	-200,000	-0,002	0,083
-322,329	18,110	0,138	0,080
-321,314	800,000	0,076	0,172
-320,299	199,550	0,094	0,105
-319,285	-124,619	-0,028	-0,003
-318,270	-200,000	-0,031	0,125
-317,256	114,888	-0,073	-0,064
-316,241	198,176	0,050	-0,055
-315,226	54,084	0,076	0,053
-314,212	-200,000	-0,008	-0,033
-313,197	9,313	-0,117	-0,064
-312,183	639,530	0,037	-0,069
-311,168	160,987	-0,063	0,064
-310,153	800,000	-0,088	-0,192
-309,139	39,794	-0,029	0,019
-308,124	583,115	0,018	0,032
-307,110	-110,803	0,107	0,016
-306,095	304,204	0,021	-0,028
-305,080	-81,514	-0,162	0,038
-304,066	-137,552	0,088	0,007
-303,051	-200,000	-0,016	-0,185
-302,037	193,235	-0,061	0,067
-301,022	4,271	0,076	0,040
-300,008	800,000	0,083	0,191
-298,993	180,793	0,090	-0,096
-297,978	-88,659	-0,079	-0,017
-296,964	800,000	-0,046	0,112
-295,949	800,000	0,040	0,087
-294,935	-115,039	0,064	0,009
-293,920	187,041	-0,038	0,042
-292,905	-29,712	0,102	-0,042
-291,891	-200,000	0,002	-0,073
-290,876	399,489	0,046	0,071
-289,862	-200,000	-0,009	-0,126
-288,847	800,000	0,023	-0,059
-287,832	222,858	-0,103	-0,120
-286,818	317,068	-0,044	-0,060
-285,803	-143,644	-0,081	0,005
-284,789	-79,839	0,066	-0,016
-283,774	-200,000	-0,005	-0,081
-282,759	-39,425	-0,175	-0,066
-281,745	231,036	-0,031	0,037
-280,730	800,000	0,015	-0,032
-279,716	546,659	0,034	0,058
-278,701	562,101	0,020	0,034
-277,686	289,162	-0,067	0,088
-276,672	206,815	0,007	0,008
-275,657	18,801	0,119	0,069
-274,643	-21,656	-0,035	-0,015
-273,628	-44,995	-0,200	-0,072
-272,613	272,416	0,035	-0,045
-271,599	-18,857	0,126	-0,056
-270,584	292,241	0,056	0,074
-269,570	44,826	0,079	0,053
-268,555	294,161	0,066	0,088
-267,540	207,150	0,028	0,031
-266,526	-200,000	-0,002	-0,155
-265,511	171,648	0,004	0,004
-264,497	53,633	0,073	-0,050
-263,482	-200,000	0,021	-0,083
-262,467	371,620	0,063	0,093
-261,453	800,000	0,059	0,133
-260,438	800,000	-0,029	0,082
-259,424	580,236	0,025	0,044
-258,409	800,000	0,020	-0,043
-257,395	243,286	-0,054	0,065
-256,380	800,000	0,028	0,079
-255,365	-97,154	0,138	0,026
-254,351	-8,298	-0,003	0,002
-253,336	147,478	-0,076	-0,074
-252,322	2,703	-0,103	0,054
-251,307	-107,368	0,027	0,004
-250,292	-2,091	-0,137	-0,069
-249,278	800,000	-0,023	0,067
-248,263	344,762	0,051	-0,072
-247,249	800,000	0,076	0,192
-246,234	391,514	0,045	0,068
-245,219	-118,890	-0,103	-0,013
-244,205	800,000	0,038	0,093
-243,190	343,710	0,015	-0,022
-242,176	216,748	0,069	0,080
-241,161	-21,287	0,131	0,058
-240,146	284,212	-0,076	0,099
-239,132	-56,523	0,074	0,024
-238,117	36,043	-0,040	0,025
-237,103	800,000	0,007	-0,015
-236,088	-200,000	0,011	-0,082
-235,073	-37,632	-0,082	-0,031
-234,059	-200,000	-0,000	0,140
-233,044	-4,589	0,038	-0,019
-232,030	594,693	-0,047	0,084
-231,015	800,000	-0,018	0,041
-230,000	82,140	-0,083	0,065
-228,986	51,770	-0,153	-0,105
-227,971	-112,079	0,031	0,004
-226,957	800,000	0,029	0,078
-225,942	-200,000	0,005	-0,069
-224,927	80,395	0,100	-0,078
-223,913	93,492	-0,037	-0,030
-222,898	800,000	-0,018	-0,048
-221,884	134,868	-0,123	0,116
-220,869	115,530	0,141	0,125
-219,855	-200,000	0,012	-0,067
-218,840	487,825	-0,019	-0,032
-217,825	-200,000	-0,008	0,148
-216,811	-200,000	-0,027	-0,099
-215,796	43,767	-0,091	-0,060
-214,782	-200,000	-0,039	0,179
-213,767	318,519	0,076	0,104
-212,752	-120,366	0,110	-0,013
-211,738	800,000	0,074	0,154
-210,723	64,027	-0,091	0,066
-209,709	800,000	-0,035	-0,073
-208,694	1,506	-0,044	0,023
-207,679	800,000	0,039	-0,092
-206,665	-146,157	0,112	0,007
-205,650	-6,213	0,076	-0,037
-204,636	197,631	-0,009	-0,010
-203,621	107,766	-0,072	0,062
-202,606	346,897	0,096	-0,138
-201,592	47,122	-0,045	0,030
-200,577	422,266	-0,035	-0,054
-199,563	-200,000	0,005	-0,040
-198,548	800,000	-0,032	-0,065
-197,533	-94,114	0,100	0,020
-196,519	-148,807	0,088	0,005
-195,504	-76,312	-0,166	-0,042
-194,490	-131,538	-0,064	0,006
-193,475	549,642	-0,047	-0,082
-192,460	800,000	-0,040	-0,114
-191,446	32,807	0,032	-0,020
-190,431	800,000	0,013	0,032
-189,417	-200,000	-0,010	-0,105
-188,402	-148,325	-0,129	0,008
-187,387	49,939	-0,198	-0,135
-186,373	-24,481	0,048	0,020
-185,358	-200,000	-0,021	-0,091
-184,344	209,549	-0,044	0,050
-183,329	800,000	0,052	-0,139
-182,315	135,923	0,013	-0,012
-181,300	588,921	-0,044	-0,079
-180,285	-57,071	-0,218	-0,069
-179,271	210,659	0,086	-0,098
-178,256	207,027	0,047	-0,053
-177,242	-200,000	0,126	-0,000
-176,227	-130,970	0,097	-0,009
-175,212	135,574	0,126	0,119
-174,198	58,612	-0,051	-0,036
-173,183	-133,538	-0,050	0,004
-172,169	72,726	-0,088	0,066
-171,154	254,617	0,120	-0,148
-170,139	-80,796	-0,015	0,004
-169,125	800,000	-0,025	-0,056
-168,110	-200,000	-0,012	-0,141
-167,096	-200,000	0,016	-0,074
-166,081	-92,824	0,090	0,018
-165,066	-200,000	-0,006	-0,049
-164,052	-200,000	-0,009	0,033
-163,037	-130,576	-0,124	0,012
-162,023	-87,087	0,110	0,024
-161,008	800,000	-0,065	0,177
-159,993	-20,827	-0,095	-0,042
-158,979	-32,382	-0,141	0,056
-157,964	107,540	0,096	0,082
-156,950	-200,000	0,008	0,131
-155,935	-11,588	-0,039	-0,018
-154,920	-161,236	0,044	0,002
-153,906	800,000	-0,021	0,066
-152,891	-200,000	0,006	0,110
-151,877	-200,000	0,007	0,024
-150,862	-200,000	0,011	0,065
-149,847	-51,704	-0,062	-0,021
-148,833	80,212	0,008	-0,006
-147,818	-43,212	0,081	0,030
-146,804	-200,000	0,024	-0,187
-145,789	800,000	0,053	0,143
-144,775	-200,000	0,025	-0,088
-143,760	485,809	0,008	0,013
-142,745	-12,937	0,011	0,005
-141,731	-126,003	0,092	-0,010
-140,716	34,416	0,184	0,115
-139,702	-200,000	0,008	0,045
-138,687	-68,342	0,139	0,039
-137,672	228,868	0,057	-0,068
-136,658	228,483	-0,071	0,083
-135,643	800,000	0,031	0,079
-134,629	-200,000	-0,036	-0,128
-133,614	-200,000	0,011	-0,040
-132,599	95,046	0,152	0,124
-131,585	-200,000	-0,017	-0,105
-130,570	-200,000	-0,005	-0,109
-129,556	-200,000	0,005	-0,016
-128,541	-22,066	-0,092	-0,040
-127,526	-200,000	0,003	-0,146
-126,512	-103,557	0,159	0,027
-125,497	362,538	0,028	-0,041
-124,483	-107,298	-0,062	0,010
-123,468	-51,032	0,112	0,038
-122,453	91,613	0,091	-0,074
-121,439	-132,135	-0,048	0,004
-120,424	-200,000	0,006	0,020
-119,410	800,000	-0,008	-0,020
-118,395	-200,000	0,012	0,075
-117,380	26,802	-0,053	-0,032
-116,366	800,000	0,021	0,047
-115,351	220,811	0,055	0,063
-114,337	-48,205	0,125	-0,043
-113,322	8,937	0,036	-0,019
-112,307	168,822	0,047	0,048
-111,293	752,878	0,071	0,139
-110,278	-104,599	-0,072	0,012
-109,264	-45,515	0,093	0,033
-108,249	-106,126	-0,132	-0,021
-107,234	594,779	-0,020	0,036
-106,220	-112,489	0,058	0,008
-105,205	-200,000	0,011	-0,074
-104,191	-200,000	-0,010	0,094
-103,176	22,090	0,156	0,091
-102,162	58,521	0,107	-0,075
-101,147	-13,474	-0,160	-0,074
-100,132	123,271	0,091	0,082
-99,118	118,104	0,129	-0,114
-98,103	794,902	0,048	-0,095
-97,089	-200,000	-0,006	-0,021
-96,074	-148,763	-0,028	0,002
-95,059	159,765	0,096	-0,097
-94,045	-98,430	0,119	-0,022
-93,030	-32,457	0,108	0,043
-92,016	-200,000	0,006	-0,057
-91,001	35,485	0,077	-0,049
-89,986	-83,347	0,083	-0,019
-88,972	-200,000	0,006	0,058
-87,957	21,086	-0,043	-0,025
-86,943	217,484	-0,040	-0,046
-85,928	130,736	-0,080	-0,074
-84,913	-200,000	-0,015	-0,122
-83,899	-51,305	0,079	0,026
-82,884	-85,449	0,087	0,019
-81,870	-200,000	-0,007	0,030
-80,855	515,951	-0,060	0,101
-79,840	428,532	-0,040	-0,063
-78,826	526,558	-0,036	-0,061
-77,811	59,053	-0,028	-0,020
-76,797	-200,000	-0,002	-0,103
-75,782	-200,000	0,014	0,086
-74,767	592,646	-0,025	-0,044
-73,753	178,553	-0,124	0,130
-72,738	80,163	-0,088	0,068
-71,724	-81,283	-0,095	0,022
-70,709	75,045	-0,102	-0,077
-69,694	112,842	0,054	0,047
-68,680	88,006	0,036	0,029
-67,665	-200,000	0,053	0,241
-66,651	125,554	-0,049	0,044
-65,636	99,175	0,060	-0,050
-64,622	100,346	-0,024	-0,020
-63,607	-105,373	0,185	-0,030
-62,592	-98,400	-0,109	-0,020
-61,578	220,126	-0,088	0,101
-60,563	94,345	0,131	0,106
-59,549	-12,856	-0,123	-0,057
-58,534	77,497	-2,666	-2,036
-57,519	79,196	0,435	-0,335
-56,505	-200,000	-1,718	-5,569
-55,490	486,706	1,187	1,951
-54,476	800,000	5,246	11,364
-53,461	-200,000	22,287	347,698
-52,446	800,000	759,650	2292,781
-51,432	513,292	1644,053	2762,246
-50,417	96,855	1606,754	1321,348
-49,403	64,542	1264,228	913,717
-48,388	22,855	1016,717	596,699
-47,373	19,518	984,101	566,535
-46,359	12,993	971,161	537,736
-45,344	8,561	968,023	521,466
-44,330	9,023	965,965	521,849
-43,315	8,010	964,189	517,561
-42,300	7,977	963,175	516,888
-41,286	7,968	962,217	516,323
-40,271	7,944	961,039	515,592
-39,257	7,971	960,109	515,162
-38,242	7,916	959,393	514,577
-37,227	7,940	958,420	514,114
-36,213	7,917	957,854	513,714
-35,198	7,942	956,562	513,082
-34,184	8,060	955,887	513,083
-33,169	7,933	955,270	512,319
-32,154	8,022	954,195	512,008
-31,140	8,036	953,273	511,540
-30,125	8,042	952,513	511,131
-29,111	7,972	951,775	510,488
-28,096	7,991	951,179	510,209
-27,082	7,992	950,504	509,831
-26,067	7,967	949,735	509,320
-25,052	7,928	948,985	508,770
-24,038	7,929	948,143	508,302
-23,023	7,911	947,636	507,954
-22,009	7,942	946,919	507,646
-20,994	7,977	946,393	507,458
-19,979	7,976	945,893	507,165
-18,965	8,004	945,051	506,783
-17,950	7,949	944,394	506,237
-16,936	7,925	943,820	505,832
-15,921	7,908	943,167	505,406
-14,906	7,882	942,339	504,859
-13,892	7,893	941,827	504,600
-12,877	7,827	941,327	504,104
-11,863	7,800	940,575	503,595
-10,848	7,838	939,994	503,385
-9,833	7,941	939,624	503,495
-8,819	7,928	938,797	502,989
-7,804	7,810	938,341	502,349
-6,790	7,821	937,711	502,028
-5,775	7,908	937,174	501,997
-4,760	7,945	936,402	501,681
-3,746	7,929	935,942	501,363
-2,731	7,761	935,246	500,440
-1,717	7,659	934,730	499,820
-0,702	7,734	933,797	499,538
0,313	7,560	933,210	499,427
1,327	10,965	930,893	508,875
2,342	19,522	779,131	448,324
3,356	14,339	447,489	249,672
4,371	-11,966	312,345	146,297
5,386	-15,588	294,900	134,451
6,400	-17,741	288,772	129,512
7,415	-17,628	285,955	128,349
8,429	-18,401	284,229	126,808
9,444	-18,478	283,352	126,330
10,459	-18,470	282,798	126,080
11,473	-18,481	282,064	125,731
12,488	-18,176	281,690	125,848
13,502	-18,378	281,370	125,498
14,517	-18,113	280,713	125,450
15,531	-18,220	280,243	125,125
16,546	-18,052	280,032	125,182
17,561	-18,033	279,566	124,980
18,575	-18,108	279,484	124,860
19,590	-18,021	278,947	124,693
20,604	-18,004	278,687	124,581
21,619	-18,170	278,277	124,229
22,634	-17,971	278,036	124,300
23,648	-17,933	277,642	124,149
24,663	-17,933	277,350	124,007
25,677	-17,980	277,201	123,885
26,692	-17,930	276,839	123,760
27,707	-17,828	276,623	123,748
28,721	-17,979	276,301	123,450
29,736	-18,065	276,128	123,281
30,750	-17,866	275,582	123,214
31,765	-18,001	275,521	123,049
32,780	-17,926	275,257	122,990
33,794	-17,973	275,059	122,846
34,809	-18,095	274,882	122,642
35,823	-18,055	274,480	122,489
36,838	-18,142	274,332	122,331
37,853	-17,954	273,969	122,334
38,867	-17,766	273,744	122,399
39,882	-18,161	273,666	121,983
40,896	-18,059	273,366	121,934
41,911	-17,931	273,001	121,879
42,926	-17,891	272,800	121,816
43,940	-18,141	272,560	121,465
44,955	-17,914	272,348	121,571
45,969	-18,035	272,255	121,406
46,984	-17,946	272,119	121,418
47,999	-18,044	271,889	121,213
49,013	-17,821	271,571	121,267
50,028	-17,749	271,334	121,218
51,042	-17,807	271,068	121,034
52,057	-17,765	270,770	120,929
53,071	-17,701	270,621	120,911
54,086	-17,821	270,342	120,665
55,101	-17,914	270,236	120,521
56,115	-17,802	269,900	120,464
57,130	-17,802	269,591	120,315
58,144	-18,098	269,355	119,927
59,159	-18,081	268,919	119,737
60,174	-18,114	268,858	119,669
61,188	-17,816	268,620	119,827
62,203	-17,951	268,333	119,563
63,217	-17,867	268,289	119,610
64,232	-17,975	267,946	119,348
65,247	-18,014	267,665	119,176
66,261	-17,948	267,514	119,159
67,276	-17,885	267,303	119,112
68,290	-17,870	267,056	119,005
69,305	-17,836	266,841	118,929
70,320	-17,778	266,567	118,850
71,334	-17,926	266,366	118,615
72,349	-17,820	266,103	118,583
73,363	-18,173	266,014	118,213
74,378	-17,998	265,672	118,209
75,393	-18,042	265,487	118,076
76,407	-17,987	265,188	117,982
77,422	-17,838	265,091	118,063
78,436	-17,816	264,800	117,943
79,451	-17,931	264,424	117,662
80,466	-18,120	264,432	117,484
81,480	-18,016	264,109	117,424
82,495	-17,980	263,905	117,355
83,509	-17,882	263,735	117,357
84,524	-17,877	263,471	117,234
85,539	-17,823	263,311	117,201
86,553	-17,947	262,987	116,934
87,568	-17,964	262,940	116,888
88,582	-18,009	262,669	116,717
89,597	-17,894	262,371	116,677
90,611	-17,866	262,366	116,689
91,626	-17,754	261,988	116,611
92,641	-17,923	261,786	116,359
93,655	-17,786	261,629	116,401
94,670	-17,902	261,398	116,185
95,684	-17,913	260,981	115,979
96,699	-17,838	260,790	115,950
97,714	-17,806	260,876	116,007
98,728	-17,770	260,532	115,876
99,743	-17,760	260,401	115,817
100,757	-17,968	260,160	115,514
101,772	-17,741	259,942	115,609
102,787	-17,907	259,675	115,332
103,801	-17,740	259,443	115,367
104,816	-17,815	259,310	115,231
105,830	-17,798	259,245	115,207
106,845	-17,938	258,870	114,907
107,860	-17,896	258,649	114,835
108,874	-17,836	258,449	114,789
109,889	-17,680	258,113	114,766
110,903	-18,084	258,098	114,395
111,918	-17,842	257,897	114,508
112,933	-17,872	257,760	114,411
113,947	-17,788	257,433	114,329
114,962	-17,914	257,343	114,168
115,976	-18,024	257,132	113,968
116,991	-17,954	256,940	113,935
118,006	-17,843	256,682	113,907
119,020	-17,900	256,503	113,767
120,035	-17,877	256,573	113,808
121,049	-17,992	256,323	113,587
122,064	-17,876	255,976	113,524
123,079	-17,872	255,668	113,380
124,093	-17,906	255,507	113,270
125,108	-17,774	255,292	113,278
126,122	-17,789	255,205	113,217
127,137	-17,793	255,108	113,160
128,151	-17,766	254,905	113,084
129,166	-18,000	254,748	112,802
130,181	-17,903	254,452	112,744
131,195	-17,861	254,193	112,656
132,210	-17,908	253,997	112,518
133,224	-18,024	253,700	112,276
134,239	-17,997	253,639	112,263
135,254	-18,007	253,391	112,135
136,268	-17,653	253,100	112,299
137,283	-17,547	252,957	112,317
138,297	-17,795	252,731	111,994
139,312	-17,701	252,601	112,007
140,327	-17,798	252,343	111,800
141,341	-17,944	252,237	111,618
142,356	-17,703	251,933	111,679
143,370	-17,931	251,926	111,472
144,385	-17,683	251,583	111,522
145,400	-17,863	251,483	111,313
146,414	-17,780	251,137	111,221
147,429	-18,072	250,990	110,897
148,443	-17,666	250,711	111,110
149,458	-17,957	250,789	110,887
150,473	-17,896	250,493	110,798
151,487	-17,859	250,249	110,711
152,502	-17,870	250,202	110,671
153,516	-17,972	249,874	110,430
154,531	-17,775	249,648	110,488
155,546	-17,828	249,718	110,464
156,560	-17,762	249,456	110,393
157,575	-17,997	249,063	110,012
158,589	-17,816	248,867	110,067
159,604	-18,013	248,650	109,796
160,619	-17,693	248,512	109,995
161,633	-17,886	248,357	109,753
162,648	-17,754	248,439	109,892
163,662	-17,763	248,044	109,699
164,677	-17,817	248,147	109,690
165,692	-17,832	247,778	109,504
166,706	-17,854	247,596	109,395
167,721	-17,909	247,415	109,260
168,735	-17,965	247,299	109,151
169,750	-17,720	247,022	109,225
170,764	-17,705	246,930	109,187
171,779	-17,790	246,675	108,993
172,794	-17,780	246,743	109,022
173,808	-17,861	246,502	108,838
174,823	-17,719	246,329	108,870
175,837	-17,915	246,112	108,602
176,852	-17,818	245,882	108,571
177,867	-17,679	245,710	108,601
178,881	-17,692	245,568	108,518
179,896	-17,967	245,424	108,217
180,910	-17,911	245,312	108,204
181,925	-17,848	245,006	108,112
182,940	-17,961	244,946	107,982
183,954	-17,972	244,675	107,843
184,969	-17,877	244,527	107,847
185,983	-17,939	244,385	107,724
186,998	-17,720	243,947	107,702
188,013	-18,051	244,044	107,461
189,027	-17,828	243,671	107,472
190,042	-17,712	243,482	107,474
191,056	-17,924	243,453	107,278
192,071	-17,942	243,293	107,183
193,086	-17,992	243,160	107,073
194,100	-17,792	242,888	107,108
195,115	-17,938	242,595	106,849
196,129	-17,852	242,305	106,783
197,144	-17,876	242,255	106,732
198,159	-17,857	242,080	106,660
199,173	-17,904	241,852	106,512
200,188	-18,164	241,784	106,261
201,202	-17,736	241,604	106,521
202,217	-17,767	241,328	106,364
203,232	-17,595	241,177	106,429
204,246	-17,787	240,933	106,155
205,261	-18,073	240,655	105,791
206,275	-16,810	241,040	106,977
207,290	-12,336	242,893	111,452
208,304	-5,676	245,106	117,946
209,319	-2,328	245,662	120,962
210,334	-1,370	245,969	121,892
211,348	-0,394	246,198	122,799
212,363	0,094	246,208	123,195
213,377	0,642	246,167	123,614
214,392	0,835	246,196	123,777
215,407	1,343	245,819	123,994
216,421	1,180	245,853	123,866
217,436	1,220	245,772	123,848
218,450	1,176	245,574	123,700
219,465	1,492	245,451	123,886
220,480	1,417	245,255	123,715
221,494	1,263	245,178	123,539
222,509	0,913	244,882	123,093
223,523	0,605	244,548	122,662
224,538	0,689	244,295	122,593
225,553	0,502	244,135	122,349
226,567	0,398	244,109	122,240
227,582	0,572	243,891	122,262
228,596	0,608	243,808	122,239
229,611	0,693	243,579	122,182
230,626	0,306	243,446	121,790
231,640	0,515	243,278	121,865
232,655	0,513	243,009	121,717
233,669	0,666	242,859	121,756
234,684	0,417	242,585	121,405
235,699	0,531	242,632	121,511
236,713	0,668	242,334	121,461
237,728	0,458	242,290	121,259
238,742	0,509	242,221	121,254
239,757	0,525	241,929	121,111
240,772	0,518	241,762	121,010
241,786	0,444	241,739	120,929
242,801	0,595	241,447	120,893
243,815	0,579	241,320	120,806
244,830	0,598	241,172	120,736
245,844	0,732	240,860	120,677
246,859	0,542	240,879	120,523
247,874	0,667	240,743	120,545
248,888	0,627	240,502	120,382
249,903	0,592	240,364	120,274
250,917	0,570	240,400	120,263
251,932	0,864	240,207	120,391
252,947	0,597	240,009	120,068
253,961	0,623	239,710	119,928
254,976	0,500	239,506	119,717
255,990	0,767	239,388	119,861
257,005	0,666	239,408	119,779
258,020	0,470	239,240	119,529
259,034	0,538	238,972	119,438
260,049	0,687	238,784	119,452
261,063	0,615	238,624	119,304
262,078	0,501	238,529	119,156
263,093	0,528	238,433	119,118
264,107	0,579	238,180	119,021
265,122	0,683	237,956	118,981
266,136	0,747	237,916	119,002
267,151	0,620	237,814	118,840
268,166	0,507	237,676	118,670
269,180	0,748	237,367	118,695
270,195	0,761	237,290	118,657
271,209	0,632	237,258	118,528
272,224	0,549	236,978	118,312
273,239	0,510	237,031	118,298
274,253	0,627	236,699	118,214
275,268	0,351	236,518	117,896
276,282	0,627	236,206	117,946
277,297	0,330	236,344	117,772
278,312	0,635	236,158	117,908
279,326	0,740	235,990	117,896
280,341	0,850	235,644	117,798
281,355	0,725	235,677	117,707
282,370	0,449	235,558	117,421
283,384	0,551	235,329	117,376
284,399	0,539	235,104	117,243
285,414	0,635	235,023	117,268
286,428	0,605	234,920	117,183
287,443	0,624	234,723	117,089
288,457	0,773	234,561	117,113
289,472	0,773	234,471	117,058
290,487	0,558	234,384	116,837
291,501	0,578	234,087	116,694
292,516	0,674	233,960	116,695
293,530	0,636	233,946	116,648
294,545	0,754	233,836	116,674
295,560	0,625	233,602	116,447
296,574	0,746	233,384	116,422
297,589	0,702	233,157	116,264
298,603	0,773	233,149	116,305
299,618	0,947	232,962	116,336
300,633	0,754	232,819	116,105
301,647	0,809	232,719	116,087
302,662	0,943	232,496	116,068
303,676	0,920	232,491	116,038
304,691	1,061	232,116	115,949
305,706	0,839	232,085	115,752
306,720	0,832	231,997	115,693
307,735	0,779	231,786	115,536
308,749	1,030	231,684	115,668
309,764	0,774	231,506	115,372
310,779	0,942	231,208	115,342
311,793	0,839	231,126	115,212
312,808	0,892	231,065	115,212
313,822	0,803	230,969	115,086
314,837	0,894	230,733	115,028
315,852	0,992	230,550	115,001
316,866	0,992	230,487	114,959
317,881	0,851	230,365	114,781
318,895	0,908	230,127	114,695
319,910	0,956	229,905	114,611
320,925	0,744	229,945	114,459
321,939	0,891	229,607	114,392
322,954	1,040	229,539	114,462
323,968	1,056	229,444	114,416
324,983	0,945	229,333	114,266
325,997	0,936	229,186	114,176
327,012	0,757	228,935	113,905
328,027	0,940	228,690	113,912
329,041	0,967	228,710	113,932
330,056	0,951	228,647	113,878
331,070	0,994	228,516	113,835
332,085	0,872	228,241	113,596
333,100	0,811	228,015	113,428
334,114	0,847	227,851	113,364
335,129	1,014	227,683	113,395
336,143	0,908	227,585	113,256
337,158	0,998	227,531	113,287
338,173	0,882	227,323	113,086
339,187	1,156	227,217	113,230
340,202	0,948	227,151	113,031
341,216	1,000	226,883	112,926
342,231	1,123	226,725	112,929
343,246	0,883	226,791	112,772
344,260	0,901	226,531	112,646
345,275	0,889	226,471	112,597
346,289	0,865	226,312	112,490
347,304	1,050	226,133	112,530
348,319	1,105	225,963	112,476
349,333	1,133	225,743	112,378
350,348	1,124	225,551	112,265
351,362	1,214	225,581	112,337
352,377	1,153	225,387	112,185
353,392	1,031	225,238	112,011
354,406	1,060	225,140	111,973
355,421	191,659	1310,555	1374,919
356,435	153,494	1442,660	1374,751
