DTS Sentinel unit serial number:	SN410029Multiplexer serial number:	ORYXHardware model number:	OX2-SRSoftware version number:	ORYX F/W v4,00 Oryx Data Collector v3.7.2.0data status	okinstallation	B5 Nyhavnadifferential loss correction	single-endedforward channel	channel 2reverse channel	N/Adate	2023/12/12time	03:02:13forward acquisition time	300,00reverse acquisition time	0,00gamma	499,1914k internal	0,3156k external	0,3156temperature offset calibration	1,0000default loss term (dB/km)	0,3820temperature slope calibration	1,0000multiplexer offset coefficient	1,0000multiplexer slope coefficient	1,0000fibre end	0,00T internal ref (°C)	15,75T ext. ref 1 (°C)	-0,71T ext. ref 2 (°C)	-0,99length (m)	temperature (°C)	Stokes	anti-Stokes-744,400	-97,208	0,080	0,015
-743,385	-110,123	-0,369	-0,056
-742,371	-67,265	0,125	-0,036
-741,356	-62,121	-0,319	0,098
-740,342	77,256	0,073	0,057
-739,327	-46,074	-0,397	-0,144
-738,312	600,446	0,052	-0,095
-737,298	-55,981	-0,324	-0,106
-736,283	-200,000	0,008	0,042
-735,269	-163,312	-0,263	-0,009
-734,254	-98,675	0,282	0,053
-733,239	-50,222	-0,493	-0,171
-732,225	-102,277	0,160	0,028
-731,210	148,390	0,040	-0,040
-730,196	-64,131	0,130	-0,039
-729,181	-71,781	-0,189	-0,052
-728,167	454,162	0,043	-0,070
-727,152	140,621	-0,077	0,075
-726,137	-50,169	-0,075	0,026
-725,123	-138,255	-0,111	-0,009
-724,108	-200,000	0,026	-0,118
-723,094	23,752	-0,100	-0,061
-722,079	109,654	0,047	0,041
-721,064	800,000	-0,022	-0,056
-720,050	800,000	0,036	-0,076
-719,035	-200,000	-0,006	-0,027
-718,021	-104,022	0,037	0,006
-717,006	309,122	-0,042	-0,058
-715,991	-200,000	-0,019	-0,153
-714,977	-200,000	-0,018	-0,122
-713,962	800,000	-0,031	-0,079
-712,948	148,589	-0,022	-0,021
-711,933	800,000	-0,031	-0,084
-710,918	-200,000	0,004	0,020
-709,904	800,000	-0,088	-0,203
-708,889	-136,811	-0,096	0,008
-707,875	-170,679	0,074	-0,002
-706,860	175,106	-0,027	-0,029
-705,845	78,664	0,039	0,031
-704,831	106,646	0,028	-0,024
-703,816	31,548	0,047	0,030
-702,802	-200,000	-0,019	-0,077
-701,787	800,000	-0,035	-0,085
-700,772	782,356	-0,050	-0,101
-699,758	30,621	-0,034	0,021
-698,743	-149,147	-0,042	0,002
-697,729	-200,000	0,020	0,067
-696,714	-200,000	0,002	-0,092
-695,699	616,595	-0,097	-0,179
-694,685	-200,000	-0,004	-0,234
-693,670	-60,894	-0,034	0,011
-692,656	-200,000	0,015	0,170
-691,641	-151,049	-0,034	-0,002
-690,627	-110,011	-0,057	0,009
-689,612	19,477	-0,110	0,065
-688,597	-12,079	-0,101	0,048
-687,583	1,494	-0,119	0,063
-686,568	137,723	0,013	-0,013
-685,554	-34,873	-0,069	0,028
-684,539	-56,810	0,072	0,023
-683,524	243,716	-0,085	0,106
-682,510	70,021	0,123	0,093
-681,495	-36,045	-0,253	0,100
-680,481	-200,000	-0,036	0,189
-679,466	800,000	-0,031	-0,079
-678,451	70,440	-0,135	0,103
-677,437	238,540	0,035	-0,043
-676,422	-44,382	-0,065	0,024
-675,408	-60,313	0,123	0,038
-674,393	3,127	-0,064	-0,034
-673,378	237,348	-0,060	-0,073
-672,364	41,322	-0,099	-0,065
-671,349	-184,157	-0,110	-0,001
-670,335	-94,888	-0,045	-0,009
-669,320	-116,241	0,181	-0,024
-668,305	243,486	0,037	0,045
-667,291	-86,643	-0,085	0,019
-666,276	-200,000	0,059	-0,221
-665,262	190,514	0,039	-0,043
-664,247	-200,000	-0,002	-0,135
-663,232	28,489	0,098	0,061
-662,218	-103,890	0,092	-0,016
-661,203	800,000	0,029	-0,060
-660,189	218,941	0,101	0,118
-659,174	-9,241	-0,080	-0,039
-658,159	-200,000	-0,003	-0,107
-657,145	-200,000	-0,028	-0,146
-656,130	156,005	-0,080	0,081
-655,116	211,581	-0,050	-0,058
-654,101	-200,000	0,017	0,093
-653,086	-31,697	-0,175	0,072
-652,072	-28,142	-0,150	-0,064
-651,057	-200,000	0,019	-0,130
-650,043	-92,450	-0,114	-0,023
-649,028	-139,425	0,102	-0,008
-648,014	16,340	-0,105	-0,061
-646,999	108,146	-0,098	0,086
-645,984	-170,958	0,069	0,002
-644,970	-200,000	0,010	-0,106
-643,955	-163,225	-0,042	-0,001
-642,941	107,028	0,040	-0,035
-641,926	-17,832	-0,060	-0,028
-640,911	-21,746	-0,092	-0,041
-639,897	-200,000	-0,009	-0,108
-638,882	-200,000	0,016	-0,053
-637,868	317,764	0,073	-0,102
-636,853	76,053	-0,098	-0,076
-635,838	-200,000	0,016	-0,055
-634,824	187,620	-0,022	0,024
-633,809	113,504	0,035	0,031
-632,795	800,000	-0,021	0,067
-631,780	800,000	-0,029	-0,065
-630,765	-59,077	-0,114	-0,036
-629,751	-32,843	-0,030	-0,012
-628,736	82,698	-0,058	-0,046
-627,722	2,578	-0,094	-0,050
-626,707	126,198	0,030	0,028
-625,692	43,939	-0,041	0,028
-624,678	-146,973	-0,073	-0,005
-623,663	-32,064	-0,060	-0,025
-622,649	-200,000	-0,019	-0,145
-621,634	-134,333	-0,026	-0,002
-620,619	-200,000	0,005	-0,058
-619,605	392,701	0,054	-0,082
-618,590	-62,932	0,115	0,035
-617,576	409,710	-0,048	0,075
-616,561	0,438	0,106	-0,056
-615,546	-200,000	-0,012	-0,046
-614,532	-200,000	-0,022	-0,205
-613,517	41,999	-0,043	-0,028
-612,503	217,060	-0,080	-0,094
-611,488	-200,000	-0,037	0,150
-610,474	800,000	-0,030	0,074
-609,459	22,858	-0,094	0,056
-608,444	-200,000	0,011	-0,168
-607,430	-200,000	-0,011	-0,095
-606,415	-114,611	-0,163	-0,023
-605,401	-181,971	-0,132	0,002
-604,386	762,695	-0,041	-0,082
-603,371	800,000	0,068	0,157
-602,357	-19,455	0,094	0,043
-601,342	-200,000	0,005	0,089
-600,328	215,916	-0,075	-0,087
-599,313	190,423	0,018	-0,020
-598,298	-80,559	-0,071	0,017
-597,284	-200,000	0,036	0,143
-596,269	-200,000	-0,012	0,089
-595,255	247,026	-0,034	-0,042
-594,240	-159,622	0,051	0,002
-593,225	561,772	-0,019	-0,033
-592,211	115,447	-0,092	0,082
-591,196	153,511	0,064	0,064
-590,182	603,918	0,058	0,106
-589,167	391,024	-0,036	0,055
-588,152	-128,244	0,022	0,002
-587,138	391,012	0,038	0,058
-586,123	-58,022	-0,071	-0,022
-585,109	96,926	0,141	-0,118
-584,094	55,866	0,042	-0,030
-583,079	316,677	-0,032	-0,045
-582,065	-82,683	0,090	0,021
-581,050	354,872	-0,040	0,058
-580,036	-200,000	0,009	0,102
-579,021	2,105	-0,031	0,017
-578,006	346,164	-0,065	-0,094
-576,992	42,376	0,058	-0,038
-575,977	800,000	0,030	0,093
-574,963	97,302	-0,072	0,061
-573,948	305,609	0,067	0,091
-572,934	391,365	-0,048	-0,073
-571,919	2,914	0,088	0,047
-570,904	800,000	-0,045	0,130
-569,890	298,459	-0,049	-0,066
-568,875	-200,000	0,023	-0,164
-567,861	34,674	0,064	-0,041
-566,846	61,386	0,063	-0,046
-565,831	-200,000	-0,025	0,104
-564,817	-200,000	0,013	-0,057
-563,802	200,766	-0,076	0,085
-562,788	290,020	0,023	0,030
-561,773	6,869	0,122	0,067
-560,758	30,324	0,068	-0,043
-559,744	-38,004	0,092	0,036
-558,729	-200,000	-0,006	0,071
-557,715	118,493	-0,085	-0,076
-556,700	-200,000	0,041	-0,165
-555,685	-200,000	0,015	0,102
-554,671	279,575	-0,051	0,067
-553,656	61,495	-0,075	-0,055
-552,642	-200,000	-0,028	0,099
-551,627	-200,000	-0,013	0,105
-550,612	24,590	-0,086	0,052
-549,598	424,264	-0,065	-0,102
-548,583	800,000	-0,030	-0,078
-547,569	800,000	0,009	0,029
-546,554	800,000	0,044	-0,106
-545,539	-200,000	-0,022	0,080
-544,525	800,000	0,042	-0,124
-543,510	2,457	0,068	-0,036
-542,496	800,000	-0,031	-0,069
-541,481	-112,864	-0,074	0,011
-540,466	-70,228	0,046	0,013
-539,452	-200,000	-0,012	0,080
-538,437	34,495	0,160	0,102
-537,423	292,239	0,014	-0,019
-536,408	327,079	0,034	-0,048
-535,393	-90,084	-0,046	0,010
-534,379	562,934	0,037	0,067
-533,364	-8,225	-0,154	-0,075
-532,350	337,275	0,091	-0,129
-531,335	156,606	0,113	0,114
-530,321	800,000	0,022	0,070
-529,306	-131,770	-0,093	-0,009
-528,291	-109,785	0,080	-0,012
-527,277	118,876	-0,084	-0,075
-526,262	176,191	0,071	0,076
-525,248	462,942	-0,038	0,063
-524,233	-200,000	0,020	0,106
-523,218	-103,961	-0,097	-0,016
-522,204	56,758	0,083	-0,059
-521,189	-200,000	-0,008	0,082
-520,175	164,063	0,058	-0,060
-519,160	-170,856	0,119	0,003
-518,145	534,365	-0,026	-0,045
-517,131	128,313	0,032	0,030
-516,116	-27,934	0,033	0,014
-515,102	128,604	-0,084	-0,079
-514,087	17,525	0,081	-0,047
-513,072	156,217	0,042	-0,042
-512,058	160,561	0,020	0,020
-511,043	-52,785	0,059	-0,020
-510,029	-200,000	-0,001	-0,072
-509,014	-200,000	-0,011	0,117
-507,999	-36,345	-0,070	0,028
-506,985	-144,185	-0,090	0,006
-505,970	158,098	-0,071	-0,072
-504,956	-200,000	-0,001	0,057
-503,941	136,516	-0,057	0,055
-502,926	800,000	-0,012	0,034
-501,912	-200,000	-0,004	0,014
-500,897	154,923	0,050	0,051
-499,883	-145,505	0,147	0,009
-498,868	-200,000	0,031	-0,171
-497,853	221,076	0,054	0,063
-496,839	-200,000	-0,006	-0,073
-495,824	-200,000	-0,009	0,114
-494,810	-2,626	-0,150	0,076
-493,795	91,893	-0,057	0,046
-492,781	-148,684	0,152	-0,009
-491,766	-56,182	-0,088	-0,028
-490,751	115,834	-0,032	0,029
-489,737	800,000	0,045	-0,130
-488,722	800,000	0,018	0,057
-487,708	156,618	-0,037	-0,038
-486,693	2,592	-0,119	0,063
-485,678	-13,273	-0,094	-0,045
-484,664	4,786	0,064	-0,034
-483,649	800,000	-0,067	-0,142
-482,635	-87,007	0,161	-0,036
-481,620	-185,508	0,106	0,001
-480,605	-69,967	-0,035	-0,010
-479,591	17,148	0,062	0,036
-478,576	476,997	0,049	-0,081
-477,562	-200,000	-0,008	-0,046
-476,547	-200,000	0,015	0,074
-475,532	-31,317	0,127	-0,052
-474,518	-22,431	0,076	0,034
-473,503	-200,000	0,002	0,022
-472,489	-13,322	0,063	0,030
-471,474	-76,039	-0,208	0,053
-470,459	-200,000	0,012	-0,082
-469,445	415,462	0,051	0,079
-468,430	-200,000	0,003	-0,010
-467,416	-86,074	0,159	-0,036
-466,401	800,000	-0,059	-0,136
-465,386	-200,000	-0,011	0,178
-464,372	-96,180	0,045	0,009
-463,357	111,161	-0,062	-0,055
-462,343	800,000	-0,039	-0,101
-461,328	800,000	0,032	0,095
-460,313	22,026	0,089	-0,053
-459,299	335,245	0,018	-0,026
-458,284	-158,408	-0,015	0,001
-457,270	-188,730	-0,169	0,001
-456,255	22,833	0,030	-0,018
-455,241	800,000	-0,025	-0,059
-454,226	-111,448	0,068	0,010
-453,211	605,997	0,015	0,028
-452,197	101,352	-0,128	0,109
-451,182	-200,000	-0,013	0,111
-450,168	-38,900	0,071	-0,027
-449,153	-28,516	-0,154	-0,065
-448,138	-200,000	0,000	0,026
-447,124	314,457	-0,123	0,170
-446,109	-200,000	0,052	-0,172
-445,095	243,953	-0,084	0,103
-444,080	34,848	-0,046	-0,029
-443,065	-200,000	-0,025	0,102
-442,051	62,298	0,110	0,080
-441,036	800,000	-0,020	-0,055
-440,022	-200,000	-0,002	0,051
-439,007	-200,000	-0,014	0,085
-437,992	522,678	0,025	0,043
-436,978	27,582	-0,067	0,041
-435,963	-97,675	0,039	-0,007
-434,949	800,000	0,037	0,086
-433,934	-51,489	-0,122	0,041
-432,919	-165,454	0,023	0,001
-431,905	19,812	0,036	0,021
-430,890	163,119	0,096	0,098
-429,876	60,393	-0,031	0,023
-428,861	198,191	0,106	-0,118
-427,846	29,117	-0,069	0,043
-426,832	18,829	-0,013	-0,007
-425,817	-3,446	-0,048	-0,024
-424,803	98,626	-0,075	-0,063
-423,788	-200,000	0,014	-0,101
-422,773	800,000	0,025	-0,075
-421,759	0,345	-0,086	0,045
-420,744	800,000	0,016	-0,039
-419,730	-129,385	0,089	0,009
-418,715	164,608	-0,089	-0,092
-417,701	364,312	0,066	-0,097
-416,686	-118,238	-0,043	0,005
-415,671	-195,030	0,038	0,000
-414,657	128,894	0,085	0,079
-413,642	734,494	-0,047	0,093
-412,628	-200,000	-0,004	-0,080
-411,613	-200,000	0,005	-0,117
-410,598	-114,340	-0,216	0,030
-409,584	-106,264	0,128	0,021
-408,569	-184,142	0,251	-0,003
-407,555	4,662	-0,165	-0,088
-406,540	-200,000	-0,020	-0,072
-405,525	240,163	0,065	0,079
-404,511	-113,260	-0,058	-0,008
-403,496	-200,000	-0,013	-0,176
-402,482	124,339	0,078	-0,072
-401,467	102,572	0,100	-0,085
-400,452	-186,476	0,121	-0,001
-399,438	-200,000	0,021	0,087
-398,423	-140,996	-0,007	0,001
-397,409	715,503	0,011	-0,021
-396,394	-178,439	-0,081	-0,001
-395,379	-160,187	-0,078	0,003
-394,365	75,091	0,064	0,049
-393,350	771,133	0,026	-0,052
-392,336	-200,000	-0,001	0,061
-391,321	207,456	-0,103	-0,117
-390,306	29,258	-0,136	0,084
-389,292	-33,963	0,079	-0,031
-388,277	680,741	0,020	-0,039
-387,263	157,139	0,041	-0,041
-386,248	333,988	-0,032	-0,045
-385,233	-200,000	0,002	0,058
-384,219	176,380	-0,063	0,066
-383,204	-200,000	-0,006	-0,035
-382,190	-68,161	-0,089	0,025
-381,175	800,000	-0,058	0,145
-380,160	158,765	-0,045	0,045
-379,146	626,409	0,063	0,116
-378,131	800,000	0,024	-0,075
-377,117	-108,088	-0,135	0,021
-376,102	-200,000	0,022	-0,087
-375,088	-200,000	0,011	-0,090
-374,073	183,047	-0,096	0,103
-373,058	-73,868	-0,051	0,013
-372,044	-40,686	-0,034	0,013
-371,029	58,038	-0,088	0,062
-370,015	-200,000	0,019	0,127
-369,000	335,730	-0,021	-0,029
-367,985	106,306	0,107	-0,092
-366,971	138,854	0,069	0,066
-365,956	468,624	0,088	0,144
-364,942	-66,781	0,133	0,038
-363,927	621,153	0,007	-0,012
-362,912	-158,790	0,096	-0,004
-361,898	-139,316	0,107	-0,008
-360,883	-34,182	-0,137	-0,055
-359,869	-170,117	0,123	0,003
-358,854	9,622	0,055	-0,030
-357,839	-200,000	-0,012	-0,086
-356,825	-0,631	-0,080	0,041
-355,810	-200,000	0,018	0,062
-354,796	122,389	0,083	-0,075
-353,781	153,949	-0,156	-0,156
-352,766	441,268	-0,050	-0,080
-351,752	-200,000	0,003	0,022
-350,737	69,963	0,076	0,057
-349,723	163,097	-0,135	0,137
-348,708	800,000	-0,036	0,103
-347,693	-200,000	0,014	0,046
-346,679	-200,000	0,009	0,035
-345,664	-4,180	0,178	-0,089
-344,650	16,075	-0,031	0,018
-343,635	-200,000	0,014	-0,085
-342,620	232,525	-0,106	-0,127
-341,606	61,012	0,097	-0,070
-340,591	187,410	-0,033	0,035
-339,577	240,792	-0,058	-0,071
-338,562	-200,000	-0,001	-0,203
-337,548	-200,000	-0,009	0,102
-336,533	-90,475	0,127	0,027
-335,518	-200,000	0,009	-0,056
-334,504	800,000	0,050	0,143
-333,489	-90,504	-0,072	0,015
-332,475	-58,246	0,035	0,011
-331,460	-14,444	-0,036	0,017
-330,445	13,254	-0,041	0,023
-329,431	108,491	0,050	-0,043
-328,416	800,000	-0,014	0,030
-327,402	245,683	0,092	-0,112
-326,387	140,756	0,118	0,113
-325,372	-41,515	-0,118	0,044
-324,358	51,074	-0,113	0,077
-323,343	-54,591	0,061	0,020
-322,329	800,000	-0,038	-0,086
-321,314	139,024	-0,070	0,066
-320,299	49,987	0,081	0,055
-319,285	91,292	-0,043	-0,035
-318,270	-200,000	-0,201	0,000
-317,256	109,485	-0,037	0,033
-316,241	48,824	0,069	0,047
-315,226	-200,000	0,006	-0,064
-314,212	800,000	-0,021	0,043
-313,197	-139,150	0,208	-0,016
-312,183	-95,481	-0,126	0,024
-311,168	-200,000	-0,006	0,064
-310,153	-71,867	-0,076	-0,020
-309,139	-178,944	0,065	0,001
-308,124	96,379	0,063	-0,052
-307,110	-24,352	0,040	0,017
-306,095	800,000	-0,041	-0,088
-305,080	-169,668	0,069	-0,002
-304,066	-200,000	-0,009	0,099
-303,051	-12,035	-0,087	-0,041
-302,037	-95,327	0,112	0,022
-301,022	41,889	-0,133	0,088
-300,008	-200,000	-0,020	0,215
-298,993	-106,117	0,094	-0,015
-297,978	-200,000	-0,009	0,084
-296,964	273,076	0,097	0,125
-295,949	800,000	-0,053	-0,131
-294,935	800,000	-0,021	0,044
-293,920	85,125	-0,029	-0,023
-292,905	-129,012	0,164	0,016
-291,891	-18,795	0,123	0,055
-290,876	531,759	-0,008	0,014
-289,862	-200,000	-0,015	-0,066
-288,847	-200,000	0,011	0,057
-287,832	-47,239	0,100	0,035
-286,818	-200,000	-0,006	-0,058
-285,803	317,030	0,068	-0,094
-284,789	-0,173	0,078	-0,040
-283,774	-19,821	-0,124	0,055
-282,759	-200,000	-0,033	0,187
-281,745	180,543	-0,035	-0,037
-280,730	188,178	0,095	-0,103
-279,716	-200,000	-0,011	0,122
-278,701	-200,000	0,005	0,114
-277,686	272,141	-0,024	0,031
-276,672	-101,105	-0,093	0,016
-275,657	800,000	-0,058	-0,128
-274,643	-106,868	-0,063	0,010
-273,628	-48,891	-0,040	0,014
-272,613	-200,000	0,025	0,117
-271,599	89,299	0,051	0,041
-270,584	-108,304	0,102	-0,016
-269,570	68,999	0,146	0,109
-268,555	-200,000	0,007	-0,039
-267,540	800,000	-0,025	-0,059
-266,526	17,196	-0,089	-0,051
-265,511	-200,000	-0,012	-0,105
-264,497	63,480	-0,035	-0,026
-263,482	-13,462	0,115	-0,054
-262,467	437,829	-0,022	-0,035
-261,453	-200,000	0,021	-0,146
-260,438	-42,192	0,147	-0,054
-259,424	-110,728	-0,059	-0,009
-258,409	-200,000	0,038	-0,125
-257,395	-200,000	0,037	0,144
-256,380	-168,345	0,113	0,003
-255,365	-149,945	-0,027	0,002
-254,351	-200,000	0,010	0,131
-253,336	250,967	0,071	0,088
-252,322	-124,300	0,042	0,005
-251,307	-13,118	-0,016	-0,007
-250,292	7,208	-0,099	-0,053
-249,278	-200,000	0,005	-0,175
-248,263	26,799	0,042	-0,026
-247,249	800,000	0,008	-0,019
-246,234	-122,283	-0,061	0,007
-245,219	82,136	-0,152	0,119
-244,205	-98,869	-0,051	-0,009
-243,190	276,601	-0,029	0,037
-242,176	84,791	0,054	-0,042
-241,161	1,339	0,037	0,019
-240,146	-200,000	0,008	0,045
-239,132	-60,102	-0,101	0,031
-238,117	-200,000	0,004	0,062
-237,103	800,000	-0,022	0,067
-236,088	270,636	-0,030	0,038
-235,073	141,751	0,121	0,116
-234,059	135,421	0,054	-0,051
-233,044	-200,000	0,005	0,079
-232,030	800,000	-0,009	0,029
-231,015	756,095	0,006	-0,012
-230,000	-200,000	-0,005	0,033
-228,986	-200,000	-0,042	-0,157
-227,971	-200,000	0,007	-0,093
-226,957	800,000	-0,027	0,075
-225,942	-122,233	-0,145	-0,017
-224,927	43,541	-0,040	-0,026
-223,913	544,399	0,049	-0,086
-222,898	-111,454	-0,197	-0,029
-221,884	257,197	-0,087	-0,108
-220,869	-42,550	-0,129	-0,047
-219,855	143,088	0,062	0,060
-218,840	44,544	-0,122	-0,081
-217,825	24,568	0,083	0,050
-216,811	-145,775	0,080	0,005
-215,796	-164,623	-0,042	-0,001
-214,782	-100,174	0,111	0,020
-213,767	800,000	-0,046	0,109
-212,752	-180,163	0,087	0,001
-211,738	-91,517	-0,105	-0,021
-210,723	-86,546	0,043	0,009
-209,709	343,145	0,076	-0,107
-208,694	-200,000	0,021	-0,129
-207,679	307,996	0,028	0,038
-206,665	-200,000	-0,019	0,083
-205,650	-56,966	-0,090	0,028
-204,636	16,485	0,118	0,067
-203,621	800,000	0,024	-0,049
-202,606	-118,110	-0,029	-0,004
-201,592	124,980	-0,079	-0,072
-200,577	-200,000	0,015	-0,058
-199,563	302,145	-0,083	-0,111
-198,548	-71,315	-0,085	0,023
-197,533	800,000	-0,044	0,123
-196,519	800,000	-0,040	0,114
-195,504	-200,000	0,011	-0,046
-194,490	-13,361	0,052	-0,024
-193,475	-27,621	0,079	0,033
-192,460	60,112	0,088	0,063
-191,446	-200,000	0,004	0,043
-190,431	-20,964	0,168	-0,074
-189,417	-50,072	-0,085	0,029
-188,402	395,035	0,068	0,103
-187,387	-85,798	-0,097	0,021
-186,373	-15,635	-0,016	0,008
-185,358	800,000	0,041	-0,116
-184,344	24,782	0,074	0,044
-183,329	136,315	0,091	-0,086
-182,315	-137,231	0,187	-0,015
-181,300	800,000	0,053	-0,110
-180,285	800,000	0,037	0,078
-179,271	91,941	0,032	-0,026
-178,256	117,512	-0,113	-0,100
-177,242	-200,000	-0,004	-0,138
-176,227	-70,771	0,126	-0,034
-175,212	-20,356	0,054	0,024
-174,198	-48,521	-0,166	0,057
-173,183	-89,189	-0,050	0,011
-172,169	800,000	-0,018	-0,044
-171,154	16,620	-0,148	-0,084
-170,139	-200,000	0,001	-0,024
-169,125	-200,000	0,026	0,159
-168,110	266,829	-0,057	-0,072
-167,096	-45,716	-0,030	0,011
-166,081	5,033	0,139	0,074
-165,066	279,212	-0,083	0,107
-164,052	219,292	-0,036	-0,041
-163,037	201,493	0,112	0,125
-162,023	800,000	-0,003	0,007
-161,008	-176,452	-0,087	0,002
-159,993	2,579	0,079	0,041
-158,979	67,375	-0,066	0,048
-157,964	313,630	-0,089	-0,121
-156,950	217,755	0,029	0,034
-155,935	22,483	0,145	0,086
-154,920	-200,000	0,011	-0,088
-153,906	606,279	0,041	-0,074
-152,891	304,668	0,043	0,058
-151,877	162,852	0,063	0,063
-150,862	-200,000	-0,008	-0,093
-149,847	-70,476	-0,048	0,013
-148,833	-200,000	0,003	-0,016
-147,818	-24,563	0,044	0,019
-146,804	122,557	0,121	-0,109
-145,789	-200,000	-0,027	0,088
-144,775	800,000	0,046	-0,096
-143,760	-58,529	0,142	-0,044
-142,745	-163,572	-0,134	-0,004
-141,731	-200,000	-0,016	0,140
-140,716	800,000	-0,025	0,064
-139,702	4,675	-0,089	0,047
-138,687	221,515	-0,078	0,090
-137,672	-200,000	-0,004	0,132
-136,658	-128,618	-0,062	0,006
-135,643	-200,000	-0,020	0,091
-134,629	800,000	-0,062	-0,165
-133,614	87,192	0,099	0,079
-132,599	800,000	0,040	-0,104
-131,585	18,186	0,039	0,023
-130,570	184,601	0,006	0,006
-129,556	428,882	-0,044	0,069
-128,541	64,110	0,050	-0,036
-127,526	-31,772	-0,041	0,017
-126,512	452,203	-0,013	-0,021
-125,497	-130,005	-0,040	0,004
-124,483	683,593	0,016	0,031
-123,468	-81,611	0,102	-0,024
-122,453	-111,441	-0,191	-0,028
-121,439	-200,000	0,011	0,116
-120,424	-200,000	0,006	-0,127
-119,410	-200,000	0,038	0,134
-118,395	53,751	0,089	-0,062
-117,380	342,350	0,033	-0,046
-116,366	-53,224	0,057	0,019
-115,351	-200,000	0,003	-0,028
-114,337	800,000	0,051	-0,111
-113,322	118,040	-0,063	0,055
-112,307	-79,251	-0,087	0,021
-111,293	-158,944	-0,070	0,003
-110,278	175,458	0,176	0,184
-109,264	157,503	0,120	0,120
-108,249	-20,292	0,062	-0,028
-107,234	272,363	-0,134	-0,170
-106,220	2,390	-0,097	0,050
-105,205	-95,562	0,094	-0,018
-104,191	34,278	-0,111	-0,070
-103,176	800,000	-0,017	0,050
-102,162	-43,735	-0,077	0,028
-101,147	40,074	-0,012	0,008
-100,132	-86,176	-0,064	-0,014
-99,118	143,579	0,098	0,094
-98,103	-73,799	-0,158	-0,041
-97,089	-200,000	0,003	0,153
-96,074	-200,000	-0,018	0,064
-95,059	800,000	0,038	0,084
-94,045	251,729	-0,064	-0,078
-93,030	-200,000	0,020	-0,113
-92,016	449,046	0,031	-0,050
-91,001	-61,377	0,077	-0,023
-89,986	-18,385	0,103	0,046
-88,972	159,666	0,147	0,148
-87,957	-88,741	-0,011	0,002
-86,943	698,202	0,003	-0,006
-85,928	-6,173	-0,098	-0,048
-84,913	455,143	-0,030	0,048
-83,899	800,000	0,016	0,048
-82,884	200,579	-0,024	0,026
-81,870	-200,000	-0,007	0,071
-80,855	-166,025	0,137	-0,004
-79,840	-94,772	-0,083	0,016
-78,826	5,537	0,077	-0,041
-77,811	311,289	-0,032	-0,043
-76,797	-200,000	-0,020	-0,168
-75,782	22,781	-0,117	-0,068
-74,767	14,245	0,163	0,091
-73,753	98,261	-0,084	0,070
-72,738	800,000	0,013	-0,032
-71,724	-63,633	0,080	0,023
-70,709	213,389	-0,108	0,123
-69,694	-200,000	0,007	-0,201
-68,680	40,612	0,126	-0,082
-67,665	-89,665	-0,082	-0,017
-66,651	-200,000	0,002	0,065
-65,636	165,752	-0,058	-0,059
-64,622	-4,650	-0,143	0,070
-63,607	266,987	-0,034	0,043
-62,592	-151,297	0,060	-0,003
-61,578	144,487	0,031	-0,029
-60,563	-200,000	0,027	0,112
-59,549	-13,128	0,031	-0,014
-58,534	-6,197	-1,890	-0,924
-57,519	-200,000	-0,280	-0,900
-56,505	-200,000	-1,184	-4,902
-55,490	20,604	0,763	0,442
-54,476	800,000	5,441	12,208
-53,461	-200,000	17,335	284,165
-52,446	800,000	724,286	2223,857
-51,432	540,561	1640,535	2815,602
-50,417	111,306	1632,112	1412,032
-49,403	75,737	1286,437	974,933
-48,388	32,578	1028,182	636,675
-47,373	20,264	990,152	572,496
-46,359	18,708	978,283	560,503
-45,344	16,080	974,354	549,624
-44,330	16,267	972,822	549,350
-43,315	15,821	970,971	546,825
-42,300	15,777	969,976	546,098
-41,286	15,716	969,123	545,399
-40,271	15,770	967,821	544,819
-39,257	15,778	966,985	544,355
-38,242	15,793	965,974	543,812
-37,227	15,807	965,367	543,494
-36,213	15,779	964,495	542,890
-35,198	15,723	963,499	542,127
-34,184	15,816	962,761	541,992
-33,169	15,739	961,929	541,251
-32,154	15,763	961,072	540,825
-31,140	15,820	960,145	540,466
-30,125	15,845	959,440	540,131
-29,111	15,782	958,443	539,342
-28,096	15,831	957,993	539,226
-27,082	15,829	957,225	538,767
-26,067	15,817	956,528	538,314
-25,052	15,742	955,738	537,608
-24,038	15,727	955,216	537,243
-23,023	15,710	954,507	536,769
-22,009	15,806	953,750	536,630
-20,994	15,827	953,148	536,338
-19,979	15,846	952,370	535,940
-18,965	15,729	952,031	535,352
-17,950	15,800	951,244	535,117
-16,936	15,759	950,599	534,601
-15,921	15,681	950,028	534,010
-14,906	15,660	949,195	533,453
-13,892	15,705	948,596	533,238
-12,877	15,633	948,088	532,704
-11,863	15,618	947,421	532,257
-10,848	15,675	946,839	532,093
-9,833	15,801	946,262	532,146
-8,819	15,736	945,791	531,655
-7,804	15,682	945,054	531,049
-6,790	15,669	944,420	530,630
-5,775	15,732	943,889	530,511
-4,760	15,714	943,365	530,137
-3,746	15,671	942,647	529,577
-2,731	15,574	941,823	528,784
-1,717	15,514	941,449	528,364
-0,702	15,555	940,591	527,993
0,313	15,366	940,052	527,888
1,327	18,459	937,761	536,307
2,342	27,264	795,019	478,024
3,356	23,984	459,019	270,956
4,371	-3,127	313,701	156,419
5,386	-7,109	295,330	143,227
6,400	-9,122	289,423	138,357
7,415	-9,630	286,966	136,671
8,429	-9,610	285,459	135,960
9,444	-9,738	284,474	135,354
10,459	-9,716	283,983	135,130
11,473	-9,896	283,457	134,693
12,488	-9,637	282,819	134,628
13,502	-9,735	282,311	134,280
14,517	-9,652	281,896	134,151
15,531	-9,767	281,658	133,915
16,546	-9,657	281,188	133,785
17,561	-9,844	280,764	133,392
18,575	-9,672	280,474	133,407
19,590	-9,742	279,968	133,087
20,604	-9,683	279,737	133,022
21,619	-9,660	279,292	132,821
22,634	-9,603	278,923	132,688
23,648	-9,790	278,930	132,500
24,663	-9,759	278,569	132,347
25,677	-9,765	278,214	132,162
26,692	-9,731	277,993	132,076
27,707	-9,645	277,709	132,012
28,721	-9,709	277,473	131,827
29,736	-9,789	277,116	131,570
30,750	-9,813	276,894	131,430
31,765	-9,794	276,761	131,373
32,780	-9,571	276,401	131,401
33,794	-9,642	276,088	131,173
34,809	-9,755	275,865	130,950
35,823	-9,840	275,601	130,732
36,838	-9,868	275,443	130,620
37,853	-9,720	275,171	130,618
38,867	-9,660	274,783	130,478
39,882	-9,663	274,596	130,376
40,896	-9,618	274,386	130,306
41,911	-9,958	274,283	129,927
42,926	-9,813	274,065	129,948
43,940	-9,839	273,770	129,773
44,955	-9,942	273,441	129,509
45,969	-9,862	273,304	129,506
46,984	-10,079	273,110	129,201
47,999	-10,201	272,745	128,903
49,013	-10,396	272,563	128,624
50,028	-10,393	272,261	128,473
51,042	-10,544	272,067	128,230
52,057	-10,370	271,694	128,204
53,071	-10,547	271,624	127,996
54,086	-10,164	271,309	128,190
55,101	-10,090	271,222	128,206
56,115	-10,069	271,067	128,140
57,130	-9,620	270,840	128,437
58,144	-9,460	270,630	128,473
59,159	-9,688	270,376	128,131
60,174	-9,564	270,253	128,176
61,188	-9,491	269,919	128,072
62,203	-9,658	269,926	127,911
63,217	-9,532	269,530	127,827
64,232	-9,705	269,398	127,595
65,247	-9,534	269,127	127,612
66,261	-9,609	268,751	127,353
67,276	-9,706	268,622	127,193
68,290	-9,796	268,519	127,050
69,305	-9,915	268,120	126,741
70,320	-9,813	267,879	126,709
71,334	-9,855	267,846	126,644
72,349	-9,590	267,628	126,771
73,363	-9,647	267,371	126,586
74,378	-9,615	267,211	126,528
75,393	-9,589	266,974	126,429
76,407	-9,692	266,701	126,194
77,422	-9,649	266,548	126,149
78,436	-9,640	266,335	126,045
79,451	-9,629	266,237	125,998
80,466	-9,756	265,888	125,706
81,480	-9,911	265,560	125,400
82,495	-9,920	265,394	125,302
83,509	-10,001	265,372	125,209
84,524	-9,723	265,052	125,297
85,539	-9,917	264,733	124,959
86,553	-9,988	264,566	124,806
87,568	-9,700	264,366	124,960
88,582	-9,684	264,246	124,906
89,597	-9,839	263,999	124,639
90,611	-9,617	263,836	124,750
91,626	-9,682	263,850	124,687
92,641	-9,532	263,422	124,608
93,655	-9,598	263,156	124,412
94,670	-9,680	262,968	124,239
95,684	-9,665	262,874	124,197
96,699	-9,699	262,656	124,052
97,714	-9,660	262,441	123,974
98,728	-9,981	262,258	123,591
99,743	-9,988	262,006	123,455
100,757	-9,977	261,764	123,340
101,772	-10,033	261,542	123,175
102,787	-9,795	261,284	123,253
103,801	-9,668	261,194	123,312
104,816	-9,643	260,952	123,209
105,830	-9,546	260,887	123,253
106,845	-9,554	260,645	123,121
107,860	-9,687	260,444	122,898
108,874	-9,705	260,271	122,789
109,889	-9,799	260,031	122,582
110,903	-9,807	259,963	122,532
111,918	-9,633	259,648	122,526
112,933	-9,790	259,494	122,304
113,947	-9,629	259,259	122,324
114,962	-9,711	259,012	122,124
115,976	-9,631	259,071	122,211
116,991	-9,596	258,687	122,050
118,006	-9,746	258,607	121,870
119,020	-9,801	258,475	121,749
120,035	-9,623	258,317	121,819
121,049	-9,645	258,014	121,646
122,064	-9,658	257,919	121,579
123,079	-9,676	257,660	121,431
124,093	-9,619	257,441	121,367
125,108	-9,837	257,214	121,059
126,122	-10,021	256,921	120,750
127,137	-10,165	256,719	120,519
128,151	-9,954	256,637	120,653
129,166	-10,031	256,578	120,547
130,181	-9,846	256,159	120,501
131,195	-10,100	255,918	120,156
132,210	-9,872	255,906	120,338
133,224	-9,603	255,640	120,435
134,239	-9,769	255,608	120,265
135,254	-9,867	255,272	120,012
136,268	-9,825	255,017	119,918
137,283	-9,866	254,773	119,757
138,297	-10,116	254,757	119,523
139,312	-10,061	254,398	119,391
140,327	-9,833	254,289	119,525
141,341	-9,608	254,244	119,687
142,356	-9,541	254,154	119,692
143,370	-9,629	253,824	119,450
144,385	-9,760	253,815	119,323
145,400	-9,517	253,481	119,364
146,414	-9,332	253,256	119,405
147,429	-9,338	253,022	119,279
148,443	-9,516	253,000	119,105
149,458	-9,495	252,715	118,979
150,473	-9,466	252,548	118,914
151,487	-9,560	252,393	118,751
152,502	-9,600	252,247	118,637
153,516	-9,486	252,110	118,660
154,531	-9,491	251,798	118,498
155,546	-9,699	251,852	118,335
156,560	-9,559	251,562	118,307
157,575	-9,655	251,287	118,086
158,589	-9,528	251,235	118,159
159,604	-9,488	250,966	118,056
160,619	-9,449	250,790	117,996
161,633	-9,539	250,668	117,852
162,648	-9,509	250,447	117,763
163,662	-9,516	250,374	117,712
164,677	-9,438	250,100	117,638
165,692	-9,398	250,014	117,621
166,706	-9,549	249,742	117,356
167,721	-9,388	249,670	117,447
168,735	-9,523	249,450	117,219
169,750	-9,415	249,222	117,192
170,764	-9,572	249,019	116,955
171,779	-9,389	249,000	117,089
172,794	-9,389	248,943	117,051
173,808	-9,457	248,738	116,888
174,823	-9,547	248,254	116,574
175,837	-10,035	248,117	116,092
176,852	-9,614	248,114	116,432
177,867	-9,388	248,045	116,578
178,881	-9,563	247,861	116,335
179,896	-9,419	247,632	116,338
180,910	-9,359	247,420	116,278
181,925	-9,281	247,257	116,256
182,940	-9,221	247,117	116,229
183,954	-9,500	247,062	115,961
184,969	-9,607	246,738	115,710
185,983	-9,485	246,597	115,735
186,998	-9,416	246,411	115,694
188,013	-9,410	246,280	115,627
189,027	-9,420	246,007	115,480
190,042	-9,536	245,947	115,346
191,056	-9,385	245,616	115,305
192,071	-9,352	245,576	115,304
193,086	-9,645	245,460	114,996
194,100	-9,615	245,227	114,902
195,115	-9,302	245,008	115,048
196,129	-9,456	244,921	114,869
197,144	-9,305	244,677	114,869
198,159	-9,622	244,569	114,547
199,173	-9,695	244,374	114,385
200,188	-9,604	244,229	114,382
201,202	-9,658	243,921	114,184
202,217	-10,032	243,588	113,711
203,232	-10,177	243,519	113,550
204,246	-9,532	243,407	114,016
205,261	-9,274	243,330	114,181
206,275	-10,425	242,975	113,063
207,290	-7,270	244,006	116,121
208,304	-0,533	246,296	122,767
209,319	2,888	247,043	125,954
210,334	3,376	247,106	126,378
211,348	3,592	247,057	126,519
212,363	3,957	246,848	126,701
213,377	3,914	246,637	126,547
214,392	3,745	246,628	126,392
215,407	3,671	246,379	126,192
216,421	3,566	246,284	126,046
217,436	4,076	246,146	126,382
218,450	3,877	245,972	126,119
219,465	3,744	245,655	125,836
220,480	3,532	245,492	125,568
221,494	3,431	245,432	125,443
222,509	3,587	245,347	125,517
223,523	3,461	245,021	125,236
224,538	3,239	244,812	124,936
225,553	3,078	244,636	124,704
226,567	3,176	244,595	124,752
227,582	3,513	244,298	124,863
228,596	3,634	244,267	124,935
229,611	3,247	243,916	124,430
230,626	3,144	243,826	124,289
231,640	3,266	243,667	124,296
232,655	3,510	243,485	124,390
233,669	3,104	243,488	124,051
234,684	2,968	243,197	123,782
235,699	3,323	243,278	124,099
236,713	3,698	243,058	124,280
237,728	3,327	242,656	123,763
238,742	3,122	242,451	123,482
239,757	3,180	242,361	123,472
240,772	3,273	242,095	123,401
241,786	3,313	242,198	123,474
242,801	3,008	241,948	123,091
243,815	2,997	241,774	122,982
244,830	3,471	241,646	123,287
245,844	3,559	241,467	123,256
246,859	3,270	241,398	122,977
247,874	2,933	241,154	122,572
248,888	3,334	240,851	122,728
249,903	3,253	240,885	122,669
250,917	3,211	240,794	122,578
251,932	3,658	240,769	122,913
252,947	3,622	240,429	122,700
253,961	3,218	240,226	122,262
254,976	3,323	240,129	122,286
255,990	3,617	240,050	122,469
257,005	3,274	239,639	121,976
258,020	3,112	239,561	121,796
259,034	3,201	239,376	121,762
260,049	3,385	239,327	121,872
261,063	3,020	239,103	121,458
262,078	3,255	238,844	121,502
263,093	3,338	238,884	121,577
264,107	3,443	238,765	121,589
265,122	3,336	238,474	121,345
266,136	3,164	238,446	121,184
267,151	3,560	238,349	121,438
268,166	3,562	237,924	121,211
269,180	2,842	237,988	120,664
270,195	3,858	237,858	121,390
271,209	3,912	237,786	121,385
272,224	3,300	237,473	120,731
273,239	2,873	237,434	120,365
274,253	2,974	237,227	120,328
275,268	3,257	236,906	120,377
276,282	3,370	236,777	120,390
277,297	3,096	236,583	120,065
278,312	3,276	236,585	120,197
279,326	3,226	236,484	120,096
280,341	3,498	236,294	120,201
281,355	3,318	236,089	119,945
282,370	3,540	235,928	120,027
283,384	3,451	235,659	119,809
284,399	3,194	235,556	119,546
285,414	3,031	235,432	119,345
286,428	3,244	235,267	119,417
287,443	3,188	235,238	119,348
288,457	3,304	235,173	119,395
289,472	3,382	235,015	119,365
290,487	3,401	234,591	119,153
291,501	3,201	234,451	118,917
292,516	3,027	234,298	118,693
293,530	3,027	234,174	118,619
294,545	3,171	234,185	118,726
295,560	3,374	233,957	118,758
296,574	3,073	233,838	118,454
297,589	2,982	233,793	118,349
298,603	3,378	233,833	118,666
299,618	3,691	233,424	118,690
300,633	3,495	233,387	118,509
301,647	3,591	233,188	118,472
302,662	3,744	233,196	118,583
303,676	3,793	232,964	118,492
304,691	3,726	232,772	118,332
305,706	3,613	232,765	118,232
306,720	3,784	232,564	118,250
307,735	3,481	232,213	117,829
308,749	3,551	232,070	117,799
309,764	3,210	231,911	117,446
310,779	3,234	231,623	117,308
311,793	3,012	231,431	117,030
312,808	3,256	231,286	117,133
313,822	3,133	231,119	116,944
314,837	2,877	231,071	116,714
315,852	2,945	230,958	116,698
316,866	3,246	230,897	116,887
317,881	3,563	230,831	117,085
318,895	3,524	230,743	117,001
319,910	3,573	230,567	116,938
320,925	3,445	230,330	116,710
321,939	2,911	230,241	116,248
322,954	3,595	230,082	116,677
323,968	3,410	229,769	116,368
324,983	3,157	229,641	116,101
325,997	3,063	229,526	115,961
327,012	3,433	229,510	116,223
328,027	3,582	229,366	116,253
329,041	3,650	229,312	116,267
330,056	4,033	229,324	116,552
331,070	3,938	229,009	116,310
332,085	3,493	228,587	115,749
333,100	3,673	228,647	115,905
334,114	3,791	228,485	115,902
335,129	3,759	228,344	115,795
336,143	3,597	228,211	115,596
337,158	3,555	228,153	115,525
338,173	3,784	228,032	115,625
339,187	3,703	227,718	115,395
340,202	3,750	227,731	115,426
341,216	3,761	227,557	115,337
342,231	3,431	227,303	114,950
343,246	3,420	227,146	114,852
344,260	3,767	227,034	115,045
345,275	3,741	227,007	115,002
346,289	3,759	226,861	114,931
347,304	3,749	226,690	114,827
348,319	3,780	226,702	114,846
349,333	3,572	226,443	114,549
350,348	3,527	226,195	114,379
351,362	3,703	226,143	114,474
352,377	3,643	225,915	114,304
353,392	3,351	225,733	113,985
354,406	3,311	225,672	113,914
355,421	195,628	1322,263	1399,879
356,435	156,799	1455,863	1399,873
