DTS Sentinel unit serial number:	SN410029Multiplexer serial number:	ORYXHardware model number:	OX2-SRSoftware version number:	ORYX F/W v4,00 Oryx Data Collector v3.7.2.0data status	okinstallation	B5 Nyhavnadifferential loss correction	single-endedforward channel	channel 2reverse channel	N/Adate	2023/12/13time	08:47:13forward acquisition time	300,00reverse acquisition time	0,00gamma	499,1914k internal	0,3160k external	0,3160temperature offset calibration	1,0000default loss term (dB/km)	0,3820temperature slope calibration	1,0000multiplexer offset coefficient	1,0000multiplexer slope coefficient	1,0000fibre end	0,00T internal ref (°C)	13,64T ext. ref 1 (°C)	-2,69T ext. ref 2 (°C)	-2,99length (m)	temperature (°C)	Stokes	anti-Stokes-744,400	800,000	-0,031	-0,075
-743,385	-69,620	-0,282	0,079
-742,371	-200,000	-0,057	0,214
-741,356	42,020	-0,231	0,154
-740,342	-145,674	0,221	0,014
-739,327	-27,413	-0,309	-0,132
-738,312	196,382	0,133	0,149
-737,298	-185,027	-0,367	0,004
-736,283	159,085	0,054	0,056
-735,269	-97,578	-0,193	-0,036
-734,254	-9,128	0,095	0,046
-733,239	-102,527	-0,563	-0,098
-732,225	-66,138	0,105	0,031
-731,210	168,054	-0,073	0,077
-730,196	-91,283	-0,093	0,020
-729,181	-200,000	-0,000	0,067
-728,167	316,064	0,041	0,058
-727,152	252,915	-0,067	-0,084
-726,137	-86,385	0,060	0,013
-725,123	-200,000	0,007	-0,044
-724,108	-158,118	-0,136	-0,006
-723,094	297,292	0,046	-0,063
-722,079	402,955	-0,107	0,166
-721,064	352,529	0,082	0,120
-720,050	-68,658	-0,099	0,028
-719,035	257,757	0,045	0,057
-718,021	-200,000	0,005	0,026
-717,006	-62,786	-0,152	0,046
-715,991	301,371	-0,076	-0,104
-714,977	800,000	-0,036	0,090
-713,962	656,037	-0,022	0,042
-712,948	453,073	0,067	0,110
-711,933	800,000	-0,045	0,111
-710,918	-200,000	0,012	-0,065
-709,904	-48,480	0,101	-0,036
-708,889	3,763	-0,160	-0,086
-707,875	99,268	-0,092	0,078
-706,860	-75,967	-0,074	0,019
-705,845	208,500	0,062	0,071
-704,831	-200,000	0,035	0,120
-703,816	-8,859	-0,105	-0,051
-702,802	18,586	-0,123	0,072
-701,787	322,158	-0,064	-0,090
-700,772	-149,239	0,066	0,004
-699,758	166,175	0,090	0,094
-698,743	37,394	0,124	-0,081
-697,729	800,000	-0,057	-0,149
-696,714	-131,312	-0,018	-0,002
-695,699	40,237	-0,118	-0,078
-694,685	-200,000	0,028	-0,147
-693,670	777,803	-0,057	-0,115
-692,656	219,841	0,081	-0,095
-691,641	272,927	0,093	0,121
-690,627	-100,047	0,052	-0,009
-689,612	-52,053	-0,054	0,018
-688,597	746,209	0,026	-0,051
-687,583	800,000	-0,095	-0,195
-686,568	67,275	0,129	-0,096
-685,554	-137,509	0,069	0,006
-684,539	-122,563	0,111	0,013
-683,524	250,153	0,036	0,045
-682,510	14,316	0,063	0,036
-681,495	134,151	-0,030	-0,029
-680,481	279,461	-0,051	0,068
-679,466	187,747	-0,126	-0,138
-678,451	-40,523	0,092	-0,035
-677,437	142,377	0,031	-0,030
-676,422	-200,000	-0,007	0,036
-675,408	-144,355	-0,024	0,002
-674,393	111,187	0,065	0,058
-673,378	-107,764	-0,141	-0,022
-672,364	173,321	-0,078	-0,082
-671,349	87,195	-0,118	-0,096
-670,335	312,438	0,069	-0,096
-669,320	147,080	-0,039	0,039
-668,305	-9,818	0,013	0,006
-667,291	-113,216	0,018	-0,003
-666,276	107,116	-0,128	-0,111
-665,262	102,374	-0,162	-0,139
-664,247	-200,000	0,004	-0,038
-663,232	-160,367	0,012	-0,000
-662,218	-200,000	-0,004	0,064
-661,203	-200,000	0,000	0,087
-660,189	-85,254	-0,095	0,022
-659,174	-200,000	-0,015	-0,096
-658,159	-200,000	0,017	-0,171
-657,145	-44,457	-0,110	-0,040
-656,130	-200,000	-0,003	-0,099
-655,116	-102,251	-0,063	0,011
-654,101	800,000	0,026	-0,074
-653,086	-99,233	-0,049	-0,009
-652,072	36,426	-0,121	0,078
-651,057	-151,720	-0,052	0,003
-650,043	26,555	0,080	0,049
-649,028	121,681	-0,097	0,089
-648,014	276,774	-0,048	0,062
-646,999	-11,387	0,063	0,031
-645,984	-28,899	0,190	0,080
-644,970	800,000	-0,011	-0,023
-643,955	-65,090	-0,065	0,019
-642,941	-121,960	0,037	-0,004
-641,926	224,084	0,056	0,067
-640,911	73,936	0,121	0,093
-639,897	111,780	-0,094	0,083
-638,882	-171,114	0,024	-0,001
-637,868	-200,000	0,005	-0,015
-636,853	141,154	-0,008	0,007
-635,838	-102,950	0,027	-0,005
-634,824	198,456	-0,037	0,041
-633,809	-179,704	0,075	-0,001
-632,795	-200,000	-0,013	0,175
-631,780	524,466	0,046	0,079
-630,765	100,134	-0,020	0,017
-629,751	15,228	-0,065	0,037
-628,736	800,000	-0,052	-0,107
-627,722	476,951	-0,025	-0,042
-626,707	-102,590	0,071	-0,012
-625,692	510,163	-0,007	-0,013
-624,678	239,577	-0,131	-0,160
-623,663	20,681	0,012	0,007
-622,649	-200,000	-0,013	0,089
-621,634	-200,000	-0,002	-0,132
-620,619	-59,166	0,077	0,024
-619,605	268,138	-0,066	0,085
-618,590	-16,091	0,174	0,081
-617,576	-121,373	-0,088	0,011
-616,561	60,202	-0,140	-0,101
-615,546	-25,063	-0,059	-0,026
-614,532	15,477	-0,034	0,020
-613,517	702,946	0,048	-0,094
-612,503	-200,000	-0,003	-0,032
-611,488	674,772	0,069	0,132
-610,474	-74,893	0,070	-0,018
-609,459	-107,703	0,107	-0,017
-608,444	338,650	-0,064	-0,092
-607,430	800,000	-0,077	-0,174
-606,415	-200,000	0,023	0,150
-605,401	-159,986	-0,153	-0,006
-604,386	20,386	0,080	0,047
-603,371	-200,000	-0,014	0,129
-602,357	-8,180	0,175	0,086
-601,342	800,000	0,043	0,098
-600,328	-200,000	0,001	-0,047
-599,313	-167,930	0,089	0,003
-598,298	-200,000	0,015	0,099
-597,284	-176,173	0,194	-0,004
-596,269	-200,000	0,019	0,165
-595,255	41,439	-0,046	-0,031
-594,240	-200,000	-0,005	-0,145
-593,225	170,846	-0,122	0,128
-592,211	-121,816	-0,009	-0,001
-591,196	-99,684	0,047	-0,009
-590,182	-198,041	0,171	0,001
-589,167	-32,161	0,036	-0,015
-588,152	277,279	-0,023	-0,030
-587,138	-162,924	0,035	0,001
-586,123	108,735	-0,037	0,032
-585,109	-3,467	0,082	-0,042
-584,094	226,851	0,077	-0,092
-583,079	329,421	0,107	-0,151
-582,065	89,252	-0,047	0,039
-581,050	-121,639	-0,071	0,008
-580,036	189,199	0,096	-0,105
-579,021	155,654	-0,065	-0,065
-578,006	-54,846	0,046	0,015
-576,992	391,602	-0,059	0,091
-575,977	-131,233	-0,024	-0,002
-574,963	-42,665	-0,089	0,033
-573,948	-165,732	0,113	-0,003
-572,934	-156,260	-0,046	0,002
-571,919	644,338	-0,057	0,107
-570,904	159,491	0,105	0,107
-569,890	800,000	0,030	-0,080
-568,875	111,982	-0,017	0,015
-567,861	-116,363	-0,063	0,008
-566,846	180,201	0,056	0,061
-565,831	800,000	-0,034	0,073
-564,817	139,889	-0,066	-0,064
-563,802	-200,000	0,014	-0,140
-562,788	250,442	0,069	0,085
-561,773	186,232	-0,045	-0,050
-560,758	800,000	0,069	0,155
-559,744	-190,225	-0,188	0,001
-558,729	-200,000	-0,011	-0,039
-557,715	800,000	0,015	0,030
-556,700	800,000	0,066	-0,175
-555,685	-200,000	-0,018	-0,105
-554,671	212,032	-0,065	-0,076
-553,656	-13,372	0,041	-0,019
-552,642	800,000	0,023	0,056
-551,627	-200,000	0,023	-0,084
-550,612	715,652	-0,042	-0,082
-549,598	-200,000	-0,003	-0,093
-548,583	-182,371	-0,060	0,001
-547,569	94,020	0,073	-0,061
-546,554	-107,744	0,232	0,037
-545,539	-200,000	0,022	-0,166
-544,525	403,824	-0,063	-0,098
-543,510	761,499	0,026	0,053
-542,496	51,728	-0,059	0,041
-541,481	-200,000	-0,001	-0,110
-540,466	800,000	-0,070	-0,155
-539,452	21,841	0,061	0,036
-538,437	530,625	0,028	0,048
-537,423	15,766	0,178	0,102
-536,408	800,000	0,026	0,057
-535,393	402,736	-0,075	-0,115
-534,379	800,000	-0,023	-0,064
-533,364	800,000	0,018	-0,046
-532,350	-145,702	0,062	-0,004
-531,335	-78,779	-0,072	0,018
-530,321	357,761	-0,058	0,084
-529,306	-200,000	-0,011	0,056
-528,291	92,980	0,051	0,042
-527,277	-57,870	0,046	0,015
-526,262	136,061	0,104	-0,099
-525,248	-146,047	0,127	0,008
-524,233	-67,197	0,128	-0,037
-523,218	-200,000	-0,007	-0,029
-522,204	-24,237	-0,133	0,058
-521,189	-144,529	-0,066	-0,004
-520,175	-110,763	-0,042	0,006
-519,160	-200,000	-0,007	-0,074
-518,145	559,377	0,028	-0,050
-517,131	265,883	-0,021	0,027
-516,116	-200,000	-0,007	0,057
-515,102	10,040	0,092	0,051
-514,087	-55,741	-0,124	0,040
-513,072	-95,302	-0,162	-0,032
-512,058	669,575	-0,045	-0,085
-511,043	-185,501	0,066	0,001
-510,029	421,212	-0,065	0,102
-509,014	-135,716	0,030	0,003
-507,999	122,437	-0,054	-0,049
-506,985	501,288	0,063	-0,107
-505,970	-109,500	-0,109	0,017
-504,956	-200,000	-0,014	0,113
-503,941	800,000	0,013	0,032
-502,926	-56,429	0,140	0,045
-501,912	44,129	-0,055	0,037
-500,897	-116,260	-0,068	-0,009
-499,883	421,394	0,067	-0,106
-498,868	-200,000	-0,001	-0,032
-497,853	-137,098	-0,082	-0,007
-496,839	-111,919	0,061	-0,009
-495,824	800,000	0,033	-0,079
-494,810	-200,000	-0,001	0,059
-493,795	191,718	0,082	0,091
-492,781	-71,668	-0,130	0,035
-491,766	-85,468	0,050	-0,011
-490,751	156,808	-0,121	-0,122
-489,737	17,280	0,068	-0,039
-488,722	800,000	-0,017	0,051
-487,708	-119,144	0,085	-0,011
-486,693	-200,000	-0,018	-0,122
-485,678	18,562	0,092	-0,054
-484,664	338,141	-0,029	-0,041
-483,649	-92,671	0,091	-0,018
-482,635	-97,899	-0,110	0,020
-481,620	75,195	-0,027	0,021
-480,605	171,212	-0,007	0,007
-479,591	47,689	-0,132	0,090
-478,576	-136,867	-0,109	0,009
-477,562	51,965	0,151	-0,105
-476,547	105,036	-0,096	0,083
-475,532	-29,188	0,048	-0,020
-474,518	800,000	0,034	-0,109
-473,503	-8,798	0,088	0,043
-472,489	-72,848	0,060	0,016
-471,474	122,913	0,045	0,041
-470,459	800,000	0,031	-0,098
-469,445	-106,203	-0,089	-0,014
-468,430	103,591	0,044	-0,038
-467,416	67,812	-0,032	0,024
-466,401	-82,364	0,063	0,015
-465,386	49,576	0,089	-0,061
-464,372	622,820	0,096	-0,178
-463,357	-154,135	-0,056	0,003
-462,343	-200,000	-0,045	-0,150
-461,328	-200,000	0,008	-0,031
-460,313	704,398	0,038	-0,073
-459,299	-52,594	-0,046	0,015
-458,284	19,425	0,148	0,086
-457,270	518,036	-0,039	-0,067
-456,255	800,000	0,008	0,024
-455,241	-73,321	-0,113	-0,030
-454,226	-45,914	0,101	0,036
-453,211	-123,974	0,026	-0,003
-452,197	-135,255	0,066	0,006
-451,182	114,449	-0,078	0,070
-450,168	800,000	-0,022	-0,047
-449,153	-62,573	-0,161	-0,048
-448,138	-200,000	0,011	-0,053
-447,124	-105,383	-0,158	-0,026
-446,109	630,021	-0,065	0,121
-445,095	358,036	0,099	0,144
-444,080	263,158	0,079	0,101
-443,065	1,546	0,079	-0,041
-442,051	67,409	-0,047	0,035
-441,036	800,000	-0,058	-0,128
-440,022	175,760	-0,037	-0,039
-439,007	-164,051	0,109	0,004
-437,992	78,913	0,111	0,087
-436,978	800,000	0,016	-0,036
-435,963	336,128	0,061	-0,087
-434,949	-109,309	-0,056	0,009
-433,934	369,899	0,048	-0,071
-432,919	-70,642	-0,028	0,008
-431,905	-200,000	-0,010	0,041
-430,890	95,960	0,049	0,041
-429,876	410,153	0,024	0,038
-428,861	-200,000	-0,065	0,280
-427,846	2,756	0,202	0,106
-426,832	306,240	-0,028	0,038
-425,817	-27,188	-0,130	-0,055
-424,803	800,000	-0,042	0,130
-423,788	-162,363	-0,028	-0,001
-422,773	86,223	0,103	0,082
-421,759	-200,000	-0,021	0,110
-420,744	-78,693	-0,025	0,006
-419,730	-77,200	-0,053	-0,013
-418,715	-48,862	0,076	-0,026
-417,701	-82,254	-0,056	-0,013
-416,686	55,070	0,090	0,063
-415,671	800,000	-0,024	-0,067
-414,657	225,838	-0,041	0,049
-413,642	-86,679	-0,019	-0,004
-412,628	372,975	0,020	0,030
-411,613	206,582	0,119	-0,135
-410,598	209,414	0,029	-0,033
-409,584	45,436	0,036	0,024
-408,569	576,269	0,112	0,200
-407,555	177,823	-0,049	-0,052
-406,540	800,000	0,037	0,077
-405,525	147,967	-0,019	-0,019
-404,511	228,847	-0,025	-0,030
-403,496	679,597	-0,031	0,059
-402,482	-72,341	0,054	-0,014
-401,467	-200,000	0,001	-0,078
-400,452	-154,835	0,137	-0,006
-399,438	-200,000	0,019	0,000
-398,423	-20,105	-0,090	-0,040
-397,409	-200,000	0,004	-0,068
-396,394	800,000	0,063	-0,129
-395,379	-200,000	0,010	-0,101
-394,365	-183,501	0,006	0,000
-393,350	-200,000	0,003	-0,012
-392,336	-139,228	-0,083	0,006
-391,321	140,760	0,095	0,091
-390,306	28,314	0,055	-0,033
-389,292	25,184	-0,109	-0,066
-388,277	-200,000	0,032	0,154
-387,263	-44,271	-0,137	0,050
-386,248	131,765	0,029	0,027
-385,233	-189,271	0,138	0,001
-384,219	-200,000	-0,023	0,105
-383,204	-108,855	-0,125	-0,019
-382,190	107,196	-0,043	-0,037
-381,175	156,596	0,089	-0,089
-380,160	-162,138	-0,063	-0,002
-379,146	218,663	0,068	0,078
-378,131	-200,000	0,002	0,079
-377,117	800,000	-0,016	0,039
-376,102	-200,000	0,011	-0,044
-375,088	-142,535	-0,059	0,004
-374,073	543,450	0,065	-0,113
-373,058	315,193	-0,064	0,088
-372,044	-65,616	-0,110	-0,032
-371,029	-26,504	-0,070	-0,030
-370,015	40,572	0,135	0,088
-369,000	-142,715	0,105	0,007
-367,985	619,097	-0,065	-0,120
-366,971	-200,000	-0,003	0,067
-365,956	-16,036	0,193	-0,089
-364,942	22,006	0,137	0,081
-363,927	800,000	-0,015	0,042
-362,912	13,807	-0,103	0,058
-361,898	113,102	0,026	0,023
-360,883	13,757	-0,011	0,006
-359,869	290,758	-0,046	-0,060
-358,854	379,633	-0,059	-0,088
-357,839	197,667	-0,059	0,065
-356,825	626,560	-0,058	0,107
-355,810	-153,239	-0,008	-0,000
-354,796	-136,097	-0,119	-0,010
-353,781	800,000	0,026	-0,062
-352,766	-103,561	-0,047	-0,008
-351,752	-40,943	0,063	-0,023
-350,737	-200,000	-0,016	0,099
-349,723	137,505	-0,057	-0,054
-348,708	-200,000	-0,010	0,113
-347,693	800,000	0,035	-0,084
-346,679	-70,845	0,050	-0,014
-345,664	51,920	-0,106	0,073
-344,650	-99,808	-0,065	0,012
-343,635	-37,954	0,031	0,012
-342,620	-200,000	-0,008	-0,068
-341,606	76,799	-0,068	-0,052
-340,591	-200,000	-0,010	-0,106
-339,577	388,339	-0,125	-0,188
-338,562	-200,000	-0,018	0,113
-337,548	298,794	-0,022	0,029
-336,533	-200,000	0,018	0,095
-335,518	328,440	0,063	0,087
-334,504	11,330	-0,039	-0,022
-333,489	-200,000	0,020	-0,093
-332,475	-2,983	-0,110	-0,055
-331,460	112,284	0,036	-0,031
-330,445	-38,089	-0,062	-0,024
-329,431	-200,000	0,006	0,067
-328,416	232,247	0,049	0,059
-327,402	-200,000	0,008	0,088
-326,387	-46,517	-0,089	0,031
-325,372	-91,262	0,125	-0,026
-324,358	-4,798	-0,120	0,060
-323,343	-200,000	0,002	-0,109
-322,329	29,794	0,044	-0,027
-321,314	7,281	0,069	-0,037
-320,299	-200,000	0,001	-0,009
-319,285	-12,547	0,129	0,061
-318,270	87,437	0,018	0,014
-317,256	800,000	-0,065	-0,178
-316,241	-28,207	-0,066	-0,028
-315,226	-200,000	-0,014	0,107
-314,212	-166,160	-0,056	0,002
-313,197	800,000	0,029	-0,086
-312,183	84,415	-0,050	-0,040
-311,168	-79,797	-0,022	-0,005
-310,153	34,600	-0,125	0,079
-309,139	-107,451	-0,080	-0,013
-308,124	240,320	0,041	-0,049
-307,110	114,867	-0,137	0,121
-306,095	346,949	0,058	0,083
-305,080	-200,000	0,027	-0,135
-304,066	-80,446	-0,121	0,029
-303,051	166,916	-0,053	0,055
-302,037	-169,676	-0,086	-0,002
-301,022	115,851	-0,090	0,080
-300,008	-34,511	0,083	0,033
-298,993	-87,184	0,045	-0,010
-297,978	800,000	-0,037	0,089
-296,964	26,426	-0,080	-0,048
-295,949	-79,824	-0,144	-0,035
-294,935	-200,000	0,001	0,091
-293,920	-141,197	-0,056	0,004
-292,905	-117,840	0,038	0,005
-291,891	271,544	-0,046	-0,059
-290,876	422,910	-0,085	-0,133
-289,862	-64,690	0,070	0,020
-288,847	15,018	0,039	-0,022
-287,832	-200,000	0,015	0,078
-286,818	161,984	0,102	0,103
-285,803	129,404	0,110	0,101
-284,789	-83,315	0,037	-0,009
-283,774	-150,249	0,109	-0,006
-282,759	-200,000	-0,019	-0,226
-281,745	-30,738	-0,084	0,034
-280,730	163,502	-0,073	-0,074
-279,716	-69,764	-0,098	0,027
-278,701	422,478	-0,041	0,064
-277,686	-200,000	-0,007	0,037
-276,672	446,682	0,022	-0,035
-275,657	800,000	-0,023	0,065
-274,643	-200,000	0,017	0,162
-273,628	800,000	-0,013	-0,035
-272,613	77,120	-0,047	0,036
-271,599	26,236	0,092	0,055
-270,584	26,238	-0,012	0,007
-269,570	-200,000	0,006	0,031
-268,555	398,569	-0,092	-0,139
-267,540	159,225	-0,062	-0,063
-266,526	641,613	0,016	0,029
-265,511	-22,646	-0,036	-0,016
-264,497	-10,291	0,013	-0,006
-263,482	-200,000	0,018	0,132
-262,467	56,162	0,035	0,025
-261,453	-81,358	-0,052	-0,012
-260,438	-200,000	0,007	-0,056
-259,424	114,318	-0,075	-0,066
-258,409	107,989	-0,142	-0,123
-257,395	800,000	0,031	-0,071
-256,380	-18,181	0,089	0,040
-255,365	-200,000	0,014	0,045
-254,351	-35,276	0,074	-0,029
-253,336	680,719	0,012	0,022
-252,322	544,498	-0,057	-0,099
-251,307	646,068	-0,021	-0,038
-250,292	800,000	-0,030	-0,078
-249,278	206,521	-0,141	-0,159
-248,263	800,000	0,062	0,128
-247,249	-200,000	-0,004	0,043
-246,234	304,123	-0,112	0,150
-245,219	375,361	-0,153	-0,227
-244,205	-51,209	0,063	-0,021
-243,190	11,540	-0,138	0,076
-242,176	21,968	0,092	-0,054
-241,161	319,850	0,068	0,094
-240,146	73,930	0,112	-0,085
-239,132	218,508	-0,097	0,112
-238,117	-160,766	-0,153	0,006
-237,103	800,000	0,002	-0,004
-236,088	89,300	0,048	0,039
-235,073	-200,000	-0,024	0,137
-234,059	-196,395	0,074	0,000
-233,044	15,053	-0,053	-0,030
-232,030	-90,492	-0,012	-0,003
-231,015	-200,000	0,037	-0,128
-230,000	-93,385	0,015	-0,003
-228,986	230,525	-0,047	-0,056
-227,971	-49,912	0,040	0,014
-226,957	-200,000	0,023	-0,140
-225,942	800,000	0,041	0,123
-224,927	302,506	-0,057	0,076
-223,913	800,000	-0,025	-0,074
-222,898	-102,668	0,087	0,015
-221,884	-120,563	0,040	-0,005
-220,869	-200,000	0,041	-0,148
-219,855	-109,571	0,050	-0,008
-218,840	-200,000	0,013	0,121
-217,825	-49,691	-0,011	0,004
-216,811	-69,820	-0,152	0,042
-215,796	-200,000	-0,021	-0,080
-214,782	800,000	-0,012	-0,031
-213,767	-200,000	0,026	-0,100
-212,752	31,327	0,063	0,039
-211,738	-200,000	-0,004	0,066
-210,723	-92,333	-0,111	0,022
-209,709	-200,000	-0,032	0,225
-208,694	143,246	0,041	-0,039
-207,679	800,000	0,029	-0,088
-206,665	715,700	0,046	0,088
-205,650	399,233	0,056	0,086
-204,636	800,000	0,054	-0,111
-203,621	411,427	-0,040	0,061
-202,606	-200,000	0,014	0,054
-201,592	322,032	-0,107	-0,147
-200,577	-200,000	0,002	-0,050
-199,563	281,434	0,052	0,067
-198,548	142,417	0,056	-0,054
-197,533	-28,491	0,105	0,043
-196,519	-200,000	0,003	-0,025
-195,504	46,475	0,026	-0,017
-194,490	-30,143	0,054	-0,022
-193,475	142,800	-0,026	0,025
-192,460	19,870	0,082	0,047
-191,446	23,226	-0,071	0,042
-190,431	-200,000	0,021	0,081
-189,417	800,000	0,019	-0,044
-188,402	9,011	-0,056	-0,030
-187,387	800,000	-0,060	-0,134
-186,373	-176,275	-0,061	-0,001
-185,358	-22,485	0,114	0,050
-184,344	156,614	0,053	-0,053
-183,329	-94,952	-0,118	-0,023
-182,315	71,204	0,069	-0,051
-181,300	-101,890	0,008	-0,001
-180,285	-77,097	-0,180	0,045
-179,271	664,704	-0,119	-0,222
-178,256	-20,961	0,066	-0,029
-177,242	-200,000	0,009	0,086
-176,227	-200,000	-0,003	-0,123
-175,212	48,101	-0,123	0,083
-174,198	-82,140	0,187	-0,044
-173,183	-182,067	-0,079	-0,001
-172,169	729,526	0,044	0,084
-171,154	-200,000	-0,002	0,032
-170,139	-112,711	0,151	-0,021
-169,125	-200,000	0,055	-0,000
-168,110	-97,597	0,104	-0,019
-167,096	-81,967	0,044	0,010
-166,081	-57,680	-0,087	-0,027
-165,066	-70,273	-0,067	-0,018
-164,052	-43,983	-0,057	0,020
-163,037	800,000	-0,055	-0,150
-162,023	-40,708	0,112	-0,042
-161,008	-200,000	0,014	0,089
-159,993	67,885	0,088	0,065
-158,979	230,650	0,043	-0,051
-157,964	198,874	-0,084	0,093
-156,950	401,616	-0,037	0,056
-155,935	225,864	0,139	0,162
-154,920	198,920	-0,083	0,092
-153,906	-34,410	0,094	0,037
-152,891	74,276	-0,133	-0,101
-151,877	52,825	-0,083	-0,057
-150,862	-56,316	0,062	-0,020
-149,847	9,745	0,072	-0,039
-148,833	-200,000	-0,016	-0,078
-147,818	277,780	-0,057	-0,073
-146,804	622,117	0,016	0,029
-145,789	800,000	-0,023	0,063
-144,775	-200,000	-0,023	0,143
-143,760	103,855	0,046	0,039
-142,745	243,572	0,080	-0,096
-141,731	-46,591	-0,064	0,023
-140,716	144,433	0,104	0,100
-139,702	134,548	-0,051	0,047
-138,687	-160,947	0,017	-0,001
-137,672	3,753	0,018	0,010
-136,658	800,000	-0,031	0,095
-135,643	349,833	0,026	0,037
-134,629	-48,218	-0,093	0,032
-133,614	-55,127	-0,170	-0,055
-132,599	-92,679	0,117	-0,023
-131,585	114,959	0,048	-0,042
-130,570	-135,005	-0,132	0,011
-129,556	-90,625	0,158	-0,033
-128,541	-30,112	-0,078	0,032
-127,526	31,114	0,075	-0,046
-126,512	67,007	0,046	-0,034
-125,497	-200,000	-0,016	-0,089
-124,483	674,368	-0,065	0,122
-123,468	-73,061	-0,095	0,025
-122,453	-200,000	0,016	-0,071
-121,439	185,348	0,065	-0,069
-120,424	-94,293	-0,082	-0,016
-119,410	-28,127	0,141	-0,058
-118,395	338,154	0,055	0,077
-117,380	800,000	0,050	-0,135
-116,366	-200,000	-0,000	-0,048
-115,351	-200,000	-0,010	0,054
-114,337	10,211	-0,191	-0,104
-113,322	48,776	-0,036	0,024
-112,307	-29,879	-0,073	-0,030
-111,293	800,000	-0,007	-0,018
-110,278	800,000	0,085	-0,169
-109,264	209,950	0,066	0,074
-108,249	-73,524	-0,144	0,038
-107,234	427,505	-0,036	-0,056
-106,220	-57,385	-0,056	-0,017
-105,205	800,000	-0,050	0,126
-104,191	180,868	0,062	0,066
-103,176	800,000	-0,079	0,157
-102,162	130,285	-0,075	0,069
-101,147	-200,000	-0,019	0,077
-100,132	-196,155	0,096	0,000
-99,118	21,122	-0,041	0,024
-98,103	119,581	0,089	-0,079
-97,089	-125,854	0,165	0,018
-96,074	-12,087	-0,057	-0,027
-95,059	-200,000	-0,016	0,069
-94,045	-200,000	0,017	0,104
-93,030	39,759	-0,061	0,039
-92,016	62,212	-0,004	0,003
-91,001	-77,695	-0,080	0,020
-89,986	800,000	0,035	-0,089
-88,972	-200,000	0,010	0,035
-87,957	-63,426	-0,063	0,019
-86,943	800,000	-0,033	-0,089
-85,928	61,286	0,048	-0,034
-84,913	-200,000	0,027	-0,087
-83,899	800,000	0,032	-0,078
-82,884	-114,634	0,136	0,018
-81,870	-26,591	-0,097	0,040
-80,855	66,948	-0,113	0,083
-79,840	186,696	-0,050	-0,053
-78,826	800,000	0,044	0,093
-77,811	800,000	-0,021	0,065
-76,797	-200,000	0,000	-0,065
-75,782	-125,811	-0,041	-0,004
-74,767	-200,000	-0,006	-0,040
-73,753	1,032	0,054	0,027
-72,738	800,000	0,024	0,055
-71,724	41,022	-0,115	-0,074
-70,709	800,000	-0,046	0,123
-69,694	800,000	-0,016	0,046
-68,680	487,889	0,015	-0,025
-67,665	-23,429	0,054	-0,023
-66,651	-200,000	0,003	0,126
-65,636	266,629	-0,006	0,008
-64,622	-181,392	-0,113	-0,002
-63,607	233,794	-0,058	0,069
-62,592	461,839	0,013	-0,020
-61,578	105,834	-0,013	-0,011
-60,563	595,696	0,065	-0,116
-59,549	463,679	-0,036	-0,057
-58,534	9,033	-2,114	-1,141
-57,519	-200,000	-0,204	-0,854
-56,505	-200,000	-1,373	-5,128
-55,490	121,871	0,813	0,728
-54,476	800,000	5,290	12,035
-53,461	-200,000	18,813	317,804
-52,446	800,000	741,332	2334,465
-51,432	558,305	1657,448	2878,551
-50,417	111,088	1641,443	1417,300
-49,403	75,411	1291,112	975,959
-48,388	30,270	1031,631	630,146
-47,373	19,867	994,372	572,903
-46,359	17,355	982,136	557,559
-45,344	14,051	978,226	544,445
-44,330	14,379	976,578	544,584
-43,315	13,719	974,881	541,451
-42,300	13,673	973,595	540,564
-41,286	13,713	972,786	540,224
-40,271	13,615	971,809	539,339
-39,257	13,730	970,821	539,147
-38,242	13,707	969,859	538,514
-37,227	13,657	969,340	538,044
-36,213	13,671	968,105	537,382
-35,198	13,622	967,335	536,773
-34,184	13,674	966,521	536,468
-33,169	13,574	965,736	535,687
-32,154	13,623	964,787	535,298
-31,140	13,713	963,655	534,942
-30,125	13,698	963,118	534,572
-29,111	13,654	962,162	533,878
-28,096	13,710	961,535	533,691
-27,082	13,713	960,937	533,348
-26,067	13,690	960,086	532,781
-25,052	13,663	959,440	532,312
-24,038	13,609	958,941	531,839
-23,023	13,665	958,195	531,585
-22,009	13,585	957,546	530,948
-20,994	13,680	956,783	530,808
-19,979	13,678	956,137	530,423
-18,965	13,678	955,570	530,089
-17,950	13,688	954,867	529,709
-16,936	13,644	954,333	529,250
-15,921	13,650	953,699	528,898
-14,906	13,591	952,947	528,270
-13,892	13,545	952,225	527,700
-12,877	13,592	951,641	527,507
-11,863	13,566	950,914	526,999
-10,848	13,570	950,411	526,712
-9,833	13,644	949,892	526,642
-8,819	13,654	949,262	526,302
-7,804	13,583	948,613	525,694
-6,790	13,534	948,054	525,208
-5,775	13,577	947,536	525,039
-4,760	13,563	946,830	524,580
-3,746	13,563	946,272	524,251
-2,731	13,435	945,506	523,399
-1,717	13,427	944,942	523,040
-0,702	13,407	944,211	522,551
0,313	13,287	943,511	522,572
1,327	16,534	941,235	531,548
2,342	25,587	795,837	473,488
3,356	21,885	460,324	268,166
4,371	-4,885	317,232	156,082
5,386	-8,801	298,958	143,078
6,400	-10,717	292,894	138,244
7,415	-11,223	290,500	136,600
8,429	-11,315	288,830	135,711
9,444	-11,482	287,943	135,118
10,459	-11,492	287,070	134,686
11,473	-11,415	286,650	134,553
12,488	-11,380	286,211	134,369
13,502	-11,380	285,621	134,080
14,517	-11,209	285,165	134,021
15,531	-11,343	284,662	133,642
16,546	-11,390	284,340	133,433
17,561	-11,504	283,887	133,098
18,575	-11,376	283,578	133,065
19,590	-11,333	283,093	132,867
20,604	-11,250	282,870	132,831
21,619	-11,264	282,457	132,612
22,634	-11,370	282,177	132,366
23,648	-11,443	281,866	132,139
24,663	-11,420	281,659	132,051
25,677	-11,365	281,419	131,981
26,692	-11,517	281,237	131,737
27,707	-11,438	280,929	131,657
28,721	-11,446	280,612	131,489
29,736	-11,650	280,293	131,133
30,750	-11,387	279,940	131,207
31,765	-11,543	279,892	131,024
32,780	-11,546	279,511	130,831
33,794	-11,372	279,145	130,814
34,809	-11,578	279,132	130,600
35,823	-11,541	278,656	130,401
36,838	-11,358	278,547	130,513
37,853	-11,503	278,156	130,179
38,867	-11,574	277,999	130,028
39,882	-11,512	277,717	129,942
40,896	-11,494	277,544	129,867
41,911	-11,530	277,228	129,673
42,926	-11,530	276,968	129,540
43,940	-11,564	276,925	129,477
44,955	-11,498	276,436	129,299
45,969	-11,575	276,281	129,142
46,984	-11,946	276,242	128,763
47,999	-11,871	275,772	128,603
49,013	-11,966	275,569	128,407
50,028	-12,092	275,103	128,060
51,042	-12,244	274,970	127,845
52,057	-12,169	274,809	127,829
53,071	-12,223	274,566	127,654
54,086	-11,957	274,275	127,756
55,101	-11,821	274,166	127,821
56,115	-11,827	274,111	127,778
57,130	-11,412	273,991	128,098
58,144	-11,233	273,676	128,106
59,159	-11,289	273,397	127,912
60,174	-11,386	273,206	127,721
61,188	-11,414	273,017	127,595
62,203	-11,444	272,936	127,518
63,217	-11,340	272,498	127,399
64,232	-11,328	272,213	127,265
65,247	-11,444	272,110	127,098
66,261	-11,373	271,806	127,011
67,276	-11,377	271,536	126,870
68,290	-11,734	271,335	126,434
69,305	-11,724	271,146	126,344
70,320	-11,676	270,826	126,228
71,334	-11,614	270,696	126,213
72,349	-11,338	270,577	126,401
73,363	-11,275	270,138	126,242
74,378	-11,320	270,022	126,136
75,393	-11,300	269,870	126,072
76,407	-11,423	269,640	125,840
77,422	-11,226	269,342	125,870
78,436	-11,350	269,183	125,671
79,451	-11,306	268,926	125,580
80,466	-11,309	268,593	125,411
81,480	-11,442	268,307	125,145
82,495	-11,541	268,121	124,957
83,509	-11,563	268,205	124,965
84,524	-11,550	267,785	124,770
85,539	-11,588	267,481	124,582
86,553	-11,639	267,318	124,449
87,568	-11,551	267,049	124,392
88,582	-11,526	266,987	124,376
89,597	-11,661	266,716	124,116
90,611	-11,664	266,790	124,136
91,626	-11,331	266,497	124,290
92,641	-11,268	266,257	124,224
93,655	-11,338	266,042	124,049
94,670	-11,509	265,868	123,803
95,684	-11,550	265,633	123,645
96,699	-11,384	265,327	123,642
97,714	-11,305	265,089	123,590
98,728	-11,411	265,022	123,453
99,743	-11,746	264,752	123,015
100,757	-11,587	264,578	123,067
101,772	-11,592	264,417	122,976
102,787	-11,513	264,139	122,907
103,801	-11,357	263,966	122,955
104,816	-11,479	263,723	122,721
105,830	-11,335	263,501	122,736
106,845	-11,431	263,577	122,675
107,860	-11,447	263,341	122,539
108,874	-11,285	263,003	122,515
109,889	-11,350	262,845	122,373
110,903	-11,538	262,665	122,111
111,918	-11,452	262,379	122,044
112,933	-11,323	262,244	122,084
113,947	-11,360	262,063	121,957
114,962	-11,271	261,732	121,871
115,976	-11,489	261,750	121,675
116,991	-11,366	261,448	121,633
118,006	-11,368	261,322	121,561
119,020	-11,404	261,114	121,423
120,035	-11,357	261,106	121,449
121,049	-11,375	260,760	121,261
122,064	-11,291	260,522	121,214
123,079	-11,262	260,288	121,120
124,093	-11,547	260,167	120,802
125,108	-11,387	259,786	120,755
126,122	-11,712	259,660	120,400
127,137	-11,788	259,504	120,249
128,151	-11,829	259,359	120,136
129,166	-11,591	259,159	120,241
130,181	-11,477	258,819	120,173
131,195	-11,739	258,789	119,919
132,210	-11,689	258,528	119,831
133,224	-11,501	258,386	119,918
134,239	-11,333	258,174	119,956
135,254	-11,262	257,950	119,904
136,268	-11,302	257,656	119,721
137,283	-11,623	257,416	119,319
138,297	-11,733	257,205	119,115
139,312	-11,666	257,039	119,086
140,327	-11,676	257,031	119,063
141,341	-11,361	256,905	119,268
142,356	-11,253	256,609	119,214
143,370	-11,126	256,440	119,234
144,385	-11,209	256,361	119,115
145,400	-11,181	256,101	119,008
146,414	-11,138	255,883	118,933
147,429	-11,100	255,659	118,851
148,443	-11,251	255,471	118,623
149,458	-11,069	255,467	118,768
150,473	-11,182	255,247	118,557
151,487	-11,206	254,925	118,377
152,502	-11,348	254,768	118,171
153,516	-11,586	254,831	117,985
154,531	-11,230	254,427	118,093
155,546	-11,112	254,208	118,082
156,560	-11,046	254,078	118,068
157,575	-11,258	253,946	117,815
158,589	-11,441	253,648	117,509
159,604	-11,049	253,467	117,750
160,619	-10,947	253,175	117,690
161,633	-11,067	253,066	117,528
162,648	-11,266	252,960	117,298
163,662	-11,080	252,723	117,336
164,677	-11,109	252,661	117,272
165,692	-11,028	252,378	117,199
166,706	-11,039	252,217	117,104
167,721	-11,043	252,044	117,010
168,735	-10,997	251,805	116,927
169,750	-11,039	251,859	116,907
170,764	-10,880	251,671	116,945
171,779	-11,086	251,606	116,728
172,794	-11,072	251,298	116,588
173,808	-11,153	251,164	116,446
174,823	-11,382	250,850	116,096
175,837	-11,673	250,594	115,722
176,852	-11,365	250,649	115,998
177,867	-11,209	250,460	116,031
178,881	-11,086	250,250	116,028
179,896	-11,318	250,294	115,841
180,910	-11,205	250,009	115,795
181,925	-11,121	249,721	115,721
182,940	-11,101	249,563	115,654
183,954	-11,220	249,519	115,524
184,969	-11,031	249,384	115,610
185,983	-10,927	249,162	115,584
186,998	-10,905	248,740	115,397
188,013	-11,084	248,675	115,206
189,027	-11,221	248,625	115,058
190,042	-11,093	248,361	115,033
191,056	-11,058	248,274	115,012
192,071	-11,106	248,015	114,841
193,086	-11,178	247,996	114,762
194,100	-11,120	247,803	114,711
195,115	-11,095	247,533	114,596
196,129	-11,109	247,308	114,470
197,144	-11,164	247,152	114,342
198,159	-11,031	246,843	114,299
199,173	-11,188	246,873	114,172
200,188	-11,123	246,393	113,994
201,202	-11,201	246,282	113,868
202,217	-11,467	245,869	113,447
203,232	-11,676	246,010	113,329
204,246	-11,289	245,905	113,591
205,261	-10,754	245,621	113,891
206,275	-11,857	245,297	112,821
207,290	-7,612	247,084	117,157
208,304	0,466	249,637	125,112
209,319	4,086	250,604	128,612
210,334	4,817	250,752	129,288
211,348	5,064	250,609	129,409
212,363	5,303	250,514	129,547
213,377	5,452	250,340	129,571
214,392	5,241	250,101	129,259
215,407	5,148	249,830	129,030
216,421	4,633	249,834	128,593
217,436	5,177	249,790	129,011
218,450	5,348	249,511	128,997
219,465	4,933	249,303	128,534
220,480	4,850	249,066	128,331
221,494	4,652	249,019	128,132
222,509	4,773	248,934	128,177
223,523	4,757	248,580	127,970
224,538	4,341	248,221	127,430
225,553	4,568	248,162	127,576
226,567	4,608	248,198	127,616
227,582	4,733	247,881	127,545
228,596	4,790	247,685	127,479
229,611	4,536	247,413	127,119
230,626	4,418	247,297	126,951
231,640	4,465	247,018	126,835
232,655	4,589	246,951	126,891
233,669	4,521	246,770	126,731
234,684	4,208	246,609	126,380
235,699	4,749	246,650	126,834
236,713	4,864	246,378	126,777
237,728	4,535	246,120	126,364
238,742	4,326	245,932	126,085
239,757	4,247	245,633	125,856
240,772	4,505	245,552	126,014
241,786	4,498	245,568	126,005
242,801	4,316	245,316	125,716
243,815	4,307	245,275	125,676
244,830	4,740	245,066	125,911
245,844	4,546	245,131	125,775
246,859	4,669	244,733	125,660
247,874	4,372	244,490	125,283
248,888	4,291	244,470	125,195
249,903	4,635	244,446	125,451
250,917	4,557	244,225	125,263
251,932	4,801	244,025	125,347
252,947	4,786	243,720	125,167
253,961	4,464	243,574	124,820
254,976	4,367	243,587	124,738
255,990	4,770	243,469	124,992
257,005	4,241	243,210	124,420
258,020	4,131	243,163	124,297
259,034	4,574	242,822	124,469
260,049	4,544	242,737	124,390
261,063	4,094	242,572	123,932
262,078	4,308	242,336	123,973
263,093	4,439	242,312	124,055
264,107	4,676	242,103	124,126
265,122	4,301	241,904	123,712
266,136	4,604	241,869	123,927
267,151	4,931	241,679	124,080
268,166	4,268	241,402	123,396
269,180	4,296	241,191	123,299
270,195	4,917	241,311	123,847
271,209	5,309	241,194	124,089
272,224	4,460	240,953	123,276
273,239	4,027	240,708	122,795
274,253	4,401	240,469	122,959
275,268	4,493	240,395	122,984
276,282	4,432	240,390	122,922
277,297	4,656	239,905	122,841
278,312	4,401	239,858	122,603
279,326	4,374	239,772	122,527
280,341	4,619	239,681	122,664
281,355	4,401	239,522	122,399
282,370	4,600	239,260	122,412
283,384	4,547	239,201	122,329
284,399	4,262	239,081	122,031
285,414	4,157	238,887	121,838
286,428	4,362	238,532	121,808
287,443	4,569	238,583	121,987
288,457	4,452	238,484	121,833
289,472	4,582	238,406	121,885
290,487	4,600	238,053	121,707
291,501	4,309	237,898	121,388
292,516	4,085	237,687	121,093
293,530	4,026	237,625	121,004
294,545	4,721	237,549	121,501
295,560	4,367	237,345	121,108
296,574	4,248	237,116	120,887
297,589	4,348	237,059	120,925
298,603	4,525	236,965	121,006
299,618	4,731	236,697	121,019
300,633	4,665	236,593	120,903
301,647	4,650	236,591	120,880
302,662	4,907	236,485	121,016
303,676	4,955	236,269	120,932
304,691	4,881	236,111	120,783
305,706	4,946	235,917	120,723
306,720	4,813	235,886	120,593
307,735	4,644	235,736	120,374
308,749	4,593	235,439	120,172
309,764	4,397	235,188	119,881
310,779	4,368	234,971	119,737
311,793	4,244	234,770	119,528
312,808	4,210	234,657	119,433
313,822	4,122	234,590	119,320
314,837	4,068	234,421	119,182
315,852	4,181	234,275	119,184
316,866	4,239	234,157	119,159
317,881	4,764	234,107	119,528
318,895	4,811	234,080	119,540
319,910	5,038	233,914	119,620
320,925	4,554	233,557	119,054
321,939	4,197	233,495	118,737
322,954	4,573	233,329	118,931
323,968	4,542	233,210	118,836
324,983	4,424	233,129	118,693
325,997	4,827	233,010	118,932
327,012	4,626	232,844	118,682
328,027	4,541	232,574	118,469
329,041	4,787	232,566	118,643
330,056	5,329	232,568	119,048
331,070	5,339	232,387	118,953
332,085	4,707	232,256	118,392
333,100	4,578	231,949	118,126
334,114	4,729	231,725	118,117
335,129	4,795	231,684	118,136
336,143	4,910	231,693	118,218
337,158	4,736	231,398	117,923
338,173	4,705	231,126	117,751
339,187	4,685	230,980	117,651
340,202	4,682	230,920	117,608
341,216	4,612	230,769	117,467
342,231	4,605	230,613	117,372
343,246	4,617	230,531	117,328
344,260	4,731	230,346	117,311
345,275	4,768	230,316	117,313
346,289	4,731	230,097	117,162
347,304	4,883	229,986	117,211
348,319	4,991	229,776	117,175
349,333	4,554	229,676	116,783
350,348	4,484	229,424	116,592
351,362	4,451	229,314	116,500
352,377	4,311	229,158	116,305
353,392	4,339	228,825	116,147
354,406	4,371	228,730	116,113
355,421	195,126	1318,962	1393,067
356,435	156,492	1451,748	1393,033
