DTS Sentinel unit serial number:	SN410029Multiplexer serial number:	ORYXHardware model number:	OX2-SRSoftware version number:	ORYX F/W v4,00 Oryx Data Collector v3.7.2.0data status	okinstallation	B5 Nyhavnadifferential loss correction	single-endedforward channel	channel 2reverse channel	N/Adate	2023/12/13time	10:52:14forward acquisition time	300,00reverse acquisition time	0,00gamma	499,1914k internal	0,3160k external	0,3160temperature offset calibration	1,0000default loss term (dB/km)	0,3820temperature slope calibration	1,0000multiplexer offset coefficient	1,0000multiplexer slope coefficient	1,0000fibre end	0,00T internal ref (°C)	13,66T ext. ref 1 (°C)	-2,59T ext. ref 2 (°C)	-2,91length (m)	temperature (°C)	Stokes	anti-Stokes-744,400	643,244	0,063	0,119
-743,385	-149,523	-0,356	0,020
-742,371	-61,693	0,266	0,082
-741,356	-164,395	-0,258	-0,009
-740,342	70,427	0,097	0,074
-739,327	-141,694	-0,218	-0,016
-738,312	-120,937	0,171	0,021
-737,298	-200,000	-0,379	0,001
-736,283	-200,000	-0,002	0,017
-735,269	-154,217	-0,219	0,011
-734,254	-200,000	0,008	0,073
-733,239	86,028	-0,432	-0,350
-732,225	18,958	0,180	0,106
-731,210	-51,046	0,048	0,016
-730,196	-60,275	0,062	0,019
-729,181	174,369	-0,054	-0,057
-728,167	-166,561	0,107	-0,003
-727,152	-19,911	-0,058	0,026
-726,137	71,304	-0,097	-0,074
-725,123	408,884	0,112	0,175
-724,108	800,000	-0,052	-0,153
-723,094	111,304	-0,095	-0,084
-722,079	-14,465	-0,141	-0,066
-721,064	-175,796	0,117	-0,002
-720,050	27,731	0,064	0,040
-719,035	-135,757	-0,161	0,014
-718,021	800,000	0,056	-0,129
-717,006	-92,296	-0,231	0,048
-715,991	800,000	0,028	-0,079
-714,977	232,725	-0,037	-0,044
-713,962	-95,973	-0,049	-0,010
-712,948	-41,550	-0,054	-0,020
-711,933	79,072	0,060	-0,047
-710,918	29,247	0,126	0,078
-709,904	14,196	-0,104	-0,059
-708,889	476,120	-0,130	-0,216
-707,875	-12,091	-0,022	-0,011
-706,860	593,169	0,060	0,110
-705,845	87,924	-0,112	0,091
-704,831	-106,743	-0,087	0,014
-703,816	-41,255	-0,096	-0,036
-702,802	49,580	-0,057	-0,039
-701,787	259,055	0,089	-0,114
-700,772	467,332	-0,035	-0,058
-699,758	800,000	0,006	-0,015
-698,743	-27,047	0,039	0,017
-697,729	-46,192	0,047	0,017
-696,714	0,998	-0,143	-0,075
-695,699	-53,634	-0,016	-0,005
-694,685	-113,173	0,028	0,004
-693,670	-200,000	0,053	-0,265
-692,656	-200,000	-0,022	-0,105
-691,641	-73,993	-0,106	-0,028
-690,627	120,742	0,121	0,111
-689,612	-200,000	-0,009	0,098
-688,597	355,920	-0,048	0,071
-687,583	-96,694	0,063	-0,012
-686,568	490,064	0,028	-0,048
-685,554	399,714	-0,035	0,055
-684,539	-140,543	0,082	0,006
-683,524	-200,000	0,004	0,092
-682,510	100,663	0,034	-0,029
-681,495	404,288	-0,070	-0,108
-680,481	356,982	0,041	-0,060
-679,466	-132,193	-0,124	0,012
-678,451	-200,000	0,000	0,102
-677,437	239,916	-0,069	-0,084
-676,422	-200,000	-0,001	0,087
-675,408	-15,654	-0,066	-0,031
-674,393	-200,000	0,004	-0,033
-673,378	158,614	0,059	-0,060
-672,364	185,364	-0,072	-0,079
-671,349	-72,394	-0,105	-0,028
-670,335	-200,000	-0,003	-0,024
-669,320	800,000	0,009	-0,020
-668,305	23,886	0,170	0,103
-667,291	-28,968	0,088	-0,037
-666,276	-149,907	0,050	0,003
-665,262	73,482	0,033	-0,026
-664,247	-87,984	-0,194	-0,043
-663,232	800,000	-0,035	0,102
-662,218	150,999	-0,061	-0,061
-661,203	-200,000	-0,004	-0,027
-660,189	-56,930	-0,070	-0,022
-659,174	800,000	-0,019	-0,040
-658,159	54,293	0,040	0,028
-657,145	740,641	0,048	0,095
-656,130	-49,274	-0,129	0,045
-655,116	-200,000	-0,003	0,057
-654,101	-73,332	0,106	-0,028
-653,086	305,437	-0,058	0,079
-652,072	-200,000	-0,009	-0,079
-651,057	800,000	0,027	0,068
-650,043	127,658	0,096	-0,090
-649,028	800,000	0,027	-0,059
-648,014	-200,000	-0,014	0,060
-646,999	20,429	-0,065	-0,038
-645,984	-119,173	-0,066	-0,008
-644,970	246,160	-0,088	0,110
-643,955	800,000	-0,047	-0,125
-642,941	110,063	0,049	-0,044
-641,926	138,472	0,028	0,027
-640,911	800,000	-0,053	-0,132
-639,897	258,315	0,086	-0,109
-638,882	44,926	-0,041	-0,027
-637,868	-200,000	0,033	-0,117
-636,853	11,407	0,066	-0,037
-635,838	-200,000	0,012	0,060
-634,824	-111,893	-0,108	0,016
-633,809	-200,000	-0,012	0,066
-632,795	521,234	-0,031	-0,054
-631,780	-200,000	-0,004	0,018
-630,765	487,841	-0,049	-0,082
-629,751	-39,020	0,062	-0,024
-628,736	800,000	-0,067	-0,150
-627,722	-200,000	-0,008	-0,142
-626,707	-200,000	-0,000	0,170
-625,692	-156,314	0,115	0,005
-624,678	17,174	-0,119	0,069
-623,663	-141,045	-0,108	-0,008
-622,649	-200,000	0,027	-0,097
-621,634	-122,392	-0,109	-0,013
-620,619	-55,357	0,077	0,025
-619,605	-153,084	0,074	-0,004
-618,590	-200,000	-0,012	0,069
-617,576	120,385	-0,070	0,064
-616,561	-30,793	-0,100	0,041
-615,546	800,000	-0,084	-0,180
-614,532	-51,245	-0,088	-0,030
-613,517	-170,513	-0,064	-0,002
-612,503	800,000	0,051	0,148
-611,488	544,871	-0,072	-0,126
-610,474	61,676	0,113	-0,082
-609,459	155,448	0,049	0,050
-608,444	369,605	-0,094	-0,140
-607,430	165,945	0,055	-0,057
-606,415	84,524	-0,097	-0,077
-605,401	-32,020	0,078	-0,032
-604,386	91,067	0,090	-0,074
-603,371	-114,105	-0,068	-0,010
-602,357	-128,020	-0,192	0,020
-601,342	-195,181	-0,102	0,001
-600,328	282,317	-0,049	-0,065
-599,313	800,000	0,045	0,097
-598,298	576,046	-0,020	0,035
-597,284	128,309	-0,034	-0,032
-596,269	-200,000	-0,021	0,118
-595,255	-200,000	0,034	0,186
-594,240	-200,000	0,056	-0,198
-593,225	800,000	0,032	-0,078
-592,211	194,994	-0,153	-0,170
-591,196	-200,000	-0,001	-0,032
-590,182	800,000	0,034	0,084
-589,167	199,678	-0,112	0,126
-588,152	-93,781	0,049	-0,010
-587,138	-77,578	0,039	0,010
-586,123	304,792	0,053	-0,072
-585,109	-200,000	-0,020	0,096
-584,094	316,030	0,054	0,075
-583,079	-137,680	-0,025	-0,002
-582,065	-200,000	0,007	0,038
-581,050	800,000	-0,012	-0,024
-580,036	-200,000	-0,019	-0,081
-579,021	-200,000	-0,040	-0,133
-578,006	120,317	0,095	-0,087
-576,992	338,808	-0,012	-0,017
-575,977	-24,356	0,133	0,058
-574,963	255,776	0,079	0,099
-573,948	-11,818	-0,037	0,018
-572,934	-200,000	-0,034	-0,161
-571,919	-200,000	-0,003	-0,046
-570,904	303,574	0,020	-0,028
-569,890	-200,000	-0,025	-0,087
-568,875	-200,000	0,008	0,077
-567,861	800,000	-0,059	0,174
-566,846	-145,375	-0,038	0,002
-565,831	194,514	-0,063	-0,070
-564,817	457,459	0,049	-0,080
-563,802	800,000	-0,056	-0,142
-562,788	800,000	0,012	-0,025
-561,773	-200,000	-0,009	0,077
-560,758	460,779	0,013	-0,021
-559,744	-96,390	0,121	0,023
-558,729	-50,069	0,032	-0,011
-557,715	-22,085	-0,051	-0,022
-556,700	435,062	-0,033	-0,053
-555,685	-34,787	-0,019	-0,007
-554,671	-200,000	0,005	-0,056
-553,656	800,000	0,052	-0,112
-552,642	-36,240	-0,040	-0,016
-551,627	-200,000	-0,013	-0,078
-550,612	483,150	0,066	-0,109
-549,598	-107,176	-0,044	-0,007
-548,583	-200,000	-0,010	0,138
-547,569	36,747	0,042	-0,027
-546,554	-134,317	0,040	-0,004
-545,539	91,805	-0,076	0,062
-544,525	99,374	0,044	-0,038
-543,510	-52,070	-0,073	0,025
-542,496	-104,893	-0,054	-0,009
-541,481	127,152	0,022	-0,020
-540,466	-200,000	0,026	-0,132
-539,452	-12,378	0,087	-0,041
-538,437	0,943	0,081	0,043
-537,423	216,642	0,068	0,079
-536,408	-55,142	-0,033	0,011
-535,393	534,481	-0,026	-0,046
-534,379	-32,018	-0,093	-0,038
-533,364	-49,342	-0,030	-0,011
-532,350	800,000	0,037	-0,077
-531,335	250,001	0,068	0,085
-530,321	-154,904	0,075	0,004
-529,306	334,772	0,089	0,126
-528,291	-182,943	0,186	-0,002
-527,277	12,719	-0,136	-0,077
-526,262	-200,000	-0,012	0,132
-525,248	800,000	0,004	-0,011
-524,233	-200,000	0,020	0,103
-523,218	122,034	0,082	-0,074
-522,204	24,582	0,095	0,057
-521,189	63,916	-0,125	0,092
-520,175	-200,000	0,026	0,092
-519,160	-20,523	0,027	0,012
-518,145	180,320	0,123	-0,132
-517,131	800,000	-0,062	-0,188
-516,116	150,906	0,060	0,059
-515,102	168,669	-0,049	0,051
-514,087	-6,525	-0,131	-0,065
-513,072	-200,000	0,006	-0,152
-512,058	-200,000	0,015	-0,059
-511,043	-56,057	-0,013	-0,004
-510,029	-60,039	0,074	0,023
-509,014	235,041	-0,024	-0,028
-507,999	-200,000	-0,048	0,158
-506,985	127,453	0,054	-0,050
-505,970	-82,237	-0,238	-0,056
-504,956	112,273	-0,032	-0,028
-503,941	470,944	0,061	-0,101
-502,926	-110,818	0,164	-0,024
-501,912	-200,000	0,003	-0,043
-500,897	451,883	-0,090	0,145
-499,883	684,078	-0,032	-0,061
-498,868	-118,293	-0,112	0,014
-497,853	46,630	0,073	-0,049
-496,839	-72,969	0,029	0,008
-495,824	36,633	-0,026	-0,016
-494,810	800,000	0,040	0,116
-493,795	-14,613	0,032	0,015
-492,781	34,034	-0,089	0,056
-491,766	207,035	-0,015	0,017
-490,751	-200,000	0,025	-0,158
-489,737	-200,000	-0,032	0,112
-488,722	320,162	-0,055	0,077
-487,708	81,998	0,099	0,079
-486,693	-23,934	-0,051	0,022
-485,678	275,073	0,089	-0,116
-484,664	13,734	-0,117	-0,066
-483,649	800,000	-0,025	-0,057
-482,635	57,778	0,073	-0,052
-481,620	221,368	0,089	0,104
-480,605	168,149	-0,059	-0,061
-479,591	-200,000	0,043	0,173
-478,576	-200,000	-0,012	0,053
-477,562	86,514	-0,153	0,123
-476,547	-105,740	0,027	0,004
-475,532	-31,723	-0,094	-0,038
-474,518	441,134	0,066	-0,105
-473,503	-3,785	-0,071	0,036
-472,489	76,774	0,111	-0,085
-471,474	-87,364	-0,059	-0,013
-470,459	-200,000	0,010	0,059
-469,445	-43,415	-0,062	-0,023
-468,430	404,529	-0,020	0,030
-467,416	136,116	0,093	0,088
-466,401	48,895	0,052	0,035
-465,386	-200,000	-0,071	0,245
-464,372	-200,000	-0,010	-0,071
-463,357	800,000	0,041	-0,124
-462,343	-67,572	-0,154	0,044
-461,328	26,509	0,044	-0,027
-460,313	596,196	-0,070	-0,127
-459,299	40,526	0,098	-0,064
-458,284	200,106	-0,039	0,044
-457,270	163,804	0,133	-0,136
-456,255	455,184	0,039	-0,063
-455,241	714,892	-0,007	-0,013
-454,226	-71,669	0,081	-0,022
-453,211	327,290	-0,037	-0,052
-452,197	-200,000	-0,013	0,183
-451,182	800,000	0,018	0,046
-450,168	800,000	-0,046	0,102
-449,153	-57,657	0,080	-0,025
-448,138	159,882	-0,055	0,055
-447,124	800,000	-0,023	-0,069
-446,109	800,000	0,079	-0,171
-445,095	800,000	-0,044	0,137
-444,080	-200,000	-0,015	0,124
-443,065	-59,395	-0,090	-0,028
-442,051	-64,634	-0,146	0,043
-441,036	-200,000	0,002	-0,059
-440,022	800,000	-0,015	-0,036
-439,007	-41,048	0,054	0,020
-437,992	603,518	0,073	0,134
-436,978	143,810	-0,060	0,058
-435,963	-46,184	0,089	-0,032
-434,949	154,662	0,042	-0,042
-433,934	-148,751	-0,191	-0,011
-432,919	-200,000	-0,004	-0,016
-431,905	-94,720	-0,111	-0,022
-430,890	25,751	0,059	0,036
-429,876	800,000	0,055	-0,121
-428,861	11,929	-0,046	0,025
-427,846	-157,465	0,012	-0,001
-426,832	-200,000	-0,003	-0,119
-425,817	-200,000	-0,016	0,121
-424,803	479,568	0,029	0,048
-423,788	-200,000	-0,006	-0,138
-422,773	-200,000	0,000	-0,035
-421,759	-171,999	0,097	-0,002
-420,744	-200,000	-0,029	0,098
-419,730	301,556	-0,045	0,060
-418,715	92,241	-0,044	-0,036
-417,701	-200,000	-0,001	-0,139
-416,686	-17,150	-0,052	0,024
-415,671	300,024	-0,025	-0,033
-414,657	800,000	-0,006	0,014
-413,642	216,097	-0,059	0,069
-412,628	-24,132	-0,100	0,043
-411,613	27,240	-0,015	-0,009
-410,598	245,213	-0,076	0,094
-409,584	347,699	0,041	0,059
-408,569	-50,272	0,028	0,009
-407,555	486,523	0,091	0,151
-406,540	593,241	-0,035	0,063
-405,525	86,337	0,029	-0,023
-404,511	-200,000	0,002	0,043
-403,496	-48,749	0,110	0,038
-402,482	-200,000	-0,007	0,124
-401,467	-65,070	0,132	-0,038
-400,452	800,000	0,016	0,034
-399,438	283,314	0,079	-0,104
-398,423	15,487	-0,136	0,078
-397,409	382,232	-0,047	-0,071
-396,394	-164,313	-0,129	0,004
-395,379	78,477	0,089	0,069
-394,365	800,000	0,039	0,079
-393,350	-200,000	0,029	0,173
-392,336	373,295	-0,060	0,089
-391,321	800,000	0,030	0,067
-390,306	238,312	-0,060	0,073
-389,292	14,080	0,068	-0,038
-388,277	510,158	0,057	-0,096
-387,263	117,681	0,073	-0,066
-386,248	-111,830	0,112	0,016
-385,233	332,317	0,035	0,049
-384,219	-65,893	-0,100	0,029
-383,204	800,000	0,022	0,059
-382,190	800,000	0,017	0,055
-381,175	-200,000	0,009	0,065
-380,160	-200,000	-0,012	-0,038
-379,146	-187,841	0,074	0,001
-378,131	-200,000	-0,005	0,071
-377,117	-25,814	-0,101	-0,043
-376,102	-200,000	0,006	0,000
-375,088	-35,313	0,155	0,061
-374,073	-200,000	0,030	0,112
-373,058	163,787	0,039	-0,040
-372,044	299,725	0,032	-0,043
-371,029	-38,261	-0,088	0,034
-370,015	-34,975	-0,060	0,024
-369,000	-200,000	-0,010	-0,093
-367,985	7,770	-0,070	-0,038
-366,971	523,267	0,059	0,101
-365,956	-96,376	0,036	0,007
-364,942	292,191	0,047	-0,063
-363,927	-200,000	0,014	0,073
-362,912	-118,224	-0,125	-0,016
-361,898	800,000	0,036	0,079
-360,883	-200,000	0,010	-0,057
-359,869	405,646	-0,074	-0,113
-358,854	50,098	0,153	0,104
-357,839	350,974	0,018	-0,026
-356,825	800,000	0,049	0,109
-355,810	800,000	-0,045	-0,097
-354,796	-104,023	-0,083	0,014
-353,781	85,708	0,075	-0,060
-352,766	186,997	0,007	0,007
-351,752	-200,000	0,022	0,122
-350,737	60,221	-0,050	-0,036
-349,723	800,000	-0,038	0,094
-348,708	443,765	-0,067	0,107
-347,693	800,000	0,040	-0,122
-346,679	-200,000	0,056	0,185
-345,664	-142,372	0,090	-0,006
-344,650	-189,253	-0,060	-0,001
-343,635	39,889	-0,037	0,024
-342,620	1,090	0,114	0,059
-341,606	-200,000	0,108	0,000
-340,591	-200,000	0,006	0,075
-339,577	-200,000	-0,001	-0,092
-338,562	5,530	-0,108	-0,058
-337,548	-199,944	-0,121	-0,000
-336,533	31,613	-0,085	0,053
-335,518	-200,000	0,018	0,072
-334,504	31,357	0,078	0,048
-333,489	-200,000	0,037	-0,121
-332,475	242,510	-0,094	-0,114
-331,460	-200,000	-0,001	-0,122
-330,445	-65,931	0,036	0,010
-329,431	83,109	-0,079	0,062
-328,416	-103,873	0,120	0,020
-327,402	60,425	-0,109	0,078
-326,387	-88,816	0,171	0,036
-325,372	-200,000	-0,001	0,033
-324,358	-69,110	0,043	-0,012
-323,343	34,228	0,050	0,032
-322,329	104,319	0,087	0,074
-321,314	-134,810	-0,177	-0,015
-320,299	-92,555	-0,027	0,006
-319,285	-130,089	0,039	-0,004
-318,270	-113,341	0,043	0,006
-317,256	-32,825	-0,162	0,065
-316,241	-200,000	0,003	-0,093
-315,226	475,224	0,040	-0,066
-314,212	694,060	-0,014	-0,026
-313,197	-200,000	-0,023	0,078
-312,183	-95,101	-0,062	0,012
-311,168	544,806	0,031	0,054
-310,153	719,833	-0,053	0,102
-309,139	-200,000	0,001	0,038
-308,124	-200,000	0,003	0,134
-307,110	113,002	0,060	-0,053
-306,095	800,000	0,059	0,176
-305,080	-116,613	-0,040	-0,005
-304,066	-107,349	-0,058	0,009
-303,051	713,686	-0,068	-0,132
-302,037	800,000	0,026	-0,083
-301,022	216,916	0,039	-0,045
-300,008	406,591	-0,068	-0,104
-298,993	-2,412	-0,112	0,056
-297,978	146,954	-0,147	0,143
-296,964	47,035	-0,055	0,037
-295,949	-200,000	-0,024	-0,078
-294,935	-102,082	0,169	-0,029
-293,920	781,652	-0,055	-0,110
-292,905	-200,000	0,015	0,098
-291,891	-35,623	0,165	0,064
-290,876	-104,773	0,157	-0,026
-289,862	-200,000	-0,031	0,125
-288,847	24,112	0,089	0,053
-287,832	-200,000	-0,039	0,153
-286,818	-171,292	-0,082	0,002
-285,803	-66,685	0,082	0,023
-284,789	-12,399	-0,015	0,007
-283,774	153,261	0,036	0,035
-282,759	365,940	-0,063	0,093
-281,745	-46,102	-0,111	-0,039
-280,730	-157,581	-0,056	0,002
-279,716	-200,000	0,012	0,106
-278,701	20,055	-0,028	0,016
-277,686	-200,000	0,018	0,102
-276,672	112,018	-0,078	-0,068
-275,657	800,000	-0,016	0,047
-274,643	177,747	-0,083	-0,088
-273,628	-12,419	-0,040	0,019
-272,613	733,232	0,024	0,047
-271,599	344,772	0,147	-0,210
-270,584	111,282	0,083	-0,072
-269,570	278,171	-0,008	-0,011
-268,555	800,000	-0,027	0,083
-267,540	-200,000	-0,002	-0,098
-266,526	-200,000	-0,006	-0,170
-265,511	25,077	-0,042	-0,025
-264,497	-81,138	-0,113	0,027
-263,482	-200,000	0,028	0,129
-262,467	672,959	0,097	0,184
-261,453	20,003	-0,044	0,026
-260,438	-108,205	-0,049	-0,008
-259,424	319,469	0,063	-0,087
-258,409	712,374	0,022	-0,042
-257,395	168,316	0,075	0,077
-256,380	663,456	-0,048	-0,090
-255,365	-75,776	0,104	0,026
-254,351	15,460	-0,024	-0,014
-253,336	-200,000	0,038	0,136
-252,322	143,164	0,044	0,043
-251,307	800,000	-0,029	-0,076
-250,292	788,534	0,057	0,114
-249,278	385,403	0,084	-0,125
-248,263	340,586	-0,020	0,028
-247,249	51,119	0,056	-0,038
-246,234	578,208	-0,025	-0,044
-245,219	-200,000	-0,021	-0,164
-244,205	45,827	-0,027	-0,018
-243,190	-200,000	-0,004	0,028
-242,176	97,413	-0,043	-0,036
-241,161	-200,000	-0,003	-0,024
-240,146	61,548	0,158	-0,113
-239,132	-146,465	0,091	0,006
-238,117	12,025	-0,131	-0,072
-237,103	496,725	0,011	0,019
-236,088	111,487	0,134	0,116
-235,073	-184,179	0,049	0,001
-234,059	23,136	0,074	-0,044
-233,044	800,000	-0,012	0,029
-232,030	-200,000	0,033	0,113
-231,015	78,607	-0,082	-0,063
-230,000	-200,000	0,000	-0,107
-228,986	680,241	-0,043	0,082
-227,971	-10,709	0,193	0,092
-226,957	15,737	-0,081	0,046
-225,942	588,594	-0,033	0,058
-224,927	55,421	-0,036	-0,025
-223,913	800,000	0,025	-0,074
-222,898	800,000	0,011	0,033
-221,884	220,056	0,091	-0,105
-220,869	134,692	0,100	0,093
-219,855	-30,331	0,028	-0,011
-218,840	-92,841	0,070	-0,014
-217,825	-120,246	-0,107	-0,013
-216,811	-151,335	-0,160	0,008
-215,796	195,824	0,076	0,083
-214,782	800,000	-0,037	-0,107
-213,767	46,465	-0,096	-0,064
-212,752	-169,310	-0,064	0,002
-211,738	201,178	0,100	-0,112
-210,723	-45,602	-0,024	-0,008
-209,709	800,000	0,036	-0,106
-208,694	144,771	-0,046	-0,044
-207,679	-108,479	0,117	0,018
-206,665	89,381	0,141	0,113
-205,650	-200,000	0,012	-0,130
-204,636	73,430	-0,066	0,049
-203,621	-200,000	0,054	0,331
-202,606	-200,000	-0,008	0,033
-201,592	800,000	-0,017	-0,049
-200,577	-76,347	-0,147	-0,037
-199,563	-200,000	0,019	-0,065
-198,548	-200,000	0,027	-0,181
-197,533	340,542	-0,046	0,064
-196,519	303,862	0,018	0,025
-195,504	-58,609	0,025	0,008
-194,490	450,985	-0,018	-0,029
-193,475	732,744	-0,029	0,056
-192,460	717,094	0,020	-0,038
-191,446	-19,954	0,123	-0,054
-190,431	-47,067	-0,112	0,039
-189,417	133,755	0,035	-0,033
-188,402	7,558	-0,060	-0,032
-187,387	-200,000	0,007	-0,126
-186,373	-45,386	-0,035	-0,012
-185,358	800,000	-0,009	-0,028
-184,344	728,276	0,047	-0,091
-183,329	800,000	0,026	0,067
-182,315	212,336	0,052	0,060
-181,300	282,637	0,043	-0,056
-180,285	-37,664	0,029	-0,011
-179,271	-11,867	0,109	-0,051
-178,256	-200,000	-0,013	-0,114
-177,242	66,448	0,141	0,103
-176,227	502,376	0,064	0,107
-175,212	782,526	0,003	-0,006
-174,198	-46,304	-0,111	0,039
-173,183	-63,376	-0,184	0,054
-172,169	-200,000	0,029	-0,123
-171,154	552,614	-0,055	-0,096
-170,139	800,000	-0,026	0,078
-169,125	-200,000	-0,176	0,000
-168,110	-147,255	0,114	-0,007
-167,096	51,994	-0,089	-0,061
-166,081	-106,475	0,020	-0,003
-165,066	121,310	0,073	-0,066
-164,052	90,370	0,057	0,046
-163,037	730,624	-0,112	0,216
-162,023	-200,000	0,012	0,053
-161,008	-200,000	-0,025	0,099
-159,993	-133,507	0,120	-0,011
-158,979	35,027	0,171	-0,108
-157,964	580,617	0,008	-0,013
-156,950	168,708	-0,074	-0,076
-155,935	-200,000	-0,004	0,126
-154,920	-200,000	0,017	-0,071
-153,906	-200,000	0,032	-0,184
-152,891	399,877	0,016	0,024
-151,877	800,000	0,005	0,014
-150,862	526,512	-0,006	-0,011
-149,847	-7,393	0,037	0,018
-148,833	230,441	0,065	0,076
-147,818	-14,061	0,036	-0,017
-146,804	42,765	0,095	0,062
-145,789	-59,337	0,038	-0,012
-144,775	800,000	0,007	0,021
-143,760	423,559	0,011	-0,016
-142,745	-90,805	-0,032	-0,007
-141,731	-76,030	0,077	0,019
-140,716	-22,377	0,123	-0,054
-139,702	-200,000	-0,006	0,056
-138,687	342,316	-0,023	0,033
-137,672	-171,046	-0,096	0,002
-136,658	673,301	0,070	0,131
-135,643	-135,864	0,036	-0,003
-134,629	16,339	-0,055	0,031
-133,614	-77,347	0,143	0,035
-132,599	-152,198	0,070	0,004
-131,585	-23,031	0,017	0,007
-130,570	-14,189	0,050	-0,023
-129,556	-200,000	0,006	0,092
-128,541	-115,450	-0,106	0,014
-127,526	-94,285	-0,067	0,013
-126,512	-200,000	0,015	0,091
-125,497	139,422	0,120	0,113
-124,483	800,000	0,076	0,238
-123,468	111,673	-0,082	0,071
-122,453	142,646	0,085	-0,081
-121,439	800,000	0,019	0,055
-120,424	-200,000	0,027	-0,129
-119,410	-3,936	0,030	0,015
-118,395	651,382	0,073	0,135
-117,380	39,197	0,072	0,046
-116,366	-51,822	-0,061	0,020
-115,351	-128,349	0,141	-0,014
-114,337	-133,834	-0,149	0,013
-113,322	26,915	0,057	-0,034
-112,307	-2,393	0,131	-0,066
-111,293	-39,538	0,109	-0,041
-110,278	800,000	-0,027	0,076
-109,264	-113,334	0,094	-0,013
-108,249	207,426	-0,075	0,085
-107,234	312,920	-0,066	-0,090
-106,220	-111,341	0,054	0,008
-105,205	800,000	-0,014	-0,040
-104,191	-164,547	-0,135	0,004
-103,176	-200,000	0,005	0,116
-102,162	800,000	0,051	-0,131
-101,147	-197,320	0,090	-0,000
-100,132	-8,424	0,086	-0,041
-99,118	280,640	-0,068	0,088
-98,103	-200,000	0,032	0,120
-97,089	-200,000	0,001	0,103
-96,074	619,633	0,071	0,129
-95,059	12,939	0,165	-0,092
-94,045	697,252	-0,029	-0,054
-93,030	-200,000	-0,049	-0,164
-92,016	800,000	-0,016	0,038
-91,001	129,816	-0,051	0,047
-89,986	51,193	0,027	-0,019
-88,972	-81,360	0,112	-0,026
-87,957	480,950	0,016	-0,026
-86,943	455,076	-0,129	0,206
-85,928	37,891	-0,117	-0,074
-84,913	-200,000	0,004	-0,047
-83,899	48,631	-0,029	-0,020
-82,884	-158,592	-0,137	0,006
-81,870	320,371	0,077	0,105
-80,855	68,714	0,099	0,073
-79,840	-47,685	-0,128	0,044
-78,826	38,031	-0,033	-0,021
-77,811	-200,000	0,002	-0,094
-76,797	100,735	0,049	0,041
-75,782	800,000	0,012	-0,024
-74,767	-50,821	0,107	-0,036
-73,753	-200,000	-0,008	0,115
-72,738	-46,745	-0,106	0,037
-71,724	-13,871	0,030	-0,014
-70,709	-39,325	0,150	-0,056
-69,694	-200,000	0,018	-0,063
-68,680	325,211	-0,064	-0,087
-67,665	145,552	0,047	0,045
-66,651	704,266	0,065	0,123
-65,636	758,057	-0,017	-0,034
-64,622	44,861	0,066	-0,043
-63,607	800,000	-0,060	-0,179
-62,592	800,000	0,016	0,050
-61,578	-34,740	0,042	0,016
-60,563	-200,000	-0,017	-0,064
-59,549	-167,754	0,059	0,002
-58,534	18,091	-2,132	-1,216
-57,519	-200,000	-0,121	-0,626
-56,505	-200,000	-1,300	-4,994
-55,490	138,324	0,812	0,765
-54,476	800,000	5,337	12,090
-53,461	-200,000	18,627	318,108
-52,446	800,000	741,400	2334,253
-51,432	558,299	1657,168	2878,036
-50,417	111,127	1641,239	1417,302
-49,403	75,401	1291,166	975,953
-48,388	30,290	1031,633	630,214
-47,373	19,935	994,367	573,123
-46,359	17,404	981,987	557,630
-45,344	14,004	978,264	544,307
-44,330	14,362	976,622	544,551
-43,315	13,756	974,597	541,411
-42,300	13,688	973,582	540,604
-41,286	13,662	972,719	540,015
-40,271	13,769	971,634	539,745
-39,257	13,677	970,920	539,024
-38,242	13,702	970,030	538,589
-37,227	13,686	969,022	537,957
-36,213	13,675	968,125	537,403
-35,198	13,676	967,210	536,875
-34,184	13,689	966,635	536,578
-33,169	13,647	965,681	535,890
-32,154	13,710	964,524	535,433
-31,140	13,674	963,794	534,889
-30,125	13,798	962,960	534,806
-29,111	13,775	962,087	534,226
-28,096	13,716	961,663	533,780
-27,082	13,743	960,785	533,356
-26,067	13,715	960,035	532,829
-25,052	13,706	959,316	532,379
-24,038	13,695	958,580	531,914
-23,023	13,656	958,151	531,529
-22,009	13,656	957,640	531,225
-20,994	13,750	956,888	531,091
-19,979	13,722	956,083	530,531
-18,965	13,643	955,651	530,018
-17,950	13,691	954,977	529,778
-16,936	13,622	954,435	529,232
-15,921	13,599	953,714	528,737
-14,906	13,604	952,755	528,200
-13,892	13,573	952,266	527,809
-12,877	13,578	951,673	527,478
-11,863	13,569	950,931	527,015
-10,848	13,504	950,486	526,540
-9,833	13,637	949,841	526,587
-8,819	13,674	949,088	526,267
-7,804	13,660	948,486	525,867
-6,790	13,597	948,016	525,384
-5,775	13,657	947,363	525,195
-4,760	13,619	946,828	524,755
-3,746	13,584	946,189	524,268
-2,731	13,475	945,547	523,545
-1,717	13,412	944,883	522,958
-0,702	13,470	944,020	522,643
0,313	13,278	943,467	522,516
1,327	16,546	941,194	531,558
2,342	25,612	795,984	473,638
3,356	22,143	460,656	268,754
4,371	-4,628	317,697	156,588
5,386	-8,553	299,601	143,639
6,400	-10,612	293,624	138,693
7,415	-10,894	291,053	137,186
8,429	-11,230	289,416	136,070
9,444	-11,358	288,458	135,482
10,459	-11,281	287,773	135,223
11,473	-11,378	287,438	134,959
12,488	-11,182	286,815	134,846
13,502	-11,396	286,497	134,475
14,517	-11,415	285,842	134,137
15,531	-11,320	285,250	133,939
16,546	-11,353	284,906	133,734
17,561	-11,463	284,635	133,488
18,575	-11,281	284,111	133,407
19,590	-11,433	283,886	133,142
20,604	-11,139	283,417	133,195
21,619	-11,542	283,258	132,718
22,634	-11,382	282,666	132,584
23,648	-11,360	282,409	132,472
24,663	-11,329	282,213	132,399
25,677	-11,404	281,963	132,197
26,692	-11,313	281,664	132,133
27,707	-11,459	281,283	131,803
28,721	-11,369	281,029	131,758
29,736	-11,516	280,871	131,531
30,750	-11,477	280,609	131,434
31,765	-11,333	280,253	131,394
32,780	-11,527	280,159	131,151
33,794	-11,532	279,769	130,953
34,809	-11,394	279,582	130,985
35,823	-11,340	279,357	130,920
36,838	-11,398	279,063	130,715
37,853	-11,434	278,731	130,513
38,867	-11,245	278,563	130,603
39,882	-11,376	278,258	130,323
40,896	-11,583	278,124	130,054
41,911	-11,446	277,895	130,065
42,926	-11,461	277,490	129,849
43,940	-11,477	277,294	129,730
44,955	-11,460	277,132	129,659
45,969	-11,521	276,756	129,414
46,984	-11,578	276,535	129,246
47,999	-11,833	276,388	128,925
49,013	-11,968	276,004	128,607
50,028	-12,079	275,770	128,382
51,042	-12,103	275,370	128,162
52,057	-12,143	275,184	128,027
53,071	-12,086	274,972	127,970
54,086	-12,201	274,803	127,772
55,101	-11,777	274,732	128,125
56,115	-11,721	274,536	128,074
57,130	-11,501	274,409	128,209
58,144	-11,272	274,073	128,255
59,159	-11,219	273,916	128,219
60,174	-11,400	273,685	127,931
61,188	-11,173	273,429	128,012
62,203	-11,268	273,291	127,848
63,217	-11,486	273,233	127,606
64,232	-11,254	272,797	127,606
65,247	-11,418	272,818	127,453
66,261	-11,256	272,328	127,362
67,276	-11,506	272,149	127,035
68,290	-11,552	271,827	126,831
69,305	-11,700	271,493	126,528
70,320	-11,649	271,276	126,462
71,334	-11,429	271,246	126,639
72,349	-11,246	271,012	126,689
73,363	-11,272	270,813	126,560
74,378	-11,215	270,672	126,535
75,393	-11,335	270,282	126,231
76,407	-11,315	270,153	126,178
77,422	-11,218	270,044	126,205
78,436	-11,193	269,635	126,025
79,451	-11,227	269,406	125,877
80,466	-11,327	269,053	125,608
81,480	-11,540	268,882	125,323
82,495	-11,627	268,757	125,173
83,509	-11,322	268,584	125,361
84,524	-11,577	268,368	125,016
85,539	-11,695	268,112	124,779
86,553	-11,591	267,852	124,741
87,568	-11,619	267,752	124,657
88,582	-11,431	267,568	124,732
89,597	-11,380	267,255	124,621
90,611	-11,376	267,072	124,528
91,626	-11,327	266,974	124,515
92,641	-11,327	266,619	124,339
93,655	-11,327	266,451	124,250
94,670	-11,324	266,274	124,158
95,684	-11,360	266,081	124,025
96,699	-11,389	265,947	123,926
97,714	-11,454	265,728	123,754
98,728	-11,383	265,349	123,630
99,743	-11,657	265,208	123,306
100,757	-11,502	265,031	123,353
101,772	-11,600	264,834	123,162
102,787	-11,365	264,574	123,242
103,801	-11,245	264,458	123,283
104,816	-11,347	264,270	123,094
105,830	-11,262	264,217	123,134
106,845	-11,242	263,871	122,979
107,860	-11,146	263,605	122,931
108,874	-11,316	263,500	122,719
109,889	-11,308	263,233	122,591
110,903	-11,365	263,046	122,442
111,918	-11,329	262,896	122,394
112,933	-11,388	262,745	122,259
113,947	-11,389	262,573	122,167
114,962	-11,408	262,433	122,075
115,976	-11,451	262,182	121,909
116,991	-11,374	261,937	121,852
118,006	-11,190	261,661	121,876
119,020	-11,494	261,761	121,642
120,035	-11,411	261,486	121,578
121,049	-11,346	261,213	121,497
122,064	-11,356	261,086	121,419
123,079	-11,294	260,939	121,394
124,093	-11,506	260,659	121,066
125,108	-11,372	260,328	121,020
126,122	-11,643	260,123	120,675
127,137	-11,733	259,913	120,487
128,151	-11,436	259,805	120,688
129,166	-11,557	259,621	120,485
130,181	-11,502	259,229	120,340
131,195	-11,694	259,154	120,127
132,210	-11,393	258,984	120,301
133,224	-11,396	258,917	120,256
134,239	-11,466	258,794	120,127
135,254	-11,299	258,539	120,144
136,268	-11,330	258,091	119,898
137,283	-11,661	257,905	119,512
138,297	-11,700	257,778	119,409
139,312	-11,636	257,403	119,280
140,327	-11,507	257,529	119,440
141,341	-11,298	257,380	119,543
142,356	-11,127	257,119	119,559
143,370	-11,187	256,978	119,431
144,385	-11,096	256,752	119,394
145,400	-11,017	256,575	119,370
146,414	-11,131	256,366	119,163
147,429	-11,240	256,186	118,975
148,443	-11,124	255,930	118,946
149,458	-11,193	255,956	118,888
150,473	-11,243	255,785	118,754
151,487	-11,192	255,472	118,642
152,502	-11,149	255,247	118,564
153,516	-11,147	255,190	118,529
154,531	-11,132	254,982	118,434
155,546	-11,210	254,800	118,272
156,560	-11,317	254,578	118,066
157,575	-11,398	254,299	117,857
158,589	-11,070	254,069	118,022
159,604	-11,102	254,130	118,012
160,619	-11,187	253,820	117,785
161,633	-11,134	253,578	117,707
162,648	-11,127	253,526	117,679
163,662	-11,153	253,397	117,586
164,677	-11,016	253,186	117,594
165,692	-10,983	252,983	117,518
166,706	-10,980	252,665	117,362
167,721	-11,171	252,556	117,139
168,735	-11,083	252,549	117,199
169,750	-10,993	252,321	117,160
170,764	-10,976	252,290	117,149
171,779	-11,004	252,088	117,021
172,794	-10,906	251,874	116,995
173,808	-11,004	251,519	116,736
174,823	-11,501	251,437	116,266
175,837	-11,446	250,957	116,081
176,852	-11,319	251,142	116,264
177,867	-11,138	251,042	116,360
178,881	-10,927	250,849	116,439
179,896	-10,906	250,493	116,281
180,910	-10,974	250,343	116,143
181,925	-10,979	250,186	116,056
182,940	-11,176	250,161	115,868
183,954	-11,048	249,985	115,883
184,969	-11,030	249,625	115,722
185,983	-10,940	249,464	115,712
186,998	-11,035	249,336	115,563
188,013	-11,088	249,141	115,418
189,027	-11,051	249,142	115,439
190,042	-10,946	248,984	115,444
191,056	-10,990	248,680	115,255
192,071	-11,047	248,577	115,150
193,086	-11,099	248,531	115,075
194,100	-10,734	248,115	115,176
195,115	-10,940	247,886	114,888
196,129	-10,815	247,810	114,947
197,144	-10,946	247,551	114,707
198,159	-11,037	247,450	114,575
199,173	-10,895	247,166	114,552
200,188	-10,849	246,998	114,501
201,202	-11,082	246,707	114,163
202,217	-11,534	246,428	113,648
203,232	-11,664	246,348	113,494
204,246	-11,114	246,267	113,902
205,261	-10,484	246,290	114,425
206,275	-11,177	246,050	113,729
207,290	-5,660	248,218	119,320
208,304	1,991	250,674	126,907
209,319	4,732	251,174	129,445
210,334	4,825	251,162	129,505
211,348	5,019	251,145	129,647
212,363	5,147	250,807	129,568
213,377	5,196	250,804	129,596
214,392	4,991	250,633	129,325
215,407	5,178	250,439	129,369
216,421	5,098	250,176	129,155
217,436	5,198	250,105	129,190
218,450	5,290	249,964	129,182
219,465	5,052	249,866	128,923
220,480	4,977	249,467	128,643
221,494	4,764	249,336	128,387
222,509	4,686	249,163	128,222
223,523	4,736	248,832	128,082
224,538	4,628	248,739	127,933
225,553	4,763	248,535	127,928
226,567	4,899	248,365	127,941
227,582	4,768	248,202	127,738
228,596	4,632	248,238	127,633
229,611	4,556	247,913	127,392
230,626	4,542	247,753	127,286
231,640	4,501	247,573	127,149
232,655	4,415	247,568	127,065
233,669	4,428	247,255	126,903
234,684	4,488	246,943	126,781
235,699	4,431	247,049	126,776
236,713	4,665	246,917	126,890
237,728	4,427	246,775	126,611
238,742	4,325	246,429	126,338
239,757	4,309	246,355	126,276
240,772	4,518	246,133	126,322
241,786	4,408	245,964	126,134
242,801	4,444	245,753	126,044
243,815	4,640	245,729	126,180
244,830	4,550	245,549	126,004
245,844	4,506	245,431	125,895
246,859	4,234	245,210	125,549
247,874	4,469	244,967	125,605
248,888	4,636	244,984	125,738
249,903	4,981	244,669	125,846
250,917	4,491	244,689	125,447
251,932	4,750	244,505	125,551
252,947	4,798	244,421	125,536
253,961	4,549	244,203	125,211
254,976	4,454	243,996	125,017
255,990	4,476	243,602	124,822
257,005	4,558	243,638	124,895
258,020	4,608	243,482	124,844
259,034	4,369	243,420	124,609
260,049	4,425	243,212	124,536
261,063	4,272	243,013	124,300
262,078	4,318	242,941	124,289
263,093	4,619	242,803	124,449
264,107	4,468	242,788	124,309
265,122	4,620	242,358	124,200
266,136	4,553	242,294	124,103
267,151	4,652	242,039	124,040
268,166	4,381	241,943	123,762
269,180	4,559	241,882	123,863
270,195	4,807	241,791	124,004
271,209	4,690	241,489	123,744
272,224	4,354	241,371	123,405
273,239	4,249	241,131	123,187
274,253	4,478	241,024	123,304
275,268	4,581	240,766	123,244
276,282	4,604	240,533	123,131
277,297	4,288	240,436	122,819
278,312	4,459	240,211	122,829
279,326	4,589	240,169	122,900
280,341	4,403	240,109	122,711
281,355	4,659	239,896	122,795
282,370	4,492	239,837	122,620
283,384	4,502	239,427	122,408
284,399	4,334	239,297	122,198
285,414	4,344	239,216	122,153
286,428	4,453	239,168	122,203
287,443	4,365	239,080	122,078
288,457	4,602	239,018	122,224
289,472	4,787	238,772	122,233
290,487	4,447	238,554	121,842
291,501	4,218	238,394	121,568
292,516	4,291	238,116	121,473
293,530	4,324	238,016	121,437
294,545	4,474	237,939	121,505
295,560	4,585	237,786	121,504
296,574	4,334	237,617	121,209
297,589	4,741	237,363	121,388
298,603	4,662	237,555	121,414
299,618	4,702	237,262	121,285
300,633	4,734	237,088	121,210
301,647	4,692	237,073	121,158
302,662	5,069	236,880	121,344
303,676	4,909	236,695	121,114
304,691	4,845	236,567	120,987
305,706	4,801	236,461	120,888
306,720	4,609	236,301	120,645
307,735	4,643	236,099	120,558
308,749	4,491	235,921	120,337
309,764	4,170	235,752	119,991
310,779	4,255	235,354	119,844
311,793	4,016	235,190	119,564
312,808	4,100	235,118	119,582
313,822	4,057	235,025	119,490
314,837	4,246	234,844	119,534
315,852	4,473	234,971	119,764
316,866	4,957	234,824	120,054
317,881	5,143	234,478	120,011
318,895	4,947	234,391	119,803
319,910	4,623	234,262	119,477
320,925	4,424	233,995	119,176
321,939	4,382	234,001	119,135
322,954	4,474	233,861	119,125
323,968	4,751	233,649	119,220
324,983	4,571	233,592	119,042
325,997	4,874	233,440	119,186
327,012	4,853	233,147	119,010
328,027	4,859	233,124	118,993
329,041	5,019	233,060	119,072
330,056	5,112	233,005	119,105
331,070	4,919	232,769	118,826
332,085	5,023	232,378	118,695
333,100	4,718	232,382	118,453
334,114	4,697	232,176	118,321
335,129	4,884	232,082	118,406
336,143	4,850	232,093	118,375
337,158	4,765	231,873	118,187
338,173	4,590	231,643	117,926
339,187	4,706	231,382	117,871
340,202	4,750	231,241	117,822
341,216	4,551	231,124	117,600
342,231	4,669	230,964	117,599
343,246	4,639	230,759	117,461
344,260	4,806	230,748	117,571
345,275	4,974	230,609	117,618
346,289	4,698	230,511	117,348
347,304	4,938	230,402	117,464
348,319	4,741	230,174	117,187
349,333	4,678	229,927	117,004
350,348	4,560	229,703	116,790
351,362	4,524	229,619	116,710
352,377	4,577	229,412	116,635
353,392	4,153	229,442	116,319
354,406	4,246	229,216	116,264
355,421	195,120	1318,212	1392,248
356,435	156,503	1450,862	1392,214
