DTS Sentinel unit serial number:	SN410029Multiplexer serial number:	ORYXHardware model number:	OX2-SRSoftware version number:	ORYX F/W v4,00 Oryx Data Collector v3.7.2.0data status	okinstallation	B5 Nyhavnadifferential loss correction	single-endedforward channel	channel 2reverse channel	N/Adate	2023/12/11time	19:27:13forward acquisition time	300,00reverse acquisition time	0,00gamma	499,1914k internal	0,3159k external	0,3159temperature offset calibration	1,0000default loss term (dB/km)	0,3820temperature slope calibration	1,0000multiplexer offset coefficient	1,0000multiplexer slope coefficient	1,0000fibre end	0,00T internal ref (°C)	15,64T ext. ref 1 (°C)	-0,14T ext. ref 2 (°C)	-0,34length (m)	temperature (°C)	Stokes	anti-Stokes-744,400	-129,314	0,106	0,011
-743,385	-95,292	-0,268	0,053
-742,371	12,201	0,089	0,050
-741,356	-42,794	-0,200	-0,075
-740,342	-155,414	0,019	-0,001
-739,327	-137,944	-0,300	0,024
-738,312	69,153	0,050	0,038
-737,298	-101,582	-0,270	0,048
-736,283	252,286	-0,058	0,073
-735,269	-92,856	-0,180	0,037
-734,254	42,054	0,154	0,103
-733,239	-51,403	-0,359	-0,123
-732,225	-198,539	0,283	0,001
-731,210	-71,289	0,039	0,011
-730,196	-200,000	-0,033	0,118
-729,181	88,933	-0,084	0,068
-728,167	148,603	0,070	-0,069
-727,152	55,515	-0,077	0,055
-726,137	-21,691	0,063	0,028
-725,123	79,194	-0,056	-0,044
-724,108	-2,547	-0,238	-0,122
-723,094	-200,000	0,017	-0,065
-722,079	800,000	-0,063	-0,138
-721,064	287,930	-0,081	-0,108
-720,050	-11,073	-0,045	0,022
-719,035	-115,788	-0,037	0,005
-718,021	542,041	0,051	-0,090
-717,006	169,533	-0,104	-0,110
-715,991	-200,000	-0,020	-0,093
-714,977	-200,000	-0,030	-0,122
-713,962	-200,000	-0,008	0,069
-712,948	-56,602	-0,119	0,039
-711,933	-92,413	0,126	0,026
-710,918	168,700	0,048	-0,050
-709,904	84,410	-0,070	-0,057
-708,889	3,476	-0,111	-0,059
-707,875	800,000	-0,102	-0,233
-706,860	-200,000	-0,010	0,134
-705,845	-81,709	0,063	-0,015
-704,831	-107,803	-0,110	0,018
-703,816	-172,414	-0,063	-0,001
-702,802	218,252	-0,011	-0,013
-701,787	62,241	0,094	0,069
-700,772	-200,000	0,012	-0,194
-699,758	335,385	-0,044	0,063
-698,743	246,570	0,052	-0,065
-697,729	-200,000	0,008	-0,090
-696,714	245,306	-0,051	-0,063
-695,699	492,019	-0,048	-0,081
-694,685	-200,000	-0,019	-0,077
-693,670	800,000	0,049	0,112
-692,656	142,961	-0,080	0,078
-691,641	-113,421	0,141	0,020
-690,627	800,000	-0,037	-0,116
-689,612	-200,000	0,001	-0,056
-688,597	341,789	-0,066	0,095
-687,583	-200,000	-0,001	-0,128
-686,568	800,000	-0,025	-0,081
-685,554	800,000	-0,062	-0,185
-684,539	-200,000	-0,027	-0,136
-683,524	246,976	0,066	-0,082
-682,510	56,984	0,034	0,024
-681,495	-103,910	-0,191	-0,032
-680,481	800,000	-0,037	0,077
-679,466	800,000	-0,050	0,113
-678,451	-200,000	-0,012	0,069
-677,437	-200,000	-0,016	-0,085
-676,422	-65,019	0,032	-0,009
-675,408	571,118	-0,032	-0,057
-674,393	-144,962	-0,179	0,012
-673,378	-200,000	-0,003	0,057
-672,364	800,000	-0,023	0,072
-671,349	762,010	-0,042	0,085
-670,335	-200,000	-0,003	-0,098
-669,320	-200,000	-0,007	-0,190
-668,305	-200,000	0,001	-0,037
-667,291	276,263	0,073	0,096
-666,276	258,499	0,027	-0,034
-665,262	-141,828	-0,220	0,016
-664,247	87,380	0,005	-0,004
-663,232	151,163	0,102	-0,102
-662,218	-27,049	-0,057	-0,024
-661,203	-142,080	-0,046	-0,003
-660,189	-200,000	0,029	0,129
-659,174	465,703	0,048	-0,080
-658,159	249,511	-0,086	0,107
-657,145	195,348	0,054	-0,061
-656,130	-32,185	0,144	0,059
-655,116	105,552	0,104	0,090
-654,101	3,483	-0,010	0,005
-653,086	-20,904	-0,062	-0,028
-652,072	128,417	-0,119	-0,111
-651,057	-200,000	0,004	-0,243
-650,043	-6,735	0,056	0,028
-649,028	-41,402	-0,103	-0,039
-648,014	-200,000	0,002	-0,063
-646,999	800,000	-0,012	0,035
-645,984	-47,433	0,003	-0,001
-644,970	-200,000	0,011	0,072
-643,955	196,519	-0,045	-0,050
-642,941	-139,418	-0,048	-0,004
-641,926	281,525	0,145	-0,191
-640,911	-200,000	0,020	-0,133
-639,897	800,000	0,080	0,184
-638,882	227,306	0,073	-0,087
-637,868	-200,000	0,033	-0,128
-636,853	266,159	0,051	-0,065
-635,838	73,712	0,099	0,076
-634,824	800,000	-0,024	0,052
-633,809	37,210	0,077	0,050
-632,795	114,509	0,072	-0,064
-631,780	184,962	0,032	0,035
-630,765	-57,218	-0,048	-0,015
-629,751	87,548	-0,076	-0,062
-628,736	-71,913	-0,022	-0,006
-627,722	-200,000	0,018	0,062
-626,707	194,539	0,030	-0,033
-625,692	-3,233	-0,046	0,024
-624,678	800,000	0,028	0,071
-623,663	-200,000	0,006	0,029
-622,649	82,857	0,034	-0,027
-621,634	800,000	0,010	0,030
-620,619	-134,976	-0,023	-0,002
-619,605	344,145	-0,072	0,104
-618,590	115,737	0,048	0,043
-617,576	-139,466	-0,067	0,005
-616,561	-193,225	-0,076	-0,000
-615,546	184,606	-0,200	0,218
-614,532	35,918	-0,021	-0,013
-613,517	-109,528	0,052	-0,008
-612,503	-200,000	0,008	-0,031
-611,488	170,661	-0,053	0,056
-610,474	800,000	-0,025	0,074
-609,459	-200,000	0,015	-0,183
-608,444	-200,000	-0,031	0,191
-607,430	-200,000	0,032	-0,141
-606,415	-75,479	0,031	-0,008
-605,401	-162,197	-0,128	-0,005
-604,386	800,000	0,047	0,096
-603,371	216,859	-0,006	0,007
-602,357	800,000	-0,030	-0,091
-601,342	-200,000	-0,013	-0,073
-600,328	800,000	-0,063	-0,149
-599,313	457,664	0,020	-0,033
-598,298	-1,824	-0,006	0,003
-597,284	-200,000	0,021	0,082
-596,269	-200,000	-0,015	-0,078
-595,255	363,770	0,035	0,052
-594,240	140,445	-0,070	0,068
-593,225	800,000	-0,038	0,098
-592,211	106,719	-0,092	0,080
-591,196	640,644	-0,083	0,155
-590,182	-48,575	0,039	0,014
-589,167	3,126	-0,077	-0,041
-588,152	-79,648	-0,050	-0,012
-587,138	-126,044	0,072	0,008
-586,123	-46,904	-0,126	-0,045
-585,109	800,000	-0,080	-0,203
-584,094	-164,255	0,143	0,005
-583,079	800,000	0,069	-0,185
-582,065	116,832	0,053	-0,048
-581,050	122,912	-0,127	0,116
-580,036	800,000	0,049	0,100
-579,021	219,782	-0,037	0,044
-578,006	22,671	-0,118	0,070
-576,992	-136,644	-0,027	0,002
-575,977	-63,696	-0,042	0,012
-574,963	-200,000	0,055	0,195
-573,948	-69,707	0,160	0,044
-572,934	7,063	-0,025	0,013
-571,919	-142,198	0,095	0,007
-570,904	147,297	-0,095	-0,093
-569,890	-57,665	-0,108	0,034
-568,875	153,835	0,099	0,099
-567,861	116,285	0,148	0,133
-566,846	800,000	0,012	-0,026
-565,831	800,000	-0,045	-0,134
-564,817	82,160	-0,111	-0,088
-563,802	-200,000	0,016	0,092
-562,788	800,000	0,046	-0,112
-561,773	-200,000	0,016	-0,097
-560,758	-58,931	0,109	0,034
-559,744	75,043	0,094	0,073
-558,729	120,178	-0,041	0,037
-557,715	-71,968	-0,086	-0,023
-556,700	468,316	-0,102	-0,168
-555,685	-200,000	-0,018	-0,121
-554,671	-200,000	-0,003	-0,032
-553,656	47,429	0,168	-0,114
-552,642	800,000	0,057	0,131
-551,627	-200,000	0,020	0,146
-550,612	-200,000	-0,035	-0,197
-549,598	40,107	0,107	-0,070
-548,583	-200,000	0,002	-0,045
-547,569	9,774	0,024	0,013
-546,554	33,334	0,052	0,033
-545,539	71,418	0,107	0,081
-544,525	-108,427	-0,096	-0,015
-543,510	-200,000	-0,024	-0,139
-542,496	11,220	-0,127	-0,071
-541,481	26,053	-0,057	0,035
-540,466	800,000	-0,033	-0,070
-539,452	-200,000	0,011	0,039
-538,437	190,411	0,045	0,049
-537,423	800,000	-0,059	-0,127
-536,408	-200,000	-0,004	-0,033
-535,393	164,252	-0,165	0,170
-534,379	55,359	0,076	-0,053
-533,364	46,830	-0,085	-0,058
-532,350	42,807	0,087	0,058
-531,335	800,000	-0,024	0,077
-530,321	-89,425	-0,026	0,006
-529,306	-94,650	-0,088	0,017
-528,291	78,559	-0,071	0,056
-527,277	228,120	0,041	-0,049
-526,262	346,180	-0,053	-0,076
-525,248	270,302	-0,035	0,045
-524,233	800,000	0,016	-0,041
-523,218	-94,798	0,073	-0,014
-522,204	42,548	0,025	-0,016
-521,189	165,762	-0,072	-0,074
-520,175	-108,799	0,082	0,013
-519,160	-200,000	0,009	-0,042
-518,145	87,997	0,084	0,068
-517,131	22,823	0,006	-0,004
-516,116	800,000	-0,050	0,128
-515,102	-200,000	0,001	0,125
-514,087	-200,000	-0,012	-0,043
-513,072	-200,000	0,009	-0,069
-512,058	800,000	0,074	0,163
-511,043	88,095	0,038	-0,031
-510,029	-200,000	-0,035	-0,135
-509,014	-168,463	0,104	-0,003
-507,999	6,669	-0,091	0,049
-506,985	-57,748	-0,106	-0,034
-505,970	-68,814	-0,077	-0,022
-504,956	105,421	0,019	0,017
-503,941	53,235	0,009	-0,006
-502,926	27,909	0,186	0,114
-501,912	-168,245	0,101	-0,003
-500,897	800,000	0,028	0,066
-499,883	-11,321	-0,091	-0,044
-498,868	480,904	-0,027	-0,044
-497,853	758,697	0,045	-0,090
-496,839	-73,009	0,161	-0,043
-495,824	800,000	-0,060	0,135
-494,810	-200,000	-0,028	-0,126
-493,795	-200,000	-0,034	0,119
-492,781	204,301	-0,081	0,091
-491,766	-200,000	0,015	-0,052
-490,751	220,674	-0,066	-0,077
-489,737	-200,000	-0,021	-0,134
-488,722	800,000	-0,037	0,083
-487,708	-62,314	0,087	-0,026
-486,693	-200,000	0,014	0,116
-485,678	316,722	-0,047	-0,065
-484,664	42,622	0,116	-0,077
-483,649	-93,403	-0,109	0,022
-482,635	117,352	0,054	-0,049
-481,620	81,451	0,077	0,061
-480,605	-89,278	0,062	0,013
-479,591	-121,011	0,052	-0,006
-478,576	-200,000	-0,012	0,054
-477,562	-200,000	-0,009	-0,031
-476,547	-115,187	-0,113	-0,015
-475,532	118,845	-0,124	-0,112
-474,518	-200,000	-0,082	-0,000
-473,503	-80,375	-0,066	0,016
-472,489	-154,629	0,133	0,006
-471,474	334,286	-0,053	0,075
-470,459	-200,000	-0,058	-0,261
-469,445	56,086	-0,105	0,074
-468,430	403,336	0,049	-0,075
-467,416	-98,917	0,032	-0,006
-466,401	-127,112	-0,092	-0,010
-465,386	-100,890	0,048	0,008
-464,372	541,752	0,020	-0,035
-463,357	-200,000	0,011	-0,172
-462,343	743,161	-0,021	-0,041
-461,328	23,248	-0,013	0,008
-460,313	-81,627	-0,056	-0,013
-459,299	-200,000	0,036	0,116
-458,284	-45,677	-0,046	0,016
-457,270	-65,249	0,146	0,042
-456,255	-200,000	0,001	-0,035
-455,241	25,453	-0,087	-0,053
-454,226	-83,915	-0,077	-0,018
-453,211	800,000	0,070	0,144
-452,197	212,307	-0,014	0,016
-451,182	81,954	0,028	0,022
-450,168	-106,397	0,107	0,017
-449,153	441,413	-0,068	-0,109
-448,138	-200,000	0,002	-0,190
-447,124	-200,000	0,010	-0,065
-446,109	15,727	0,080	0,046
-445,095	-141,443	0,116	-0,008
-444,080	157,610	-0,081	0,082
-443,065	-80,736	-0,030	-0,007
-442,051	800,000	0,058	-0,123
-441,036	-23,336	-0,134	-0,059
-440,022	-105,539	0,033	0,005
-439,007	-200,000	0,011	-0,164
-437,992	12,332	0,117	0,066
-436,978	-200,000	0,017	0,122
-435,963	-101,880	0,067	0,012
-434,949	-109,139	-0,145	-0,022
-433,934	-200,000	-0,014	-0,146
-432,919	-9,053	0,109	-0,053
-431,905	583,139	-0,038	-0,069
-430,890	-200,000	0,006	-0,071
-429,876	-200,000	-0,013	-0,086
-428,861	800,000	-0,012	0,030
-427,846	31,928	-0,044	0,028
-426,832	34,751	-0,111	-0,070
-425,817	-200,000	-0,008	-0,078
-424,803	187,703	0,065	-0,071
-423,788	-104,047	0,081	0,014
-422,773	-200,000	-0,005	-0,050
-421,759	373,526	-0,014	0,020
-420,744	-9,115	0,052	0,025
-419,730	74,881	-0,093	0,071
-418,715	313,375	-0,071	-0,097
-417,701	709,722	-0,052	-0,100
-416,686	456,158	0,051	-0,082
-415,671	-151,120	0,130	0,007
-414,657	800,000	0,045	-0,108
-413,642	800,000	-0,048	0,113
-412,628	-68,933	0,053	0,015
-411,613	32,744	-0,015	0,009
-410,598	9,459	-0,048	-0,026
-409,584	800,000	0,023	-0,059
-408,569	353,068	0,010	0,014
-407,555	-200,000	0,095	-0,000
-406,540	-128,310	-0,173	-0,018
-405,525	-74,913	0,019	-0,005
-404,511	-161,759	-0,080	-0,003
-403,496	30,828	-0,095	-0,059
-402,482	73,594	-0,042	0,032
-401,467	-96,087	-0,121	0,023
-400,452	-200,000	-0,006	-0,030
-399,438	-111,709	-0,120	0,017
-398,423	-16,983	0,056	0,026
-397,409	-200,000	-0,004	-0,084
-396,394	-64,678	0,072	-0,021
-395,379	-200,000	-0,018	-0,092
-394,365	-72,001	0,102	0,027
-393,350	-69,846	-0,154	0,042
-392,336	-96,485	-0,065	-0,012
-391,321	-200,000	-0,005	0,103
-390,306	-200,000	-0,003	0,036
-389,292	23,118	-0,070	-0,042
-388,277	-65,012	-0,106	-0,031
-387,263	47,645	-0,049	-0,033
-386,248	-200,000	-0,011	0,173
-385,233	-114,526	-0,093	-0,013
-384,219	-102,448	-0,106	0,018
-383,204	-112,037	-0,132	-0,019
-382,190	88,323	-0,125	-0,101
-381,175	-110,785	0,134	0,020
-380,160	143,769	0,067	0,065
-379,146	-93,498	0,123	-0,025
-378,131	-134,352	0,208	-0,018
-377,117	-30,071	-0,079	0,032
-376,102	92,378	0,124	0,102
-375,088	-80,010	-0,084	0,020
-374,073	-84,671	0,071	-0,016
-373,058	770,565	0,010	-0,021
-372,044	-107,187	0,032	0,005
-371,029	800,000	-0,087	-0,189
-370,015	800,000	0,032	-0,093
-369,000	-200,000	0,003	0,024
-367,985	1,236	0,073	-0,038
-366,971	-200,000	-0,015	0,149
-365,956	149,111	0,092	0,090
-364,942	-200,000	0,011	0,104
-363,927	97,570	0,084	0,070
-362,912	16,407	-0,139	0,079
-361,898	223,359	0,065	0,076
-360,883	234,207	-0,064	0,076
-359,869	-200,000	0,015	0,060
-358,854	-200,000	-0,008	0,072
-357,839	207,265	0,089	0,101
-356,825	800,000	-0,056	0,128
-355,810	-90,910	0,135	0,028
-354,796	180,432	-0,083	-0,088
-353,781	-122,205	-0,107	-0,013
-352,766	-111,051	-0,087	-0,013
-351,752	800,000	0,042	0,121
-350,737	-198,296	-0,090	-0,000
-349,723	295,087	0,020	0,027
-348,708	800,000	-0,073	0,168
-347,693	800,000	0,023	0,060
-346,679	-200,000	0,017	-0,074
-345,664	-52,737	0,059	0,020
-344,650	205,966	0,011	0,012
-343,635	-22,286	0,092	0,040
-342,620	349,834	0,038	0,054
-341,606	92,051	0,028	-0,023
-340,591	-200,000	-0,022	-0,110
-339,577	26,527	0,031	-0,019
-338,562	-160,551	-0,078	0,003
-337,548	800,000	0,020	0,061
-336,533	-200,000	-0,021	-0,074
-335,518	-200,000	0,004	0,083
-334,504	-200,000	0,002	0,059
-333,489	800,000	-0,032	0,072
-332,475	-92,142	0,054	0,011
-331,460	3,827	0,175	-0,093
-330,445	143,606	0,105	0,101
-329,431	506,289	0,044	0,074
-328,416	-135,336	-0,059	0,005
-327,402	-200,000	-0,019	0,113
-326,387	800,000	0,034	0,107
-325,372	-103,548	0,041	0,007
-324,358	-83,303	-0,196	-0,045
-323,343	51,142	0,049	-0,033
-322,329	-200,000	0,072	0,000
-321,314	20,026	-0,068	-0,040
-320,299	-88,796	0,125	0,027
-319,285	24,070	-0,114	0,068
-318,270	97,274	0,049	-0,041
-317,256	228,266	0,030	0,035
-316,241	-200,000	0,005	0,058
-315,226	336,776	-0,031	0,044
-314,212	96,727	-0,034	0,028
-313,197	224,402	-0,076	-0,090
-312,183	221,902	0,070	0,082
-311,168	60,565	-0,065	0,046
-310,153	221,069	0,103	-0,120
-309,139	180,327	-0,047	-0,050
-308,124	-200,000	0,000	0,017
-307,110	800,000	0,022	0,067
-306,095	-200,000	0,033	-0,119
-305,080	800,000	-0,039	0,088
-304,066	376,396	0,065	0,097
-303,051	544,891	0,036	-0,063
-302,037	168,316	0,104	-0,108
-301,022	139,051	0,050	-0,048
-300,008	800,000	-0,033	0,080
-298,993	678,826	0,088	-0,167
-297,978	-156,256	-0,105	0,005
-296,964	352,076	-0,050	0,072
-295,949	-200,000	0,032	-0,148
-294,935	-195,444	-0,109	0,001
-293,920	217,981	0,032	-0,038
-292,905	-200,000	0,023	-0,090
-291,891	48,393	0,115	0,078
-290,876	285,986	-0,051	0,066
-289,862	32,600	-0,161	-0,100
-288,847	-200,000	-0,018	-0,144
-287,832	800,000	-0,044	-0,092
-286,818	318,159	0,091	0,125
-285,803	-29,132	-0,081	-0,034
-284,789	3,149	0,083	-0,043
-283,774	-200,000	-0,012	0,049
-282,759	-44,021	-0,044	0,016
-281,745	547,241	-0,022	-0,039
-280,730	42,697	-0,057	-0,038
-279,716	-96,260	-0,112	-0,021
-278,701	-60,921	0,063	-0,019
-277,686	-200,000	-0,046	0,193
-276,672	2,403	0,058	0,030
-275,657	83,602	-0,053	-0,042
-274,643	9,445	0,054	-0,029
-273,628	169,859	0,034	-0,035
-272,613	175,649	-0,049	0,052
-271,599	-200,000	0,033	0,122
-270,584	-88,832	0,126	0,027
-269,570	-64,749	0,128	0,037
-268,555	-200,000	-0,021	0,074
-267,540	-121,062	-0,081	-0,010
-266,526	335,456	0,056	0,078
-265,511	653,026	0,053	0,100
-264,497	42,335	-0,061	0,040
-263,482	38,646	0,096	-0,062
-262,467	-200,000	0,030	0,120
-261,453	-84,086	0,108	0,025
-260,438	-200,000	-0,051	-0,164
-259,424	558,073	-0,018	-0,031
-258,409	-200,000	-0,041	-0,189
-257,395	-200,000	-0,017	0,070
-256,380	-200,000	-0,033	0,148
-255,365	-136,945	0,131	-0,011
-254,351	125,825	0,046	-0,042
-253,336	-65,959	-0,033	-0,009
-252,322	139,755	-0,096	0,091
-251,307	-8,082	-0,055	-0,027
-250,292	-42,391	0,022	0,008
-249,278	-118,441	0,089	-0,011
-248,263	-200,000	0,025	-0,084
-247,249	198,948	-0,065	0,072
-246,234	47,831	-0,093	0,062
-245,219	-200,000	0,014	-0,177
-244,205	-81,838	-0,029	0,007
-243,190	-200,000	-0,000	-0,068
-242,176	800,000	-0,026	0,074
-241,161	79,543	0,053	0,041
-240,146	214,037	-0,106	-0,122
-239,132	-186,226	0,068	-0,001
-238,117	-106,322	-0,167	-0,027
-237,103	-171,368	0,067	0,002
-236,088	309,446	-0,011	-0,015
-235,073	-141,837	0,121	0,009
-234,059	-58,457	-0,055	-0,017
-233,044	132,130	0,029	0,027
-232,030	-90,216	0,126	-0,026
-231,015	317,392	-0,056	-0,077
-230,000	36,978	-0,083	0,053
-228,986	181,905	-0,060	0,064
-227,971	-200,000	-0,013	-0,108
-226,957	-62,970	0,106	-0,031
-225,942	-46,659	-0,080	0,028
-224,927	-200,000	0,034	0,121
-223,913	-200,000	-0,008	-0,028
-222,898	723,681	-0,079	0,153
-221,884	-68,963	0,055	-0,015
-220,869	-200,000	0,025	-0,090
-219,855	178,119	-0,059	0,063
-218,840	-62,647	0,035	0,010
-217,825	-71,661	0,110	-0,029
-216,811	2,718	-0,102	-0,053
-215,796	344,874	-0,045	0,063
-214,782	-92,726	-0,084	-0,017
-213,767	-200,000	-0,005	-0,029
-212,752	-200,000	0,012	-0,062
-211,738	800,000	-0,013	-0,029
-210,723	-15,112	0,051	0,023
-209,709	-3,544	-0,086	-0,043
-208,694	-113,894	0,130	-0,018
-207,679	-34,666	-0,139	0,055
-206,665	82,886	0,123	-0,096
-205,650	-117,280	0,069	0,009
-204,636	-8,662	0,028	0,014
-203,621	511,753	0,085	-0,143
-202,606	-52,446	-0,068	0,023
-201,592	-32,748	0,115	-0,046
-200,577	-102,388	-0,162	0,028
-199,563	-82,235	0,045	0,010
-198,548	69,591	0,154	-0,114
-197,533	-33,379	-0,048	0,019
-196,519	-200,000	0,007	0,059
-195,504	353,558	-0,041	-0,058
-194,490	128,231	0,018	0,017
-193,475	-200,000	-0,033	-0,134
-192,460	800,000	0,017	0,045
-191,446	33,507	0,074	0,046
-190,431	-82,926	0,071	-0,016
-189,417	800,000	0,016	0,037
-188,402	-200,000	0,022	-0,082
-187,387	800,000	0,032	0,093
-186,373	-200,000	0,017	0,129
-185,358	205,453	0,078	0,088
-184,344	114,439	0,133	0,117
-183,329	-115,649	0,094	0,013
-182,315	-0,894	-0,044	-0,022
-181,300	-200,000	-0,015	0,053
-180,285	-119,847	-0,097	0,012
-179,271	-96,553	-0,021	-0,004
-178,256	-200,000	0,015	0,059
-177,242	-48,338	-0,069	-0,024
-176,227	-200,000	0,019	0,064
-175,212	793,525	0,049	0,097
-174,198	297,383	0,023	0,030
-173,183	350,906	-0,081	-0,116
-172,169	-54,648	-0,032	-0,011
-171,154	-47,459	0,018	-0,006
-170,139	-62,265	0,018	-0,005
-169,125	-125,138	0,113	0,012
-168,110	561,445	0,013	-0,023
-167,096	154,603	0,083	0,082
-166,081	-200,000	0,007	0,022
-165,066	-110,430	-0,085	-0,013
-164,052	-200,000	0,011	-0,118
-163,037	-200,000	0,018	0,120
-162,023	-153,614	0,080	-0,004
-161,008	-200,000	-0,031	-0,113
-159,993	25,332	0,114	0,068
-158,979	353,458	-0,052	0,075
-157,964	60,332	-0,040	-0,028
-156,950	84,908	-0,076	-0,060
-155,935	57,690	-0,071	0,050
-154,920	-82,598	0,038	0,009
-153,906	800,000	-0,088	0,185
-152,891	-87,066	0,165	-0,036
-151,877	65,577	-0,165	-0,120
-150,862	181,236	-0,049	0,052
-149,847	-78,067	0,099	-0,024
-148,833	394,038	-0,037	-0,055
-147,818	12,133	0,054	0,030
-146,804	26,204	0,129	-0,077
-145,789	-136,601	0,031	0,003
-144,775	-108,593	0,136	0,021
-143,760	238,645	0,097	0,116
-142,745	800,000	-0,036	-0,087
-141,731	55,929	0,053	0,037
-140,716	-83,879	-0,084	-0,019
-139,702	-94,866	-0,095	0,018
-138,687	176,603	0,076	-0,079
-137,672	-106,658	-0,097	-0,015
-136,658	800,000	-0,037	-0,102
-135,643	137,865	0,028	0,026
-134,629	80,341	-0,083	-0,064
-133,614	76,278	0,119	-0,091
-132,599	-200,000	-0,009	0,054
-131,585	590,080	0,056	0,100
-130,570	25,324	-0,078	-0,047
-129,556	-64,408	-0,061	-0,018
-128,541	117,043	-0,052	-0,046
-127,526	625,171	0,025	0,045
-126,512	-74,746	0,088	-0,023
-125,497	111,333	-0,052	0,045
-124,483	457,415	0,031	0,049
-123,468	-91,677	0,089	0,018
-122,453	-200,000	-0,023	-0,084
-121,439	-78,077	0,124	-0,030
-120,424	-1,291	0,068	-0,035
-119,410	800,000	-0,029	-0,084
-118,395	-200,000	0,015	0,062
-117,380	128,303	0,083	-0,076
-116,366	-200,000	0,027	-0,092
-115,351	-71,756	0,062	-0,017
-114,337	800,000	-0,068	-0,149
-113,322	-200,000	0,019	-0,073
-112,307	93,995	0,085	-0,069
-111,293	800,000	0,030	0,076
-110,278	-200,000	0,010	0,152
-109,264	-200,000	0,003	0,095
-108,249	95,418	-0,066	0,054
-107,234	-39,794	-0,070	-0,026
-106,220	-200,000	0,026	-0,096
-105,205	96,700	0,069	-0,057
-104,191	136,375	-0,100	-0,093
-103,176	-184,802	0,112	0,001
-102,162	24,493	-0,101	0,060
-101,147	127,985	-0,074	0,068
-100,132	-200,000	-0,013	-0,137
-99,118	-34,792	-0,047	-0,019
-98,103	800,000	-0,024	0,059
-97,089	72,017	0,083	0,062
-96,074	69,814	0,028	0,021
-95,059	520,133	-0,030	-0,050
-94,045	800,000	0,018	0,056
-93,030	-72,402	-0,048	0,013
-92,016	-200,000	-0,005	-0,058
-91,001	800,000	0,002	0,004
-89,986	-139,853	0,118	0,009
-88,972	483,416	0,080	0,131
-87,957	800,000	-0,004	-0,011
-86,943	649,690	-0,042	0,077
-85,928	-200,000	-0,035	0,126
-84,913	-98,121	0,112	-0,021
-83,899	-200,000	-0,004	-0,097
-82,884	-185,353	0,044	-0,000
-81,870	150,442	0,029	0,028
-80,855	-43,554	0,051	0,018
-79,840	-200,000	-0,051	-0,175
-78,826	270,576	0,136	-0,172
-77,811	273,230	-0,073	-0,093
-76,797	-34,664	0,107	-0,042
-75,782	309,921	0,082	0,110
-74,767	-22,694	0,052	0,023
-73,753	-200,000	-0,001	0,037
-72,738	-2,572	-0,158	0,079
-71,724	-63,050	0,046	-0,013
-70,709	-143,484	-0,113	0,008
-69,694	338,835	0,048	-0,067
-68,680	371,010	0,067	-0,098
-67,665	-119,192	0,151	-0,019
-66,651	-200,000	-0,016	0,099
-65,636	176,261	-0,032	0,034
-64,622	189,503	0,066	0,071
-63,607	-186,761	0,035	0,000
-62,592	-200,000	-0,028	0,092
-61,578	26,421	0,017	0,010
-60,563	-29,489	-0,085	-0,035
-59,549	-200,000	0,003	0,087
-58,534	-17,751	-1,915	-0,859
-57,519	-200,000	-0,242	-0,922
-56,505	-200,000	-1,174	-5,027
-55,490	-27,933	0,806	0,333
-54,476	800,000	5,433	12,167
-53,461	-200,000	17,267	282,482
-52,446	800,000	724,709	2215,209
-51,432	535,776	1641,110	2803,595
-50,417	110,660	1632,497	1407,876
-49,403	74,965	1286,202	970,703
-48,388	32,327	1027,934	635,036
-47,373	20,165	989,754	571,370
-46,359	18,578	977,798	559,244
-45,344	15,954	973,725	548,309
-44,330	16,108	972,341	548,012
-43,315	15,748	970,677	545,877
-42,300	15,677	969,672	545,059
-41,286	15,739	968,407	544,527
-40,271	15,641	967,587	543,727
-39,257	15,705	966,570	543,341
-38,242	15,689	965,759	542,813
-37,227	15,711	964,626	542,224
-36,213	15,654	964,071	541,705
-35,198	15,655	963,105	541,145
-34,184	15,644	962,513	540,757
-33,169	15,657	961,483	540,196
-32,154	15,690	960,560	539,764
-31,140	15,711	959,445	539,183
-30,125	15,722	958,932	538,910
-29,111	15,702	958,032	538,319
-28,096	15,688	957,461	537,931
-27,082	15,699	956,738	537,539
-26,067	15,698	956,077	537,142
-25,052	15,644	955,222	536,467
-24,038	15,674	954,603	536,194
-23,023	15,626	954,062	535,716
-22,009	15,656	953,251	535,335
-20,994	15,675	952,639	535,030
-19,979	15,687	952,187	534,795
-18,965	15,655	951,518	534,295
-17,950	15,693	950,816	534,002
-16,936	15,599	950,265	533,371
-15,921	15,615	949,614	533,035
-14,906	15,528	948,922	532,347
-13,892	15,571	948,177	532,046
-12,877	15,597	947,486	531,720
-11,863	15,477	946,980	531,035
-10,848	15,544	946,494	530,953
-9,833	15,590	946,105	530,859
-8,819	15,647	945,247	530,538
-7,804	15,626	944,672	530,129
-6,790	15,513	944,346	529,566
-5,775	15,588	943,459	529,286
-4,760	15,572	942,879	528,886
-3,746	15,525	942,288	528,387
-2,731	15,496	941,443	527,801
-1,717	15,428	940,931	527,276
-0,702	15,456	940,143	526,901
0,313	15,228	939,565	526,655
1,327	18,301	937,418	535,081
2,342	27,342	794,450	477,413
3,356	24,085	458,745	270,679
4,371	-2,765	313,709	156,654
5,386	-6,597	295,470	143,669
6,400	-8,528	289,690	138,935
7,415	-9,151	287,192	137,113
8,429	-9,293	285,660	136,230
9,444	-9,405	284,732	135,666
10,459	-9,387	284,155	135,396
11,473	-9,356	283,510	135,108
12,488	-9,403	282,956	134,786
13,502	-9,378	282,441	134,552
14,517	-9,335	281,891	134,320
15,531	-9,456	281,532	134,021
16,546	-9,464	281,097	133,794
17,561	-9,562	280,704	133,501
18,575	-9,526	280,433	133,394
19,590	-9,521	280,056	133,209
20,604	-9,514	279,914	133,135
21,619	-9,454	279,219	132,850
22,634	-9,592	279,085	132,643
23,648	-9,531	278,718	132,516
24,663	-9,591	278,374	132,282
25,677	-9,594	278,072	132,125
26,692	-9,544	277,853	132,056
27,707	-9,553	277,713	131,969
28,721	-9,571	277,192	131,693
29,736	-9,693	276,969	131,460
30,750	-9,766	276,902	131,348
31,765	-9,636	276,604	131,317
32,780	-9,453	276,341	131,353
33,794	-9,545	276,117	131,149
34,809	-9,571	275,820	130,971
35,823	-9,447	275,588	130,966
36,838	-9,611	275,377	130,700
37,853	-9,737	275,028	130,404
38,867	-9,623	274,783	130,384
39,882	-9,603	274,654	130,329
40,896	-9,822	274,442	130,012
41,911	-9,687	274,123	129,976
42,926	-9,484	273,860	130,029
43,940	-9,815	273,616	129,592
44,955	-9,703	273,449	129,607
45,969	-9,820	273,176	129,356
46,984	-9,800	272,929	129,247
47,999	-10,111	272,660	128,818
49,013	-10,181	272,421	128,629
50,028	-10,240	272,115	128,418
51,042	-10,453	271,854	128,087
52,057	-10,318	271,574	128,068
53,071	-10,240	271,489	128,088
54,086	-10,259	271,295	127,968
55,101	-10,210	271,115	127,917
56,115	-9,819	270,916	128,173
57,130	-9,408	270,725	128,450
58,144	-9,558	270,596	128,238
59,159	-9,391	270,420	128,298
60,174	-9,356	270,162	128,197
61,188	-9,374	269,954	128,069
62,203	-9,624	269,827	127,768
63,217	-9,499	269,490	127,712
64,232	-9,425	269,355	127,705
65,247	-9,474	269,054	127,505
66,261	-9,656	268,814	127,213
67,276	-9,650	268,534	127,075
68,290	-9,900	268,304	126,727
69,305	-9,720	267,983	126,729
70,320	-9,724	267,775	126,615
71,334	-9,667	267,726	126,633
72,349	-9,434	267,514	126,733
73,363	-9,449	267,225	126,571
74,378	-9,332	266,947	126,534
75,393	-9,477	266,888	126,363
76,407	-9,424	266,726	126,323
77,422	-9,539	266,459	126,082
78,436	-9,608	266,308	125,936
79,451	-9,345	265,767	125,907
80,466	-9,569	265,818	125,717
81,480	-9,651	265,490	125,478
82,495	-9,616	265,371	125,441
83,509	-9,601	265,267	125,395
84,524	-9,723	265,043	125,167
85,539	-9,744	264,622	124,938
86,553	-9,689	264,361	124,854
87,568	-9,636	264,282	124,853
88,582	-9,710	264,127	124,702
89,597	-9,634	263,871	124,638
90,611	-9,537	263,801	124,681
91,626	-9,620	263,647	124,523
92,641	-9,513	263,319	124,452
93,655	-9,428	263,023	124,378
94,670	-9,587	262,860	124,147
95,684	-9,593	262,717	124,064
96,699	-9,418	262,639	124,171
97,714	-9,718	262,296	123,732
98,728	-9,806	262,141	123,569
99,743	-9,902	261,885	123,352
100,757	-9,636	261,591	123,439
101,772	-9,610	261,367	123,345
102,787	-9,578	261,301	123,330
103,801	-9,414	261,153	123,395
104,816	-9,490	260,922	123,208
105,830	-9,412	260,790	123,204
106,845	-9,265	260,565	123,217
107,860	-9,516	260,470	122,938
108,874	-9,402	260,252	122,925
109,889	-9,589	260,144	122,698
110,903	-9,541	259,753	122,545
111,918	-9,640	259,711	122,427
112,933	-9,503	259,459	122,418
113,947	-9,548	259,210	122,250
114,962	-9,544	259,177	122,228
115,976	-9,429	258,928	122,199
116,991	-9,480	258,581	121,980
118,006	-9,607	258,402	121,774
119,020	-9,562	258,363	121,784
120,035	-9,467	258,267	121,811
121,049	-9,305	258,042	121,835
122,064	-9,302	257,761	121,695
123,079	-9,479	257,572	121,440
124,093	-9,570	257,397	121,268
125,108	-9,597	257,069	121,079
126,122	-9,830	256,777	120,728
127,137	-9,921	256,652	120,580
128,151	-9,969	256,532	120,471
129,166	-9,728	256,321	120,569
130,181	-9,902	256,282	120,390
131,195	-9,891	255,891	120,205
132,210	-9,608	255,718	120,358
133,224	-9,501	255,739	120,450
134,239	-9,438	255,582	120,419
135,254	-9,195	255,228	120,452
136,268	-9,567	255,158	120,087
137,283	-9,771	254,637	119,655
138,297	-9,861	254,474	119,491
139,312	-9,892	254,279	119,362
140,327	-9,584	254,219	119,588
141,341	-9,343	254,277	119,811
142,356	-9,312	254,083	119,736
143,370	-9,337	253,991	119,660
144,385	-9,189	253,687	119,633
145,400	-9,409	253,504	119,348
146,414	-9,317	253,529	119,427
147,429	-9,273	253,059	119,233
148,443	-9,313	252,973	119,148
149,458	-9,454	252,897	118,981
150,473	-9,434	252,679	118,885
151,487	-9,434	252,434	118,759
152,502	-9,289	252,294	118,806
153,516	-9,174	252,069	118,787
154,531	-9,312	251,891	118,576
155,546	-9,331	251,730	118,473
156,560	-9,514	251,536	118,216
157,575	-9,368	251,170	118,157
158,589	-9,427	251,148	118,086
159,604	-9,449	250,945	117,962
160,619	-9,374	250,737	117,916
161,633	-9,244	250,690	117,994
162,648	-9,196	250,401	117,888
163,662	-9,278	250,355	117,787
164,677	-9,266	250,141	117,686
165,692	-9,177	249,952	117,662
166,706	-9,189	249,838	117,587
167,721	-9,257	249,571	117,394
168,735	-9,209	249,559	117,418
169,750	-9,164	249,284	117,316
170,764	-9,194	249,288	117,282
171,779	-9,069	249,061	117,270
172,794	-9,246	248,899	117,034
173,808	-9,282	248,648	116,876
174,823	-9,817	248,361	116,283
175,837	-9,826	248,036	116,113
176,852	-9,476	248,036	116,394
177,867	-9,126	247,948	116,635
178,881	-9,100	247,841	116,597
179,896	-9,233	247,587	116,356
180,910	-9,063	247,451	116,423
181,925	-9,135	247,161	116,217
182,940	-9,163	247,096	116,152
183,954	-9,145	246,894	116,062
184,969	-9,208	246,745	115,930
185,983	-9,112	246,732	115,993
186,998	-9,085	246,448	115,871
188,013	-9,014	246,231	115,818
189,027	-9,147	246,168	115,668
190,042	-9,011	246,071	115,725
191,056	-9,116	245,793	115,496
192,071	-9,029	245,542	115,440
193,086	-9,028	245,337	115,334
194,100	-8,995	245,250	115,310
195,115	-9,043	245,074	115,177
196,129	-9,138	244,868	114,992
197,144	-9,113	244,722	114,934
198,159	-9,022	244,423	114,858
199,173	-9,063	244,298	114,755
200,188	-8,993	244,157	114,736
201,202	-9,549	244,013	114,202
202,217	-9,933	243,732	113,746
203,232	-9,784	243,385	113,696
204,246	-9,193	243,419	114,185
205,261	-8,760	243,513	114,573
206,275	-9,181	243,192	114,068
207,290	-7,070	244,166	116,246
208,304	-1,814	245,609	121,250
209,319	1,160	246,326	124,042
210,334	1,559	246,378	124,386
211,348	1,735	246,112	124,385
212,363	1,951	246,225	124,609
213,377	2,345	246,089	124,852
214,392	2,304	245,984	124,754
215,407	2,195	245,824	124,573
216,421	2,076	245,662	124,382
217,436	2,287	245,604	124,514
218,450	2,321	245,425	124,440
219,465	2,140	245,110	124,122
220,480	1,910	245,068	123,901
221,494	2,142	244,900	123,995
222,509	2,525	244,677	124,183
223,523	2,518	244,513	124,083
224,538	1,952	244,132	123,418
225,553	1,973	244,095	123,405
226,567	1,991	243,992	123,357
227,582	2,225	243,792	123,435
228,596	2,179	243,624	123,302
229,611	1,975	243,419	123,021
230,626	2,011	243,154	122,905
231,640	2,029	243,126	122,895
232,655	1,922	243,077	122,773
233,669	2,028	242,838	122,727
234,684	1,844	242,622	122,458
235,699	2,219	242,577	122,727
236,713	2,454	242,463	122,848
237,728	2,040	242,286	122,414
238,742	2,101	242,065	122,340
239,757	1,977	241,883	122,137
240,772	1,726	241,785	121,875
241,786	1,981	241,721	122,037
242,801	1,796	241,258	121,644
243,815	1,771	241,060	121,513
244,830	2,072	240,963	121,695
245,844	2,198	240,984	121,796
246,859	2,054	240,749	121,551
247,874	2,123	240,523	121,481
248,888	2,104	240,434	121,410
249,903	1,996	240,452	121,322
250,917	2,494	240,180	121,572
251,932	2,601	239,979	121,544
252,947	2,139	239,917	121,134
253,961	2,058	239,619	120,908
254,976	1,915	239,594	120,771
255,990	2,198	239,553	120,965
257,005	1,975	239,216	120,606
258,020	2,005	238,884	120,452
259,034	1,787	238,918	120,285
260,049	1,949	238,825	120,356
261,063	1,931	238,468	120,151
262,078	1,665	238,545	119,968
263,093	2,125	238,312	120,205
264,107	2,221	238,266	120,246
265,122	2,068	238,111	120,037
266,136	2,287	237,757	120,021
267,151	2,077	237,790	119,860
268,166	1,952	237,546	119,628
269,180	1,860	237,419	119,482
270,195	2,421	237,504	119,956
271,209	2,462	237,159	119,803
272,224	1,848	237,070	119,264
273,239	1,738	236,690	118,976
274,253	1,850	236,571	118,993
275,268	2,248	236,506	119,263
276,282	2,236	236,367	119,173
277,297	1,979	236,043	118,798
278,312	1,762	236,073	118,632
279,326	2,117	235,786	118,755
280,341	2,111	235,832	118,763
281,355	2,180	235,646	118,712
282,370	2,165	235,572	118,653
283,384	2,187	235,360	118,553
284,399	2,046	235,044	118,273
285,414	2,033	234,776	118,117
286,428	2,178	234,722	118,193
287,443	2,230	234,726	118,225
288,457	2,493	234,520	118,315
289,472	2,290	234,425	118,098
290,487	2,237	234,177	117,921
291,501	1,901	233,972	117,548
292,516	1,642	233,759	117,230
293,530	1,584	233,707	117,148
294,545	1,949	233,751	117,442
295,560	2,171	233,442	117,448
296,574	1,706	233,202	116,958
297,589	1,857	232,980	116,953
298,603	2,343	232,866	117,260
299,618	2,123	233,054	117,174
300,633	2,010	232,837	116,968
301,647	2,275	232,660	117,072
302,662	2,538	232,823	117,346
303,676	2,726	232,508	117,322
304,691	2,645	232,254	117,121
305,706	2,428	232,228	116,931
306,720	2,564	231,963	116,891
307,735	2,190	231,825	116,524
308,749	2,144	231,595	116,363
309,764	2,061	231,335	116,158
310,779	1,860	231,070	115,862
311,793	1,803	231,043	115,794
312,808	1,862	230,873	115,744
313,822	1,700	230,698	115,522
314,837	1,756	230,543	115,476
315,852	1,807	230,481	115,474
316,866	2,128	230,248	115,592
317,881	2,317	230,228	115,715
318,895	2,422	230,207	115,774
319,910	2,634	230,094	115,868
320,925	2,498	229,909	115,662
321,939	2,005	229,563	115,103
322,954	2,305	229,667	115,372
323,968	2,296	229,367	115,205
324,983	2,242	229,222	115,081
325,997	2,322	229,270	115,155
327,012	2,437	229,007	115,099
328,027	1,961	228,654	114,553
329,041	1,893	228,768	114,548
330,056	2,612	228,623	115,008
331,070	2,876	228,643	115,207
332,085	2,892	228,396	115,085
333,100	2,716	228,251	114,869
334,114	2,534	228,037	114,613
335,129	2,429	227,924	114,468
336,143	2,306	227,711	114,258
337,158	2,476	227,631	114,335
338,173	2,436	227,435	114,197
339,187	2,436	227,266	114,101
340,202	2,503	227,123	114,070
341,216	2,245	227,152	113,881
342,231	2,559	226,889	113,974
343,246	2,439	226,725	113,792
344,260	2,311	226,689	113,668
345,275	2,728	226,592	113,921
346,289	2,684	226,557	113,860
347,304	2,718	226,258	113,725
348,319	2,759	226,072	113,652
349,333	2,781	225,625	113,434
350,348	2,348	225,621	113,099
351,362	2,411	225,529	113,090
352,377	2,105	225,497	112,836
353,392	2,357	225,128	112,828
354,406	2,537	225,087	112,931
355,421	195,769	1318,755	1395,223
356,435	156,922	1452,001	1395,231
