DTS Sentinel unit serial number:	SN410029Multiplexer serial number:	ORYXHardware model number:	OX2-SRSoftware version number:	ORYX F/W v4,00 Oryx Data Collector v3.7.2.0data status	okinstallation	B5 Nyhavnadifferential loss correction	single-endedforward channel	channel 2reverse channel	N/Adate	2023/12/12time	20:12:13forward acquisition time	300,00reverse acquisition time	0,00gamma	499,1914k internal	0,3157k external	0,3157temperature offset calibration	1,0000default loss term (dB/km)	0,3820temperature slope calibration	1,0000multiplexer offset coefficient	1,0000multiplexer slope coefficient	1,0000fibre end	0,00T internal ref (°C)	15,31T ext. ref 1 (°C)	-1,38T ext. ref 2 (°C)	-1,71length (m)	temperature (°C)	Stokes	anti-Stokes-744,400	800,000	-0,018	-0,058
-743,385	-68,782	-0,286	-0,081
-742,371	240,542	0,074	-0,091
-741,356	-46,200	-0,261	0,094
-740,342	800,000	0,101	0,281
-739,327	-128,805	-0,299	-0,031
-738,312	35,028	0,092	0,059
-737,298	-131,017	-0,281	-0,027
-736,283	800,000	0,024	0,075
-735,269	-105,299	-0,224	-0,037
-734,254	13,218	-0,034	0,019
-733,239	-92,974	-0,384	-0,078
-732,225	55,835	0,158	0,113
-731,210	-41,418	-0,032	0,012
-730,196	116,289	0,116	0,104
-729,181	386,809	0,055	-0,084
-728,167	800,000	-0,023	0,073
-727,152	378,877	0,036	-0,054
-726,137	800,000	0,012	0,036
-725,123	-200,000	0,005	0,020
-724,108	800,000	-0,043	-0,102
-723,094	-83,024	-0,182	-0,043
-722,079	84,420	-0,057	-0,046
-721,064	-120,014	-0,017	-0,002
-720,050	-200,000	-0,022	-0,090
-719,035	-200,000	0,006	-0,103
-718,021	-121,601	-0,065	-0,008
-717,006	-95,692	0,026	-0,005
-715,991	800,000	-0,035	-0,078
-714,977	-65,672	-0,102	0,030
-713,962	800,000	0,036	-0,101
-712,948	-74,878	0,076	0,020
-711,933	-47,387	0,020	-0,007
-710,918	18,686	-0,069	-0,041
-709,904	-66,650	-0,097	-0,028
-708,889	800,000	-0,044	-0,108
-707,875	188,403	-0,101	-0,111
-706,860	-200,000	0,005	-0,130
-705,845	-200,000	-0,002	-0,009
-704,831	-4,588	-0,189	-0,096
-703,816	-200,000	0,005	0,039
-702,802	-200,000	-0,009	0,084
-701,787	-170,213	-0,059	-0,001
-700,772	800,000	-0,053	-0,116
-699,758	60,997	0,118	0,086
-698,743	66,695	0,091	-0,068
-697,729	119,244	0,032	0,029
-696,714	800,000	-0,040	0,101
-695,699	1,815	0,092	0,049
-694,685	42,661	-0,051	0,034
-693,670	2,392	-0,025	0,013
-692,656	-200,000	-0,002	0,042
-691,641	591,716	0,034	-0,062
-690,627	-200,000	-0,025	-0,230
-689,612	-108,493	-0,093	-0,015
-688,597	-200,000	0,009	-0,133
-687,583	198,943	-0,038	-0,043
-686,568	800,000	-0,050	-0,160
-685,554	-200,000	0,003	-0,085
-684,539	17,583	0,161	0,094
-683,524	290,050	0,034	0,045
-682,510	-129,038	0,115	-0,012
-681,495	-109,994	-0,049	-0,008
-680,481	37,226	0,119	-0,078
-679,466	-83,061	-0,076	0,018
-678,451	-85,260	-0,156	0,036
-677,437	222,244	0,030	-0,036
-676,422	-169,239	0,107	0,003
-675,408	-98,866	0,025	0,005
-674,393	52,972	0,111	-0,078
-673,378	-200,000	-0,013	-0,103
-672,364	-24,268	-0,165	-0,072
-671,349	190,071	-0,065	0,072
-670,335	-72,583	0,134	-0,036
-669,320	800,000	0,071	-0,146
-668,305	77,538	0,031	0,024
-667,291	100,857	0,070	0,060
-666,276	-200,000	0,004	-0,124
-665,262	76,277	-0,144	0,112
-664,247	395,272	0,024	-0,036
-663,232	-82,606	0,140	-0,033
-662,218	-99,497	0,030	-0,006
-661,203	800,000	0,060	0,185
-660,189	112,678	0,037	-0,033
-659,174	148,629	0,035	-0,035
-658,159	-200,000	0,025	-0,180
-657,145	22,837	0,111	-0,067
-656,130	-87,057	0,121	0,027
-655,116	800,000	0,031	-0,079
-654,101	-109,715	0,089	0,014
-653,086	151,833	0,089	-0,089
-652,072	-113,665	0,084	-0,012
-651,057	-151,993	-0,150	0,008
-650,043	-135,676	-0,115	-0,010
-649,028	355,535	0,072	-0,106
-648,014	183,872	0,063	-0,068
-646,999	-200,000	-0,026	-0,087
-645,984	-107,406	0,114	0,018
-644,970	3,030	-0,105	-0,056
-643,955	-7,583	0,091	-0,045
-642,941	46,337	-0,132	0,090
-641,926	-8,776	-0,063	0,031
-640,911	13,324	-0,051	-0,029
-639,897	-4,149	-0,051	-0,026
-638,882	-51,216	-0,018	0,006
-637,868	94,306	-0,093	0,077
-636,853	-200,000	-0,030	-0,185
-635,838	-81,827	-0,073	0,017
-634,824	800,000	-0,039	-0,096
-633,809	506,039	0,078	-0,133
-632,795	-200,000	-0,004	-0,043
-631,780	-200,000	0,019	-0,133
-630,765	-200,000	0,036	0,159
-629,751	-169,360	-0,121	-0,003
-628,736	-156,852	-0,041	-0,002
-627,722	504,834	-0,062	-0,105
-626,707	-200,000	0,003	0,077
-625,692	107,716	-0,016	0,014
-624,678	142,836	-0,050	0,048
-623,663	800,000	-0,013	-0,029
-622,649	89,932	-0,071	-0,059
-621,634	234,530	0,034	-0,041
-620,619	-63,058	-0,125	-0,038
-619,605	-54,635	0,033	0,011
-618,590	754,714	0,077	0,154
-617,576	-40,491	-0,119	0,045
-616,561	255,302	-0,106	-0,134
-615,546	144,533	-0,189	-0,185
-614,532	-200,000	-0,012	-0,059
-613,517	-73,547	-0,137	-0,036
-612,503	-6,427	0,195	0,097
-611,488	800,000	-0,027	0,057
-610,474	-48,439	0,144	-0,050
-609,459	159,712	0,044	-0,045
-608,444	-200,000	-0,010	0,097
-607,430	702,577	0,028	-0,055
-606,415	-93,004	0,088	-0,018
-605,401	-200,000	0,009	0,062
-604,386	132,644	0,024	-0,023
-603,371	-170,536	-0,046	-0,001
-602,357	-200,000	-0,009	-0,100
-601,342	-200,000	-0,028	-0,154
-600,328	800,000	0,057	-0,142
-599,313	360,662	0,040	-0,060
-598,298	-75,214	-0,156	0,041
-597,284	203,965	0,102	0,115
-596,269	27,996	0,111	0,068
-595,255	470,348	-0,044	-0,072
-594,240	-200,000	0,007	-0,228
-593,225	-94,960	0,045	0,009
-592,211	-24,116	-0,126	-0,055
-591,196	55,954	0,042	0,030
-590,182	-9,829	0,072	0,035
-589,167	0,798	0,122	0,064
-588,152	-125,560	-0,091	-0,010
-587,138	-118,673	0,058	0,007
-586,123	-200,000	-0,016	-0,145
-585,109	-200,000	0,017	-0,072
-584,094	114,483	-0,054	-0,048
-583,079	-200,000	0,012	0,105
-582,065	118,510	0,046	0,042
-581,050	-117,955	0,083	-0,011
-580,036	-21,655	0,058	0,026
-579,021	63,582	-0,029	-0,021
-578,006	172,920	-0,137	-0,145
-576,992	800,000	-0,013	0,033
-575,977	-23,633	0,108	0,047
-574,963	800,000	-0,029	-0,073
-573,948	44,233	0,106	0,071
-572,934	90,202	-0,088	0,072
-571,919	-190,135	-0,085	0,001
-570,904	188,188	-0,081	-0,089
-569,890	-200,000	-0,016	-0,065
-568,875	36,966	0,036	-0,023
-567,861	120,411	0,100	-0,091
-566,846	-73,724	0,185	0,049
-565,831	80,244	-0,176	0,139
-564,817	-200,000	-0,000	0,015
-563,802	800,000	0,026	-0,059
-562,788	307,009	-0,032	0,043
-561,773	197,638	-0,064	-0,071
-560,758	-22,069	0,097	0,043
-559,744	800,000	0,044	0,133
-558,729	230,755	-0,104	0,125
-557,715	102,965	0,051	-0,044
-556,700	-200,000	-0,023	0,128
-555,685	148,023	-0,072	0,071
-554,671	-24,877	0,086	-0,037
-553,656	800,000	-0,008	-0,022
-552,642	407,970	0,038	0,059
-551,627	200,902	-0,034	0,038
-550,612	-66,846	0,020	0,006
-549,598	-200,000	0,021	-0,077
-548,583	800,000	-0,020	-0,060
-547,569	207,819	0,014	0,017
-546,554	5,148	0,086	0,046
-545,539	-128,008	0,103	0,011
-544,525	-107,440	-0,134	0,021
-543,510	-39,852	-0,044	-0,017
-542,496	-98,278	-0,108	-0,020
-541,481	-28,935	0,107	0,045
-540,466	-200,000	-0,013	0,138
-539,452	-61,651	-0,045	0,014
-538,437	100,088	0,135	0,114
-537,423	800,000	-0,021	0,062
-536,408	-70,882	-0,216	-0,059
-535,393	100,444	0,097	0,082
-534,379	38,777	0,090	-0,059
-533,364	-31,834	0,111	-0,045
-532,350	450,503	0,028	-0,046
-531,335	19,097	-0,068	-0,040
-530,321	-200,000	0,009	-0,065
-529,306	-200,000	-0,034	-0,142
-528,291	67,153	0,120	0,089
-527,277	379,504	-0,045	-0,067
-526,262	358,330	-0,069	-0,101
-525,248	-132,938	0,112	-0,010
-524,233	684,739	0,063	0,121
-523,218	-192,508	0,046	-0,000
-522,204	-200,000	0,002	0,099
-521,189	-200,000	-0,013	-0,160
-520,175	-200,000	-0,001	-0,067
-519,160	125,501	-0,051	-0,047
-518,145	65,162	-0,058	0,043
-517,131	800,000	0,052	-0,149
-516,116	-200,000	0,011	0,094
-515,102	-200,000	0,008	-0,042
-514,087	-200,000	-0,011	0,037
-513,072	800,000	-0,009	0,029
-512,058	-200,000	0,008	-0,202
-511,043	31,573	0,115	0,072
-510,029	-18,168	-0,014	-0,006
-509,014	800,000	-0,047	0,108
-507,999	-162,486	-0,090	0,003
-506,985	-46,350	-0,166	0,059
-505,970	-38,831	-0,051	-0,019
-504,956	-200,000	0,011	0,047
-503,941	-115,554	-0,108	0,015
-502,926	-55,052	-0,027	-0,009
-501,912	800,000	-0,035	0,095
-500,897	-20,489	0,116	-0,052
-499,883	-86,000	0,049	0,011
-498,868	-114,081	-0,038	-0,005
-497,853	177,542	-0,061	0,065
-496,839	65,764	-0,052	0,039
-495,824	-84,111	0,078	0,018
-494,810	800,000	0,065	0,134
-493,795	149,826	-0,070	0,070
-492,781	-58,974	0,082	0,026
-491,766	-20,544	-0,058	-0,026
-490,751	800,000	0,065	-0,147
-489,737	-10,470	0,061	-0,029
-488,722	-69,689	-0,045	0,013
-487,708	-83,953	0,025	-0,006
-486,693	361,333	-0,040	-0,059
-485,678	224,716	0,026	-0,031
-484,664	-200,000	-0,007	-0,098
-483,649	-200,000	0,019	-0,112
-482,635	-157,364	-0,052	-0,002
-481,620	19,989	-0,086	0,050
-480,605	-43,901	0,086	0,031
-479,591	-168,164	-0,052	0,001
-478,576	-35,260	0,121	0,048
-477,562	2,160	0,054	0,028
-476,547	-200,000	0,015	-0,079
-475,532	800,000	-0,055	-0,148
-474,518	-49,477	0,034	0,012
-473,503	-119,749	-0,071	-0,009
-472,489	161,431	-0,089	-0,091
-471,474	-131,063	0,113	-0,011
-470,459	-123,390	0,050	0,006
-469,445	-3,840	-0,107	0,054
-468,430	99,568	-0,039	0,033
-467,416	-45,805	0,105	-0,038
-466,401	-200,000	0,020	-0,071
-465,386	-23,450	0,023	-0,010
-464,372	39,391	-0,128	-0,083
-463,357	140,737	0,060	-0,058
-462,343	175,816	-0,056	0,060
-461,328	-163,164	-0,083	-0,003
-460,313	488,950	-0,029	0,049
-459,299	-83,388	0,069	-0,016
-458,284	622,902	-0,054	0,099
-457,270	-200,000	0,036	-0,192
-456,255	-14,526	0,063	-0,029
-455,241	16,810	-0,128	-0,074
-454,226	800,000	-0,019	0,049
-453,211	800,000	0,046	-0,097
-452,197	19,973	0,037	0,022
-451,182	-200,000	0,002	-0,030
-450,168	-200,000	0,047	0,213
-449,153	469,362	-0,027	0,044
-448,138	-200,000	-0,045	-0,190
-447,124	-200,000	0,002	0,058
-446,109	72,627	0,082	-0,063
-445,095	292,464	0,022	-0,029
-444,080	478,593	0,024	-0,041
-443,065	173,665	0,073	0,077
-442,051	25,933	0,042	0,026
-441,036	-82,313	0,032	0,008
-440,022	384,315	-0,075	-0,113
-439,007	409,135	0,070	0,109
-437,992	-200,000	0,004	-0,063
-436,978	800,000	-0,034	0,096
-435,963	-93,167	0,126	0,025
-434,949	42,148	0,056	0,037
-433,934	-200,000	-0,008	-0,083
-432,919	-33,901	-0,085	0,034
-431,905	-72,407	-0,075	0,020
-430,890	-41,650	-0,036	-0,013
-429,876	15,512	0,038	0,022
-428,861	-200,000	0,002	0,008
-427,846	-200,000	-0,163	0,000
-426,832	-57,212	-0,050	0,016
-425,817	800,000	0,017	-0,044
-424,803	-111,130	0,069	-0,010
-423,788	-89,209	0,105	0,022
-422,773	800,000	-0,054	0,133
-421,759	-200,000	-0,011	0,067
-420,744	-44,453	-0,177	0,064
-419,730	-47,438	-0,056	-0,020
-418,715	84,848	-0,094	0,075
-417,701	-200,000	0,000	-0,024
-416,686	-116,886	0,062	-0,008
-415,671	-56,897	0,108	0,035
-414,657	341,434	0,048	-0,069
-413,642	313,197	0,022	0,030
-412,628	-33,759	-0,112	0,045
-411,613	143,887	-0,128	-0,124
-410,598	-200,000	-0,005	0,090
-409,584	-200,000	0,006	0,026
-408,569	102,157	0,023	-0,019
-407,555	-5,356	0,105	0,052
-406,540	497,466	-0,029	-0,049
-405,525	800,000	0,028	0,072
-404,511	394,245	0,038	-0,058
-403,496	-118,065	0,155	-0,020
-402,482	559,873	0,060	0,106
-401,467	800,000	-0,034	0,078
-400,452	63,896	0,038	-0,027
-399,438	-200,000	-0,006	0,115
-398,423	-126,994	0,049	0,005
-397,409	352,516	-0,049	-0,071
-396,394	-77,666	0,065	-0,016
-395,379	800,000	0,036	0,078
-394,365	-47,606	0,044	0,015
-393,350	440,532	0,045	-0,072
-392,336	-200,000	0,009	-0,072
-391,321	-67,550	0,084	-0,024
-390,306	287,223	-0,053	0,069
-389,292	3,388	0,084	0,044
-388,277	800,000	0,001	0,004
-387,263	-153,512	0,042	0,002
-386,248	800,000	0,011	-0,029
-385,233	241,845	0,029	-0,035
-384,219	800,000	-0,043	-0,108
-383,204	15,658	0,146	0,083
-382,190	146,778	0,097	-0,095
-381,175	-200,000	-0,018	0,224
-380,160	-35,555	-0,087	-0,034
-379,146	-32,002	0,199	0,080
-378,131	-13,096	0,121	-0,057
-377,117	800,000	-0,019	0,053
-376,102	-200,000	-0,004	-0,019
-375,088	-62,738	-0,082	-0,025
-374,073	-7,686	0,063	-0,031
-373,058	-200,000	0,012	-0,109
-372,044	586,188	-0,008	0,014
-371,029	448,160	-0,013	0,021
-370,015	116,316	-0,025	-0,022
-369,000	-200,000	-0,024	0,084
-367,985	-140,385	0,057	-0,004
-366,971	-200,000	-0,044	-0,241
-365,956	-200,000	-0,017	0,078
-364,942	-200,000	0,016	0,050
-363,927	-148,934	0,098	0,006
-362,912	283,752	0,025	-0,033
-361,898	-78,553	-0,092	-0,023
-360,883	162,132	-0,135	-0,138
-359,869	-125,881	-0,019	-0,002
-358,854	58,507	-0,070	0,050
-357,839	272,467	0,029	0,038
-356,825	106,289	0,121	-0,104
-355,810	-200,000	-0,029	-0,178
-354,796	125,653	-0,033	-0,030
-353,781	-200,000	-0,004	-0,052
-352,766	-143,235	-0,158	-0,011
-351,752	18,469	0,093	0,054
-350,737	239,933	0,031	-0,037
-349,723	566,846	-0,066	0,116
-348,708	-154,509	0,120	0,006
-347,693	53,270	-0,135	-0,094
-346,679	228,413	0,071	-0,084
-345,664	-200,000	-0,001	-0,033
-344,650	773,320	-0,042	0,084
-343,635	-137,629	-0,127	-0,010
-342,620	97,269	-0,025	0,021
-341,606	-87,914	0,126	-0,027
-340,591	94,427	-0,138	0,113
-339,577	-200,000	-0,012	-0,072
-338,562	-111,702	-0,036	0,005
-337,548	800,000	0,028	-0,061
-336,533	-156,452	0,013	0,001
-335,518	158,695	-0,111	0,112
-334,504	585,865	-0,039	-0,070
-333,489	-83,866	-0,255	-0,058
-332,475	-200,000	0,020	-0,134
-331,460	-100,493	0,015	0,003
-330,445	556,971	0,026	0,046
-329,431	-82,197	0,067	-0,016
-328,416	101,802	-0,058	0,049
-327,402	-200,000	0,002	0,167
-326,387	69,941	-0,066	0,049
-325,372	800,000	-0,031	-0,097
-324,358	1,103	-0,007	-0,004
-323,343	99,775	0,055	-0,046
-322,329	-200,000	0,021	0,129
-321,314	-200,000	0,031	0,207
-320,299	-82,362	-0,072	-0,017
-319,285	-200,000	0,003	0,054
-318,270	-42,583	-0,127	-0,047
-317,256	186,810	0,034	-0,037
-316,241	-93,525	-0,040	0,008
-315,226	-200,000	-0,003	0,040
-314,212	-104,206	0,049	0,008
-313,197	-26,859	0,101	0,043
-312,183	-75,859	-0,058	0,015
-311,168	-149,024	0,035	0,002
-310,153	800,000	-0,022	-0,071
-309,139	207,720	-0,071	-0,081
-308,124	222,100	0,025	0,029
-307,110	170,035	0,106	0,110
-306,095	681,552	0,074	0,141
-305,080	-200,000	0,041	0,160
-304,066	377,789	0,073	0,108
-303,051	-200,000	-0,012	-0,105
-302,037	110,261	-0,097	0,084
-301,022	800,000	0,044	0,090
-300,008	17,383	0,129	0,074
-298,993	-200,000	0,025	-0,114
-297,978	1,144	-0,060	-0,031
-296,964	-177,825	-0,047	0,001
-295,949	-200,000	0,001	0,081
-294,935	-200,000	-0,027	-0,132
-293,920	-200,000	-0,018	0,075
-292,905	210,776	0,060	-0,069
-291,891	15,621	0,074	0,042
-290,876	-64,914	-0,058	-0,017
-289,862	800,000	-0,031	-0,073
-288,847	55,260	-0,035	0,025
-287,832	-200,000	0,011	-0,047
-286,818	800,000	-0,057	0,115
-285,803	35,960	0,085	0,054
-284,789	68,213	0,131	0,097
-283,774	235,508	-0,060	0,072
-282,759	-13,567	-0,018	0,008
-281,745	129,497	-0,029	0,027
-280,730	-200,000	-0,035	-0,161
-279,716	565,197	-0,058	0,103
-278,701	-200,000	-0,016	0,055
-277,686	-200,000	-0,018	0,134
-276,672	34,082	0,029	-0,019
-275,657	16,651	-0,124	0,071
-274,643	343,003	-0,057	0,080
-273,628	-143,226	-0,079	0,005
-272,613	-48,630	-0,042	0,015
-271,599	-80,988	-0,065	-0,015
-270,584	184,588	0,069	0,074
-269,570	-65,102	-0,116	-0,034
-268,555	-200,000	0,012	-0,119
-267,540	77,471	-0,104	0,080
-266,526	-200,000	0,058	-0,237
-265,511	474,294	-0,018	0,030
-264,497	800,000	-0,058	-0,157
-263,482	-16,373	-0,117	0,054
-262,467	107,132	0,110	0,095
-261,453	13,854	0,071	0,040
-260,438	309,144	-0,075	-0,101
-259,424	-200,000	0,008	0,026
-258,409	72,879	0,103	-0,077
-257,395	800,000	0,007	-0,014
-256,380	-200,000	0,009	0,038
-255,365	-69,560	0,051	0,014
-254,351	37,921	0,018	-0,011
-253,336	115,828	-0,035	-0,031
-252,322	14,659	-0,097	-0,055
-251,307	393,233	0,026	0,039
-250,292	-200,000	-0,001	0,056
-249,278	-88,454	0,057	0,012
-248,263	-200,000	0,006	0,031
-247,249	540,167	0,048	-0,082
-246,234	800,000	-0,024	0,061
-245,219	207,196	-0,141	-0,159
-244,205	16,713	0,012	0,007
-243,190	-200,000	0,033	-0,159
-242,176	-17,917	-0,063	0,029
-241,161	7,702	0,189	0,102
-240,146	-0,939	0,087	0,045
-239,132	54,521	0,051	-0,036
-238,117	-100,415	-0,092	0,016
-237,103	-69,159	-0,048	-0,013
-236,088	-52,963	0,112	0,037
-235,073	618,002	0,043	-0,078
-234,059	-68,592	0,105	0,029
-233,044	140,209	0,038	-0,036
-232,030	341,451	-0,011	0,015
-231,015	505,690	-0,052	0,087
-230,000	138,663	0,058	0,055
-228,986	-123,721	0,164	0,018
-227,971	-90,745	0,125	0,026
-226,957	591,933	0,042	0,075
-225,942	-200,000	-0,028	0,222
-224,927	-91,768	-0,109	-0,022
-223,913	800,000	-0,060	-0,126
-222,898	-56,763	0,099	0,032
-221,884	145,150	-0,063	-0,061
-220,869	320,916	0,067	-0,092
-219,855	165,598	0,043	0,044
-218,840	210,874	0,068	0,077
-217,825	800,000	-0,030	-0,065
-216,811	382,639	-0,037	-0,054
-215,796	-200,000	-0,003	0,044
-214,782	186,295	0,094	-0,101
-213,767	58,090	0,018	0,013
-212,752	-200,000	-0,010	0,166
-211,738	574,623	0,102	0,180
-210,723	3,121	-0,042	0,022
-209,709	-200,000	-0,014	-0,142
-208,694	210,820	-0,069	-0,079
-207,679	-200,000	-0,000	0,084
-206,665	143,082	0,085	0,082
-205,650	800,000	0,042	0,089
-204,636	-178,998	-0,094	-0,001
-203,621	51,675	-0,112	0,077
-202,606	1,589	0,043	0,022
-201,592	689,266	-0,032	-0,061
-200,577	76,737	-0,068	-0,052
-199,563	-200,000	-0,012	-0,056
-198,548	63,898	0,059	-0,043
-197,533	85,700	0,054	0,043
-196,519	40,706	-0,137	0,089
-195,504	491,873	0,064	-0,106
-194,490	-83,178	-0,122	0,028
-193,475	-19,858	0,024	-0,011
-192,460	-37,527	-0,111	0,043
-191,446	690,120	0,069	0,131
-190,431	21,519	0,091	0,053
-189,417	185,925	0,042	0,045
-188,402	588,801	-0,039	-0,070
-187,387	712,272	0,060	-0,115
-186,373	355,186	0,092	0,132
-185,358	40,457	0,064	-0,041
-184,344	800,000	0,027	0,079
-183,329	800,000	-0,009	-0,018
-182,315	-83,114	-0,167	0,038
-181,300	70,839	-0,057	0,043
-180,285	800,000	-0,017	0,047
-179,271	120,781	-0,083	-0,074
-178,256	800,000	0,043	-0,112
-177,242	-157,332	0,105	-0,004
-176,227	249,643	-0,037	-0,046
-175,212	-100,601	-0,020	0,004
-174,198	800,000	0,015	0,045
-173,183	405,216	-0,003	-0,005
-172,169	-101,501	0,094	-0,016
-171,154	-152,432	-0,145	0,007
-170,139	19,038	0,131	-0,076
-169,125	9,222	-0,031	-0,017
-168,110	110,824	0,063	0,054
-167,096	-18,655	-0,036	-0,016
-166,081	66,102	-0,086	-0,063
-165,066	-172,680	-0,041	0,001
-164,052	-200,000	-0,016	0,218
-163,037	185,995	0,047	0,051
-162,023	-200,000	-0,015	-0,091
-161,008	167,667	0,152	0,156
-159,993	-200,000	-0,053	0,000
-158,979	-100,779	-0,135	-0,024
-157,964	352,527	0,049	-0,070
-156,950	-50,893	-0,033	-0,011
-155,935	-29,119	0,046	-0,019
-154,920	-143,027	-0,046	-0,003
-153,906	-200,000	0,015	0,071
-152,891	33,328	0,042	0,026
-151,877	10,251	-0,080	0,044
-150,862	282,229	-0,090	-0,116
-149,847	800,000	0,031	0,088
-148,833	-196,660	0,059	-0,000
-147,818	106,177	0,077	0,066
-146,804	-76,332	-0,094	0,024
-145,789	16,502	-0,077	-0,044
-144,775	-114,030	-0,208	-0,029
-143,760	-200,000	0,017	-0,096
-142,745	-92,168	-0,121	-0,024
-141,731	-52,695	0,114	0,038
-140,716	-101,847	0,080	0,014
-139,702	-90,090	-0,107	0,022
-138,687	7,963	-0,111	0,060
-137,672	-51,784	-0,075	-0,025
-136,658	197,166	-0,068	-0,075
-135,643	-122,286	-0,066	-0,008
-134,629	-41,473	0,097	-0,036
-133,614	-200,000	-0,008	0,093
-132,599	-31,363	0,187	-0,075
-131,585	-83,290	0,080	0,018
-130,570	-200,000	-0,011	0,149
-129,556	319,680	-0,091	-0,125
-128,541	800,000	0,059	-0,134
-127,526	73,560	-0,070	0,052
-126,512	-21,069	-0,040	0,018
-125,497	216,297	0,049	0,056
-124,483	-200,000	0,023	0,112
-123,468	-66,326	-0,020	-0,006
-122,453	-200,000	-0,018	0,186
-121,439	7,133	-0,143	-0,076
-120,424	-29,711	-0,112	-0,046
-119,410	-200,000	0,008	0,130
-118,395	-200,000	0,030	0,103
-117,380	-200,000	-0,007	0,053
-116,366	-97,579	0,031	0,006
-115,351	-200,000	0,013	0,137
-114,337	-94,800	-0,187	0,036
-113,322	798,238	-0,018	0,037
-112,307	800,000	0,042	0,095
-111,293	49,527	0,049	0,033
-110,278	671,231	0,055	0,104
-109,264	800,000	0,031	0,068
-108,249	800,000	0,034	0,084
-107,234	800,000	0,065	-0,181
-106,220	120,798	-0,090	-0,081
-105,205	-46,021	-0,077	0,027
-104,191	800,000	0,021	0,053
-103,176	-82,594	0,048	-0,011
-102,162	49,584	0,105	-0,071
-101,147	-44,177	-0,148	-0,053
-100,132	-200,000	-0,015	0,111
-99,118	800,000	0,012	-0,033
-98,103	-135,239	-0,114	0,010
-97,089	-115,764	0,091	0,012
-96,074	800,000	0,019	-0,049
-95,059	800,000	-0,008	0,017
-94,045	-123,465	-0,206	-0,023
-93,030	214,393	0,059	-0,067
-92,016	16,062	-0,060	-0,034
-91,001	594,503	-0,051	0,091
-89,986	800,000	-0,022	-0,068
-88,972	24,461	-0,089	0,053
-87,957	209,920	-0,066	-0,075
-86,943	-188,207	-0,034	-0,000
-85,928	-141,121	-0,031	0,002
-84,913	34,180	-0,032	-0,020
-83,899	-21,265	0,045	-0,020
-82,884	647,578	0,044	0,082
-81,870	18,436	0,061	-0,035
-80,855	800,000	0,002	0,005
-79,840	-200,000	-0,007	0,031
-78,826	-115,659	-0,085	0,011
-77,811	-200,000	0,006	-0,089
-76,797	-2,825	-0,053	-0,026
-75,782	-200,000	0,026	0,123
-74,767	-5,461	0,185	0,091
-73,753	-111,985	-0,021	0,003
-72,738	-126,516	0,068	-0,007
-71,724	-200,000	0,010	0,041
-70,709	-200,000	-0,010	-0,061
-69,694	284,160	0,037	-0,047
-68,680	130,766	-0,080	0,073
-67,665	-192,130	0,057	-0,000
-66,651	-200,000	0,024	-0,132
-65,636	-75,819	-0,149	-0,038
-64,622	-6,362	-0,048	-0,023
-63,607	-200,000	0,000	-0,185
-62,592	-161,456	-0,155	0,006
-61,578	-200,000	0,017	0,111
-60,563	-187,215	0,116	0,001
-59,549	204,473	-0,065	0,072
-58,534	6,953	-1,852	-0,988
-57,519	800,000	-0,442	-1,069
-56,505	-200,000	-1,191	-4,923
-55,490	66,740	0,813	0,593
-54,476	800,000	5,200	11,945
-53,461	-200,000	17,800	284,631
-52,446	800,000	728,021	2217,370
-51,432	535,147	1643,737	2809,002
-50,417	109,981	1633,869	1406,951
-49,403	75,587	1286,205	973,976
-48,388	32,057	1027,404	634,304
-47,373	20,151	989,622	571,708
-46,359	18,494	977,256	559,109
-45,344	15,622	973,344	547,450
-44,330	15,906	971,942	547,569
-43,315	15,346	970,175	544,722
-42,300	15,375	968,889	544,072
-41,286	15,258	968,072	543,212
-40,271	15,298	966,854	542,637
-39,257	15,258	966,146	542,087
-38,242	15,374	965,161	541,890
-37,227	15,391	964,310	541,445
-36,213	15,330	963,645	540,853
-35,198	15,281	962,751	540,171
-34,184	15,376	962,034	540,055
-33,169	15,298	960,900	539,146
-32,154	15,319	960,059	538,719
-31,140	15,336	959,157	538,248
-30,125	15,417	958,305	538,008
-29,111	15,389	957,491	537,440
-28,096	15,358	956,824	536,946
-27,082	15,328	956,225	536,492
-26,067	15,387	955,463	536,232
-25,052	15,351	954,686	535,659
-24,038	15,399	954,029	535,422
-23,023	15,329	953,485	534,870
-22,009	15,357	952,727	534,514
-20,994	15,341	952,340	534,225
-19,979	15,370	951,421	533,781
-18,965	15,339	951,043	533,450
-17,950	15,292	950,373	532,901
-16,936	15,291	949,626	532,460
-15,921	15,332	948,865	532,143
-14,906	15,235	948,307	531,499
-13,892	15,241	947,516	531,054
-12,877	15,233	946,938	530,684
-11,863	15,203	946,227	530,168
-10,848	15,221	945,690	529,904
-9,833	15,288	945,359	529,910
-8,819	15,289	944,648	529,492
-7,804	15,264	944,077	529,071
-6,790	15,239	943,450	528,621
-5,775	15,315	942,865	528,512
-4,760	15,299	942,183	528,058
-3,746	15,290	941,590	527,676
-2,731	15,071	940,933	526,595
-1,717	15,066	940,243	526,173
-0,702	15,079	939,388	525,715
0,313	14,884	938,911	525,623
1,327	18,074	936,714	534,397
2,342	26,824	793,959	476,137
3,356	23,306	459,567	270,188
4,371	-3,764	315,448	156,575
5,386	-7,717	297,244	143,510
6,400	-9,605	291,017	138,611
7,415	-10,070	288,805	137,085
8,429	-10,241	287,239	136,162
9,444	-10,448	286,366	135,533
10,459	-10,286	285,691	135,359
11,473	-10,124	284,912	135,137
12,488	-10,225	284,723	134,937
13,502	-10,330	284,184	134,566
14,517	-10,180	283,829	134,533
15,531	-10,225	283,272	134,212
16,546	-10,062	282,879	134,173
17,561	-10,087	282,405	133,912
18,575	-10,143	282,066	133,685
19,590	-10,269	281,859	133,453
20,604	-10,120	281,513	133,421
21,619	-10,150	281,056	133,164
22,634	-9,980	280,749	133,169
23,648	-10,278	280,636	132,818
24,663	-10,211	280,318	132,720
25,677	-10,010	279,997	132,748
26,692	-10,061	279,626	132,512
27,707	-10,065	279,351	132,366
28,721	-10,136	279,100	132,168
29,736	-10,048	278,836	132,115
30,750	-10,052	278,630	132,002
31,765	-10,071	278,268	131,800
32,780	-10,168	278,084	131,609
33,794	-10,047	277,786	131,571
34,809	-10,050	277,507	131,425
35,823	-10,027	277,307	131,340
36,838	-10,150	277,138	131,132
37,853	-10,124	276,782	130,976
38,867	-10,176	276,569	130,815
39,882	-10,159	276,420	130,749
40,896	-10,302	276,231	130,513
41,911	-10,187	275,802	130,406
42,926	-10,172	275,599	130,312
43,940	-10,184	275,314	130,156
44,955	-10,160	275,155	130,091
45,969	-10,407	274,929	129,741
46,984	-10,425	274,607	129,560
47,999	-10,566	274,376	129,308
49,013	-10,470	273,943	129,183
50,028	-10,542	273,710	128,993
51,042	-10,669	273,478	128,754
52,057	-10,735	273,225	128,562
53,071	-10,698	273,094	128,523
54,086	-10,643	272,966	128,503
55,101	-10,554	272,862	128,525
56,115	-10,273	272,501	128,605
57,130	-10,190	272,542	128,690
58,144	-10,029	272,129	128,633
59,159	-10,045	271,985	128,538
60,174	-10,071	271,791	128,411
61,188	-10,228	271,732	128,226
62,203	-10,042	271,374	128,218
63,217	-10,132	271,120	128,003
64,232	-10,241	271,119	127,891
65,247	-9,978	270,683	127,916
66,261	-9,962	270,294	127,736
67,276	-10,210	270,125	127,416
68,290	-10,250	269,847	127,237
69,305	-10,409	269,697	127,009
70,320	-10,412	269,326	126,820
71,334	-10,226	269,362	126,997
72,349	-10,079	269,088	126,991
73,363	-10,129	268,961	126,874
74,378	-10,000	268,673	126,844
75,393	-10,163	268,414	126,562
76,407	-10,011	268,309	126,640
77,422	-10,083	268,167	126,496
78,436	-10,081	267,768	126,299
79,451	-10,037	267,579	126,238
80,466	-10,106	267,367	126,064
81,480	-10,157	267,153	125,906
82,495	-10,155	266,962	125,806
83,509	-10,367	266,816	125,534
84,524	-10,290	266,749	125,561
85,539	-10,150	266,161	125,399
86,553	-10,352	266,040	125,148
87,568	-10,179	265,898	125,227
88,582	-10,304	265,723	125,020
89,597	-10,294	265,543	124,933
90,611	-10,232	265,322	124,875
91,626	-10,125	265,277	124,939
92,641	-10,198	265,043	124,751
93,655	-10,100	264,788	124,709
94,670	-9,967	264,381	124,625
95,684	-10,201	264,299	124,365
96,699	-10,217	264,262	124,323
97,714	-10,087	263,849	124,234
98,728	-10,351	263,661	123,898
99,743	-10,314	263,377	123,786
100,757	-10,358	263,322	123,710
101,772	-10,134	263,118	123,803
102,787	-10,255	262,923	123,593
103,801	-10,292	262,748	123,466
104,816	-10,128	262,618	123,541
105,830	-10,088	262,486	123,503
106,845	-10,108	262,165	123,323
107,860	-10,239	261,978	123,108
108,874	-10,342	261,904	122,971
109,889	-10,053	261,512	123,032
110,903	-10,166	261,312	122,827
111,918	-10,249	261,200	122,689
112,933	-10,408	261,208	122,541
113,947	-10,040	260,869	122,697
114,962	-10,079	260,644	122,546
115,976	-10,003	260,427	122,500
116,991	-10,265	260,205	122,154
118,006	-10,150	260,039	122,166
119,020	-10,156	259,919	122,094
120,035	-9,993	259,752	122,148
121,049	-9,936	259,657	122,142
122,064	-9,952	259,361	121,978
123,079	-10,165	259,138	121,675
124,093	-10,201	258,930	121,535
125,108	-10,274	258,704	121,354
126,122	-10,473	258,440	121,045
127,137	-10,591	258,187	120,812
128,151	-10,261	258,061	121,031
129,166	-10,253	257,863	120,935
130,181	-10,349	257,638	120,735
131,195	-10,512	257,412	120,476
132,210	-10,369	257,358	120,565
133,224	-10,080	257,062	120,667
134,239	-10,164	256,876	120,495
135,254	-9,978	256,728	120,577
136,268	-10,161	256,597	120,346
137,283	-10,344	256,232	120,005
138,297	-10,338	255,938	119,862
139,312	-10,579	255,849	119,601
140,327	-10,320	255,722	119,754
141,341	-9,975	255,620	119,995
142,356	-10,013	255,437	119,866
143,370	-9,950	255,323	119,856
144,385	-9,983	255,144	119,732
145,400	-10,088	255,009	119,568
146,414	-9,825	254,679	119,629
147,429	-9,710	254,487	119,627
148,443	-9,765	254,471	119,561
149,458	-9,888	254,260	119,347
150,473	-10,181	254,035	118,978
151,487	-9,975	253,756	119,014
152,502	-10,011	253,675	118,935
153,516	-9,953	253,590	118,934
154,531	-9,772	253,126	118,860
155,546	-9,995	253,089	118,642
156,560	-10,003	252,971	118,568
157,575	-10,018	252,594	118,368
158,589	-10,192	252,645	118,233
159,604	-9,948	252,280	118,260
160,619	-9,773	252,165	118,344
161,633	-9,931	252,019	118,131
162,648	-9,748	251,928	118,233
163,662	-9,845	251,721	118,043
164,677	-9,821	251,585	117,989
165,692	-9,870	251,362	117,833
166,706	-9,806	251,258	117,828
167,721	-9,824	250,876	117,623
168,735	-9,977	250,834	117,463
169,750	-9,981	250,813	117,440
170,764	-9,881	250,665	117,444
171,779	-9,951	250,408	117,254
172,794	-9,842	250,178	117,228
173,808	-9,984	249,933	116,983
174,823	-10,375	249,728	116,547
175,837	-10,563	249,527	116,285
176,852	-10,175	249,504	116,591
177,867	-10,104	249,424	116,602
178,881	-9,735	249,190	116,792
179,896	-9,897	248,948	116,532
180,910	-9,865	248,893	116,523
181,925	-9,988	248,746	116,341
182,940	-9,889	248,552	116,323
183,954	-9,945	248,297	116,146
184,969	-9,928	248,227	116,117
185,983	-9,946	248,161	116,061
186,998	-9,834	247,914	116,029
188,013	-9,699	247,713	116,037
189,027	-9,933	247,443	115,705
190,042	-9,737	247,208	115,749
191,056	-9,961	247,032	115,469
192,071	-9,856	246,865	115,469
193,086	-10,024	246,782	115,279
194,100	-10,069	246,688	115,188
195,115	-9,944	246,624	115,252
196,129	-9,936	246,291	115,092
197,144	-10,146	246,091	114,814
198,159	-10,015	245,917	114,831
199,173	-9,765	245,537	114,850
200,188	-10,025	245,472	114,595
201,202	-10,080	245,222	114,423
202,217	-10,370	244,944	114,043
203,232	-10,389	244,764	113,934
204,246	-10,029	244,703	114,191
205,261	-9,896	244,485	114,189
206,275	-11,009	244,077	113,075
207,290	-7,665	245,749	116,603
208,304	0,251	248,173	124,331
209,319	3,928	248,935	127,759
210,334	4,321	249,181	128,200
211,348	4,829	248,821	128,425
212,363	4,825	248,860	128,431
213,377	4,994	248,852	128,555
214,392	4,788	248,570	128,228
215,407	4,695	248,205	127,951
216,421	4,632	248,219	127,894
217,436	5,045	248,129	128,179
218,450	5,226	247,886	128,191
219,465	4,746	247,604	127,637
220,480	4,359	247,556	127,282
221,494	4,577	247,307	127,323
222,509	4,413	247,227	127,135
223,523	4,503	246,924	127,042
224,538	4,003	246,714	126,511
225,553	4,208	246,619	126,620
226,567	4,264	246,466	126,576
227,582	4,339	246,425	126,605
228,596	4,498	246,017	126,515
229,611	4,148	245,854	126,133
230,626	3,869	245,758	125,844
231,640	4,291	245,465	126,028
232,655	4,324	245,406	126,013
233,669	4,258	245,244	125,865
234,684	3,965	245,055	125,518
235,699	4,450	244,981	125,864
236,713	4,682	244,792	125,945
237,728	4,221	244,693	125,508
238,742	4,185	244,415	125,324
239,757	4,187	244,262	125,236
240,772	4,044	244,124	125,038
241,786	4,200	243,985	125,082
242,801	4,278	243,828	125,054
243,815	4,176	243,653	124,870
244,830	4,164	243,618	124,832
245,844	4,369	243,368	124,858
246,859	3,980	243,319	124,507
247,874	4,227	243,068	124,567
248,888	4,130	242,959	124,422
249,903	4,250	242,782	124,417
250,917	4,386	242,730	124,489
251,932	4,582	242,543	124,540
252,947	4,604	242,211	124,377
253,961	4,234	242,119	124,020
254,976	4,184	241,993	123,904
255,990	4,476	241,821	124,040
257,005	4,003	241,712	123,593
258,020	4,026	241,428	123,455
259,034	4,141	241,166	123,402
260,049	4,405	241,177	123,608
261,063	4,027	240,957	123,182
262,078	4,132	240,823	123,187
263,093	4,459	240,744	123,397
264,107	4,329	240,557	123,186
265,122	4,121	240,403	122,930
266,136	4,124	240,332	122,886
267,151	4,564	240,269	123,193
268,166	4,082	239,930	122,624
269,180	3,917	239,870	122,451
270,195	4,563	239,867	122,953
271,209	4,864	239,762	123,128
272,224	4,032	239,369	122,254
273,239	3,909	239,094	122,005
274,253	3,992	238,951	121,987
275,268	4,301	238,889	122,189
276,282	4,262	238,785	122,095
277,297	4,010	238,590	121,785
278,312	4,039	238,523	121,763
279,326	4,085	238,419	121,735
280,341	4,396	238,098	121,806
281,355	4,165	238,024	121,575
282,370	4,386	237,775	121,611
283,384	4,179	237,588	121,341
284,399	4,042	237,414	121,133
285,414	3,945	237,298	120,988
286,428	4,214	237,128	121,101
287,443	4,127	236,899	120,905
288,457	4,344	236,896	121,064
289,472	4,488	236,837	121,136
290,487	4,255	236,657	120,850
291,501	4,162	236,290	120,579
292,516	4,006	236,237	120,419
293,530	3,780	236,185	120,205
294,545	4,224	236,095	120,496
295,560	4,272	235,761	120,353
296,574	4,107	235,533	120,096
297,589	4,073	235,632	120,109
298,603	4,430	235,549	120,334
299,618	4,435	235,341	120,222
300,633	4,350	235,345	120,147
301,647	4,346	235,157	120,037
302,662	4,616	235,056	120,185
303,676	4,546	234,788	119,983
304,691	4,352	234,704	119,778
305,706	4,795	234,594	120,055
306,720	4,656	234,490	119,883
307,735	4,568	234,114	119,613
308,749	4,215	233,908	119,224
309,764	4,322	233,604	119,141
310,779	4,033	233,501	118,854
311,793	3,876	233,357	118,650
312,808	3,989	233,307	118,701
313,822	3,877	233,127	118,512
314,837	3,879	232,953	118,415
315,852	3,712	232,682	118,138
316,866	4,055	232,705	118,403
317,881	4,566	232,661	118,763
318,895	4,814	232,557	118,889
319,910	4,754	232,363	118,734
320,925	4,250	232,094	118,199
321,939	3,725	231,838	117,657
322,954	3,948	231,800	117,797
323,968	4,142	231,744	117,907
324,983	4,498	231,642	118,117
325,997	4,643	231,514	118,152
327,012	4,549	231,262	117,940
328,027	4,195	231,146	117,601
329,041	4,495	231,303	117,900
330,056	4,962	231,104	118,144
331,070	5,034	230,998	118,134
332,085	4,620	230,737	117,675
333,100	4,528	230,421	117,433
334,114	4,504	230,281	117,333
335,129	4,572	230,143	117,303
336,143	4,757	230,151	117,438
337,158	4,688	229,977	117,286
338,173	4,346	229,686	116,869
339,187	4,275	229,596	116,759
340,202	4,390	229,531	116,802
341,216	4,283	229,294	116,590
342,231	4,193	229,073	116,399
343,246	4,155	228,952	116,299
344,260	4,521	228,832	116,503
345,275	4,522	228,858	116,507
346,289	4,558	228,798	116,493
347,304	4,645	228,552	116,423
348,319	4,706	228,461	116,412
349,333	4,475	228,166	116,078
350,348	4,292	227,966	115,829
351,362	4,273	227,862	115,751
352,377	4,141	227,536	115,476
353,392	4,014	227,396	115,299
354,406	3,788	227,160	115,001
355,421	195,629	1321,807	1399,137
356,435	156,849	1455,166	1399,129
