DTS Sentinel unit serial number:	SN410029Multiplexer serial number:	ORYXHardware model number:	OX2-SRSoftware version number:	ORYX F/W v4,00 Oryx Data Collector v3.7.2.0data status	okinstallation	B5 Nyhavnadifferential loss correction	single-endedforward channel	channel 2reverse channel	N/Adate	2023/12/12time	00:42:13forward acquisition time	300,00reverse acquisition time	0,00gamma	499,1914k internal	0,3156k external	0,3156temperature offset calibration	1,0000default loss term (dB/km)	0,3820temperature slope calibration	1,0000multiplexer offset coefficient	1,0000multiplexer slope coefficient	1,0000fibre end	0,00T internal ref (°C)	16,06T ext. ref 1 (°C)	-0,38T ext. ref 2 (°C)	-0,68length (m)	temperature (°C)	Stokes	anti-Stokes-744,400	-119,860	0,038	0,005
-743,385	-90,614	-0,144	-0,030
-742,371	-123,738	0,237	-0,027
-741,356	-109,374	-0,252	-0,039
-740,342	67,490	0,054	0,040
-739,327	-30,080	-0,288	0,120
-738,312	-200,000	0,023	0,083
-737,298	-169,675	-0,317	0,008
-736,283	732,621	0,064	0,127
-735,269	-58,687	-0,298	-0,094
-734,254	87,350	0,096	0,078
-733,239	-34,433	-0,412	-0,166
-732,225	339,966	0,118	0,170
-731,210	-44,593	0,149	0,055
-730,196	450,410	-0,018	0,029
-729,181	356,642	-0,029	-0,043
-728,167	99,044	-0,096	-0,082
-727,152	-22,116	0,065	-0,029
-726,137	265,568	-0,107	-0,138
-725,123	5,590	-0,151	-0,082
-724,108	-128,168	-0,139	0,014
-723,094	-200,000	0,015	-0,195
-722,079	161,874	0,053	-0,055
-721,064	56,061	-0,094	-0,067
-720,050	192,849	0,032	-0,036
-719,035	-200,000	0,035	0,118
-718,021	128,447	-0,110	-0,104
-717,006	587,150	-0,075	-0,137
-715,991	-200,000	-0,005	-0,070
-714,977	-130,195	0,014	-0,001
-713,962	-31,590	0,028	-0,011
-712,948	10,705	-0,066	-0,037
-711,933	215,697	0,034	0,039
-710,918	-200,000	0,009	0,030
-709,904	52,849	-0,120	-0,085
-708,889	-200,000	0,014	0,076
-707,875	800,000	0,031	-0,063
-706,860	-200,000	-0,005	0,060
-705,845	-81,164	-0,055	0,013
-704,831	215,258	0,037	0,043
-703,816	67,730	-0,105	-0,079
-702,802	-81,489	-0,184	-0,044
-701,787	136,780	-0,119	-0,114
-700,772	-8,740	-0,109	-0,053
-699,758	85,142	-0,077	-0,062
-698,743	-31,027	0,067	-0,028
-697,729	-200,000	-0,039	-0,136
-696,714	-2,639	-0,149	-0,076
-695,699	-200,000	-0,002	0,018
-694,685	800,000	-0,019	0,053
-693,670	-200,000	-0,019	-0,112
-692,656	-200,000	0,017	-0,208
-691,641	364,508	0,041	-0,060
-690,627	60,556	0,045	0,032
-689,612	-200,000	0,007	-0,054
-688,597	178,299	-0,077	0,083
-687,583	800,000	-0,066	-0,159
-686,568	453,133	0,079	-0,129
-685,554	691,675	-0,078	-0,151
-684,539	367,086	0,014	0,021
-683,524	800,000	-0,002	-0,006
-682,510	84,330	-0,079	0,064
-681,495	-200,000	0,008	-0,116
-680,481	94,438	0,021	0,017
-679,466	366,844	-0,011	-0,016
-678,451	-102,030	0,061	0,011
-677,437	-14,579	-0,084	0,039
-676,422	105,009	0,054	0,047
-675,408	800,000	0,041	0,106
-674,393	58,566	-0,093	0,067
-673,378	182,282	-0,108	-0,117
-672,364	800,000	0,032	-0,068
-671,349	-32,138	-0,126	0,052
-670,335	-200,000	0,031	-0,170
-669,320	49,385	-0,048	-0,033
-668,305	-45,134	-0,140	0,051
-667,291	-16,796	0,032	-0,015
-666,276	-200,000	-0,016	0,105
-665,262	-32,122	-0,178	-0,073
-664,247	101,583	0,058	0,050
-663,232	-136,092	-0,110	-0,009
-662,218	-128,256	-0,031	0,003
-661,203	-200,000	-0,026	-0,110
-660,189	614,653	-0,059	0,109
-659,174	-98,665	0,113	0,021
-658,159	-97,639	-0,149	0,028
-657,145	212,152	-0,054	-0,063
-656,130	-200,000	-0,007	-0,067
-655,116	-151,154	0,029	-0,002
-654,101	-58,471	-0,030	0,010
-653,086	-76,038	0,139	0,036
-652,072	-52,885	0,050	-0,017
-651,057	800,000	-0,051	-0,147
-650,043	800,000	0,013	-0,035
-649,028	77,206	0,060	-0,047
-648,014	-129,532	-0,035	0,004
-646,999	-104,600	0,133	-0,022
-645,984	-200,000	-0,002	0,012
-644,970	265,227	-0,087	-0,112
-643,955	800,000	-0,054	-0,118
-642,941	-46,983	0,101	0,036
-641,926	91,612	0,043	0,035
-640,911	-200,000	0,023	-0,081
-639,897	209,245	-0,067	0,077
-638,882	-63,132	0,052	0,016
-637,868	800,000	-0,083	-0,202
-636,853	-89,591	-0,186	-0,040
-635,838	43,616	-0,075	-0,050
-634,824	534,903	0,046	-0,081
-633,809	-200,000	-0,012	-0,055
-632,795	197,869	0,038	0,043
-631,780	301,828	0,074	0,101
-630,765	800,000	0,012	-0,027
-629,751	221,965	0,133	-0,157
-628,736	-83,857	-0,067	-0,016
-627,722	-85,665	0,100	0,023
-626,707	-85,880	-0,055	-0,012
-625,692	-200,000	-0,016	-0,053
-624,678	-122,834	0,078	-0,009
-623,663	-200,000	-0,001	-0,031
-622,649	-94,796	-0,029	0,006
-621,634	-95,132	0,111	0,022
-620,619	199,505	-0,024	0,027
-619,605	219,108	0,023	0,027
-618,590	31,511	-0,054	0,034
-617,576	-137,072	-0,111	-0,009
-616,561	-87,211	-0,077	0,017
-615,546	-200,000	0,036	-0,151
-614,532	-200,000	-0,021	-0,146
-613,517	491,799	-0,107	-0,181
-612,503	-200,000	0,000	0,061
-611,488	601,085	-0,084	0,154
-610,474	120,749	-0,036	-0,033
-609,459	-56,708	-0,053	-0,017
-608,444	-56,662	0,136	-0,044
-607,430	-200,000	-0,009	0,086
-606,415	-110,406	0,090	-0,014
-605,401	-200,000	-0,009	-0,033
-604,386	133,755	-0,064	-0,061
-603,371	140,464	-0,104	-0,100
-602,357	-56,735	0,014	-0,004
-601,342	5,863	-0,051	0,027
-600,328	-200,000	0,010	-0,037
-599,313	-150,101	-0,139	-0,008
-598,298	402,667	-0,073	-0,113
-597,284	-200,000	-0,008	0,128
-596,269	175,673	-0,079	0,085
-595,255	-60,756	0,114	0,035
-594,240	130,505	0,052	-0,049
-593,225	113,239	-0,031	0,028
-592,211	-14,995	-0,117	0,055
-591,196	-90,158	0,080	-0,017
-590,182	334,918	0,052	0,073
-589,167	-200,000	0,009	0,049
-588,152	273,163	-0,095	0,123
-587,138	515,768	-0,050	0,085
-586,123	-60,232	-0,053	-0,017
-585,109	458,887	0,082	-0,134
-584,094	800,000	-0,008	-0,020
-583,079	-137,796	0,050	-0,004
-582,065	59,307	0,064	0,046
-581,050	71,105	-0,016	0,012
-580,036	473,730	-0,067	-0,111
-579,021	-200,000	-0,007	0,111
-578,006	-76,359	-0,122	-0,031
-576,992	-168,194	-0,104	0,003
-575,977	-26,610	-0,153	-0,065
-574,963	-134,492	0,110	0,010
-573,948	800,000	0,030	0,083
-572,934	-16,307	0,117	-0,054
-571,919	344,578	-0,039	0,056
-570,904	134,572	0,064	0,061
-569,890	40,031	-0,184	0,121
-568,875	70,156	-0,063	0,048
-567,861	-130,349	0,133	0,013
-566,846	82,131	-0,043	0,034
-565,831	-200,000	-0,017	-0,056
-564,817	800,000	0,060	0,142
-563,802	-85,398	-0,121	0,027
-562,788	43,631	-0,089	-0,060
-561,773	91,452	0,011	-0,009
-560,758	-116,782	-0,159	-0,021
-559,744	-11,991	0,079	0,038
-558,729	67,200	0,080	0,060
-557,715	-55,486	-0,087	0,028
-556,700	-200,000	0,013	0,049
-555,685	-175,239	-0,026	0,001
-554,671	186,493	0,109	-0,119
-553,656	800,000	0,015	-0,033
-552,642	508,221	0,042	-0,071
-551,627	-175,119	-0,013	-0,000
-550,612	800,000	0,014	-0,046
-549,598	800,000	0,033	-0,095
-548,583	-60,459	-0,153	-0,047
-547,569	800,000	-0,038	-0,099
-546,554	388,147	0,028	-0,043
-545,539	37,544	0,031	0,020
-544,525	796,504	-0,012	0,024
-543,510	800,000	-0,049	0,153
-542,496	-74,996	-0,018	-0,005
-541,481	-200,000	0,040	-0,136
-540,466	-200,000	-0,018	-0,062
-539,452	-200,000	0,008	0,098
-538,437	-200,000	-0,009	0,054
-537,423	-200,000	-0,017	-0,132
-536,408	-116,765	-0,076	-0,010
-535,393	-71,500	-0,064	0,017
-534,379	222,283	0,102	-0,120
-533,364	-144,725	-0,121	-0,008
-532,350	-71,765	-0,062	-0,017
-531,335	-200,000	0,013	-0,084
-530,321	800,000	0,010	-0,023
-529,306	-18,425	-0,122	0,056
-528,291	-43,210	0,098	0,036
-527,277	28,559	-0,107	-0,066
-526,262	800,000	0,051	0,112
-525,248	800,000	-0,041	-0,106
-524,233	11,001	-0,064	0,036
-523,218	-20,003	0,054	-0,024
-522,204	-200,000	-0,008	-0,052
-521,189	-200,000	0,007	-0,048
-520,175	800,000	-0,039	-0,106
-519,160	102,035	0,085	-0,073
-518,145	96,212	-0,040	0,033
-517,131	-122,911	0,142	-0,017
-516,116	-200,000	-0,012	0,089
-515,102	-135,976	0,061	0,005
-514,087	156,548	-0,045	-0,045
-513,072	54,428	-0,122	-0,086
-512,058	-200,000	0,001	0,015
-511,043	-200,000	0,011	0,064
-510,029	-72,400	0,075	0,020
-509,014	175,835	0,011	-0,012
-507,999	21,478	0,092	0,055
-506,985	260,235	0,041	-0,052
-505,970	90,980	-0,069	-0,056
-504,956	218,261	-0,125	-0,146
-503,941	800,000	0,030	0,061
-502,926	-98,693	0,059	-0,011
-501,912	-29,368	-0,040	-0,017
-500,897	156,884	-0,065	-0,066
-499,883	507,500	-0,025	-0,043
-498,868	335,759	0,039	-0,055
-497,853	247,925	-0,051	0,063
-496,839	-115,851	-0,040	0,005
-495,824	-200,000	0,017	0,090
-494,810	-200,000	0,010	0,108
-493,795	800,000	0,008	-0,023
-492,781	-200,000	-0,013	-0,098
-491,766	333,089	0,012	0,017
-490,751	578,046	-0,065	-0,116
-489,737	31,226	0,102	0,064
-488,722	-36,690	0,038	0,015
-487,708	800,000	0,053	0,120
-486,693	-120,345	0,083	0,010
-485,678	-200,000	0,009	0,079
-484,664	-19,458	-0,048	-0,022
-483,649	-58,844	-0,082	-0,026
-482,635	349,193	-0,012	0,018
-481,620	29,764	-0,071	0,044
-480,605	-200,000	0,007	-0,028
-479,591	-37,602	-0,111	0,043
-478,576	-200,000	0,021	-0,074
-477,562	-200,000	0,029	-0,133
-476,547	-3,442	-0,099	-0,050
-475,532	193,622	0,050	0,055
-474,518	-104,458	0,147	0,025
-473,503	530,979	-0,090	-0,156
-472,489	307,437	0,030	-0,041
-471,474	-133,289	0,108	-0,010
-470,459	800,000	0,042	-0,115
-469,445	800,000	-0,032	-0,077
-468,430	-62,023	-0,098	-0,030
-467,416	-200,000	-0,004	-0,020
-466,401	138,294	0,039	0,038
-465,386	15,717	-0,036	0,021
-464,372	-84,824	-0,058	0,013
-463,357	419,148	0,039	-0,061
-462,343	-111,276	0,055	0,008
-461,328	-200,000	-0,001	-0,048
-460,313	-200,000	-0,003	-0,030
-459,299	-200,000	-0,024	0,135
-458,284	-200,000	-0,027	0,123
-457,270	154,104	0,063	0,063
-456,255	68,381	0,071	0,053
-455,241	92,503	-0,153	-0,126
-454,226	173,171	0,049	0,051
-453,211	108,861	0,029	-0,026
-452,197	-200,000	-0,001	0,057
-451,182	102,098	0,120	0,102
-450,168	-53,333	0,112	0,037
-449,153	494,735	0,069	0,116
-448,138	-200,000	-0,003	0,091
-447,124	67,295	-0,099	0,073
-446,109	-200,000	0,032	0,172
-445,095	185,751	-0,066	0,072
-444,080	83,403	0,024	0,019
-443,065	-21,790	0,132	0,058
-442,051	-32,532	-0,128	0,052
-441,036	800,000	0,047	-0,123
-440,022	80,875	-0,038	0,030
-439,007	-31,036	0,155	0,063
-437,992	132,542	-0,016	-0,015
-436,978	130,829	-0,107	0,100
-435,963	195,587	-0,058	0,064
-434,949	555,660	0,020	0,035
-433,934	800,000	-0,080	-0,204
-432,919	800,000	0,068	-0,145
-431,905	59,444	0,190	0,136
-430,890	-45,504	0,104	-0,037
-429,876	-200,000	0,012	0,046
-428,861	-130,876	0,013	-0,001
-427,846	-179,598	-0,218	-0,003
-426,832	-89,025	0,044	0,009
-425,817	-67,307	0,013	-0,004
-424,803	114,884	-0,040	-0,035
-423,788	-84,944	0,104	0,024
-422,773	438,348	-0,035	-0,056
-421,759	211,060	0,096	0,110
-420,744	189,107	0,049	0,053
-419,730	-65,537	0,050	0,015
-418,715	800,000	-0,024	-0,074
-417,701	-80,144	0,123	-0,030
-416,686	403,558	0,086	-0,132
-415,671	-79,251	0,134	-0,033
-414,657	-74,260	-0,120	0,031
-413,642	-200,000	0,032	-0,112
-412,628	-200,000	-0,005	0,029
-411,613	-114,354	0,143	-0,020
-410,598	-200,000	-0,002	-0,076
-409,584	641,358	0,079	0,147
-408,569	634,563	-0,043	0,080
-407,555	-147,197	0,091	0,006
-406,540	800,000	-0,014	-0,029
-405,525	0,565	-0,053	0,027
-404,511	-200,000	0,017	-0,095
-403,496	-18,130	-0,077	0,035
-402,482	51,088	0,056	-0,039
-401,467	55,956	0,048	0,034
-400,452	215,983	0,016	-0,018
-399,438	-3,040	0,097	0,049
-398,423	800,000	-0,016	-0,036
-397,409	-107,806	-0,163	0,026
-396,394	-200,000	-0,023	0,111
-395,379	-200,000	-0,003	0,142
-394,365	-30,012	0,161	0,066
-393,350	7,754	0,081	0,044
-392,336	497,538	-0,027	0,046
-391,321	341,280	0,054	0,077
-390,306	-37,147	-0,070	0,027
-389,292	-10,907	-0,031	-0,015
-388,277	-200,000	-0,002	0,056
-387,263	542,882	-0,016	0,029
-386,248	-200,000	-0,049	0,172
-385,233	18,941	-0,098	0,057
-384,219	-16,748	-0,014	-0,006
-383,204	239,540	0,072	-0,087
-382,190	130,258	-0,155	-0,144
-381,175	-58,426	0,025	-0,008
-380,160	163,399	0,063	0,065
-379,146	10,036	-0,043	-0,024
-378,131	-144,204	0,118	-0,008
-377,117	800,000	0,020	-0,047
-376,102	-34,176	-0,079	-0,032
-375,088	67,933	0,067	0,050
-374,073	28,251	-0,046	0,028
-373,058	-102,477	0,099	0,017
-372,044	402,495	0,067	0,103
-371,029	-128,967	0,099	-0,010
-370,015	279,118	0,121	-0,157
-369,000	-91,195	0,051	0,010
-367,985	800,000	0,012	-0,028
-366,971	800,000	-0,067	-0,185
-365,956	72,059	-0,041	-0,031
-364,942	-200,000	0,007	-0,048
-363,927	164,234	0,100	-0,102
-362,912	-200,000	-0,031	-0,118
-361,898	148,677	0,136	-0,134
-360,883	-200,000	-0,011	0,077
-359,869	-200,000	0,009	-0,112
-358,854	9,619	0,123	-0,067
-357,839	117,020	0,091	-0,082
-356,825	-89,657	0,022	-0,005
-355,810	-59,706	0,034	-0,010
-354,796	-22,221	-0,014	-0,006
-353,781	258,674	0,047	-0,059
-352,766	-200,000	0,004	0,073
-351,752	34,695	0,071	-0,045
-350,737	249,509	0,052	0,065
-349,723	20,863	0,053	-0,031
-348,708	-70,904	-0,134	-0,037
-347,693	-200,000	-0,034	0,135
-346,679	-143,807	-0,148	0,010
-345,664	381,926	0,030	-0,045
-344,650	800,000	-0,020	-0,047
-343,635	800,000	0,026	-0,061
-342,620	266,251	0,079	-0,100
-341,606	-200,000	0,016	0,065
-340,591	-45,926	-0,021	0,007
-339,577	-124,538	0,076	0,009
-338,562	-4,611	-0,081	0,040
-337,548	181,735	-0,033	-0,035
-336,533	-23,766	0,046	0,020
-335,518	-120,439	0,038	0,005
-334,504	-77,842	-0,073	0,018
-333,489	800,000	0,015	0,035
-332,475	-200,000	0,001	0,116
-331,460	-17,551	0,077	-0,035
-330,445	182,940	-0,100	-0,107
-329,431	294,534	-0,025	-0,033
-328,416	800,000	0,015	-0,044
-327,402	26,165	0,112	0,068
-326,387	177,631	0,023	0,024
-325,372	56,127	-0,040	-0,028
-324,358	300,459	0,060	-0,081
-323,343	576,135	0,070	0,124
-322,329	243,126	-0,055	0,067
-321,314	-49,348	-0,038	-0,013
-320,299	104,758	0,129	0,110
-319,285	800,000	-0,060	0,130
-318,270	407,181	0,045	-0,069
-317,256	800,000	-0,036	0,073
-316,241	-42,928	0,087	0,032
-315,226	-200,000	0,005	0,052
-314,212	800,000	0,018	0,046
-313,197	-200,000	-0,019	0,099
-312,183	-200,000	0,028	0,104
-311,168	189,795	0,078	0,085
-310,153	-200,000	0,019	0,077
-309,139	3,451	-0,156	0,082
-308,124	-143,718	0,083	-0,006
-307,110	71,323	-0,054	0,041
-306,095	282,590	0,126	0,164
-305,080	-200,000	0,023	-0,082
-304,066	-148,549	-0,074	0,004
-303,051	331,959	-0,060	0,085
-302,037	159,569	0,067	-0,068
-301,022	-34,623	0,055	0,022
-300,008	-200,000	0,011	0,122
-298,993	612,626	0,041	-0,074
-297,978	-200,000	-0,010	0,079
-296,964	83,686	-0,082	0,065
-295,949	89,484	0,041	0,033
-294,935	272,024	0,031	-0,039
-293,920	-104,808	0,053	0,009
-292,905	-200,000	-0,029	-0,103
-291,891	-11,516	-0,074	-0,035
-290,876	-170,150	0,100	-0,003
-289,862	139,464	0,051	0,048
-288,847	308,357	-0,107	-0,145
-287,832	51,135	-0,090	-0,062
-286,818	265,080	0,070	-0,089
-285,803	-157,416	0,070	0,003
-284,789	800,000	0,043	0,110
-283,774	189,463	0,094	-0,102
-282,759	6,010	-0,078	0,042
-281,745	-79,097	-0,073	-0,018
-280,730	-103,233	0,095	0,016
-279,716	-168,684	-0,063	0,002
-278,701	-200,000	0,003	-0,105
-277,686	800,000	-0,037	-0,079
-276,672	-148,748	0,045	-0,003
-275,657	-200,000	0,010	-0,124
-274,643	241,264	-0,063	0,077
-273,628	-108,942	-0,161	0,025
-272,613	290,280	0,038	0,050
-271,599	65,855	-0,032	0,024
-270,584	-200,000	-0,024	0,146
-269,570	-93,882	0,004	-0,001
-268,555	-115,160	-0,094	-0,013
-267,540	-123,349	-0,099	0,011
-266,526	-200,000	-0,008	0,036
-265,511	-87,507	-0,089	-0,019
-264,497	-2,820	0,094	0,047
-263,482	61,402	-0,061	0,044
-262,467	36,215	-0,018	0,012
-261,453	363,686	0,036	-0,052
-260,438	-200,000	-0,035	-0,127
-259,424	-142,212	-0,051	0,004
-258,409	-132,085	0,091	-0,008
-257,395	-200,000	-0,003	0,074
-256,380	-200,000	-0,004	0,046
-255,365	8,480	-0,012	0,006
-254,351	-163,323	0,143	0,005
-253,336	756,464	-0,037	0,073
-252,322	626,436	-0,061	0,111
-251,307	-200,000	0,001	0,068
-250,292	-120,601	0,058	0,007
-249,278	528,774	0,057	-0,098
-248,263	497,360	0,024	0,040
-247,249	480,518	0,040	-0,065
-246,234	-200,000	-0,027	-0,099
-245,219	-200,000	-0,004	-0,073
-244,205	-200,000	-0,008	-0,108
-243,190	12,982	0,216	0,121
-242,176	800,000	0,023	0,074
-241,161	271,135	-0,026	0,033
-240,146	-200,000	0,028	0,101
-239,132	277,826	-0,054	-0,069
-238,117	218,173	-0,045	-0,052
-237,103	298,214	-0,053	0,071
-236,088	47,107	0,044	-0,030
-235,073	-92,226	-0,064	-0,013
-234,059	147,251	0,042	0,041
-233,044	89,645	0,093	0,075
-232,030	54,101	0,042	0,029
-231,015	17,233	-0,173	-0,099
-230,000	-59,826	-0,143	-0,044
-228,986	800,000	-0,027	-0,080
-227,971	-14,508	0,043	0,020
-226,957	-75,328	0,080	0,020
-225,942	-91,542	-0,086	0,018
-224,927	125,562	0,068	0,062
-223,913	265,212	-0,013	-0,016
-222,898	47,457	-0,067	0,045
-221,884	443,034	-0,073	-0,117
-220,869	-18,901	0,097	0,044
-219,855	487,505	-0,046	0,076
-218,840	220,030	-0,076	0,088
-217,825	-69,686	-0,095	-0,026
-216,811	16,584	0,036	-0,021
-215,796	37,695	-0,099	-0,063
-214,782	800,000	0,050	0,144
-213,767	-12,483	-0,028	-0,013
-212,752	-114,181	0,069	0,009
-211,738	24,609	-0,070	-0,042
-210,723	800,000	-0,046	0,104
-209,709	-119,992	-0,166	0,020
-208,694	460,168	-0,098	-0,159
-207,679	-113,997	0,040	0,006
-206,665	-200,000	-0,097	0,000
-205,650	-200,000	0,009	0,109
-204,636	-159,030	0,221	-0,009
-203,621	64,176	-0,028	-0,021
-202,606	-9,739	-0,101	0,048
-201,592	154,752	0,154	-0,153
-200,577	236,211	-0,085	-0,101
-199,563	-78,742	0,019	0,005
-198,548	-200,000	0,000	0,009
-197,533	-25,247	0,126	-0,054
-196,519	-200,000	0,014	-0,096
-195,504	-200,000	0,009	-0,066
-194,490	-157,187	0,018	-0,001
-193,475	-106,808	-0,108	-0,017
-192,460	800,000	0,011	0,027
-191,446	-90,548	0,094	0,020
-190,431	466,113	-0,024	0,039
-189,417	88,084	-0,154	0,123
-188,402	-38,883	0,041	-0,015
-187,387	-185,191	-0,107	0,001
-186,373	-121,472	-0,085	0,010
-185,358	47,560	-0,153	-0,103
-184,344	800,000	-0,069	0,159
-183,329	1,322	-0,082	0,042
-182,315	123,625	0,106	-0,096
-181,300	41,415	-0,056	-0,037
-180,285	-152,372	-0,103	0,005
-179,271	-160,205	0,028	0,001
-178,256	126,396	-0,036	-0,033
-177,242	201,158	0,036	-0,040
-176,227	-86,205	-0,034	0,008
-175,212	-200,000	-0,006	-0,020
-174,198	14,009	-0,084	-0,047
-173,183	283,986	-0,049	0,064
-172,169	800,000	-0,051	-0,144
-171,154	-200,000	-0,016	-0,085
-170,139	165,161	-0,073	-0,075
-169,125	462,553	0,057	0,091
-168,110	-110,171	0,081	0,012
-167,096	-82,770	-0,050	-0,011
-166,081	72,553	0,037	-0,028
-165,066	632,069	-0,088	0,162
-164,052	-60,720	0,130	0,039
-163,037	-200,000	-0,022	0,099
-162,023	50,084	0,208	0,142
-161,008	629,723	0,007	-0,013
-159,993	800,000	0,044	0,117
-158,979	678,433	0,019	-0,035
-157,964	94,421	-0,050	0,041
-156,950	-43,036	0,105	0,038
-155,935	800,000	0,015	-0,034
-154,920	-200,000	0,012	-0,062
-153,906	-48,316	0,076	0,026
-152,891	-200,000	-0,004	-0,018
-151,877	-83,075	0,130	-0,030
-150,862	284,527	0,087	-0,113
-149,847	-21,391	0,068	-0,030
-148,833	30,935	-0,008	-0,005
-147,818	-200,000	0,041	0,267
-146,804	800,000	0,019	0,053
-145,789	118,863	0,023	-0,021
-144,775	-163,215	-0,039	-0,001
-143,760	-66,819	0,044	0,012
-142,745	175,607	0,021	-0,022
-141,731	800,000	-0,061	-0,160
-140,716	-122,719	0,063	0,007
-139,702	85,981	0,031	0,024
-138,687	-200,000	-0,010	-0,125
-137,672	-200,000	0,021	0,147
-136,658	546,279	0,032	-0,055
-135,643	103,987	-0,180	-0,152
-134,629	-40,750	-0,073	-0,027
-133,614	31,652	-0,047	0,029
-132,599	16,467	0,015	-0,009
-131,585	-95,808	0,079	0,015
-130,570	427,128	-0,012	0,018
-129,556	73,548	-0,069	0,052
-128,541	-200,000	0,008	-0,190
-127,526	-115,836	-0,069	-0,009
-126,512	244,995	0,094	0,114
-125,497	-32,374	0,104	-0,041
-124,483	773,566	0,050	0,098
-123,468	-31,069	-0,112	0,045
-122,453	-124,419	-0,056	-0,006
-121,439	-57,493	-0,099	-0,031
-120,424	80,908	-0,079	-0,062
-119,410	-200,000	-0,003	0,147
-118,395	-54,637	-0,102	-0,033
-117,380	-38,967	0,150	-0,057
-116,366	-73,902	0,042	-0,011
-115,351	-200,000	0,047	-0,171
-114,337	-200,000	-0,001	-0,055
-113,322	44,698	-0,036	-0,024
-112,307	800,000	-0,073	-0,184
-111,293	800,000	0,037	0,079
-110,278	-166,500	0,063	-0,002
-109,264	67,080	-0,089	-0,065
-108,249	-2,817	-0,102	-0,051
-107,234	800,000	0,018	-0,054
-106,220	454,390	0,041	-0,066
-105,205	800,000	0,033	-0,073
-104,191	-70,903	0,142	-0,038
-103,176	-106,565	-0,187	0,030
-102,162	42,390	0,138	0,090
-101,147	29,310	0,091	0,056
-100,132	-64,840	-0,082	-0,024
-99,118	800,000	0,028	-0,072
-98,103	-200,000	-0,118	0,000
-97,089	222,533	0,078	0,090
-96,074	-200,000	0,056	0,181
-95,059	-153,080	-0,129	-0,006
-94,045	1,020	-0,067	-0,034
-93,030	101,744	-0,029	-0,024
-92,016	-41,759	-0,062	0,023
-91,001	-130,521	0,048	0,005
-89,986	-157,291	0,048	-0,002
-88,972	-200,000	0,039	-0,156
-87,957	-37,572	0,055	-0,021
-86,943	168,984	0,084	0,086
-85,928	-33,326	-0,096	0,038
-84,913	177,064	0,015	0,016
-83,899	-12,408	0,030	-0,014
-82,884	-200,000	0,006	0,068
-81,870	-200,000	0,066	0,217
-80,855	195,744	0,077	0,085
-79,840	-200,000	-0,041	0,142
-78,826	180,836	0,099	-0,105
-77,811	-40,291	-0,109	-0,040
-76,797	-84,595	-0,025	0,006
-75,782	205,283	0,030	0,034
-74,767	177,942	0,087	0,091
-73,753	-171,899	-0,100	-0,002
-72,738	-200,000	-0,010	0,134
-71,724	800,000	0,021	-0,049
-70,709	606,223	0,067	-0,121
-69,694	-200,000	0,015	-0,084
-68,680	-200,000	-0,015	-0,136
-67,665	594,060	0,068	-0,121
-66,651	-200,000	-0,003	0,085
-65,636	112,314	0,060	0,052
-64,622	112,872	-0,037	-0,032
-63,607	90,370	-0,080	0,064
-62,592	109,852	-0,039	-0,033
-61,578	-117,709	0,051	0,006
-60,563	800,000	0,043	0,090
-59,549	-200,000	-0,003	0,077
-58,534	-2,510	-1,930	-0,967
-57,519	800,000	-0,382	-0,930
-56,505	-200,000	-1,283	-4,979
-55,490	44,277	0,723	0,475
-54,476	800,000	5,294	12,316
-53,461	-200,000	17,221	283,629
-52,446	800,000	722,215	2229,417
-51,432	545,393	1637,669	2821,308
-50,417	112,548	1630,996	1417,190
-49,403	76,599	1287,017	978,966
-48,388	33,144	1029,416	639,464
-47,373	20,391	991,337	573,690
-46,359	18,817	979,587	561,697
-45,344	16,397	975,506	551,398
-44,330	16,587	974,140	551,227
-43,315	16,128	972,230	548,620
-42,300	16,060	971,152	547,770
-41,286	16,089	970,094	547,246
-40,271	16,109	968,946	546,641
-39,257	16,108	968,117	546,148
-38,242	16,120	967,375	545,749
-37,227	16,141	966,454	545,276
-36,213	16,149	965,510	544,746
-35,198	16,039	964,900	544,024
-34,184	16,096	964,038	543,702
-33,169	16,065	963,109	543,056
-32,154	16,098	961,969	542,498
-31,140	16,079	961,236	542,001
-30,125	16,103	960,622	541,710
-29,111	16,120	959,671	541,208
-28,096	16,122	958,967	540,795
-27,082	16,099	958,479	540,425
-26,067	16,127	957,532	539,961
-25,052	16,114	956,852	539,515
-24,038	16,113	956,101	539,065
-23,023	16,066	955,439	538,521
-22,009	16,099	954,846	538,270
-20,994	16,079	954,430	537,950
-19,979	16,098	953,772	537,619
-18,965	16,124	953,035	537,266
-17,950	16,090	952,580	536,877
-16,936	16,059	951,874	536,361
-15,921	16,036	951,207	535,889
-14,906	15,977	950,484	535,271
-13,892	15,986	949,857	534,927
-12,877	15,951	949,136	534,387
-11,863	15,962	948,624	534,111
-10,848	15,993	947,996	533,837
-9,833	16,022	947,695	533,738
-8,819	16,012	946,865	533,218
-7,804	15,990	946,102	532,697
-6,790	15,918	945,630	532,181
-5,775	16,005	945,033	532,102
-4,760	16,064	944,346	531,882
-3,746	15,972	943,893	531,313
-2,731	15,836	943,107	530,418
-1,717	15,812	942,542	530,002
-0,702	15,848	941,796	529,675
0,313	15,680	941,185	529,601
1,327	18,836	938,948	538,255
2,342	27,801	796,519	480,422
3,356	24,551	460,452	272,715
4,371	-2,797	315,193	157,541
5,386	-6,832	296,729	144,208
6,400	-8,678	290,814	139,485
7,415	-9,166	288,453	137,857
8,429	-9,365	286,847	136,882
9,444	-9,487	285,928	136,312
10,459	-9,257	285,285	136,218
11,473	-9,278	284,570	135,844
12,488	-9,449	284,180	135,480
13,502	-9,472	283,629	135,183
14,517	-9,370	283,230	135,079
15,531	-9,477	282,765	134,742
16,546	-9,307	282,397	134,719
17,561	-9,395	281,986	134,426
18,575	-9,243	281,632	134,392
19,590	-9,161	281,230	134,267
20,604	-9,246	281,002	134,064
21,619	-9,412	280,688	133,743
22,634	-9,274	280,345	133,700
23,648	-9,345	280,118	133,512
24,663	-9,320	279,834	133,388
25,677	-9,342	279,656	133,271
26,692	-9,319	279,164	133,046
27,707	-9,275	279,020	133,007
28,721	-9,385	278,853	132,811
29,736	-9,290	278,369	132,659
30,750	-9,365	278,211	132,501
31,765	-9,487	278,012	132,278
32,780	-9,301	277,720	132,304
33,794	-9,357	277,477	132,124
34,809	-9,309	277,344	132,094
35,823	-9,303	276,938	131,895
36,838	-9,414	276,717	131,673
37,853	-9,579	276,567	131,434
38,867	-9,286	276,139	131,495
39,882	-9,342	276,107	131,415
40,896	-9,546	275,823	131,076
41,911	-9,456	275,455	130,975
42,926	-9,495	275,350	130,875
43,940	-9,434	275,058	130,782
44,955	-9,420	274,708	130,617
45,969	-9,485	274,594	130,491
46,984	-9,638	274,310	130,202
47,999	-9,742	274,043	129,965
49,013	-9,798	273,621	129,701
50,028	-9,954	273,363	129,423
51,042	-10,023	273,270	129,302
52,057	-10,234	273,089	129,008
53,071	-10,041	272,832	129,055
54,086	-9,881	272,572	129,070
55,101	-9,705	272,437	129,158
56,115	-9,711	272,354	129,101
57,130	-9,390	272,174	129,302
58,144	-9,186	271,802	129,303
59,159	-9,330	271,586	129,055
60,174	-9,400	271,673	129,020
61,188	-9,206	271,266	128,995
62,203	-9,317	271,001	128,755
63,217	-9,149	270,749	128,779
64,232	-9,363	270,535	128,468
65,247	-9,106	270,329	128,596
66,261	-9,304	270,082	128,284
67,276	-9,446	269,905	128,058
68,290	-9,507	269,689	127,889
69,305	-9,722	269,374	127,530
70,320	-9,690	269,215	127,473
71,334	-9,355	268,992	127,663
72,349	-9,249	268,810	127,662
73,363	-9,405	268,690	127,452
74,378	-9,223	268,344	127,442
75,393	-9,319	268,229	127,288
76,407	-9,220	268,021	127,269
77,422	-9,232	267,748	127,117
78,436	-9,469	267,630	126,833
79,451	-9,236	267,402	126,925
80,466	-9,341	267,019	126,637
81,480	-9,495	266,763	126,365
82,495	-9,362	266,550	126,374
83,509	-9,408	266,482	126,288
84,524	-9,369	266,155	126,158
85,539	-9,622	266,094	125,889
86,553	-9,648	265,699	125,667
87,568	-9,447	265,577	125,779
88,582	-9,587	265,443	125,578
89,597	-9,547	265,001	125,394
90,611	-9,396	265,156	125,592
91,626	-9,316	264,847	125,506
92,641	-9,259	264,626	125,442
93,655	-9,339	264,389	125,247
94,670	-9,411	264,179	125,071
95,684	-9,463	264,033	124,944
96,699	-9,451	263,936	124,898
97,714	-9,433	263,556	124,723
98,728	-9,448	263,351	124,602
99,743	-9,551	263,145	124,402
100,757	-9,611	263,035	124,285
101,772	-9,440	262,764	124,298
102,787	-9,286	262,537	124,317
103,801	-9,363	262,388	124,166
104,816	-9,374	262,321	124,114
105,830	-9,388	262,215	124,040
106,845	-9,316	261,885	123,937
107,860	-9,284	261,641	123,839
108,874	-9,371	261,468	123,669
109,889	-9,530	261,385	123,478
110,903	-9,250	261,026	123,545
111,918	-9,429	260,862	123,298
112,933	-9,377	260,700	123,256
113,947	-9,153	260,468	123,334
114,962	-9,253	260,268	123,140
115,976	-9,434	260,296	122,982
116,991	-9,480	259,982	122,782
118,006	-9,285	259,771	122,843
119,020	-9,421	259,667	122,664
120,035	-9,359	259,585	122,668
121,049	-9,290	259,291	122,579
122,064	-9,411	259,221	122,429
123,079	-9,514	258,934	122,192
124,093	-9,221	258,552	122,257
125,108	-9,534	258,324	121,865
126,122	-9,781	258,251	121,603
127,137	-9,787	257,987	121,463
128,151	-9,616	257,896	121,558
129,166	-9,544	257,642	121,491
130,181	-9,655	257,383	121,261
131,195	-9,694	257,233	121,146
132,210	-9,442	257,112	121,297
133,224	-9,562	257,081	121,167
134,239	-9,403	256,781	121,153
135,254	-9,288	256,627	121,170
136,268	-9,370	256,216	120,894
137,283	-9,532	256,187	120,729
138,297	-9,702	255,787	120,383
139,312	-9,725	255,676	120,299
140,327	-9,606	255,681	120,394
141,341	-9,211	255,513	120,646
142,356	-9,341	255,387	120,463
143,370	-9,137	255,224	120,552
144,385	-9,244	255,002	120,344
145,400	-9,147	254,774	120,309
146,414	-9,092	254,525	120,228
147,429	-9,294	254,443	120,005
148,443	-9,224	254,152	119,918
149,458	-9,027	254,086	120,045
150,473	-9,107	253,916	119,885
151,487	-9,178	253,565	119,648
152,502	-9,148	253,488	119,627
153,516	-9,034	253,236	119,595
154,531	-8,998	253,184	119,590
155,546	-9,227	253,026	119,309
156,560	-9,234	252,790	119,181
157,575	-9,138	252,539	119,134
158,589	-9,250	252,365	118,946
159,604	-9,074	252,113	118,966
160,619	-9,131	252,142	118,921
161,633	-9,265	251,978	118,719
162,648	-9,121	251,735	118,716
163,662	-9,061	251,598	118,692
164,677	-9,204	251,507	118,517
165,692	-9,261	251,152	118,291
166,706	-9,171	251,190	118,374
167,721	-9,062	250,913	118,326
168,735	-9,246	250,809	118,110
169,750	-9,036	250,488	118,126
170,764	-9,097	250,386	118,016
171,779	-8,980	250,181	118,007
172,794	-9,063	250,225	117,948
173,808	-9,257	249,849	117,597
174,823	-9,533	249,561	117,218
175,837	-9,708	249,288	116,932
176,852	-9,338	249,453	117,310
177,867	-9,211	249,315	117,341
178,881	-9,001	249,092	117,402
179,896	-9,088	248,973	117,263
180,910	-9,236	248,861	117,076
181,925	-8,945	248,435	117,109
182,940	-8,996	248,444	117,060
183,954	-8,980	248,135	116,917
184,969	-9,073	247,949	116,741
185,983	-8,970	247,814	116,753
186,998	-9,138	247,583	116,494
188,013	-9,083	247,470	116,476
189,027	-8,930	247,376	116,550
190,042	-9,029	247,079	116,317
191,056	-9,193	247,094	116,176
192,071	-9,051	246,807	116,149
193,086	-9,079	246,724	116,077
194,100	-9,253	246,508	115,820
195,115	-9,135	246,449	115,880
196,129	-8,981	246,145	115,855
197,144	-9,042	245,847	115,653
198,159	-9,105	245,646	115,496
199,173	-9,040	245,483	115,463
200,188	-9,114	245,396	115,351
201,202	-9,350	245,135	115,023
202,217	-9,625	244,842	114,649
203,232	-9,646	244,512	114,467
204,246	-9,404	244,545	114,671
205,261	-9,044	244,387	114,883
206,275	-9,920	243,982	113,963
207,290	-6,634	245,269	117,264
208,304	-0,195	247,246	123,538
209,319	2,403	248,105	126,112
210,334	3,012	248,036	126,571
211,348	3,238	248,037	126,747
212,363	3,600	248,001	127,017
213,377	3,521	247,784	126,830
214,392	3,625	247,617	126,819
215,407	3,429	247,360	126,514
216,421	3,392	247,091	126,335
217,436	3,524	247,238	126,508
218,450	3,640	247,041	126,491
219,465	3,344	246,807	126,116
220,480	3,116	246,642	125,832
221,494	3,246	246,352	125,781
222,509	3,483	246,191	125,881
223,523	3,345	246,108	125,715
224,538	2,929	245,673	125,141
225,553	2,649	245,636	124,881
226,567	3,007	245,542	125,116
227,582	3,080	245,352	125,068
228,596	3,204	245,180	125,070
229,611	2,897	245,037	124,735
230,626	3,017	244,807	124,705
231,640	2,893	244,691	124,533
232,655	3,214	244,566	124,720
233,669	3,033	244,404	124,478
234,684	2,761	244,242	124,164
235,699	3,195	244,346	124,559
236,713	3,637	244,103	124,784
237,728	3,192	243,661	124,186
238,742	3,111	243,472	124,012
239,757	2,801	243,442	123,734
240,772	3,122	243,222	123,871
241,786	3,124	243,073	123,786
242,801	2,992	242,816	123,538
243,815	2,727	242,716	123,261
244,830	3,136	242,807	123,627
245,844	3,210	242,533	123,537
246,859	2,970	242,397	123,262
247,874	2,917	242,203	123,110
248,888	3,010	242,030	123,087
249,903	3,045	241,903	123,039
250,917	3,247	241,745	123,110
251,932	3,379	241,614	123,138
252,947	3,258	241,609	123,028
253,961	2,898	241,348	122,595
254,976	3,260	241,041	122,718
255,990	3,367	241,028	122,786
257,005	2,943	240,773	122,306
258,020	2,782	240,461	122,008
259,034	2,740	240,565	122,016
260,049	3,060	240,392	122,173
261,063	3,039	240,188	122,042
262,078	2,740	240,070	121,732
263,093	3,123	239,935	121,959
264,107	3,384	239,700	122,036
265,122	2,917	239,592	121,598
266,136	3,070	239,459	121,642
267,151	3,402	239,316	121,823
268,166	2,994	239,054	121,354
269,180	2,961	238,851	121,215
270,195	3,457	238,900	121,622
271,209	3,744	238,894	121,835
272,224	3,065	238,537	121,104
273,239	2,652	238,327	120,661
274,253	2,712	238,053	120,558
275,268	2,999	238,117	120,807
276,282	3,178	237,874	120,814
277,297	2,876	237,625	120,439
278,312	2,916	237,523	120,408
279,326	3,075	237,489	120,505
280,341	3,078	237,292	120,397
281,355	3,021	237,176	120,282
282,370	3,217	237,102	120,389
283,384	3,146	236,867	120,202
284,399	2,723	236,723	119,786
285,414	3,105	236,444	119,934
286,428	3,037	236,303	119,799
287,443	3,179	236,137	119,815
288,457	3,154	236,185	119,809
289,472	3,259	235,924	119,749
290,487	3,154	235,668	119,525
291,501	2,980	235,478	119,282
292,516	2,853	235,440	119,153
293,530	2,679	235,239	118,906
294,545	3,235	235,050	119,233
295,560	3,053	235,107	119,109
296,574	2,875	234,793	118,801
297,589	2,926	234,640	118,753
298,603	3,359	234,635	119,076
299,618	3,303	234,490	118,948
300,633	3,225	234,266	118,764
301,647	3,331	234,254	118,829
302,662	3,522	234,182	118,930
303,676	3,535	233,869	118,771
304,691	3,536	233,850	118,752
305,706	3,443	233,642	118,564
306,720	3,402	233,553	118,476
307,735	3,306	233,285	118,255
308,749	3,132	233,177	118,056
309,764	3,021	233,020	117,880
310,779	2,948	232,704	117,653
311,793	2,757	232,609	117,447
312,808	2,684	232,435	117,293
313,822	2,704	232,185	117,172
314,837	2,698	232,117	117,122
315,852	2,732	231,989	117,073
316,866	3,125	231,929	117,335
317,881	3,260	231,877	117,401
318,895	3,368	231,657	117,362
319,910	3,469	231,633	117,417
320,925	3,459	231,222	117,191
321,939	2,982	231,209	116,808
322,954	3,132	231,066	116,841
323,968	2,988	231,043	116,709
324,983	2,983	230,661	116,501
325,997	2,968	230,608	116,452
327,012	3,255	230,333	116,523
328,027	3,264	230,379	116,542
329,041	3,660	230,318	116,802
330,056	4,005	230,225	117,007
331,070	3,931	230,017	116,834
332,085	3,500	229,615	116,293
333,100	3,303	229,487	116,068
334,114	3,309	229,420	116,029
335,129	3,355	229,431	116,059
336,143	3,222	229,394	115,929
337,158	3,669	229,095	116,106
338,173	3,515	228,952	115,906
339,187	3,499	228,778	115,796
340,202	3,505	228,621	115,710
341,216	3,341	228,426	115,478
342,231	3,230	228,290	115,315
343,246	3,438	228,094	115,363
344,260	3,378	228,072	115,296
345,275	3,570	227,939	115,363
346,289	3,538	227,835	115,276
347,304	3,607	227,872	115,336
348,319	3,762	227,568	115,289
349,333	3,682	227,246	115,055
350,348	3,145	227,261	114,650
351,362	3,413	227,141	114,780
352,377	3,304	226,891	114,561
353,392	3,324	226,525	114,381
354,406	3,140	226,560	114,252
355,421	195,637	1321,839	1399,670
356,435	156,839	1455,288	1399,681
