DTS Sentinel unit serial number:	SN410029Multiplexer serial number:	ORYXHardware model number:	OX2-SRSoftware version number:	ORYX F/W v4,00 Oryx Data Collector v3.7.2.0data status	okinstallation	B5 Nyhavnadifferential loss correction	single-endedforward channel	channel 2reverse channel	N/Adate	2023/12/14time	00:07:14forward acquisition time	300,00reverse acquisition time	0,00gamma	499,1914k internal	0,3155k external	0,3155temperature offset calibration	1,0000default loss term (dB/km)	0,3820temperature slope calibration	1,0000multiplexer offset coefficient	1,0000multiplexer slope coefficient	1,0000fibre end	0,00T internal ref (°C)	8,71T ext. ref 1 (°C)	-7,50T ext. ref 2 (°C)	-7,51length (m)	temperature (°C)	Stokes	anti-Stokes-744,400	-161,545	0,108	0,004
-743,385	-47,274	-0,288	-0,103
-742,371	166,600	0,209	0,219
-741,356	-165,004	-0,223	-0,007
-740,342	262,010	0,061	0,079
-739,327	-105,341	-0,411	-0,068
-738,312	66,485	0,036	-0,027
-737,298	43,332	-0,286	-0,192
-736,283	-177,710	0,205	0,004
-735,269	-200,000	-0,414	0,000
-734,254	-106,145	0,178	0,029
-733,239	-7,167	-0,556	-0,277
-732,225	26,042	0,134	0,082
-731,210	339,213	-0,025	0,036
-730,196	-200,000	-0,002	-0,068
-729,181	16,293	0,123	-0,071
-728,167	419,831	-0,004	0,006
-727,152	-76,176	-0,100	-0,026
-726,137	800,000	0,005	-0,010
-725,123	119,811	-0,167	-0,153
-724,108	-200,000	0,000	-0,248
-723,094	-139,385	-0,247	-0,019
-722,079	609,723	0,046	0,086
-721,064	-71,307	-0,072	0,020
-720,050	-114,731	0,127	-0,018
-719,035	-200,000	0,009	-0,037
-718,021	-108,772	-0,115	-0,018
-717,006	-122,036	-0,056	-0,007
-715,991	-200,000	0,007	-0,106
-714,977	-128,583	0,012	0,001
-713,962	-157,930	0,015	-0,001
-712,948	-48,389	-0,033	-0,012
-711,933	-111,763	-0,087	0,013
-710,918	800,000	0,034	-0,071
-709,904	66,399	-0,069	0,052
-708,889	-200,000	0,016	0,083
-707,875	79,777	-0,102	0,080
-706,860	295,547	-0,033	-0,045
-705,845	-200,000	0,034	0,119
-704,831	800,000	-0,046	-0,121
-703,816	-200,000	-0,008	-0,066
-702,802	-74,085	-0,127	0,034
-701,787	264,803	-0,086	-0,111
-700,772	800,000	0,084	-0,199
-699,758	800,000	-0,059	0,161
-698,743	800,000	0,027	0,056
-697,729	-153,891	-0,053	0,003
-696,714	-200,000	0,035	0,200
-695,699	-111,155	-0,140	-0,021
-694,685	61,131	-0,039	-0,029
-693,670	447,383	-0,022	-0,036
-692,656	21,438	0,034	0,020
-691,641	800,000	-0,067	0,173
-690,627	331,232	0,037	0,053
-689,612	47,537	-0,050	-0,034
-688,597	800,000	0,041	-0,104
-687,583	-71,404	-0,252	-0,069
-686,568	-200,000	0,014	-0,056
-685,554	-200,000	0,033	-0,236
-684,539	353,642	0,022	-0,032
-683,524	405,741	-0,119	0,186
-682,510	-68,441	-0,074	0,021
-681,495	-72,460	-0,050	0,014
-680,481	-48,794	-0,064	-0,023
-679,466	-200,000	-0,013	-0,128
-678,451	14,831	0,079	0,045
-677,437	-200,000	-0,029	-0,105
-676,422	198,679	0,060	0,067
-675,408	-65,708	-0,108	-0,032
-674,393	-70,721	0,018	-0,005
-673,378	-111,192	-0,183	0,027
-672,364	337,473	-0,129	-0,185
-671,349	-200,000	0,009	0,049
-670,335	-200,000	0,047	-0,159
-669,320	546,914	-0,049	-0,087
-668,305	295,878	0,085	0,115
-667,291	-200,000	-0,021	-0,165
-666,276	274,193	-0,137	-0,179
-665,262	-182,854	-0,043	0,001
-664,247	-200,000	0,008	0,038
-663,232	-5,211	-0,186	0,094
-662,218	140,772	0,145	0,141
-661,203	-88,204	-0,077	0,017
-660,189	-13,686	0,091	0,043
-659,174	800,000	-0,024	0,051
-658,159	-56,318	-0,055	-0,018
-657,145	8,066	0,086	-0,047
-656,130	-200,000	0,012	-0,120
-655,116	800,000	0,074	-0,213
-654,101	800,000	0,027	-0,080
-653,086	800,000	-0,037	-0,116
-652,072	-6,575	-0,088	0,044
-651,057	19,831	-0,095	-0,056
-650,043	-200,000	0,010	-0,053
-649,028	-200,000	0,006	0,075
-648,014	141,965	-0,131	-0,127
-646,999	800,000	-0,048	0,104
-645,984	-79,760	0,022	0,005
-644,970	-200,000	0,010	-0,137
-643,955	792,797	-0,042	-0,086
-642,941	281,607	-0,098	-0,130
-641,926	-200,000	-0,055	0,181
-640,911	800,000	0,014	-0,037
-639,897	-200,000	-0,003	0,076
-638,882	-107,240	0,044	0,007
-637,868	-82,456	-0,068	-0,016
-636,853	-70,651	-0,106	0,029
-635,838	144,226	0,063	0,062
-634,824	800,000	-0,014	0,030
-633,809	-200,000	-0,022	0,179
-632,795	339,670	-0,027	-0,039
-631,780	-56,459	0,089	0,029
-630,765	491,168	-0,024	0,041
-629,751	-154,945	-0,044	-0,002
-628,736	-200,000	0,016	-0,063
-627,722	800,000	0,044	-0,132
-626,707	-72,126	0,083	0,022
-625,692	672,514	-0,027	-0,051
-624,678	-143,053	0,122	-0,009
-623,663	56,697	-0,093	-0,067
-622,649	-67,237	0,037	0,011
-621,634	-200,000	-0,000	0,017
-620,619	283,323	0,139	-0,184
-619,605	800,000	-0,048	-0,114
-618,590	708,613	-0,010	-0,019
-617,576	277,066	0,068	0,089
-616,561	-60,121	-0,075	0,023
-615,546	364,686	0,038	0,057
-614,532	151,874	-0,108	-0,108
-613,517	82,234	-0,137	-0,109
-612,503	316,348	-0,022	-0,030
-611,488	318,807	0,072	0,101
-610,474	518,227	-0,098	0,169
-609,459	550,105	0,020	0,036
-608,444	699,961	-0,070	-0,136
-607,430	-200,000	-0,004	-0,069
-606,415	562,078	0,018	-0,032
-605,401	-200,000	-0,011	0,079
-604,386	-73,041	0,132	-0,035
-603,371	135,282	-0,135	0,129
-602,357	-144,396	-0,066	0,004
-601,342	-14,152	-0,020	-0,009
-600,328	244,399	-0,049	0,061
-599,313	769,748	0,020	-0,041
-598,298	-57,754	-0,040	0,013
-597,284	-200,000	-0,013	0,077
-596,269	-200,000	0,011	0,061
-595,255	800,000	0,064	-0,146
-594,240	-143,837	-0,125	0,009
-593,225	12,960	-0,020	-0,011
-592,211	11,359	0,052	-0,029
-591,196	-200,000	0,016	-0,060
-590,182	-200,000	-0,017	0,065
-589,167	-200,000	0,001	0,128
-588,152	-147,672	0,095	0,006
-587,138	216,283	0,050	-0,059
-586,123	-78,947	-0,174	0,043
-585,109	800,000	-0,015	0,045
-584,094	-34,791	-0,083	0,033
-583,079	-69,083	0,054	-0,015
-582,065	-129,069	0,131	0,013
-581,050	-200,000	-0,007	0,135
-580,036	-200,000	0,024	-0,106
-579,021	-200,000	-0,013	-0,150
-578,006	-200,000	0,010	0,050
-576,992	800,000	-0,084	-0,190
-575,977	169,032	0,056	0,059
-574,963	-71,326	-0,141	0,038
-573,948	-200,000	0,032	0,121
-572,934	-200,000	-0,013	0,046
-571,919	172,595	0,060	-0,063
-570,904	800,000	-0,021	-0,053
-569,890	-105,997	0,074	-0,012
-568,875	-200,000	0,012	0,123
-567,861	-200,000	-0,032	0,172
-566,846	375,143	0,050	0,076
-565,831	800,000	0,022	-0,053
-564,817	45,565	-0,194	-0,131
-563,802	-200,000	-0,012	-0,098
-562,788	80,320	-0,044	0,035
-561,773	-200,000	-0,002	0,055
-560,758	18,825	0,106	0,062
-559,744	-200,000	0,018	0,127
-558,729	4,739	-0,026	-0,014
-557,715	-200,000	-0,016	-0,055
-556,700	-200,000	-0,004	0,031
-555,685	-200,000	0,005	-0,067
-554,671	355,456	0,063	-0,092
-553,656	-90,252	-0,116	0,025
-552,642	11,835	-0,033	-0,019
-551,627	-79,908	-0,040	0,010
-550,612	800,000	0,043	-0,088
-549,598	126,080	0,069	-0,064
-548,583	800,000	-0,029	0,088
-547,569	800,000	-0,026	-0,072
-546,554	-128,192	-0,077	0,008
-545,539	-148,282	0,043	-0,003
-544,525	-200,000	-0,014	0,062
-543,510	70,571	0,119	0,090
-542,496	-200,000	0,018	0,100
-541,481	-200,000	0,027	0,126
-540,466	-131,282	0,150	-0,014
-539,452	19,366	-0,085	0,050
-538,437	800,000	0,050	-0,115
-537,423	-200,000	0,002	-0,103
-536,408	-200,000	-0,030	-0,182
-535,393	-10,173	-0,108	-0,052
-534,379	10,680	-0,140	-0,078
-533,364	137,143	-0,073	0,070
-532,350	-82,232	0,089	0,021
-531,335	258,226	-0,012	0,015
-530,321	-200,000	0,006	-0,188
-529,306	800,000	0,034	-0,081
-528,291	-200,000	-0,005	-0,039
-527,277	93,171	-0,048	-0,039
-526,262	-61,949	0,097	-0,029
-525,248	-200,000	-0,017	0,193
-524,233	800,000	0,044	0,098
-523,218	41,994	0,065	-0,043
-522,204	634,272	-0,033	0,061
-521,189	140,010	0,061	0,058
-520,175	-200,000	-0,003	-0,049
-519,160	800,000	-0,032	0,067
-518,145	41,894	-0,019	-0,013
-517,131	-189,936	0,123	0,001
-516,116	-144,433	0,006	-0,000
-515,102	800,000	0,020	0,051
-514,087	-111,757	0,047	-0,007
-513,072	238,105	-0,031	0,038
-512,058	120,456	-0,045	0,041
-511,043	225,280	0,037	0,044
-510,029	-71,740	0,027	0,007
-509,014	-200,000	0,014	0,072
-507,999	161,051	0,110	-0,112
-506,985	800,000	0,033	-0,090
-505,970	-110,032	-0,090	-0,014
-504,956	-14,162	0,060	0,028
-503,941	442,806	0,033	-0,053
-502,926	-147,920	0,038	-0,002
-501,912	-200,000	0,024	0,135
-500,897	85,692	-0,022	0,018
-499,883	800,000	0,044	0,102
-498,868	506,173	-0,047	-0,080
-497,853	-130,591	0,138	0,013
-496,839	-156,695	-0,189	-0,008
-495,824	800,000	0,049	0,123
-494,810	475,572	0,031	0,051
-493,795	-138,467	0,099	0,008
-492,781	800,000	-0,089	-0,223
-491,766	-200,000	0,011	-0,120
-490,751	-200,000	-0,020	-0,090
-489,737	231,904	-0,087	-0,105
-488,722	-200,000	0,010	-0,034
-487,708	-2,354	-0,079	-0,041
-486,693	-29,998	-0,021	0,009
-485,678	-200,000	-0,044	0,170
-484,664	-123,395	0,020	0,002
-483,649	2,581	-0,027	-0,014
-482,635	-79,062	0,107	-0,026
-481,620	800,000	-0,025	0,057
-480,605	-5,130	0,033	0,017
-479,591	-200,000	-0,019	-0,099
-478,576	688,948	-0,086	0,165
-477,562	306,372	-0,043	-0,058
-476,547	800,000	0,067	-0,164
-475,532	-102,681	-0,079	0,014
-474,518	599,924	0,044	-0,080
-473,503	800,000	0,021	-0,052
-472,489	211,818	-0,046	-0,053
-471,474	-101,166	0,092	0,016
-470,459	-44,783	0,033	0,012
-469,445	98,064	-0,031	0,026
-468,430	-200,000	0,008	-0,129
-467,416	-102,466	0,247	0,043
-466,401	546,372	0,064	0,113
-465,386	415,081	-0,019	0,030
-464,372	-200,000	-0,007	0,125
-463,357	-162,017	-0,073	0,003
-462,343	99,726	0,067	0,056
-461,328	-138,520	-0,141	-0,011
-460,313	361,952	-0,034	-0,050
-459,299	-200,000	-0,003	0,030
-458,284	-200,000	0,003	-0,066
-457,270	381,728	0,022	-0,033
-456,255	-200,000	0,002	-0,036
-455,241	139,956	-0,051	0,050
-454,226	800,000	0,064	-0,158
-453,211	-25,417	0,050	-0,022
-452,197	160,701	0,113	0,115
-451,182	800,000	0,025	-0,070
-450,168	158,222	-0,023	-0,023
-449,153	93,408	-0,127	-0,104
-448,138	198,192	0,098	-0,109
-447,124	9,564	-0,088	0,049
-446,109	44,139	-0,065	0,043
-445,095	-200,000	0,014	-0,067
-444,080	285,527	0,043	-0,057
-443,065	-20,760	-0,070	0,031
-442,051	603,648	0,026	-0,047
-441,036	800,000	0,025	-0,073
-440,022	604,137	-0,078	-0,142
-439,007	110,726	-0,036	0,032
-437,992	-200,000	0,001	0,042
-436,978	-200,000	-0,004	0,060
-435,963	-9,914	-0,029	0,014
-434,949	-200,000	0,007	0,111
-433,934	-79,452	-0,163	0,040
-432,919	10,949	-0,076	0,042
-431,905	42,214	-0,032	0,021
-430,890	800,000	0,013	-0,029
-429,876	268,797	0,067	0,086
-428,861	-200,000	-0,027	0,175
-427,846	-90,470	-0,046	-0,010
-426,832	-99,356	0,109	-0,020
-425,817	-200,000	-0,028	-0,189
-424,803	-67,131	0,058	0,017
-423,788	-200,000	0,002	-0,154
-422,773	380,584	-0,037	0,055
-421,759	-190,971	-0,148	0,001
-420,744	355,405	0,069	-0,100
-419,730	101,830	-0,070	-0,059
-418,715	-200,000	-0,011	-0,111
-417,701	-168,105	0,147	-0,004
-416,686	444,094	0,078	0,125
-415,671	22,836	-0,095	-0,057
-414,657	274,819	0,086	-0,112
-413,642	407,251	0,062	-0,096
-412,628	220,158	0,057	0,067
-411,613	800,000	-0,037	-0,099
-410,598	152,710	0,055	-0,055
-409,584	654,547	0,052	-0,097
-408,569	307,758	0,056	0,076
-407,555	6,542	0,028	0,015
-406,540	-200,000	0,006	-0,076
-405,525	224,653	-0,093	0,109
-404,511	-81,625	-0,135	0,032
-403,496	-178,170	-0,096	-0,002
-402,482	-110,175	0,064	-0,010
-401,467	-177,240	0,152	-0,003
-400,452	-200,000	-0,015	0,080
-399,438	-200,000	-0,025	0,097
-398,423	-78,759	-0,090	0,022
-397,409	-200,000	0,020	-0,067
-396,394	-53,816	-0,044	-0,015
-395,379	377,067	-0,050	-0,075
-394,365	196,115	0,096	0,106
-393,350	302,973	0,063	0,084
-392,336	-200,000	0,014	0,072
-391,321	-132,198	-0,064	-0,006
-390,306	-200,000	0,036	0,147
-389,292	-47,772	-0,067	0,023
-388,277	-9,367	0,115	0,056
-387,263	-40,388	0,107	-0,040
-386,248	800,000	0,022	-0,063
-385,233	6,539	0,078	-0,042
-384,219	18,973	0,051	0,030
-383,204	85,621	-0,011	-0,009
-382,190	-5,862	-0,036	-0,018
-381,175	213,097	0,101	0,116
-380,160	41,029	0,075	0,049
-379,146	-200,000	-0,015	0,104
-378,131	-200,000	0,008	0,033
-377,117	-98,068	0,122	-0,023
-376,102	-109,721	-0,005	0,001
-375,088	3,805	-0,028	-0,015
-374,073	15,229	-0,066	-0,037
-373,058	125,599	0,121	0,111
-372,044	89,845	-0,036	-0,029
-371,029	234,362	0,071	0,085
-370,015	-200,000	-0,000	0,118
-369,000	800,000	-0,031	0,089
-367,985	301,124	-0,027	-0,037
-366,971	86,330	0,054	-0,043
-365,956	155,880	-0,075	0,075
-364,942	-200,000	0,009	0,050
-363,927	233,017	0,081	0,097
-362,912	-200,000	-0,014	0,148
-361,898	147,879	-0,073	0,072
-360,883	-200,000	0,034	-0,139
-359,869	43,640	-0,058	-0,038
-358,854	-18,422	-0,049	-0,022
-357,839	279,210	0,046	-0,060
-356,825	16,876	0,112	-0,064
-355,810	-200,000	0,033	0,110
-354,796	-9,799	-0,041	-0,020
-353,781	31,465	-0,165	-0,103
-352,766	108,270	0,098	-0,085
-351,752	209,998	-0,050	-0,057
-350,737	726,729	0,041	-0,079
-349,723	136,854	0,054	-0,051
-348,708	-115,714	0,096	0,013
-347,693	-78,578	0,053	0,013
-346,679	119,336	0,043	0,038
-345,664	83,611	0,002	-0,001
-344,650	-29,880	-0,040	0,016
-343,635	-0,846	0,039	0,020
-342,620	800,000	0,030	0,092
-341,606	-200,000	-0,005	0,147
-340,591	704,762	-0,011	-0,021
-339,577	96,761	0,094	-0,078
-338,562	227,194	0,013	0,015
-337,548	800,000	-0,000	0,001
-336,533	-24,116	0,029	-0,012
-335,518	-130,186	-0,070	-0,007
-334,504	-200,000	-0,027	-0,156
-333,489	800,000	-0,027	-0,068
-332,475	-200,000	0,031	-0,114
-331,460	-200,000	0,006	-0,156
-330,445	-120,951	0,143	-0,017
-329,431	-200,000	-0,012	0,101
-328,416	800,000	0,035	-0,089
-327,402	103,606	0,161	-0,138
-326,387	-138,108	-0,060	0,005
-325,372	-41,064	-0,114	0,043
-324,358	-5,174	-0,077	-0,039
-323,343	-130,548	0,118	0,011
-322,329	-117,728	0,159	0,021
-321,314	31,598	-0,028	0,018
-320,299	219,489	0,021	0,025
-319,285	-120,305	0,058	0,007
-318,270	24,361	-0,141	0,085
-317,256	279,194	-0,036	-0,047
-316,241	-51,308	0,048	-0,016
-315,226	-200,000	-0,001	0,042
-314,212	171,358	-0,092	0,096
-313,197	-122,436	0,045	-0,005
-312,183	-47,721	0,110	0,038
-311,168	-68,697	0,175	-0,049
-310,153	-200,000	-0,013	0,050
-309,139	158,147	-0,095	0,096
-308,124	175,700	0,047	0,050
-307,110	229,765	-0,036	0,042
-306,095	-200,000	-0,006	0,176
-305,080	-200,000	0,001	-0,049
-304,066	-200,000	0,030	-0,161
-303,051	-70,915	-0,118	-0,032
-302,037	800,000	-0,029	-0,071
-301,022	97,984	0,169	0,141
-300,008	-65,616	0,040	0,012
-298,993	-200,000	0,031	0,161
-297,978	800,000	0,073	0,185
-296,964	-200,000	0,047	0,154
-295,949	-103,082	-0,121	-0,021
-294,935	594,417	0,067	-0,121
-293,920	-200,000	0,021	0,104
-292,905	-26,863	0,087	0,037
-291,891	-200,000	-0,001	-0,017
-290,876	800,000	0,024	0,056
-289,862	62,463	-0,125	0,091
-288,847	102,950	0,076	-0,064
-287,832	661,301	0,043	-0,081
-286,818	508,506	0,040	-0,067
-285,803	-6,949	0,090	0,044
-284,789	-56,741	0,027	0,009
-283,774	365,933	0,106	0,156
-282,759	800,000	-0,032	-0,082
-281,745	421,667	0,019	-0,030
-280,730	-58,252	-0,133	0,042
-279,716	-92,672	-0,108	0,022
-278,701	449,045	-0,035	0,057
-277,686	310,190	0,050	-0,067
-276,672	71,568	0,134	0,100
-275,657	-200,000	0,000	0,010
-274,643	-89,208	-0,056	-0,012
-273,628	-117,993	-0,111	0,014
-272,613	-130,017	-0,101	0,010
-271,599	322,417	0,098	0,135
-270,584	-6,686	0,090	0,044
-269,570	45,965	0,083	-0,055
-268,555	-20,472	0,076	0,034
-267,540	429,083	0,039	0,061
-266,526	800,000	-0,063	-0,135
-265,511	-200,000	0,011	0,059
-264,497	-27,261	0,023	-0,010
-263,482	800,000	-0,026	-0,068
-262,467	-70,944	-0,050	-0,014
-261,453	-166,905	-0,070	-0,002
-260,438	-1,702	-0,094	0,048
-259,424	-64,090	-0,029	0,008
-258,409	23,027	-0,087	-0,052
-257,395	-200,000	-0,006	0,031
-256,380	333,427	-0,008	-0,011
-255,365	289,574	0,019	-0,025
-254,351	-200,000	0,014	0,127
-253,336	-170,538	-0,056	-0,001
-252,322	800,000	0,072	-0,212
-251,307	-36,787	0,050	0,019
-250,292	-200,000	0,008	0,094
-249,278	-200,000	-0,014	-0,134
-248,263	216,880	0,053	0,061
-247,249	-200,000	0,012	-0,077
-246,234	95,141	-0,083	-0,068
-245,219	94,220	-0,157	-0,129
-244,205	6,111	-0,108	-0,058
-243,190	-22,654	-0,061	-0,026
-242,176	296,042	-0,029	-0,038
-241,161	145,925	0,054	0,053
-240,146	129,901	-0,106	0,098
-239,132	194,150	0,069	0,076
-238,117	-76,151	0,090	-0,023
-237,103	142,033	0,150	0,144
-236,088	-62,720	0,055	-0,016
-235,073	800,000	-0,014	0,042
-234,059	30,703	0,028	0,017
-233,044	29,063	0,080	0,049
-232,030	386,542	0,059	-0,089
-231,015	-12,660	-0,122	0,057
-230,000	367,465	0,067	-0,099
-228,986	-11,409	-0,137	-0,065
-227,971	-200,000	-0,012	0,057
-226,957	-108,201	-0,047	-0,007
-225,942	143,275	0,061	0,059
-224,927	-200,000	0,023	0,148
-223,913	-4,209	-0,127	0,063
-222,898	249,580	0,031	-0,038
-221,884	-72,686	0,077	-0,020
-220,869	-128,386	-0,081	-0,008
-219,855	540,760	0,082	-0,142
-218,840	800,000	-0,021	0,063
-217,825	40,455	0,088	-0,057
-216,811	-162,497	-0,118	0,004
-215,796	-7,990	-0,021	0,010
-214,782	97,467	-0,133	0,110
-213,767	27,849	-0,036	0,022
-212,752	-200,000	-0,013	0,064
-211,738	-200,000	0,021	-0,109
-210,723	610,378	0,038	-0,068
-209,709	162,208	-0,032	-0,032
-208,694	-200,000	-0,004	-0,166
-207,679	140,787	0,012	-0,012
-206,665	71,531	0,082	0,062
-205,650	-8,532	-0,015	0,007
-204,636	3,449	0,044	0,023
-203,621	-95,063	-0,131	0,025
-202,606	-45,960	-0,086	-0,030
-201,592	-30,110	-0,037	0,015
-200,577	800,000	0,036	-0,087
-199,563	148,309	0,138	0,135
-198,548	244,060	-0,090	0,110
-197,533	-26,931	-0,075	0,032
-196,519	370,608	-0,094	0,137
-195,504	800,000	0,011	-0,026
-194,490	58,105	0,047	-0,033
-193,475	74,067	-0,039	0,030
-192,460	-124,677	0,004	-0,000
-191,446	10,006	0,040	0,022
-190,431	-200,000	0,013	0,063
-189,417	800,000	0,037	0,088
-188,402	800,000	-0,069	-0,161
-187,387	-200,000	-0,011	-0,167
-186,373	145,115	-0,014	-0,013
-185,358	-200,000	0,038	-0,134
-184,344	3,219	-0,138	-0,072
-183,329	800,000	0,033	-0,095
-182,315	305,885	0,052	-0,070
-181,300	172,998	0,023	0,024
-180,285	800,000	-0,036	-0,094
-179,271	-17,020	-0,120	-0,054
-178,256	565,429	0,043	-0,075
-177,242	-50,912	-0,104	-0,035
-176,227	800,000	-0,036	0,104
-175,212	420,444	-0,057	0,089
-174,198	-200,000	-0,002	0,085
-173,183	-5,821	-0,110	0,054
-172,169	800,000	0,035	0,102
-171,154	120,431	0,069	-0,062
-170,139	104,896	-0,007	-0,006
-169,125	138,512	0,066	-0,062
-168,110	276,245	0,053	-0,068
-167,096	-200,000	0,015	-0,092
-166,081	-17,056	-0,092	0,042
-165,066	-146,769	-0,184	0,011
-164,052	-200,000	-0,001	0,041
-163,037	-200,000	-0,026	-0,092
-162,023	52,847	-0,056	-0,038
-161,008	91,039	0,144	0,116
-159,993	-26,199	0,038	-0,016
-158,979	800,000	-0,063	-0,139
-157,964	-74,459	-0,100	0,026
-156,950	579,834	-0,066	-0,117
-155,935	-93,528	-0,113	-0,022
-154,920	4,387	0,085	0,045
-153,906	173,537	0,058	0,061
-152,891	435,465	-0,038	0,059
-151,877	-200,000	-0,004	0,050
-150,862	-200,000	0,012	-0,126
-149,847	-100,719	-0,178	-0,031
-148,833	97,318	0,035	-0,029
-147,818	-200,000	-0,013	0,073
-146,804	-200,000	-0,016	0,089
-145,789	-200,000	0,055	-0,185
-144,775	51,829	-0,060	-0,041
-143,760	-200,000	0,002	-0,023
-142,745	435,188	-0,063	0,100
-141,731	125,363	0,035	-0,031
-140,716	-75,272	0,033	-0,008
-139,702	-76,441	-0,025	0,006
-138,687	41,345	-0,125	0,081
-137,672	-200,000	-0,007	0,123
-136,658	80,061	-0,092	0,071
-135,643	-200,000	0,007	-0,033
-134,629	124,466	-0,070	-0,064
-133,614	800,000	-0,048	-0,096
-132,599	-136,502	0,094	-0,008
-131,585	800,000	-0,013	-0,031
-130,570	103,035	0,086	0,072
-129,556	800,000	0,029	0,057
-128,541	-157,350	-0,130	-0,006
-127,526	-90,993	0,057	0,012
-126,512	-125,933	-0,195	-0,021
-125,497	-6,312	0,112	-0,055
-124,483	-35,123	-0,040	-0,015
-123,468	800,000	0,070	-0,183
-122,453	-47,986	0,060	0,021
-121,439	-94,512	-0,120	-0,023
-120,424	-200,000	0,007	0,135
-119,410	-200,000	0,029	0,125
-118,395	-200,000	0,010	-0,055
-117,380	-200,000	0,003	0,143
-116,366	-200,000	-0,004	-0,039
-115,351	213,835	-0,023	0,026
-114,337	-200,000	0,025	-0,252
-113,322	-200,000	0,033	0,137
-112,307	14,058	0,083	-0,046
-111,293	-178,164	0,045	-0,001
-110,278	190,448	0,154	0,166
-109,264	800,000	-0,050	0,153
-108,249	81,722	0,072	0,056
-107,234	-31,174	-0,038	-0,016
-106,220	783,219	-0,031	-0,062
-105,205	100,187	0,101	0,084
-104,191	-200,000	-0,017	-0,107
-103,176	-32,163	0,139	-0,056
-102,162	-200,000	-0,013	-0,113
-101,147	565,812	-0,044	-0,078
-100,132	-14,851	-0,119	0,055
-99,118	-200,000	-0,000	-0,102
-98,103	377,424	0,073	-0,107
-97,089	800,000	0,017	-0,052
-96,074	-75,067	0,031	-0,008
-95,059	-25,358	0,040	-0,017
-94,045	800,000	0,036	0,100
-93,030	-84,728	-0,073	-0,016
-92,016	190,382	0,061	0,065
-91,001	262,661	-0,062	-0,077
-89,986	50,856	-0,009	-0,006
-88,972	-56,941	0,122	-0,039
-87,957	-200,000	0,019	-0,065
-86,943	-9,312	-0,060	-0,029
-85,928	205,778	-0,066	0,074
-84,913	-6,509	-0,032	0,016
-83,899	-20,444	-0,031	0,014
-82,884	179,080	-0,033	0,034
-81,870	-149,470	0,093	0,005
-80,855	-136,658	0,087	-0,007
-79,840	800,000	-0,085	-0,173
-78,826	-200,000	-0,004	-0,053
-77,811	0,074	0,022	0,011
-76,797	94,244	0,086	-0,070
-75,782	-61,908	-0,082	-0,025
-74,767	303,134	-0,136	0,182
-73,753	-57,891	-0,102	-0,032
-72,738	-15,119	-0,126	-0,058
-71,724	-18,425	0,023	0,010
-70,709	236,665	0,073	-0,087
-69,694	84,811	-0,119	0,094
-68,680	732,042	0,059	0,114
-67,665	481,219	0,104	0,171
-66,651	-200,000	-0,029	0,165
-65,636	381,489	-0,064	0,094
-64,622	-200,000	0,011	-0,086
-63,607	67,690	0,024	0,018
-62,592	216,919	-0,087	-0,099
-61,578	74,503	-0,077	0,058
-60,563	180,756	-0,056	0,059
-59,549	-200,000	-0,001	-0,058
-58,534	83,975	-2,580	-2,023
-57,519	105,399	0,333	-0,283
-56,505	-200,000	-1,625	-5,368
-55,490	540,684	1,011	1,737
-54,476	800,000	5,399	11,536
-53,461	-200,000	21,932	344,930
-52,446	800,000	760,933	2312,081
-51,432	519,348	1652,506	2791,357
-50,417	103,891	1617,680	1364,945
-49,403	73,501	1273,281	956,581
-48,388	25,396	1022,164	608,875
-47,373	19,302	988,351	568,553
-46,359	13,468	975,787	542,134
-45,344	9,376	972,397	526,772
-44,330	9,879	970,352	527,298
-43,315	8,835	968,339	522,758
-42,300	8,763	967,268	521,923
-41,286	8,786	966,168	521,384
-40,271	8,715	965,443	520,741
-39,257	8,750	964,350	520,243
-38,242	8,691	963,676	519,667
-37,227	8,748	962,485	519,192
-36,213	8,736	962,023	518,883
-35,198	8,718	961,224	518,370
-34,184	8,817	960,207	518,125
-33,169	8,734	959,392	517,393
-32,154	8,787	958,454	517,039
-31,140	8,681	957,704	516,272
-30,125	8,796	956,713	516,090
-29,111	8,776	955,928	515,580
-28,096	8,772	955,346	515,233
-27,082	8,800	954,573	514,888
-26,067	8,729	953,995	514,323
-25,052	8,799	952,935	513,959
-24,038	8,668	952,386	513,220
-23,023	8,687	951,902	512,999
-22,009	8,716	951,355	512,777
-20,994	8,760	950,730	512,563
-19,979	8,773	950,016	512,198
-18,965	8,742	949,367	511,730
-17,950	8,755	948,799	511,443
-16,936	8,692	948,239	510,920
-15,921	8,733	947,208	510,474
-14,906	8,601	946,747	509,784
-13,892	8,694	945,935	509,626
-12,877	8,667	945,322	509,188
-11,863	8,608	944,832	508,714
-10,848	8,625	944,256	508,438
-9,833	8,720	943,794	508,473
-8,819	8,665	943,169	507,940
-7,804	8,692	942,339	507,560
-6,790	8,646	941,873	507,140
-5,775	8,590	941,414	506,695
-4,760	8,673	940,618	506,511
-3,746	8,677	939,963	506,153
-2,731	8,573	939,258	505,421
-1,717	8,459	938,610	504,691
-0,702	8,471	938,015	504,389
0,313	8,324	937,293	504,296
1,327	11,731	935,331	513,981
2,342	20,353	783,585	453,298
3,356	15,506	450,060	253,004
4,371	-10,817	313,341	148,072
5,386	-14,541	295,587	135,895
6,400	-16,501	289,392	131,088
7,415	-16,726	286,891	129,722
8,429	-17,276	285,033	128,331
9,444	-17,422	284,272	127,835
10,459	-17,497	283,585	127,442
11,473	-17,459	283,045	127,225
12,488	-17,423	282,536	127,020
13,502	-17,489	281,999	126,704
14,517	-17,309	281,612	126,693
15,531	-17,387	281,154	126,400
16,546	-17,217	280,598	126,302
17,561	-17,428	280,495	126,041
18,575	-17,083	280,104	126,186
19,590	-17,089	279,618	125,950
20,604	-17,226	279,453	125,733
21,619	-17,222	279,044	125,542
22,634	-17,181	278,727	125,426
23,648	-17,256	278,296	125,150
24,663	-17,276	278,171	125,064
25,677	-17,087	277,865	125,095
26,692	-17,138	277,503	124,872
27,707	-17,035	277,236	124,838
28,721	-17,122	276,846	124,570
29,736	-17,310	276,800	124,360
30,750	-17,107	276,348	124,338
31,765	-17,101	276,160	124,247
32,780	-17,109	275,914	124,119
33,794	-16,973	275,722	124,149
34,809	-17,123	275,390	123,847
35,823	-17,112	275,126	123,728
36,838	-17,309	275,165	123,549
37,853	-17,179	274,546	123,382
38,867	-17,151	274,483	123,369
39,882	-17,046	274,181	123,321
40,896	-17,167	274,062	123,143
41,911	-17,284	273,690	122,855
42,926	-17,079	273,492	122,947
43,940	-16,994	273,215	122,891
44,955	-17,114	273,023	122,682
45,969	-17,158	272,882	122,567
46,984	-17,092	272,639	122,508
47,999	-17,045	272,517	122,486
49,013	-16,900	272,153	122,446
50,028	-17,060	271,919	122,181
51,042	-16,920	271,776	122,236
52,057	-16,936	271,512	122,092
53,071	-17,186	271,388	121,794
54,086	-17,023	271,076	121,794
55,101	-17,126	270,993	121,650
56,115	-16,926	270,585	121,641
57,130	-17,240	270,383	121,249
58,144	-17,064	270,089	121,269
59,159	-17,192	269,801	121,010
60,174	-17,184	269,607	120,921
61,188	-16,982	269,315	120,964
62,203	-17,154	269,132	120,713
63,217	-17,216	268,928	120,554
64,232	-17,012	268,724	120,639
65,247	-17,072	268,437	120,445
66,261	-17,179	268,192	120,226
67,276	-17,166	268,014	120,148
68,290	-17,312	268,020	120,006
69,305	-17,038	267,573	120,045
70,320	-16,930	267,306	120,013
71,334	-17,102	267,139	119,771
72,349	-16,940	266,909	119,804
73,363	-17,139	266,781	119,555
74,378	-17,191	266,301	119,282
75,393	-17,160	266,395	119,342
76,407	-17,084	266,061	119,251
77,422	-17,153	265,881	119,097
78,436	-16,874	265,464	119,152
79,451	-17,169	265,372	118,833
80,466	-17,091	265,037	118,742
81,480	-17,071	264,870	118,675
82,495	-17,167	264,575	118,446
83,509	-17,231	264,542	118,363
84,524	-16,875	264,253	118,544
85,539	-16,919	264,145	118,445
86,553	-16,942	263,950	118,327
87,568	-17,017	263,601	118,092
88,582	-17,096	263,410	117,925
89,597	-17,260	263,233	117,688
90,611	-16,924	263,016	117,882
91,626	-16,909	262,683	117,735
92,641	-17,018	262,609	117,594
93,655	-17,219	262,410	117,315
94,670	-17,104	262,193	117,310
95,684	-17,115	261,999	117,203
96,699	-17,118	261,749	117,078
97,714	-16,977	261,713	117,177
98,728	-16,855	261,432	117,149
99,743	-17,019	261,208	116,893
100,757	-17,069	261,068	116,775
101,772	-16,998	260,761	116,690
102,787	-17,186	260,495	116,395
103,801	-17,094	260,309	116,383
104,816	-17,073	260,186	116,336
105,830	-17,014	260,032	116,309
106,845	-17,285	259,855	115,980
107,860	-16,959	259,529	116,112
108,874	-17,057	259,313	115,918
109,889	-16,964	259,108	115,899
110,903	-17,024	258,839	115,715
111,918	-17,047	258,761	115,649
112,933	-17,105	258,538	115,489
113,947	-16,852	258,240	115,567
114,962	-17,037	258,127	115,344
115,976	-16,993	257,950	115,293
116,991	-17,092	257,654	115,064
118,006	-16,941	257,514	115,123
119,020	-16,946	257,378	115,048
120,035	-17,054	257,229	114,877
121,049	-16,996	256,966	114,799
122,064	-16,906	256,768	114,779
123,079	-16,865	256,576	114,719
124,093	-16,984	256,331	114,495
125,108	-17,179	256,261	114,284
126,122	-17,080	256,041	114,262
127,137	-16,969	255,855	114,265
128,151	-16,907	255,693	114,237
129,166	-16,962	255,420	114,057
130,181	-17,121	255,352	113,878
131,195	-16,877	254,972	113,910
132,210	-16,944	254,773	113,753
133,224	-17,056	254,605	113,571
134,239	-17,119	254,396	113,413
135,254	-16,876	254,165	113,510
136,268	-16,940	254,081	113,407
137,283	-16,700	253,731	113,447
138,297	-16,741	253,509	113,303
139,312	-16,944	253,389	113,064
140,327	-16,914	253,170	112,983
141,341	-17,004	253,006	112,822
142,356	-17,112	252,802	112,628
143,370	-16,977	252,738	112,705
144,385	-16,964	252,527	112,612
145,400	-17,038	252,341	112,456
146,414	-17,033	252,066	112,328
147,429	-16,914	251,830	112,314
148,443	-17,007	251,663	112,150
149,458	-16,925	251,501	112,138
150,473	-17,105	251,295	111,883
151,487	-16,923	251,137	111,958
152,502	-16,875	250,843	111,858
153,516	-17,013	250,688	111,661
154,531	-16,853	250,515	111,709
155,546	-16,726	250,249	111,688
156,560	-16,981	250,148	111,418
157,575	-17,066	249,961	111,252
158,589	-16,987	249,931	111,296
159,604	-16,929	249,479	111,134
160,619	-16,846	249,347	111,135
161,633	-16,952	249,122	110,936
162,648	-17,204	249,204	110,749
163,662	-16,968	249,028	110,860
164,677	-17,026	248,739	110,673
165,692	-16,800	248,568	110,777
166,706	-16,919	248,395	110,590
167,721	-16,927	248,212	110,492
168,735	-17,101	248,005	110,245
169,750	-17,099	248,000	110,234
170,764	-16,912	247,880	110,328
171,779	-16,910	247,603	110,196
172,794	-17,040	247,496	110,030
173,808	-16,975	247,181	109,934
174,823	-16,862	246,967	109,923
175,837	-17,026	246,939	109,764
176,852	-17,045	246,725	109,644
177,867	-16,959	246,680	109,686
178,881	-16,998	246,347	109,495
179,896	-17,028	246,152	109,374
180,910	-16,921	245,957	109,366
181,925	-16,887	245,778	109,305
182,940	-16,944	245,622	109,179
183,954	-16,929	245,474	109,116
184,969	-16,974	245,513	109,086
185,983	-16,847	245,199	109,042
186,998	-16,634	244,918	109,083
188,013	-17,089	244,928	108,702
189,027	-16,917	244,571	108,676
190,042	-17,186	244,484	108,405
191,056	-17,051	244,153	108,360
192,071	-17,180	244,034	108,192
193,086	-16,891	243,800	108,316
194,100	-17,019	243,641	108,131
195,115	-16,921	243,514	108,145
196,129	-17,112	243,427	107,940
197,144	-17,128	243,106	107,774
198,159	-16,713	242,811	107,975
199,173	-16,940	242,725	107,741
200,188	-16,917	242,547	107,671
201,202	-16,800	242,294	107,645
202,217	-16,803	242,323	107,645
203,232	-16,595	241,994	107,659
204,246	-16,975	241,801	107,254
205,261	-17,235	241,632	106,957
206,275	-15,883	242,093	108,256
207,290	-10,694	243,896	113,318
208,304	-4,425	245,857	119,400
209,319	-1,898	246,623	121,852
210,334	-0,803	246,801	122,834
211,348	0,464	246,942	123,942
212,363	0,832	246,912	124,219
213,377	1,286	246,844	124,549
214,392	1,508	246,878	124,738
215,407	1,860	246,790	124,973
216,421	1,908	246,763	124,988
217,436	1,958	246,524	124,896
218,450	1,980	246,304	124,792
219,465	1,937	246,170	124,678
220,480	1,857	246,099	124,565
221,494	1,582	245,831	124,193
222,509	1,227	245,486	123,716
223,523	1,175	245,327	123,582
224,538	0,974	245,032	123,258
225,553	1,017	244,848	123,189
226,567	0,909	244,785	123,059
227,582	0,761	244,591	122,829
228,596	0,926	244,487	122,901
229,611	0,793	244,337	122,706
230,626	0,943	244,096	122,696
231,640	0,926	243,901	122,574
232,655	0,838	243,791	122,435
233,669	0,935	243,522	122,368
234,684	0,869	243,323	122,204
235,699	0,927	243,231	122,194
236,713	1,032	243,157	122,231
237,728	1,056	242,966	122,143
238,742	0,850	242,836	121,900
239,757	1,014	242,599	121,903
240,772	0,881	242,307	121,638
241,786	1,095	242,232	121,763
242,801	0,892	242,251	121,597
243,815	0,948	242,033	121,522
244,830	0,920	241,751	121,347
245,844	0,880	241,665	121,261
246,859	0,871	241,473	121,146
247,874	0,830	241,406	121,069
248,888	0,933	241,244	121,060
249,903	0,932	240,922	120,887
250,917	1,177	240,833	121,028
251,932	1,240	240,814	121,058
252,947	1,077	240,511	120,765
253,961	1,027	240,511	120,714
254,976	0,966	240,419	120,608
255,990	0,968	240,220	120,499
257,005	1,038	240,124	120,495
258,020	1,179	239,828	120,449
259,034	1,069	239,737	120,305
260,049	1,018	239,396	120,083
261,063	0,934	239,366	119,990
262,078	0,931	239,296	119,941
263,093	1,031	239,044	119,884
264,107	0,926	238,953	119,745
265,122	1,272	238,712	119,888
266,136	0,974	238,637	119,602
267,151	0,895	238,410	119,416
268,166	0,945	238,299	119,389
269,180	0,950	238,051	119,259
270,195	0,939	237,864	119,145
271,209	0,910	237,872	119,116
272,224	0,954	237,571	118,989
273,239	0,860	237,452	118,845
274,253	0,951	237,306	118,832
275,268	0,779	237,231	118,649
276,282	0,929	236,997	118,639
277,297	0,650	236,950	118,385
278,312	1,037	236,764	118,586
279,326	0,955	236,567	118,413
280,341	1,149	236,457	118,499
281,355	1,047	236,296	118,328
282,370	1,129	236,138	118,303
283,384	0,920	236,071	118,095
284,399	0,862	236,001	118,004
285,414	0,865	235,710	117,850
286,428	0,854	235,542	117,747
287,443	1,031	235,387	117,797
288,457	0,918	235,325	117,668
289,472	1,022	235,174	117,663
290,487	1,035	234,964	117,558
291,501	0,618	234,914	117,197
292,516	0,839	234,733	117,268
293,530	0,884	234,607	117,230
294,545	1,249	234,457	117,429
295,560	1,087	234,144	117,136
296,574	0,918	234,135	116,989
297,589	1,097	233,814	116,957
298,603	1,054	233,672	116,843
299,618	1,136	233,624	116,871
300,633	0,964	233,647	116,739
301,647	1,096	233,375	116,695
302,662	1,167	233,308	116,706
303,676	1,066	233,033	116,480
304,691	1,030	232,961	116,406
305,706	1,119	232,770	116,369
306,720	1,021	232,666	116,231
307,735	1,161	232,418	116,204
308,749	1,071	232,287	116,059
309,764	1,015	232,275	116,000
310,779	0,985	232,071	115,865
311,793	1,135	231,758	115,814
312,808	1,016	231,661	115,664
313,822	1,223	231,522	115,742
314,837	1,052	231,443	115,561
315,852	0,963	231,367	115,445
316,866	1,298	231,055	115,535
317,881	1,362	230,775	115,434
318,895	0,996	230,792	115,152
319,910	1,293	230,549	115,247
320,925	1,079	230,447	115,023
321,939	1,271	230,356	115,114
322,954	1,248	230,233	115,024
323,968	1,382	229,986	114,993
324,983	1,161	230,042	114,842
325,997	0,997	229,827	114,599
327,012	1,212	229,662	114,671
328,027	1,156	229,431	114,503
329,041	1,107	229,192	114,336
330,056	1,378	229,170	114,521
331,070	1,431	229,033	114,482
332,085	1,097	228,978	114,191
333,100	1,199	228,703	114,121
334,114	1,080	228,635	113,987
335,129	1,155	228,514	113,973
336,143	1,240	228,298	113,920
337,158	1,124	228,193	113,770
338,173	1,219	228,164	113,816
339,187	1,135	227,878	113,600
340,202	1,135	227,733	113,518
341,216	1,364	227,553	113,590
342,231	1,245	227,380	113,405
343,246	1,305	227,170	113,334
344,260	1,357	227,123	113,340
345,275	1,235	227,074	113,214
346,289	1,361	226,920	113,222
347,304	1,257	226,762	113,055
348,319	1,388	226,563	113,043
349,333	1,362	226,449	112,957
350,348	1,343	226,371	112,894
351,362	1,250	226,109	112,684
352,377	1,154	226,012	112,553
353,392	1,398	225,743	112,592
354,406	1,414	225,783	112,614
355,421	192,207	1312,386	1379,281
356,435	153,974	1444,639	1379,144
