DTS Sentinel unit serial number:	SN410029Multiplexer serial number:	ORYXHardware model number:	OX2-SRSoftware version number:	ORYX F/W v4,00 Oryx Data Collector v3.7.2.0data status	okinstallation	B5 Nyhavnadifferential loss correction	single-endedforward channel	channel 2reverse channel	N/Adate	2023/12/14time	02:52:13forward acquisition time	300,00reverse acquisition time	0,00gamma	499,1914k internal	0,3155k external	0,3155temperature offset calibration	1,0000default loss term (dB/km)	0,3820temperature slope calibration	1,0000multiplexer offset coefficient	1,0000multiplexer slope coefficient	1,0000fibre end	0,00T internal ref (°C)	8,39T ext. ref 1 (°C)	-7,94T ext. ref 2 (°C)	-7,99length (m)	temperature (°C)	Stokes	anti-Stokes-744,400	188,405	0,092	0,101
-743,385	-111,369	-0,359	-0,054
-742,371	-33,794	0,243	0,098
-741,356	-187,754	-0,372	-0,004
-740,342	-53,699	0,234	0,078
-739,327	-108,896	-0,441	-0,069
-738,312	247,358	0,107	0,133
-737,298	15,546	-0,388	-0,224
-736,283	-73,753	0,127	0,034
-735,269	-71,881	-0,348	-0,095
-734,254	-71,673	0,096	0,026
-733,239	24,597	-0,441	-0,269
-732,225	-30,478	0,197	0,082
-731,210	127,828	-0,144	0,135
-730,196	132,512	-0,035	0,033
-729,181	51,612	0,005	-0,004
-728,167	51,495	0,038	-0,026
-727,152	1,866	-0,053	0,028
-726,137	-11,012	-0,096	-0,047
-725,123	-200,000	0,002	0,097
-724,108	49,545	-0,091	-0,063
-723,094	209,884	-0,115	-0,133
-722,079	3,849	-0,013	-0,007
-721,064	315,130	0,053	-0,073
-720,050	-29,564	0,090	-0,038
-719,035	344,141	-0,097	0,141
-718,021	14,078	-0,063	-0,036
-717,006	31,511	-0,107	-0,068
-715,991	800,000	0,078	-0,198
-714,977	34,702	-0,080	-0,051
-713,962	-14,222	-0,063	-0,030
-712,948	290,771	0,083	-0,112
-711,933	-13,388	-0,122	-0,058
-710,918	255,840	-0,080	0,101
-709,904	-32,181	0,091	-0,037
-708,889	-129,805	0,097	-0,010
-707,875	-124,061	0,053	0,006
-706,860	-200,000	0,035	0,132
-705,845	-61,864	-0,021	-0,006
-704,831	312,082	-0,086	-0,119
-703,816	-200,000	0,008	-0,060
-702,802	86,429	-0,116	0,094
-701,787	-26,111	-0,113	0,049
-700,772	182,386	0,023	-0,025
-699,758	13,131	-0,105	0,060
-698,743	211,276	-0,145	0,169
-697,729	-149,618	0,210	-0,012
-696,714	-14,175	-0,029	-0,014
-695,699	70,903	-0,098	-0,074
-694,685	24,064	0,039	-0,023
-693,670	226,305	-0,051	0,061
-692,656	-122,380	0,049	-0,006
-691,641	334,596	-0,038	0,054
-690,627	800,000	-0,034	-0,109
-689,612	-34,989	-0,149	0,060
-688,597	-200,000	-0,031	-0,106
-687,583	-67,848	-0,235	-0,067
-686,568	143,000	0,112	-0,110
-685,554	-111,062	0,077	-0,012
-684,539	800,000	-0,005	0,017
-683,524	210,291	0,082	-0,095
-682,510	387,894	0,083	0,127
-681,495	-200,000	0,003	0,118
-680,481	-70,154	-0,087	0,024
-679,466	271,252	-0,014	0,018
-678,451	34,288	0,064	-0,041
-677,437	-200,000	0,016	-0,071
-676,422	-132,145	0,025	-0,002
-675,408	800,000	-0,050	0,137
-674,393	-102,325	-0,070	0,012
-673,378	212,682	-0,086	-0,100
-672,364	-200,000	0,003	-0,017
-671,349	-62,560	-0,085	-0,026
-670,335	223,676	0,055	-0,065
-669,320	-200,000	0,004	0,058
-668,305	-10,543	-0,068	0,033
-667,291	67,592	-0,038	-0,028
-666,276	94,507	-0,100	0,084
-665,262	-123,291	-0,078	-0,009
-664,247	151,946	0,026	0,026
-663,232	790,666	-0,064	-0,129
-662,218	258,153	0,070	0,089
-661,203	-7,588	0,052	-0,026
-660,189	48,576	-0,115	-0,079
-659,174	15,184	-0,123	-0,071
-658,159	280,759	0,059	-0,078
-657,145	800,000	-0,008	-0,017
-656,130	147,048	0,043	0,043
-655,116	106,257	0,074	-0,064
-654,101	800,000	0,033	0,074
-653,086	800,000	0,035	-0,104
-652,072	-77,424	-0,132	-0,033
-651,057	-200,000	-0,017	-0,146
-650,043	27,957	-0,032	-0,020
-649,028	-72,885	-0,127	0,034
-648,014	101,159	-0,078	-0,066
-646,999	-200,000	-0,005	0,038
-645,984	558,526	0,049	0,087
-644,970	-200,000	0,017	-0,075
-643,955	93,851	-0,036	-0,030
-642,941	800,000	-0,069	-0,189
-641,926	104,686	-0,134	-0,116
-640,911	121,779	0,078	0,071
-639,897	-88,486	-0,063	-0,014
-638,882	-28,647	-0,057	-0,024
-637,868	-72,689	-0,097	0,026
-636,853	284,334	0,048	-0,063
-635,838	-20,118	-0,156	-0,071
-634,824	-200,000	-0,029	-0,192
-633,809	-35,382	0,188	-0,075
-632,795	-50,928	-0,165	0,056
-631,780	108,924	0,107	-0,094
-630,765	-28,029	-0,110	0,046
-629,751	800,000	-0,023	-0,061
-628,736	-18,049	-0,093	-0,043
-627,722	580,885	-0,018	0,033
-626,707	110,769	-0,007	0,006
-625,692	136,221	-0,018	-0,017
-624,678	800,000	0,051	-0,114
-623,663	-174,925	-0,110	-0,002
-622,649	441,568	0,043	0,070
-621,634	800,000	0,046	-0,111
-620,619	-200,000	0,001	0,037
-619,605	-5,239	-0,080	-0,040
-618,590	-200,000	-0,007	0,033
-617,576	-200,000	0,012	-0,108
-616,561	12,659	0,080	-0,045
-615,546	211,236	0,088	-0,102
-614,532	14,096	-0,174	-0,099
-613,517	184,531	-0,056	-0,061
-612,503	42,360	-0,079	-0,052
-611,488	-200,000	0,015	-0,122
-610,474	-200,000	-0,007	-0,051
-609,459	17,023	0,063	-0,036
-608,444	348,960	-0,103	-0,150
-607,430	-200,000	0,014	0,098
-606,415	-123,974	-0,163	-0,019
-605,401	-133,999	0,139	-0,012
-604,386	85,834	0,082	0,066
-603,371	-74,573	-0,082	-0,022
-602,357	67,982	-0,137	-0,103
-601,342	-113,459	0,044	0,006
-600,328	-42,257	0,026	-0,010
-599,313	-200,000	-0,010	-0,033
-598,298	-141,646	0,149	-0,011
-597,284	52,339	0,080	0,056
-596,269	800,000	0,057	0,156
-595,255	223,736	0,122	0,144
-594,240	800,000	-0,024	-0,058
-593,225	110,668	-0,090	0,079
-592,211	-109,653	-0,067	-0,010
-591,196	-86,713	-0,037	0,008
-590,182	19,915	-0,069	-0,041
-589,167	-200,000	0,023	-0,106
-588,152	800,000	-0,025	0,062
-587,138	-200,000	0,009	-0,031
-586,123	11,983	-0,170	-0,096
-585,109	393,757	-0,051	0,078
-584,094	536,956	0,058	0,101
-583,079	52,047	0,146	0,102
-582,065	113,817	0,097	0,087
-581,050	-42,718	0,025	-0,009
-580,036	-99,001	-0,148	-0,027
-579,021	-200,000	-0,002	0,147
-578,006	21,975	-0,084	-0,050
-576,992	-87,736	0,073	-0,016
-575,977	614,268	0,067	0,123
-574,963	405,486	0,092	0,143
-573,948	47,660	-0,124	0,085
-572,934	-4,676	0,032	0,016
-571,919	-85,250	-0,050	-0,011
-570,904	24,672	0,039	0,023
-569,890	643,520	0,058	0,110
-568,875	-7,157	-0,062	0,031
-567,861	800,000	-0,046	-0,096
-566,846	-200,000	-0,007	0,049
-565,831	75,047	-0,117	-0,090
-564,817	-97,063	-0,096	0,018
-563,802	800,000	-0,085	-0,224
-562,788	-200,000	0,003	0,013
-561,773	800,000	-0,027	-0,084
-560,758	-99,986	-0,077	0,014
-559,744	-200,000	-0,006	0,114
-558,729	66,030	-0,099	0,074
-557,715	-34,669	0,026	0,010
-556,700	43,225	-0,062	-0,041
-555,685	678,409	-0,082	0,156
-554,671	131,746	-0,097	0,092
-553,656	-200,000	-0,009	0,051
-552,642	625,571	-0,056	-0,103
-551,627	800,000	-0,035	0,108
-550,612	-200,000	0,029	0,182
-549,598	38,340	-0,076	-0,050
-548,583	17,557	-0,110	0,064
-547,569	-200,000	0,009	-0,079
-546,554	-78,219	-0,018	0,004
-545,539	436,317	0,018	0,029
-544,525	-200,000	-0,028	-0,161
-543,510	12,952	0,068	-0,039
-542,496	800,000	-0,046	-0,108
-541,481	28,313	0,114	-0,070
-540,466	16,616	-0,122	-0,070
-539,452	96,949	0,033	0,028
-538,437	248,978	0,085	0,106
-537,423	-200,000	0,024	-0,091
-536,408	343,626	-0,069	0,100
-535,393	-142,618	0,109	-0,008
-534,379	-200,000	-0,018	0,097
-533,364	110,042	-0,080	-0,070
-532,350	-200,000	0,012	0,132
-531,335	220,603	0,092	0,109
-530,321	-200,000	-0,017	-0,106
-529,306	28,071	-0,107	-0,066
-528,291	-78,194	0,105	0,026
-527,277	-200,000	-0,007	-0,038
-526,262	31,811	0,092	-0,058
-525,248	62,569	-0,065	-0,047
-524,233	800,000	0,019	-0,040
-523,218	-200,000	-0,000	0,097
-522,204	126,745	0,039	-0,036
-521,189	-122,841	-0,143	-0,017
-520,175	-181,686	-0,043	-0,001
-519,160	-200,000	0,011	0,052
-518,145	365,097	0,050	0,073
-517,131	192,353	-0,067	0,074
-516,116	311,390	0,022	-0,030
-515,102	-4,765	-0,083	0,042
-514,087	-6,080	0,072	0,036
-513,072	189,204	0,033	-0,036
-512,058	410,689	-0,033	-0,051
-511,043	-200,000	0,022	0,077
-510,029	-108,881	-0,026	0,004
-509,014	119,366	0,140	0,126
-507,999	653,387	-0,021	0,039
-506,985	186,534	0,062	0,067
-505,970	29,395	-0,086	-0,053
-504,956	800,000	0,038	-0,101
-503,941	-51,717	-0,089	0,030
-502,926	-35,749	0,130	-0,051
-501,912	-200,000	0,000	0,127
-500,897	98,041	0,130	0,110
-499,883	-200,000	-0,029	0,107
-498,868	341,345	0,035	-0,051
-497,853	-200,000	-0,015	-0,116
-496,839	-200,000	0,012	-0,071
-495,824	62,191	0,030	-0,022
-494,810	162,068	-0,063	0,064
-493,795	171,412	-0,061	0,064
-492,781	139,656	0,110	0,106
-491,766	800,000	-0,015	0,044
-490,751	-200,000	-0,004	-0,079
-489,737	223,184	0,070	-0,082
-488,722	346,938	0,086	0,124
-487,708	90,196	-0,100	0,082
-486,693	438,243	0,041	-0,066
-485,678	-94,056	-0,137	0,027
-484,664	-66,588	-0,088	0,025
-483,649	266,242	-0,075	-0,095
-482,635	-200,000	0,003	-0,065
-481,620	800,000	-0,057	0,121
-480,605	800,000	0,067	0,177
-479,591	39,174	0,022	-0,014
-478,576	-200,000	0,017	0,099
-477,562	800,000	-0,048	-0,100
-476,547	93,996	-0,083	-0,069
-475,532	-200,000	0,006	-0,029
-474,518	43,689	0,100	0,066
-473,503	246,227	-0,114	0,140
-472,489	-200,000	0,013	-0,116
-471,474	-200,000	0,032	-0,159
-470,459	417,426	0,010	-0,015
-469,445	359,103	-0,034	0,050
-468,430	800,000	-0,024	0,055
-467,416	-200,000	0,026	0,085
-466,401	663,825	0,115	0,218
-465,386	354,626	0,097	0,142
-464,372	-78,125	0,163	-0,041
-463,357	-200,000	0,033	-0,179
-462,343	800,000	-0,053	0,158
-461,328	-126,583	0,045	0,005
-460,313	800,000	0,061	-0,124
-459,299	14,657	0,114	-0,065
-458,284	-200,000	0,025	-0,108
-457,270	529,032	-0,073	0,126
-456,255	-93,350	0,021	-0,004
-455,241	-200,000	0,028	-0,190
-454,226	800,000	0,025	-0,074
-453,211	-12,652	0,118	-0,056
-452,197	-69,750	0,048	-0,013
-451,182	116,570	-0,057	0,051
-450,168	409,980	0,058	-0,090
-449,153	788,066	0,019	-0,039
-448,138	-200,000	-0,010	-0,086
-447,124	-200,000	-0,013	0,047
-446,109	-200,000	0,011	-0,102
-445,095	710,903	0,065	0,126
-444,080	-149,978	0,169	0,009
-443,065	-1,867	0,102	0,052
-442,051	800,000	0,043	-0,111
-441,036	153,122	-0,112	0,111
-440,022	-200,000	-0,017	0,122
-439,007	160,769	-0,075	-0,076
-437,992	60,741	-0,090	0,065
-436,978	-53,283	-0,080	-0,027
-435,963	77,525	0,006	-0,005
-434,949	430,819	0,043	-0,068
-433,934	-154,470	0,050	-0,002
-432,919	800,000	0,062	0,168
-431,905	-153,680	-0,041	0,002
-430,890	4,482	-0,132	-0,070
-429,876	22,097	0,056	0,033
-428,861	-200,000	0,000	0,133
-427,846	-128,728	-0,094	-0,010
-426,832	-53,976	0,085	0,028
-425,817	22,318	-0,037	0,022
-424,803	-128,377	0,097	-0,010
-423,788	-132,697	0,113	-0,010
-422,773	325,609	0,037	0,052
-421,759	-106,452	-0,019	0,003
-420,744	-200,000	0,020	-0,067
-419,730	-65,366	-0,048	-0,014
-418,715	386,851	-0,053	-0,081
-417,701	-200,000	-0,015	-0,052
-416,686	65,641	0,098	-0,072
-415,671	-135,917	0,056	-0,005
-414,657	-200,000	-0,009	0,062
-413,642	-200,000	-0,016	0,085
-412,628	-200,000	0,016	-0,084
-411,613	-200,000	-0,030	-0,157
-410,598	137,607	-0,042	-0,040
-409,584	545,798	0,092	-0,160
-408,569	345,565	0,084	0,120
-407,555	-38,403	0,110	0,042
-406,540	350,547	0,029	0,042
-405,525	-177,032	0,068	-0,001
-404,511	-200,000	-0,025	-0,134
-403,496	-200,000	-0,038	0,227
-402,482	-200,000	-0,000	0,042
-401,467	-33,695	0,040	0,016
-400,452	-160,336	0,175	0,007
-399,438	365,621	-0,031	0,046
-398,423	89,043	-0,112	0,091
-397,409	-200,000	0,001	-0,073
-396,394	-74,839	-0,066	0,017
-395,379	-122,119	0,041	-0,005
-394,365	-200,000	-0,018	0,149
-393,350	-24,201	0,055	-0,024
-392,336	-102,769	0,049	0,008
-391,321	-44,116	-0,005	0,002
-390,306	-98,652	-0,034	0,006
-389,292	75,773	-0,072	0,055
-388,277	250,046	-0,052	-0,064
-387,263	191,670	-0,040	0,044
-386,248	800,000	-0,045	0,093
-385,233	513,702	-0,053	0,091
-384,219	-200,000	-0,031	0,124
-383,204	800,000	0,020	-0,060
-382,190	-200,000	0,032	-0,118
-381,175	650,439	-0,052	0,097
-380,160	102,509	0,168	0,143
-379,146	91,313	-0,028	0,023
-378,131	85,820	0,122	0,098
-377,117	-200,000	-0,019	0,081
-376,102	-37,580	-0,143	-0,055
-375,088	-200,000	0,021	-0,118
-374,073	706,914	0,043	-0,082
-373,058	61,978	0,051	0,037
-372,044	616,704	-0,032	0,058
-371,029	-200,000	0,013	-0,044
-370,015	606,368	0,015	0,027
-369,000	346,028	-0,086	0,123
-367,985	-5,712	0,089	-0,044
-366,971	800,000	0,017	0,039
-365,956	56,715	0,096	0,068
-364,942	-200,000	0,016	0,066
-363,927	152,992	0,044	0,044
-362,912	44,862	-0,027	-0,018
-361,898	-200,000	-0,028	-0,117
-360,883	-200,000	0,010	0,105
-359,869	800,000	-0,062	-0,141
-358,854	156,844	0,117	-0,118
-357,839	259,168	0,058	0,073
-356,825	98,523	0,084	0,070
-355,810	-24,848	-0,040	-0,017
-354,796	63,511	-0,054	0,039
-353,781	31,632	-0,089	-0,056
-352,766	800,000	-0,014	0,038
-351,752	123,314	0,051	0,046
-350,737	179,318	0,126	0,134
-349,723	-62,264	-0,033	0,010
-348,708	-200,000	0,014	-0,097
-347,693	-71,518	0,063	0,017
-346,679	132,724	-0,012	-0,012
-345,664	624,650	0,035	0,064
-344,650	-200,000	-0,001	-0,070
-343,635	-36,191	-0,127	0,050
-342,620	277,081	0,011	0,015
-341,606	-101,886	0,019	0,003
-340,591	-200,000	-0,013	0,060
-339,577	-34,398	0,121	0,048
-338,562	52,472	-0,094	-0,065
-337,548	516,880	0,008	0,014
-336,533	-57,613	0,103	0,032
-335,518	93,929	-0,030	-0,025
-334,504	800,000	0,029	0,064
-333,489	-200,000	0,012	0,040
-332,475	-200,000	0,007	-0,106
-331,460	-156,501	-0,138	0,006
-330,445	-200,000	-0,006	0,058
-329,431	32,822	-0,037	-0,023
-328,416	-200,000	0,039	0,133
-327,402	264,024	0,086	-0,108
-326,387	-53,844	-0,090	-0,030
-325,372	-200,000	0,007	-0,166
-324,358	215,230	-0,023	0,026
-323,343	6,771	-0,055	-0,030
-322,329	85,654	0,042	-0,033
-321,314	208,969	0,044	-0,050
-320,299	-184,831	0,094	0,001
-319,285	249,051	-0,051	-0,063
-318,270	-200,000	0,018	0,067
-317,256	-22,045	-0,079	0,035
-316,241	441,468	-0,038	-0,061
-315,226	113,165	0,041	-0,036
-314,212	101,312	0,057	-0,048
-313,197	-200,000	0,013	0,103
-312,183	-200,000	-0,021	0,078
-311,168	205,071	0,092	-0,104
-310,153	419,507	-0,056	-0,087
-309,139	-2,621	0,029	-0,015
-308,124	197,174	0,030	-0,033
-307,110	441,975	0,073	0,116
-306,095	323,788	-0,085	0,118
-305,080	788,295	0,025	0,050
-304,066	64,124	-0,014	0,010
-303,051	800,000	0,031	-0,098
-302,037	-200,000	0,016	-0,052
-301,022	206,369	-0,006	-0,007
-300,008	-24,405	0,122	0,052
-298,993	-101,666	0,055	-0,010
-297,978	-200,000	-0,005	0,056
-296,964	28,409	-0,068	-0,041
-295,949	800,000	0,067	-0,170
-294,935	450,446	-0,049	-0,078
-293,920	800,000	-0,012	-0,028
-292,905	-124,847	-0,132	0,015
-291,891	156,093	-0,084	0,084
-290,876	-91,059	0,114	-0,023
-289,862	249,688	0,096	-0,118
-288,847	-200,000	-0,053	-0,207
-287,832	-200,000	0,003	-0,098
-286,818	-200,000	0,008	-0,090
-285,803	-26,459	0,105	0,044
-284,789	448,194	0,065	0,104
-283,774	22,112	-0,078	-0,046
-282,759	-90,356	0,019	-0,004
-281,745	-200,000	-0,004	-0,077
-280,730	-200,000	0,001	0,197
-279,716	254,715	0,053	0,065
-278,701	-177,596	0,022	0,000
-277,686	800,000	-0,041	0,120
-276,672	25,065	-0,054	0,033
-275,657	-200,000	-0,015	0,050
-274,643	336,524	-0,085	-0,120
-273,628	485,622	0,020	-0,033
-272,613	-56,569	0,024	-0,008
-271,599	-110,070	0,091	-0,014
-270,584	597,185	-0,042	0,076
-269,570	-136,374	0,037	-0,003
-268,555	800,000	-0,037	-0,092
-267,540	-139,550	-0,114	0,009
-266,526	-78,973	-0,037	-0,009
-265,511	-29,449	-0,130	-0,054
-264,497	310,339	0,054	-0,073
-263,482	263,455	-0,027	-0,034
-262,467	193,217	0,037	0,040
-261,453	792,337	0,042	0,085
-260,438	74,137	-0,034	-0,026
-259,424	237,322	-0,064	-0,077
-258,409	175,819	-0,067	-0,071
-257,395	291,688	0,092	-0,122
-256,380	-200,000	-0,004	0,093
-255,365	-109,558	0,048	0,007
-254,351	365,640	0,053	-0,077
-253,336	800,000	0,013	0,033
-252,322	-200,000	0,002	-0,140
-251,307	118,063	0,036	0,032
-250,292	-84,820	0,104	0,023
-249,278	483,558	0,037	0,061
-248,263	566,071	-0,104	0,184
-247,249	-33,204	-0,021	0,008
-246,234	800,000	0,051	-0,104
-245,219	-200,000	-0,016	-0,096
-244,205	73,412	0,088	-0,067
-243,190	127,291	-0,009	-0,009
-242,176	451,436	0,068	-0,110
-241,161	800,000	0,016	-0,039
-240,146	6,634	0,106	0,057
-239,132	-200,000	0,015	0,083
-238,117	50,305	-0,018	0,012
-237,103	-111,538	-0,064	0,009
-236,088	-8,301	0,241	-0,117
-235,073	-200,000	-0,036	0,156
-234,059	800,000	-0,015	0,035
-233,044	-200,000	-0,035	0,134
-232,030	-48,621	-0,047	0,016
-231,015	-200,000	-0,029	-0,094
-230,000	-200,000	0,009	0,063
-228,986	-4,511	0,056	0,028
-227,971	173,687	-0,094	-0,099
-226,957	545,973	0,026	-0,045
-225,942	369,875	0,015	0,023
-224,927	800,000	-0,027	-0,067
-223,913	-35,332	-0,143	-0,056
-222,898	-116,166	-0,043	0,006
-221,884	635,603	0,102	0,189
-220,869	-200,000	0,006	0,048
-219,855	-200,000	-0,002	0,126
-218,840	-200,000	0,009	0,116
-217,825	-172,102	-0,087	-0,002
-216,811	-78,799	0,114	0,028
-215,796	657,909	-0,062	-0,116
-214,782	800,000	0,052	-0,109
-213,767	800,000	-0,018	-0,041
-212,752	-200,000	-0,014	-0,065
-211,738	-56,870	0,074	0,024
-210,723	11,371	-0,043	-0,024
-209,709	-142,193	0,097	-0,007
-208,694	-200,000	-0,028	-0,144
-207,679	498,689	0,026	-0,044
-206,665	-200,000	0,008	-0,122
-205,650	-200,000	-0,028	0,089
-204,636	127,449	0,050	-0,046
-203,621	77,286	-0,054	0,041
-202,606	265,714	-0,070	0,089
-201,592	37,817	-0,020	-0,013
-200,577	115,346	-0,095	-0,084
-199,563	-53,502	0,061	0,020
-198,548	25,014	0,031	0,019
-197,533	278,332	0,135	0,174
-196,519	-200,000	0,032	0,201
-195,504	800,000	-0,071	0,145
-194,490	456,766	-0,045	-0,073
-193,475	261,752	-0,080	-0,101
-192,460	-38,542	-0,073	-0,028
-191,446	-122,101	-0,108	0,013
-190,431	221,671	0,181	0,211
-189,417	-91,259	0,031	0,006
-188,402	328,218	-0,022	-0,031
-187,387	-166,574	0,053	-0,002
-186,373	-53,223	-0,134	-0,044
-185,358	125,652	0,028	-0,026
-184,344	-154,007	-0,035	0,002
-183,329	-200,000	0,009	-0,186
-182,315	-200,000	-0,003	0,074
-181,300	158,952	-0,058	-0,059
-180,285	-147,282	-0,148	0,009
-179,271	-165,186	-0,099	0,003
-178,256	-200,000	0,021	-0,091
-177,242	-200,000	-0,014	0,072
-176,227	-130,192	0,112	0,011
-175,212	-65,483	-0,099	-0,029
-174,198	-142,732	-0,162	-0,011
-173,183	-119,471	0,065	-0,008
-172,169	43,660	0,038	0,025
-171,154	-200,000	-0,019	-0,069
-170,139	139,754	0,123	0,117
-169,125	257,639	-0,013	-0,016
-168,110	-200,000	-0,016	-0,068
-167,096	-57,153	0,051	0,016
-166,081	54,730	-0,094	0,065
-165,066	800,000	-0,009	0,020
-164,052	800,000	0,024	-0,056
-163,037	800,000	-0,043	-0,106
-162,023	800,000	0,054	-0,115
-161,008	130,688	-0,070	0,065
-159,993	-8,620	-0,086	0,041
-158,979	32,407	-0,022	0,013
-157,964	-200,000	-0,002	-0,015
-156,950	162,086	0,132	-0,133
-155,935	-41,162	0,104	-0,039
-154,920	277,087	0,028	0,035
-153,906	-200,000	-0,003	-0,050
-152,891	-32,976	0,164	0,065
-151,877	51,815	-0,185	-0,127
-150,862	800,000	0,027	-0,081
-149,847	800,000	-0,062	-0,153
-148,833	-200,000	0,003	-0,014
-147,818	-104,302	-0,015	-0,002
-146,804	523,981	-0,037	0,063
-145,789	284,086	-0,039	0,051
-144,775	-200,000	-0,009	-0,092
-143,760	14,008	-0,138	-0,077
-142,745	-154,438	-0,035	0,002
-141,731	-147,274	-0,020	-0,001
-140,716	380,371	-0,050	-0,074
-139,702	800,000	0,088	0,191
-138,687	30,178	-0,019	-0,012
-137,672	-95,000	-0,102	0,020
-136,658	-113,803	-0,158	0,022
-135,643	367,381	-0,026	-0,038
-134,629	-200,000	0,024	0,086
-133,614	229,019	0,041	0,048
-132,599	127,050	0,090	-0,083
-131,585	-1,042	0,026	0,013
-130,570	81,927	0,069	-0,054
-129,556	-200,000	-0,033	-0,180
-128,541	-200,000	0,017	-0,074
-127,526	-53,939	-0,064	-0,021
-126,512	238,066	0,046	-0,055
-125,497	187,573	0,167	0,180
-124,483	-74,288	0,055	-0,014
-123,468	-156,977	0,120	-0,005
-122,453	-49,592	-0,166	-0,057
-121,439	101,263	-0,057	-0,048
-120,424	-27,550	0,051	-0,021
-119,410	587,087	0,055	0,098
-118,395	33,609	-0,073	-0,046
-117,380	-171,185	0,058	0,001
-116,366	127,941	0,046	-0,042
-115,351	46,154	-0,018	0,012
-114,337	210,940	0,047	0,053
-113,322	-200,000	0,018	-0,084
-112,307	-45,410	0,051	-0,018
-111,293	-200,000	-0,006	0,041
-110,278	23,757	0,019	0,011
-109,264	800,000	-0,029	0,080
-108,249	-126,596	-0,142	0,015
-107,234	-200,000	-0,026	-0,102
-106,220	6,054	-0,044	-0,023
-105,205	37,010	0,083	0,053
-104,191	-28,261	-0,064	0,027
-103,176	14,255	-0,071	0,040
-102,162	573,628	-0,006	0,011
-101,147	800,000	-0,049	0,125
-100,132	-200,000	-0,001	-0,044
-99,118	177,090	0,109	-0,114
-98,103	-69,920	-0,066	-0,018
-97,089	-22,497	0,157	-0,068
-96,074	-123,899	-0,161	0,018
-95,059	800,000	0,033	0,092
-94,045	125,404	0,018	-0,016
-93,030	-55,802	-0,116	-0,037
-92,016	86,690	-0,114	0,091
-91,001	800,000	-0,027	0,071
-89,986	104,881	-0,023	-0,020
-88,972	-63,750	-0,122	0,036
-87,957	-56,388	0,103	-0,033
-86,943	35,939	0,031	0,019
-85,928	-200,000	0,003	-0,072
-84,913	-200,000	-0,008	-0,040
-83,899	156,549	0,036	0,035
-82,884	-200,000	-0,009	-0,038
-81,870	-125,651	0,123	0,013
-80,855	-6,661	0,093	-0,045
-79,840	-52,090	-0,123	-0,041
-78,826	-200,000	-0,037	-0,166
-77,811	331,732	0,025	0,035
-76,797	160,587	0,055	0,055
-75,782	800,000	0,016	-0,038
-74,767	41,601	-0,032	-0,021
-73,753	800,000	-0,008	0,017
-72,738	42,169	-0,062	-0,041
-71,724	-21,342	-0,117	0,051
-70,709	46,481	0,128	-0,085
-69,694	-186,363	-0,112	-0,001
-68,680	669,059	-0,061	0,115
-67,665	-200,000	0,004	0,135
-66,651	-54,710	0,082	-0,026
-65,636	-200,000	0,017	0,111
-64,622	-85,319	-0,079	-0,018
-63,607	478,706	-0,042	-0,069
-62,592	-128,523	-0,063	0,006
-61,578	150,041	-0,104	0,101
-60,563	-2,449	0,151	0,076
-59,549	-152,054	0,062	0,003
-58,534	77,844	-2,720	-2,081
-57,519	54,631	0,402	-0,278
-56,505	800,000	-1,752	-5,546
-55,490	447,130	1,168	1,852
-54,476	800,000	5,120	11,379
-53,461	-200,000	22,247	347,501
-52,446	800,000	760,325	2313,176
-51,432	520,568	1648,536	2787,140
-50,417	101,592	1613,016	1349,897
-49,403	70,278	1269,518	940,878
-48,388	24,481	1019,680	604,236
-47,373	19,175	986,571	567,065
-46,359	13,216	973,608	540,056
-45,344	9,043	970,235	524,468
-44,330	9,548	968,263	525,039
-43,315	8,535	966,448	520,715
-42,300	8,421	965,401	519,757
-41,286	8,463	964,240	519,250
-40,271	8,456	963,228	518,662
-39,257	8,398	962,368	517,989
-38,242	8,397	961,537	517,516
-37,227	8,414	960,749	517,127
-36,213	8,334	959,851	516,365
-35,198	8,420	958,876	516,099
-34,184	8,524	958,104	515,999
-33,169	8,407	957,256	515,143
-32,154	8,481	956,482	514,945
-31,140	8,456	955,445	514,285
-30,125	8,426	954,866	513,858
-29,111	8,465	953,898	513,443
-28,096	8,434	953,359	513,031
-27,082	8,465	952,682	512,746
-26,067	8,435	951,951	512,235
-25,052	8,362	951,162	511,555
-24,038	8,393	950,435	511,245
-23,023	8,376	949,731	510,792
-22,009	8,457	949,115	510,699
-20,994	8,450	948,672	510,420
-19,979	8,438	948,039	510,019
-18,965	8,445	947,244	509,594
-17,950	8,432	946,828	509,309
-16,936	8,404	946,097	508,804
-15,921	8,353	945,353	508,222
-14,906	8,295	944,792	507,713
-13,892	8,359	943,954	507,447
-12,877	8,332	943,273	506,976
-11,863	8,296	942,743	506,556
-10,848	8,294	942,300	506,291
-9,833	8,416	941,759	506,371
-8,819	8,351	941,139	505,809
-7,804	8,379	940,196	505,371
-6,790	8,302	939,746	504,863
-5,775	8,346	939,220	504,701
-4,760	8,340	938,636	504,349
-3,746	8,331	937,821	503,861
-2,731	8,198	937,455	503,223
-1,717	8,173	936,549	502,639
-0,702	8,164	935,988	502,288
0,313	8,009	935,152	502,108
1,327	11,256	933,006	511,168
2,342	19,717	780,944	450,073
3,356	14,584	448,072	250,476
4,371	-11,570	311,794	146,525
5,386	-15,271	294,255	134,535
6,400	-17,278	288,171	129,757
7,415	-17,284	285,670	128,613
8,429	-17,856	283,780	127,193
9,444	-18,069	282,998	126,624
10,459	-17,836	282,369	126,557
11,473	-17,860	281,618	126,186
12,488	-17,792	281,139	126,027
13,502	-17,918	280,759	125,723
14,517	-17,529	280,302	125,881
15,531	-17,681	279,800	125,499
16,546	-17,710	279,590	125,366
17,561	-17,570	279,232	125,328
18,575	-17,557	278,962	125,208
19,590	-17,724	278,517	124,838
20,604	-17,513	278,246	124,907
21,619	-17,542	277,787	124,662
22,634	-17,561	277,452	124,482
23,648	-17,576	277,138	124,316
24,663	-17,594	276,951	124,204
25,677	-17,694	276,629	123,953
26,692	-17,518	276,359	123,988
27,707	-17,350	276,027	123,987
28,721	-17,411	275,696	123,770
29,736	-17,414	275,323	123,589
30,750	-17,528	275,308	123,463
31,765	-17,787	275,183	123,152
32,780	-17,369	274,763	123,346
33,794	-17,687	274,589	122,959
34,809	-17,331	274,054	123,042
35,823	-17,618	273,945	122,712
36,838	-17,746	273,843	122,536
37,853	-17,531	273,397	122,527
38,867	-17,536	273,282	122,460
39,882	-17,595	273,022	122,278
40,896	-17,705	272,752	122,042
41,911	-17,419	272,382	122,133
42,926	-17,358	272,166	122,082
43,940	-17,490	271,809	121,789
44,955	-17,532	271,747	121,710
45,969	-17,410	271,583	121,739
46,984	-17,374	271,417	121,687
47,999	-17,414	271,273	121,575
49,013	-17,304	270,945	121,520
50,028	-17,330	270,781	121,411
51,042	-17,412	270,516	121,206
52,057	-17,521	270,265	120,981
53,071	-17,356	270,091	121,045
54,086	-17,487	269,903	120,829
55,101	-17,337	269,588	120,815
56,115	-17,379	269,346	120,657
57,130	-17,561	269,142	120,388
58,144	-17,594	268,773	120,182
59,159	-17,415	268,574	120,247
60,174	-17,564	268,464	120,050
61,188	-17,534	268,105	119,906
62,203	-17,415	267,946	119,933
63,217	-17,474	267,774	119,792
64,232	-17,517	267,465	119,603
65,247	-17,424	267,082	119,506
66,261	-17,629	267,018	119,280
67,276	-17,422	266,717	119,324
68,290	-17,503	266,529	119,155
69,305	-17,375	266,331	119,172
70,320	-17,436	266,146	119,024
71,334	-17,282	265,885	119,036
72,349	-17,543	265,689	118,700
73,363	-17,464	265,395	118,631
74,378	-17,371	265,018	118,535
75,393	-17,429	264,844	118,394
76,407	-17,482	264,603	118,229
77,422	-17,404	264,579	118,278
78,436	-17,354	264,141	118,116
79,451	-17,501	264,012	117,916
80,466	-17,532	263,756	117,763
81,480	-17,346	263,613	117,856
82,495	-17,470	263,557	117,709
83,509	-17,510	263,365	117,577
84,524	-17,349	262,949	117,525
85,539	-17,240	262,756	117,526
86,553	-17,407	262,630	117,310
87,568	-17,510	262,409	117,108
88,582	-17,383	262,073	117,061
89,597	-17,339	261,935	117,028
90,611	-17,516	261,800	116,800
91,626	-17,530	261,615	116,694
92,641	-17,418	261,237	116,615
93,655	-17,380	261,234	116,637
94,670	-17,516	260,960	116,383
95,684	-17,409	260,670	116,339
96,699	-17,474	260,354	116,130
97,714	-17,415	260,122	116,068
98,728	-17,388	260,223	116,127
99,743	-17,322	259,942	116,049
100,757	-17,450	259,734	115,833
101,772	-17,557	259,433	115,594
102,787	-17,349	259,310	115,712
103,801	-17,196	258,969	115,685
104,816	-17,435	258,917	115,441
105,830	-17,622	258,713	115,174
106,845	-17,431	258,461	115,221
107,860	-17,546	258,325	115,049
108,874	-17,335	257,904	115,036
109,889	-17,580	257,984	114,847
110,903	-17,440	257,590	114,783
111,918	-17,262	257,404	114,846
112,933	-17,353	257,190	114,660
113,947	-17,398	256,875	114,470
114,962	-17,573	256,913	114,324
115,976	-17,417	256,657	114,336
116,991	-17,543	256,396	114,101
118,006	-17,287	256,204	114,227
119,020	-17,411	256,012	114,024
120,035	-17,528	255,861	113,845
121,049	-17,401	255,762	113,901
122,064	-17,463	255,552	113,743
123,079	-17,490	255,268	113,583
124,093	-17,366	255,217	113,658
125,108	-17,441	255,035	113,502
126,122	-17,194	254,608	113,516
127,137	-17,317	254,492	113,347
128,151	-17,284	254,358	113,306
129,166	-17,297	254,047	113,146
130,181	-17,253	253,988	113,148
131,195	-17,330	253,670	112,930
132,210	-17,390	253,511	112,797
133,224	-17,323	253,328	112,763
134,239	-17,439	253,150	112,574
135,254	-17,416	252,905	112,475
136,268	-17,519	252,736	112,301
137,283	-17,446	252,600	112,294
138,297	-17,194	252,357	112,391
139,312	-17,451	252,163	112,075
140,327	-17,271	251,862	112,085
141,341	-17,283	251,621	111,957
142,356	-17,574	251,528	111,658
143,370	-17,545	251,368	111,602
144,385	-17,560	251,260	111,531
145,400	-17,346	250,836	111,515
146,414	-17,465	250,850	111,410
147,429	-17,393	250,629	111,363
148,443	-17,377	250,238	111,193
149,458	-17,365	250,344	111,240
150,473	-17,640	250,098	110,888
151,487	-17,415	249,876	110,970
152,502	-17,433	249,877	110,945
153,516	-17,407	249,296	110,700
154,531	-17,457	249,308	110,653
155,546	-17,470	249,001	110,495
156,560	-17,480	249,019	110,485
157,575	-17,358	248,639	110,410
158,589	-17,321	248,437	110,342
159,604	-17,408	248,241	110,171
160,619	-17,355	248,189	110,183
161,633	-17,253	247,832	110,100
162,648	-17,210	247,767	110,098
163,662	-17,298	247,605	109,942
164,677	-17,236	247,374	109,882
165,692	-17,358	247,256	109,718
166,706	-17,397	247,187	109,644
167,721	-17,460	247,011	109,504
168,735	-17,555	246,841	109,339
169,750	-17,510	246,849	109,371
170,764	-17,232	246,487	109,433
171,779	-17,499	246,257	109,098
172,794	-17,251	246,135	109,241
173,808	-17,302	245,935	109,100
174,823	-17,354	245,738	108,959
175,837	-17,405	245,701	108,891
176,852	-17,278	245,446	108,874
177,867	-17,195	245,322	108,877
178,881	-17,255	245,075	108,709
179,896	-17,435	244,878	108,463
180,910	-17,459	244,776	108,388
181,925	-17,327	244,405	108,323
182,940	-17,392	244,336	108,229
183,954	-17,286	244,109	108,206
184,969	-17,326	244,087	108,154
185,983	-17,206	243,911	108,166
186,998	-17,334	243,853	108,024
188,013	-17,324	243,386	107,816
189,027	-17,244	243,303	107,835
190,042	-17,460	242,981	107,506
191,056	-17,377	242,908	107,532
192,071	-17,358	242,826	107,502
193,086	-17,574	242,606	107,218
194,100	-17,460	242,307	107,170
195,115	-17,381	242,308	107,224
196,129	-17,274	242,032	107,181
197,144	-17,340	241,857	107,039
198,159	-17,313	241,648	106,960
199,173	-17,349	241,524	106,866
200,188	-17,599	241,414	106,604
201,202	-17,147	241,136	106,840
202,217	-17,198	241,115	106,779
203,232	-17,029	240,877	106,801
204,246	-17,460	240,538	106,292
205,261	-17,641	240,293	106,027
206,275	-16,219	240,729	107,365
207,290	-11,629	242,630	111,957
208,304	-5,055	244,520	118,225
209,319	-2,028	245,052	120,960
210,334	-1,165	245,401	121,831
211,348	-0,060	245,512	122,784
212,363	0,475	245,597	123,255
213,377	0,957	245,641	123,663
214,392	1,116	245,530	123,726
215,407	1,311	245,573	123,897
216,421	1,464	245,430	123,939
217,436	1,528	245,292	123,911
218,450	1,495	245,033	123,742
219,465	1,442	244,982	123,662
220,480	1,410	244,595	123,429
221,494	1,343	244,599	123,366
222,509	1,010	244,094	122,828
223,523	0,863	243,933	122,617
224,538	0,750	243,718	122,406
225,553	0,971	243,563	122,496
226,567	0,802	243,562	122,348
227,582	0,840	243,234	122,203
228,596	0,813	243,200	122,153
229,611	0,845	243,006	122,070
230,626	0,785	242,895	121,955
231,640	0,840	242,639	121,860
232,655	0,880	242,421	121,772
233,669	0,475	242,305	121,376
234,684	0,571	242,096	121,337
235,699	0,527	242,094	121,290
236,713	0,597	241,924	121,251
237,728	0,715	241,775	121,260
238,742	0,709	241,459	121,086
239,757	0,662	241,336	120,976
240,772	0,479	241,304	120,802
241,786	0,771	240,955	120,851
242,801	0,725	240,924	120,788
243,815	0,701	240,834	120,713
244,830	0,902	240,513	120,703
245,844	0,498	240,571	120,396
246,859	0,659	240,298	120,378
247,874	0,725	240,252	120,397
248,888	0,825	239,870	120,275
249,903	0,774	239,865	120,221
250,917	0,863	239,736	120,216
251,932	0,874	239,659	120,176
252,947	0,858	239,415	120,030
253,961	0,813	239,186	119,869
254,976	0,513	239,151	119,602
255,990	0,524	239,135	119,592
257,005	0,860	238,782	119,672
258,020	0,746	238,594	119,477
259,034	0,833	238,393	119,434
260,049	0,693	238,252	119,242
261,063	0,563	238,320	119,162
262,078	0,638	238,073	119,087
263,093	0,682	237,817	118,983
264,107	0,636	237,678	118,867
265,122	0,721	237,570	118,870
266,136	0,587	237,404	118,670
267,151	0,779	237,221	118,720
268,166	0,805	237,070	118,654
269,180	0,688	236,862	118,447
270,195	0,673	236,860	118,424
271,209	0,664	236,604	118,278
272,224	0,720	236,454	118,237
273,239	0,720	236,281	118,140
274,253	0,775	236,147	118,105
275,268	0,704	235,932	117,932
276,282	0,485	235,888	117,727
277,297	0,651	235,656	117,731
278,312	0,705	235,476	117,672
279,326	0,695	235,495	117,664
280,341	0,832	235,168	117,597
281,355	0,825	234,957	117,475
282,370	0,880	234,852	117,456
283,384	0,643	234,821	117,244
284,399	0,774	234,586	117,219
285,414	0,953	234,514	117,312
286,428	0,714	234,380	117,049
287,443	0,833	234,139	117,010
288,457	0,687	234,056	116,845
289,472	0,757	233,832	116,777
290,487	0,855	233,788	116,820
291,501	0,940	233,560	116,762
292,516	0,771	233,470	116,576
293,530	0,729	233,364	116,480
294,545	0,705	233,218	116,378
295,560	0,929	233,147	116,505
296,574	0,880	232,976	116,372
297,589	0,953	232,698	116,279
298,603	0,673	232,579	115,993
299,618	0,747	232,498	116,000
300,633	0,826	232,181	115,892
301,647	0,960	232,163	115,975
302,662	1,046	231,983	115,941
303,676	1,079	231,848	115,889
304,691	0,979	231,664	115,710
305,706	0,786	231,648	115,544
306,720	0,874	231,569	115,561
307,735	0,965	231,383	115,528
308,749	0,938	231,218	115,415
309,764	1,086	231,020	115,419
310,779	0,986	230,869	115,256
311,793	1,033	230,653	115,175
312,808	1,006	230,544	115,089
313,822	0,992	230,389	114,991
314,837	0,918	230,242	114,850
315,852	1,182	230,121	114,981
316,866	1,174	229,922	114,866
317,881	1,150	229,764	114,758
318,895	1,188	229,620	114,705
319,910	1,013	229,443	114,473
320,925	1,000	229,348	114,406
321,939	1,055	229,142	114,334
322,954	0,813	229,194	114,166
323,968	1,105	228,926	114,244
324,983	1,019	228,701	114,057
325,997	1,052	228,592	114,017
327,012	0,912	228,565	113,887
328,027	0,883	228,467	113,807
329,041	0,994	228,238	113,766
330,056	0,938	228,194	113,692
331,070	1,018	227,971	113,631
332,085	1,068	227,691	113,519
333,100	0,916	227,696	113,397
334,114	0,986	227,441	113,313
335,129	0,988	227,206	113,187
336,143	0,941	227,188	113,132
337,158	1,057	226,892	113,061
338,173	0,999	226,972	113,048
339,187	1,048	226,729	112,954
340,202	1,265	226,538	113,011
341,216	1,223	226,323	112,862
342,231	0,831	226,249	112,523
343,246	1,325	226,206	112,860
344,260	1,252	226,068	112,727
345,275	1,223	225,946	112,634
346,289	1,277	225,663	112,524
347,304	1,016	225,598	112,286
348,319	1,037	225,374	112,181
349,333	1,181	225,348	112,265
350,348	0,820	225,230	111,927
351,362	1,385	224,972	112,209
352,377	1,272	224,670	111,964
353,392	1,190	224,696	111,906
354,406	0,942	224,568	111,649
355,421	192,101	1312,615	1379,080
356,435	153,842	1445,043	1378,929
