DTS Sentinel unit serial number:	SN410029Multiplexer serial number:	ORYXHardware model number:	OX2-SRSoftware version number:	ORYX F/W v4,00 Oryx Data Collector v3.7.2.0data status	okinstallation	B5 Nyhavnadifferential loss correction	single-endedforward channel	channel 2reverse channel	N/Adate	2023/12/13time	22:47:13forward acquisition time	300,00reverse acquisition time	0,00gamma	499,1914k internal	0,3154k external	0,3154temperature offset calibration	1,0000default loss term (dB/km)	0,3820temperature slope calibration	1,0000multiplexer offset coefficient	1,0000multiplexer slope coefficient	1,0000fibre end	0,00T internal ref (°C)	9,19T ext. ref 1 (°C)	-7,50T ext. ref 2 (°C)	-7,51length (m)	temperature (°C)	Stokes	anti-Stokes-744,400	-0,312	0,097	-0,051
-743,385	-121,473	-0,447	-0,054
-742,371	161,825	-0,021	0,022
-741,356	33,880	-0,194	-0,124
-740,342	-85,039	0,081	0,019
-739,327	-192,534	-0,328	0,002
-738,312	263,593	0,105	0,135
-737,298	2,194	-0,353	-0,188
-736,283	-171,017	0,312	0,008
-735,269	-93,597	-0,356	-0,072
-734,254	13,572	0,171	0,098
-733,239	-30,187	-0,373	-0,156
-732,225	-74,020	0,285	0,076
-731,210	-85,557	-0,073	-0,017
-730,196	-11,229	-0,194	-0,094
-729,181	468,318	-0,023	0,039
-728,167	-138,985	0,177	-0,014
-727,152	-200,000	-0,000	0,070
-726,137	-200,000	-0,026	-0,093
-725,123	211,342	-0,068	-0,079
-724,108	-5,745	0,156	0,079
-723,094	-177,871	-0,098	-0,002
-722,079	800,000	-0,057	-0,146
-721,064	131,953	0,056	0,053
-720,050	-200,000	0,005	0,103
-719,035	-200,000	-0,020	-0,096
-718,021	-118,525	-0,046	0,006
-717,006	800,000	-0,023	0,053
-715,991	-200,000	0,014	-0,110
-714,977	800,000	-0,065	-0,196
-713,962	33,659	-0,121	-0,077
-712,948	-200,000	-0,004	0,093
-711,933	5,660	-0,020	0,011
-710,918	22,277	-0,098	-0,059
-709,904	-28,266	-0,038	0,016
-708,889	-200,000	-0,016	-0,068
-707,875	8,033	0,034	-0,019
-706,860	-3,852	0,110	0,056
-705,845	402,510	-0,056	0,087
-704,831	530,523	-0,057	0,100
-703,816	-46,294	0,051	-0,018
-702,802	-99,833	-0,024	0,004
-701,787	-116,908	-0,126	0,017
-700,772	-200,000	0,008	-0,097
-699,758	92,514	0,074	-0,062
-698,743	-200,000	0,012	0,044
-697,729	800,000	-0,024	0,064
-696,714	-57,636	0,089	0,029
-695,699	566,992	-0,014	-0,025
-694,685	-118,317	-0,105	-0,014
-693,670	800,000	-0,035	0,075
-692,656	-145,648	-0,065	-0,004
-691,641	-143,198	-0,190	-0,013
-690,627	-200,000	0,023	0,185
-689,612	205,932	-0,064	0,074
-688,597	-47,934	0,121	-0,043
-687,583	-97,187	-0,078	-0,015
-686,568	290,573	-0,027	0,036
-685,554	523,036	-0,020	0,035
-684,539	76,927	0,024	-0,018
-683,524	201,358	0,045	0,051
-682,510	-200,000	0,035	0,200
-681,495	244,011	-0,127	-0,157
-680,481	-200,000	-0,007	0,047
-679,466	226,200	-0,100	-0,120
-678,451	-200,000	0,025	-0,140
-677,437	162,953	0,013	-0,014
-676,422	-182,417	0,096	-0,001
-675,408	-200,000	-0,020	-0,101
-674,393	293,977	0,075	-0,101
-673,378	152,718	-0,063	-0,063
-672,364	-200,000	-0,021	-0,072
-671,349	13,637	-0,097	-0,055
-670,335	56,932	0,080	0,058
-669,320	20,477	0,088	-0,052
-668,305	-200,000	0,032	0,126
-667,291	800,000	0,043	-0,094
-666,276	800,000	-0,046	-0,104
-665,262	342,481	-0,091	-0,132
-664,247	-50,461	0,095	-0,033
-663,232	379,618	-0,028	-0,043
-662,218	-17,890	0,064	0,030
-661,203	-151,904	0,016	0,001
-660,189	-200,000	-0,044	0,255
-659,174	69,240	-0,130	-0,098
-658,159	174,585	-0,026	0,028
-657,145	-29,817	-0,087	-0,036
-656,130	-14,789	0,097	-0,046
-655,116	-200,000	0,030	-0,163
-654,101	800,000	-0,046	0,114
-653,086	256,363	-0,022	-0,027
-652,072	-200,000	0,021	-0,114
-651,057	-200,000	0,000	-0,106
-650,043	22,756	-0,098	-0,059
-649,028	79,108	0,054	-0,042
-648,014	800,000	-0,033	-0,074
-646,999	-200,000	-0,023	0,094
-645,984	704,389	-0,033	0,064
-644,970	-200,000	-0,009	-0,059
-643,955	-124,138	-0,077	0,009
-642,941	317,133	-0,077	-0,108
-641,926	34,750	0,104	0,067
-640,911	-158,322	0,049	-0,002
-639,897	53,200	-0,050	-0,035
-638,882	89,153	-0,064	0,052
-637,868	362,813	-0,027	-0,040
-636,853	210,190	-0,033	-0,038
-635,838	34,238	0,100	0,064
-634,824	163,317	0,064	-0,066
-633,809	-123,999	0,082	-0,009
-632,795	-200,000	0,027	0,103
-631,780	-173,959	-0,047	0,001
-630,765	-200,000	0,006	0,027
-629,751	7,417	0,100	0,055
-628,736	226,327	-0,113	-0,135
-627,722	-175,550	0,062	0,001
-626,707	-95,768	0,051	0,010
-625,692	-82,070	0,124	0,030
-624,678	36,377	-0,058	-0,038
-623,663	-200,000	-0,025	0,137
-622,649	112,107	0,065	-0,058
-621,634	306,328	-0,033	-0,046
-620,619	505,439	0,077	-0,132
-619,605	39,930	0,008	-0,005
-618,590	374,842	0,087	-0,130
-617,576	-14,598	-0,058	-0,027
-616,561	620,893	0,039	0,071
-615,546	-11,349	-0,094	0,045
-614,532	-200,000	0,035	0,120
-613,517	-144,675	-0,126	-0,008
-612,503	-103,389	-0,053	0,009
-611,488	177,154	0,076	-0,081
-610,474	262,558	0,017	-0,022
-609,459	-200,000	-0,015	-0,050
-608,444	16,871	-0,061	-0,036
-607,430	409,234	0,136	-0,212
-606,415	800,000	0,032	-0,081
-605,401	-200,000	-0,034	0,118
-604,386	-67,076	0,022	-0,006
-603,371	-25,302	0,118	0,051
-602,357	155,731	-0,106	-0,107
-601,342	-117,503	-0,010	0,001
-600,328	237,593	0,021	0,026
-599,313	-84,913	-0,033	0,008
-598,298	-55,526	-0,051	-0,017
-597,284	-34,133	0,103	-0,041
-596,269	173,089	-0,077	0,081
-595,255	-11,356	-0,107	0,051
-594,240	-99,146	-0,055	-0,010
-593,225	-64,544	0,068	-0,020
-592,211	651,260	0,070	0,132
-591,196	257,855	-0,114	-0,144
-590,182	-35,703	0,110	-0,043
-589,167	162,912	0,169	0,175
-588,152	220,844	-0,061	-0,072
-587,138	-122,766	-0,030	-0,004
-586,123	-43,782	-0,114	-0,042
-585,109	359,309	-0,054	-0,079
-584,094	-68,137	0,099	0,028
-583,079	467,221	-0,005	0,009
-582,065	-200,000	0,007	-0,049
-581,050	101,450	-0,143	0,122
-580,036	-91,935	-0,117	0,024
-579,021	189,038	0,064	-0,071
-578,006	-200,000	-0,015	0,075
-576,992	666,142	0,022	0,042
-575,977	54,094	-0,025	-0,017
-574,963	-200,000	0,012	0,072
-573,948	147,904	-0,032	-0,032
-572,934	700,034	-0,045	0,087
-571,919	8,508	0,044	0,024
-570,904	146,229	0,019	-0,019
-569,890	207,473	0,098	-0,112
-568,875	160,524	0,071	0,073
-567,861	-200,000	-0,002	0,091
-566,846	54,121	0,015	0,011
-565,831	-106,731	-0,125	-0,020
-564,817	-200,000	0,095	0,000
-563,802	800,000	-0,042	-0,110
-562,788	800,000	0,056	0,176
-561,773	78,428	-0,157	-0,123
-560,758	55,956	-0,075	-0,053
-559,744	-176,486	-0,035	0,001
-558,729	800,000	0,034	0,105
-557,715	800,000	-0,047	-0,133
-556,700	-24,315	0,089	0,039
-555,685	70,602	-0,103	-0,078
-554,671	82,467	0,051	-0,041
-553,656	800,000	0,039	0,118
-552,642	800,000	0,038	0,084
-551,627	-93,671	-0,156	-0,031
-550,612	122,244	0,054	-0,050
-549,598	800,000	-0,061	-0,136
-548,583	-200,000	0,022	0,083
-547,569	42,634	-0,012	-0,008
-546,554	-7,368	-0,057	0,028
-545,539	162,067	-0,123	0,126
-544,525	762,911	0,055	-0,109
-543,510	-40,487	0,019	-0,007
-542,496	-87,818	0,075	0,016
-541,481	113,122	-0,098	-0,087
-540,466	800,000	0,024	-0,054
-539,452	-25,269	0,087	-0,038
-538,437	-200,000	0,017	0,091
-537,423	-200,000	0,000	-0,035
-536,408	27,375	0,084	0,052
-535,393	764,332	0,081	-0,162
-534,379	400,446	-0,109	-0,168
-533,364	135,366	-0,059	-0,057
-532,350	51,725	-0,135	-0,094
-531,335	214,624	0,022	-0,026
-530,321	800,000	0,053	-0,155
-529,306	-200,000	0,003	-0,028
-528,291	800,000	0,064	-0,168
-527,277	525,211	-0,044	0,075
-526,262	-107,971	-0,099	-0,016
-525,248	-88,886	0,012	0,002
-524,233	44,660	0,133	0,089
-523,218	57,460	0,060	-0,043
-522,204	-68,641	-0,130	-0,036
-521,189	75,490	0,034	-0,027
-520,175	40,477	-0,113	0,074
-519,160	800,000	-0,005	0,015
-518,145	-200,000	0,000	-0,001
-517,131	-125,507	0,044	-0,005
-516,116	132,690	-0,056	0,053
-515,102	-20,671	0,073	-0,033
-514,087	-0,761	-0,055	0,028
-513,072	70,007	-0,016	-0,012
-512,058	246,969	0,041	-0,050
-511,043	-62,956	-0,093	-0,028
-510,029	-200,000	0,016	0,170
-509,014	-200,000	0,055	0,178
-507,999	167,578	-0,100	-0,104
-506,985	-24,267	0,022	0,010
-505,970	-200,000	0,011	-0,055
-504,956	203,792	-0,113	-0,128
-503,941	-29,878	-0,074	-0,031
-502,926	190,511	-0,080	0,088
-501,912	-0,168	0,125	0,065
-500,897	-55,847	-0,079	-0,025
-499,883	110,367	0,159	-0,139
-498,868	-41,174	-0,166	-0,062
-497,853	-99,664	0,058	-0,010
-496,839	29,463	0,083	0,052
-495,824	-144,766	-0,097	0,006
-494,810	-200,000	0,005	0,031
-493,795	-200,000	-0,004	0,029
-492,781	81,209	0,022	0,017
-491,766	-44,381	-0,034	-0,012
-490,751	518,262	0,039	-0,067
-489,737	-33,978	-0,071	-0,029
-488,722	-93,450	0,084	-0,017
-487,708	800,000	0,045	0,093
-486,693	-68,597	0,063	0,018
-485,678	157,706	-0,049	0,050
-484,664	-56,543	0,031	0,010
-483,649	-96,947	0,051	0,010
-482,635	-200,000	-0,001	-0,154
-481,620	-62,830	0,083	-0,025
-480,605	800,000	0,015	0,035
-479,591	41,999	-0,037	0,025
-478,576	-200,000	0,005	0,035
-477,562	-200,000	0,003	-0,108
-476,547	17,454	0,124	-0,071
-475,532	-200,000	-0,005	-0,135
-474,518	-78,464	0,090	-0,022
-473,503	172,230	-0,072	-0,076
-472,489	-57,118	0,050	0,016
-471,474	3,495	-0,060	-0,032
-470,459	126,107	0,101	0,094
-469,445	-200,000	0,012	-0,151
-468,430	-137,073	0,055	-0,005
-467,416	-200,000	0,006	0,059
-466,401	-61,139	-0,074	-0,023
-465,386	198,553	-0,159	0,178
-464,372	-200,000	-0,002	-0,088
-463,357	336,481	-0,051	0,072
-462,343	143,363	0,085	-0,083
-461,328	118,484	-0,038	0,035
-460,313	-200,000	-0,014	0,117
-459,299	-32,890	0,110	0,045
-458,284	-200,000	0,032	0,126
-457,270	667,030	-0,014	-0,026
-456,255	193,190	0,046	-0,050
-455,241	-154,762	0,121	0,006
-454,226	-145,567	0,099	0,006
-453,211	50,684	0,073	0,050
-452,197	-119,355	-0,088	-0,011
-451,182	-200,000	-0,024	0,144
-450,168	800,000	0,079	-0,167
-449,153	800,000	0,033	0,088
-448,138	-14,110	-0,119	-0,056
-447,124	-160,753	-0,055	0,002
-446,109	-200,000	-0,019	0,068
-445,095	-55,772	0,054	0,017
-444,080	155,542	-0,036	0,036
-443,065	314,136	-0,033	0,046
-442,051	-47,203	0,185	0,066
-441,036	438,169	-0,067	-0,106
-440,022	-54,533	-0,072	-0,024
-439,007	-200,000	-0,002	0,025
-437,992	435,209	0,042	-0,066
-436,978	1,551	0,030	0,016
-435,963	-122,078	0,022	0,003
-434,949	20,912	-0,068	-0,040
-433,934	-70,499	-0,099	-0,027
-432,919	191,557	-0,097	-0,106
-431,905	-65,194	-0,051	-0,015
-430,890	53,170	-0,066	-0,046
-429,876	800,000	-0,040	0,091
-428,861	-7,229	0,058	0,029
-427,846	-28,748	0,035	-0,015
-426,832	293,229	-0,030	0,041
-425,817	-147,437	-0,194	-0,012
-424,803	147,428	0,072	-0,070
-423,788	-200,000	0,005	-0,029
-422,773	800,000	0,034	-0,109
-421,759	-51,557	-0,137	0,046
-420,744	-156,196	-0,078	-0,004
-419,730	86,078	0,119	-0,095
-418,715	37,611	-0,062	0,040
-417,701	-98,471	0,067	-0,012
-416,686	-66,943	-0,125	-0,036
-415,671	-5,531	0,055	0,028
-414,657	127,431	-0,060	-0,056
-413,642	-154,810	0,066	0,003
-412,628	-88,540	-0,083	0,018
-411,613	-36,603	-0,114	-0,044
-410,598	23,224	0,148	-0,088
-409,584	327,471	0,029	0,040
-408,569	-159,876	0,017	0,001
-407,555	-69,182	-0,151	0,042
-406,540	-200,000	-0,046	0,170
-405,525	-13,297	-0,025	-0,012
-404,511	-167,264	-0,078	-0,002
-403,496	-200,000	0,023	0,080
-402,482	36,259	0,047	-0,030
-401,467	5,128	-0,149	-0,079
-400,452	8,884	-0,009	0,005
-399,438	28,911	0,088	0,054
-398,423	-107,819	-0,093	0,015
-397,409	117,820	0,127	-0,114
-396,394	31,465	-0,144	0,090
-395,379	494,939	0,049	-0,083
-394,365	-39,170	0,103	0,039
-393,350	254,321	0,058	-0,072
-392,336	800,000	-0,022	-0,059
-391,321	800,000	0,070	-0,173
-390,306	800,000	-0,044	-0,111
-389,292	-73,978	0,133	0,035
-388,277	280,882	0,025	0,033
-387,263	30,358	-0,025	0,015
-386,248	-111,225	-0,050	0,007
-385,233	800,000	-0,016	0,045
-384,219	800,000	0,042	-0,098
-383,204	800,000	0,019	-0,055
-382,190	800,000	-0,044	-0,120
-381,175	-200,000	0,000	-0,016
-380,160	40,202	-0,143	-0,094
-379,146	800,000	0,032	0,084
-378,131	-200,000	0,003	-0,117
-377,117	-200,000	-0,014	-0,054
-376,102	90,071	-0,025	-0,020
-375,088	70,203	-0,057	0,043
-374,073	-99,943	0,031	-0,006
-373,058	800,000	0,006	-0,018
-372,044	800,000	-0,021	-0,066
-371,029	-75,797	-0,233	0,060
-370,015	248,196	0,020	-0,025
-369,000	-77,412	0,044	0,011
-367,985	800,000	-0,038	0,095
-366,971	-68,848	0,070	0,020
-365,956	40,148	0,075	0,049
-364,942	-73,011	-0,118	-0,031
-363,927	321,818	-0,004	-0,006
-362,912	-173,080	-0,030	0,001
-361,898	175,448	-0,065	-0,069
-360,883	50,808	-0,061	0,042
-359,869	-200,000	0,039	-0,158
-358,854	43,175	0,056	-0,037
-357,839	-200,000	0,012	0,043
-356,825	-38,219	-0,006	-0,002
-355,810	-200,000	0,011	0,069
-354,796	-200,000	-0,010	-0,141
-353,781	-200,000	-0,003	-0,044
-352,766	800,000	-0,019	0,045
-351,752	442,858	-0,065	0,104
-350,737	-200,000	0,009	-0,082
-349,723	-200,000	-0,008	0,103
-348,708	-200,000	-0,001	0,083
-347,693	381,575	-0,070	0,104
-346,679	-133,687	-0,115	0,010
-345,664	-16,347	0,074	0,034
-344,650	-20,002	0,127	0,057
-343,635	-46,208	0,159	-0,057
-342,620	132,980	0,061	-0,057
-341,606	544,656	0,046	-0,080
-340,591	-200,000	-0,009	0,061
-339,577	618,910	0,044	-0,080
-338,562	-200,000	0,001	-0,036
-337,548	107,338	0,048	0,041
-336,533	99,442	0,169	0,142
-335,518	210,089	0,125	-0,143
-334,504	-200,000	0,048	0,162
-333,489	469,058	-0,032	0,052
-332,475	-4,299	-0,047	0,024
-331,460	-37,192	0,019	0,007
-330,445	141,277	-0,054	0,052
-329,431	-57,722	0,048	-0,015
-328,416	145,203	0,062	-0,060
-327,402	-11,862	0,098	0,046
-326,387	-200,000	0,001	0,063
-325,372	101,787	-0,079	-0,067
-324,358	-160,186	0,073	-0,003
-323,343	-71,806	0,090	-0,024
-322,329	-200,000	-0,014	0,081
-321,314	66,139	-0,041	0,030
-320,299	800,000	-0,057	0,129
-319,285	-200,000	-0,019	-0,105
-318,270	189,994	-0,040	-0,044
-317,256	466,658	0,042	-0,069
-316,241	321,652	0,046	-0,063
-315,226	800,000	-0,008	0,019
-314,212	-200,000	0,018	0,105
-313,197	800,000	0,086	0,191
-312,183	18,613	0,073	0,042
-311,168	-102,068	-0,083	-0,014
-310,153	399,830	0,032	-0,050
-309,139	-66,621	-0,126	-0,036
-308,124	-24,798	-0,141	-0,061
-307,110	-77,478	0,115	-0,029
-306,095	375,085	0,101	0,150
-305,080	-200,000	-0,004	0,087
-304,066	800,000	-0,021	0,055
-303,051	-188,087	-0,021	-0,000
-302,037	-34,695	-0,114	-0,045
-301,022	800,000	0,023	-0,064
-300,008	800,000	0,031	0,083
-298,993	800,000	0,031	0,087
-297,978	357,804	-0,088	0,128
-296,964	-119,671	0,055	-0,007
-295,949	-133,052	0,158	0,014
-294,935	123,844	-0,116	-0,105
-293,920	800,000	0,014	-0,034
-292,905	800,000	0,010	0,023
-291,891	-200,000	-0,013	0,113
-290,876	800,000	-0,015	0,040
-289,862	-108,586	0,018	-0,003
-288,847	108,936	-0,082	-0,071
-287,832	-52,025	0,095	0,032
-286,818	89,096	-0,012	-0,010
-285,803	-200,000	0,023	0,093
-284,789	249,630	-0,060	-0,074
-283,774	123,724	-0,066	0,060
-282,759	79,922	0,126	-0,098
-281,745	-105,208	-0,095	-0,016
-280,730	-91,765	-0,048	-0,010
-279,716	-200,000	0,028	-0,173
-278,701	190,877	0,006	0,006
-277,686	22,105	0,044	0,026
-276,672	7,772	0,090	0,049
-275,657	-71,257	-0,096	0,026
-274,643	61,606	-0,089	0,064
-273,628	190,034	0,059	-0,064
-272,613	800,000	0,030	-0,079
-271,599	-70,842	0,052	0,014
-270,584	414,136	0,065	-0,100
-269,570	60,351	0,136	0,098
-268,555	50,114	0,223	0,152
-267,540	-200,000	-0,012	-0,049
-266,526	-200,000	0,005	0,043
-265,511	-0,148	0,106	0,054
-264,497	-5,501	-0,070	-0,035
-263,482	16,003	0,074	0,042
-262,467	243,626	-0,031	0,037
-261,453	-143,127	-0,122	-0,008
-260,438	1,380	-0,063	0,033
-259,424	-200,000	-0,001	-0,050
-258,409	-129,489	0,033	0,003
-257,395	800,000	0,041	0,082
-256,380	800,000	0,062	0,141
-255,365	800,000	-0,032	0,072
-254,351	800,000	0,021	0,055
-253,336	412,050	-0,062	0,096
-252,322	800,000	-0,018	-0,039
-251,307	-190,383	-0,169	-0,001
-250,292	-105,841	0,066	0,011
-249,278	-200,000	-0,022	0,095
-248,263	-152,739	0,127	-0,006
-247,249	-111,484	0,107	0,016
-246,234	-175,114	0,136	-0,003
-245,219	-200,000	0,012	0,078
-244,205	-200,000	-0,006	0,089
-243,190	97,059	0,055	-0,046
-242,176	-138,181	0,091	-0,007
-241,161	48,980	0,141	0,096
-240,146	-116,313	-0,078	0,010
-239,132	800,000	-0,040	0,117
-238,117	197,338	0,032	0,036
-237,103	34,359	0,139	-0,087
-236,088	-90,715	0,049	-0,010
-235,073	-41,725	-0,046	-0,017
-234,059	-50,017	0,122	0,042
-233,044	800,000	0,012	-0,038
-232,030	37,876	-0,018	-0,012
-231,015	73,712	-0,048	0,036
-230,000	301,675	-0,062	0,083
-228,986	253,388	-0,024	-0,030
-227,971	-131,461	-0,075	0,007
-226,957	-143,070	-0,122	0,008
-225,942	-39,300	-0,121	0,046
-224,927	800,000	0,036	-0,090
-223,913	-69,641	-0,065	0,018
-222,898	-11,869	0,039	0,018
-221,884	311,724	-0,008	0,011
-220,869	-200,000	0,002	0,057
-219,855	140,165	0,063	-0,060
-218,840	-200,000	0,001	-0,033
-217,825	-36,157	-0,143	-0,055
-216,811	800,000	-0,056	-0,125
-215,796	-200,000	-0,015	0,066
-214,782	-200,000	0,012	-0,046
-213,767	120,725	-0,103	0,092
-212,752	-125,216	0,072	0,008
-211,738	800,000	-0,037	-0,099
-210,723	-185,104	-0,118	0,001
-209,709	800,000	0,026	0,073
-208,694	800,000	0,079	0,172
-207,679	128,284	-0,077	0,071
-206,665	310,807	-0,072	-0,098
-205,650	149,585	0,156	0,153
-204,636	623,467	0,014	-0,025
-203,621	-34,277	-0,079	-0,031
-202,606	-38,080	-0,053	0,020
-201,592	800,000	-0,031	-0,063
-200,577	-122,476	0,153	-0,018
-199,563	800,000	0,017	0,035
-198,548	-200,000	-0,023	0,114
-197,533	30,911	-0,067	-0,042
-196,519	-95,965	0,044	0,008
-195,504	57,845	-0,091	-0,064
-194,490	18,245	-0,100	0,058
-193,475	-163,959	0,070	0,002
-192,460	-200,000	-0,007	0,069
-191,446	156,778	0,067	-0,067
-190,431	53,225	-0,016	-0,011
-189,417	-46,298	0,029	0,010
-188,402	389,706	0,051	0,076
-187,387	-200,000	0,013	-0,062
-186,373	-200,000	-0,025	-0,080
-185,358	790,696	0,045	-0,090
-184,344	133,008	0,062	0,058
-183,329	16,295	-0,066	-0,038
-182,315	-200,000	0,002	-0,049
-181,300	141,609	-0,069	-0,066
-180,285	343,665	0,072	-0,102
-179,271	475,015	-0,054	0,089
-178,256	-109,952	0,087	0,013
-177,242	134,063	-0,103	0,096
-176,227	-200,000	0,005	0,113
-175,212	-95,215	0,054	0,011
-174,198	-9,758	0,025	-0,012
-173,183	199,028	0,030	-0,034
-172,169	-167,111	-0,113	0,003
-171,154	-79,606	0,060	0,014
-170,139	1,397	0,092	-0,047
-169,125	-132,083	-0,116	-0,011
-168,110	-200,000	-0,036	0,149
-167,096	-200,000	-0,014	0,049
-166,081	-56,709	-0,096	0,030
-165,066	-200,000	0,010	-0,174
-164,052	217,845	-0,040	-0,046
-163,037	-5,964	0,080	-0,039
-162,023	46,701	0,069	0,046
-161,008	800,000	-0,022	0,057
-159,993	800,000	-0,087	0,206
-158,979	-200,000	-0,019	-0,072
-157,964	-200,000	-0,021	-0,070
-156,950	-10,759	0,078	0,037
-155,935	-200,000	0,021	-0,084
-154,920	800,000	-0,030	0,079
-153,906	20,659	0,030	-0,017
-152,891	191,870	-0,068	0,074
-151,877	3,708	-0,060	0,032
-150,862	800,000	0,059	-0,152
-149,847	-200,000	0,008	-0,055
-148,833	90,088	-0,006	0,005
-147,818	-200,000	-0,003	0,039
-146,804	-200,000	-0,009	-0,097
-145,789	-200,000	0,012	-0,088
-144,775	-200,000	-0,003	0,014
-143,760	-102,067	0,090	0,016
-142,745	-200,000	0,008	-0,087
-141,731	800,000	0,071	0,177
-140,716	187,481	-0,047	0,051
-139,702	649,893	-0,096	0,178
-138,687	-5,388	0,097	0,048
-137,672	10,060	-0,155	0,085
-136,658	-200,000	0,010	-0,045
-135,643	54,578	-0,094	0,065
-134,629	-122,041	0,071	0,008
-133,614	129,984	0,048	0,045
-132,599	-29,067	0,092	-0,038
-131,585	62,693	-0,106	-0,076
-130,570	361,576	-0,130	-0,189
-129,556	-48,518	-0,034	-0,012
-128,541	-162,391	0,127	0,004
-127,526	800,000	0,029	0,060
-126,512	717,773	-0,061	0,117
-125,497	800,000	0,031	0,066
-124,483	261,955	0,043	0,054
-123,468	-122,720	-0,083	-0,010
-122,453	800,000	-0,005	0,013
-121,439	-200,000	0,000	0,012
-120,424	59,930	-0,067	-0,047
-119,410	800,000	-0,033	-0,069
-118,395	-200,000	0,014	-0,068
-117,380	800,000	0,060	-0,133
-116,366	55,425	-0,075	0,052
-115,351	70,534	-0,130	-0,096
-114,337	50,845	-0,099	0,067
-113,322	-200,000	0,000	0,143
-112,307	-200,000	-0,027	0,097
-111,293	-200,000	-0,036	0,119
-110,278	-200,000	-0,004	-0,048
-109,264	-100,466	-0,089	0,016
-108,249	-200,000	0,007	-0,097
-107,234	-109,977	-0,110	-0,016
-106,220	-200,000	0,017	-0,067
-105,205	-200,000	-0,024	-0,096
-104,191	689,615	0,065	-0,122
-103,176	43,549	0,066	-0,043
-102,162	67,632	-0,091	-0,067
-101,147	52,479	-0,018	0,012
-100,132	-147,705	-0,098	-0,006
-99,118	197,431	0,063	-0,069
-98,103	-200,000	0,001	0,021
-97,089	-200,000	0,017	-0,068
-96,074	-89,305	0,083	0,018
-95,059	345,462	-0,030	-0,042
-94,045	-200,000	-0,036	-0,190
-93,030	10,875	0,099	0,054
-92,016	-200,000	0,025	-0,098
-91,001	306,073	0,059	-0,079
-89,986	216,017	0,073	-0,084
-88,972	200,688	0,145	0,160
-87,957	-0,157	0,116	0,059
-86,943	800,000	0,040	0,093
-85,928	-37,709	-0,098	0,037
-84,913	173,232	-0,022	0,023
-83,899	-200,000	-0,010	0,044
-82,884	-200,000	-0,012	-0,096
-81,870	125,864	0,075	0,068
-80,855	-200,000	0,023	-0,099
-79,840	800,000	0,043	0,118
-78,826	-200,000	0,008	0,060
-77,811	453,182	0,068	-0,108
-76,797	800,000	-0,014	0,038
-75,782	-200,000	0,002	0,022
-74,767	800,000	0,059	0,124
-73,753	800,000	-0,019	0,041
-72,738	800,000	-0,026	0,079
-71,724	-121,670	-0,061	-0,007
-70,709	26,654	-0,062	-0,037
-69,694	230,251	-0,077	-0,090
-68,680	-62,352	0,185	0,055
-67,665	534,325	0,055	0,094
-66,651	164,827	-0,048	0,049
-65,636	390,584	0,083	-0,124
-64,622	800,000	-0,046	-0,107
-63,607	-119,994	0,059	0,007
-62,592	472,752	-0,075	0,122
-61,578	68,211	0,027	0,020
-60,563	-77,089	-0,027	0,007
-59,549	69,589	-0,032	0,023
-58,534	62,018	-2,490	-1,782
-57,519	388,975	0,285	-0,426
-56,505	-200,000	-1,557	-5,370
-55,490	383,870	1,006	1,493
-54,476	800,000	5,433	11,770
-53,461	-200,000	21,593	338,276
-52,446	800,000	761,267	2299,320
-51,432	514,843	1657,202	2789,768
-50,417	105,515	1623,536	1377,954
-49,403	75,795	1277,675	969,196
-48,388	26,355	1024,516	613,671
-47,373	19,336	990,098	569,781
-46,359	13,857	977,503	544,476
-45,344	9,859	974,182	529,437
-44,330	10,379	972,210	530,055
-43,315	9,339	970,317	525,586
-42,300	9,236	969,131	524,584
-41,286	9,238	968,082	524,000
-40,271	9,235	966,975	523,372
-39,257	9,183	966,415	522,878
-38,242	9,183	965,476	522,350
-37,227	9,138	964,748	521,788
-36,213	9,184	963,828	521,418
-35,198	9,162	963,139	520,952
-34,184	9,266	962,253	520,792
-33,169	9,166	961,312	519,939
-32,154	9,242	960,267	519,597
-31,140	9,289	959,295	519,206
-30,125	9,282	958,745	518,862
-29,111	9,294	957,946	518,451
-28,096	9,217	957,491	517,933
-27,082	9,273	956,692	517,661
-26,067	9,215	955,963	517,060
-25,052	9,186	955,158	516,509
-24,038	9,205	954,287	516,079
-23,023	9,244	953,664	515,849
-22,009	9,239	953,254	515,589
-20,994	9,275	952,533	515,296
-19,979	9,200	952,234	514,871
-18,965	9,225	951,241	514,394
-17,950	9,218	950,771	514,098
-16,936	9,171	949,978	513,498
-15,921	9,130	949,388	513,025
-14,906	9,131	948,653	512,611
-13,892	9,112	948,048	512,204
-12,877	9,086	947,200	511,642
-11,863	9,097	946,757	511,418
-10,848	9,175	945,997	511,236
-9,833	9,219	945,537	511,109
-8,819	9,122	945,002	510,488
-7,804	9,144	944,305	510,161
-6,790	9,088	943,711	509,642
-5,775	9,153	943,199	509,553
-4,760	9,184	942,431	509,215
-3,746	9,065	942,130	508,655
-2,731	8,979	941,271	507,896
-1,717	8,923	940,706	507,394
-0,702	9,010	940,020	507,279
0,313	8,790	939,444	507,035
1,327	12,425	937,112	517,258
2,342	21,404	785,909	457,499
3,356	16,564	451,224	255,314
4,371	-10,608	313,213	148,265
5,386	-14,402	295,575	136,057
6,400	-16,634	289,423	130,995
7,415	-16,487	286,834	129,956
8,429	-16,958	285,016	128,660
9,444	-17,259	284,195	127,985
10,459	-16,977	283,665	128,009
11,473	-17,167	282,961	127,496
12,488	-16,955	282,429	127,450
13,502	-17,028	281,995	127,172
14,517	-16,772	281,489	127,180
15,531	-16,896	281,159	126,899
16,546	-16,753	280,800	126,864
17,561	-16,779	280,515	126,699
18,575	-16,652	280,120	126,632
19,590	-16,589	279,674	126,480
20,604	-16,686	279,512	126,301
21,619	-16,698	279,207	126,140
22,634	-16,644	278,777	125,987
23,648	-16,731	278,446	125,744
24,663	-16,642	278,239	125,724
25,677	-16,582	277,920	125,626
26,692	-16,658	277,609	125,401
27,707	-16,524	277,286	125,372
28,721	-16,646	277,159	125,187
29,736	-16,634	276,714	124,986
30,750	-16,733	276,554	124,809
31,765	-16,733	276,469	124,760
32,780	-16,620	275,947	124,620
33,794	-16,706	276,034	124,566
34,809	-16,588	275,590	124,466
35,823	-16,784	275,392	124,181
36,838	-16,541	275,047	124,243
37,853	-16,628	274,743	124,013
38,867	-16,619	274,528	123,913
39,882	-16,527	274,181	123,832
40,896	-16,543	274,081	123,761
41,911	-16,427	273,700	123,687
42,926	-16,572	273,567	123,479
43,940	-16,521	273,341	123,414
44,955	-16,686	273,058	123,121
45,969	-16,650	272,989	123,113
46,984	-16,684	272,834	123,000
47,999	-16,483	272,434	122,996
49,013	-16,452	272,468	123,029
50,028	-16,478	272,100	122,828
51,042	-16,459	271,777	122,689
52,057	-16,408	271,562	122,628
53,071	-16,440	271,595	122,603
54,086	-16,590	271,286	122,313
55,101	-16,466	271,002	122,289
56,115	-16,541	270,606	122,030
57,130	-16,801	270,605	121,778
58,144	-16,661	270,093	121,667
59,159	-16,723	269,935	121,527
60,174	-16,672	269,658	121,438
61,188	-16,693	269,508	121,340
62,203	-16,635	269,180	121,235
63,217	-16,535	269,122	121,290
64,232	-16,673	268,900	121,052
65,247	-16,731	268,701	120,899
66,261	-16,609	268,337	120,836
67,276	-16,454	268,163	120,889
68,290	-16,581	267,829	120,612
69,305	-16,655	267,692	120,472
70,320	-16,595	267,636	120,491
71,334	-16,578	267,215	120,306
72,349	-16,672	266,846	120,043
73,363	-16,609	266,753	120,048
74,378	-16,737	266,496	119,805
75,393	-16,746	266,193	119,650
76,407	-16,594	265,988	119,685
77,422	-16,593	265,727	119,559
78,436	-16,431	265,515	119,599
79,451	-16,672	265,386	119,312
80,466	-16,514	265,071	119,302
81,480	-16,602	264,945	119,156
82,495	-16,632	264,782	119,045
83,509	-16,481	264,593	119,085
84,524	-16,488	264,308	118,940
85,539	-16,625	264,260	118,784
86,553	-16,498	263,890	118,722
87,568	-16,485	263,631	118,607
88,582	-16,535	263,407	118,450
89,597	-16,477	263,342	118,463
90,611	-16,665	263,148	118,196
91,626	-16,652	262,908	118,089
92,641	-16,487	262,661	118,116
93,655	-16,553	262,564	118,003
94,670	-16,594	262,153	117,770
95,684	-16,563	261,995	117,717
96,699	-16,698	261,793	117,495
97,714	-16,530	261,595	117,545
98,728	-16,640	261,465	117,378
99,743	-16,420	261,166	117,430
100,757	-16,633	260,984	117,148
101,772	-16,378	260,861	117,308
102,787	-16,587	260,583	116,988
103,801	-16,720	260,390	116,773
104,816	-16,596	260,207	116,790
105,830	-16,573	260,044	116,727
106,845	-16,701	259,859	116,520
107,860	-16,532	259,507	116,502
108,874	-16,676	259,329	116,284
109,889	-16,619	259,070	116,208
110,903	-16,669	258,963	116,106
111,918	-16,541	258,759	116,116
112,933	-16,710	258,560	115,868
113,947	-16,563	258,335	115,886
114,962	-16,769	258,145	115,610
115,976	-16,602	257,922	115,646
116,991	-16,518	257,752	115,633
118,006	-16,688	257,679	115,441
119,020	-16,611	257,412	115,378
120,035	-16,674	257,295	115,261
121,049	-16,469	257,050	115,320
122,064	-16,583	256,768	115,083
123,079	-16,712	256,678	114,920
124,093	-16,569	256,404	114,912
125,108	-16,487	256,340	114,944
126,122	-16,363	256,096	114,933
127,137	-16,345	255,959	114,877
128,151	-16,562	255,666	114,546
129,166	-16,478	255,464	114,519
130,181	-16,523	255,428	114,453
131,195	-16,606	255,095	114,222
132,210	-16,473	254,807	114,198
133,224	-16,694	254,704	113,950
134,239	-16,591	254,502	113,939
135,254	-16,607	254,301	113,825
136,268	-16,581	253,906	113,660
137,283	-16,459	253,909	113,756
138,297	-16,327	253,701	113,767
139,312	-16,303	253,456	113,668
140,327	-16,608	253,184	113,273
141,341	-16,582	252,993	113,200
142,356	-16,671	252,931	113,086
143,370	-16,708	252,604	112,898
144,385	-16,557	252,443	112,945
145,400	-16,715	252,384	112,774
146,414	-16,618	252,110	112,724
147,429	-16,566	251,815	112,626
148,443	-16,569	251,746	112,583
149,458	-16,574	251,642	112,522
150,473	-16,602	251,390	112,376
151,487	-16,468	251,131	112,364
152,502	-16,528	250,926	112,211
153,516	-16,569	250,789	112,104
154,531	-16,515	250,586	112,050
155,546	-16,609	250,388	111,872
156,560	-16,509	250,294	111,905
157,575	-16,591	250,060	111,721
158,589	-16,609	249,762	111,562
159,604	-16,537	249,660	111,568
160,619	-16,508	249,423	111,476
161,633	-16,516	249,263	111,388
162,648	-16,397	249,139	111,423
163,662	-16,559	248,903	111,171
164,677	-16,471	248,773	111,177
165,692	-16,657	248,552	110,912
166,706	-16,591	248,485	110,927
167,721	-16,416	248,315	110,989
168,735	-16,695	248,102	110,649
169,750	-16,568	248,105	110,748
170,764	-16,597	247,908	110,625
171,779	-16,496	247,531	110,532
172,794	-16,683	247,517	110,360
173,808	-16,540	247,229	110,341
174,823	-16,379	247,204	110,455
175,837	-16,469	246,972	110,266
176,852	-16,449	246,728	110,164
177,867	-16,489	246,564	110,047
178,881	-16,452	246,249	109,928
179,896	-16,599	246,361	109,845
180,910	-16,733	246,152	109,631
181,925	-16,506	245,861	109,680
182,940	-16,510	245,676	109,584
183,954	-16,421	245,488	109,565
184,969	-16,470	245,407	109,478
185,983	-16,551	245,154	109,289
186,998	-16,473	245,030	109,288
188,013	-16,599	244,980	109,152
189,027	-16,632	244,565	108,930
190,042	-16,553	244,396	108,910
191,056	-16,538	244,321	108,879
192,071	-16,575	244,124	108,751
193,086	-16,603	243,790	108,570
194,100	-16,608	243,665	108,500
195,115	-16,498	243,551	108,530
196,129	-16,541	243,310	108,378
197,144	-16,412	243,004	108,337
198,159	-16,511	242,905	108,203
199,173	-16,632	242,901	108,092
200,188	-16,546	242,652	108,042
201,202	-16,527	242,520	107,989
202,217	-16,478	242,265	107,906
203,232	-16,473	242,089	107,822
204,246	-16,608	241,761	107,557
205,261	-17,228	241,554	106,949
206,275	-15,816	241,830	108,214
207,290	-11,084	243,761	112,957
208,304	-4,292	245,708	119,461
209,319	-1,266	246,442	122,308
210,334	-0,295	246,694	123,225
211,348	0,608	247,046	124,137
212,363	1,191	246,966	124,567
213,377	1,592	246,938	124,873
214,392	2,014	246,896	125,189
215,407	2,273	246,785	125,335
216,421	2,097	246,792	125,183
217,436	2,467	246,505	125,331
218,450	2,219	246,426	125,075
219,465	2,110	246,143	124,831
220,480	1,939	246,049	124,631
221,494	1,767	245,749	124,327
222,509	1,523	245,417	123,948
223,523	1,257	245,130	123,574
224,538	1,307	244,892	123,484
225,553	1,219	244,842	123,376
226,567	1,223	244,630	123,261
227,582	1,120	244,501	123,101
228,596	1,187	244,244	123,015
229,611	1,209	244,142	122,971
230,626	1,270	243,929	122,903
231,640	0,985	243,899	122,645
232,655	0,920	243,699	122,480
233,669	1,023	243,593	122,500
234,684	0,988	243,361	122,343
235,699	1,159	243,196	122,388
236,713	1,251	242,954	122,330
237,728	1,079	242,955	122,180
238,742	1,267	242,678	122,183
239,757	1,066	242,406	121,872
240,772	1,156	242,296	121,879
241,786	1,213	242,175	121,853
242,801	1,296	241,979	121,811
243,815	1,250	242,011	121,779
244,830	1,020	241,870	121,511
245,844	1,302	241,542	121,563
246,859	1,232	241,391	121,420
247,874	1,290	241,250	121,384
248,888	1,001	241,163	121,097
249,903	1,070	241,036	121,078
250,917	1,272	240,915	121,170
251,932	1,376	240,653	121,110
252,947	1,326	240,458	120,961
253,961	1,237	240,342	120,820
254,976	1,139	240,152	120,636
255,990	1,417	239,962	120,752
257,005	1,010	240,044	120,457
258,020	1,156	239,807	120,443
259,034	1,167	239,705	120,390
260,049	1,108	239,633	120,296
261,063	1,125	239,300	120,132
262,078	1,272	239,126	120,151
263,093	1,112	239,035	119,967
264,107	1,231	238,854	119,961
265,122	0,968	238,759	119,693
266,136	1,250	238,539	119,796
267,151	1,285	238,286	119,686
268,166	1,064	238,161	119,438
269,180	0,980	238,003	119,281
270,195	1,080	237,906	119,301
271,209	1,315	237,707	119,376
272,224	1,142	237,522	119,135
273,239	1,308	237,434	119,213
274,253	1,233	237,274	119,062
275,268	1,286	237,132	119,022
276,282	1,059	236,987	118,760
277,297	1,188	236,681	118,697
278,312	1,192	236,732	118,716
279,326	1,429	236,543	118,797
280,341	1,157	236,395	118,498
281,355	1,118	236,204	118,361
282,370	1,144	236,122	118,330
283,384	1,024	235,903	118,116
284,399	1,078	235,737	118,064
285,414	1,123	235,633	118,037
286,428	1,023	235,466	117,864
287,443	1,174	235,369	117,923
288,457	1,264	235,237	117,917
289,472	1,356	234,846	117,782
290,487	1,067	234,782	117,515
291,501	1,233	234,564	117,524
292,516	1,160	234,580	117,465
293,530	0,983	234,472	117,262
294,545	1,170	234,306	117,314
295,560	1,505	234,151	117,486
296,574	1,148	233,857	117,052
297,589	1,128	233,704	116,949
298,603	1,134	233,644	116,913
299,618	1,258	233,607	116,980
300,633	1,263	233,391	116,866
301,647	1,378	233,283	116,890
302,662	1,393	233,005	116,752
303,676	1,432	232,960	116,749
304,691	1,441	232,917	116,724
305,706	1,126	232,707	116,365
306,720	1,551	232,497	116,578
307,735	1,422	232,415	116,426
308,749	1,544	232,042	116,324
309,764	1,300	231,985	116,097
310,779	1,408	231,765	116,059
311,793	1,150	231,786	115,861
312,808	1,300	231,668	115,907
313,822	1,177	231,392	115,664
314,837	1,435	231,233	115,772
315,852	1,571	231,065	115,782
316,866	1,261	231,050	115,527
317,881	1,462	230,878	115,584
318,895	1,348	230,640	115,368
319,910	1,540	230,348	115,358
320,925	1,554	230,255	115,312
321,939	1,261	230,221	115,061
322,954	1,275	230,093	114,997
323,968	1,399	229,905	114,988
324,983	1,509	229,799	115,009
325,997	1,424	229,588	114,827
327,012	1,321	229,528	114,709
328,027	1,525	229,216	114,698
329,041	1,380	229,245	114,592
330,056	1,254	229,090	114,409
331,070	1,559	228,823	114,496
332,085	1,351	228,776	114,305
333,100	1,284	228,702	114,207
334,114	1,398	228,301	114,082
335,129	1,302	228,322	114,011
336,143	1,280	228,151	113,898
337,158	1,167	228,138	113,797
338,173	1,547	227,852	113,930
339,187	1,502	227,746	113,833
340,202	1,608	227,523	113,791
341,216	1,769	227,373	113,827
342,231	1,234	227,377	113,416
343,246	1,316	227,194	113,377
344,260	1,639	227,053	113,539
345,275	1,512	226,932	113,373
346,289	1,583	226,802	113,351
347,304	1,652	226,652	113,318
348,319	1,439	226,389	113,016
349,333	1,336	226,335	112,903
350,348	1,363	226,203	112,847
351,362	1,478	226,082	112,862
352,377	1,436	225,826	112,693
353,392	1,498	225,775	112,704
354,406	1,209	225,629	112,406
355,421	193,928	1312,763	1385,409
356,435	155,413	1445,093	1385,271
