DTS Sentinel unit serial number:	SN410029Multiplexer serial number:	ORYXHardware model number:	OX2-SRSoftware version number:	ORYX F/W v4,00 Oryx Data Collector v3.7.2.0data status	okinstallation	B5 Nyhavnadifferential loss correction	single-endedforward channel	channel 2reverse channel	N/Adate	2023/12/14time	10:47:13forward acquisition time	300,00reverse acquisition time	0,00gamma	499,1914k internal	0,3161k external	0,3161temperature offset calibration	1,0000default loss term (dB/km)	0,3820temperature slope calibration	1,0000multiplexer offset coefficient	1,0000multiplexer slope coefficient	1,0000fibre end	0,00T internal ref (°C)	7,06T ext. ref 1 (°C)	-8,34T ext. ref 2 (°C)	-8,38length (m)	temperature (°C)	Stokes	anti-Stokes-744,400	87,925	0,155	0,126
-743,385	-152,299	-0,339	0,018
-742,371	-79,771	0,236	0,058
-741,356	-155,782	-0,473	-0,022
-740,342	160,896	0,181	0,186
-739,327	-103,797	-0,311	-0,053
-738,312	-200,000	-0,008	0,072
-737,298	-82,041	-0,428	-0,102
-736,283	-30,410	0,061	-0,026
-735,269	-58,878	-0,273	-0,086
-734,254	153,474	0,115	0,116
-733,239	-16,464	-0,448	-0,208
-732,225	21,082	0,273	0,162
-731,210	3,757	-0,078	0,042
-730,196	184,946	-0,027	-0,030
-729,181	-124,153	-0,216	-0,025
-728,167	-9,170	0,124	0,061
-727,152	60,172	0,052	-0,038
-726,137	-143,836	-0,108	-0,007
-725,123	-112,192	-0,079	0,012
-724,108	277,518	-0,063	-0,082
-723,094	232,906	-0,065	-0,078
-722,079	244,439	-0,065	-0,081
-721,064	-200,000	0,058	0,278
-720,050	-5,105	-0,125	0,063
-719,035	105,032	-0,065	0,056
-718,021	110,149	-0,083	0,074
-717,006	128,031	-0,035	-0,033
-715,991	154,651	-0,138	-0,139
-714,977	-200,000	-0,025	-0,127
-713,962	800,000	-0,014	0,028
-712,948	800,000	-0,026	-0,058
-711,933	606,790	0,062	-0,113
-710,918	-40,972	0,122	-0,046
-709,904	20,334	-0,086	-0,051
-708,889	745,038	0,077	-0,153
-707,875	-200,000	-0,056	-0,194
-706,860	546,323	-0,007	0,012
-705,845	342,541	-0,025	-0,037
-704,831	224,526	-0,081	0,097
-703,816	-31,387	-0,175	-0,072
-702,802	226,818	0,040	-0,048
-701,787	-116,378	-0,115	-0,015
-700,772	171,979	0,157	0,166
-699,758	77,538	0,045	-0,035
-698,743	-47,939	0,221	0,078
-697,729	-120,714	0,059	0,007
-696,714	-200,000	-0,004	0,117
-695,699	258,147	-0,059	-0,075
-694,685	800,000	-0,011	0,026
-693,670	178,021	-0,086	-0,092
-692,656	-200,000	-0,023	0,077
-691,641	-200,000	0,019	0,222
-690,627	549,950	-0,081	0,144
-689,612	-91,937	0,054	0,011
-688,597	129,203	0,082	0,077
-687,583	-114,915	-0,092	-0,013
-686,568	8,377	-0,081	-0,045
-685,554	-97,951	-0,135	-0,025
-684,539	800,000	-0,023	-0,057
-683,524	323,809	0,064	0,091
-682,510	-200,000	-0,003	0,055
-681,495	318,851	-0,042	-0,059
-680,481	-200,000	-0,019	0,095
-679,466	-200,000	-0,035	-0,169
-678,451	-128,946	-0,058	-0,006
-677,437	253,508	-0,039	-0,049
-676,422	61,966	0,017	0,012
-675,408	-200,000	-0,006	-0,023
-674,393	-20,889	-0,070	-0,031
-673,378	-108,292	-0,133	0,021
-672,364	-200,000	-0,025	0,089
-671,349	361,513	0,049	-0,073
-670,335	-200,000	-0,000	-0,053
-669,320	-77,529	0,118	-0,030
-668,305	800,000	-0,024	-0,058
-667,291	403,573	-0,041	-0,063
-666,276	800,000	-0,048	-0,109
-665,262	-88,352	0,107	0,023
-664,247	576,039	0,072	-0,130
-663,232	567,579	0,049	-0,087
-662,218	254,607	-0,044	0,055
-661,203	413,646	-0,054	-0,085
-660,189	800,000	0,020	0,043
-659,174	175,433	-0,071	0,076
-658,159	-107,334	-0,044	0,007
-657,145	800,000	-0,009	0,021
-656,130	134,371	0,065	0,062
-655,116	800,000	-0,050	-0,110
-654,101	800,000	-0,041	0,126
-653,086	-200,000	0,061	0,273
-652,072	-28,357	-0,157	0,066
-651,057	148,362	-0,106	-0,106
-650,043	-200,000	-0,005	-0,145
-649,028	800,000	-0,014	-0,039
-648,014	224,656	0,011	-0,013
-646,999	90,443	-0,131	-0,108
-645,984	-124,886	0,136	-0,015
-644,970	800,000	-0,049	0,133
-643,955	-117,128	-0,198	-0,026
-642,941	-200,000	-0,010	-0,124
-641,926	800,000	-0,026	-0,077
-640,911	800,000	0,037	0,117
-639,897	800,000	0,009	-0,019
-638,882	266,273	0,112	0,143
-637,868	161,716	0,057	-0,058
-636,853	51,456	-0,175	-0,122
-635,838	-114,698	0,153	-0,021
-634,824	176,240	-0,072	0,076
-633,809	-200,000	-0,005	-0,050
-632,795	-200,000	-0,017	0,074
-631,780	-77,018	-0,076	0,019
-630,765	309,736	-0,094	-0,129
-629,751	634,002	0,027	-0,050
-628,736	38,577	-0,099	0,065
-627,722	89,480	0,097	0,079
-626,707	171,057	-0,085	0,089
-625,692	-44,536	-0,129	-0,047
-624,678	483,652	0,071	0,119
-623,663	35,510	0,071	-0,046
-622,649	218,263	-0,029	-0,034
-621,634	-200,000	0,005	-0,069
-620,619	-130,128	0,052	-0,005
-619,605	92,615	-0,049	0,040
-618,590	800,000	0,039	-0,088
-617,576	25,377	-0,048	-0,029
-616,561	-200,000	0,029	-0,115
-615,546	800,000	0,011	-0,028
-614,532	-18,566	0,069	-0,031
-613,517	-200,000	0,004	-0,051
-612,503	235,710	-0,076	0,092
-611,488	263,016	0,110	-0,140
-610,474	148,479	0,094	0,093
-609,459	1,790	0,023	0,012
-608,444	18,085	-0,100	0,058
-607,430	97,644	0,102	0,086
-606,415	800,000	0,030	-0,074
-605,401	-200,000	0,003	0,020
-604,386	-76,936	0,138	0,035
-603,371	-68,567	0,091	0,026
-602,357	-100,151	0,018	-0,003
-601,342	33,335	-0,092	-0,058
-600,328	-61,284	-0,051	-0,016
-599,313	113,547	-0,117	0,104
-598,298	-200,000	-0,017	-0,081
-597,284	-200,000	0,010	0,074
-596,269	424,740	0,036	0,057
-595,255	320,967	0,015	-0,021
-594,240	-156,498	-0,075	-0,003
-593,225	-200,000	-0,015	0,057
-592,211	-44,036	-0,051	0,019
-591,196	-200,000	-0,060	-0,216
-590,182	16,502	-0,079	0,046
-589,167	800,000	0,088	0,238
-588,152	41,085	-0,013	0,009
-587,138	418,756	0,066	0,104
-586,123	33,356	-0,050	0,032
-585,109	-2,892	-0,099	0,051
-584,094	-90,933	-0,044	-0,009
-583,079	800,000	0,061	0,124
-582,065	570,461	0,014	0,025
-581,050	-95,399	-0,061	0,012
-580,036	3,784	0,170	0,091
-579,021	4,452	-0,033	-0,018
-578,006	89,044	0,058	-0,047
-576,992	-200,000	0,015	-0,061
-575,977	-200,000	-0,022	0,075
-574,963	-70,217	-0,127	-0,035
-573,948	-42,257	0,167	-0,062
-572,934	352,713	0,084	-0,123
-571,919	139,403	0,167	-0,161
-570,904	93,337	-0,079	-0,065
-569,890	83,691	-0,079	-0,063
-568,875	-87,732	-0,097	-0,021
-567,861	-92,919	0,215	-0,043
-566,846	216,588	0,092	-0,107
-565,831	81,214	-0,087	-0,069
-564,817	800,000	0,070	-0,160
-563,802	122,626	-0,120	-0,110
-562,788	586,730	-0,080	-0,144
-561,773	584,275	0,007	-0,012
-560,758	800,000	0,029	0,072
-559,744	45,551	0,040	-0,027
-558,729	-200,000	0,023	-0,138
-557,715	-200,000	0,006	-0,090
-556,700	-200,000	0,031	-0,126
-555,685	-25,899	0,026	0,011
-554,671	-200,000	0,030	0,172
-553,656	313,077	0,115	0,158
-552,642	-73,621	-0,079	-0,021
-551,627	72,790	-0,058	-0,045
-550,612	-200,000	0,023	0,165
-549,598	283,908	-0,090	-0,119
-548,583	53,641	0,050	-0,035
-547,569	74,466	-0,044	0,034
-546,554	534,534	0,048	-0,083
-545,539	-200,000	0,032	0,157
-544,525	294,909	0,031	0,041
-543,510	-71,808	0,038	0,010
-542,496	78,482	0,064	-0,050
-541,481	-113,329	-0,030	-0,004
-540,466	800,000	-0,040	0,088
-539,452	800,000	0,029	0,074
-538,437	-115,692	0,059	0,008
-537,423	211,876	-0,054	0,062
-536,408	-0,638	-0,101	0,052
-535,393	-113,501	-0,130	-0,018
-534,379	39,149	0,131	-0,085
-533,364	115,114	0,044	0,040
-532,350	142,675	0,061	-0,060
-531,335	-107,026	-0,112	-0,018
-530,321	662,079	-0,047	0,089
-529,306	55,443	0,002	-0,002
-528,291	248,999	-0,054	0,067
-527,277	-64,787	-0,124	-0,036
-526,262	800,000	0,050	-0,110
-525,248	143,623	0,124	0,120
-524,233	-132,867	-0,056	-0,005
-523,218	-200,000	0,023	0,188
-522,204	130,164	-0,027	-0,025
-521,189	800,000	0,051	-0,144
-520,175	0,485	-0,029	-0,015
-519,160	-200,000	0,005	-0,113
-518,145	-200,000	-0,020	0,103
-517,131	-136,952	-0,091	0,008
-516,116	-200,000	0,023	0,221
-515,102	287,374	0,041	-0,055
-514,087	15,321	-0,042	-0,024
-513,072	-38,987	-0,115	-0,044
-512,058	-107,994	-0,069	-0,011
-511,043	-8,141	-0,038	-0,019
-510,029	800,000	-0,038	0,095
-509,014	-200,000	-0,003	0,139
-507,999	169,517	0,075	0,078
-506,985	-200,000	-0,016	-0,104
-505,970	-200,000	0,007	0,104
-504,956	-200,000	-0,007	0,119
-503,941	-11,771	-0,055	0,026
-502,926	79,224	0,010	-0,008
-501,912	-49,309	0,035	0,012
-500,897	-200,000	0,003	0,015
-499,883	-77,805	-0,059	0,015
-498,868	-200,000	0,005	-0,146
-497,853	-71,058	-0,099	-0,027
-496,839	-74,358	0,042	-0,011
-495,824	100,821	-0,056	-0,047
-494,810	639,016	-0,059	0,110
-493,795	800,000	0,046	-0,123
-492,781	297,847	-0,061	0,082
-491,766	698,519	0,010	-0,019
-490,751	95,087	-0,066	-0,055
-489,737	800,000	0,028	-0,079
-488,722	-200,000	-0,003	-0,028
-487,708	190,014	0,076	-0,083
-486,693	20,711	-0,157	-0,093
-485,678	72,529	-0,061	-0,046
-484,664	800,000	-0,052	-0,138
-483,649	-128,230	-0,053	-0,005
-482,635	-200,000	0,000	0,056
-481,620	235,638	0,106	0,127
-480,605	-109,421	0,123	0,019
-479,591	22,914	0,088	0,053
-478,576	-158,666	-0,192	-0,008
-477,562	56,125	-0,020	-0,014
-476,547	-200,000	-0,000	-0,080
-475,532	-1,170	-0,104	0,053
-474,518	-8,044	0,072	0,035
-473,503	640,876	0,022	0,042
-472,489	316,322	-0,047	0,066
-471,474	-200,000	-0,005	0,048
-470,459	-200,000	-0,011	-0,116
-469,445	651,364	-0,027	0,051
-468,430	-200,000	0,002	0,061
-467,416	40,588	0,156	-0,103
-466,401	-200,000	-0,008	0,050
-465,386	18,133	0,052	0,030
-464,372	27,780	-0,088	-0,054
-463,357	-200,000	0,046	-0,171
-462,343	-200,000	-0,018	0,062
-461,328	-83,387	-0,093	-0,021
-460,313	553,864	0,056	0,098
-459,299	-200,000	0,016	-0,053
-458,284	760,316	0,039	0,077
-457,270	598,069	0,074	0,133
-456,255	-106,266	-0,082	0,013
-455,241	258,132	-0,046	-0,058
-454,226	748,315	-0,048	-0,094
-453,211	72,293	-0,023	-0,017
-452,197	-200,000	0,046	-0,203
-451,182	44,369	0,155	0,103
-450,168	800,000	-0,021	-0,049
-449,153	138,521	0,032	0,031
-448,138	-55,039	-0,014	-0,005
-447,124	212,359	-0,045	-0,052
-446,109	800,000	0,072	-0,148
-445,095	800,000	-0,050	0,123
-444,080	63,206	-0,090	0,066
-443,065	670,909	0,076	0,143
-442,051	-12,533	-0,122	0,058
-441,036	237,576	-0,052	-0,062
-440,022	-94,335	0,131	-0,026
-439,007	-88,264	0,165	0,036
-437,992	-114,838	0,119	0,016
-436,978	-200,000	0,008	-0,041
-435,963	-82,203	0,220	-0,052
-434,949	-200,000	-0,007	-0,135
-433,934	-200,000	0,060	-0,197
-432,919	734,318	-0,058	-0,113
-431,905	207,834	0,032	0,036
-430,890	-200,000	0,011	-0,077
-429,876	800,000	0,008	-0,021
-428,861	201,907	0,041	-0,046
-427,846	102,057	-0,171	0,145
-426,832	-88,803	0,036	-0,008
-425,817	715,690	-0,080	-0,154
-424,803	666,436	-0,001	-0,001
-423,788	148,274	0,022	0,021
-422,773	41,881	0,034	0,022
-421,759	-200,000	-0,023	0,098
-420,744	-56,532	-0,174	0,056
-419,730	-114,794	-0,060	-0,008
-418,715	584,938	-0,022	0,039
-417,701	-106,971	-0,120	0,019
-416,686	-119,787	-0,107	-0,013
-415,671	800,000	-0,034	0,104
-414,657	-200,000	-0,008	-0,084
-413,642	212,145	-0,019	0,022
-412,628	143,653	-0,138	0,134
-411,613	-200,000	0,007	-0,078
-410,598	101,096	-0,030	-0,025
-409,584	800,000	-0,053	0,138
-408,569	86,470	0,103	-0,082
-407,555	97,527	-0,006	0,005
-406,540	-22,840	0,083	-0,036
-405,525	71,584	0,091	-0,069
-404,511	105,279	-0,092	0,079
-403,496	-184,316	0,053	0,001
-402,482	208,986	-0,040	-0,046
-401,467	352,447	0,112	0,161
-400,452	793,650	0,025	-0,050
-399,438	-5,911	0,189	-0,094
-398,423	64,900	0,157	-0,115
-397,409	-119,489	0,059	-0,007
-396,394	-69,726	-0,074	0,020
-395,379	-24,834	0,140	-0,060
-394,365	206,944	0,090	0,102
-393,350	-200,000	-0,011	0,064
-392,336	-200,000	0,063	0,222
-391,321	-145,216	-0,105	-0,007
-390,306	464,659	-0,089	-0,145
-389,292	269,532	-0,079	0,101
-388,277	36,225	-0,047	0,030
-387,263	800,000	0,026	-0,069
-386,248	271,799	0,108	0,139
-385,233	-42,547	-0,045	-0,016
-384,219	-200,000	-0,024	0,080
-383,204	109,521	-0,056	-0,049
-382,190	-136,296	-0,066	0,006
-381,175	-3,200	-0,105	-0,053
-380,160	800,000	0,014	0,034
-379,146	504,146	-0,036	0,062
-378,131	53,475	0,014	0,010
-377,117	-200,000	0,000	0,013
-376,102	-200,000	-0,019	0,130
-375,088	800,000	0,015	-0,040
-374,073	-62,557	0,159	0,048
-373,058	-80,511	0,058	-0,014
-372,044	800,000	0,011	0,028
-371,029	-25,680	0,145	0,062
-370,015	160,306	-0,016	-0,017
-369,000	-48,900	0,079	-0,027
-367,985	11,962	-0,027	-0,015
-366,971	-142,044	0,142	-0,010
-365,956	-184,318	0,072	-0,001
-364,942	63,598	-0,069	0,050
-363,927	64,499	-0,051	0,038
-362,912	-200,000	-0,007	0,071
-361,898	-3,731	0,028	-0,014
-360,883	30,375	-0,083	-0,051
-359,869	800,000	-0,017	0,053
-358,854	-102,230	-0,186	-0,032
-357,839	82,358	0,098	0,077
-356,825	227,029	0,139	0,164
-355,810	247,768	0,039	-0,048
-354,796	435,282	-0,042	-0,066
-353,781	-200,000	-0,017	-0,092
-352,766	800,000	0,031	-0,098
-351,752	-200,000	0,008	-0,060
-350,737	-49,991	-0,080	-0,027
-349,723	-44,165	0,024	-0,009
-348,708	74,471	0,164	0,125
-347,693	-40,729	-0,058	0,022
-346,679	123,396	-0,062	0,056
-345,664	-109,737	-0,014	-0,002
-344,650	51,812	0,026	-0,018
-343,635	-101,718	0,091	0,016
-342,620	397,471	-0,032	-0,049
-341,606	-2,140	-0,173	0,088
-340,591	478,497	0,020	-0,032
-339,577	-200,000	-0,003	-0,051
-338,562	-200,000	0,023	-0,158
-337,548	-71,140	-0,134	-0,036
-336,533	-131,773	0,109	-0,010
-335,518	-200,000	0,028	0,109
-334,504	692,952	0,044	0,083
-333,489	-175,211	-0,057	0,001
-332,475	800,000	0,046	0,097
-331,460	99,218	-0,057	0,048
-330,445	405,152	-0,015	-0,023
-329,431	261,867	-0,063	-0,079
-328,416	-136,616	0,142	0,012
-327,402	121,128	-0,051	-0,046
-326,387	-49,526	0,054	0,019
-325,372	109,843	-0,096	0,083
-324,358	225,227	0,051	0,060
-323,343	-166,272	-0,008	0,000
-322,329	-99,304	0,073	-0,013
-321,314	765,897	0,031	0,062
-320,299	-150,978	-0,024	0,001
-319,285	372,044	-0,017	0,025
-318,270	133,527	-0,047	0,044
-317,256	800,000	-0,031	-0,086
-316,241	-150,352	-0,009	0,001
-315,226	594,263	0,042	-0,076
-314,212	-200,000	0,002	0,104
-313,197	56,642	0,117	-0,082
-312,183	-72,141	-0,095	0,025
-311,168	-200,000	0,043	-0,166
-310,153	-200,000	-0,047	-0,177
-309,139	-50,797	-0,084	-0,028
-308,124	-100,806	0,125	-0,022
-307,110	-32,393	0,086	-0,035
-306,095	-200,000	-0,025	0,211
-305,080	53,127	-0,021	-0,014
-304,066	71,477	0,087	0,065
-303,051	-200,000	-0,016	0,133
-302,037	800,000	0,027	-0,068
-301,022	60,593	0,118	-0,085
-300,008	122,411	-0,111	0,101
-298,993	800,000	0,045	0,122
-297,978	133,201	-0,062	0,058
-296,964	-49,853	0,084	0,029
-295,949	66,634	0,069	-0,051
-294,935	312,168	-0,046	-0,062
-293,920	-200,000	0,006	-0,090
-292,905	800,000	0,046	0,123
-291,891	-67,589	0,079	-0,022
-290,876	-39,995	0,036	0,014
-289,862	-70,534	-0,068	0,018
-288,847	81,777	-0,032	0,025
-287,832	508,568	-0,059	-0,100
-286,818	95,001	0,083	0,068
-285,803	800,000	-0,053	-0,118
-284,789	298,818	0,054	0,072
-283,774	-70,587	-0,019	-0,005
-282,759	-91,479	-0,149	-0,030
-281,745	-200,000	-0,003	-0,061
-280,730	-200,000	-0,006	0,051
-279,716	10,948	-0,061	-0,034
-278,701	-1,292	-0,058	0,030
-277,686	-48,313	0,152	-0,053
-276,672	66,171	0,089	0,065
-275,657	-129,124	0,059	-0,006
-274,643	-200,000	-0,021	0,131
-273,628	-200,000	0,017	-0,104
-272,613	151,597	0,110	-0,108
-271,599	174,195	-0,073	0,076
-270,584	-200,000	-0,012	0,118
-269,570	412,934	-0,013	-0,020
-268,555	-200,000	0,017	-0,069
-267,540	232,017	0,050	0,059
-266,526	142,462	-0,091	0,087
-265,511	-31,424	0,073	-0,030
-264,497	-200,000	-0,006	0,030
-263,482	129,324	-0,070	-0,064
-262,467	-142,072	-0,110	0,008
-261,453	345,977	0,079	-0,112
-260,438	-30,283	0,121	-0,049
-259,424	88,861	-0,098	-0,078
-258,409	-135,802	-0,141	-0,012
-257,395	-200,000	0,019	0,081
-256,380	800,000	-0,036	0,084
-255,365	-200,000	-0,000	-0,036
-254,351	800,000	0,034	-0,080
-253,336	-200,000	0,014	-0,109
-252,322	108,783	-0,099	-0,085
-251,307	-200,000	0,001	0,068
-250,292	60,797	0,037	-0,027
-249,278	-4,060	0,152	0,076
-248,263	324,110	-0,068	0,093
-247,249	187,588	0,031	-0,034
-246,234	-200,000	0,012	-0,127
-245,219	-95,131	-0,130	-0,025
-244,205	-142,763	-0,114	0,008
-243,190	-12,992	0,140	-0,065
-242,176	-20,413	-0,050	-0,022
-241,161	-200,000	0,017	0,176
-240,146	-200,000	-0,010	-0,054
-239,132	-66,391	-0,038	-0,011
-238,117	247,198	0,047	0,057
-237,103	572,261	-0,041	-0,072
-236,088	3,715	-0,102	0,053
-235,073	37,105	-0,038	-0,024
-234,059	54,630	0,061	-0,043
-233,044	576,432	-0,063	0,111
-232,030	-200,000	0,012	-0,053
-231,015	53,540	0,034	0,024
-230,000	-105,461	-0,068	0,011
-228,986	-95,722	-0,047	0,009
-227,971	364,129	0,104	-0,151
-226,957	133,958	0,116	0,108
-225,942	-70,253	0,104	0,028
-224,927	-200,000	0,028	-0,100
-223,913	81,094	-0,104	-0,081
-222,898	171,131	-0,074	-0,076
-221,884	-24,426	0,124	0,053
-220,869	-160,012	-0,083	0,003
-219,855	800,000	-0,014	0,031
-218,840	800,000	-0,026	0,068
-217,825	77,843	-0,028	-0,021
-216,811	800,000	-0,034	-0,077
-215,796	-178,041	-0,208	0,003
-214,782	57,809	0,083	0,058
-213,767	22,787	0,059	-0,035
-212,752	-200,000	0,011	-0,085
-211,738	-134,911	-0,072	-0,006
-210,723	658,062	-0,070	-0,131
-209,709	-200,000	-0,064	-0,241
-208,694	353,402	-0,043	-0,061
-207,679	-36,723	0,064	-0,025
-206,665	800,000	0,054	-0,119
-205,650	26,970	0,085	0,051
-204,636	247,838	0,068	0,082
-203,621	800,000	0,009	-0,030
-202,606	322,202	-0,017	-0,024
-201,592	593,715	-0,017	-0,031
-200,577	800,000	-0,033	0,090
-199,563	383,706	0,055	0,081
-198,548	705,304	-0,045	0,086
-197,533	237,426	0,027	0,033
-196,519	571,924	0,029	0,050
-195,504	-34,631	0,085	0,033
-194,490	263,968	0,004	-0,005
-193,475	565,978	-0,075	0,132
-192,460	88,771	0,093	-0,075
-191,446	571,126	-0,027	0,047
-190,431	137,279	-0,199	0,188
-189,417	16,590	0,087	0,049
-188,402	-73,684	-0,152	0,039
-187,387	-90,318	0,061	0,013
-186,373	89,944	0,049	-0,039
-185,358	800,000	0,058	-0,118
-184,344	-67,353	-0,075	-0,021
-183,329	327,983	0,110	0,152
-182,315	800,000	0,041	0,111
-181,300	-118,640	-0,080	0,010
-180,285	265,297	0,054	0,068
-179,271	-42,978	-0,061	-0,022
-178,256	194,739	-0,034	-0,037
-177,242	-106,038	0,003	-0,000
-176,227	50,918	0,143	-0,098
-175,212	-200,000	-0,016	-0,063
-174,198	-136,681	-0,090	-0,007
-173,183	41,303	-0,162	-0,105
-172,169	-91,100	-0,100	0,020
-171,154	-52,047	-0,124	-0,041
-170,139	-136,562	0,023	0,002
-169,125	-57,554	-0,093	0,029
-168,110	36,571	0,113	0,072
-167,096	-99,848	0,128	0,023
-166,081	120,347	0,107	-0,096
-165,066	44,286	-0,064	-0,042
-164,052	800,000	-0,033	0,091
-163,037	65,072	0,061	0,044
-162,023	-200,000	-0,014	0,128
-161,008	103,566	-0,086	-0,072
-159,993	4,677	0,106	-0,056
-158,979	-112,465	0,029	-0,004
-157,964	33,974	0,002	-0,001
-156,950	-200,000	0,009	-0,104
-155,935	423,118	0,059	0,092
-154,920	-139,677	0,143	0,011
-153,906	36,620	0,075	0,047
-152,891	800,000	-0,048	0,150
-151,877	800,000	0,045	0,116
-150,862	800,000	-0,023	-0,053
-149,847	209,553	-0,034	-0,038
-148,833	25,127	0,022	-0,013
-147,818	-200,000	-0,002	0,124
-146,804	493,604	-0,051	0,084
-145,789	-135,572	-0,171	0,014
-144,775	-26,737	0,182	-0,076
-143,760	-32,216	0,009	0,003
-142,745	258,843	-0,033	-0,041
-141,731	-109,520	-0,129	-0,019
-140,716	664,618	0,035	0,066
-139,702	393,625	-0,032	-0,047
-138,687	-47,625	-0,069	-0,024
-137,672	50,541	0,066	-0,045
-136,658	-134,467	0,142	0,012
-135,643	800,000	-0,014	0,041
-134,629	3,312	-0,051	0,027
-133,614	-124,544	-0,140	0,015
-132,599	182,030	0,078	-0,082
-131,585	-33,413	0,071	0,028
-130,570	-101,660	-0,110	-0,019
-129,556	354,828	-0,037	0,052
-128,541	800,000	-0,041	-0,111
-127,526	800,000	-0,042	0,110
-126,512	302,904	0,054	0,072
-125,497	16,196	0,062	0,035
-124,483	-200,000	-0,004	0,014
-123,468	-76,768	-0,159	0,040
-122,453	-153,832	-0,088	0,004
-121,439	56,337	-0,028	-0,020
-120,424	146,223	-0,053	-0,051
-119,410	-200,000	0,026	0,089
-118,395	-200,000	0,003	0,105
-117,380	213,778	0,045	0,051
-116,366	-200,000	-0,022	0,150
-115,351	-121,933	-0,089	-0,010
-114,337	-107,931	-0,096	0,015
-113,322	73,014	-0,086	0,065
-112,307	800,000	0,010	0,028
-111,293	361,883	0,016	-0,023
-110,278	324,359	0,055	0,076
-109,264	-200,000	0,006	-0,079
-108,249	-200,000	-0,004	0,027
-107,234	-77,678	-0,162	-0,040
-106,220	-200,000	-0,013	0,049
-105,205	-39,042	0,135	-0,051
-104,191	-200,000	0,006	0,056
-103,176	800,000	-0,028	0,083
-102,162	414,237	-0,026	-0,039
-101,147	-149,159	-0,144	0,008
-100,132	431,236	-0,039	-0,061
-99,118	161,957	-0,056	-0,057
-98,103	800,000	-0,041	-0,099
-97,089	-200,000	0,019	0,109
-96,074	511,683	-0,070	0,118
-95,059	-83,815	-0,110	-0,025
-94,045	800,000	0,047	-0,123
-93,030	85,355	-0,071	0,056
-92,016	-200,000	0,012	-0,165
-91,001	-48,155	-0,048	-0,016
-89,986	112,379	0,120	0,104
-88,972	73,691	-0,067	-0,050
-87,957	-96,676	-0,096	0,018
-86,943	125,263	-0,062	-0,056
-85,928	171,453	0,133	-0,137
-84,913	-200,000	0,020	-0,097
-83,899	-200,000	0,003	-0,062
-82,884	-77,714	0,123	0,030
-81,870	605,489	0,066	0,119
-80,855	-141,528	0,068	-0,005
-79,840	135,995	0,050	0,047
-78,826	-200,000	0,021	-0,173
-77,811	73,480	0,053	-0,039
-76,797	69,039	-0,061	-0,045
-75,782	87,605	0,112	0,089
-74,767	-51,524	0,058	-0,019
-73,753	66,950	0,043	0,031
-72,738	427,251	-0,015	-0,023
-71,724	-200,000	0,046	-0,160
-70,709	800,000	0,034	0,089
-69,694	236,980	-0,105	0,125
-68,680	292,232	0,041	0,054
-67,665	-193,899	0,079	0,000
-66,651	-142,376	-0,077	0,005
-65,636	177,277	0,114	0,119
-64,622	-157,619	-0,155	-0,007
-63,607	-58,857	-0,052	0,016
-62,592	800,000	0,025	0,077
-61,578	397,269	-0,060	-0,090
-60,563	-149,681	-0,038	0,002
-59,549	539,405	-0,098	0,168
-58,534	99,819	-2,796	-2,322
-57,519	-65,635	0,492	-0,140
-56,505	800,000	-1,759	-5,458
-55,490	530,535	1,260	2,143
-54,476	800,000	5,283	11,211
-53,461	-200,000	22,813	347,128
-52,446	800,000	764,764	2262,654
-51,432	497,460	1643,964	2722,423
-50,417	93,259	1600,545	1297,079
-49,403	60,990	1255,835	892,222
-48,388	21,099	1008,127	584,896
-47,373	18,337	975,643	557,003
-46,359	11,837	962,426	528,385
-45,344	7,728	959,178	513,260
-44,330	8,086	956,900	513,180
-43,315	7,161	955,209	509,262
-42,300	7,158	954,093	508,636
-41,286	7,162	953,075	508,088
-40,271	7,061	952,310	507,334
-39,257	7,122	951,345	506,996
-38,242	7,072	950,458	506,342
-37,227	7,093	949,687	505,979
-36,213	7,090	948,777	505,466
-35,198	7,089	947,915	504,980
-34,184	7,117	947,386	504,769
-33,169	6,995	946,402	503,835
-32,154	7,143	945,380	503,746
-31,140	7,126	944,806	503,366
-30,125	7,146	943,921	502,935
-29,111	7,068	943,211	502,290
-28,096	7,116	942,560	502,074
-27,082	7,124	941,881	501,719
-26,067	7,037	941,260	501,091
-25,052	7,046	940,288	500,584
-24,038	7,075	939,557	500,267
-23,023	7,035	939,082	499,866
-22,009	7,125	938,287	499,708
-20,994	7,121	937,582	499,301
-19,979	7,091	937,103	498,930
-18,965	7,089	936,435	498,551
-17,950	7,093	936,058	498,342
-16,936	7,021	935,328	497,707
-15,921	7,077	934,645	497,499
-14,906	7,001	933,872	496,828
-13,892	6,991	933,447	496,549
-12,877	6,954	932,711	496,023
-11,863	6,959	932,027	495,655
-10,848	6,986	931,535	495,459
-9,833	7,087	931,089	495,519
-8,819	7,053	930,311	494,978
-7,804	6,980	929,734	494,422
-6,790	7,019	929,219	494,250
-5,775	7,012	928,716	493,944
-4,760	7,022	927,923	493,532
-3,746	7,006	927,510	493,244
-2,731	6,865	926,664	492,333
-1,717	6,884	926,083	492,063
-0,702	6,846	925,422	491,572
0,313	6,669	924,636	491,343
1,327	10,179	922,247	500,981
2,342	18,848	771,279	441,432
3,356	14,191	443,508	246,877
4,371	-11,282	310,391	145,900
5,386	-14,978	293,185	134,091
6,400	-16,938	287,192	129,411
7,415	-17,552	284,335	127,513
8,429	-18,385	282,388	125,823
9,444	-18,501	281,439	125,277
10,459	-18,526	280,801	124,957
11,473	-18,556	280,279	124,685
12,488	-18,530	279,792	124,482
13,502	-18,426	279,303	124,354
14,517	-18,665	278,933	123,949
15,531	-18,618	278,386	123,740
16,546	-18,715	277,975	123,454
17,561	-18,752	277,548	123,218
18,575	-18,443	277,213	123,351
19,590	-18,833	276,894	122,828
20,604	-18,617	276,486	122,842
21,619	-19,081	276,281	122,300
22,634	-18,716	275,854	122,445
23,648	-18,746	275,647	122,315
24,663	-18,773	275,387	122,162
25,677	-18,647	275,049	122,120
26,692	-18,701	274,747	121,925
27,707	-18,688	274,346	121,748
28,721	-18,599	274,212	121,761
29,736	-18,697	273,963	121,548
30,750	-18,729	273,647	121,367
31,765	-18,675	273,485	121,334
32,780	-18,800	273,347	121,146
33,794	-18,678	272,925	121,062
34,809	-18,492	272,619	121,089
35,823	-18,834	272,381	120,653
36,838	-18,712	272,072	120,620
37,853	-18,780	271,907	120,472
38,867	-18,797	271,715	120,361
39,882	-18,775	271,501	120,276
40,896	-18,827	271,257	120,108
41,911	-18,836	270,959	119,958
42,926	-18,726	270,692	119,931
43,940	-18,509	270,316	119,953
44,955	-18,737	270,148	119,658
45,969	-18,695	269,932	119,590
46,984	-18,595	269,789	119,609
47,999	-18,729	269,703	119,437
49,013	-18,739	269,400	119,282
50,028	-18,585	269,111	119,285
51,042	-18,335	268,820	119,375
52,057	-18,415	268,636	119,209
53,071	-18,631	268,452	118,919
54,086	-18,634	268,213	118,800
55,101	-18,679	268,030	118,667
56,115	-18,468	267,796	118,746
57,130	-18,537	267,429	118,509
58,144	-18,778	267,334	118,237
59,159	-18,532	267,000	118,303
60,174	-18,620	266,836	118,139
61,188	-18,558	266,505	118,038
62,203	-18,589	266,338	117,926
63,217	-18,528	266,094	117,862
64,232	-18,519	265,744	117,705
65,247	-18,504	265,607	117,647
66,261	-18,736	265,459	117,362
67,276	-18,639	265,362	117,396
68,290	-18,576	265,020	117,291
69,305	-18,506	264,820	117,256
70,320	-18,511	264,572	117,131
71,334	-18,643	264,387	116,919
72,349	-18,476	264,160	116,959
73,363	-18,616	263,852	116,686
74,378	-18,567	263,585	116,601
75,393	-18,563	263,440	116,531
76,407	-18,517	263,241	116,474
77,422	-18,582	262,753	116,189
78,436	-18,416	262,633	116,275
79,451	-18,481	262,464	116,131
80,466	-18,498	262,065	115,929
81,480	-18,642	261,961	115,744
82,495	-18,577	261,822	115,730
83,509	-18,540	261,669	115,685
84,524	-18,445	261,396	115,639
85,539	-18,360	261,089	115,569
86,553	-18,751	261,115	115,222
87,568	-18,453	260,694	115,290
88,582	-18,544	260,496	115,112
89,597	-18,715	260,447	114,928
90,611	-18,610	260,239	114,920
91,626	-18,603	259,961	114,793
92,641	-18,620	259,772	114,684
93,655	-18,580	259,558	114,614
94,670	-18,630	259,338	114,463
95,684	-18,702	259,221	114,338
96,699	-18,433	258,868	114,408
97,714	-18,625	258,753	114,178
98,728	-18,439	258,422	114,185
99,743	-18,388	258,468	114,241
100,757	-18,547	258,160	113,955
101,772	-18,584	257,905	113,800
102,787	-18,580	257,709	113,706
103,801	-18,655	257,626	113,595
104,816	-18,449	257,268	113,606
105,830	-18,396	257,071	113,555
106,845	-18,697	257,074	113,283
107,860	-18,484	256,729	113,308
108,874	-18,610	256,676	113,164
109,889	-18,388	256,305	113,183
110,903	-18,589	256,119	112,917
111,918	-18,473	255,964	112,939
112,933	-18,515	255,759	112,802
113,947	-18,602	255,668	112,676
114,962	-18,400	255,360	112,706
115,976	-18,534	255,248	112,530
116,991	-18,512	254,859	112,368
118,006	-18,699	254,744	112,145
119,020	-18,368	254,505	112,316
120,035	-18,422	254,484	112,250
121,049	-18,432	254,326	112,162
122,064	-18,362	253,865	112,008
123,079	-18,320	253,695	111,960
124,093	-18,587	253,678	111,713
125,108	-18,441	253,427	111,718
126,122	-18,349	253,214	111,693
127,137	-18,554	253,163	111,484
128,151	-18,546	252,916	111,372
129,166	-18,592	252,642	111,203
130,181	-18,307	252,529	111,387
131,195	-18,336	252,178	111,197
132,210	-18,402	251,948	111,030
133,224	-18,583	251,775	110,789
134,239	-18,469	251,705	110,846
135,254	-18,478	251,533	110,752
136,268	-18,337	251,248	110,737
137,283	-18,336	251,044	110,638
138,297	-18,495	250,930	110,442
139,312	-18,326	250,475	110,375
140,327	-18,562	250,422	110,142
141,341	-18,407	250,210	110,171
142,356	-18,256	250,203	110,286
143,370	-18,424	249,793	109,953
144,385	-18,483	249,549	109,786
145,400	-18,416	249,380	109,758
146,414	-18,585	249,279	109,562
147,429	-18,434	249,169	109,631
148,443	-18,273	248,866	109,624
149,458	-18,115	248,565	109,615
150,473	-18,418	248,492	109,317
151,487	-18,314	248,366	109,339
152,502	-18,296	248,172	109,259
153,516	-18,336	247,994	109,137
154,531	-18,220	247,773	109,127
155,546	-18,422	247,524	108,840
156,560	-18,247	247,331	108,891
157,575	-18,233	247,215	108,842
158,589	-18,203	247,040	108,780
159,604	-18,479	246,802	108,436
160,619	-18,430	246,656	108,402
161,633	-18,453	246,465	108,290
162,648	-18,507	246,337	108,179
163,662	-18,299	246,272	108,314
164,677	-18,137	246,013	108,325
165,692	-18,153	245,926	108,264
166,706	-18,372	245,732	107,987
167,721	-18,360	245,502	107,886
168,735	-18,252	245,283	107,870
169,750	-18,269	245,143	107,785
170,764	-18,411	245,024	107,605
171,779	-18,258	244,787	107,618
172,794	-18,452	244,763	107,437
173,808	-18,292	244,377	107,390
174,823	-18,311	244,403	107,376
175,837	-18,343	244,286	107,289
176,852	-18,426	244,174	107,162
177,867	-18,215	243,896	107,204
178,881	-18,231	243,669	107,082
179,896	-18,251	243,519	106,990
180,910	-18,158	243,244	106,936
181,925	-18,383	243,182	106,714
182,940	-18,381	243,136	106,686
183,954	-18,406	242,785	106,503
184,969	-18,213	242,660	106,596
185,983	-18,175	242,386	106,497
186,998	-18,397	242,283	106,261
188,013	-18,262	242,123	106,292
189,027	-18,454	242,013	106,077
190,042	-18,324	241,800	106,080
191,056	-18,316	241,540	105,963
192,071	-18,189	241,532	106,054
193,086	-18,094	241,300	106,020
194,100	-18,115	241,011	105,866
195,115	-18,242	240,854	105,685
196,129	-18,458	240,678	105,423
197,144	-18,146	240,469	105,575
198,159	-18,262	240,304	105,399
199,173	-18,236	240,110	105,326
200,188	-18,183	240,049	105,332
201,202	-18,067	239,770	105,294
202,217	-18,322	239,694	105,045
203,232	-18,165	239,508	105,082
204,246	-18,027	239,112	105,010
205,261	-17,662	239,232	105,347
206,275	-16,064	239,739	106,850
207,290	-11,052	241,557	111,723
208,304	-5,000	243,344	117,483
209,319	-2,724	243,842	119,571
210,334	-1,981	244,039	120,264
211,348	-0,939	244,213	121,190
212,363	-0,271	244,159	121,698
213,377	0,062	244,259	122,009
214,392	0,701	244,263	122,521
215,407	0,755	244,308	122,576
216,421	0,974	244,038	122,608
217,436	0,821	243,895	122,401
218,450	1,145	243,703	122,558
219,465	0,893	243,679	122,329
220,480	1,063	243,434	122,334
221,494	0,766	243,200	121,964
222,509	0,553	243,119	121,740
223,523	0,434	242,746	121,446
224,538	0,346	242,646	121,314
225,553	0,280	242,568	121,211
226,567	0,306	242,277	121,076
227,582	0,433	242,104	121,081
228,596	0,415	241,914	120,960
229,611	0,427	241,976	120,991
230,626	0,507	241,477	120,794
231,640	0,525	241,573	120,846
232,655	0,335	241,238	120,515
233,669	0,335	241,308	120,539
234,684	0,379	240,951	120,385
235,699	0,256	240,899	120,250
236,713	0,467	240,703	120,310
237,728	0,385	240,588	120,177
238,742	0,454	240,266	120,060
239,757	0,374	240,247	119,976
240,772	0,553	239,962	119,966
241,786	0,295	239,939	119,738
242,801	0,555	239,546	119,739
243,815	0,429	239,554	119,631
244,830	0,486	239,357	119,568
245,844	0,055	239,369	119,220
246,859	0,246	239,217	119,285
247,874	0,303	238,950	119,187
248,888	0,297	238,766	119,079
249,903	0,388	238,593	119,055
250,917	0,525	238,521	119,117
251,932	0,248	238,438	118,845
252,947	0,462	238,199	118,886
253,961	0,533	238,054	118,859
254,976	0,376	237,933	118,663
255,990	0,205	237,838	118,470
257,005	0,358	237,625	118,474
258,020	0,394	237,413	118,387
259,034	0,399	237,324	118,335
260,049	0,530	237,061	118,297
261,063	0,343	236,948	118,082
262,078	0,144	236,927	117,905
263,093	0,151	236,740	117,807
264,107	0,416	236,530	117,900
265,122	0,472	236,350	117,844
266,136	0,514	236,272	117,828
267,151	0,497	235,996	117,666
268,166	0,190	235,975	117,404
269,180	0,440	235,643	117,425
270,195	0,410	235,571	117,355
271,209	0,358	235,380	117,208
272,224	0,365	235,257	117,142
273,239	0,456	235,074	117,112
274,253	0,300	234,926	116,906
275,268	0,410	234,762	116,899
276,282	0,297	234,778	116,809
277,297	0,378	234,531	116,739
278,312	0,365	234,395	116,650
279,326	0,486	234,223	116,648
280,341	0,478	234,099	116,570
281,355	0,652	233,943	116,617
282,370	0,365	233,812	116,319
283,384	0,454	233,693	116,318
284,399	0,511	233,461	116,237
285,414	0,285	233,331	115,986
286,428	0,509	233,233	116,101
287,443	0,401	233,141	115,961
288,457	0,426	232,968	115,884
289,472	0,374	232,863	115,781
290,487	0,523	232,591	115,751
291,501	0,340	232,471	115,539
292,516	0,363	232,382	115,503
293,530	0,427	232,159	115,431
294,545	0,667	232,036	115,544
295,560	0,404	231,809	115,219
296,574	0,573	231,783	115,325
297,589	0,674	231,366	115,185
298,603	0,628	231,370	115,141
299,618	0,623	231,189	115,038
300,633	0,769	231,096	115,092
301,647	0,557	231,084	114,914
302,662	0,582	230,980	114,871
303,676	0,698	230,710	114,815
304,691	0,700	230,525	114,714
305,706	0,636	230,473	114,630
306,720	0,690	230,174	114,511
307,735	0,882	230,121	114,621
308,749	0,646	229,956	114,350
309,764	0,491	229,883	114,185
310,779	0,887	229,606	114,338
311,793	0,734	229,589	114,203
312,808	0,621	229,367	113,997
313,822	0,627	229,293	113,955
314,837	0,576	229,045	113,783
315,852	0,788	228,909	113,865
316,866	0,628	228,788	113,674
317,881	0,762	228,872	113,807
318,895	0,694	228,445	113,533
319,910	0,647	228,396	113,463
320,925	0,694	228,149	113,366
321,939	0,606	228,161	113,295
322,954	0,733	228,063	113,332
323,968	0,685	227,965	113,237
324,983	0,650	227,660	113,049
325,997	1,093	227,410	113,248
327,012	0,878	227,217	112,980
328,027	0,781	227,107	112,843
329,041	0,745	226,978	112,742
330,056	0,702	226,826	112,624
331,070	0,844	226,670	112,642
332,085	0,939	226,693	112,715
333,100	0,758	226,558	112,503
334,114	0,667	226,289	112,291
335,129	0,774	226,071	112,253
336,143	0,819	225,941	112,211
337,158	0,782	225,948	112,178
338,173	0,751	225,862	112,101
339,187	0,767	225,718	112,032
340,202	0,852	225,414	111,934
341,216	0,680	225,382	111,781
342,231	0,979	225,185	111,895
343,246	0,838	225,060	111,718
344,260	0,864	224,937	111,667
345,275	1,169	224,714	111,772
346,289	1,007	224,737	111,654
347,304	1,089	224,412	111,543
348,319	1,091	224,301	111,479
349,333	1,040	224,222	111,392
350,348	0,839	224,022	111,134
351,362	1,047	223,877	111,207
352,377	0,966	223,805	111,101
353,392	1,100	223,651	111,113
354,406	1,038	223,340	110,903
355,421	191,901	1311,644	1374,869
356,435	153,642	1444,080	1374,699
