DTS Sentinel unit serial number:	SN410029Multiplexer serial number:	ORYXHardware model number:	OX2-SRSoftware version number:	ORYX F/W v4,00 Oryx Data Collector v3.7.2.0data status	okinstallation	B5 Nyhavnadifferential loss correction	single-endedforward channel	channel 2reverse channel	N/Adate	2023/12/11time	14:52:13forward acquisition time	300,00reverse acquisition time	0,00gamma	499,1914k internal	0,3167k external	0,3167temperature offset calibration	1,0000default loss term (dB/km)	0,3820temperature slope calibration	1,0000multiplexer offset coefficient	1,0000multiplexer slope coefficient	1,0000fibre end	0,00T internal ref (°C)	12,91T ext. ref 1 (°C)	-1,88T ext. ref 2 (°C)	-1,87length (m)	temperature (°C)	Stokes	anti-Stokes-744,400	323,369	0,098	0,137
-743,385	-39,474	-0,208	-0,080
-742,371	-30,490	0,150	-0,062
-741,356	-25,209	-0,314	0,136
-740,342	-200,000	0,036	0,127
-739,327	-98,508	-0,243	0,045
-738,312	-100,014	0,149	0,027
-737,298	-48,642	-0,265	-0,093
-736,283	-105,164	0,142	0,024
-735,269	-166,434	-0,381	0,012
-734,254	-23,282	0,176	0,077
-733,239	20,240	-0,422	-0,250
-732,225	-57,590	0,168	0,054
-731,210	142,552	0,060	-0,059
-730,196	-200,000	0,011	-0,077
-729,181	33,108	-0,067	-0,042
-728,167	-200,000	0,007	0,151
-727,152	-200,000	0,002	-0,020
-726,137	-2,661	-0,157	-0,080
-725,123	586,796	-0,059	-0,107
-724,108	-107,556	-0,074	0,012
-723,094	171,673	-0,101	-0,106
-722,079	104,032	-0,050	-0,043
-721,064	278,669	-0,040	-0,053
-720,050	-72,976	-0,070	0,019
-719,035	-76,255	-0,130	-0,033
-718,021	-57,507	-0,069	0,022
-717,006	800,000	-0,035	-0,098
-715,991	800,000	-0,058	-0,138
-714,977	161,144	0,039	-0,040
-713,962	-200,000	0,015	-0,074
-712,948	-200,000	-0,013	0,050
-711,933	93,634	-0,060	-0,050
-710,918	45,530	-0,083	-0,056
-709,904	-77,709	-0,029	-0,007
-708,889	743,940	-0,044	-0,086
-707,875	252,334	-0,013	0,017
-706,860	-200,000	0,006	-0,120
-705,845	323,093	0,050	-0,071
-704,831	-119,733	-0,080	0,010
-703,816	33,003	-0,054	0,035
-702,802	-200,000	0,011	0,051
-701,787	102,087	-0,082	-0,070
-700,772	-200,000	-0,057	-0,217
-699,758	-135,991	-0,177	-0,015
-698,743	-200,000	0,013	0,067
-697,729	-167,688	0,065	0,002
-696,714	220,717	-0,111	-0,131
-695,699	-1,393	-0,070	0,036
-694,685	164,393	-0,104	-0,108
-693,670	-121,198	-0,061	-0,007
-692,656	-50,812	-0,178	0,061
-691,641	-200,000	-0,018	0,071
-690,627	800,000	0,056	0,142
-689,612	-200,000	-0,007	0,086
-688,597	-200,000	0,009	0,048
-687,583	-12,017	-0,044	-0,021
-686,568	-200,000	0,018	-0,088
-685,554	-200,000	-0,002	0,028
-684,539	-21,416	0,114	0,051
-683,524	-200,000	-0,010	0,068
-682,510	733,927	0,031	-0,060
-681,495	13,213	-0,112	-0,063
-680,481	-108,899	-0,207	-0,032
-679,466	-187,218	-0,081	0,001
-678,451	726,614	-0,038	0,074
-677,437	-78,590	0,051	0,013
-676,422	140,020	-0,036	-0,035
-675,408	-102,229	-0,047	-0,008
-674,393	-16,396	-0,036	-0,017
-673,378	4,794	0,018	0,010
-672,364	53,103	-0,075	0,052
-671,349	800,000	-0,026	-0,079
-670,335	-200,000	0,034	-0,130
-669,320	3,141	0,059	-0,031
-668,305	-177,264	-0,101	0,002
-667,291	-132,521	0,163	-0,015
-666,276	351,411	-0,057	-0,083
-665,262	800,000	-0,035	-0,090
-664,247	-200,000	0,015	-0,124
-663,232	-200,000	0,018	0,059
-662,218	-88,264	0,076	0,016
-661,203	-145,321	0,036	-0,002
-660,189	28,945	-0,085	-0,053
-659,174	-200,000	0,019	-0,070
-658,159	800,000	-0,020	-0,042
-657,145	790,277	-0,063	-0,127
-656,130	-42,264	0,141	0,052
-655,116	317,923	0,028	0,039
-654,101	-33,609	0,074	0,030
-653,086	800,000	-0,035	0,089
-652,072	-200,000	0,019	-0,092
-651,057	-200,000	0,012	-0,080
-650,043	494,409	0,060	-0,102
-649,028	-11,445	-0,093	0,044
-648,014	55,712	-0,111	0,079
-646,999	-113,273	-0,063	-0,009
-645,984	73,475	0,053	0,041
-644,970	-84,880	-0,015	-0,003
-643,955	89,622	-0,094	-0,077
-642,941	490,506	-0,048	-0,080
-641,926	-200,000	0,031	-0,193
-640,911	800,000	0,064	-0,152
-639,897	-153,455	-0,010	0,000
-638,882	800,000	0,028	-0,066
-637,868	-7,359	-0,104	0,052
-636,853	-96,165	-0,166	-0,032
-635,838	-200,000	-0,022	0,167
-634,824	98,512	0,040	0,034
-633,809	800,000	0,026	-0,076
-632,795	31,638	-0,088	-0,055
-631,780	16,588	-0,076	0,044
-630,765	618,103	0,072	-0,133
-629,751	152,527	-0,075	0,075
-628,736	-200,000	0,014	-0,108
-627,722	1,456	-0,137	-0,072
-626,707	-39,621	0,111	-0,042
-625,692	-200,000	-0,017	0,110
-624,678	-200,000	-0,002	0,086
-623,663	64,069	-0,058	0,043
-622,649	-80,552	0,127	0,031
-621,634	-7,119	-0,104	0,052
-620,619	215,487	0,047	0,055
-619,605	800,000	-0,012	-0,029
-618,590	-41,908	-0,078	0,029
-617,576	40,313	-0,060	0,039
-616,561	230,300	0,107	0,129
-615,546	800,000	-0,011	-0,034
-614,532	-16,103	0,070	0,032
-613,517	442,671	0,019	0,031
-612,503	800,000	0,016	-0,048
-611,488	116,660	0,036	-0,032
-610,474	-200,000	0,010	0,149
-609,459	-46,387	-0,050	0,018
-608,444	41,817	-0,156	-0,104
-607,430	-200,000	0,007	-0,028
-606,415	-4,789	0,067	-0,033
-605,401	-91,405	-0,131	-0,027
-604,386	52,151	0,140	0,097
-603,371	642,878	-0,106	0,199
-602,357	-200,000	0,056	0,190
-601,342	-56,476	-0,025	0,008
-600,328	-200,000	0,000	0,032
-599,313	-7,525	0,013	-0,006
-598,298	131,206	-0,049	0,046
-597,284	-35,408	0,094	0,037
-596,269	-200,000	-0,026	-0,099
-595,255	296,269	-0,088	-0,118
-594,240	-200,000	-0,019	-0,210
-593,225	238,838	0,015	0,019
-592,211	-200,000	-0,021	-0,100
-591,196	34,417	0,082	0,052
-590,182	800,000	0,020	-0,056
-589,167	-1,665	0,251	0,129
-588,152	-33,625	0,030	-0,012
-587,138	30,479	0,088	0,055
-586,123	234,470	-0,090	-0,108
-585,109	-56,498	0,061	0,019
-584,094	-200,000	-0,009	0,102
-583,079	-199,220	0,070	-0,000
-582,065	-200,000	-0,012	0,053
-581,050	800,000	0,022	-0,050
-580,036	238,089	0,070	-0,085
-579,021	-29,142	-0,149	-0,062
-578,006	497,406	0,036	-0,061
-576,992	-200,000	0,000	0,003
-575,977	-200,000	0,009	-0,043
-574,963	-112,825	0,222	0,032
-573,948	457,885	0,050	-0,081
-572,934	-200,000	-0,003	-0,016
-571,919	-200,000	0,029	-0,135
-570,904	-41,227	0,050	0,019
-569,890	359,309	-0,049	-0,072
-568,875	-15,055	0,072	0,034
-567,861	12,316	-0,036	0,020
-566,846	-157,348	0,103	-0,004
-565,831	595,330	0,059	-0,106
-564,817	259,429	0,057	0,072
-563,802	47,172	-0,129	-0,087
-562,788	176,269	0,091	-0,097
-561,773	-95,953	0,032	0,006
-560,758	42,388	0,115	0,077
-559,744	-162,736	0,195	0,007
-558,729	167,001	-0,027	-0,028
-557,715	800,000	-0,026	-0,064
-556,700	430,486	0,046	-0,073
-555,685	253,087	-0,031	-0,039
-554,671	-200,000	0,019	0,125
-553,656	-34,946	0,186	0,074
-552,642	-200,000	0,005	-0,089
-551,627	800,000	-0,032	-0,081
-550,612	-200,000	-0,012	-0,111
-549,598	25,483	-0,037	0,023
-548,583	-155,172	0,086	-0,004
-547,569	-200,000	-0,005	-0,025
-546,554	398,506	0,015	-0,024
-545,539	-39,257	0,072	-0,028
-544,525	-200,000	-0,059	0,237
-543,510	-156,176	0,133	-0,006
-542,496	800,000	0,038	-0,077
-541,481	23,678	-0,089	0,053
-540,466	-200,000	0,014	0,063
-539,452	-200,000	0,016	0,097
-538,437	66,412	-0,116	0,086
-537,423	-200,000	0,025	0,136
-536,408	-170,153	-0,113	-0,003
-535,393	176,952	-0,040	-0,043
-534,379	-80,719	0,152	0,037
-533,364	-37,649	-0,048	-0,018
-532,350	800,000	0,013	0,029
-531,335	-200,000	-0,018	0,080
-530,321	510,437	-0,032	0,054
-529,306	202,724	-0,036	-0,041
-528,291	182,777	0,015	0,017
-527,277	800,000	-0,071	0,160
-526,262	122,583	-0,070	-0,063
-525,248	99,448	0,110	-0,093
-524,233	87,086	-0,089	-0,072
-523,218	373,524	-0,090	0,133
-522,204	800,000	-0,024	-0,074
-521,189	-200,000	0,043	-0,198
-520,175	114,301	-0,043	-0,038
-519,160	-107,426	-0,085	0,014
-518,145	124,456	0,018	0,017
-517,131	86,063	-0,051	0,041
-516,116	800,000	-0,004	-0,010
-515,102	-200,000	0,022	-0,112
-514,087	108,742	-0,016	0,014
-513,072	-47,952	-0,061	0,021
-512,058	800,000	-0,043	-0,116
-511,043	-159,719	0,122	-0,005
-510,029	-200,000	0,012	0,062
-509,014	675,054	0,083	0,158
-507,999	89,465	-0,072	0,058
-506,985	-37,617	-0,124	0,048
-505,970	800,000	0,038	-0,111
-504,956	27,167	0,115	-0,070
-503,941	219,243	0,054	0,063
-502,926	628,702	-0,056	0,103
-501,912	-84,643	-0,068	0,015
-500,897	-200,000	0,007	0,039
-499,883	-131,753	-0,061	-0,006
-498,868	800,000	-0,030	-0,076
-497,853	-168,001	0,076	0,002
-496,839	113,579	0,044	0,039
-495,824	-90,282	0,114	0,024
-494,810	32,596	-0,091	0,057
-493,795	-49,369	0,123	0,042
-492,781	-98,815	-0,041	0,007
-491,766	27,944	0,053	-0,032
-490,751	346,067	-0,026	0,038
-489,737	209,260	0,107	0,123
-488,722	-200,000	-0,014	0,055
-487,708	425,404	-0,032	0,050
-486,693	-200,000	-0,001	0,062
-485,678	103,676	0,124	-0,106
-484,664	-200,000	-0,009	-0,098
-483,649	-200,000	0,010	-0,153
-482,635	-145,383	-0,077	0,005
-481,620	79,906	-0,051	-0,040
-480,605	382,571	0,058	0,087
-479,591	-59,560	0,031	0,010
-478,576	-104,438	0,043	-0,007
-477,562	-184,879	-0,119	-0,001
-476,547	-200,000	0,008	0,051
-475,532	-180,511	-0,056	0,001
-474,518	315,018	-0,064	0,088
-473,503	800,000	-0,009	-0,023
-472,489	-73,265	0,052	0,014
-471,474	66,840	-0,134	0,099
-470,459	-27,767	-0,072	0,030
-469,445	-21,345	-0,054	-0,024
-468,430	-27,326	0,087	-0,036
-467,416	280,906	0,038	0,050
-466,401	-108,240	0,065	-0,010
-465,386	655,184	0,022	0,042
-464,372	-200,000	0,005	0,065
-463,357	124,903	-0,055	0,050
-462,343	-56,901	-0,027	0,009
-461,328	1,690	0,169	-0,088
-460,313	187,595	-0,100	-0,109
-459,299	-96,094	-0,119	-0,023
-458,284	-200,000	-0,001	0,072
-457,270	55,065	0,161	-0,113
-456,255	95,553	-0,064	-0,053
-455,241	-73,956	-0,041	0,011
-454,226	-200,000	0,010	-0,075
-453,211	590,092	0,069	-0,125
-452,197	-184,406	0,081	-0,001
-451,182	51,809	-0,223	0,154
-450,168	66,587	0,083	-0,061
-449,153	-32,904	-0,088	0,035
-448,138	-200,000	-0,005	-0,031
-447,124	177,338	-0,049	-0,052
-446,109	-200,000	0,002	-0,063
-445,095	-27,163	0,144	-0,061
-444,080	145,499	-0,051	0,049
-443,065	252,114	0,053	-0,066
-442,051	800,000	-0,089	-0,212
-441,036	330,971	-0,036	-0,050
-440,022	-200,000	0,004	-0,129
-439,007	-57,757	0,035	0,011
-437,992	64,337	0,106	0,078
-436,978	187,329	-0,023	0,025
-435,963	-160,818	0,107	0,004
-434,949	-55,684	-0,013	0,004
-433,934	-193,097	-0,098	-0,001
-432,919	-130,421	0,112	-0,011
-431,905	-20,240	0,059	-0,026
-430,890	-200,000	-0,016	-0,079
-429,876	-200,000	0,020	0,091
-428,861	442,675	-0,096	0,154
-427,846	-73,836	0,058	-0,015
-426,832	92,904	0,054	0,044
-425,817	-191,770	0,035	0,000
-424,803	800,000	0,046	-0,107
-423,788	64,552	0,138	0,101
-422,773	-200,000	0,023	0,131
-421,759	276,190	-0,038	-0,049
-420,744	800,000	-0,021	-0,047
-419,730	-102,043	0,107	0,018
-418,715	-109,912	-0,135	0,020
-417,701	-134,203	-0,053	0,005
-416,686	7,742	0,072	-0,039
-415,671	168,003	0,087	0,090
-414,657	71,679	0,031	-0,023
-413,642	-160,958	0,082	0,003
-412,628	-64,490	0,060	0,017
-411,613	-200,000	0,009	-0,075
-410,598	-112,895	-0,123	-0,017
-409,584	279,658	-0,059	-0,076
-408,569	-200,000	0,002	-0,087
-407,555	287,259	-0,055	0,072
-406,540	523,140	0,108	0,184
-405,525	800,000	-0,050	-0,107
-404,511	162,204	-0,074	-0,075
-403,496	145,922	0,107	-0,105
-402,482	94,312	-0,031	-0,026
-401,467	573,517	0,055	-0,098
-400,452	-164,762	-0,069	-0,002
-399,438	530,831	0,107	0,184
-398,423	-200,000	0,029	-0,103
-397,409	138,558	0,015	-0,014
-396,394	-161,316	-0,166	0,006
-395,379	-200,000	-0,006	0,046
-394,365	-200,000	-0,018	0,093
-393,350	-91,087	-0,074	0,015
-392,336	91,883	0,150	0,123
-391,321	800,000	0,053	0,114
-390,306	-200,000	0,006	-0,162
-389,292	184,947	0,088	-0,095
-388,277	370,082	-0,083	0,122
-387,263	799,086	0,069	-0,138
-386,248	-132,733	0,148	0,014
-385,233	574,687	-0,053	0,094
-384,219	-200,000	0,012	-0,039
-383,204	-200,000	-0,014	-0,151
-382,190	800,000	-0,072	-0,194
-381,175	-200,000	0,021	0,111
-380,160	-29,900	-0,129	0,053
-379,146	173,079	-0,032	0,034
-378,131	800,000	0,037	-0,083
-377,117	-29,987	-0,063	-0,026
-376,102	329,790	-0,066	0,093
-375,088	307,037	-0,096	-0,130
-374,073	152,665	-0,138	-0,137
-373,058	450,448	0,026	-0,043
-372,044	238,145	0,112	0,135
-371,029	800,000	0,016	0,037
-370,015	800,000	0,031	0,082
-369,000	-0,193	-0,102	0,052
-367,985	800,000	-0,037	-0,095
-366,971	96,682	-0,113	-0,093
-365,956	15,285	0,072	-0,041
-364,942	262,690	0,081	0,102
-363,927	800,000	0,014	0,031
-362,912	-92,799	-0,105	-0,021
-361,898	-112,848	0,067	-0,010
-360,883	-200,000	-0,011	-0,079
-359,869	260,126	-0,053	-0,067
-358,854	761,932	0,066	-0,131
-357,839	-89,019	0,120	-0,026
-356,825	800,000	0,103	0,240
-355,810	161,622	-0,032	0,032
-354,796	-21,826	-0,058	-0,026
-353,781	-93,092	-0,028	-0,006
-352,766	124,361	0,052	0,047
-351,752	-200,000	-0,027	0,138
-350,737	-200,000	0,018	0,073
-349,723	-84,592	0,060	0,014
-348,708	793,759	-0,057	0,114
-347,693	800,000	-0,037	-0,087
-346,679	-200,000	-0,007	-0,047
-345,664	-200,000	-0,006	-0,115
-344,650	-43,622	-0,050	-0,018
-343,635	-93,085	0,172	0,034
-342,620	119,634	-0,047	0,042
-341,606	-200,000	-0,023	0,085
-340,591	-97,627	-0,066	0,012
-339,577	-81,825	-0,044	0,010
-338,562	87,146	0,025	-0,020
-337,548	-106,483	0,085	0,014
-336,533	-200,000	0,021	-0,067
-335,518	-200,000	0,001	-0,032
-334,504	-192,871	0,022	0,000
-333,489	-200,000	-0,037	-0,127
-332,475	30,566	0,028	-0,017
-331,460	800,000	-0,023	-0,067
-330,445	-113,130	0,047	0,007
-329,431	-48,973	0,041	-0,014
-328,416	374,210	0,097	0,144
-327,402	493,806	-0,047	0,079
-326,387	64,964	0,023	-0,016
-325,372	-16,619	-0,068	0,031
-324,358	-200,000	-0,025	-0,115
-323,343	152,968	-0,092	-0,091
-322,329	800,000	-0,037	-0,094
-321,314	-187,035	0,051	0,000
-320,299	-30,507	0,134	0,055
-319,285	-82,932	0,075	-0,017
-318,270	-70,334	-0,081	0,022
-317,256	94,350	-0,131	-0,108
-316,241	14,913	0,145	-0,082
-315,226	-102,445	0,177	0,030
-314,212	329,967	0,038	-0,053
-313,197	-92,975	-0,039	-0,008
-312,183	-200,000	-0,012	0,080
-311,168	-60,782	-0,021	-0,006
-310,153	350,240	0,021	-0,029
-309,139	800,000	0,061	-0,162
-308,124	-200,000	0,024	0,158
-307,110	800,000	-0,020	-0,047
-306,095	79,153	0,069	0,053
-305,080	627,300	-0,060	-0,111
-304,066	283,655	-0,048	-0,063
-303,051	636,839	0,020	-0,037
-302,037	-74,683	-0,093	-0,024
-301,022	64,047	0,100	-0,072
-300,008	-200,000	-0,033	0,130
-298,993	-200,000	0,002	-0,090
-297,978	-200,000	-0,029	0,135
-296,964	-75,204	-0,078	0,020
-295,949	-151,024	-0,087	0,005
-294,935	96,827	0,068	-0,057
-293,920	800,000	0,062	-0,175
-292,905	234,398	0,019	-0,023
-291,891	-200,000	0,022	0,106
-290,876	20,798	0,091	0,053
-289,862	-3,389	-0,084	-0,042
-288,847	-106,914	-0,131	-0,021
-287,832	-7,230	-0,037	-0,018
-286,818	-200,000	-0,021	-0,104
-285,803	406,888	0,040	0,062
-284,789	652,588	0,009	-0,017
-283,774	285,827	0,064	-0,084
-282,759	-200,000	-0,020	-0,127
-281,745	800,000	-0,043	-0,097
-280,730	-200,000	0,027	0,137
-279,716	318,726	-0,070	-0,095
-278,701	800,000	-0,038	0,093
-277,686	-173,786	0,135	0,003
-276,672	-200,000	-0,006	0,057
-275,657	-200,000	0,004	-0,116
-274,643	800,000	0,036	0,093
-273,628	800,000	-0,010	0,028
-272,613	800,000	-0,038	-0,100
-271,599	-200,000	0,013	0,045
-270,584	-200,000	0,007	0,091
-269,570	-161,816	0,067	0,002
-268,555	97,675	-0,075	-0,062
-267,540	198,529	0,039	-0,043
-266,526	112,916	0,074	-0,065
-265,511	355,091	-0,120	-0,172
-264,497	800,000	0,028	0,057
-263,482	800,000	0,056	0,142
-262,467	800,000	-0,017	0,049
-261,453	800,000	0,018	-0,054
-260,438	800,000	-0,014	0,034
-259,424	-47,628	-0,151	0,053
-258,409	-21,759	-0,116	-0,051
-257,395	-64,125	0,066	-0,019
-256,380	800,000	-0,041	-0,092
-255,365	-200,000	0,002	-0,068
-254,351	-139,291	0,059	0,004
-253,336	93,600	-0,026	0,021
-252,322	800,000	-0,026	-0,061
-251,307	50,440	-0,038	-0,026
-250,292	-147,354	-0,089	0,005
-249,278	211,740	-0,025	-0,029
-248,263	70,690	0,030	-0,022
-247,249	88,805	-0,162	0,130
-246,234	364,566	0,048	-0,070
-245,219	616,245	0,003	-0,006
-244,205	105,068	-0,049	-0,042
-243,190	94,305	-0,030	-0,024
-242,176	800,000	0,027	-0,076
-241,161	105,962	-0,097	0,082
-240,146	393,571	-0,051	0,076
-239,132	267,660	-0,011	0,014
-238,117	-200,000	0,000	-0,031
-237,103	800,000	0,049	0,124
-236,088	128,967	-0,012	-0,011
-235,073	800,000	0,053	0,128
-234,059	-200,000	-0,002	-0,008
-233,044	-37,945	-0,066	0,025
-232,030	141,182	0,124	0,118
-231,015	-5,955	0,054	0,026
-230,000	647,445	-0,021	-0,039
-228,986	194,881	0,106	0,116
-227,971	109,279	0,037	-0,032
-226,957	800,000	0,070	0,169
-225,942	-48,865	-0,072	0,025
-224,927	-51,907	-0,092	-0,031
-223,913	-134,180	-0,104	0,009
-222,898	67,009	-0,057	0,042
-221,884	800,000	-0,055	0,126
-220,869	-200,000	-0,003	0,106
-219,855	-87,008	0,110	0,024
-218,840	352,293	-0,055	0,078
-217,825	164,237	0,034	0,035
-216,811	206,078	-0,046	-0,052
-215,796	-69,685	-0,008	-0,002
-214,782	-200,000	0,005	-0,055
-213,767	320,867	-0,086	0,118
-212,752	631,900	0,036	0,066
-211,738	126,483	0,048	0,043
-210,723	347,026	0,024	0,035
-209,709	-200,000	0,018	-0,085
-208,694	-92,621	-0,136	-0,027
-207,679	162,768	-0,038	-0,039
-206,665	-200,000	0,011	-0,104
-205,650	-200,000	0,011	0,124
-204,636	96,103	0,141	-0,116
-203,621	-11,481	-0,077	-0,036
-202,606	35,080	-0,063	-0,039
-201,592	800,000	0,014	-0,038
-200,577	323,942	-0,074	-0,102
-199,563	126,710	0,037	0,034
-198,548	-10,129	0,079	0,038
-197,533	257,589	-0,066	-0,081
-196,519	47,582	-0,134	0,090
-195,504	-137,423	0,096	-0,008
-194,490	266,730	0,077	-0,097
-193,475	666,759	0,018	-0,033
-192,460	175,712	0,077	0,081
-191,446	800,000	-0,037	-0,093
-190,431	243,397	-0,137	0,165
-189,417	637,891	0,071	0,130
-188,402	572,565	-0,048	-0,085
-187,387	241,253	-0,059	0,071
-186,373	9,750	-0,051	-0,028
-185,358	71,747	-0,061	0,045
-184,344	421,860	-0,022	-0,034
-183,329	153,798	0,032	0,031
-182,315	15,216	0,094	0,053
-181,300	7,789	0,037	0,020
-180,285	-91,127	-0,181	-0,037
-179,271	81,070	-0,068	0,053
-178,256	110,515	0,067	0,058
-177,242	800,000	0,102	0,209
-176,227	86,089	0,077	0,061
-175,212	-68,713	-0,125	0,034
-174,198	59,424	-0,031	-0,022
-173,183	-200,000	0,007	0,186
-172,169	-200,000	0,013	0,051
-171,154	800,000	0,062	-0,128
-170,139	-200,000	-0,008	0,037
-169,125	-99,714	0,066	-0,012
-168,110	800,000	-0,045	0,125
-167,096	20,219	0,135	0,078
-166,081	800,000	-0,016	-0,037
-165,066	-27,857	-0,034	-0,014
-164,052	-179,948	-0,103	0,002
-163,037	-200,000	-0,016	0,105
-162,023	-200,000	0,024	0,132
-161,008	-50,456	0,219	-0,074
-159,993	-131,971	-0,074	0,007
-158,979	-200,000	-0,035	-0,163
-157,964	-200,000	0,022	-0,133
-156,950	-173,463	-0,069	0,001
-155,935	800,000	0,011	-0,023
-154,920	-134,190	-0,065	-0,006
-153,906	-99,047	-0,134	0,024
-152,891	-200,000	-0,011	0,091
-151,877	-34,932	-0,046	0,018
-150,862	265,938	-0,020	-0,025
-149,847	-200,000	0,000	0,012
-148,833	-27,149	0,076	-0,032
-147,818	-29,997	-0,059	-0,024
-146,804	-155,724	0,075	0,003
-145,789	-200,000	0,017	-0,080
-144,775	-67,126	-0,107	0,030
-143,760	-200,000	-0,001	0,018
-142,745	53,350	-0,122	0,084
-141,731	800,000	0,015	0,030
-140,716	106,151	-0,054	-0,046
-139,702	800,000	-0,041	0,083
-138,687	288,599	0,012	0,015
-137,672	800,000	-0,050	-0,144
-136,658	-200,000	-0,000	-0,124
-135,643	800,000	-0,043	0,093
-134,629	-30,531	-0,045	-0,018
-133,614	155,525	0,119	0,118
-132,599	-3,425	0,039	0,019
-131,585	124,147	-0,047	-0,043
-130,570	79,352	0,076	0,059
-129,556	25,121	-0,139	-0,083
-128,541	495,400	-0,070	-0,116
-127,526	283,729	-0,058	-0,075
-126,512	-44,034	-0,094	0,034
-125,497	-95,226	0,120	-0,023
-124,483	-74,250	-0,064	0,016
-123,468	-26,116	0,046	-0,020
-122,453	-9,917	0,141	-0,067
-121,439	800,000	-0,058	-0,125
-120,424	-69,040	0,035	0,010
-119,410	281,211	0,051	0,066
-118,395	-200,000	0,003	0,042
-117,380	194,000	-0,066	0,072
-116,366	-200,000	0,006	0,080
-115,351	56,499	-0,062	-0,043
-114,337	800,000	-0,053	-0,152
-113,322	147,470	-0,142	-0,137
-112,307	211,115	-0,053	0,059
-111,293	49,976	-0,026	0,018
-110,278	800,000	0,040	0,092
-109,264	127,307	0,054	-0,049
-108,249	-66,137	0,099	-0,028
-107,234	136,669	-0,065	-0,060
-106,220	-200,000	-0,001	0,031
-105,205	-34,275	0,086	-0,034
-104,191	90,862	0,129	-0,103
-103,176	-200,000	-0,009	0,128
-102,162	423,906	0,028	-0,043
-101,147	28,566	0,081	0,049
-100,132	389,980	0,064	0,095
-99,118	-200,000	0,013	-0,069
-98,103	622,715	-0,063	-0,114
-97,089	-12,187	0,114	0,053
-96,074	-200,000	0,025	0,122
-95,059	800,000	-0,041	-0,092
-94,045	-200,000	-0,001	-0,071
-93,030	-20,787	0,062	-0,027
-92,016	800,000	-0,023	-0,063
-91,001	-46,256	0,032	0,011
-89,986	-200,000	0,009	0,068
-88,972	800,000	0,031	0,069
-87,957	800,000	-0,035	-0,095
-86,943	-58,120	-0,039	-0,012
-85,928	639,594	-0,097	-0,177
-84,913	318,955	0,063	-0,085
-83,899	-77,474	-0,030	-0,007
-82,884	145,482	0,105	0,101
-81,870	-17,983	0,065	0,029
-80,855	97,455	-0,097	-0,080
-79,840	-200,000	0,019	-0,098
-78,826	-124,520	0,042	-0,005
-77,811	186,057	0,097	-0,104
-76,797	-78,524	0,045	0,011
-75,782	-65,781	-0,029	-0,008
-74,767	800,000	-0,025	-0,062
-73,753	177,298	0,064	-0,066
-72,738	-200,000	-0,009	-0,043
-71,724	128,346	-0,062	-0,057
-70,709	235,520	-0,042	0,050
-69,694	800,000	-0,047	-0,109
-68,680	4,650	-0,087	-0,045
-67,665	296,481	-0,048	0,063
-66,651	386,329	0,049	0,072
-65,636	800,000	-0,017	-0,051
-64,622	-200,000	-0,006	0,056
-63,607	262,215	0,055	-0,069
-62,592	-65,961	-0,151	-0,043
-61,578	800,000	0,053	0,141
-60,563	19,133	0,053	0,030
-59,549	90,816	-0,056	-0,045
-58,534	17,260	-2,335	-1,322
-57,519	-200,000	-0,031	-0,539
-56,505	-200,000	-1,283	-5,233
-55,490	222,553	0,777	0,897
-54,476	800,000	5,373	12,404
-53,461	-200,000	19,123	323,894
-52,446	800,000	744,568	2329,333
-51,432	551,687	1656,707	2857,449
-50,417	113,789	1638,930	1425,035
-49,403	79,185	1289,220	987,523
-48,388	30,787	1029,267	629,144
-47,373	19,603	992,163	569,560
-46,359	16,673	979,846	552,853
-45,344	13,301	976,264	539,756
-44,330	13,656	974,786	540,081
-43,315	13,025	972,885	536,940
-42,300	12,889	971,878	535,921
-41,286	12,979	970,682	535,532
-40,271	12,977	969,797	535,017
-39,257	12,920	969,145	534,450
-38,242	12,943	968,082	533,917
-37,227	12,983	967,108	533,490
-36,213	12,920	966,226	532,775
-35,198	12,892	965,475	532,251
-34,184	12,909	964,703	531,860
-33,169	12,874	963,757	531,203
-32,154	12,974	962,933	531,052
-31,140	12,971	961,987	530,498
-30,125	13,005	961,074	530,086
-29,111	12,931	960,251	529,371
-28,096	12,943	959,550	529,001
-27,082	12,986	958,918	528,771
-26,067	12,990	958,107	528,314
-25,052	12,925	957,345	527,665
-24,038	12,924	957,006	527,454
-23,023	12,917	956,208	526,971
-22,009	12,960	955,688	526,800
-20,994	12,973	954,811	526,339
-19,979	13,016	954,142	526,087
-18,965	12,959	953,652	525,612
-17,950	12,951	953,247	525,344
-16,936	12,896	952,565	524,771
-15,921	12,880	951,862	524,312
-14,906	12,751	951,117	523,469
-13,892	12,823	950,397	523,281
-12,877	12,822	949,666	522,856
-11,863	12,846	949,087	522,591
-10,848	12,788	948,713	522,181
-9,833	12,949	948,203	522,390
-8,819	12,896	947,163	521,630
-7,804	12,853	946,515	521,115
-6,790	12,882	945,972	520,886
-5,775	12,813	945,840	520,573
-4,760	12,890	944,910	520,285
-3,746	12,875	944,338	519,902
-2,731	12,690	943,631	518,909
-1,717	12,651	943,052	518,443
-0,702	12,697	942,246	518,127
0,313	12,457	941,795	517,899
1,327	15,931	939,381	527,491
2,342	25,232	792,920	469,831
3,356	21,604	457,046	265,272
4,371	-5,401	315,210	154,208
5,386	-9,283	297,240	141,469
6,400	-10,941	291,320	136,991
7,415	-11,106	288,872	135,666
8,429	-11,254	287,146	134,697
9,444	-11,461	286,365	134,117
10,459	-11,423	285,736	133,848
11,473	-11,465	285,016	133,458
12,488	-11,679	284,542	133,016
13,502	-11,870	283,939	132,537
14,517	-11,645	283,727	132,644
15,531	-11,464	283,210	132,565
16,546	-11,293	282,833	132,542
17,561	-11,366	282,353	132,235
18,575	-11,318	282,192	132,194
19,590	-11,428	281,658	131,826
20,604	-11,250	281,472	131,898
21,619	-11,587	281,130	131,403
22,634	-11,434	280,674	131,325
23,648	-11,525	280,430	131,112
24,663	-11,469	280,096	130,997
25,677	-11,310	279,764	130,982
26,692	-11,331	279,569	130,860
27,707	-11,621	279,316	130,453
28,721	-11,366	279,047	130,558
29,736	-11,224	278,653	130,497
30,750	-11,404	278,443	130,217
31,765	-11,571	278,310	129,984
32,780	-11,384	277,983	129,997
33,794	-11,438	277,622	129,766
34,809	-11,618	277,571	129,560
35,823	-11,237	277,225	129,746
36,838	-11,499	276,985	129,376
37,853	-11,638	276,739	129,118
38,867	-11,399	276,490	129,216
39,882	-11,398	276,239	129,087
40,896	-11,408	275,976	128,944
41,911	-11,527	275,871	128,772
42,926	-11,397	275,320	128,624
43,940	-11,536	275,230	128,441
44,955	-11,500	274,982	128,347
45,969	-11,488	274,789	128,257
46,984	-11,634	274,712	128,074
47,999	-11,719	274,505	127,885
49,013	-11,712	274,057	127,672
50,028	-11,714	273,809	127,544
51,042	-11,758	273,769	127,473
52,057	-11,782	273,309	127,225
53,071	-11,738	273,163	127,186
54,086	-11,762	273,011	127,082
55,101	-11,751	272,856	127,008
56,115	-11,600	272,433	126,940
57,130	-11,598	272,269	126,854
58,144	-11,592	272,022	126,733
59,159	-11,401	271,936	126,859
60,174	-11,509	271,566	126,575
61,188	-11,354	271,377	126,619
62,203	-11,493	271,194	126,394
63,217	-11,387	270,839	126,315
64,232	-11,498	270,759	126,165
65,247	-11,508	270,419	125,986
66,261	-11,522	270,325	125,917
67,276	-11,547	270,042	125,752
68,290	-11,696	269,781	125,482
69,305	-11,707	269,475	125,318
70,320	-11,673	269,547	125,372
71,334	-11,763	269,130	125,085
72,349	-11,511	268,804	125,151
73,363	-11,657	268,615	124,920
74,378	-11,582	268,292	124,827
75,393	-11,593	268,324	124,820
76,407	-11,512	267,895	124,684
77,422	-11,592	267,970	124,634
78,436	-11,598	267,669	124,478
79,451	-11,570	267,337	124,338
80,466	-11,357	267,059	124,390
81,480	-11,621	266,851	124,043
82,495	-11,751	266,708	123,848
83,509	-11,497	266,520	123,980
84,524	-11,747	266,460	123,714
85,539	-11,822	266,149	123,491
86,553	-11,711	265,890	123,461
87,568	-11,498	265,571	123,493
88,582	-11,463	265,342	123,407
89,597	-11,527	265,251	123,296
90,611	-11,692	265,115	123,074
91,626	-11,663	264,805	122,945
92,641	-11,667	264,753	122,906
93,655	-11,520	264,433	122,878
94,670	-11,412	264,221	122,865
95,684	-11,684	264,042	122,528
96,699	-11,905	264,093	122,343
97,714	-11,622	263,693	122,400
98,728	-11,812	263,536	122,147
99,743	-11,703	263,230	122,090
100,757	-11,680	262,991	121,989
101,772	-11,509	262,739	122,014
102,787	-11,668	262,591	121,792
103,801	-11,571	262,261	121,715
104,816	-11,512	262,115	121,689
105,830	-11,526	262,104	121,660
106,845	-11,712	261,900	121,389
107,860	-11,597	261,597	121,340
108,874	-11,523	261,269	121,243
109,889	-11,733	261,137	120,986
110,903	-11,814	261,036	120,856
111,918	-11,597	260,695	120,879
112,933	-11,721	260,575	120,703
113,947	-11,543	260,399	120,768
114,962	-11,565	260,161	120,627
115,976	-11,531	260,178	120,655
116,991	-11,699	259,796	120,318
118,006	-11,462	259,581	120,416
119,020	-11,491	259,367	120,281
120,035	-11,592	259,411	120,202
121,049	-11,522	259,220	120,164
122,064	-11,613	259,016	119,979
123,079	-11,771	258,783	119,722
124,093	-11,711	258,520	119,643
125,108	-11,826	258,381	119,467
126,122	-11,685	258,230	119,509
127,137	-11,671	257,945	119,379
128,151	-11,560	257,736	119,369
129,166	-11,698	257,543	119,148
130,181	-11,554	257,289	119,145
131,195	-11,626	257,076	118,974
132,210	-11,631	256,833	118,846
133,224	-11,682	256,720	118,739
134,239	-11,553	256,443	118,712
135,254	-11,524	256,274	118,649
136,268	-11,682	256,196	118,465
137,283	-11,773	255,854	118,218
138,297	-11,736	255,895	118,258
139,312	-11,534	255,567	118,270
140,327	-11,663	255,384	118,064
141,341	-11,408	255,342	118,253
142,356	-11,452	255,281	118,177
143,370	-11,364	254,822	118,029
144,385	-11,463	254,890	117,965
145,400	-11,304	254,543	117,931
146,414	-11,430	254,333	117,715
147,429	-11,550	254,143	117,514
148,443	-11,473	253,862	117,439
149,458	-11,718	253,836	117,206
150,473	-11,543	253,544	117,212
151,487	-11,622	253,337	117,038
152,502	-11,468	253,327	117,154
153,516	-11,432	252,983	117,015
154,531	-11,477	252,889	116,922
155,546	-11,511	252,670	116,782
156,560	-11,637	252,515	116,593
157,575	-11,741	252,234	116,364
158,589	-11,708	252,078	116,311
159,604	-11,538	251,846	116,337
160,619	-11,089	251,735	116,656
161,633	-11,288	251,631	116,429
162,648	-11,187	251,413	116,403
163,662	-11,502	251,160	116,009
164,677	-11,680	251,089	115,815
165,692	-11,429	250,948	115,952
166,706	-11,249	250,765	116,009
167,721	-11,122	250,686	116,069
168,735	-11,255	250,534	115,877
169,750	-11,304	250,202	115,672
170,764	-11,393	250,051	115,517
171,779	-11,563	249,913	115,300
172,794	-11,326	249,719	115,399
173,808	-11,462	249,560	115,201
174,823	-11,520	249,285	115,015
175,837	-11,919	249,139	114,603
176,852	-11,596	248,969	114,785
177,867	-11,457	248,819	114,822
178,881	-11,338	248,652	114,834
179,896	-11,292	248,394	114,743
180,910	-11,348	248,247	114,618
181,925	-11,460	247,985	114,394
182,940	-11,553	247,941	114,286
183,954	-11,405	247,695	114,286
184,969	-11,282	247,581	114,325
185,983	-11,071	247,651	114,523
186,998	-11,035	247,299	114,379
188,013	-11,182	247,175	114,191
189,027	-11,570	247,205	113,871
190,042	-11,535	246,639	113,629
191,056	-11,443	246,519	113,640
192,071	-11,674	246,430	113,398
193,086	-11,710	246,221	113,262
194,100	-11,669	245,997	113,183
195,115	-11,465	245,888	113,291
196,129	-11,131	245,570	113,410
197,144	-11,573	245,562	113,032
198,159	-11,582	245,229	112,860
199,173	-11,463	245,125	112,901
200,188	-11,396	244,778	112,786
201,202	-11,666	244,529	112,440
202,217	-11,746	244,494	112,348
203,232	-11,528	244,204	112,383
204,246	-11,651	244,142	112,243
205,261	-11,496	244,029	112,309
206,275	-12,147	243,693	111,612
207,290	-10,980	243,939	112,669
208,304	-6,940	245,386	116,650
209,319	-3,866	246,083	119,502
210,334	-2,819	246,406	120,510
211,348	-2,045	246,504	121,185
212,363	-1,529	246,389	121,542
213,377	-1,138	246,471	121,893
214,392	-0,844	246,537	122,156
215,407	-0,560	246,465	122,344
216,421	-0,509	246,201	122,243
217,436	-0,471	245,990	122,158
218,450	-0,562	245,849	122,004
219,465	-0,732	245,759	121,809
220,480	-0,707	245,517	121,698
221,494	-0,817	245,389	121,534
222,509	-0,800	245,172	121,430
223,523	-0,736	245,111	121,441
224,538	-0,658	244,600	121,240
225,553	-0,566	244,451	121,230
226,567	-0,963	244,482	120,911
227,582	-0,854	244,440	120,969
228,596	-0,836	244,187	120,848
229,611	-0,814	243,999	120,762
230,626	-0,964	243,926	120,593
231,640	-0,713	243,658	120,653
232,655	-0,842	243,499	120,459
233,669	-0,590	243,369	120,588
234,684	-0,695	243,063	120,341
235,699	-0,719	242,919	120,239
236,713	-0,755	242,816	120,149
237,728	-0,654	242,581	120,104
238,742	-0,953	242,572	119,847
239,757	-0,760	242,316	119,865
240,772	-0,746	242,123	119,771
241,786	-0,805	241,999	119,651
242,801	-1,009	241,956	119,455
243,815	-0,757	241,761	119,551
244,830	-0,732	241,614	119,487
245,844	-0,902	241,420	119,244
246,859	-1,000	241,203	119,048
247,874	-1,087	240,976	118,855
248,888	-0,833	240,827	118,975
249,903	-0,741	240,762	119,005
250,917	-0,609	240,554	118,998
251,932	-0,850	240,322	118,679
252,947	-0,907	240,273	118,600
253,961	-0,946	240,086	118,465
254,976	-0,890	240,002	118,458
255,990	-0,753	239,774	118,444
257,005	-0,958	239,752	118,260
258,020	-0,824	239,603	118,282
259,034	-0,801	239,325	118,153
260,049	-0,838	239,100	118,002
261,063	-0,920	239,102	117,926
262,078	-0,752	238,840	117,921
263,093	-0,609	238,580	117,895
264,107	-0,725	238,485	117,746
265,122	-0,857	238,497	117,637
266,136	-0,829	238,281	117,542
267,151	-0,768	238,068	117,474
268,166	-0,835	237,938	117,347
269,180	-0,737	237,848	117,369
270,195	-0,891	237,596	117,113
271,209	-1,050	237,454	116,907
272,224	-0,761	237,346	117,072
273,239	-0,807	237,190	116,948
274,253	-0,460	236,947	117,090
275,268	-0,668	236,910	116,898
276,282	-0,784	236,747	116,716
277,297	-0,611	236,609	116,774
278,312	-0,774	236,451	116,557
279,326	-0,616	236,260	116,576
280,341	-0,689	236,249	116,503
281,355	-0,684	235,923	116,336
282,370	-0,595	235,933	116,400
283,384	-0,528	235,607	116,282
284,399	-0,624	235,571	116,178
285,414	-0,729	235,372	115,988
286,428	-0,524	235,246	116,076
287,443	-0,520	235,109	116,001
288,457	-0,405	234,996	116,024
289,472	-0,584	234,729	115,743
290,487	-0,806	234,602	115,497
291,501	-0,574	234,512	115,623
292,516	-0,654	234,269	115,430
293,530	-0,491	234,240	115,532
294,545	-0,416	233,944	115,434
295,560	-0,354	233,841	115,421
296,574	-0,511	233,726	115,232
297,589	-0,607	233,607	115,089
298,603	-0,705	233,232	114,818
299,618	-0,775	233,212	114,745
300,633	-0,643	233,110	114,786
301,647	-0,570	233,123	114,839
302,662	-0,580	232,844	114,684
303,676	-0,617	232,667	114,557
304,691	-0,667	232,609	114,480
305,706	-0,580	232,390	114,429
306,720	-0,343	232,290	114,551
307,735	-0,554	232,280	114,374
308,749	-0,299	231,998	114,421
309,764	-0,324	231,830	114,309
310,779	-0,156	231,655	114,340
311,793	-0,504	231,606	114,039
312,808	-0,443	231,419	113,984
313,822	-0,237	231,113	113,980
314,837	-0,384	231,125	113,864
315,852	-0,150	230,896	113,920
316,866	-0,251	230,801	113,785
317,881	-0,415	230,596	113,550
318,895	-0,428	230,426	113,445
319,910	-0,379	230,286	113,404
320,925	-0,391	230,159	113,322
321,939	-0,355	230,016	113,269
322,954	-0,188	229,807	113,282
323,968	-0,064	229,778	113,353
324,983	-0,163	229,829	113,292
325,997	-0,188	229,509	113,106
327,012	-0,327	229,419	112,946
328,027	-0,250	229,162	112,868
329,041	-0,172	229,000	112,837
330,056	-0,125	228,847	112,787
331,070	-0,203	228,838	112,714
332,085	-0,310	228,635	112,523
333,100	-0,018	228,510	112,671
334,114	-0,245	228,349	112,411
335,129	-0,206	228,132	112,323
336,143	-0,215	227,969	112,226
337,158	-0,062	227,873	112,284
338,173	-0,014	227,697	112,223
339,187	-0,082	227,543	112,087
340,202	-0,195	227,432	111,937
341,216	-0,124	227,350	111,940
342,231	-0,259	227,182	111,746
343,246	-0,212	227,154	111,757
344,260	-0,264	227,037	111,651
345,275	0,067	226,911	111,826
346,289	0,120	226,759	111,782
347,304	-0,220	226,449	111,365
348,319	0,121	226,305	111,538
349,333	0,164	226,125	111,472
350,348	0,003	225,964	111,263
351,362	-0,048	225,878	111,172
352,377	0,038	225,851	111,213
353,392	0,341	225,599	111,304
354,406	0,182	225,659	111,206
355,421	196,424	1318,675	1393,951
356,435	157,486	1451,800	1393,902
