DTS Sentinel unit serial number:	SN410029Multiplexer serial number:	ORYXHardware model number:	OX2-SRSoftware version number:	ORYX F/W v4,00 Oryx Data Collector v3.7.2.0data status	okinstallation	B5 Nyhavnadifferential loss correction	single-endedforward channel	channel 2reverse channel	N/Adate	2023/12/11time	23:02:13forward acquisition time	300,00reverse acquisition time	0,00gamma	499,1914k internal	0,3155k external	0,3155temperature offset calibration	1,0000default loss term (dB/km)	0,3820temperature slope calibration	1,0000multiplexer offset coefficient	1,0000multiplexer slope coefficient	1,0000fibre end	0,00T internal ref (°C)	16,29T ext. ref 1 (°C)	-0,05T ext. ref 2 (°C)	-0,32length (m)	temperature (°C)	Stokes	anti-Stokes-744,400	-200,000	0,016	-0,184
-743,385	-188,512	-0,365	-0,003
-742,371	214,587	0,171	0,200
-741,356	-172,431	-0,335	-0,008
-740,342	425,984	-0,033	0,053
-739,327	36,449	-0,112	0,073
-738,312	95,158	0,081	-0,068
-737,298	-122,057	-0,300	-0,036
-736,283	244,406	0,138	-0,171
-735,269	-169,239	-0,333	-0,009
-734,254	429,358	0,088	0,141
-733,239	47,224	-0,310	-0,213
-732,225	26,850	0,158	-0,097
-731,210	-200,000	0,022	-0,126
-730,196	-77,258	-0,036	0,009
-729,181	-82,412	0,072	0,017
-728,167	800,000	0,012	-0,025
-727,152	-200,000	0,020	-0,110
-726,137	-83,297	-0,204	0,048
-725,123	493,160	-0,068	0,116
-724,108	-200,000	-0,010	-0,155
-723,094	-63,663	-0,038	-0,011
-722,079	431,351	-0,061	0,098
-721,064	800,000	0,054	-0,134
-720,050	-47,936	0,105	-0,037
-719,035	-200,000	-0,037	-0,123
-718,021	-40,747	-0,070	-0,027
-717,006	113,401	-0,075	-0,067
-715,991	800,000	-0,013	-0,036
-714,977	-9,290	-0,069	-0,034
-713,962	197,059	0,107	-0,120
-712,948	-155,176	0,076	-0,004
-711,933	317,126	0,095	-0,133
-710,918	-47,202	-0,079	0,028
-709,904	800,000	0,048	-0,117
-708,889	582,864	0,039	0,071
-707,875	95,531	-0,048	-0,040
-706,860	491,844	0,064	-0,108
-705,845	-139,649	-0,029	0,002
-704,831	-200,000	0,010	-0,065
-703,816	800,000	0,003	-0,006
-702,802	-10,331	-0,028	-0,014
-701,787	-200,000	-0,014	-0,111
-700,772	-154,655	0,059	-0,003
-699,758	95,243	0,095	0,080
-698,743	290,353	-0,066	0,089
-697,729	-47,055	0,175	-0,063
-696,714	227,200	0,030	0,036
-695,699	-74,887	-0,106	-0,028
-694,685	337,970	0,020	0,029
-693,670	800,000	-0,071	-0,153
-692,656	148,547	-0,048	-0,048
-691,641	-81,365	0,119	0,029
-690,627	241,436	0,080	0,099
-689,612	-19,817	0,185	-0,084
-688,597	-200,000	-0,011	0,036
-687,583	-56,456	-0,120	0,039
-686,568	9,340	-0,064	-0,035
-685,554	-4,397	0,042	0,021
-684,539	126,595	0,038	0,036
-683,524	-200,000	-0,010	0,043
-682,510	-81,981	-0,058	0,014
-681,495	46,227	0,088	0,060
-680,481	-200,000	0,001	-0,016
-679,466	-146,347	-0,201	-0,013
-678,451	-200,000	0,012	0,050
-677,437	-200,000	-0,008	0,047
-676,422	187,256	0,086	0,095
-675,408	-113,999	0,047	0,007
-674,393	44,024	-0,096	0,064
-673,378	586,355	0,073	-0,133
-672,364	735,442	-0,057	-0,114
-671,349	800,000	-0,018	-0,051
-670,335	-69,024	0,231	-0,065
-669,320	800,000	-0,044	-0,109
-668,305	-200,000	-0,001	0,006
-667,291	-60,800	-0,191	0,059
-666,276	-200,000	0,017	-0,133
-665,262	161,445	0,095	-0,098
-664,247	-106,206	-0,030	0,005
-663,232	800,000	0,049	-0,112
-662,218	-35,274	0,081	0,032
-661,203	-200,000	0,007	0,103
-660,189	-22,131	0,072	0,032
-659,174	-0,425	0,082	-0,043
-658,159	123,831	-0,043	0,040
-657,145	-200,000	0,012	0,000
-656,130	-200,000	-0,009	-0,052
-655,116	-55,769	0,105	-0,034
-654,101	71,477	-0,043	0,033
-653,086	-1,722	0,053	0,027
-652,072	-200,000	-0,013	-0,071
-651,057	800,000	-0,042	-0,097
-650,043	580,599	0,009	0,016
-649,028	204,080	0,025	-0,028
-648,014	268,422	0,029	0,037
-646,999	-118,772	0,081	0,010
-645,984	-200,000	0,028	-0,102
-644,970	-168,148	-0,063	-0,002
-643,955	800,000	-0,013	-0,028
-642,941	-81,708	-0,151	-0,036
-641,926	-200,000	0,021	0,073
-640,911	-200,000	0,002	0,016
-639,897	-200,000	0,012	0,205
-638,882	2,651	0,020	-0,011
-637,868	-105,207	0,060	0,010
-636,853	79,030	0,057	-0,045
-635,838	233,890	-0,083	-0,101
-634,824	-140,042	-0,148	-0,011
-633,809	-20,041	-0,145	0,066
-632,795	-200,000	0,009	-0,154
-631,780	-200,000	0,024	-0,085
-630,765	-46,736	-0,144	0,051
-629,751	222,764	-0,038	0,045
-628,736	71,904	-0,078	-0,060
-627,722	276,578	-0,026	-0,034
-626,707	80,176	-0,044	0,035
-625,692	-200,000	0,033	0,121
-624,678	-24,410	-0,039	0,017
-623,663	72,275	0,081	-0,062
-622,649	-200,000	-0,016	-0,077
-621,634	-200,000	0,019	0,069
-620,619	410,274	-0,027	0,043
-619,605	-86,843	-0,081	0,018
-618,590	800,000	0,024	-0,076
-617,576	-10,794	-0,180	0,087
-616,561	342,619	0,026	-0,037
-615,546	-200,000	-0,036	-0,163
-614,532	-200,000	0,023	-0,114
-613,517	-114,913	0,031	0,004
-612,503	19,171	-0,072	-0,042
-611,488	75,450	0,119	-0,092
-610,474	-200,000	0,006	-0,127
-609,459	-200,000	-0,015	-0,049
-608,444	-200,000	0,002	-0,108
-607,430	800,000	-0,028	-0,059
-606,415	71,102	-0,089	0,067
-605,401	301,140	0,044	-0,060
-604,386	140,493	0,060	0,058
-603,371	197,460	0,075	-0,084
-602,357	-78,918	0,009	0,002
-601,342	-100,040	-0,018	0,003
-600,328	800,000	-0,025	-0,054
-599,313	-1,328	-0,044	-0,022
-598,298	671,427	-0,005	0,010
-597,284	-115,088	0,063	0,009
-596,269	-127,530	0,154	-0,016
-595,255	-200,000	-0,090	0,000
-594,240	-200,000	-0,005	-0,045
-593,225	213,902	-0,042	0,048
-592,211	261,792	0,070	-0,089
-591,196	339,775	0,051	-0,073
-590,182	54,089	0,102	-0,072
-589,167	69,841	0,030	0,022
-588,152	800,000	-0,033	0,094
-587,138	492,489	0,005	0,009
-586,123	-62,941	0,038	0,011
-585,109	174,634	-0,061	-0,065
-584,094	-200,000	-0,008	0,126
-583,079	272,987	-0,029	-0,038
-582,065	-200,000	-0,000	-0,008
-581,050	-200,000	0,023	0,107
-580,036	122,212	-0,022	0,020
-579,021	-200,000	-0,014	-0,077
-578,006	-200,000	0,008	-0,126
-576,992	800,000	-0,057	-0,137
-575,977	-200,000	0,008	-0,069
-574,963	677,849	0,062	0,118
-573,948	0,802	-0,084	-0,044
-572,934	-74,726	-0,143	-0,037
-571,919	53,774	0,115	-0,081
-570,904	216,671	-0,053	0,062
-569,890	800,000	0,030	-0,068
-568,875	354,675	0,046	0,068
-567,861	28,291	-0,099	-0,061
-566,846	134,230	0,038	-0,036
-565,831	53,413	0,098	0,069
-564,817	-98,320	-0,061	-0,011
-563,802	-200,000	-0,033	-0,118
-562,788	50,033	-0,065	0,045
-561,773	90,027	-0,025	0,020
-560,758	-200,000	-0,005	0,096
-559,744	-39,964	0,153	0,058
-558,729	0,671	-0,104	-0,054
-557,715	23,547	-0,081	-0,049
-556,700	-200,000	0,019	-0,115
-555,685	-62,998	-0,058	-0,017
-554,671	-50,770	0,099	0,034
-553,656	277,220	0,031	0,041
-552,642	226,934	-0,049	0,059
-551,627	800,000	-0,074	0,161
-550,612	568,567	-0,039	-0,069
-549,598	137,162	0,076	-0,073
-548,583	-81,215	-0,130	-0,031
-547,569	43,144	0,053	0,035
-546,554	121,046	0,097	-0,088
-545,539	102,487	0,097	0,083
-544,525	521,043	0,008	-0,014
-543,510	-9,684	-0,118	0,057
-542,496	63,011	0,103	-0,075
-541,481	444,541	-0,057	0,093
-540,466	-200,000	0,006	0,131
-539,452	654,614	0,022	0,042
-538,437	-200,000	0,011	-0,057
-537,423	-200,000	-0,017	-0,070
-536,408	86,858	0,029	0,023
-535,393	62,068	-0,058	-0,042
-534,379	207,633	-0,077	0,088
-533,364	287,333	0,015	-0,020
-532,350	-200,000	0,015	0,103
-531,335	-78,065	-0,085	0,021
-530,321	-185,347	-0,126	0,001
-529,306	3,714	-0,052	-0,028
-528,291	-200,000	-0,029	-0,099
-527,277	-200,000	-0,002	0,012
-526,262	-200,000	-0,027	0,093
-525,248	4,403	0,035	0,019
-524,233	213,862	0,052	-0,060
-523,218	-200,000	0,006	0,078
-522,204	-46,168	0,159	0,057
-521,189	782,714	-0,017	-0,034
-520,175	-98,690	0,038	0,007
-519,160	-131,119	0,097	-0,009
-518,145	-200,000	0,038	-0,173
-517,131	53,787	0,058	-0,041
-516,116	-70,088	0,113	-0,031
-515,102	516,490	0,015	0,026
-514,087	149,607	-0,088	-0,087
-513,072	237,830	0,087	-0,106
-512,058	-8,327	0,072	0,035
-511,043	-167,432	-0,165	0,005
-510,029	65,062	0,093	0,069
-509,014	-1,583	0,082	0,042
-507,999	-200,000	0,005	0,019
-506,985	-140,037	-0,045	0,003
-505,970	800,000	-0,024	-0,065
-504,956	419,970	-0,051	-0,081
-503,941	-200,000	-0,032	0,128
-502,926	163,142	0,128	0,131
-501,912	789,127	0,066	0,132
-500,897	16,950	0,061	-0,035
-499,883	67,306	-0,066	0,049
-498,868	800,000	-0,054	-0,135
-497,853	-200,000	-0,013	-0,115
-496,839	800,000	0,039	-0,117
-495,824	-195,529	0,120	0,001
-494,810	21,470	0,133	0,079
-493,795	-95,445	-0,164	0,032
-492,781	800,000	0,022	0,045
-491,766	-200,000	-0,003	-0,144
-490,751	-62,407	-0,093	-0,028
-489,737	-12,837	-0,016	0,008
-488,722	-29,346	0,052	-0,022
-487,708	-88,193	-0,114	0,025
-486,693	47,053	0,023	0,016
-485,678	-200,000	0,000	0,021
-484,664	121,747	-0,042	-0,039
-483,649	-200,000	0,003	-0,104
-482,635	-8,550	0,113	0,055
-481,620	164,314	-0,080	0,083
-480,605	-104,226	0,076	-0,013
-479,591	-64,912	0,043	0,013
-478,576	-159,872	-0,097	-0,004
-477,562	61,895	-0,065	0,047
-476,547	431,272	0,063	-0,100
-475,532	583,016	0,060	0,107
-474,518	800,000	-0,084	0,184
-473,503	75,245	0,076	0,058
-472,489	-200,000	-0,025	0,101
-471,474	117,932	-0,090	0,081
-470,459	-200,000	0,005	-0,157
-469,445	-23,580	0,099	0,043
-468,430	-30,169	-0,048	-0,020
-467,416	-200,000	-0,008	-0,068
-466,401	312,309	0,062	0,085
-465,386	-63,489	-0,062	-0,018
-464,372	-124,945	0,078	0,009
-463,357	-154,222	-0,190	-0,009
-462,343	-200,000	0,040	-0,143
-461,328	734,419	-0,036	-0,071
-460,313	430,728	0,036	-0,057
-459,299	-200,000	-0,010	0,087
-458,284	103,820	0,085	0,073
-457,270	800,000	0,030	-0,062
-456,255	-73,331	-0,063	-0,017
-455,241	-118,439	0,076	-0,010
-454,226	54,881	-0,075	0,053
-453,211	267,597	-0,099	0,127
-452,197	51,962	0,082	0,057
-451,182	-200,000	0,005	-0,081
-450,168	432,176	-0,044	-0,070
-449,153	800,000	-0,008	0,017
-448,138	-200,000	-0,005	0,034
-447,124	20,049	0,117	-0,069
-446,109	180,061	0,011	0,011
-445,095	-134,938	0,112	-0,010
-444,080	-200,000	-0,046	0,248
-443,065	-109,070	0,146	-0,022
-442,051	-16,278	0,060	0,028
-441,036	800,000	0,018	0,055
-440,022	780,492	-0,097	-0,194
-439,007	69,167	0,054	-0,040
-437,992	-96,859	-0,071	0,013
-436,978	-200,000	0,030	0,109
-435,963	-200,000	0,021	0,067
-434,949	225,907	-0,033	-0,039
-433,934	-200,000	0,002	0,092
-432,919	-200,000	0,011	-0,078
-431,905	-85,364	-0,130	-0,029
-430,890	-17,668	0,167	-0,076
-429,876	42,464	0,040	0,026
-428,861	800,000	-0,025	0,065
-427,846	28,860	-0,050	-0,031
-426,832	-200,000	-0,017	-0,073
-425,817	-200,000	0,005	-0,100
-424,803	-200,000	0,014	-0,145
-423,788	800,000	0,023	-0,051
-422,773	800,000	0,064	0,164
-421,759	-200,000	0,004	0,083
-420,744	410,830	0,032	-0,050
-419,730	150,044	-0,090	0,089
-418,715	-81,094	-0,078	-0,019
-417,701	-59,423	-0,162	0,050
-416,686	412,921	0,025	0,038
-415,671	-6,739	0,064	0,032
-414,657	-52,216	-0,050	-0,017
-413,642	-37,521	0,088	0,034
-412,628	-76,764	-0,143	-0,036
-411,613	-200,000	0,026	-0,084
-410,598	800,000	0,037	-0,081
-409,584	-137,791	0,189	0,015
-408,569	-200,000	0,009	0,067
-407,555	-200,000	0,002	0,036
-406,540	-200,000	0,006	-0,043
-405,525	-200,000	0,012	-0,108
-404,511	-59,342	-0,050	-0,016
-403,496	311,775	-0,086	-0,118
-402,482	-172,797	0,077	0,002
-401,467	-19,719	-0,168	-0,075
-400,452	647,970	0,010	0,020
-399,438	-200,000	0,024	-0,148
-398,423	-164,320	-0,123	-0,004
-397,409	12,658	-0,086	0,048
-396,394	800,000	-0,025	-0,054
-395,379	-200,000	0,017	-0,079
-394,365	-61,241	0,089	-0,027
-393,350	-200,000	0,011	0,137
-392,336	800,000	0,019	-0,045
-391,321	193,301	0,054	-0,060
-390,306	46,340	-0,119	0,080
-389,292	98,474	0,063	0,053
-388,277	269,948	0,021	0,027
-387,263	-91,865	0,089	0,018
-386,248	-200,000	0,030	0,119
-385,233	800,000	0,025	0,052
-384,219	-200,000	0,004	0,125
-383,204	580,857	0,021	-0,037
-382,190	136,374	0,051	0,048
-381,175	87,390	-0,033	0,027
-380,160	-200,000	-0,001	-0,042
-379,146	-8,624	0,095	-0,046
-378,131	-183,309	0,063	-0,001
-377,117	-56,778	0,059	0,019
-376,102	-110,884	0,099	-0,015
-375,088	346,254	-0,075	0,107
-374,073	189,208	-0,020	0,021
-373,058	-200,000	-0,014	0,221
-372,044	-10,004	0,039	0,019
-371,029	217,529	0,053	-0,062
-370,015	-200,000	0,027	-0,091
-369,000	64,110	-0,096	-0,070
-367,985	138,592	-0,017	-0,016
-366,971	89,503	0,059	-0,047
-365,956	149,218	0,101	-0,099
-364,942	260,011	-0,074	-0,093
-363,927	30,259	0,030	-0,019
-362,912	39,452	-0,030	0,019
-361,898	-48,614	-0,074	0,026
-360,883	-200,000	0,060	0,195
-359,869	9,072	-0,078	0,043
-358,854	-200,000	0,018	-0,091
-357,839	-200,000	-0,031	0,106
-356,825	469,589	0,086	0,141
-355,810	129,391	-0,084	0,078
-354,796	-200,000	0,021	-0,152
-353,781	258,429	0,135	-0,170
-352,766	646,077	-0,117	0,218
-351,752	128,508	-0,053	0,049
-350,737	236,903	0,037	0,044
-349,723	-33,414	0,041	-0,016
-348,708	64,498	-0,004	-0,003
-347,693	367,917	0,042	0,062
-346,679	-4,296	-0,030	0,015
-345,664	75,946	-0,046	0,036
-344,650	99,236	-0,097	-0,082
-343,635	-200,000	-0,003	0,086
-342,620	800,000	0,129	0,326
-341,606	34,393	-0,152	-0,096
-340,591	15,653	0,048	-0,027
-339,577	-188,739	-0,090	-0,001
-338,562	210,019	-0,045	0,051
-337,548	-200,000	-0,008	-0,132
-336,533	621,913	-0,054	0,099
-335,518	277,603	-0,040	-0,052
-334,504	-68,855	0,016	-0,004
-333,489	-105,679	0,033	-0,005
-332,475	-148,540	-0,101	0,006
-331,460	369,253	-0,034	-0,050
-330,445	800,000	0,014	0,043
-329,431	-8,899	-0,091	-0,044
-328,416	418,995	0,055	0,085
-327,402	-200,000	0,002	-0,048
-326,387	170,586	-0,038	-0,039
-325,372	-140,469	-0,142	0,011
-324,358	800,000	0,014	-0,032
-323,343	800,000	0,040	-0,105
-322,329	-8,151	-0,090	0,044
-321,314	-200,000	0,009	-0,078
-320,299	-189,384	-0,016	-0,000
-319,285	-155,448	0,077	0,004
-318,270	-114,361	-0,034	0,005
-317,256	-200,000	-0,097	-0,000
-316,241	800,000	-0,031	0,066
-315,226	-150,739	0,054	-0,003
-314,212	50,345	0,153	0,105
-313,197	-200,000	0,017	0,093
-312,183	291,915	0,043	-0,057
-311,168	-29,258	-0,082	0,034
-310,153	800,000	0,056	-0,177
-309,139	800,000	0,019	-0,053
-308,124	205,921	0,046	-0,052
-307,110	116,962	0,078	0,070
-306,095	-200,000	-0,011	0,077
-305,080	-120,983	-0,054	0,006
-304,066	-55,359	-0,146	-0,047
-303,051	324,245	0,049	0,068
-302,037	800,000	-0,011	0,024
-301,022	218,606	-0,075	-0,087
-300,008	3,688	-0,140	0,074
-298,993	800,000	-0,026	0,061
-297,978	168,915	0,043	0,044
-296,964	-200,000	-0,032	-0,110
-295,949	206,864	0,104	-0,117
-294,935	214,704	-0,062	-0,072
-293,920	800,000	-0,026	0,082
-292,905	20,445	-0,116	0,068
-291,891	-109,221	0,154	-0,023
-290,876	-145,027	-0,044	-0,003
-289,862	-200,000	-0,000	-0,040
-288,847	-200,000	0,015	0,156
-287,832	-16,215	-0,089	0,041
-286,818	-22,406	0,097	-0,042
-285,803	-200,000	0,011	-0,056
-284,789	-93,286	0,108	0,021
-283,774	-29,082	0,030	-0,012
-282,759	2,746	-0,048	-0,025
-281,745	368,402	0,048	-0,071
-280,730	56,948	0,084	-0,060
-279,716	-200,000	0,007	0,040
-278,701	168,159	0,084	0,087
-277,686	23,708	0,172	-0,102
-276,672	79,380	-0,049	0,038
-275,657	800,000	0,072	0,177
-274,643	800,000	0,035	-0,071
-273,628	800,000	0,054	-0,114
-272,613	214,084	-0,127	0,146
-271,599	19,948	0,086	0,050
-270,584	118,617	0,021	-0,019
-269,570	46,424	0,116	-0,078
-268,555	800,000	-0,015	-0,040
-267,540	112,105	-0,069	0,060
-266,526	-200,000	0,008	-0,082
-265,511	-200,000	-0,002	-0,040
-264,497	31,613	0,047	0,029
-263,482	-200,000	-0,002	0,090
-262,467	334,842	-0,019	0,026
-261,453	-200,000	-0,009	0,030
-260,438	-3,767	-0,110	0,055
-259,424	-178,434	-0,051	0,001
-258,409	800,000	-0,015	0,040
-257,395	-200,000	-0,017	0,118
-256,380	-200,000	0,030	-0,106
-255,365	800,000	-0,038	0,087
-254,351	-122,333	0,016	0,002
-253,336	-97,327	0,150	0,028
-252,322	44,774	-0,055	-0,037
-251,307	49,723	-0,180	-0,123
-250,292	-117,788	0,043	0,006
-249,278	-200,000	-0,027	0,096
-248,263	800,000	0,035	0,095
-247,249	157,222	0,056	0,056
-246,234	373,541	-0,056	-0,083
-245,219	142,339	-0,069	-0,066
-244,205	-156,479	-0,043	0,002
-243,190	-200,000	-0,006	-0,158
-242,176	-200,000	0,001	0,031
-241,161	-132,104	-0,112	-0,010
-240,146	135,237	-0,032	0,030
-239,132	-21,412	0,005	-0,002
-238,117	603,475	0,026	0,046
-237,103	132,482	-0,075	-0,070
-236,088	263,776	0,071	0,090
-235,073	-200,000	0,003	-0,022
-234,059	-200,000	-0,023	-0,134
-233,044	-200,000	0,006	0,067
-232,030	230,504	0,136	0,161
-231,015	-200,000	0,003	-0,131
-230,000	10,087	-0,115	-0,063
-228,986	-200,000	-0,007	-0,075
-227,971	-200,000	-0,004	-0,134
-226,957	693,663	-0,035	-0,067
-225,942	-200,000	-0,004	0,040
-224,927	28,727	-0,008	0,005
-223,913	800,000	-0,069	-0,151
-222,898	-200,000	-0,033	-0,178
-221,884	85,321	-0,063	0,050
-220,869	101,551	0,096	-0,081
-219,855	207,582	0,096	0,108
-218,840	230,639	-0,048	0,057
-217,825	-200,000	-0,008	0,138
-216,811	-41,228	-0,054	-0,020
-215,796	96,934	0,110	-0,091
-214,782	-86,926	-0,089	-0,019
-213,767	-200,000	-0,016	0,136
-212,752	276,718	0,100	0,129
-211,738	800,000	-0,042	0,088
-210,723	365,216	-0,053	-0,078
-209,709	156,271	-0,097	-0,097
-208,694	-200,000	-0,009	-0,036
-207,679	-17,924	-0,065	0,029
-206,665	-200,000	-0,025	0,127
-205,650	121,452	0,041	-0,037
-204,636	-200,000	-0,009	0,094
-203,621	-151,601	0,086	0,005
-202,606	530,555	-0,050	0,085
-201,592	-200,000	-0,013	0,070
-200,577	-200,000	-0,005	-0,107
-199,563	50,189	0,132	0,090
-198,548	-200,000	-0,022	0,081
-197,533	-72,701	0,104	-0,028
-196,519	6,946	0,044	-0,023
-195,504	68,115	-0,021	-0,016
-194,490	-76,441	-0,081	0,020
-193,475	-200,000	-0,022	0,112
-192,460	285,019	-0,024	0,031
-191,446	280,288	0,098	-0,127
-190,431	800,000	-0,067	0,148
-189,417	-200,000	0,011	-0,048
-188,402	14,168	-0,148	0,083
-187,387	-200,000	-0,027	0,093
-186,373	-200,000	-0,009	-0,111
-185,358	800,000	-0,035	0,083
-184,344	43,766	0,049	0,032
-183,329	800,000	-0,061	0,135
-182,315	-157,616	0,102	-0,004
-181,300	504,476	-0,025	-0,041
-180,285	-200,000	-0,007	0,033
-179,271	139,478	0,087	0,083
-178,256	2,352	-0,125	-0,065
-177,242	-28,032	0,027	-0,011
-176,227	24,655	0,043	-0,026
-175,212	536,059	0,019	-0,033
-174,198	61,685	0,054	0,039
-173,183	-200,000	0,022	-0,086
-172,169	-9,027	0,114	-0,055
-171,154	546,554	0,037	0,064
-170,139	624,039	0,058	0,107
-169,125	386,952	0,099	-0,148
-168,110	539,982	0,052	0,090
-167,096	-200,000	-0,007	-0,114
-166,081	-104,976	-0,086	0,014
-165,066	-50,649	0,069	0,023
-164,052	50,036	0,044	-0,030
-163,037	-200,000	-0,049	0,161
-162,023	800,000	0,035	0,109
-161,008	-31,138	0,153	-0,062
-159,993	-23,237	-0,067	-0,029
-158,979	297,885	-0,033	-0,044
-157,964	-200,000	0,000	-0,119
-156,950	800,000	0,024	0,074
-155,935	-74,042	0,044	0,011
-154,920	159,913	-0,100	-0,100
-153,906	-111,414	0,066	0,010
-152,891	-162,138	0,153	-0,005
-151,877	167,292	-0,035	-0,036
-150,862	68,933	-0,026	0,019
-149,847	800,000	0,053	0,112
-148,833	-200,000	-0,029	-0,159
-147,818	-72,555	-0,051	0,014
-146,804	-7,073	-0,051	0,025
-145,789	-20,037	0,097	-0,043
-144,775	241,306	0,083	-0,100
-143,760	385,614	-0,101	-0,151
-142,745	-23,637	0,125	-0,054
-141,731	515,272	-0,029	0,048
-140,716	-200,000	0,005	0,060
-139,702	-200,000	0,028	0,090
-138,687	56,749	-0,114	0,080
-137,672	169,501	-0,064	0,066
-136,658	-125,725	-0,116	-0,012
-135,643	340,120	0,044	0,062
-134,629	-133,706	0,160	-0,014
-133,614	-73,284	-0,055	-0,014
-132,599	-200,000	-0,010	0,039
-131,585	364,647	-0,082	0,119
-130,570	150,432	0,086	0,084
-129,556	136,234	-0,019	-0,018
-128,541	-200,000	-0,005	-0,076
-127,526	45,285	0,066	0,044
-126,512	86,614	0,108	0,086
-125,497	-200,000	-0,017	-0,117
-124,483	-200,000	0,030	-0,194
-123,468	-200,000	-0,016	0,080
-122,453	-165,977	0,051	-0,002
-121,439	800,000	0,045	-0,131
-120,424	104,010	-0,160	-0,135
-119,410	800,000	0,017	0,037
-118,395	-13,134	-0,049	0,023
-117,380	178,524	0,104	0,110
-116,366	284,162	0,054	0,071
-115,351	41,499	0,043	-0,028
-114,337	231,274	0,049	0,058
-113,322	800,000	-0,027	0,067
-112,307	-62,799	0,091	0,027
-111,293	800,000	0,059	0,157
-110,278	503,545	0,030	0,051
-109,264	113,202	-0,175	0,152
-108,249	-200,000	0,019	-0,117
-107,234	-120,256	0,128	-0,016
-106,220	-200,000	-0,021	-0,077
-105,205	266,767	0,065	-0,082
-104,191	-60,011	0,109	0,033
-103,176	-31,875	-0,111	-0,045
-102,162	76,609	-0,098	0,075
-101,147	647,604	0,065	0,120
-100,132	318,287	-0,077	-0,105
-99,118	-200,000	-0,013	0,123
-98,103	-55,686	-0,099	0,032
-97,089	-173,117	0,069	0,001
-96,074	-200,000	-0,009	-0,050
-95,059	800,000	-0,076	0,213
-94,045	-92,448	0,019	-0,004
-93,030	242,592	-0,035	0,043
-92,016	-158,076	-0,192	0,008
-91,001	220,270	0,077	0,089
-89,986	-130,422	0,033	0,003
-88,972	800,000	-0,042	0,094
-87,957	360,474	-0,100	0,144
-86,943	220,762	-0,015	-0,018
-85,928	-98,735	-0,029	-0,005
-84,913	6,766	0,097	0,052
-83,899	-99,961	-0,034	0,006
-82,884	800,000	-0,009	0,021
-81,870	-200,000	-0,001	0,171
-80,855	-115,488	0,071	-0,010
-79,840	191,805	-0,070	-0,076
-78,826	139,815	-0,079	0,075
-77,811	343,058	-0,047	-0,067
-76,797	800,000	-0,011	-0,033
-75,782	800,000	0,034	0,069
-74,767	-200,000	-0,002	-0,083
-73,753	730,255	-0,018	0,035
-72,738	66,524	0,046	0,034
-71,724	-78,822	-0,076	-0,019
-70,709	399,699	0,047	-0,071
-69,694	-140,464	-0,076	0,006
-68,680	103,286	-0,077	-0,065
-67,665	80,915	0,093	0,072
-66,651	-200,000	0,033	0,174
-65,636	-159,224	0,156	-0,006
-64,622	-130,766	-0,111	0,011
-63,607	-200,000	0,019	-0,076
-62,592	-200,000	-0,009	-0,079
-61,578	288,098	0,072	-0,094
-60,563	314,977	-0,068	0,092
-59,549	-200,000	-0,004	-0,015
-58,534	12,845	-1,750	-0,969
-57,519	800,000	-0,411	-0,896
-56,505	-200,000	-1,331	-4,749
-55,490	-39,595	0,893	0,334
-54,476	800,000	5,281	12,248
-53,461	-200,000	17,020	279,295
-52,446	800,000	720,086	2220,967
-51,432	545,348	1635,006	2817,135
-50,417	113,245	1629,969	1419,868
-49,403	76,766	1287,550	980,216
-48,388	33,413	1030,819	641,367
-47,373	20,436	992,683	574,723
-46,359	18,966	980,595	562,865
-45,344	16,598	976,753	552,862
-44,330	16,743	975,380	552,540
-43,315	16,401	973,442	550,298
-42,300	16,356	972,404	549,543
-41,286	16,363	971,321	548,933
-40,271	16,346	970,387	548,328
-39,257	16,354	969,722	547,957
-38,242	16,393	968,509	547,376
-37,227	16,378	967,776	546,891
-36,213	16,308	967,041	546,225
-35,198	16,316	966,041	545,667
-34,184	16,317	965,515	545,351
-33,169	16,246	964,620	544,592
-32,154	16,401	963,308	544,334
-31,140	16,339	962,582	543,699
-30,125	16,322	961,855	543,214
-29,111	16,367	960,815	542,748
-28,096	16,382	960,271	542,467
-27,082	16,320	959,627	541,883
-26,067	16,302	958,931	541,411
-25,052	16,366	958,113	541,135
-24,038	16,299	957,372	540,479
-23,023	16,244	956,933	540,033
-22,009	16,337	956,069	539,822
-20,994	16,343	955,660	539,589
-19,979	16,343	955,037	539,217
-18,965	16,338	954,166	538,687
-17,950	16,314	953,689	538,320
-16,936	16,266	953,013	537,763
-15,921	16,222	952,578	537,355
-14,906	16,180	951,384	536,525
-13,892	16,225	950,963	536,409
-12,877	16,195	950,346	535,944
-11,863	16,133	949,704	535,365
-10,848	16,170	949,353	535,263
-9,833	16,321	948,641	535,323
-8,819	16,304	947,964	534,866
-7,804	16,237	947,367	534,293
-6,790	16,222	946,766	533,884
-5,775	16,222	946,102	533,487
-4,760	16,232	945,592	533,211
-3,746	16,197	944,790	532,627
-2,731	16,071	944,348	531,956
-1,717	16,018	943,666	531,385
-0,702	16,033	943,011	531,041
0,313	15,866	942,420	530,981
1,327	19,154	940,126	540,033
2,342	28,362	797,552	482,620
3,356	25,202	461,161	274,185
4,371	-2,428	315,088	157,915
5,386	-6,537	296,863	144,599
6,400	-8,696	290,900	139,533
7,415	-9,026	288,411	138,001
8,429	-9,239	286,916	137,063
9,444	-9,223	285,867	136,566
10,459	-9,134	285,300	136,370
11,473	-9,353	284,700	135,857
12,488	-9,225	284,257	135,758
13,502	-9,159	283,701	135,545
14,517	-9,178	283,329	135,337
15,531	-9,197	282,838	135,072
16,546	-8,964	282,419	135,085
17,561	-9,221	282,169	134,705
18,575	-9,084	281,722	134,612
19,590	-9,076	281,472	134,488
20,604	-9,182	281,103	134,198
21,619	-9,342	280,813	133,894
22,634	-9,029	280,423	133,996
23,648	-8,989	280,069	133,853
24,663	-9,189	279,730	133,488
25,677	-9,143	279,635	133,475
26,692	-9,158	279,346	133,311
27,707	-9,119	278,964	133,153
28,721	-9,235	278,804	132,955
29,736	-9,168	278,499	132,861
30,750	-9,176	278,243	132,720
31,765	-9,282	277,825	132,408
32,780	-9,045	277,696	132,560
33,794	-9,370	277,540	132,165
34,809	-9,397	277,344	132,034
35,823	-9,226	276,987	132,014
36,838	-9,218	276,662	131,856
37,853	-9,179	276,459	131,783
38,867	-9,367	276,160	131,452
39,882	-9,104	275,865	131,548
40,896	-9,197	275,774	131,405
41,911	-9,168	275,535	131,306
42,926	-9,330	275,108	130,940
43,940	-9,357	275,007	130,854
44,955	-9,271	274,730	130,791
45,969	-9,497	274,500	130,459
46,984	-9,523	274,232	130,295
47,999	-9,568	274,006	130,134
49,013	-9,621	273,685	129,921
50,028	-9,875	273,412	129,543
51,042	-9,892	273,074	129,355
52,057	-9,746	272,803	129,351
53,071	-9,704	272,691	129,325
54,086	-9,773	272,635	129,223
55,101	-9,728	272,489	129,184
56,115	-9,597	272,327	129,217
57,130	-9,256	272,046	129,389
58,144	-9,172	271,920	129,396
59,159	-9,069	271,706	129,377
60,174	-9,131	271,594	129,255
61,188	-8,983	271,115	129,153
62,203	-9,121	271,059	128,987
63,217	-8,958	270,711	128,959
64,232	-8,997	270,561	128,841
65,247	-8,950	270,285	128,741
66,261	-9,119	270,063	128,469
67,276	-9,188	269,961	128,345
68,290	-9,437	269,606	127,937
69,305	-9,560	269,469	127,747
70,320	-9,411	269,212	127,751
71,334	-9,262	268,980	127,766
72,349	-9,111	268,808	127,810
73,363	-8,991	268,665	127,841
74,378	-9,264	268,442	127,474
75,393	-9,149	268,221	127,463
76,407	-9,053	268,045	127,456
77,422	-9,187	267,969	127,285
78,436	-8,986	267,553	127,259
79,451	-9,126	267,373	127,035
80,466	-9,037	267,097	126,974
81,480	-9,257	267,011	126,722
82,495	-9,140	266,605	126,624
83,509	-9,237	266,559	126,502
84,524	-9,477	266,355	126,177
85,539	-9,327	266,032	126,149
86,553	-9,508	265,892	125,907
87,568	-9,329	265,690	125,962
88,582	-9,317	265,443	125,845
89,597	-9,176	265,120	125,807
90,611	-9,166	265,171	125,830
91,626	-8,855	264,746	125,896
92,641	-9,083	264,765	125,689
93,655	-8,971	264,563	125,682
94,670	-9,259	264,419	125,345
95,684	-9,227	264,075	125,199
96,699	-9,209	263,859	125,101
97,714	-9,171	263,677	125,038
98,728	-9,135	263,348	124,903
99,743	-9,333	263,175	124,633
100,757	-9,477	263,099	124,457
101,772	-9,381	262,943	124,458
102,787	-9,272	262,647	124,404
103,801	-9,230	262,547	124,382
104,816	-9,136	262,374	124,373
105,830	-9,333	262,177	124,094
106,845	-9,155	261,883	124,101
107,860	-9,228	261,651	123,916
108,874	-9,143	261,391	123,857
109,889	-9,152	261,255	123,773
110,903	-9,346	261,116	123,525
111,918	-9,133	260,887	123,594
112,933	-9,224	260,704	123,416
113,947	-9,152	260,584	123,412
114,962	-9,025	260,284	123,370
115,976	-9,179	260,161	123,165
116,991	-9,234	260,079	123,067
118,006	-8,980	259,644	123,074
119,020	-9,156	259,816	122,990
120,035	-9,129	259,558	122,880
121,049	-8,943	259,402	122,959
122,064	-9,204	259,202	122,624
123,079	-9,148	259,012	122,572
124,093	-9,018	258,736	122,545
125,108	-9,374	258,461	122,091
126,122	-9,540	258,092	121,761
127,137	-9,511	258,005	121,735
128,151	-9,415	257,747	121,686
129,166	-9,372	257,762	121,720
130,181	-9,494	257,328	121,398
131,195	-9,413	257,249	121,420
132,210	-9,258	257,192	121,518
133,224	-9,276	257,029	121,414
134,239	-9,372	256,777	121,200
135,254	-9,209	256,469	121,186
136,268	-9,177	256,306	121,125
137,283	-9,381	256,048	120,816
138,297	-9,475	255,708	120,564
139,312	-9,632	255,651	120,390
140,327	-9,303	255,472	120,580
141,341	-8,981	255,466	120,844
142,356	-9,189	255,275	120,564
143,370	-8,950	255,086	120,670
144,385	-8,867	254,859	120,623
145,400	-8,945	254,736	120,487
146,414	-8,889	254,614	120,467
147,429	-8,853	254,340	120,357
148,443	-9,019	254,192	120,134
149,458	-9,057	254,035	120,017
150,473	-8,987	253,923	120,013
151,487	-8,970	253,467	119,801
152,502	-8,994	253,418	119,747
153,516	-9,002	253,205	119,629
154,531	-8,920	253,129	119,652
155,546	-9,019	253,079	119,533
156,560	-9,074	252,748	119,319
157,575	-9,205	252,535	119,096
158,589	-9,046	252,238	119,081
159,604	-8,828	252,140	119,210
160,619	-9,107	252,088	118,938
161,633	-8,976	251,861	118,931
162,648	-9,039	251,636	118,760
163,662	-8,795	251,453	118,871
164,677	-8,906	251,408	118,745
165,692	-8,928	251,027	118,535
166,706	-8,891	250,998	118,542
167,721	-8,846	250,809	118,481
168,735	-8,973	250,648	118,286
169,750	-8,784	250,559	118,394
170,764	-8,861	250,550	118,314
171,779	-8,958	250,228	118,070
172,794	-8,845	250,060	118,075
173,808	-8,821	249,847	117,985
174,823	-9,380	249,633	117,402
175,837	-9,370	249,391	117,286
176,852	-9,010	249,302	117,536
177,867	-8,879	249,190	117,583
178,881	-8,873	248,980	117,478
179,896	-8,897	248,677	117,305
180,910	-8,920	248,704	117,288
181,925	-8,906	248,440	117,165
182,940	-8,785	248,183	117,134
183,954	-8,929	248,053	116,942
184,969	-8,896	248,064	116,965
185,983	-8,667	247,852	117,046
186,998	-8,824	247,608	116,789
188,013	-8,868	247,426	116,656
189,027	-8,874	247,377	116,618
190,042	-8,809	247,072	116,518
191,056	-8,766	246,979	116,499
192,071	-8,708	246,838	116,470
193,086	-9,200	246,691	115,982
194,100	-8,928	246,424	116,071
195,115	-8,738	246,269	116,146
196,129	-8,880	246,204	115,987
197,144	-8,788	245,796	115,860
198,159	-9,113	245,734	115,552
199,173	-9,090	245,533	115,466
200,188	-9,028	245,422	115,455
201,202	-9,211	245,012	115,101
202,217	-9,468	244,784	114,772
203,232	-9,448	244,719	114,748
204,246	-8,984	244,505	115,019
205,261	-8,551	244,416	115,323
206,275	-9,441	243,963	114,368
207,290	-6,093	245,425	117,806
208,304	-0,287	247,181	123,452
209,319	2,243	247,712	125,803
210,334	2,404	247,731	125,934
211,348	2,692	247,803	126,199
212,363	3,014	247,650	126,376
213,377	3,243	247,565	126,511
214,392	3,272	247,348	126,412
215,407	2,953	247,197	126,061
216,421	3,003	246,992	125,986
217,436	3,408	246,823	126,222
218,450	3,311	246,842	126,140
219,465	2,876	246,588	125,642
220,480	2,925	246,389	125,569
221,494	2,938	246,325	125,536
222,509	3,049	246,141	125,523
223,523	3,106	245,903	125,436
224,538	2,759	245,491	124,931
225,553	2,526	245,417	124,691
226,567	2,667	245,277	124,724
227,582	2,793	245,226	124,790
228,596	2,690	245,110	124,636
229,611	2,690	244,842	124,489
230,626	2,608	244,577	124,276
231,640	2,896	244,542	124,482
232,655	2,901	244,365	124,385
233,669	2,850	244,068	124,181
234,684	2,773	243,925	124,035
235,699	3,156	243,937	124,342
236,713	3,329	243,702	124,351
237,728	2,843	243,652	123,920
238,742	2,778	243,335	123,695
239,757	2,781	243,153	123,594
240,772	2,669	243,062	123,446
241,786	2,889	242,995	123,579
242,801	2,683	242,664	123,232
243,815	2,441	242,529	122,958
244,830	2,699	242,468	123,124
245,844	2,938	242,326	123,234
246,859	2,717	242,107	122,933
247,874	2,804	241,971	122,924
248,888	2,933	241,750	122,904
249,903	2,839	241,638	122,761
250,917	2,940	241,509	122,765
251,932	3,135	241,683	122,999
252,947	3,220	241,122	122,771
253,961	2,727	240,832	122,218
254,976	2,680	240,994	122,251
255,990	3,252	240,678	122,538
257,005	2,865	240,500	122,127
258,020	2,388	240,439	121,703
259,034	2,706	240,124	121,787
260,049	2,815	240,169	121,886
261,063	2,476	240,032	121,535
262,078	2,668	239,835	121,578
263,093	2,747	239,650	121,536
264,107	2,961	239,538	121,639
265,122	2,882	239,291	121,440
266,136	2,692	239,178	121,221
267,151	2,899	239,110	121,340
268,166	2,714	238,863	121,057
269,180	2,733	238,576	120,916
270,195	3,091	238,789	121,296
271,209	3,494	238,554	121,486
272,224	2,623	238,327	120,670
273,239	2,620	238,057	120,520
274,253	2,632	238,030	120,505
275,268	2,709	237,850	120,464
276,282	2,968	237,750	120,607
277,297	2,664	237,384	120,171
278,312	2,621	237,318	120,093
279,326	3,003	237,145	120,296
280,341	2,833	237,082	120,119
281,355	2,722	237,039	119,999
282,370	2,909	236,828	120,029
283,384	3,004	236,526	119,940
284,399	2,626	236,487	119,612
285,414	2,406	236,337	119,354
286,428	2,644	236,228	119,474
287,443	2,661	236,067	119,395
288,457	3,103	235,932	119,663
289,472	3,035	235,951	119,608
290,487	2,924	235,436	119,250
291,501	2,788	235,278	119,054
292,516	2,625	235,039	118,795
293,530	2,429	235,036	118,629
294,545	2,641	234,945	118,738
295,560	2,896	234,729	118,817
296,574	2,594	234,580	118,495
297,589	2,603	234,485	118,445
298,603	3,201	234,371	118,842
299,618	3,026	234,208	118,612
300,633	3,072	234,114	118,590
301,647	3,231	234,052	118,671
302,662	3,525	233,854	118,788
303,676	3,558	233,894	118,823
304,691	2,937	233,696	118,231
305,706	3,316	233,439	118,383
306,720	3,282	233,206	118,228
307,735	2,925	233,097	117,887
308,749	3,096	232,952	117,935
309,764	2,671	232,665	117,452
310,779	2,672	232,492	117,355
311,793	2,519	232,297	117,128
312,808	2,464	232,220	117,036
313,822	2,704	231,954	117,076
314,837	2,710	231,845	117,016
315,852	2,554	231,722	116,824
316,866	2,795	231,631	116,952
317,881	3,290	231,458	117,233
318,895	3,158	231,574	117,181
319,910	3,293	231,367	117,168
320,925	3,080	231,139	116,880
321,939	2,766	230,884	116,501
322,954	3,085	230,838	116,710
323,968	2,613	230,755	116,298
324,983	2,880	230,489	116,357
325,997	3,007	230,436	116,416
327,012	2,614	230,361	116,069
328,027	2,744	230,042	115,997
329,041	3,315	230,051	116,426
330,056	3,861	230,098	116,854
331,070	3,461	229,900	116,439
332,085	3,072	229,589	115,976
333,100	2,856	229,273	115,642
334,114	3,164	229,137	115,797
335,129	3,481	229,039	115,976
336,143	3,209	229,033	115,758
337,158	3,459	228,782	115,809
338,173	3,369	228,618	115,647
339,187	3,121	228,602	115,442
340,202	3,185	228,438	115,398
341,216	3,051	228,239	115,185
342,231	3,001	228,103	115,070
343,246	2,779	227,979	114,829
344,260	3,074	227,865	114,983
345,275	3,384	227,852	115,199
346,289	3,420	227,736	115,158
347,304	3,368	227,495	114,987
348,319	3,345	227,263	114,842
349,333	3,085	227,150	114,580
350,348	2,934	226,962	114,361
351,362	3,446	226,662	114,583
352,377	3,062	226,693	114,302
353,392	2,975	226,520	114,138
354,406	2,688	226,478	113,893
355,421	195,311	1321,945	1398,997
356,435	156,560	1455,417	1399,005
