DTS Sentinel unit serial number:	SN410029Multiplexer serial number:	ORYXHardware model number:	OX2-SRSoftware version number:	ORYX F/W v4,00 Oryx Data Collector v3.7.2.0data status	okinstallation	B5 Nyhavnadifferential loss correction	single-endedforward channel	channel 2reverse channel	N/Adate	2023/12/12time	11:57:13forward acquisition time	300,00reverse acquisition time	0,00gamma	499,1914k internal	0,3158k external	0,3158temperature offset calibration	1,0000default loss term (dB/km)	0,3820temperature slope calibration	1,0000multiplexer offset coefficient	1,0000multiplexer slope coefficient	1,0000fibre end	0,00T internal ref (°C)	15,16T ext. ref 1 (°C)	-0,92T ext. ref 2 (°C)	-1,14length (m)	temperature (°C)	Stokes	anti-Stokes-744,400	153,736	0,032	-0,032
-743,385	-18,355	-0,271	0,124
-742,371	800,000	0,050	0,121
-741,356	62,171	-0,168	0,123
-740,342	220,380	-0,043	0,051
-739,327	-178,834	-0,224	0,004
-738,312	18,823	0,033	-0,019
-737,298	-32,295	-0,349	-0,143
-736,283	-60,909	0,147	0,045
-735,269	-44,891	-0,277	-0,101
-734,254	128,310	-0,107	-0,100
-733,239	14,160	-0,499	-0,286
-732,225	-4,502	0,159	0,081
-731,210	-68,780	0,060	0,017
-730,196	-28,441	-0,025	0,011
-729,181	-95,324	0,169	0,033
-728,167	-67,282	0,060	0,017
-727,152	84,464	0,039	0,031
-726,137	15,701	-0,063	0,036
-725,123	-122,093	-0,094	-0,011
-724,108	-39,398	-0,207	-0,080
-723,094	-200,000	-0,010	-0,035
-722,079	-92,858	-0,173	-0,035
-721,064	77,136	-0,143	0,112
-720,050	800,000	0,041	-0,086
-719,035	28,934	-0,026	-0,016
-718,021	-110,739	-0,021	0,003
-717,006	230,620	-0,078	-0,094
-715,991	216,897	0,037	-0,044
-714,977	301,274	-0,012	0,016
-713,962	-200,000	0,015	-0,063
-712,948	96,571	-0,073	0,061
-711,933	141,612	-0,058	-0,057
-710,918	-200,000	-0,000	0,006
-709,904	30,794	-0,073	-0,046
-708,889	-200,000	0,010	-0,051
-707,875	118,285	0,055	-0,050
-706,860	-200,000	0,003	-0,078
-705,845	406,018	-0,040	-0,063
-704,831	-132,382	-0,063	-0,006
-703,816	-84,767	-0,150	-0,034
-702,802	297,854	-0,112	-0,152
-701,787	-44,169	0,096	0,035
-700,772	22,940	-0,063	-0,038
-699,758	-158,356	0,142	-0,006
-698,743	-200,000	0,006	0,028
-697,729	-24,615	0,071	-0,031
-696,714	-90,323	-0,060	0,013
-695,699	800,000	0,024	0,063
-694,685	-200,000	-0,009	-0,122
-693,670	718,913	0,033	0,064
-692,656	-200,000	0,026	-0,123
-691,641	94,601	0,089	0,075
-690,627	195,397	0,017	0,019
-689,612	-200,000	-0,012	0,077
-688,597	-200,000	-0,046	-0,160
-687,583	345,625	-0,056	0,082
-686,568	17,952	-0,071	-0,042
-685,554	800,000	-0,017	0,037
-684,539	-200,000	0,001	-0,080
-683,524	-26,041	-0,006	0,003
-682,510	800,000	0,015	-0,032
-681,495	-7,968	-0,079	0,039
-680,481	334,051	0,053	-0,076
-679,466	-200,000	0,003	-0,067
-678,451	-200,000	-0,004	-0,060
-677,437	124,012	-0,086	-0,080
-676,422	55,680	0,081	-0,058
-675,408	-200,000	0,007	0,076
-674,393	108,199	-0,090	-0,079
-673,378	15,358	0,079	-0,045
-672,364	-111,223	-0,133	0,020
-671,349	0,278	-0,153	-0,080
-670,335	-50,318	0,021	0,007
-669,320	301,046	0,043	-0,059
-668,305	152,624	-0,089	-0,089
-667,291	238,113	-0,072	-0,088
-666,276	-55,257	-0,093	-0,031
-665,262	268,185	0,019	-0,024
-664,247	-121,507	-0,021	-0,003
-663,232	628,053	0,109	0,204
-662,218	-18,610	-0,068	0,031
-661,203	-40,087	-0,063	-0,024
-660,189	-200,000	-0,031	-0,133
-659,174	-38,209	0,023	0,009
-658,159	-66,565	0,065	-0,019
-657,145	40,971	-0,166	-0,110
-656,130	223,274	-0,046	-0,054
-655,116	-200,000	0,000	-0,031
-654,101	-89,673	0,073	0,016
-653,086	-151,301	-0,034	-0,002
-652,072	165,958	-0,043	-0,044
-651,057	253,798	0,015	0,018
-650,043	51,019	-0,070	0,049
-649,028	-200,000	0,019	-0,074
-648,014	-200,000	-0,004	-0,113
-646,999	395,182	0,036	-0,056
-645,984	-87,569	-0,109	-0,024
-644,970	800,000	-0,039	-0,083
-643,955	11,403	-0,055	-0,031
-642,941	168,697	-0,127	-0,133
-641,926	-200,000	0,002	-0,159
-640,911	-39,641	-0,073	-0,028
-639,897	-123,371	0,047	0,005
-638,882	117,513	0,017	-0,015
-637,868	-11,091	-0,034	0,016
-636,853	167,961	-0,069	-0,072
-635,838	0,332	-0,084	-0,044
-634,824	800,000	0,065	-0,135
-633,809	182,625	-0,053	-0,057
-632,795	-200,000	-0,005	0,094
-631,780	270,666	0,030	0,039
-630,765	610,244	-0,025	0,047
-629,751	6,887	0,108	-0,059
-628,736	-200,000	0,007	0,047
-627,722	286,290	-0,025	-0,033
-626,707	486,421	-0,013	-0,022
-625,692	-77,759	-0,166	0,042
-624,678	-200,000	-0,003	-0,055
-623,663	-123,831	0,097	-0,011
-622,649	-18,372	0,036	-0,016
-621,634	-94,152	-0,085	0,017
-620,619	217,474	-0,050	0,059
-619,605	-200,000	-0,013	-0,055
-618,590	53,552	0,094	-0,066
-617,576	-157,039	-0,081	0,004
-616,561	367,301	-0,044	0,065
-615,546	-76,566	-0,082	-0,021
-614,532	-200,000	0,031	-0,180
-613,517	-200,000	0,002	-0,054
-612,503	539,113	0,007	0,013
-611,488	253,967	-0,061	0,077
-610,474	-43,245	0,229	0,085
-609,459	534,517	0,011	-0,020
-608,444	345,449	0,020	0,029
-607,430	214,767	-0,092	-0,107
-606,415	17,131	-0,138	-0,080
-605,401	266,069	0,091	-0,117
-604,386	800,000	0,009	-0,020
-603,371	106,090	0,151	0,131
-602,357	-76,142	-0,104	0,027
-601,342	-62,955	-0,144	-0,043
-600,328	-200,000	-0,005	-0,049
-599,313	199,819	0,026	-0,030
-598,298	6,004	0,013	0,007
-597,284	240,616	0,039	0,048
-596,269	407,105	-0,058	-0,090
-595,255	80,344	-0,099	0,078
-594,240	608,804	-0,049	-0,089
-593,225	261,503	-0,068	0,087
-592,211	-82,412	0,034	-0,008
-591,196	400,558	-0,061	0,094
-590,182	-200,000	-0,005	-0,042
-589,167	162,912	-0,058	-0,060
-588,152	-200,000	0,010	-0,041
-587,138	800,000	-0,038	0,078
-586,123	-200,000	-0,015	-0,050
-585,109	117,843	-0,067	-0,061
-584,094	-45,065	-0,150	0,054
-583,079	237,082	0,070	-0,085
-582,065	-44,679	-0,071	-0,026
-581,050	-61,650	0,049	-0,015
-580,036	-54,688	0,143	-0,047
-579,021	207,022	-0,042	-0,048
-578,006	745,570	-0,019	0,038
-576,992	105,088	0,022	-0,019
-575,977	800,000	0,061	0,136
-574,963	-51,983	-0,049	0,017
-573,948	-200,000	0,009	-0,055
-572,934	-200,000	-0,030	0,110
-571,919	610,260	0,058	0,106
-570,904	-200,000	-0,013	-0,045
-569,890	-22,470	-0,045	-0,020
-568,875	-122,897	0,042	-0,005
-567,861	31,498	0,048	0,030
-566,846	-115,220	-0,111	-0,015
-565,831	800,000	-0,036	-0,081
-564,817	15,413	-0,100	0,057
-563,802	353,148	-0,046	-0,067
-562,788	475,862	-0,042	0,070
-561,773	627,800	-0,032	-0,059
-560,758	463,704	-0,036	0,059
-559,744	2,296	0,071	-0,037
-558,729	800,000	-0,016	-0,037
-557,715	-80,544	-0,036	-0,009
-556,700	800,000	-0,015	-0,036
-555,685	-200,000	0,033	-0,118
-554,671	-43,375	-0,139	0,051
-553,656	800,000	0,043	0,138
-552,642	18,433	-0,078	0,046
-551,627	-200,000	0,017	0,086
-550,612	9,151	-0,058	-0,032
-549,598	25,918	-0,053	-0,032
-548,583	556,064	-0,015	-0,027
-547,569	6,423	-0,055	0,030
-546,554	-96,448	0,126	0,024
-545,539	800,000	0,061	0,127
-544,525	-41,734	0,114	0,043
-543,510	91,598	-0,146	-0,120
-542,496	-65,766	-0,062	0,018
-541,481	-118,827	-0,057	0,007
-540,466	-142,612	-0,138	0,010
-539,452	-140,630	0,120	-0,009
-538,437	-200,000	0,014	0,050
-537,423	-33,419	-0,080	0,032
-536,408	-200,000	0,012	0,051
-535,393	238,733	-0,024	0,029
-534,379	-109,063	0,060	0,009
-533,364	90,138	-0,175	0,143
-532,350	12,267	-0,111	0,063
-531,335	485,681	-0,077	-0,128
-530,321	-57,815	-0,109	0,035
-529,306	-97,170	0,131	0,025
-528,291	611,366	0,080	0,147
-527,277	106,723	0,075	-0,065
-526,262	-200,000	-0,032	0,115
-525,248	-100,164	-0,077	-0,014
-524,233	92,111	0,072	-0,059
-523,218	503,369	-0,014	-0,024
-522,204	-93,073	-0,108	0,022
-521,189	43,567	0,119	0,080
-520,175	800,000	-0,063	-0,134
-519,160	190,431	-0,080	-0,088
-518,145	361,966	0,047	0,070
-517,131	231,781	-0,071	0,086
-516,116	14,832	0,088	-0,050
-515,102	-78,829	-0,082	0,020
-514,087	27,430	0,048	0,030
-513,072	117,848	-0,113	-0,102
-512,058	17,408	-0,023	-0,013
-511,043	-200,000	-0,014	-0,129
-510,029	-200,000	0,018	-0,101
-509,014	-200,000	-0,001	0,033
-507,999	-200,000	-0,021	0,097
-506,985	-200,000	0,003	-0,131
-505,970	800,000	0,055	-0,129
-504,956	-200,000	0,004	0,019
-503,941	-55,323	0,123	0,040
-502,926	-6,544	0,117	0,058
-501,912	-200,000	-0,003	-0,025
-500,897	-169,584	-0,142	-0,004
-499,883	-200,000	0,002	0,035
-498,868	-145,442	0,049	-0,003
-497,853	82,540	-0,031	-0,024
-496,839	-200,000	0,007	-0,070
-495,824	800,000	-0,027	0,074
-494,810	521,821	0,064	0,111
-493,795	-200,000	0,001	0,079
-492,781	800,000	0,024	-0,071
-491,766	800,000	0,052	0,109
-490,751	-200,000	0,002	-0,084
-489,737	800,000	0,052	0,116
-488,722	243,703	0,035	0,043
-487,708	-113,817	-0,117	0,016
-486,693	97,808	-0,097	0,081
-485,678	-66,727	-0,082	-0,024
-484,664	-35,032	0,121	-0,048
-483,649	117,872	0,060	-0,054
-482,635	-200,000	-0,003	0,193
-481,620	-44,946	0,041	-0,015
-480,605	-28,796	0,075	-0,031
-479,591	-28,316	0,072	0,030
-478,576	-200,000	0,138	0,000
-477,562	-200,000	0,035	-0,113
-476,547	-53,407	0,052	-0,017
-475,532	800,000	0,006	0,021
-474,518	800,000	-0,046	0,120
-473,503	152,244	0,142	-0,142
-472,489	-200,000	-0,017	0,105
-471,474	-125,432	-0,138	-0,015
-470,459	800,000	-0,026	-0,078
-469,445	131,860	-0,095	-0,090
-468,430	-137,596	0,109	0,009
-467,416	68,826	0,070	0,053
-466,401	558,796	-0,081	0,144
-465,386	138,903	-0,086	-0,083
-464,372	491,686	-0,022	0,038
-463,357	75,890	0,152	0,117
-462,343	133,359	0,083	0,078
-461,328	12,593	-0,088	-0,050
-460,313	-144,178	0,122	0,008
-459,299	2,201	-0,051	0,027
-458,284	-200,000	0,028	0,098
-457,270	-200,000	-0,028	0,094
-456,255	123,673	-0,018	0,017
-455,241	215,524	-0,071	-0,083
-454,226	-84,389	-0,179	-0,041
-453,211	-172,131	0,033	-0,001
-452,197	800,000	-0,032	-0,076
-451,182	24,516	-0,054	0,033
-450,168	-33,474	-0,076	0,031
-449,153	-26,490	-0,069	-0,029
-448,138	108,392	-0,046	-0,040
-447,124	99,763	0,094	-0,079
-446,109	-200,000	0,024	-0,110
-445,095	-38,175	-0,008	0,003
-444,080	-172,373	-0,100	-0,002
-443,065	-199,997	0,093	-0,000
-442,051	-140,654	0,182	-0,014
-441,036	38,923	0,017	-0,011
-440,022	-23,612	-0,041	-0,018
-439,007	136,829	0,061	0,058
-437,992	-104,560	0,057	0,009
-436,978	-28,228	0,061	0,026
-435,963	-67,006	0,043	0,012
-434,949	182,270	0,046	0,050
-433,934	129,605	0,083	-0,077
-432,919	-135,612	-0,027	0,002
-431,905	800,000	-0,001	-0,001
-430,890	4,076	0,125	0,066
-429,876	229,838	0,063	-0,075
-428,861	196,052	0,106	0,118
-427,846	-200,000	0,016	0,091
-426,832	-200,000	0,015	-0,132
-425,817	12,639	-0,148	-0,083
-424,803	800,000	0,015	-0,037
-423,788	217,766	0,060	0,070
-422,773	96,486	-0,094	0,079
-421,759	-106,703	0,046	0,007
-420,744	-182,248	0,032	0,000
-419,730	-200,000	0,009	-0,041
-418,715	60,230	-0,139	-0,100
-417,701	-40,895	-0,152	0,057
-416,686	-200,000	0,025	0,119
-415,671	-200,000	-0,006	0,084
-414,657	800,000	0,064	0,169
-413,642	800,000	-0,041	0,090
-412,628	-107,884	-0,025	0,004
-411,613	-44,211	0,214	0,078
-410,598	-144,622	-0,060	-0,004
-409,584	213,898	0,064	0,073
-408,569	800,000	0,006	-0,018
-407,555	-200,000	0,010	0,081
-406,540	-200,000	-0,014	0,086
-405,525	92,132	0,057	-0,046
-404,511	800,000	-0,037	-0,112
-403,496	303,209	0,073	-0,099
-402,482	59,240	0,070	-0,050
-401,467	450,972	-0,017	0,028
-400,452	457,216	0,016	0,026
-399,438	58,964	0,037	-0,027
-398,423	-58,342	0,049	0,016
-397,409	-159,879	-0,100	-0,004
-396,394	-3,019	0,091	-0,046
-395,379	-200,000	0,024	-0,105
-394,365	41,210	0,082	0,054
-393,350	-171,313	0,019	-0,000
-392,336	146,477	0,085	-0,083
-391,321	80,771	-0,048	-0,038
-390,306	-200,000	-0,028	-0,100
-389,292	56,179	0,027	0,019
-388,277	184,553	0,073	-0,078
-387,263	-200,000	0,011	0,037
-386,248	223,509	0,041	0,049
-385,233	-200,000	-0,010	0,145
-384,219	542,296	0,036	0,063
-383,204	598,735	-0,034	-0,061
-382,190	-0,893	-0,124	-0,064
-381,175	-200,000	0,004	-0,016
-380,160	-5,538	-0,053	0,026
-379,146	453,295	0,028	-0,045
-378,131	-200,000	0,026	0,129
-377,117	-49,928	0,135	0,046
-376,102	104,256	-0,148	-0,127
-375,088	-200,000	-0,047	-0,170
-374,073	-60,947	-0,004	0,001
-373,058	-200,000	-0,021	0,095
-372,044	-200,000	-0,019	0,089
-371,029	436,382	0,092	0,146
-370,015	-200,000	-0,014	0,142
-369,000	236,684	0,105	0,126
-367,985	-151,160	-0,115	-0,006
-366,971	427,770	0,071	0,111
-365,956	-143,703	0,051	-0,003
-364,942	128,870	0,092	-0,086
-363,927	-200,000	-0,016	0,107
-362,912	-64,896	-0,089	0,026
-361,898	-200,000	-0,036	0,136
-360,883	-152,128	-0,058	0,003
-359,869	74,285	-0,111	-0,084
-358,854	-140,583	0,035	0,003
-357,839	460,976	-0,047	-0,076
-356,825	565,627	-0,029	-0,051
-355,810	800,000	-0,023	0,073
-354,796	-90,694	0,092	0,019
-353,781	30,288	-0,133	-0,082
-352,766	-133,143	-0,134	0,012
-351,752	23,239	0,128	0,076
-350,737	800,000	-0,046	0,122
-349,723	-93,606	0,071	-0,014
-348,708	-104,231	0,121	0,020
-347,693	-80,725	0,018	0,004
-346,679	7,430	-0,083	0,045
-345,664	12,260	-0,095	-0,053
-344,650	-99,458	0,128	0,023
-343,635	154,296	0,101	0,100
-342,620	162,320	0,135	0,138
-341,606	800,000	-0,028	0,087
-340,591	401,937	-0,042	-0,064
-339,577	-200,000	-0,005	-0,147
-338,562	-200,000	-0,002	0,091
-337,548	22,183	0,072	0,043
-336,533	-200,000	-0,019	0,102
-335,518	800,000	-0,052	0,110
-334,504	481,252	-0,030	-0,049
-333,489	-200,000	0,001	-0,136
-332,475	-200,000	-0,015	-0,069
-331,460	-200,000	0,029	-0,145
-330,445	32,346	-0,080	-0,050
-329,431	-200,000	0,013	0,108
-328,416	103,580	0,039	0,033
-327,402	-66,375	0,086	-0,025
-326,387	-200,000	0,003	-0,202
-325,372	745,925	0,014	-0,028
-324,358	117,208	-0,029	0,026
-323,343	-22,152	0,035	0,015
-322,329	572,951	-0,047	-0,084
-321,314	62,328	0,102	-0,074
-320,299	37,930	0,022	-0,014
-319,285	-200,000	-0,032	0,108
-318,270	-153,712	-0,201	-0,010
-317,256	624,734	0,040	-0,074
-316,241	-101,079	-0,106	-0,019
-315,226	-35,635	-0,102	-0,040
-314,212	-34,890	0,103	0,041
-313,197	105,104	-0,057	-0,049
-312,183	-6,917	-0,025	0,013
-311,168	130,512	-0,087	-0,081
-310,153	-157,361	0,133	0,006
-309,139	-111,891	-0,095	-0,014
-308,124	9,160	0,046	-0,025
-307,110	-200,000	0,032	0,120
-306,095	20,727	0,040	-0,023
-305,080	-165,796	0,085	0,003
-304,066	131,564	-0,051	-0,047
-303,051	-200,000	0,133	-0,000
-302,037	-200,000	-0,013	-0,065
-301,022	44,932	-0,108	-0,072
-300,008	-71,969	0,081	-0,022
-298,993	-200,000	0,010	0,053
-297,978	53,922	-0,073	-0,051
-296,964	-42,914	0,194	0,071
-295,949	-49,261	-0,139	0,048
-294,935	125,998	-0,072	-0,066
-293,920	122,746	-0,126	0,114
-292,905	800,000	-0,012	-0,027
-291,891	-200,000	-0,022	0,077
-290,876	605,901	0,080	-0,145
-289,862	-200,000	0,008	0,026
-288,847	-18,298	-0,088	-0,040
-287,832	800,000	-0,010	-0,025
-286,818	542,303	0,026	-0,046
-285,803	55,993	0,070	-0,049
-284,789	800,000	0,045	0,138
-283,774	25,191	0,038	0,023
-282,759	-200,000	-0,004	0,013
-281,745	-43,267	0,066	-0,024
-280,730	-200,000	0,024	-0,159
-279,716	-14,176	-0,076	-0,035
-278,701	60,653	0,092	-0,066
-277,686	272,081	-0,047	0,060
-276,672	800,000	0,045	0,097
-275,657	660,009	-0,016	0,031
-274,643	342,700	0,021	0,029
-273,628	-200,000	-0,015	-0,097
-272,613	-82,199	0,206	-0,048
-271,599	-200,000	-0,015	-0,064
-270,584	-51,903	-0,025	0,009
-269,570	104,424	0,081	0,069
-268,555	-200,000	-0,017	0,058
-267,540	284,792	-0,023	-0,029
-266,526	361,840	0,036	-0,053
-265,511	198,933	0,112	-0,125
-264,497	142,189	-0,065	-0,063
-263,482	-200,000	-0,004	-0,040
-262,467	215,951	0,066	0,076
-261,453	-200,000	-0,031	-0,109
-260,438	112,710	0,080	-0,070
-259,424	46,859	0,070	0,047
-258,409	177,644	0,082	0,086
-257,395	800,000	0,041	-0,115
-256,380	191,301	-0,026	-0,029
-255,365	-200,000	-0,002	-0,080
-254,351	800,000	0,064	0,156
-253,336	-200,000	0,015	-0,078
-252,322	111,323	-0,072	-0,063
-251,307	-49,746	0,044	-0,015
-250,292	126,864	-0,069	-0,063
-249,278	-79,884	0,078	-0,019
-248,263	800,000	-0,042	0,095
-247,249	-200,000	0,038	0,122
-246,234	-200,000	-0,013	-0,084
-245,219	421,285	-0,021	-0,033
-244,205	-189,072	-0,064	0,001
-243,190	800,000	0,035	-0,077
-242,176	-200,000	0,011	0,045
-241,161	108,034	0,129	0,111
-240,146	-200,000	0,001	0,094
-239,132	89,480	0,030	-0,025
-238,117	800,000	0,017	0,046
-237,103	-72,132	0,049	0,013
-236,088	544,752	-0,070	-0,121
-235,073	148,927	-0,118	0,116
-234,059	800,000	-0,060	-0,141
-233,044	-200,000	-0,000	-0,007
-232,030	-26,353	0,091	-0,038
-231,015	47,851	0,115	-0,077
-230,000	-200,000	-0,023	0,159
-228,986	-131,163	0,033	-0,003
-227,971	-200,000	0,037	0,000
-226,957	570,607	-0,014	0,024
-225,942	395,524	0,063	-0,095
-224,927	800,000	-0,040	-0,095
-223,913	-200,000	0,019	-0,192
-222,898	458,488	-0,120	-0,193
-221,884	26,187	0,083	0,050
-220,869	312,238	-0,049	0,066
-219,855	109,700	0,059	0,051
-218,840	-200,000	-0,004	0,021
-217,825	800,000	0,068	0,135
-216,811	-200,000	0,008	-0,101
-215,796	-22,674	0,087	-0,038
-214,782	164,063	0,067	-0,069
-213,767	-86,181	-0,093	-0,021
-212,752	-117,857	0,080	0,010
-211,738	-12,556	0,115	0,054
-210,723	266,444	0,081	0,103
-209,709	800,000	0,029	0,080
-208,694	-200,000	0,021	-0,144
-207,679	344,767	0,021	-0,029
-206,665	711,490	-0,053	0,102
-205,650	-200,000	0,005	0,079
-204,636	-200,000	0,022	0,098
-203,621	125,656	0,060	-0,055
-202,606	800,000	-0,032	0,101
-201,592	54,651	-0,080	-0,056
-200,577	-12,834	-0,073	-0,034
-199,563	500,548	0,029	0,048
-198,548	-200,000	0,013	0,060
-197,533	169,397	-0,048	0,050
-196,519	800,000	-0,044	0,088
-195,504	21,501	0,043	-0,025
-194,490	-4,460	-0,133	0,066
-193,475	29,820	-0,051	-0,031
-192,460	321,144	-0,056	-0,076
-191,446	-104,896	0,047	0,008
-190,431	316,302	-0,029	-0,039
-189,417	800,000	0,036	0,074
-188,402	539,793	-0,061	-0,105
-187,387	306,290	-0,041	-0,055
-186,373	-80,056	-0,146	-0,035
-185,358	26,215	-0,105	-0,063
-184,344	-200,000	-0,015	0,116
-183,329	156,289	-0,000	0,000
-182,315	800,000	-0,072	0,181
-181,300	-96,109	-0,015	-0,003
-180,285	514,538	-0,040	-0,068
-179,271	163,857	0,034	-0,034
-178,256	204,321	-0,022	-0,024
-177,242	-155,238	0,098	-0,005
-176,227	-29,827	0,072	0,029
-175,212	-39,548	-0,059	-0,022
-174,198	-200,000	0,004	0,128
-173,183	-62,168	0,086	-0,026
-172,169	202,427	-0,071	0,079
-171,154	218,688	0,044	0,051
-170,139	261,295	-0,027	-0,034
-169,125	-101,777	0,084	0,014
-168,110	-146,743	0,142	0,009
-167,096	-17,722	-0,143	-0,064
-166,081	-124,596	0,214	0,024
-165,066	-200,000	0,010	-0,116
-164,052	-75,843	-0,019	0,005
-163,037	158,126	0,015	-0,015
-162,023	790,488	-0,012	-0,025
-161,008	-200,000	-0,024	0,136
-159,993	111,140	-0,130	0,113
-158,979	407,563	-0,023	-0,035
-157,964	34,667	-0,151	0,095
-156,950	430,491	0,033	-0,052
-155,935	-56,192	0,067	0,021
-154,920	713,926	0,016	-0,030
-153,906	777,155	0,057	0,113
-152,891	124,688	0,057	0,052
-151,877	-15,303	-0,087	-0,040
-150,862	124,302	-0,050	-0,046
-149,847	182,642	-0,068	-0,072
-148,833	120,501	-0,085	-0,076
-147,818	-82,349	-0,125	0,029
-146,804	325,006	-0,063	0,087
-145,789	11,902	0,100	0,055
-144,775	80,959	-0,050	0,039
-143,760	1,315	0,047	0,024
-142,745	102,741	0,103	0,087
-141,731	61,910	-0,033	-0,024
-140,716	800,000	0,020	-0,046
-139,702	60,576	0,072	0,052
-138,687	-200,000	-0,014	0,074
-137,672	-200,000	-0,032	0,124
-136,658	64,392	-0,143	-0,104
-135,643	-34,994	-0,124	-0,048
-134,629	-200,000	-0,008	-0,088
-133,614	448,321	0,055	0,088
-132,599	-33,980	-0,074	-0,029
-131,585	800,000	0,038	0,114
-130,570	0,995	-0,187	-0,096
-129,556	424,663	-0,062	-0,096
-128,541	210,957	-0,081	-0,092
-127,526	319,958	-0,024	-0,032
-126,512	-200,000	0,009	0,081
-125,497	-200,000	0,002	-0,044
-124,483	-200,000	-0,020	-0,072
-123,468	-200,000	-0,001	0,049
-122,453	380,328	0,081	-0,120
-121,439	20,467	0,035	-0,020
-120,424	216,615	-0,035	0,040
-119,410	245,027	0,092	-0,112
-118,395	800,000	-0,064	0,156
-117,380	-200,000	0,016	0,057
-116,366	-160,989	-0,082	0,003
-115,351	173,651	0,012	-0,012
-114,337	-200,000	-0,005	-0,085
-113,322	77,499	-0,131	0,100
-112,307	-200,000	0,010	-0,041
-111,293	71,109	0,053	0,039
-110,278	291,849	0,059	-0,077
-109,264	-83,327	-0,117	-0,027
-108,249	-130,039	-0,146	0,014
-107,234	299,384	-0,008	-0,010
-106,220	5,416	-0,030	-0,016
-105,205	-200,000	-0,035	0,115
-104,191	-66,098	0,053	-0,015
-103,176	-200,000	0,021	0,242
-102,162	-90,149	0,066	0,014
-101,147	-136,133	-0,096	-0,008
-100,132	95,975	-0,086	-0,070
-99,118	800,000	-0,070	-0,177
-98,103	800,000	0,071	-0,146
-97,089	-200,000	-0,050	-0,166
-96,074	139,867	0,066	0,063
-95,059	-103,444	-0,048	0,008
-94,045	-157,099	-0,090	0,004
-93,030	-71,714	0,134	0,036
-92,016	135,234	-0,051	-0,048
-91,001	-69,127	-0,042	0,012
-89,986	218,404	0,048	0,055
-88,972	151,509	0,063	0,061
-87,957	-200,000	-0,029	-0,108
-86,943	-18,796	-0,136	0,060
-85,928	-200,000	-0,013	0,049
-84,913	6,103	-0,067	0,036
-83,899	25,523	0,100	-0,060
-82,884	-200,000	-0,017	0,104
-81,870	-104,546	-0,066	-0,011
-80,855	251,441	-0,022	0,028
-79,840	-114,333	-0,115	-0,016
-78,826	-200,000	-0,003	-0,128
-77,811	-88,341	-0,094	-0,020
-76,797	-58,533	-0,043	-0,013
-75,782	-200,000	0,009	0,120
-74,767	215,515	-0,085	-0,097
-73,753	543,366	0,097	0,168
-72,738	-200,000	-0,024	-0,094
-71,724	800,000	-0,014	-0,033
-70,709	126,161	0,080	-0,072
-69,694	456,796	0,100	-0,161
-68,680	-200,000	-0,010	0,086
-67,665	19,798	-0,091	0,053
-66,651	467,021	0,060	0,096
-65,636	-84,991	0,058	-0,013
-64,622	-3,437	-0,090	0,045
-63,607	11,387	0,124	-0,068
-62,592	-34,114	-0,144	-0,056
-61,578	51,586	-0,056	0,038
-60,563	-200,000	-0,015	-0,079
-59,549	-200,000	-0,046	0,150
-58,534	20,108	-1,958	-1,131
-57,519	800,000	-0,379	-1,039
-56,505	-200,000	-0,991	-5,013
-55,490	95,979	0,647	0,530
-54,476	800,000	5,294	12,034
-53,461	-200,000	17,648	284,866
-52,446	800,000	727,354	2219,657
-51,432	536,856	1643,480	2811,453
-50,417	110,031	1634,391	1407,257
-49,403	75,929	1286,553	975,339
-48,388	31,954	1027,236	633,676
-47,373	20,078	989,086	570,998
-46,359	18,389	976,686	558,287
-45,344	15,472	972,931	546,575
-44,330	15,729	971,184	546,412
-43,315	15,186	969,477	543,661
-42,300	15,179	968,433	543,029
-41,286	15,159	967,294	542,303
-40,271	15,227	966,177	541,877
-39,257	15,204	965,425	541,360
-38,242	15,171	964,546	540,738
-37,227	15,258	963,781	540,571
-36,213	15,191	962,789	539,776
-35,198	15,179	961,975	539,258
-34,184	15,217	961,146	538,896
-33,169	15,132	960,270	538,106
-32,154	15,220	959,319	537,839
-31,140	15,202	958,469	537,282
-30,125	15,159	957,836	536,765
-29,111	15,248	956,883	536,498
-28,096	15,276	956,137	536,148
-27,082	15,206	955,594	535,597
-26,067	15,217	954,869	535,206
-25,052	15,192	954,131	534,691
-24,038	15,184	953,411	534,240
-23,023	15,194	952,721	533,864
-22,009	15,192	952,146	533,514
-20,994	15,205	951,628	533,245
-19,979	15,258	950,815	532,937
-18,965	15,188	950,273	532,390
-17,950	15,172	949,875	532,094
-16,936	15,113	949,026	531,408
-15,921	15,134	948,235	531,011
-14,906	15,085	947,508	530,428
-13,892	15,050	947,038	530,032
-12,877	15,076	946,189	529,618
-11,863	15,063	945,748	529,308
-10,848	15,069	945,174	528,986
-9,833	15,115	944,736	528,866
-8,819	15,177	944,024	528,644
-7,804	15,109	943,499	528,113
-6,790	15,105	942,884	527,732
-5,775	15,110	942,214	527,354
-4,760	15,063	941,769	526,934
-3,746	15,103	941,012	526,617
-2,731	14,958	940,269	525,722
-1,717	14,913	939,820	525,308
-0,702	14,939	939,022	524,924
0,313	14,758	938,458	524,830
1,327	18,149	936,156	534,168
2,342	27,335	793,526	477,095
3,356	24,406	458,315	271,060
4,371	-3,117	314,074	156,544
5,386	-7,133	295,933	143,429
6,400	-9,034	289,938	138,626
7,415	-9,534	287,356	136,888
8,429	-9,747	285,857	135,952
9,444	-9,777	284,836	135,426
10,459	-9,893	284,276	135,035
11,473	-9,650	283,556	134,916
12,488	-9,667	283,237	134,736
13,502	-9,811	282,619	134,290
14,517	-9,825	282,360	134,142
15,531	-9,890	281,666	133,738
16,546	-10,108	281,374	133,378
17,561	-10,138	280,935	133,129
18,575	-9,816	280,567	133,252
19,590	-9,973	280,204	132,917
20,604	-9,844	279,863	132,866
21,619	-10,003	279,465	132,514
22,634	-10,087	279,161	132,278
23,648	-9,956	278,938	132,285
24,663	-10,098	278,657	132,005
25,677	-10,003	278,341	131,934
26,692	-9,932	277,924	131,792
27,707	-9,980	277,817	131,684
28,721	-9,890	277,528	131,620
29,736	-10,118	277,312	131,290
30,750	-9,979	277,095	131,307
31,765	-9,902	276,725	131,193
32,780	-10,042	276,642	131,010
33,794	-9,863	276,319	131,015
34,809	-10,112	276,090	130,659
35,823	-10,199	275,891	130,472
36,838	-9,973	275,433	130,456
37,853	-10,195	275,384	130,212
38,867	-10,107	275,051	130,125
39,882	-10,384	274,881	129,774
40,896	-9,844	274,346	130,016
41,911	-9,982	274,358	129,880
42,926	-10,060	274,054	129,651
43,940	-10,049	273,877	129,567
44,955	-10,022	273,556	129,428
45,969	-10,278	273,243	129,030
46,984	-10,241	273,112	128,991
47,999	-10,294	272,771	128,769
49,013	-10,580	272,558	128,392
50,028	-10,692	272,214	128,114
51,042	-10,756	271,964	127,925
52,057	-10,727	271,761	127,846
53,071	-10,540	271,497	127,883
54,086	-10,738	271,500	127,690
55,101	-10,357	271,140	127,862
56,115	-10,178	271,111	128,002
57,130	-9,974	271,074	128,161
58,144	-9,637	270,628	128,250
59,159	-9,839	270,471	127,977
60,174	-9,853	270,350	127,896
61,188	-9,973	270,275	127,738
62,203	-9,942	270,000	127,626
63,217	-9,831	269,767	127,606
64,232	-9,939	269,446	127,344
65,247	-9,836	269,175	127,299
66,261	-9,883	268,962	127,144
67,276	-9,962	268,653	126,914
68,290	-10,195	268,393	126,568
69,305	-10,384	268,245	126,313
70,320	-10,251	268,047	126,331
71,334	-10,116	267,902	126,373
72,349	-9,863	267,543	126,424
73,363	-9,729	267,531	126,529
74,378	-9,821	267,149	126,253
75,393	-9,853	267,160	126,218
76,407	-9,813	266,893	126,117
77,422	-9,727	266,536	126,015
78,436	-9,926	266,447	125,781
79,451	-9,784	266,223	125,793
80,466	-10,056	265,875	125,372
81,480	-10,151	265,609	125,149
82,495	-10,056	265,322	125,089
83,509	-9,948	265,062	125,052
84,524	-10,023	264,954	124,922
85,539	-10,207	264,840	124,692
86,553	-10,210	264,613	124,571
87,568	-10,086	264,319	124,533
88,582	-10,179	264,114	124,341
89,597	-10,036	263,938	124,376
90,611	-9,866	263,732	124,420
91,626	-10,037	263,844	124,308
92,641	-9,998	263,439	124,141
93,655	-9,840	263,240	124,178
94,670	-10,028	262,999	123,886
95,684	-9,972	262,817	123,839
96,699	-9,917	262,642	123,795
97,714	-10,023	262,403	123,577
98,728	-10,041	262,178	123,442
99,743	-10,242	261,803	123,077
100,757	-10,205	261,642	123,023
101,772	-10,205	261,570	122,978
102,787	-10,133	261,327	122,917
103,801	-9,956	261,182	122,995
104,816	-9,993	261,164	122,942
105,830	-9,877	260,865	122,893
106,845	-9,809	260,757	122,891
107,860	-9,926	260,543	122,677
108,874	-9,925	260,337	122,570
109,889	-9,839	259,953	122,453
110,903	-10,000	259,881	122,267
111,918	-9,906	259,583	122,198
112,933	-9,834	259,480	122,202
113,947	-9,630	259,277	122,275
114,962	-9,717	259,045	122,078
115,976	-9,661	258,873	122,036
116,991	-9,969	258,727	121,686
118,006	-9,734	258,584	121,814
119,020	-9,883	258,460	121,614
120,035	-9,706	258,188	121,630
121,049	-9,948	258,291	121,456
122,064	-9,870	257,898	121,328
123,079	-9,735	257,637	121,312
124,093	-9,917	257,449	121,054
125,108	-9,961	257,103	120,842
126,122	-10,222	256,904	120,512
127,137	-10,526	256,735	120,157
128,151	-10,116	256,439	120,364
129,166	-10,114	256,455	120,362
130,181	-10,302	256,317	120,123
131,195	-10,239	256,075	120,054
132,210	-10,004	255,737	120,088
133,224	-9,876	255,757	120,197
134,239	-9,702	255,517	120,224
135,254	-9,863	255,373	120,007
136,268	-9,942	254,994	119,750
137,283	-10,039	254,717	119,526
138,297	-10,414	254,701	119,184
139,312	-10,340	254,397	119,095
140,327	-9,987	254,351	119,367
141,341	-9,928	254,349	119,406
142,356	-9,642	253,966	119,461
143,370	-9,820	254,044	119,334
144,385	-9,651	253,848	119,377
145,400	-9,700	253,625	119,219
146,414	-9,803	253,327	118,980
147,429	-9,804	253,229	118,922
148,443	-9,659	252,997	118,927
149,458	-9,796	252,912	118,760
150,473	-9,668	252,633	118,727
151,487	-9,761	252,550	118,598
152,502	-9,822	252,303	118,420
153,516	-9,851	252,088	118,283
154,531	-9,701	251,911	118,317
155,546	-9,711	251,831	118,261
156,560	-9,715	251,543	118,112
157,575	-9,842	251,330	117,893
158,589	-9,765	251,060	117,821
159,604	-9,602	250,745	117,801
160,619	-9,665	250,713	117,723
161,633	-9,632	250,595	117,685
162,648	-9,868	250,531	117,445
163,662	-9,609	250,335	117,560
164,677	-9,738	250,200	117,378
165,692	-9,742	249,994	117,267
166,706	-9,623	249,830	117,280
167,721	-9,695	249,604	117,103
168,735	-9,618	249,442	117,082
169,750	-9,726	249,364	116,944
170,764	-9,609	249,336	117,019
171,779	-9,505	249,039	116,956
172,794	-9,390	248,985	117,016
173,808	-9,527	248,590	116,706
174,823	-9,933	248,273	116,206
175,837	-10,144	247,984	115,885
176,852	-9,687	248,021	116,274
177,867	-9,795	248,206	116,260
178,881	-9,638	247,879	116,228
179,896	-9,640	247,774	116,166
180,910	-9,494	247,350	116,079
181,925	-9,520	247,176	115,965
182,940	-9,544	247,155	115,925
183,954	-9,720	246,987	115,689
184,969	-9,789	246,875	115,569
185,983	-9,723	246,771	115,565
186,998	-9,707	246,504	115,443
188,013	-9,371	246,161	115,551
189,027	-9,560	246,105	115,357
190,042	-9,587	245,934	115,244
191,056	-9,486	245,748	115,231
192,071	-9,648	245,567	115,002
193,086	-9,689	245,517	114,934
194,100	-9,328	245,113	115,032
195,115	-9,394	244,986	114,908
196,129	-9,691	244,978	114,649
197,144	-9,546	244,724	114,640
198,159	-9,546	244,516	114,532
199,173	-9,438	244,352	114,534
200,188	-9,600	244,104	114,274
201,202	-9,690	243,993	114,139
202,217	-10,061	243,616	113,647
203,232	-10,031	243,488	113,602
204,246	-9,685	243,442	113,854
205,261	-9,043	243,523	114,408
206,275	-9,556	243,308	113,877
207,290	-5,461	244,884	117,972
208,304	0,907	246,739	124,118
209,319	3,407	247,375	126,494
210,334	3,757	247,495	126,833
211,348	4,043	247,353	126,984
212,363	4,471	247,309	127,303
213,377	4,585	247,066	127,261
214,392	4,382	247,035	127,067
215,407	4,409	246,703	126,907
216,421	4,433	246,589	126,856
217,436	4,445	246,498	126,808
218,450	4,726	246,295	126,923
219,465	4,258	246,049	126,401
220,480	4,007	245,877	126,096
221,494	4,202	245,759	126,184
222,509	3,979	245,513	125,864
223,523	4,031	245,295	125,783
224,538	3,597	245,025	125,279
225,553	3,911	244,854	125,437
226,567	3,847	244,735	125,313
227,582	3,898	244,779	125,365
228,596	4,075	244,451	125,331
229,611	3,648	244,338	124,914
230,626	3,786	244,075	124,881
231,640	3,912	243,855	124,859
232,655	4,008	243,815	124,906
233,669	3,919	243,520	124,671
234,684	3,576	243,524	124,384
235,699	4,004	243,469	124,692
236,713	4,181	243,323	124,749
237,728	3,965	243,033	124,415
238,742	3,641	242,959	124,103
239,757	3,676	242,628	123,951
240,772	3,808	242,519	123,991
241,786	3,976	242,421	124,066
242,801	3,629	242,244	123,685
243,815	3,601	242,091	123,573
244,830	3,943	241,971	123,776
245,844	4,132	241,716	123,786
246,859	3,733	241,533	123,361
247,874	3,533	241,469	123,157
248,888	3,750	241,346	123,257
249,903	3,923	241,211	123,316
250,917	3,862	241,160	123,229
251,932	4,148	240,942	123,337
252,947	4,194	240,720	123,249
253,961	3,684	240,604	122,770
254,976	3,901	240,327	122,792
255,990	4,018	240,289	122,855
257,005	3,811	239,954	122,507
258,020	3,633	239,820	122,286
259,034	3,680	239,675	122,239
260,049	3,825	239,510	122,259
261,063	3,741	239,275	122,062
262,078	3,762	239,252	122,055
263,093	3,917	239,142	122,112
264,107	3,939	239,085	122,089
265,122	3,802	238,633	121,739
266,136	3,729	238,714	121,711
267,151	4,079	238,739	121,991
268,166	3,685	238,391	121,491
269,180	3,658	238,097	121,308
270,195	4,228	238,249	121,825
271,209	4,579	238,016	121,973
272,224	3,804	237,759	121,219
273,239	3,537	237,512	120,872
274,253	3,438	237,425	120,739
275,268	3,815	237,405	121,015
276,282	3,851	237,310	120,983
277,297	3,666	236,939	120,638
278,312	3,651	236,832	120,561
279,326	3,981	236,714	120,750
280,341	3,837	236,546	120,540
281,355	3,794	236,393	120,418
282,370	4,085	236,366	120,621
283,384	3,917	236,108	120,348
284,399	3,811	235,984	120,191
285,414	3,563	235,759	119,872
286,428	3,787	235,571	119,940
287,443	3,925	235,441	119,971
288,457	3,890	235,326	119,874
289,472	3,928	235,278	119,869
290,487	3,930	234,953	119,694
291,501	3,693	234,798	119,420
292,516	3,454	234,739	119,194
293,530	3,583	234,699	119,263
294,545	3,893	234,574	119,430
295,560	3,876	234,289	119,261
296,574	3,754	234,021	119,019
297,589	3,752	233,903	118,947
298,603	3,901	233,964	119,083
299,618	3,857	233,694	118,901
300,633	3,999	233,611	118,958
301,647	4,047	233,614	118,986
302,662	4,396	233,413	119,142
303,676	4,291	233,188	118,935
304,691	3,944	233,218	118,673
305,706	4,131	233,001	118,696
306,720	4,229	232,887	118,703
307,735	4,010	232,723	118,440
308,749	3,773	232,464	118,115
309,764	3,945	232,151	118,078
310,779	3,857	231,836	117,840
311,793	3,732	231,790	117,710
312,808	3,382	231,778	117,425
313,822	3,531	231,440	117,357
314,837	3,788	231,259	117,451
315,852	3,663	231,172	117,301
316,866	3,938	231,151	117,491
317,881	4,048	231,045	117,510
318,895	3,715	231,046	117,246
319,910	4,058	230,593	117,266
320,925	3,613	230,558	116,899
321,939	3,947	230,446	117,087
322,954	4,357	230,444	117,387
323,968	4,108	230,195	117,061
324,983	3,794	230,014	116,720
325,997	3,647	230,032	116,607
327,012	3,770	229,760	116,552
328,027	3,965	229,687	116,652
329,041	4,376	229,609	116,914
330,056	4,599	229,519	117,026
331,070	4,663	229,347	116,977
332,085	4,410	229,074	116,636
333,100	4,182	228,813	116,321
334,114	4,195	228,667	116,246
335,129	4,314	228,722	116,353
336,143	4,323	228,666	116,321
337,158	4,241	228,558	116,194
338,173	3,963	228,257	115,821
339,187	3,737	228,061	115,541
340,202	4,170	227,941	115,796
341,216	4,105	227,718	115,623
342,231	3,950	227,575	115,424
343,246	3,981	227,440	115,368
344,260	3,999	227,402	115,353
345,275	4,392	227,348	115,610
346,289	4,247	227,221	115,426
347,304	4,270	227,036	115,339
348,319	4,245	226,902	115,241
349,333	3,978	226,738	114,948
350,348	3,915	226,381	114,710
351,362	4,065	226,188	114,714
352,377	3,885	226,028	114,489
353,392	3,868	225,769	114,335
354,406	3,826	225,819	114,318
355,421	195,872	1321,874	1399,596
356,435	157,013	1455,398	1399,588
