DTS Sentinel unit serial number:	SN410029Multiplexer serial number:	ORYXHardware model number:	OX2-SRSoftware version number:	ORYX F/W v4,00 Oryx Data Collector v3.7.2.0data status	okinstallation	B5 Nyhavnadifferential loss correction	single-endedforward channel	channel 2reverse channel	N/Adate	2023/12/14time	16:22:13forward acquisition time	300,00reverse acquisition time	0,00gamma	499,1914k internal	0,3158k external	0,3158temperature offset calibration	1,0000default loss term (dB/km)	0,3820temperature slope calibration	1,0000multiplexer offset coefficient	1,0000multiplexer slope coefficient	1,0000fibre end	0,00T internal ref (°C)	7,98T ext. ref 1 (°C)	-7,57T ext. ref 2 (°C)	-7,60length (m)	temperature (°C)	Stokes	anti-Stokes-744,400	78,836	0,047	0,037
-743,385	-88,507	-0,330	-0,072
-742,371	-96,737	0,217	0,042
-741,356	-184,846	-0,351	-0,004
-740,342	80,239	0,191	0,152
-739,327	-58,844	-0,420	-0,133
-738,312	-153,047	0,210	0,011
-737,298	-174,822	-0,393	0,008
-736,283	248,846	0,105	0,131
-735,269	-140,196	-0,288	0,022
-734,254	800,000	0,095	0,207
-733,239	-44,936	-0,487	-0,178
-732,225	207,724	0,152	0,176
-731,210	43,397	-0,084	0,056
-730,196	-200,000	-0,007	-0,053
-729,181	-200,000	-0,016	-0,094
-728,167	800,000	0,072	-0,160
-727,152	593,701	-0,030	0,054
-726,137	-44,614	-0,076	-0,028
-725,123	-125,566	0,068	0,008
-724,108	559,619	-0,056	-0,099
-723,094	-200,000	0,024	-0,130
-722,079	800,000	-0,035	0,090
-721,064	396,184	-0,037	-0,057
-720,050	68,974	-0,059	0,045
-719,035	-64,752	-0,142	0,042
-718,021	16,700	0,116	-0,068
-717,006	16,029	-0,139	-0,081
-715,991	-200,000	-0,023	0,082
-714,977	-91,293	0,057	0,012
-713,962	-116,386	-0,090	0,012
-712,948	-91,861	-0,050	-0,010
-711,933	-53,772	0,021	-0,007
-710,918	800,000	0,030	0,065
-709,904	-114,564	-0,023	-0,003
-708,889	-200,000	0,011	0,134
-707,875	45,552	-0,039	0,026
-706,860	800,000	-0,020	0,056
-705,845	323,111	-0,016	-0,022
-704,831	95,345	0,039	0,033
-703,816	-200,000	-0,013	0,113
-702,802	-200,000	-0,012	0,054
-701,787	-145,162	0,060	0,004
-700,772	643,040	-0,037	0,071
-699,758	-200,000	-0,004	0,037
-698,743	-200,000	-0,026	0,182
-697,729	453,290	0,022	0,036
-696,714	40,392	-0,027	0,018
-695,699	-166,476	-0,106	-0,003
-694,685	-200,000	0,027	-0,107
-693,670	167,536	0,037	0,038
-692,656	-30,831	0,075	0,031
-691,641	-41,841	0,154	0,058
-690,627	-59,183	-0,140	-0,044
-689,612	194,712	0,065	-0,073
-688,597	800,000	0,010	-0,033
-687,583	-200,000	-0,002	-0,034
-686,568	124,466	-0,158	-0,146
-685,554	-43,309	-0,108	-0,040
-684,539	-74,238	0,091	-0,024
-683,524	39,151	-0,151	0,099
-682,510	800,000	-0,022	0,057
-681,495	111,613	0,027	-0,024
-680,481	-163,707	-0,089	-0,003
-679,466	258,007	-0,141	-0,179
-678,451	-200,000	0,012	0,056
-677,437	773,060	0,031	0,062
-676,422	91,326	0,041	0,034
-675,408	-112,865	0,119	-0,017
-674,393	18,497	-0,028	-0,016
-673,378	346,935	-0,079	-0,114
-672,364	38,999	-0,167	-0,109
-671,349	21,114	-0,096	0,057
-670,335	52,192	0,027	-0,019
-669,320	66,241	-0,060	-0,045
-668,305	308,683	-0,018	0,025
-667,291	-200,000	-0,013	0,075
-666,276	80,808	-0,029	-0,023
-665,262	368,952	-0,112	0,167
-664,247	800,000	0,003	0,008
-663,232	-47,071	-0,041	0,015
-662,218	-200,000	-0,012	0,102
-661,203	-200,000	-0,020	0,143
-660,189	800,000	-0,071	0,190
-659,174	533,836	-0,059	0,103
-658,159	59,913	-0,066	0,048
-657,145	96,352	0,056	0,047
-656,130	372,838	0,057	0,085
-655,116	-0,405	0,074	-0,039
-654,101	-179,708	0,048	0,001
-653,086	-31,978	-0,043	0,018
-652,072	800,000	0,008	-0,019
-651,057	-76,495	-0,036	-0,009
-650,043	-200,000	-0,025	0,136
-649,028	-200,000	0,002	0,091
-648,014	134,402	0,023	-0,022
-646,999	758,652	-0,026	-0,051
-645,984	-49,838	0,078	-0,027
-644,970	-200,000	0,017	0,079
-643,955	-200,000	0,006	-0,136
-642,941	125,926	0,068	0,063
-641,926	-200,000	-0,014	-0,100
-640,911	-200,000	-0,001	-0,026
-639,897	-200,000	0,005	0,021
-638,882	800,000	0,047	0,143
-637,868	219,506	0,026	0,030
-636,853	-200,000	-0,015	-0,076
-635,838	-116,296	0,108	-0,014
-634,824	594,059	-0,039	-0,071
-633,809	-200,000	0,006	0,064
-632,795	142,944	0,093	0,091
-631,780	800,000	-0,095	0,201
-630,765	311,472	0,071	0,098
-629,751	206,587	-0,090	-0,103
-628,736	-78,117	-0,051	-0,013
-627,722	413,630	-0,092	0,145
-626,707	-53,261	0,117	0,039
-625,692	78,141	-0,027	0,021
-624,678	-64,578	0,016	-0,005
-623,663	180,136	0,039	0,042
-622,649	101,849	-0,108	-0,093
-621,634	-160,891	-0,062	0,002
-620,619	-172,355	0,020	0,000
-619,605	-200,000	-0,022	-0,071
-618,590	49,477	0,022	0,015
-617,576	-200,000	0,021	-0,155
-616,561	800,000	-0,018	-0,057
-615,546	177,166	0,033	-0,035
-614,532	-32,572	-0,076	-0,031
-613,517	25,585	-0,125	-0,076
-612,503	-61,403	-0,060	-0,018
-611,488	284,630	-0,031	-0,042
-610,474	309,105	0,086	0,118
-609,459	174,465	-0,067	0,071
-608,444	-106,976	-0,013	0,002
-607,430	-148,472	-0,126	-0,007
-606,415	-200,000	0,013	-0,120
-605,401	145,911	-0,034	0,033
-604,386	-200,000	-0,009	0,084
-603,371	-136,698	0,141	-0,012
-602,357	800,000	-0,049	-0,129
-601,342	800,000	0,038	-0,121
-600,328	-32,494	0,042	-0,017
-599,313	186,898	0,061	0,067
-598,298	-197,650	0,066	-0,000
-597,284	209,092	0,033	0,038
-596,269	800,000	0,057	0,154
-595,255	-133,071	-0,140	0,013
-594,240	-96,391	-0,123	-0,024
-593,225	-200,000	-0,011	0,079
-592,211	314,047	-0,052	0,072
-591,196	18,533	0,050	0,029
-590,182	-200,000	-0,002	-0,026
-589,167	6,077	-0,138	0,075
-588,152	39,937	0,107	-0,070
-587,138	362,252	0,019	-0,028
-586,123	197,148	-0,110	-0,123
-585,109	-54,286	0,211	-0,070
-584,094	-200,000	-0,005	0,053
-583,079	-65,772	-0,097	-0,028
-582,065	44,935	0,117	0,079
-581,050	-92,604	-0,054	-0,011
-580,036	17,031	-0,117	0,068
-579,021	-94,513	-0,061	0,012
-578,006	131,457	-0,107	-0,101
-576,992	181,786	0,080	-0,087
-575,977	135,114	0,075	0,071
-574,963	329,869	0,052	0,073
-573,948	643,198	-0,031	0,058
-572,934	800,000	0,009	0,024
-571,919	-153,175	0,168	0,008
-570,904	-200,000	-0,005	-0,172
-569,890	-200,000	-0,010	-0,168
-568,875	236,520	0,054	-0,066
-567,861	22,890	-0,036	-0,022
-566,846	-200,000	-0,003	0,060
-565,831	109,001	-0,113	-0,099
-564,817	120,242	0,134	-0,121
-563,802	-66,027	-0,042	0,012
-562,788	800,000	-0,027	0,065
-561,773	-200,000	0,026	-0,103
-560,758	800,000	0,031	-0,071
-559,744	79,627	-0,087	0,068
-558,729	55,080	-0,118	-0,083
-557,715	-29,343	-0,130	0,054
-556,700	171,777	0,109	-0,115
-555,685	263,258	-0,055	-0,070
-554,671	-200,000	-0,001	0,102
-553,656	-200,000	-0,007	-0,059
-552,642	87,719	0,099	0,080
-551,627	152,623	-0,075	-0,075
-550,612	-200,000	0,003	0,009
-549,598	-200,000	0,002	0,030
-548,583	-27,057	-0,011	-0,005
-547,569	7,298	0,059	-0,032
-546,554	-200,000	0,011	-0,145
-545,539	392,499	-0,044	-0,067
-544,525	-200,000	-0,005	0,125
-543,510	201,119	-0,067	0,075
-542,496	-10,373	0,029	-0,014
-541,481	-78,033	0,041	-0,010
-540,466	800,000	0,021	-0,052
-539,452	-72,778	-0,101	-0,027
-538,437	17,549	0,235	0,136
-537,423	800,000	-0,033	-0,088
-536,408	204,243	-0,091	-0,104
-535,393	-55,216	-0,090	0,030
-534,379	-113,945	0,115	-0,016
-533,364	-200,000	-0,000	0,053
-532,350	-111,383	0,105	0,015
-531,335	-200,000	-0,011	0,052
-530,321	-121,642	0,227	0,027
-529,306	81,188	-0,082	-0,065
-528,291	-184,551	-0,104	-0,001
-527,277	-140,122	-0,035	0,003
-526,262	-35,830	0,137	-0,054
-525,248	800,000	0,020	0,045
-524,233	-29,725	-0,065	0,027
-523,218	12,400	0,088	0,050
-522,204	435,575	-0,075	0,119
-521,189	-70,610	0,050	-0,014
-520,175	800,000	0,032	-0,098
-519,160	150,821	0,071	-0,071
-518,145	640,559	0,018	-0,034
-517,131	-62,727	0,162	0,049
-516,116	194,320	0,068	0,076
-515,102	551,448	-0,027	0,048
-514,087	-78,244	-0,082	-0,020
-513,072	235,467	0,097	0,117
-512,058	-200,000	0,034	0,156
-511,043	404,754	-0,039	-0,060
-510,029	-200,000	0,010	0,109
-509,014	-69,462	-0,050	0,014
-507,999	-200,000	-0,009	-0,203
-506,985	164,593	-0,032	-0,033
-505,970	678,513	0,091	-0,174
-504,956	-164,041	-0,022	-0,001
-503,941	272,615	-0,072	0,094
-502,926	86,581	0,049	0,039
-501,912	800,000	0,026	0,083
-500,897	-4,865	-0,041	0,021
-499,883	-200,000	0,013	0,135
-498,868	83,235	-0,124	-0,098
-497,853	-200,000	-0,004	-0,147
-496,839	557,133	-0,046	-0,082
-495,824	800,000	0,056	0,128
-494,810	8,428	-0,033	0,018
-493,795	800,000	0,020	-0,058
-492,781	-200,000	0,002	-0,031
-491,766	10,804	-0,070	-0,039
-490,751	-78,123	0,034	-0,008
-489,737	326,978	-0,048	-0,068
-488,722	-200,000	0,035	0,173
-487,708	-5,266	0,235	0,117
-486,693	20,224	-0,040	0,024
-485,678	649,427	0,049	-0,091
-484,664	-200,000	0,031	-0,134
-483,649	379,178	0,054	-0,081
-482,635	-200,000	0,010	0,211
-481,620	-28,471	-0,071	0,030
-480,605	32,714	0,068	0,043
-479,591	20,036	0,120	0,071
-478,576	-200,000	-0,013	0,045
-477,562	187,867	0,031	0,034
-476,547	-108,968	-0,167	0,026
-475,532	-200,000	0,021	-0,099
-474,518	-56,944	-0,091	-0,029
-473,503	202,723	0,109	0,122
-472,489	206,313	-0,022	0,025
-471,474	756,089	-0,051	0,101
-470,459	-133,934	-0,189	0,017
-469,445	800,000	0,051	-0,110
-468,430	288,421	0,047	0,062
-467,416	-200,000	-0,039	0,269
-466,401	-50,404	0,073	0,025
-465,386	-200,000	0,016	-0,052
-464,372	-57,475	-0,117	0,037
-463,357	-200,000	0,001	0,028
-462,343	-103,199	-0,043	-0,007
-461,328	-200,000	-0,006	0,048
-460,313	-38,585	-0,030	0,011
-459,299	-42,722	-0,094	0,035
-458,284	13,552	0,100	-0,056
-457,270	-127,855	-0,110	0,011
-456,255	800,000	0,075	-0,214
-455,241	-31,808	-0,190	0,077
-454,226	2,719	0,178	-0,094
-453,211	-99,075	-0,048	0,009
-452,197	746,023	0,029	-0,057
-451,182	-200,000	0,026	-0,109
-450,168	800,000	0,036	0,089
-449,153	4,970	-0,098	-0,053
-448,138	3,728	-0,073	0,039
-447,124	291,149	0,069	0,091
-446,109	-152,493	0,081	-0,004
-445,095	-41,944	0,032	0,012
-444,080	578,642	0,019	0,034
-443,065	334,957	-0,104	0,148
-442,051	-200,000	-0,005	-0,081
-441,036	503,020	-0,095	-0,161
-440,022	800,000	0,040	-0,122
-439,007	-124,225	0,028	-0,003
-437,992	409,669	-0,046	-0,071
-436,978	-30,480	0,032	0,013
-435,963	89,547	-0,074	-0,060
-434,949	4,281	-0,080	-0,042
-433,934	-200,000	0,022	-0,148
-432,919	-159,891	-0,061	-0,002
-431,905	793,545	0,020	-0,040
-430,890	692,701	0,054	0,104
-429,876	-119,562	0,072	0,009
-428,861	396,697	0,043	0,066
-427,846	-172,792	-0,071	-0,002
-426,832	-93,027	0,031	0,006
-425,817	800,000	0,109	-0,227
-424,803	691,172	0,058	-0,110
-423,788	6,457	-0,046	0,025
-422,773	-43,591	0,160	0,059
-421,759	-58,180	0,160	0,050
-420,744	-161,905	-0,075	-0,003
-419,730	-83,325	-0,104	0,024
-418,715	-26,410	-0,068	-0,029
-417,701	-200,000	-0,013	-0,065
-416,686	-22,147	0,109	0,048
-415,671	160,298	0,141	0,144
-414,657	800,000	-0,021	0,056
-413,642	90,601	0,029	0,023
-412,628	-67,042	-0,100	-0,029
-411,613	800,000	-0,074	-0,150
-410,598	-200,000	0,037	-0,143
-409,584	367,812	0,068	0,100
-408,569	91,823	0,028	0,023
-407,555	-176,404	0,066	0,001
-406,540	-200,000	-0,021	-0,092
-405,525	222,810	-0,007	-0,008
-404,511	-79,706	-0,035	-0,009
-403,496	32,229	0,056	0,035
-402,482	-128,479	0,071	-0,007
-401,467	66,881	0,174	-0,129
-400,452	800,000	-0,033	-0,082
-399,438	800,000	-0,025	-0,052
-398,423	124,616	0,072	0,066
-397,409	80,686	0,062	0,049
-396,394	166,686	-0,063	0,066
-395,379	-109,951	0,213	-0,032
-394,365	104,621	-0,040	-0,034
-393,350	287,624	0,099	0,130
-392,336	-200,000	0,009	-0,031
-391,321	-200,000	0,024	-0,078
-390,306	-160,433	-0,088	-0,003
-389,292	800,000	0,060	-0,188
-388,277	26,390	0,032	0,020
-387,263	551,213	0,033	0,057
-386,248	109,266	0,113	0,098
-385,233	406,677	-0,119	0,183
-384,219	-200,000	-0,026	0,138
-383,204	-200,000	0,009	0,176
-382,190	-23,906	-0,073	-0,031
-381,175	-86,756	-0,101	0,022
-380,160	371,222	0,072	-0,106
-379,146	-200,000	-0,030	-0,097
-378,131	-89,353	-0,029	0,006
-377,117	27,088	-0,025	-0,015
-376,102	-97,907	-0,066	0,012
-375,088	362,598	-0,035	0,051
-374,073	-109,243	-0,083	-0,013
-373,058	113,962	-0,101	-0,089
-372,044	800,000	-0,036	0,109
-371,029	140,950	0,036	-0,034
-370,015	-76,653	0,026	0,006
-369,000	800,000	-0,024	0,067
-367,985	800,000	-0,018	0,036
-366,971	-142,589	0,115	0,008
-365,956	66,894	0,097	-0,072
-364,942	11,000	-0,050	0,027
-363,927	-200,000	0,019	0,062
-362,912	-200,000	-0,064	0,268
-361,898	-200,000	0,021	0,164
-360,883	15,033	0,022	0,012
-359,869	219,689	0,047	0,055
-358,854	-141,925	0,120	0,009
-357,839	-200,000	0,012	0,111
-356,825	-200,000	0,009	0,029
-355,810	-110,436	0,065	0,010
-354,796	-148,423	0,049	0,003
-353,781	20,550	-0,077	-0,045
-352,766	-200,000	-0,021	0,174
-351,752	26,892	0,142	0,086
-350,737	800,000	-0,055	0,115
-349,723	-200,000	0,008	-0,133
-348,708	-133,187	0,147	-0,013
-347,693	54,048	0,097	-0,068
-346,679	-53,242	-0,040	-0,013
-345,664	342,609	0,059	0,084
-344,650	-165,140	-0,071	-0,002
-343,635	494,879	0,017	-0,029
-342,620	102,712	0,057	-0,049
-341,606	800,000	0,046	0,106
-340,591	799,767	-0,048	0,097
-339,577	375,452	0,065	0,097
-338,562	-192,612	0,055	0,000
-337,548	-54,013	0,081	0,027
-336,533	-60,662	0,086	0,026
-335,518	212,075	0,016	-0,018
-334,504	-200,000	-0,025	0,097
-333,489	-200,000	-0,010	0,130
-332,475	92,201	-0,107	0,087
-331,460	800,000	-0,050	-0,143
-330,445	-88,670	0,050	0,011
-329,431	-200,000	0,034	0,117
-328,416	81,154	0,051	0,040
-327,402	-32,096	0,127	-0,051
-326,387	221,468	-0,054	-0,063
-325,372	33,507	-0,091	-0,057
-324,358	265,630	0,068	-0,086
-323,343	-200,000	0,036	-0,119
-322,329	69,122	0,041	-0,031
-321,314	17,236	0,148	0,085
-320,299	-200,000	0,001	0,007
-319,285	-200,000	0,005	0,075
-318,270	642,515	-0,058	-0,108
-317,256	-57,510	-0,080	0,025
-316,241	12,552	-0,089	0,050
-315,226	-81,253	-0,060	-0,014
-314,212	-83,068	-0,102	-0,024
-313,197	-200,000	0,006	0,124
-312,183	-145,373	0,142	-0,009
-311,168	-84,955	-0,067	0,015
-310,153	-200,000	-0,035	-0,150
-309,139	27,227	-0,153	-0,093
-308,124	-200,000	0,009	-0,131
-307,110	-143,198	-0,050	0,003
-306,095	215,481	0,054	-0,062
-305,080	36,077	-0,096	-0,061
-304,066	550,412	-0,100	-0,175
-303,051	-79,384	0,056	-0,014
-302,037	-76,835	-0,082	0,021
-301,022	-147,149	-0,108	0,007
-300,008	367,277	-0,070	0,103
-298,993	800,000	-0,027	0,075
-297,978	-76,134	0,061	0,016
-296,964	-25,921	0,062	-0,026
-295,949	-144,686	-0,192	-0,013
-294,935	-39,917	-0,106	0,040
-293,920	647,778	0,034	-0,062
-292,905	28,319	0,065	-0,040
-291,891	-200,000	-0,021	0,120
-290,876	-185,095	-0,040	-0,000
-289,862	800,000	-0,050	-0,111
-288,847	89,851	-0,065	-0,053
-287,832	152,671	0,087	-0,086
-286,818	185,040	-0,036	0,038
-285,803	-200,000	0,010	0,112
-284,789	-139,408	-0,099	0,008
-283,774	-90,982	0,168	-0,035
-282,759	30,794	-0,116	0,072
-281,745	-200,000	-0,011	-0,070
-280,730	-200,000	-0,048	-0,163
-279,716	111,471	-0,065	0,057
-278,701	2,028	0,061	0,032
-277,686	69,975	-0,021	0,016
-276,672	37,102	-0,069	0,044
-275,657	-200,000	-0,001	0,034
-274,643	100,980	0,067	-0,057
-273,628	-200,000	0,002	-0,128
-272,613	-200,000	0,007	0,117
-271,599	123,027	-0,060	-0,054
-270,584	66,905	0,114	0,084
-269,570	109,609	0,064	0,056
-268,555	-200,000	-0,001	0,049
-267,540	-57,647	-0,122	-0,038
-266,526	-120,693	0,055	-0,007
-265,511	100,247	-0,046	-0,038
-264,497	-200,000	-0,044	-0,172
-263,482	75,206	0,064	-0,049
-262,467	-200,000	0,003	0,109
-261,453	800,000	-0,023	0,073
-260,438	-154,838	-0,200	-0,009
-259,424	-101,952	-0,030	0,005
-258,409	-111,956	0,068	0,010
-257,395	518,792	-0,026	-0,045
-256,380	-200,000	-0,027	-0,088
-255,365	800,000	-0,068	0,182
-254,351	-200,000	-0,020	0,112
-253,336	800,000	-0,022	0,065
-252,322	800,000	-0,031	0,070
-251,307	-65,896	-0,050	-0,014
-250,292	-128,116	-0,061	0,006
-249,278	212,540	0,036	0,041
-248,263	-200,000	-0,010	-0,057
-247,249	116,589	0,119	0,105
-246,234	-200,000	-0,024	-0,106
-245,219	800,000	-0,055	0,133
-244,205	12,171	-0,068	-0,038
-243,190	800,000	-0,043	0,089
-242,176	-200,000	-0,003	0,098
-241,161	-153,289	0,056	-0,003
-240,146	-145,171	-0,192	-0,012
-239,132	442,438	-0,031	-0,049
-238,117	-200,000	0,002	-0,091
-237,103	-67,826	-0,088	-0,025
-236,088	800,000	-0,019	0,061
-235,073	-32,927	0,110	-0,044
-234,059	-14,706	0,052	-0,024
-233,044	228,752	-0,033	-0,039
-232,030	800,000	0,019	0,042
-231,015	-200,000	-0,021	-0,095
-230,000	-200,000	-0,024	0,094
-228,986	-89,617	0,178	0,038
-227,971	60,306	-0,115	-0,082
-226,957	235,648	0,099	0,118
-225,942	370,299	-0,067	0,098
-224,927	195,883	0,089	0,098
-223,913	-200,000	-0,014	-0,093
-222,898	-103,522	0,067	0,011
-221,884	800,000	0,052	0,151
-220,869	-138,324	-0,024	0,002
-219,855	309,170	-0,047	-0,064
-218,840	800,000	0,060	-0,138
-217,825	133,213	-0,010	0,009
-216,811	-200,000	-0,004	-0,039
-215,796	162,044	0,059	0,060
-214,782	800,000	0,024	0,072
-213,767	-200,000	-0,009	-0,095
-212,752	-200,000	-0,000	0,011
-211,738	5,435	-0,095	0,050
-210,723	-119,881	0,122	-0,015
-209,709	242,397	-0,064	-0,078
-208,694	-15,268	-0,112	-0,052
-207,679	-34,823	0,137	-0,054
-206,665	-65,180	0,094	-0,027
-205,650	697,517	0,026	-0,050
-204,636	-145,476	0,108	-0,007
-203,621	9,460	-0,135	-0,074
-202,606	175,082	-0,096	-0,100
-201,592	332,598	-0,026	-0,037
-200,577	800,000	0,073	0,166
-199,563	-73,116	-0,094	-0,025
-198,548	800,000	-0,010	0,028
-197,533	800,000	0,044	-0,126
-196,519	-200,000	-0,048	-0,167
-195,504	800,000	-0,041	-0,108
-194,490	634,750	-0,088	-0,161
-193,475	-200,000	0,013	-0,108
-192,460	131,300	0,052	-0,048
-191,446	-200,000	-0,001	0,061
-190,431	30,989	-0,139	0,086
-189,417	-147,323	0,061	-0,004
-188,402	-200,000	0,002	0,118
-187,387	162,593	0,125	-0,127
-186,373	262,735	-0,012	0,015
-185,358	40,912	-0,171	-0,111
-184,344	97,034	-0,120	-0,099
-183,329	800,000	0,011	-0,027
-182,315	-41,998	-0,099	0,036
-181,300	386,444	0,107	-0,160
-180,285	204,902	-0,053	-0,059
-179,271	389,213	0,036	-0,053
-178,256	105,106	-0,049	0,042
-177,242	91,343	0,088	-0,071
-176,227	131,263	-0,078	-0,072
-175,212	230,166	-0,044	0,052
-174,198	-114,579	-0,065	-0,009
-173,183	-200,000	0,038	0,142
-172,169	-43,345	0,104	0,038
-171,154	-200,000	0,001	0,012
-170,139	8,599	0,101	0,055
-169,125	176,160	0,067	0,071
-168,110	632,671	-0,061	0,112
-167,096	-51,720	0,101	0,034
-166,081	98,848	-0,114	0,095
-165,066	-200,000	-0,011	-0,057
-164,052	-95,596	0,048	-0,009
-163,037	276,108	-0,029	-0,038
-162,023	139,051	0,108	-0,102
-161,008	177,070	-0,097	0,102
-159,993	18,240	-0,046	0,026
-158,979	351,723	-0,021	-0,030
-157,964	243,761	0,030	0,036
-156,950	-200,000	-0,001	-0,118
-155,935	201,074	0,038	-0,043
-154,920	800,000	0,037	0,084
-153,906	-63,690	0,038	0,011
-152,891	-67,285	-0,031	-0,009
-151,877	-200,000	-0,010	-0,135
-150,862	800,000	-0,064	-0,170
-149,847	275,603	-0,065	0,084
-148,833	-200,000	-0,009	-0,037
-147,818	170,277	-0,034	0,035
-146,804	-45,836	-0,070	0,025
-145,789	119,427	0,055	-0,049
-144,775	-200,000	0,003	0,076
-143,760	-200,000	0,022	-0,177
-142,745	800,000	-0,041	-0,113
-141,731	800,000	0,038	-0,115
-140,716	153,865	-0,026	-0,025
-139,702	-200,000	0,019	0,168
-138,687	800,000	-0,055	0,137
-137,672	113,276	0,121	-0,106
-136,658	176,151	-0,032	0,034
-135,643	-61,084	0,059	0,018
-134,629	648,808	-0,060	-0,111
-133,614	-130,374	-0,062	0,006
-132,599	-58,002	-0,057	0,018
-131,585	-200,000	-0,003	0,010
-130,570	212,389	0,040	-0,045
-129,556	-200,000	0,004	0,023
-128,541	800,000	-0,033	-0,100
-127,526	107,746	0,134	0,115
-126,512	-200,000	-0,027	0,129
-125,497	243,760	-0,044	-0,053
-124,483	459,091	-0,015	0,024
-123,468	-101,623	0,109	0,019
-122,453	33,606	-0,086	0,053
-121,439	35,457	-0,041	-0,026
-120,424	50,313	-0,118	0,080
-119,410	34,711	0,049	0,031
-118,395	-200,000	0,020	-0,070
-117,380	-80,654	0,176	0,042
-116,366	-200,000	-0,009	-0,079
-115,351	203,803	-0,089	-0,100
-114,337	800,000	-0,048	-0,137
-113,322	65,218	0,046	-0,033
-112,307	-60,056	0,142	0,043
-111,293	112,625	-0,029	0,026
-110,278	58,244	-0,102	0,072
-109,264	-200,000	-0,033	0,144
-108,249	-45,025	0,087	0,031
-107,234	61,958	-0,113	-0,081
-106,220	414,665	-0,099	0,152
-105,205	612,051	-0,023	0,041
-104,191	202,522	-0,090	0,100
-103,176	72,054	0,026	0,020
-102,162	-55,886	0,061	0,019
-101,147	800,000	-0,033	0,078
-100,132	800,000	0,037	0,105
-99,118	-156,438	0,050	0,002
-98,103	-200,000	-0,019	-0,076
-97,089	231,449	0,012	-0,014
-96,074	-61,957	-0,133	0,040
-95,059	-76,874	0,046	-0,012
-94,045	-105,038	-0,267	-0,043
-93,030	466,918	-0,045	0,072
-92,016	800,000	-0,068	0,168
-91,001	32,855	0,234	0,145
-89,986	-200,000	0,011	0,037
-88,972	-200,000	-0,006	0,158
-87,957	184,883	-0,039	-0,041
-86,943	548,379	-0,065	0,111
-85,928	415,944	-0,068	0,104
-84,913	800,000	-0,028	-0,081
-83,899	-200,000	0,006	0,121
-82,884	800,000	0,040	0,084
-81,870	800,000	0,063	0,126
-80,855	170,632	0,032	0,033
-79,840	-99,890	-0,135	0,024
-78,826	122,912	-0,132	0,119
-77,811	320,773	-0,021	0,029
-76,797	304,615	0,030	-0,040
-75,782	119,684	0,005	-0,004
-74,767	21,618	0,177	0,103
-73,753	-200,000	-0,009	0,080
-72,738	227,993	0,066	0,077
-71,724	-179,851	-0,064	0,001
-70,709	800,000	-0,057	-0,155
-69,694	-200,000	0,033	0,136
-68,680	800,000	0,006	-0,019
-67,665	81,235	0,122	0,095
-66,651	800,000	-0,019	0,039
-65,636	-134,227	-0,067	-0,006
-64,622	-176,221	-0,119	0,002
-63,607	-1,851	-0,145	-0,073
-62,592	800,000	-0,066	0,166
-61,578	-200,000	-0,013	-0,083
-60,563	-200,000	-0,012	0,127
-59,549	165,857	0,091	0,092
-58,534	78,037	-2,735	-2,092
-57,519	40,425	0,549	-0,354
-56,505	800,000	-1,767	-5,502
-55,490	537,561	1,167	1,998
-54,476	800,000	5,211	11,265
-53,461	-200,000	22,106	346,904
-52,446	800,000	760,132	2295,906
-51,432	514,338	1645,805	2766,271
-50,417	97,683	1609,604	1327,090
-49,403	65,574	1266,429	919,020
-48,388	23,077	1017,853	597,850
-47,373	19,305	984,926	566,049
-46,359	12,869	972,013	537,557
-45,344	8,731	968,523	522,056
-44,330	9,127	966,609	522,300
-43,315	8,110	964,848	518,005
-42,300	8,034	963,704	517,124
-41,286	8,082	962,780	516,762
-40,271	8,058	961,583	516,024
-39,257	8,010	960,991	515,528
-38,242	8,014	960,032	515,006
-37,227	7,989	959,252	514,486
-36,213	7,959	958,344	513,883
-35,198	8,046	957,477	513,677
-34,184	8,089	956,750	513,407
-33,169	8,018	955,555	512,514
-32,154	8,046	955,033	512,305
-31,140	8,002	954,166	511,678
-30,125	8,123	953,278	511,572
-29,111	8,088	952,269	510,897
-28,096	8,116	951,889	510,765
-27,082	8,049	951,304	510,213
-26,067	8,016	950,446	509,628
-25,052	7,906	949,853	508,936
-24,038	7,947	948,961	508,569
-23,023	7,971	948,344	508,294
-22,009	8,039	947,770	508,187
-20,994	8,085	946,796	507,789
-19,979	8,015	946,475	507,373
-18,965	7,984	945,738	506,861
-17,950	7,988	945,146	506,535
-16,936	7,930	944,560	506,016
-15,921	7,995	943,780	505,784
-14,906	7,936	942,931	505,122
-13,892	7,922	942,649	504,906
-12,877	7,887	941,938	504,394
-11,863	7,846	941,546	504,034
-10,848	7,894	940,927	503,834
-9,833	8,001	940,326	503,833
-8,819	7,939	939,706	503,284
-7,804	7,905	938,872	502,707
-6,790	7,912	938,434	502,476
-5,775	7,947	937,967	502,317
-4,760	7,944	937,245	501,902
-3,746	7,890	936,737	501,439
-2,731	7,804	935,746	500,615
-1,717	7,768	935,352	500,272
-0,702	7,744	934,719	499,838
0,313	7,619	933,952	499,786
1,327	10,940	931,898	509,113
2,342	19,453	780,129	448,516
3,356	14,569	448,248	250,330
4,371	-11,286	312,520	147,041
5,386	-14,641	294,927	135,360
6,400	-16,964	288,927	130,293
7,415	-17,286	286,214	128,742
8,429	-18,108	284,138	126,996
9,444	-18,378	283,563	126,465
10,459	-18,255	282,720	126,197
11,473	-18,115	282,157	126,070
12,488	-18,129	281,707	125,844
13,502	-18,103	281,138	125,604
14,517	-18,139	280,672	125,350
15,531	-17,971	280,048	125,221
16,546	-17,985	279,842	125,104
17,561	-18,321	279,531	124,632
18,575	-17,964	279,102	124,771
19,590	-18,246	278,763	124,339
20,604	-17,880	278,394	124,513
21,619	-18,190	278,296	124,162
22,634	-18,100	277,747	123,992
23,648	-17,989	277,436	123,948
24,663	-18,067	277,313	123,808
25,677	-17,989	276,920	123,695
26,692	-17,992	276,807	123,631
27,707	-18,199	276,343	123,216
28,721	-18,070	276,160	123,246
29,736	-18,108	275,929	123,096
30,750	-18,118	275,619	122,937
31,765	-18,077	275,345	122,843
32,780	-18,162	275,130	122,656
33,794	-18,078	274,780	122,567
34,809	-18,187	274,747	122,439
35,823	-18,150	274,471	122,340
36,838	-18,066	274,158	122,269
37,853	-17,993	273,865	122,196
38,867	-18,160	273,541	121,884
39,882	-18,116	273,458	121,877
40,896	-18,114	273,143	121,728
41,911	-18,151	272,902	121,575
42,926	-17,918	272,465	121,587
43,940	-17,950	272,302	121,473
44,955	-18,149	272,138	121,204
45,969	-18,066	271,892	121,161
46,984	-17,925	271,632	121,165
47,999	-17,918	271,521	121,111
49,013	-17,966	271,401	121,002
50,028	-17,729	270,912	120,993
51,042	-17,968	270,887	120,750
52,057	-17,879	270,532	120,664
53,071	-17,793	270,439	120,690
54,086	-17,728	270,017	120,551
55,101	-17,878	270,055	120,419
56,115	-17,927	269,624	120,171
57,130	-18,000	269,291	119,944
58,144	-18,086	269,164	119,799
59,159	-18,147	268,893	119,611
60,174	-18,229	268,700	119,440
61,188	-18,045	268,465	119,492
62,203	-17,981	268,074	119,367
63,217	-17,864	267,913	119,392
64,232	-18,020	267,775	119,177
65,247	-18,028	267,706	119,128
66,261	-17,913	267,236	119,014
67,276	-17,926	267,093	118,927
68,290	-17,972	266,928	118,801
69,305	-17,721	266,607	118,876
70,320	-17,962	266,482	118,590
71,334	-17,958	266,116	118,421
72,349	-18,033	265,894	118,243
73,363	-17,985	265,840	118,253
74,378	-18,019	265,479	118,050
75,393	-18,050	265,189	117,883
76,407	-17,952	265,265	117,994
77,422	-17,924	264,843	117,822
78,436	-18,012	264,533	117,594
79,451	-17,919	264,275	117,553
80,466	-18,013	264,102	117,380
81,480	-17,997	263,889	117,290
82,495	-18,004	263,905	117,280
83,509	-17,968	263,656	117,191
84,524	-17,563	263,055	117,277
85,539	-17,962	263,247	116,994
86,553	-17,905	262,847	116,857
87,568	-17,934	262,781	116,791
88,582	-17,926	262,496	116,662
89,597	-17,877	262,308	116,611
90,611	-17,838	262,133	116,558
91,626	-17,905	261,920	116,393
92,641	-18,206	261,742	116,035
93,655	-17,703	261,465	116,350
94,670	-18,068	261,407	115,989
95,684	-17,921	261,019	115,937
96,699	-17,959	260,877	115,830
97,714	-18,041	260,728	115,681
98,728	-17,819	260,385	115,714
99,743	-17,910	260,155	115,521
100,757	-17,622	260,042	115,715
101,772	-17,888	259,747	115,340
102,787	-17,754	259,534	115,352
103,801	-17,696	259,249	115,267
104,816	-17,999	259,272	115,000
105,830	-17,782	258,937	115,032
106,845	-17,991	258,825	114,789
107,860	-18,046	258,704	114,675
108,874	-17,798	258,373	114,736
109,889	-17,966	258,203	114,503
110,903	-17,914	258,008	114,452
111,918	-17,953	257,833	114,330
112,933	-17,720	257,545	114,396
113,947	-17,682	257,172	114,253
114,962	-17,877	257,161	114,068
115,976	-17,903	257,031	113,977
116,991	-18,075	256,839	113,732
118,006	-18,064	256,654	113,650
119,020	-18,016	256,508	113,617
120,035	-17,801	256,264	113,686
121,049	-17,830	256,042	113,552
122,064	-17,761	255,937	113,555
123,079	-17,768	255,737	113,450
124,093	-17,780	255,484	113,317
125,108	-17,917	255,331	113,120
126,122	-17,825	255,161	113,115
127,137	-17,538	254,886	113,231
128,151	-17,656	254,686	113,030
129,166	-17,831	254,465	112,771
130,181	-17,689	254,310	112,815
131,195	-17,736	254,126	112,683
132,210	-17,672	253,886	112,622
133,224	-17,777	253,787	112,477
134,239	-17,754	253,603	112,406
135,254	-17,754	253,307	112,264
136,268	-17,725	253,063	112,170
137,283	-17,673	252,939	112,150
138,297	-17,859	252,782	111,912
139,312	-17,854	252,713	111,876
140,327	-17,841	252,384	111,731
141,341	-17,673	252,071	111,726
142,356	-17,712	251,919	111,615
143,370	-17,796	251,659	111,418
144,385	-17,985	251,579	111,212
145,400	-18,015	251,338	111,070
146,414	-17,982	251,092	110,980
147,429	-17,942	251,074	110,996
148,443	-17,794	250,824	111,001
149,458	-17,669	250,529	110,967
150,473	-17,801	250,427	110,800
151,487	-17,778	250,287	110,747
152,502	-17,764	250,092	110,663
153,516	-17,863	249,842	110,458
154,531	-17,964	249,721	110,310
155,546	-17,790	249,563	110,377
156,560	-17,784	249,283	110,248
157,575	-17,706	249,058	110,205
158,589	-17,700	248,883	110,123
159,604	-17,860	248,666	109,882
160,619	-17,864	248,443	109,770
161,633	-17,816	248,319	109,747
162,648	-17,777	248,311	109,766
163,662	-17,708	248,048	109,697
164,677	-17,705	248,024	109,679
165,692	-17,697	247,685	109,527
166,706	-17,815	247,538	109,353
167,721	-17,878	247,281	109,177
168,735	-17,717	247,221	109,275
169,750	-17,802	247,105	109,144
170,764	-17,974	247,072	108,975
171,779	-17,572	246,781	109,173
172,794	-17,730	246,647	108,972
173,808	-17,703	246,400	108,876
174,823	-17,640	246,192	108,827
175,837	-17,528	246,055	108,849
176,852	-17,635	245,779	108,629
177,867	-17,656	245,703	108,568
178,881	-17,771	245,651	108,440
179,896	-17,709	245,320	108,336
180,910	-17,718	245,088	108,216
181,925	-17,816	245,014	108,092
182,940	-17,742	244,740	108,023
183,954	-17,807	244,520	107,863
184,969	-17,799	244,459	107,833
185,983	-18,011	244,401	107,623
186,998	-17,782	244,130	107,683
188,013	-17,757	243,890	107,588
189,027	-17,917	243,734	107,378
190,042	-17,580	243,451	107,520
191,056	-17,730	243,475	107,398
192,071	-17,721	243,127	107,243
193,086	-17,810	243,074	107,136
194,100	-17,609	242,796	107,169
195,115	-17,798	242,555	106,899
196,129	-17,541	242,367	107,016
197,144	-17,486	242,336	107,038
198,159	-17,755	242,083	106,697
199,173	-17,772	241,938	106,610
200,188	-17,661	241,813	106,636
201,202	-17,637	241,671	106,583
202,217	-17,721	241,539	106,447
203,232	-17,557	241,252	106,445
204,246	-17,544	241,125	106,389
205,261	-17,566	241,048	106,328
206,275	-16,022	241,440	107,748
207,290	-11,482	243,011	112,154
208,304	-5,521	244,870	117,907
209,319	-3,268	245,480	120,045
210,334	-2,601	245,538	120,611
211,348	-1,603	245,500	121,402
212,363	-1,101	245,692	121,899
213,377	-0,678	245,746	122,263
214,392	-0,020	245,770	122,805
215,407	0,266	245,871	123,079
216,421	0,440	245,613	123,082
217,436	0,343	245,600	122,985
218,450	0,442	245,171	122,840
219,465	0,477	245,195	122,870
220,480	0,536	244,962	122,791
221,494	0,717	244,839	122,866
222,509	0,387	244,621	122,476
223,523	0,160	244,395	122,167
224,538	0,151	244,328	122,115
225,553	-0,081	244,024	121,763
226,567	0,000	243,801	121,707
227,582	0,303	243,663	121,873
228,596	0,060	243,638	121,652
229,611	-0,023	243,577	121,544
230,626	0,093	243,281	121,479
231,640	0,174	242,932	121,360
232,655	0,115	242,861	121,266
233,669	-0,102	242,670	120,984
234,684	0,056	242,530	121,031
235,699	0,043	242,502	120,996
236,713	0,249	242,253	121,027
237,728	0,058	242,233	120,852
238,742	0,182	241,955	120,803
239,757	0,097	241,780	120,636
240,772	0,021	241,691	120,520
241,786	-0,038	241,455	120,344
242,801	0,090	241,377	120,397
243,815	0,059	241,268	120,307
244,830	-0,125	241,053	120,041
245,844	0,195	240,726	120,124
246,859	0,048	240,701	119,983
247,874	-0,164	240,611	119,758
248,888	0,153	240,505	119,949
249,903	-0,109	240,312	119,632
250,917	0,118	240,057	119,676
251,932	0,215	239,960	119,695
252,947	0,102	239,885	119,556
253,961	0,083	239,512	119,344
254,976	0,075	239,385	119,264
255,990	-0,048	239,286	119,106
257,005	0,022	239,235	119,125
258,020	-0,055	239,057	118,965
259,034	-0,073	238,925	118,874
260,049	-0,065	238,809	118,813
261,063	0,263	238,467	118,892
262,078	0,113	238,272	118,665
263,093	0,073	238,131	118,553
264,107	0,071	238,134	118,542
265,122	-0,011	238,063	118,431
266,136	-0,032	237,774	118,260
267,151	-0,035	237,611	118,167
268,166	0,151	237,367	118,181
269,180	-0,112	237,266	117,913
270,195	-0,068	237,161	117,885
271,209	0,075	236,998	117,906
272,224	0,079	236,812	117,806
273,239	-0,001	236,790	117,722
274,253	-0,001	236,653	117,643
275,268	0,004	236,365	117,494
276,282	-0,132	236,287	117,337
277,297	0,071	236,022	117,355
278,312	0,128	235,918	117,337
279,326	0,182	235,907	117,363
280,341	0,030	235,714	117,137
281,355	0,190	235,499	117,146
282,370	-0,001	235,405	116,940
283,384	0,217	235,064	116,930
284,399	0,156	235,056	116,867
285,414	0,110	234,919	116,753
286,428	0,255	234,727	116,761
287,443	0,238	234,772	116,759
288,457	0,368	234,384	116,657
289,472	0,307	234,417	116,615
290,487	0,279	234,183	116,467
291,501	0,342	234,023	116,426
292,516	0,199	233,921	116,253
293,530	0,034	233,670	115,991
294,545	0,186	233,548	116,038
295,560	0,257	233,447	116,032
296,574	0,324	233,362	116,032
297,589	0,335	233,163	115,931
298,603	0,155	232,923	115,662
299,618	0,313	232,840	115,732
300,633	0,439	232,789	115,794
301,647	0,494	232,630	115,747
302,662	0,481	232,347	115,586
303,676	0,429	232,228	115,477
304,691	0,264	232,150	115,300
305,706	0,261	231,974	115,200
306,720	0,387	231,838	115,219
307,735	0,517	231,693	115,237
308,749	0,337	231,534	115,009
309,764	0,192	231,462	114,852
310,779	0,577	231,274	115,044
311,793	0,387	230,963	114,734
312,808	0,293	230,984	114,661
313,822	0,367	230,763	114,598
314,837	0,358	230,624	114,512
315,852	0,515	230,345	114,483
316,866	0,450	230,323	114,413
317,881	0,481	230,222	114,375
318,895	0,415	230,025	114,217
319,910	0,552	229,901	114,249
320,925	0,414	229,732	114,050
321,939	0,474	229,570	114,006
322,954	0,329	229,555	113,878
323,968	0,553	229,357	113,940
324,983	0,479	229,244	113,817
325,997	0,628	228,999	113,798
327,012	0,409	228,886	113,566
328,027	0,379	228,729	113,455
329,041	0,356	228,643	113,385
330,056	0,398	228,517	113,344
331,070	0,474	228,373	113,320
332,085	0,502	228,281	113,285
333,100	0,428	228,029	113,094
334,114	0,395	227,906	112,999
335,129	0,505	227,673	112,956
336,143	0,647	227,473	112,953
337,158	0,557	227,554	112,916
338,173	0,537	227,253	112,741
339,187	0,618	227,214	112,773
340,202	0,420	227,121	112,567
341,216	0,724	226,919	112,685
342,231	0,672	226,818	112,586
343,246	0,646	226,691	112,494
344,260	0,542	226,640	112,380
345,275	0,726	226,534	112,456
346,289	0,747	226,230	112,310
347,304	0,677	226,038	112,153
348,319	0,674	225,924	112,084
349,333	0,705	225,705	111,988
350,348	0,642	225,539	111,849
351,362	0,758	225,457	111,885
352,377	0,503	225,395	111,654
353,392	0,638	225,164	111,631
354,406	0,717	224,950	111,574
355,421	193,210	1310,753	1379,424
356,435	154,801	1442,894	1379,273
