DTS Sentinel unit serial number:	SN410029Multiplexer serial number:	ORYXHardware model number:	OX2-SRSoftware version number:	ORYX F/W v4,00 Oryx Data Collector v3.7.2.0data status	okinstallation	B5 Nyhavnadifferential loss correction	single-endedforward channel	channel 2reverse channel	N/Adate	2023/12/13time	07:47:13forward acquisition time	300,00reverse acquisition time	0,00gamma	499,1914k internal	0,3160k external	0,3160temperature offset calibration	1,0000default loss term (dB/km)	0,3820temperature slope calibration	1,0000multiplexer offset coefficient	1,0000multiplexer slope coefficient	1,0000fibre end	0,00T internal ref (°C)	13,67T ext. ref 1 (°C)	-2,80T ext. ref 2 (°C)	-3,10length (m)	temperature (°C)	Stokes	anti-Stokes-744,400	200,355	0,047	0,054
-743,385	-18,140	-0,289	-0,133
-742,371	800,000	0,059	0,132
-741,356	-130,454	-0,193	-0,019
-740,342	66,310	0,101	0,076
-739,327	-108,555	-0,247	-0,039
-738,312	440,967	0,044	0,071
-737,298	-144,403	-0,422	0,028
-736,283	-4,629	0,177	0,090
-735,269	-180,876	-0,273	-0,004
-734,254	800,000	0,075	0,203
-733,239	-12,878	-0,410	-0,196
-732,225	-65,358	0,174	0,051
-731,210	60,343	-0,041	-0,030
-730,196	800,000	-0,036	-0,084
-729,181	800,000	-0,071	-0,147
-728,167	24,334	0,075	0,046
-727,152	128,662	-0,096	0,090
-726,137	-200,000	-0,000	0,057
-725,123	-132,494	-0,085	0,008
-724,108	-148,745	0,053	-0,003
-723,094	800,000	0,003	-0,008
-722,079	93,023	-0,029	-0,024
-721,064	-52,482	0,236	0,080
-720,050	-89,396	0,032	-0,007
-719,035	-184,909	-0,159	-0,002
-718,021	-129,956	-0,049	0,005
-717,006	415,181	-0,077	-0,120
-715,991	-200,000	-0,036	-0,135
-714,977	269,251	-0,089	-0,115
-713,962	800,000	0,007	-0,018
-712,948	-170,790	0,062	0,002
-711,933	-3,580	-0,080	0,041
-710,918	207,073	0,050	0,058
-709,904	139,420	-0,027	0,026
-708,889	-200,000	-0,010	-0,054
-707,875	-200,000	0,007	-0,025
-706,860	95,280	0,050	0,042
-705,845	-107,161	-0,093	0,015
-704,831	-200,000	-0,016	0,106
-703,816	-200,000	-0,028	0,120
-702,802	-200,000	0,037	0,124
-701,787	-133,516	0,143	-0,013
-700,772	-86,686	-0,048	0,011
-699,758	800,000	0,025	0,053
-698,743	-103,100	0,078	0,013
-697,729	82,083	0,044	-0,035
-696,714	-70,551	-0,079	0,022
-695,699	800,000	-0,012	-0,036
-694,685	-200,000	-0,003	0,021
-693,670	-80,084	0,182	0,044
-692,656	-200,000	-0,017	-0,059
-691,641	800,000	0,048	0,110
-690,627	-15,452	0,041	0,019
-689,612	488,073	-0,069	0,116
-688,597	-31,378	0,085	-0,035
-687,583	-85,370	0,104	0,024
-686,568	-200,000	-0,019	-0,155
-685,554	519,080	-0,019	-0,033
-684,539	-200,000	0,000	-0,096
-683,524	12,878	-0,112	-0,063
-682,510	800,000	-0,033	-0,074
-681,495	-200,000	0,026	0,123
-680,481	322,797	-0,068	-0,095
-679,466	277,260	0,010	-0,013
-678,451	432,516	-0,043	-0,069
-677,437	-96,718	-0,106	0,020
-676,422	-113,819	0,041	0,006
-675,408	-55,534	0,041	-0,013
-674,393	-200,000	-0,013	-0,186
-673,378	60,594	-0,093	0,068
-672,364	-135,923	-0,064	0,005
-671,349	-200,000	0,004	-0,035
-670,335	213,171	0,083	-0,096
-669,320	-93,455	0,122	0,025
-668,305	-200,000	0,017	-0,146
-667,291	-200,000	-0,002	-0,139
-666,276	-200,000	-0,035	-0,135
-665,262	178,162	-0,061	0,066
-664,247	-47,472	-0,043	0,015
-663,232	-41,447	0,086	-0,032
-662,218	107,142	0,076	-0,067
-661,203	211,621	0,029	-0,033
-660,189	-132,406	-0,128	-0,012
-659,174	-135,698	0,129	-0,011
-658,159	800,000	0,008	-0,024
-657,145	-200,000	-0,016	0,115
-656,130	-54,951	-0,083	-0,027
-655,116	-200,000	0,016	-0,061
-654,101	-19,005	-0,145	0,066
-653,086	-124,394	-0,156	0,018
-652,072	92,772	-0,072	0,060
-651,057	24,677	-0,117	0,071
-650,043	277,791	-0,073	-0,096
-649,028	580,374	0,025	0,044
-648,014	-172,142	0,083	-0,002
-646,999	-118,693	0,083	-0,011
-645,984	-200,000	0,016	-0,082
-644,970	52,716	-0,116	0,081
-643,955	147,348	0,033	0,033
-642,941	-200,000	-0,029	-0,098
-641,926	-65,052	-0,106	0,031
-640,911	242,078	-0,028	-0,034
-639,897	129,682	0,018	0,017
-638,882	-1,174	0,101	-0,052
-637,868	-57,650	-0,081	0,026
-636,853	223,849	-0,069	-0,082
-635,838	-126,977	0,050	0,005
-634,824	-102,906	0,102	0,018
-633,809	186,357	0,035	0,039
-632,795	-200,000	0,003	0,020
-631,780	137,388	0,103	-0,099
-630,765	-200,000	-0,006	-0,217
-629,751	-200,000	-0,007	-0,097
-628,736	50,489	0,023	-0,016
-627,722	-19,026	-0,170	-0,077
-626,707	800,000	0,037	0,092
-625,692	99,175	0,202	0,171
-624,678	71,348	0,045	-0,034
-623,663	-22,748	-0,155	-0,068
-622,649	800,000	0,026	-0,072
-621,634	-200,000	-0,002	0,036
-620,619	-40,774	0,121	-0,046
-619,605	472,574	-0,061	0,101
-618,590	740,864	-0,093	-0,184
-617,576	-25,952	0,126	0,054
-616,561	199,307	-0,078	0,088
-615,546	25,733	-0,107	-0,065
-614,532	-23,088	-0,134	-0,059
-613,517	-118,546	-0,047	0,006
-612,503	-59,877	-0,018	0,006
-611,488	26,530	0,026	-0,016
-610,474	347,353	-0,026	0,038
-609,459	-200,000	0,002	0,117
-608,444	227,060	0,094	-0,112
-607,430	-200,000	-0,008	-0,034
-606,415	-200,000	0,011	-0,117
-605,401	800,000	0,008	0,024
-604,386	194,545	-0,100	-0,111
-603,371	211,008	0,144	0,166
-602,357	-200,000	-0,003	0,123
-601,342	-25,989	-0,086	0,037
-600,328	-200,000	-0,005	-0,071
-599,313	-69,551	0,043	-0,012
-598,298	-91,576	-0,062	0,013
-597,284	800,000	0,013	-0,032
-596,269	294,923	0,070	0,094
-595,255	800,000	0,050	-0,126
-594,240	-19,060	0,054	-0,024
-593,225	51,995	-0,086	0,060
-592,211	-200,000	-0,028	0,099
-591,196	-15,407	0,155	0,072
-590,182	800,000	0,018	0,053
-589,167	531,069	-0,060	0,105
-588,152	363,663	-0,030	-0,044
-587,138	-69,547	-0,011	0,003
-586,123	-64,039	-0,150	-0,045
-585,109	151,945	-0,044	-0,044
-584,094	88,240	0,049	0,040
-583,079	-6,695	-0,132	-0,066
-582,065	-200,000	0,024	-0,115
-581,050	159,423	0,075	0,077
-580,036	-200,000	-0,022	0,119
-579,021	703,347	-0,024	-0,046
-578,006	259,925	-0,052	-0,066
-576,992	-62,559	-0,021	-0,006
-575,977	-200,000	0,001	-0,024
-574,963	-94,963	0,093	0,018
-573,948	469,315	0,076	-0,126
-572,934	-34,692	-0,061	0,024
-571,919	-200,000	-0,008	0,152
-570,904	250,838	0,049	0,061
-569,890	489,944	-0,042	-0,071
-568,875	145,883	-0,028	0,028
-567,861	-126,602	-0,147	0,016
-566,846	-108,859	0,165	0,026
-565,831	42,070	-0,100	-0,066
-564,817	255,735	-0,009	0,012
-563,802	-53,213	-0,056	-0,019
-562,788	-101,479	-0,111	0,020
-561,773	35,563	0,122	-0,078
-560,758	-200,000	0,013	0,142
-559,744	-88,881	0,146	0,031
-558,729	687,692	0,036	0,069
-557,715	-200,000	-0,013	0,115
-556,700	-5,125	0,062	-0,031
-555,685	-90,117	-0,164	0,035
-554,671	800,000	-0,039	-0,117
-553,656	62,218	0,079	0,057
-552,642	285,509	-0,037	0,049
-551,627	519,092	-0,043	-0,073
-550,612	-42,532	0,022	0,008
-549,598	-83,518	-0,078	0,018
-548,583	25,880	-0,032	0,020
-547,569	800,000	-0,003	-0,010
-546,554	-200,000	-0,009	0,090
-545,539	800,000	-0,048	0,104
-544,525	-200,000	-0,005	0,049
-543,510	-200,000	0,004	0,057
-542,496	-200,000	0,015	-0,059
-541,481	-137,110	-0,046	0,004
-540,466	-167,499	-0,056	-0,002
-539,452	-167,016	0,095	-0,003
-538,437	-200,000	0,011	0,043
-537,423	-200,000	-0,021	0,099
-536,408	-200,000	0,012	0,163
-535,393	4,267	-0,128	0,068
-534,379	800,000	0,035	0,086
-533,364	210,142	-0,037	-0,042
-532,350	580,075	0,030	0,054
-531,335	-200,000	-0,019	0,000
-530,321	219,001	0,045	0,053
-529,306	800,000	0,004	0,014
-528,291	-89,849	0,032	0,007
-527,277	-200,000	0,024	-0,142
-526,262	-200,000	-0,025	-0,152
-525,248	122,206	-0,083	0,076
-524,233	-200,000	0,020	0,216
-523,218	-200,000	-0,001	0,012
-522,204	-200,000	-0,001	-0,075
-521,189	-200,000	-0,003	-0,075
-520,175	137,556	-0,112	-0,107
-519,160	43,886	-0,098	0,065
-518,145	-200,000	-0,022	0,094
-517,131	800,000	0,043	0,107
-516,116	800,000	0,048	0,137
-515,102	-200,000	0,022	0,072
-514,087	-200,000	-0,019	0,095
-513,072	63,168	-0,081	-0,059
-512,058	-200,000	-0,008	-0,145
-511,043	102,794	-0,077	0,066
-510,029	-200,000	-0,008	0,119
-509,014	725,453	-0,031	0,061
-507,999	25,202	0,050	-0,030
-506,985	127,817	-0,021	0,019
-505,970	224,944	-0,057	0,068
-504,956	384,471	0,063	-0,095
-503,941	-154,118	-0,097	-0,005
-502,926	-200,000	0,026	0,092
-501,912	303,038	-0,045	-0,060
-500,897	-111,390	0,021	0,003
-499,883	671,813	-0,046	-0,087
-498,868	800,000	0,069	-0,149
-497,853	800,000	-0,023	-0,067
-496,839	-200,000	0,011	0,113
-495,824	264,443	0,047	-0,060
-494,810	-155,532	-0,125	-0,006
-493,795	-48,129	0,123	-0,043
-492,781	-200,000	0,032	0,106
-491,766	-104,695	-0,079	0,013
-490,751	671,409	-0,049	-0,092
-489,737	-200,000	-0,024	0,102
-488,722	621,735	0,004	0,007
-487,708	-200,000	0,021	-0,107
-486,693	800,000	-0,042	0,129
-485,678	800,000	0,048	-0,140
-484,664	21,515	-0,136	0,081
-483,649	-26,554	-0,049	0,021
-482,635	-151,138	-0,094	-0,005
-481,620	-200,000	0,003	0,028
-480,605	-200,000	-0,006	0,027
-479,591	-200,000	0,024	0,102
-478,576	-200,000	0,002	-0,105
-477,562	-24,137	-0,063	-0,027
-476,547	234,362	0,030	-0,036
-475,532	-88,502	-0,088	0,019
-474,518	2,239	-0,052	0,028
-473,503	-121,656	0,196	-0,023
-472,489	-200,000	-0,006	-0,139
-471,474	-200,000	0,016	-0,076
-470,459	-13,854	0,006	-0,003
-469,445	27,698	0,060	-0,037
-468,430	-92,133	0,131	0,027
-467,416	-200,000	-0,030	0,143
-466,401	-147,503	0,124	-0,008
-465,386	241,998	0,093	-0,113
-464,372	-95,250	0,046	-0,009
-463,357	-111,185	0,086	-0,013
-462,343	800,000	-0,027	-0,056
-461,328	-200,000	-0,016	-0,116
-460,313	55,307	-0,064	0,045
-459,299	40,666	0,077	0,050
-458,284	-74,785	0,069	0,018
-457,270	800,000	-0,037	0,078
-456,255	63,028	0,104	0,076
-455,241	170,434	0,101	-0,105
-454,226	-96,228	0,110	-0,021
-453,211	94,839	0,003	-0,003
-452,197	800,000	0,010	-0,023
-451,182	-121,143	-0,046	-0,006
-450,168	295,417	-0,050	-0,066
-449,153	-200,000	0,010	-0,067
-448,138	-23,734	0,169	-0,073
-447,124	163,514	0,019	0,020
-446,109	507,586	0,092	-0,156
-445,095	-200,000	-0,030	0,169
-444,080	800,000	-0,019	-0,052
-443,065	-200,000	0,040	0,141
-442,051	-200,000	-0,005	0,059
-441,036	317,715	-0,062	-0,085
-440,022	32,459	-0,100	-0,063
-439,007	-200,000	0,016	0,096
-437,992	278,932	0,090	0,117
-436,978	-77,997	0,051	-0,013
-435,963	-47,225	0,118	0,042
-434,949	239,891	-0,046	-0,055
-433,934	155,164	-0,144	-0,144
-432,919	-200,000	0,061	-0,215
-431,905	-69,765	0,163	-0,045
-430,890	-200,000	-0,030	0,161
-429,876	-200,000	0,018	0,092
-428,861	60,905	0,055	0,040
-427,846	23,149	-0,108	-0,064
-426,832	64,946	-0,083	-0,061
-425,817	67,006	-0,082	-0,061
-424,803	-200,000	-0,003	-0,013
-423,788	-200,000	0,035	0,124
-422,773	356,906	0,089	0,129
-421,759	506,786	-0,038	0,064
-420,744	-168,294	0,187	-0,005
-419,730	72,581	0,014	0,010
-418,715	249,841	-0,028	-0,034
-417,701	247,659	-0,018	-0,022
-416,686	-50,009	0,098	0,034
-415,671	-200,000	-0,009	-0,044
-414,657	477,245	0,021	-0,034
-413,642	-200,000	0,043	0,154
-412,628	799,176	-0,075	0,152
-411,613	101,727	-0,048	0,041
-410,598	61,032	-0,038	0,028
-409,584	-58,499	-0,057	0,018
-408,569	-200,000	-0,023	-0,193
-407,555	800,000	0,018	0,041
-406,540	-200,000	-0,009	-0,099
-405,525	505,841	-0,010	-0,018
-404,511	-150,031	-0,042	-0,002
-403,496	-200,000	-0,018	-0,115
-402,482	-61,797	0,093	0,028
-401,467	-156,635	0,050	0,002
-400,452	800,000	-0,047	0,116
-399,438	-54,838	-0,159	0,052
-398,423	-200,000	0,015	-0,081
-397,409	143,617	0,035	-0,034
-396,394	-200,000	0,006	-0,081
-395,379	183,500	-0,059	-0,064
-394,365	-107,239	0,027	-0,004
-393,350	-200,000	0,004	0,030
-392,336	-83,471	-0,121	-0,028
-391,321	-41,602	-0,125	-0,046
-390,306	-53,683	-0,045	0,015
-389,292	-131,310	-0,072	0,007
-388,277	57,473	-0,068	-0,048
-387,263	-200,000	-0,013	-0,050
-386,248	-27,851	0,042	-0,017
-385,233	-200,000	0,007	0,167
-384,219	-15,809	0,064	0,030
-383,204	-116,609	-0,060	0,008
-382,190	-27,640	-0,129	-0,054
-381,175	154,625	-0,049	0,049
-380,160	-200,000	0,012	-0,092
-379,146	-200,000	0,011	0,098
-378,131	167,024	-0,113	0,117
-377,117	800,000	-0,046	0,112
-376,102	800,000	0,035	-0,108
-375,088	-93,579	0,114	-0,023
-374,073	800,000	-0,061	-0,172
-373,058	206,980	0,041	0,046
-372,044	-113,209	0,040	-0,006
-371,029	263,901	0,097	-0,123
-370,015	240,586	0,102	0,123
-369,000	800,000	-0,006	-0,017
-367,985	235,796	0,040	-0,048
-366,971	525,667	0,048	-0,083
-365,956	342,904	0,053	0,076
-364,942	-200,000	-0,007	0,057
-363,927	800,000	0,020	0,044
-362,912	-200,000	-0,007	0,058
-361,898	291,006	-0,053	0,070
-360,883	-200,000	0,008	0,064
-359,869	489,560	-0,022	0,037
-358,854	-14,824	-0,084	-0,039
-357,839	328,427	0,068	0,095
-356,825	557,275	-0,062	0,110
-355,810	-200,000	0,019	-0,111
-354,796	800,000	-0,015	-0,039
-353,781	-200,000	-0,026	-0,163
-352,766	-26,534	-0,068	0,029
-351,752	249,025	-0,040	-0,050
-350,737	-108,575	0,067	0,010
-349,723	-200,000	-0,001	0,005
-348,708	-75,709	-0,050	0,013
-347,693	775,276	-0,057	-0,113
-346,679	127,725	0,021	0,020
-345,664	110,224	0,116	-0,101
-344,650	-200,000	0,001	-0,048
-343,635	-10,076	-0,048	0,023
-342,620	-16,071	0,220	-0,101
-341,606	89,551	-0,008	-0,006
-340,591	800,000	0,050	-0,128
-339,577	800,000	-0,027	-0,072
-338,562	800,000	0,066	-0,135
-337,548	148,974	0,104	-0,102
-336,533	-200,000	0,006	-0,039
-335,518	-108,809	0,080	-0,012
-334,504	62,550	0,136	0,098
-333,489	10,557	-0,162	0,089
-332,475	528,135	0,024	0,041
-331,460	800,000	0,013	-0,034
-330,445	800,000	-0,069	-0,179
-329,431	474,560	0,048	0,078
-328,416	-200,000	0,021	0,103
-327,402	800,000	0,013	0,029
-326,387	-119,495	-0,039	-0,005
-325,372	-200,000	0,007	-0,108
-324,358	-70,534	0,019	-0,005
-323,343	-23,436	-0,110	0,048
-322,329	-89,223	-0,081	-0,017
-321,314	-98,273	0,107	-0,020
-320,299	98,942	-0,053	-0,044
-319,285	218,855	0,049	-0,056
-318,270	-200,000	-0,002	0,025
-317,256	800,000	-0,029	-0,090
-316,241	87,272	0,050	0,040
-315,226	266,824	0,101	0,128
-314,212	-148,351	0,062	-0,004
-313,197	273,604	-0,079	0,102
-312,183	118,902	0,082	-0,073
-311,168	800,000	0,027	-0,084
-310,153	800,000	-0,096	-0,264
-309,139	126,284	-0,035	-0,032
-308,124	-195,285	0,131	0,001
-307,110	-104,438	0,141	0,023
-306,095	132,594	0,058	-0,054
-305,080	128,050	-0,068	-0,062
-304,066	131,891	-0,035	0,032
-303,051	800,000	0,055	-0,115
-302,037	800,000	0,059	-0,145
-301,022	-200,000	-0,004	-0,092
-300,008	71,930	-0,046	0,035
-298,993	800,000	0,058	0,145
-297,978	-61,482	-0,039	0,012
-296,964	105,702	-0,034	-0,029
-295,949	-197,948	-0,042	-0,000
-294,935	-68,444	-0,220	-0,061
-293,920	382,118	-0,058	0,086
-292,905	-155,931	0,207	-0,009
-291,891	-17,900	0,079	0,036
-290,876	-200,000	-0,006	0,106
-289,862	277,194	0,058	0,075
-288,847	800,000	0,043	-0,094
-287,832	-197,699	-0,085	0,000
-286,818	337,142	-0,100	-0,141
-285,803	467,628	0,082	0,134
-284,789	-58,826	0,167	0,052
-283,774	-58,979	-0,042	-0,013
-282,759	380,872	-0,089	-0,132
-281,745	-107,678	0,050	0,008
-280,730	472,193	-0,039	-0,064
-279,716	87,078	0,066	-0,053
-278,701	-93,597	-0,088	0,018
-277,686	12,161	0,088	-0,049
-276,672	-61,956	-0,115	-0,035
-275,657	800,000	0,047	0,118
-274,643	135,150	0,035	0,033
-273,628	-200,000	-0,031	-0,118
-272,613	-171,000	0,109	0,003
-271,599	-200,000	-0,007	-0,037
-270,584	-200,000	0,002	0,024
-269,570	800,000	0,016	-0,052
-268,555	-200,000	-0,009	0,056
-267,540	-90,753	-0,101	0,021
-266,526	160,078	-0,058	-0,058
-265,511	800,000	-0,016	-0,050
-264,497	180,373	-0,081	-0,086
-263,482	40,209	0,091	-0,059
-262,467	-200,000	-0,026	0,113
-261,453	-200,000	0,017	0,067
-260,438	-167,397	0,168	0,005
-259,424	-55,276	-0,039	-0,012
-258,409	159,711	-0,038	-0,039
-257,395	193,896	0,067	0,073
-256,380	-200,000	0,025	0,095
-255,365	121,309	-0,115	-0,104
-254,351	-200,000	-0,007	-0,096
-253,336	332,328	-0,095	0,133
-252,322	345,875	-0,066	-0,094
-251,307	15,670	0,022	-0,013
-250,292	194,591	-0,043	-0,047
-249,278	-76,388	0,203	0,051
-248,263	17,207	0,103	-0,059
-247,249	53,963	0,103	0,071
-246,234	396,502	-0,063	-0,096
-245,219	-41,455	0,033	0,012
-244,205	-99,632	-0,068	0,012
-243,190	-1,406	-0,104	0,053
-242,176	68,735	0,090	0,067
-241,161	532,860	0,029	0,049
-240,146	7,616	-0,106	0,057
-239,132	405,868	0,062	0,095
-238,117	37,544	-0,093	0,060
-237,103	-82,746	-0,098	0,023
-236,088	75,174	-0,090	0,069
-235,073	-10,251	0,095	-0,045
-234,059	138,810	-0,032	0,030
-233,044	92,346	-0,039	0,031
-232,030	-109,366	-0,033	-0,005
-231,015	-200,000	0,005	-0,157
-230,000	-200,000	0,001	0,026
-228,986	-200,000	0,001	0,081
-227,971	421,106	-0,061	-0,095
-226,957	800,000	0,039	-0,091
-225,942	-130,667	0,124	0,012
-224,927	-200,000	-0,071	0,290
-223,913	-200,000	-0,069	-0,221
-222,898	-110,820	0,127	-0,019
-221,884	-90,672	-0,086	-0,018
-220,869	800,000	0,028	0,057
-219,855	178,102	0,071	0,075
-218,840	-103,724	-0,129	0,022
-217,825	209,047	-0,055	0,062
-216,811	353,479	0,082	-0,118
-215,796	299,694	-0,121	-0,161
-214,782	-200,000	-0,056	-0,202
-213,767	336,227	0,078	0,110
-212,752	160,649	0,116	0,117
-211,738	150,031	-0,088	0,086
-210,723	321,125	0,053	-0,073
-209,709	-200,000	-0,018	-0,138
-208,694	-6,525	0,009	-0,004
-207,679	-200,000	0,031	-0,142
-206,665	279,990	-0,045	0,057
-205,650	25,198	0,110	0,066
-204,636	-1,617	-0,120	0,061
-203,621	-140,900	-0,107	-0,008
-202,606	-122,177	0,161	-0,019
-201,592	112,473	-0,044	0,038
-200,577	-200,000	-0,010	-0,205
-199,563	163,892	-0,064	-0,065
-198,548	800,000	0,041	0,094
-197,533	800,000	0,051	0,127
-196,519	-200,000	0,020	0,103
-195,504	400,472	-0,069	-0,104
-194,490	-120,833	0,043	0,005
-193,475	675,657	0,038	0,071
-192,460	302,257	0,049	0,065
-191,446	-78,344	0,089	-0,022
-190,431	-99,319	0,017	-0,003
-189,417	295,284	-0,066	0,087
-188,402	-140,448	-0,107	-0,008
-187,387	-110,807	-0,081	0,012
-186,373	795,414	0,042	-0,083
-185,358	442,684	0,013	-0,020
-184,344	-140,504	-0,052	0,004
-183,329	242,166	0,023	0,028
-182,315	-106,807	-0,127	-0,020
-181,300	28,142	-0,135	0,082
-180,285	-16,664	0,050	0,023
-179,271	58,298	-0,054	-0,038
-178,256	-45,095	-0,070	0,025
-177,242	-200,000	-0,004	0,061
-176,227	800,000	0,066	0,187
-175,212	800,000	0,078	0,197
-174,198	-65,536	0,049	0,014
-173,183	-200,000	-0,002	0,108
-172,169	-46,969	0,059	-0,020
-171,154	-147,118	0,121	-0,007
-170,139	-87,551	-0,211	0,045
-169,125	-94,275	-0,089	0,017
-168,110	646,428	0,027	0,050
-167,096	71,750	0,034	-0,026
-166,081	-49,683	0,170	0,058
-165,066	48,844	0,122	0,082
-164,052	33,503	-0,095	-0,059
-163,037	-200,000	-0,023	-0,079
-162,023	-200,000	0,025	0,081
-161,008	-102,764	0,106	-0,018
-159,993	-100,950	-0,098	0,017
-158,979	601,642	0,058	-0,104
-157,964	387,785	-0,104	-0,156
-156,950	-136,171	0,017	0,001
-155,935	221,034	0,102	0,118
-154,920	-200,000	-0,012	0,140
-153,906	800,000	0,018	-0,046
-152,891	-8,647	-0,069	-0,033
-151,877	96,077	-0,127	0,105
-150,862	800,000	0,034	0,101
-149,847	800,000	-0,010	0,031
-148,833	800,000	-0,013	0,032
-147,818	383,639	0,103	0,153
-146,804	65,541	0,090	0,066
-145,789	-75,772	-0,052	0,013
-144,775	-200,000	-0,014	-0,069
-143,760	147,625	0,040	-0,039
-142,745	13,881	-0,032	0,018
-141,731	-27,460	0,088	-0,037
-140,716	-67,791	0,053	-0,015
-139,702	-200,000	-0,003	0,135
-138,687	588,049	-0,072	0,129
-137,672	225,688	0,007	0,009
-136,658	565,949	-0,037	-0,065
-135,643	800,000	-0,042	-0,105
-134,629	288,511	0,013	-0,017
-133,614	-126,251	0,047	0,005
-132,599	-200,000	0,028	-0,152
-131,585	761,420	-0,062	0,122
-130,570	-200,000	0,004	0,095
-129,556	-5,822	-0,133	-0,065
-128,541	800,000	-0,011	0,033
-127,526	-200,000	0,022	0,076
-126,512	-114,754	-0,176	-0,024
-125,497	248,901	0,034	-0,042
-124,483	-200,000	0,005	0,060
-123,468	800,000	0,012	-0,033
-122,453	-75,308	0,024	-0,006
-121,439	207,383	-0,034	0,039
-120,424	-200,000	0,016	0,063
-119,410	800,000	-0,018	0,039
-118,395	434,944	0,090	0,141
-117,380	-90,743	0,082	-0,017
-116,366	252,577	-0,091	0,112
-115,351	23,331	-0,190	0,112
-114,337	434,070	-0,070	-0,110
-113,322	-200,000	-0,012	-0,075
-112,307	800,000	0,033	0,076
-111,293	189,740	0,104	0,113
-110,278	59,017	-0,100	-0,070
-109,264	19,519	-0,068	-0,039
-108,249	541,603	0,052	0,090
-107,234	1,079	0,076	-0,039
-106,220	-200,000	0,027	0,128
-105,205	-69,035	-0,070	0,019
-104,191	-7,151	0,080	0,039
-103,176	571,994	-0,047	0,082
-102,162	32,738	-0,084	0,052
-101,147	176,474	-0,084	0,088
-100,132	157,816	-0,065	-0,065
-99,118	-200,000	0,012	-0,095
-98,103	784,978	0,020	-0,040
-97,089	-95,539	0,192	-0,037
-96,074	-200,000	0,023	0,106
-95,059	-200,000	0,014	-0,065
-94,045	378,445	-0,008	-0,012
-93,030	800,000	0,061	0,129
-92,016	-69,137	-0,088	0,024
-91,001	800,000	0,035	0,085
-89,986	11,395	0,066	-0,036
-88,972	668,286	0,048	-0,090
-87,957	-200,000	-0,006	-0,134
-86,943	70,572	0,083	0,062
-85,928	-135,930	0,116	-0,010
-84,913	-122,216	0,108	0,013
-83,899	603,290	-0,022	0,040
-82,884	800,000	0,028	-0,058
-81,870	-200,000	0,036	0,119
-80,855	536,022	0,069	0,117
-79,840	111,362	-0,065	-0,056
-78,826	-55,837	-0,101	-0,032
-77,811	216,290	-0,037	-0,043
-76,797	80,267	0,092	0,071
-75,782	800,000	0,021	0,065
-74,767	440,898	0,059	-0,093
-73,753	67,337	-0,057	-0,042
-72,738	76,410	-0,148	0,113
-71,724	-119,810	-0,126	-0,015
-70,709	-150,345	-0,077	-0,004
-69,694	-77,977	-0,208	0,051
-68,680	800,000	0,016	0,037
-67,665	-200,000	-0,002	-0,143
-66,651	-32,830	0,073	0,029
-65,636	-43,146	-0,113	0,041
-64,622	-200,000	0,008	0,092
-63,607	-117,113	-0,095	-0,012
-62,592	-124,760	0,095	-0,010
-61,578	-105,706	-0,068	-0,011
-60,563	303,299	0,091	0,121
-59,549	109,978	-0,107	0,092
-58,534	30,786	-2,079	-1,274
-57,519	800,000	-0,215	-0,675
-56,505	-200,000	-1,279	-5,030
-55,490	116,513	0,877	0,772
-54,476	800,000	5,341	12,047
-53,461	-200,000	18,781	317,599
-52,446	800,000	741,462	2334,469
-51,432	558,698	1657,247	2878,890
-50,417	111,078	1641,196	1416,977
-49,403	75,443	1290,999	975,960
-48,388	30,277	1031,850	630,277
-47,373	19,963	994,202	573,098
-46,359	17,389	981,874	557,496
-45,344	14,085	978,325	544,590
-44,330	14,373	976,542	544,521
-43,315	13,691	974,899	541,344
-42,300	13,674	973,707	540,605
-41,286	13,742	972,490	540,131
-40,271	13,667	971,786	539,472
-39,257	13,706	970,982	539,132
-38,242	13,664	970,016	538,438
-37,227	13,701	969,103	538,029
-36,213	13,689	968,196	537,466
-35,198	13,648	967,426	536,884
-34,184	13,708	966,618	536,610
-33,169	13,610	965,572	535,687
-32,154	13,699	964,576	535,405
-31,140	13,694	963,714	534,887
-30,125	13,726	962,963	534,555
-29,111	13,682	962,117	533,921
-28,096	13,673	961,612	533,591
-27,082	13,681	960,695	533,085
-26,067	13,748	960,058	532,929
-25,052	13,774	959,324	532,584
-24,038	13,687	958,810	531,994
-23,023	13,679	958,042	531,523
-22,009	13,699	957,403	531,211
-20,994	13,700	956,647	530,774
-19,979	13,732	956,031	530,515
-18,965	13,678	955,531	530,043
-17,950	13,715	954,949	529,817
-16,936	13,593	954,320	529,054
-15,921	13,674	953,697	528,950
-14,906	13,623	952,918	528,334
-13,892	13,622	952,235	527,929
-12,877	13,610	951,539	527,484
-11,863	13,557	951,010	527,000
-10,848	13,561	950,283	526,588
-9,833	13,719	949,724	526,763
-8,819	13,662	949,153	526,245
-7,804	13,638	948,573	525,824
-6,790	13,567	948,005	525,262
-5,775	13,662	947,461	525,243
-4,760	13,578	946,723	524,546
-3,746	13,569	946,239	524,228
-2,731	13,478	945,448	523,479
-1,717	13,440	944,680	522,913
-0,702	13,433	944,172	522,589
0,313	13,308	943,390	522,548
1,327	16,557	941,085	531,512
2,342	25,593	795,719	473,412
3,356	21,989	460,264	268,278
4,371	-5,091	317,601	156,033
5,386	-8,859	299,327	143,190
6,400	-10,882	293,252	138,241
7,415	-11,292	290,863	136,695
8,429	-11,469	289,251	135,751
9,444	-11,619	288,393	135,188
10,459	-11,330	287,582	135,080
11,473	-11,612	287,035	134,534
12,488	-11,400	286,478	134,468
13,502	-11,485	286,065	134,180
14,517	-11,534	285,613	133,908
15,531	-11,485	285,081	133,695
16,546	-11,475	284,812	133,566
17,561	-11,603	284,466	133,268
18,575	-11,485	284,067	133,184
19,590	-11,490	283,616	132,955
20,604	-11,537	283,385	132,790
21,619	-11,472	283,008	132,663
22,634	-11,464	282,691	132,511
23,648	-11,430	282,323	132,359
24,663	-11,278	282,022	132,353
25,677	-11,440	281,849	132,104
26,692	-11,423	281,548	131,968
27,707	-11,376	281,167	131,822
28,721	-11,405	280,938	131,675
29,736	-11,508	280,669	131,439
30,750	-11,472	280,337	131,307
31,765	-11,463	280,086	131,185
32,780	-11,449	279,885	131,093
33,794	-11,408	279,580	130,977
34,809	-11,471	279,324	130,786
35,823	-11,409	279,197	130,774
36,838	-11,479	278,865	130,540
37,853	-11,543	278,626	130,355
38,867	-11,255	278,387	130,506
39,882	-11,459	278,111	130,171
40,896	-11,537	277,956	130,013
41,911	-11,334	277,664	130,057
42,926	-11,602	277,431	129,683
43,940	-11,586	277,277	129,614
44,955	-11,527	276,988	129,524
45,969	-11,529	276,759	129,403
46,984	-11,780	276,466	129,018
47,999	-11,818	276,128	128,813
49,013	-11,910	275,820	128,571
50,028	-12,199	275,729	128,246
51,042	-12,277	275,444	128,029
52,057	-12,156	275,030	127,938
53,071	-12,041	274,785	127,921
54,086	-12,143	274,870	127,853
55,101	-11,954	274,597	127,891
56,115	-11,652	274,286	128,017
57,130	-11,526	274,312	128,135
58,144	-11,464	274,026	128,049
59,159	-11,500	273,880	127,935
60,174	-11,287	273,657	128,018
61,188	-11,310	273,298	127,817
62,203	-11,347	273,196	127,724
63,217	-11,436	272,913	127,497
64,232	-11,252	272,518	127,472
65,247	-11,410	272,438	127,277
66,261	-11,415	272,264	127,180
67,276	-11,459	271,976	126,993
68,290	-11,648	271,649	126,655
69,305	-11,809	271,579	126,462
70,320	-11,726	271,354	126,422
71,334	-11,696	271,074	126,308
72,349	-11,132	270,824	126,700
73,363	-11,318	270,638	126,431
74,378	-11,497	270,480	126,180
75,393	-11,373	270,206	126,156
76,407	-11,346	270,088	126,114
77,422	-11,448	269,912	125,927
78,436	-11,388	269,612	125,831
79,451	-11,474	269,346	125,617
80,466	-11,503	269,067	125,449
81,480	-11,475	268,846	125,360
82,495	-11,529	268,775	125,267
83,509	-11,453	268,468	125,182
84,524	-11,648	268,228	124,882
85,539	-11,605	268,048	124,825
86,553	-11,556	267,706	124,699
87,568	-11,558	267,594	124,635
88,582	-11,617	267,441	124,499
89,597	-11,550	267,149	124,412
90,611	-11,327	266,974	124,522
91,626	-11,450	266,937	124,382
92,641	-11,412	266,623	124,259
93,655	-11,341	266,425	124,220
94,670	-11,471	266,006	123,896
95,684	-11,535	266,018	123,833
96,699	-11,492	265,864	123,788
97,714	-11,543	265,508	123,566
98,728	-11,700	265,296	123,316
99,743	-11,827	265,089	123,094
100,757	-11,574	264,956	123,249
101,772	-11,620	264,695	123,075
102,787	-11,534	264,517	123,058
103,801	-11,213	264,294	123,232
104,816	-11,381	264,133	122,994
105,830	-11,270	263,945	122,996
106,845	-11,346	263,715	122,810
107,860	-11,173	263,488	122,847
108,874	-11,420	263,429	122,588
109,889	-11,464	263,181	122,423
110,903	-11,347	262,960	122,413
111,918	-11,356	262,697	122,271
112,933	-11,420	262,618	122,167
113,947	-11,247	262,328	122,175
114,962	-11,518	262,329	121,924
115,976	-11,530	262,107	121,799
116,991	-11,549	261,864	121,659
118,006	-11,402	261,704	121,704
119,020	-11,527	261,498	121,486
120,035	-11,353	261,355	121,563
121,049	-11,371	261,148	121,440
122,064	-11,346	260,988	121,377
123,079	-11,415	260,754	121,196
124,093	-11,543	260,573	120,988
125,108	-11,557	260,320	120,848
126,122	-11,768	260,006	120,505
127,137	-11,862	259,819	120,325
128,151	-11,591	259,565	120,435
129,166	-11,606	259,471	120,368
130,181	-11,457	259,191	120,358
131,195	-11,772	259,032	119,997
132,210	-11,519	258,894	120,144
133,224	-11,260	258,669	120,255
134,239	-11,321	258,494	120,110
135,254	-11,307	258,510	120,119
136,268	-11,613	258,120	119,660
137,283	-11,719	257,852	119,433
138,297	-11,815	257,593	119,218
139,312	-11,596	257,178	119,206
140,327	-11,727	257,397	119,183
141,341	-11,235	257,174	119,497
142,356	-11,338	257,174	119,396
143,370	-11,286	256,875	119,293
144,385	-11,196	256,748	119,300
145,400	-11,079	256,307	119,186
146,414	-11,267	256,367	119,042
147,429	-11,176	256,065	118,969
148,443	-11,177	255,854	118,860
149,458	-11,373	255,907	118,704
150,473	-11,264	255,495	118,597
151,487	-11,168	255,328	118,591
152,502	-11,287	255,191	118,414
153,516	-11,337	254,935	118,242
154,531	-11,279	254,900	118,265
155,546	-11,356	254,736	118,112
156,560	-11,412	254,457	117,924
157,575	-11,407	254,123	117,763
158,589	-11,282	254,080	117,840
159,604	-11,156	253,893	117,850
160,619	-11,457	253,687	117,487
161,633	-11,206	253,558	117,631
162,648	-11,074	253,367	117,646
163,662	-11,172	253,324	117,531
164,677	-11,081	252,987	117,442
165,692	-11,055	252,864	117,396
166,706	-11,044	252,586	117,267
167,721	-11,145	252,464	117,113
168,735	-11,152	252,317	117,029
169,750	-11,060	252,117	117,004
170,764	-11,374	252,177	116,754
171,779	-11,142	251,835	116,782
172,794	-11,121	251,804	116,775
173,808	-11,337	251,617	116,494
174,823	-11,705	251,294	116,023
175,837	-11,719	250,982	115,857
176,852	-11,226	250,850	116,203
177,867	-11,136	250,789	116,240
178,881	-11,178	250,662	116,135
179,896	-11,034	250,331	116,093
180,910	-11,244	250,376	115,926
181,925	-11,100	250,048	115,886
182,940	-11,267	250,136	115,775
183,954	-11,134	249,648	115,651
184,969	-11,189	249,643	115,592
185,983	-10,991	249,378	115,626
186,998	-10,933	249,176	115,570
188,013	-11,246	249,171	115,295
189,027	-11,241	248,956	115,189
190,042	-11,112	248,707	115,172
191,056	-11,089	248,638	115,149
192,071	-11,072	248,384	115,035
193,086	-11,336	248,242	114,739
194,100	-11,096	247,951	114,794
195,115	-11,016	247,854	114,805
196,129	-10,889	247,653	114,808
197,144	-11,188	247,378	114,421
198,159	-11,137	247,210	114,376
199,173	-11,142	247,104	114,312
200,188	-11,146	246,938	114,222
201,202	-11,389	246,679	113,891
202,217	-11,813	246,389	113,396
203,232	-11,750	246,133	113,319
204,246	-11,356	246,141	113,640
205,261	-10,926	246,091	113,962
206,275	-11,815	245,677	113,026
207,290	-7,979	247,276	116,938
208,304	0,252	249,980	125,099
209,319	4,481	251,016	129,149
210,334	4,664	251,152	129,360
211,348	5,068	250,965	129,590
212,363	5,107	250,888	129,571
213,377	5,365	250,662	129,659
214,392	5,161	250,511	129,399
215,407	5,137	250,282	129,249
216,421	5,079	250,131	129,111
217,436	5,198	250,127	129,196
218,450	5,378	249,863	129,198
219,465	5,066	249,593	128,788
220,480	4,936	249,338	128,537
221,494	4,700	249,398	128,361
222,509	4,718	249,216	128,270
223,523	4,773	248,896	128,139
224,538	4,639	248,572	127,851
225,553	4,615	248,512	127,789
226,567	4,511	248,587	127,730
227,582	4,535	248,338	127,610
228,596	4,502	248,131	127,465
229,611	4,533	247,811	127,316
230,626	4,287	247,529	126,956
231,640	4,306	247,514	126,954
232,655	4,631	247,326	127,112
233,669	4,284	247,354	126,830
234,684	4,314	247,048	126,686
235,699	4,532	247,106	126,884
236,713	4,743	246,857	126,918
237,728	4,393	246,652	126,515
238,742	4,333	246,376	126,313
239,757	4,579	246,027	126,324
240,772	4,238	245,987	126,013
241,786	4,663	245,893	126,301
242,801	4,271	245,675	125,858
243,815	4,447	245,579	125,941
244,830	4,550	245,561	126,004
245,844	4,716	245,365	126,028
246,859	4,404	245,140	125,647
247,874	4,550	244,804	125,582
248,888	4,282	244,919	125,412
249,903	4,581	244,600	125,480
250,917	4,481	244,562	125,369
251,932	4,916	244,414	125,634
252,947	4,648	244,223	125,308
253,961	4,587	243,996	125,131
254,976	4,834	243,891	125,265
255,990	4,734	243,748	125,101
257,005	4,467	243,513	124,753
258,020	4,317	243,423	124,574
259,034	4,559	243,196	124,643
260,049	4,636	243,082	124,634
261,063	4,343	242,922	124,305
262,078	4,271	242,809	124,178
263,093	4,350	242,774	124,213
264,107	4,671	242,495	124,318
265,122	4,266	242,226	123,843
266,136	4,649	242,202	124,128
267,151	4,898	242,048	124,238
268,166	4,408	241,811	123,712
269,180	4,251	241,582	123,458
270,195	5,010	241,693	124,111
271,209	5,210	241,458	124,140
272,224	4,491	241,228	123,436
273,239	4,048	240,999	122,954
274,253	4,220	240,867	123,013
275,268	4,310	240,842	123,061
276,282	4,386	240,780	123,079
277,297	4,149	240,438	122,705
278,312	4,400	240,140	122,741
279,326	4,486	240,249	122,855
280,341	4,476	240,085	122,751
281,355	4,420	239,882	122,592
282,370	4,482	239,804	122,590
283,384	4,398	239,617	122,418
284,399	4,149	239,370	122,083
285,414	4,281	239,189	122,084
286,428	4,308	238,998	121,997
287,443	4,363	238,896	121,978
288,457	4,468	238,881	122,042
289,472	4,746	238,640	122,128
290,487	4,426	238,523	121,805
291,501	4,316	238,182	121,533
292,516	4,188	238,067	121,363
293,530	4,067	237,951	121,197
294,545	4,516	237,920	121,524
295,560	4,446	237,740	121,366
296,574	4,249	237,492	121,074
297,589	4,349	237,249	121,018
298,603	4,749	237,478	121,438
299,618	4,508	237,305	121,150
300,633	4,410	237,063	120,939
301,647	4,677	236,975	121,092
302,662	4,869	236,893	121,189
303,676	4,743	236,687	120,975
304,691	4,660	236,490	120,799
305,706	4,930	236,410	120,958
306,720	4,931	236,170	120,825
307,735	4,608	236,195	120,575
308,749	4,564	235,823	120,340
309,764	4,380	235,588	120,066
310,779	4,373	235,308	119,907
311,793	4,265	235,189	119,752
312,808	4,077	234,979	119,489
313,822	4,130	234,954	119,506
314,837	4,077	234,821	119,387
315,852	3,985	234,577	119,181
316,866	4,012	234,585	119,195
317,881	4,474	234,466	119,482
318,895	4,987	234,369	119,818
319,910	5,054	234,288	119,818
320,925	4,608	233,987	119,309
321,939	4,220	233,745	118,876
322,954	4,229	233,730	118,865
323,968	4,329	233,555	118,842
324,983	4,719	233,290	118,997
325,997	4,886	233,409	119,176
327,012	4,955	233,037	119,028
328,027	4,381	233,162	118,640
329,041	4,747	232,994	118,825
330,056	5,177	232,857	119,074
331,070	5,290	232,638	119,039
332,085	4,961	232,497	118,704
333,100	4,634	232,311	118,348
334,114	4,673	232,166	118,293
335,129	4,800	232,139	118,366
336,143	4,958	231,853	118,330
337,158	4,881	231,863	118,266
338,173	4,641	231,607	117,942
339,187	4,593	231,298	117,738
340,202	4,515	231,308	117,673
341,216	4,649	231,144	117,681
342,231	4,571	230,984	117,530
343,246	4,446	230,868	117,365
344,260	4,556	230,577	117,290
345,275	5,005	230,515	117,588
346,289	4,901	230,451	117,467
347,304	4,826	230,340	117,343
348,319	4,926	230,097	117,284
349,333	4,905	229,793	117,103
350,348	4,587	229,728	116,819
351,362	4,439	229,697	116,681
352,377	4,501	229,357	116,544
353,392	4,177	229,313	116,267
354,406	4,237	229,104	116,196
355,421	196,459	1316,443	1394,557
356,435	157,637	1448,875	1394,512
