DTS Sentinel unit serial number:	SN410029Multiplexer serial number:	ORYXHardware model number:	OX2-SRSoftware version number:	ORYX F/W v4,00 Oryx Data Collector v3.7.2.0data status	okinstallation	B5 Nyhavnadifferential loss correction	single-endedforward channel	channel 2reverse channel	N/Adate	2023/12/14time	10:32:13forward acquisition time	300,00reverse acquisition time	0,00gamma	499,1914k internal	0,3161k external	0,3161temperature offset calibration	1,0000default loss term (dB/km)	0,3820temperature slope calibration	1,0000multiplexer offset coefficient	1,0000multiplexer slope coefficient	1,0000fibre end	0,00T internal ref (°C)	6,94T ext. ref 1 (°C)	-8,67T ext. ref 2 (°C)	-8,77length (m)	temperature (°C)	Stokes	anti-Stokes-744,400	-137,754	0,093	0,008
-743,385	-105,339	-0,293	-0,049
-742,371	174,035	0,158	0,169
-741,356	-59,987	-0,214	0,067
-740,342	74,923	0,154	0,119
-739,327	-146,372	-0,407	-0,026
-738,312	800,000	0,086	0,182
-737,298	52,423	-0,303	-0,213
-736,283	25,723	0,214	0,131
-735,269	-90,357	-0,464	-0,098
-734,254	131,085	0,178	0,168
-733,239	22,411	-0,576	-0,346
-732,225	138,704	0,290	0,280
-731,210	105,457	-0,026	0,023
-730,196	800,000	-0,005	-0,012
-729,181	800,000	0,026	0,070
-728,167	307,798	0,018	0,025
-727,152	115,500	-0,126	-0,113
-726,137	-71,508	-0,159	-0,043
-725,123	340,764	0,036	0,052
-724,108	800,000	-0,116	-0,249
-723,094	800,000	0,080	-0,216
-722,079	800,000	-0,093	-0,260
-721,064	138,625	-0,045	0,044
-720,050	-195,699	0,052	0,000
-719,035	-108,663	-0,052	-0,008
-718,021	-39,967	-0,137	-0,052
-717,006	-200,000	-0,038	-0,202
-715,991	116,947	-0,089	0,080
-714,977	-101,817	0,069	0,012
-713,962	-57,158	-0,099	-0,032
-712,948	186,262	0,029	-0,032
-711,933	-53,040	-0,097	0,033
-710,918	-36,483	0,152	0,060
-709,904	-89,398	-0,090	-0,019
-708,889	93,185	-0,009	-0,007
-707,875	-200,000	-0,038	-0,174
-706,860	419,576	-0,029	-0,045
-705,845	657,280	0,077	0,146
-704,831	-200,000	-0,006	0,022
-703,816	33,229	-0,100	0,064
-702,802	198,440	-0,082	-0,092
-701,787	800,000	-0,100	-0,225
-700,772	62,624	0,090	-0,066
-699,758	-200,000	-0,006	-0,027
-698,743	800,000	-0,010	0,029
-697,729	-12,174	0,058	-0,028
-696,714	-129,612	0,156	0,016
-695,699	-43,987	-0,112	-0,041
-694,685	27,728	-0,053	0,033
-693,670	-200,000	0,002	-0,023
-692,656	44,326	0,104	0,070
-691,641	-18,314	-0,068	-0,031
-690,627	-71,775	0,070	0,019
-689,612	34,197	-0,123	0,079
-688,597	-200,000	-0,006	0,038
-687,583	38,436	-0,113	-0,074
-686,568	-7,558	-0,093	-0,046
-685,554	-157,856	-0,191	0,008
-684,539	19,995	-0,124	0,073
-683,524	-71,963	0,075	-0,020
-682,510	490,462	0,031	-0,052
-681,495	800,000	-0,060	-0,173
-680,481	53,910	-0,125	-0,088
-679,466	-200,000	0,009	0,042
-678,451	-61,662	0,079	0,024
-677,437	-47,283	-0,022	-0,008
-676,422	800,000	-0,023	0,055
-675,408	377,221	-0,042	0,063
-674,393	308,217	-0,009	0,012
-673,378	411,187	-0,050	0,078
-672,364	-154,462	-0,132	-0,006
-671,349	-160,538	0,094	0,004
-670,335	370,464	0,055	-0,081
-669,320	-200,000	0,002	0,038
-668,305	181,453	-0,056	0,060
-667,291	566,079	0,042	-0,074
-666,276	-200,000	0,008	-0,140
-665,262	800,000	0,055	-0,156
-664,247	-29,688	-0,087	-0,036
-663,232	800,000	0,013	0,041
-662,218	-200,000	-0,019	0,114
-661,203	-200,000	0,000	0,129
-660,189	142,660	0,085	-0,083
-659,174	154,473	-0,036	-0,037
-658,159	-5,601	-0,069	0,035
-657,145	-88,753	-0,118	0,026
-656,130	246,812	0,065	0,080
-655,116	-136,307	-0,112	0,009
-654,101	800,000	0,037	0,086
-653,086	288,092	-0,055	-0,073
-652,072	-31,276	-0,176	-0,072
-651,057	345,328	-0,039	0,056
-650,043	-200,000	-0,009	-0,068
-649,028	17,413	-0,055	0,032
-648,014	-200,000	0,028	0,098
-646,999	212,820	0,012	-0,014
-645,984	-200,000	-0,018	0,203
-644,970	800,000	0,042	0,096
-643,955	80,956	0,037	-0,029
-642,941	41,402	-0,145	-0,096
-641,926	800,000	0,028	0,079
-640,911	-99,276	-0,073	0,013
-639,897	-106,631	-0,071	-0,012
-638,882	406,500	-0,033	0,052
-637,868	-200,000	0,010	0,038
-636,853	-102,941	-0,154	-0,027
-635,838	-72,289	-0,078	0,021
-634,824	-200,000	0,023	0,134
-633,809	295,231	0,065	-0,088
-632,795	73,746	-0,041	0,031
-631,780	-116,334	0,121	-0,016
-630,765	-200,000	-0,014	-0,055
-629,751	-115,350	-0,149	0,020
-628,736	-24,400	-0,067	0,029
-627,722	-177,426	-0,092	0,002
-626,707	25,053	0,132	-0,080
-625,692	-200,000	0,025	0,164
-624,678	-200,000	0,004	-0,029
-623,663	800,000	0,004	-0,008
-622,649	-2,841	0,044	-0,023
-621,634	-200,000	-0,034	-0,167
-620,619	53,982	0,076	0,053
-619,605	-8,152	-0,160	0,079
-618,590	-200,000	-0,009	0,045
-617,576	100,265	-0,047	0,040
-616,561	-200,000	-0,024	-0,119
-615,546	53,763	-0,059	-0,041
-614,532	175,990	0,074	-0,078
-613,517	29,497	-0,081	0,050
-612,503	317,741	0,052	-0,072
-611,488	141,490	-0,015	-0,014
-610,474	204,829	0,127	0,145
-609,459	-200,000	-0,025	0,084
-608,444	67,068	0,122	-0,091
-607,430	800,000	-0,016	-0,036
-606,415	-200,000	-0,012	-0,194
-605,401	-200,000	0,013	-0,080
-604,386	215,424	-0,061	0,071
-603,371	243,355	-0,052	-0,064
-602,357	244,526	-0,063	0,078
-601,342	48,437	-0,036	0,025
-600,328	800,000	-0,029	0,063
-599,313	82,797	-0,023	0,018
-598,298	800,000	0,046	0,121
-597,284	29,792	-0,015	-0,010
-596,269	225,659	0,037	0,044
-595,255	-200,000	0,017	0,080
-594,240	175,629	-0,070	-0,075
-593,225	104,768	-0,090	-0,077
-592,211	483,062	-0,013	-0,022
-591,196	800,000	0,027	0,066
-590,182	800,000	-0,026	0,071
-589,167	-179,790	-0,077	-0,001
-588,152	677,246	-0,072	-0,137
-587,138	-200,000	0,008	-0,046
-586,123	496,172	-0,062	-0,104
-585,109	76,679	0,055	-0,043
-584,094	-41,285	0,074	0,028
-583,079	800,000	-0,032	-0,085
-582,065	-120,632	0,055	0,007
-581,050	-155,820	0,155	-0,007
-580,036	88,578	-0,077	-0,063
-579,021	-200,000	0,008	-0,104
-578,006	-94,447	-0,195	0,038
-576,992	-192,225	0,048	0,000
-575,977	-29,312	-0,166	-0,069
-574,963	-200,000	-0,021	-0,089
-573,948	-200,000	-0,011	0,107
-572,934	-159,775	-0,172	0,007
-571,919	800,000	-0,050	-0,146
-570,904	295,519	-0,059	0,079
-569,890	-200,000	0,003	-0,032
-568,875	407,813	-0,063	0,098
-567,861	45,134	0,129	0,087
-566,846	77,929	0,142	0,110
-565,831	130,664	-0,114	0,107
-564,817	-165,043	-0,088	0,003
-563,802	123,515	-0,031	-0,029
-562,788	-54,983	0,019	-0,006
-561,773	84,623	0,030	-0,024
-560,758	800,000	0,008	0,025
-559,744	800,000	-0,037	0,081
-558,729	-161,950	0,140	0,005
-557,715	-200,000	-0,007	0,046
-556,700	-28,906	-0,114	-0,048
-555,685	43,932	-0,041	-0,027
-554,671	65,666	0,092	0,068
-553,656	46,882	-0,010	-0,007
-552,642	278,649	-0,045	0,059
-551,627	-200,000	0,022	0,145
-550,612	-81,979	-0,079	-0,019
-549,598	-200,000	-0,036	-0,171
-548,583	183,233	-0,083	0,090
-547,569	-200,000	0,003	-0,061
-546,554	800,000	-0,031	-0,079
-545,539	288,905	0,075	0,099
-544,525	20,389	0,045	0,027
-543,510	-200,000	0,010	-0,129
-542,496	-200,000	-0,001	0,051
-541,481	265,587	-0,035	-0,044
-540,466	141,101	0,072	-0,069
-539,452	108,790	-0,009	-0,008
-538,437	152,998	0,026	-0,026
-537,423	-200,000	-0,019	0,130
-536,408	106,823	0,077	-0,067
-535,393	-157,585	-0,042	-0,002
-534,379	-59,906	-0,066	0,020
-533,364	-118,698	0,172	0,022
-532,350	-200,000	-0,005	0,046
-531,335	-67,039	0,086	-0,025
-530,321	-200,000	0,002	0,195
-529,306	8,789	0,137	0,075
-528,291	-14,630	-0,067	0,031
-527,277	-200,000	0,007	0,041
-526,262	258,358	-0,051	-0,065
-525,248	-111,780	-0,073	-0,011
-524,233	-200,000	0,051	0,167
-523,218	4,084	0,074	0,039
-522,204	800,000	0,024	-0,050
-521,189	704,301	0,028	-0,055
-520,175	-122,830	0,045	0,005
-519,160	142,412	-0,032	0,031
-518,145	267,181	0,076	0,097
-517,131	360,014	0,028	-0,041
-516,116	63,825	0,039	-0,029
-515,102	-162,075	0,187	0,007
-514,087	371,373	-0,007	-0,011
-513,072	-74,634	-0,054	-0,014
-512,058	-142,727	0,169	-0,012
-511,043	788,195	0,063	0,126
-510,029	-47,776	0,110	0,039
-509,014	800,000	0,008	0,024
-507,999	800,000	0,030	-0,074
-506,985	32,937	-0,026	0,016
-505,970	224,014	-0,144	-0,170
-504,956	-200,000	0,010	-0,083
-503,941	3,074	-0,047	0,025
-502,926	-200,000	0,005	0,017
-501,912	785,952	-0,031	0,063
-500,897	-129,992	-0,041	-0,004
-499,883	-200,000	-0,001	-0,081
-498,868	-131,276	-0,047	0,004
-497,853	-54,370	0,138	-0,045
-496,839	-192,746	-0,142	-0,001
-495,824	36,559	0,096	-0,062
-494,810	272,009	0,048	0,062
-493,795	-200,000	0,011	0,046
-492,781	-200,000	-0,011	0,070
-491,766	87,871	-0,050	0,040
-490,751	800,000	-0,031	0,072
-489,737	2,976	0,125	-0,066
-488,722	8,044	0,015	0,008
-487,708	309,568	-0,041	0,056
-486,693	130,099	-0,091	0,085
-485,678	-52,046	0,031	-0,010
-484,664	-200,000	-0,033	-0,162
-483,649	62,578	-0,064	-0,047
-482,635	-136,815	-0,093	-0,008
-481,620	800,000	-0,062	0,135
-480,605	-127,585	0,084	-0,009
-479,591	-200,000	-0,039	0,130
-478,576	-173,211	-0,047	0,001
-477,562	-200,000	-0,010	0,034
-476,547	102,314	-0,039	-0,033
-475,532	-200,000	-0,020	0,079
-474,518	295,639	0,120	-0,160
-473,503	158,222	-0,047	0,048
-472,489	-87,290	-0,065	-0,014
-471,474	-39,806	-0,150	0,057
-470,459	156,497	0,066	0,067
-469,445	0,242	0,128	0,066
-468,430	800,000	-0,039	-0,120
-467,416	90,077	-0,067	-0,054
-466,401	109,499	-0,059	-0,052
-465,386	86,984	0,089	-0,072
-464,372	-133,035	0,162	-0,015
-463,357	-20,562	-0,162	0,072
-462,343	521,226	0,065	-0,112
-461,328	69,115	-0,203	0,152
-460,313	-172,868	0,076	0,002
-459,299	82,191	0,084	0,066
-458,284	800,000	0,011	-0,025
-457,270	372,326	-0,060	0,089
-456,255	-189,224	0,019	-0,000
-455,241	-200,000	0,009	-0,055
-454,226	-200,000	0,016	-0,057
-453,211	152,520	0,068	-0,068
-452,197	-57,957	0,054	-0,017
-451,182	473,095	-0,045	-0,075
-450,168	61,455	-0,072	-0,052
-449,153	800,000	0,019	-0,055
-448,138	336,545	-0,124	-0,175
-447,124	69,011	-0,078	0,058
-446,109	800,000	0,022	0,052
-445,095	-22,221	0,103	-0,045
-444,080	1,092	-0,066	0,035
-443,065	-200,000	0,005	0,022
-442,051	-14,803	0,093	-0,043
-441,036	46,986	-0,103	-0,070
-440,022	318,260	-0,049	0,068
-439,007	-200,000	0,097	-0,000
-437,992	800,000	-0,048	0,126
-436,978	141,556	0,090	0,087
-435,963	-200,000	-0,006	-0,118
-434,949	800,000	-0,061	-0,129
-433,934	-200,000	-0,002	-0,126
-432,919	-10,134	0,120	-0,058
-431,905	168,118	0,092	0,096
-430,890	-170,172	0,090	0,002
-429,876	-200,000	-0,020	0,119
-428,861	-75,461	0,125	-0,032
-427,846	-200,000	-0,042	-0,176
-426,832	-44,921	-0,025	-0,009
-425,817	53,000	-0,118	-0,082
-424,803	800,000	-0,013	-0,034
-423,788	150,942	-0,064	-0,063
-422,773	800,000	-0,030	0,091
-421,759	432,429	0,021	0,033
-420,744	50,258	0,226	-0,155
-419,730	-8,806	0,097	-0,047
-418,715	100,880	0,027	0,023
-417,701	800,000	-0,012	-0,035
-416,686	119,393	0,062	-0,056
-415,671	-200,000	0,003	0,051
-414,657	800,000	0,044	0,101
-413,642	-94,161	-0,059	0,012
-412,628	-200,000	0,007	0,067
-411,613	38,966	-0,102	0,066
-410,598	-200,000	-0,059	-0,193
-409,584	-79,467	0,006	-0,001
-408,569	9,810	0,034	0,018
-407,555	800,000	0,082	0,188
-406,540	-35,172	0,089	0,035
-405,525	385,400	0,041	-0,061
-404,511	-21,666	-0,164	-0,072
-403,496	-200,000	0,003	0,034
-402,482	30,691	0,136	-0,084
-401,467	-91,947	0,074	0,015
-400,452	744,680	-0,018	0,036
-399,438	-47,783	-0,132	-0,046
-398,423	800,000	0,039	0,111
-397,409	-200,000	0,012	-0,052
-396,394	800,000	-0,020	-0,042
-395,379	8,442	-0,111	0,061
-394,365	-200,000	0,057	0,194
-393,350	409,209	0,056	-0,086
-392,336	800,000	0,055	0,116
-391,321	141,634	-0,055	-0,053
-390,306	115,557	-0,205	-0,182
-389,292	-200,000	-0,003	-0,123
-388,277	-42,393	-0,044	0,016
-387,263	800,000	0,065	0,146
-386,248	800,000	-0,025	0,067
-385,233	-148,302	0,076	0,004
-384,219	-96,953	0,135	-0,025
-383,204	-8,717	-0,154	-0,075
-382,190	-108,079	-0,128	0,020
-381,175	389,873	0,026	-0,039
-380,160	-44,438	0,042	-0,015
-379,146	-200,000	0,009	0,182
-378,131	800,000	-0,034	0,078
-377,117	-1,903	-0,015	-0,007
-376,102	-42,234	0,111	-0,041
-375,088	-200,000	-0,029	0,120
-374,073	103,314	0,075	-0,064
-373,058	2,248	0,067	-0,035
-372,044	-200,000	0,049	0,167
-371,029	-18,156	-0,017	-0,008
-370,015	363,078	0,059	-0,086
-369,000	-200,000	-0,021	0,113
-367,985	512,288	-0,087	-0,148
-366,971	-79,169	-0,123	-0,030
-365,956	-200,000	0,009	-0,139
-364,942	-92,718	0,106	0,021
-363,927	3,990	-0,116	0,061
-362,912	21,123	-0,035	-0,020
-361,898	-200,000	0,009	-0,063
-360,883	-200,000	0,011	-0,187
-359,869	-107,896	0,029	0,005
-358,854	800,000	-0,017	0,043
-357,839	-38,470	0,034	0,013
-356,825	347,816	0,042	0,060
-355,810	-200,000	0,035	0,115
-354,796	-121,620	-0,106	0,013
-353,781	-200,000	0,030	0,121
-352,766	-75,663	-0,102	-0,026
-351,752	94,134	-0,030	0,025
-350,737	-200,000	-0,007	0,023
-349,723	-30,916	0,041	-0,017
-348,708	-130,316	0,089	-0,009
-347,693	-200,000	0,017	0,091
-346,679	56,151	-0,106	0,074
-345,664	357,457	-0,071	-0,103
-344,650	-200,000	-0,015	-0,052
-343,635	43,278	0,033	-0,021
-342,620	-33,353	-0,048	-0,019
-341,606	800,000	-0,047	0,129
-340,591	-29,508	0,056	-0,023
-339,577	-59,473	0,048	-0,015
-338,562	-200,000	0,000	-0,054
-337,548	2,865	-0,097	-0,051
-336,533	800,000	-0,104	0,220
-335,518	-137,939	-0,024	0,002
-334,504	-200,000	0,005	-0,033
-333,489	-160,424	-0,051	0,002
-332,475	92,968	-0,105	0,086
-331,460	-71,545	-0,023	0,006
-330,445	-58,524	0,073	-0,023
-329,431	138,702	-0,063	-0,060
-328,416	397,905	0,065	0,099
-327,402	25,701	0,064	0,039
-326,387	212,615	0,057	0,066
-325,372	738,264	0,037	-0,072
-324,358	800,000	-0,064	-0,192
-323,343	-9,581	0,156	0,075
-322,329	341,352	-0,023	-0,033
-321,314	800,000	0,026	-0,081
-320,299	-153,538	0,047	0,002
-319,285	95,655	-0,121	-0,100
-318,270	114,185	-0,073	-0,064
-317,256	229,944	-0,044	-0,052
-316,241	-3,072	-0,079	0,040
-315,226	800,000	-0,035	0,083
-314,212	-19,847	0,040	0,018
-313,197	343,815	0,108	0,154
-312,183	514,135	0,047	-0,080
-311,168	215,606	-0,063	-0,073
-310,153	-112,967	-0,054	-0,008
-309,139	-108,770	-0,025	-0,004
-308,124	-200,000	-0,016	0,103
-307,110	-200,000	0,035	-0,115
-306,095	136,306	0,080	0,075
-305,080	175,619	0,017	-0,018
-304,066	-131,309	-0,062	0,006
-303,051	-200,000	-0,004	-0,131
-302,037	-33,116	0,047	-0,019
-301,022	35,911	0,076	-0,049
-300,008	-200,000	0,032	0,169
-298,993	-74,846	0,072	-0,019
-297,978	-200,000	-0,017	0,102
-296,964	-43,996	0,111	0,040
-295,949	-200,000	-0,008	0,048
-294,935	-123,634	-0,047	-0,005
-293,920	554,037	-0,066	-0,115
-292,905	-87,385	0,067	-0,014
-291,891	281,632	0,082	0,107
-290,876	-25,721	-0,142	-0,060
-289,862	516,541	-0,032	0,054
-288,847	-200,000	0,007	-0,134
-287,832	-122,730	0,162	-0,019
-286,818	-200,000	-0,015	-0,089
-285,803	218,560	0,021	0,024
-284,789	-200,000	-0,011	-0,054
-283,774	-200,000	0,006	0,136
-282,759	149,201	0,095	-0,093
-281,745	26,246	-0,083	-0,050
-280,730	-43,149	-0,143	0,052
-279,716	-200,000	0,010	-0,182
-278,701	800,000	-0,083	0,197
-277,686	444,594	0,020	-0,031
-276,672	693,362	-0,037	-0,071
-275,657	250,657	-0,042	0,051
-274,643	-155,889	0,095	-0,004
-273,628	443,595	-0,039	-0,062
-272,613	-23,992	0,045	-0,019
-271,599	101,349	0,049	-0,041
-270,584	-7,586	-0,084	0,041
-269,570	-200,000	-0,015	-0,047
-268,555	-24,521	-0,057	0,025
-267,540	76,458	0,113	-0,087
-266,526	-200,000	0,025	0,224
-265,511	-109,853	-0,055	0,008
-264,497	-20,905	0,040	-0,018
-263,482	-77,376	0,049	0,012
-262,467	-143,607	0,010	0,001
-261,453	-55,256	0,034	0,011
-260,438	3,766	-0,131	-0,069
-259,424	133,925	0,057	-0,054
-258,409	-51,896	-0,045	0,015
-257,395	105,062	0,094	0,080
-256,380	-40,778	-0,019	0,007
-255,365	200,552	0,052	0,058
-254,351	419,292	0,068	-0,106
-253,336	56,472	-0,160	0,112
-252,322	210,567	-0,027	-0,031
-251,307	-46,213	-0,062	-0,022
-250,292	170,852	0,033	-0,034
-249,278	21,640	0,096	0,056
-248,263	90,841	-0,089	0,072
-247,249	53,497	-0,103	0,072
-246,234	312,798	-0,040	-0,054
-245,219	-200,000	-0,025	-0,089
-244,205	606,165	-0,015	-0,026
-243,190	8,445	0,064	-0,035
-242,176	182,151	-0,111	-0,118
-241,161	367,504	0,034	-0,049
-240,146	-106,208	-0,096	0,015
-239,132	-110,096	0,133	-0,020
-238,117	-200,000	0,018	-0,108
-237,103	245,126	0,041	-0,050
-236,088	-200,000	0,022	-0,075
-235,073	-85,802	0,155	-0,035
-234,059	22,176	0,131	0,077
-233,044	800,000	-0,070	0,191
-232,030	800,000	-0,062	0,128
-231,015	-120,572	-0,078	-0,009
-230,000	-200,000	0,002	0,018
-228,986	415,338	0,040	-0,061
-227,971	-200,000	-0,015	0,059
-226,957	164,482	-0,064	-0,065
-225,942	-89,141	0,161	0,034
-224,927	-95,075	-0,025	-0,005
-223,913	-200,000	-0,020	-0,157
-222,898	-200,000	-0,045	-0,144
-221,884	218,479	0,029	-0,034
-220,869	800,000	0,046	0,116
-219,855	-200,000	0,008	0,108
-218,840	206,982	-0,015	-0,017
-217,825	-200,000	0,016	0,059
-216,811	-24,874	0,066	0,028
-215,796	-125,678	-0,027	-0,003
-214,782	-153,359	0,187	-0,009
-213,767	-70,061	-0,032	-0,009
-212,752	-200,000	-0,020	0,162
-211,738	-200,000	0,020	0,094
-210,723	-200,000	0,004	-0,088
-209,709	800,000	0,023	0,071
-208,694	800,000	0,032	-0,065
-207,679	-200,000	-0,008	-0,070
-206,665	178,821	-0,047	0,049
-205,650	-52,184	0,044	0,015
-204,636	-34,936	0,140	0,055
-203,621	-200,000	0,009	0,075
-202,606	-134,648	0,087	-0,008
-201,592	-126,999	-0,125	0,013
-200,577	-200,000	0,018	-0,079
-199,563	5,463	-0,101	0,053
-198,548	387,970	0,016	-0,023
-197,533	153,260	0,059	0,059
-196,519	-102,204	0,049	-0,008
-195,504	88,573	0,031	0,025
-194,490	800,000	0,034	0,079
-193,475	352,809	-0,064	-0,092
-192,460	315,012	-0,050	-0,069
-191,446	-200,000	-0,022	0,159
-190,431	742,263	-0,030	0,058
-189,417	609,040	-0,065	-0,117
-188,402	-200,000	-0,005	0,047
-187,387	-126,303	-0,159	-0,017
-186,373	429,893	-0,071	-0,111
-185,358	-200,000	-0,033	-0,127
-184,344	8,707	0,054	0,029
-183,329	566,964	0,047	-0,083
-182,315	109,413	0,058	-0,050
-181,300	15,725	0,022	0,012
-180,285	95,061	0,034	0,027
-179,271	800,000	-0,024	-0,057
-178,256	285,207	0,034	0,045
-177,242	800,000	-0,036	0,105
-176,227	-200,000	-0,013	-0,048
-175,212	118,531	0,028	-0,025
-174,198	139,698	0,066	0,062
-173,183	-200,000	0,013	-0,053
-172,169	-127,872	-0,139	0,014
-171,154	89,292	0,150	-0,120
-170,139	71,691	-0,010	0,007
-169,125	3,635	0,105	-0,055
-168,110	800,000	-0,041	-0,115
-167,096	191,483	0,075	-0,082
-166,081	-122,882	0,031	-0,004
-165,066	-200,000	0,034	-0,220
-164,052	-63,236	0,180	-0,053
-163,037	21,490	0,129	-0,075
-162,023	-170,342	0,129	-0,003
-161,008	-57,810	0,083	-0,026
-159,993	75,989	-0,080	0,061
-158,979	-73,069	-0,044	0,012
-157,964	410,859	0,012	-0,018
-156,950	-200,000	0,019	0,098
-155,935	-79,406	-0,108	-0,026
-154,920	-144,457	0,168	0,011
-153,906	800,000	-0,058	0,163
-152,891	166,682	-0,106	0,109
-151,877	-158,459	0,049	-0,002
-150,862	774,530	0,016	0,032
-149,847	-114,886	0,038	-0,005
-148,833	62,311	0,053	-0,038
-147,818	800,000	0,041	-0,092
-146,804	-116,273	0,075	0,010
-145,789	274,371	0,027	-0,034
-144,775	151,056	0,031	0,031
-143,760	-200,000	-0,012	0,051
-142,745	15,847	0,155	-0,087
-141,731	-109,456	0,077	-0,012
-140,716	126,255	0,049	0,045
-139,702	-200,000	0,012	0,146
-138,687	-103,348	0,045	0,008
-137,672	-31,736	-0,057	0,023
-136,658	-84,312	-0,123	-0,028
-135,643	-39,106	-0,065	0,025
-134,629	589,830	0,006	-0,011
-133,614	-130,596	0,172	-0,016
-132,599	-75,805	-0,026	-0,007
-131,585	-200,000	0,014	0,050
-130,570	73,744	-0,076	0,057
-129,556	-200,000	0,001	-0,027
-128,541	333,495	-0,070	-0,097
-127,526	36,145	-0,040	0,025
-126,512	-200,000	-0,003	-0,086
-125,497	169,728	-0,080	0,082
-124,483	280,528	-0,037	0,047
-123,468	27,193	0,139	0,084
-122,453	800,000	0,069	-0,188
-121,439	-69,782	-0,031	0,009
-120,424	304,604	-0,060	-0,081
-119,410	-200,000	-0,022	-0,070
-118,395	355,380	0,044	-0,062
-117,380	23,103	-0,049	-0,029
-116,366	-92,432	-0,112	-0,022
-115,351	800,000	0,062	0,134
-114,337	-87,249	-0,054	-0,012
-113,322	-200,000	-0,057	-0,209
-112,307	581,952	-0,030	-0,054
-111,293	188,645	0,061	-0,066
-110,278	494,189	-0,072	-0,119
-109,264	-200,000	-0,014	0,059
-108,249	271,185	-0,026	-0,033
-107,234	272,316	-0,062	-0,078
-106,220	30,973	-0,137	0,084
-105,205	-26,323	0,125	-0,052
-104,191	-67,244	0,073	-0,020
-103,176	-87,457	0,168	0,036
-102,162	27,830	-0,151	-0,091
-101,147	-84,448	-0,114	0,026
-100,132	-13,891	-0,039	-0,018
-99,118	800,000	-0,008	0,022
-98,103	-148,433	0,047	0,003
-97,089	-200,000	0,000	-0,084
-96,074	43,574	0,075	0,049
-95,059	39,177	0,048	0,031
-94,045	97,091	-0,048	-0,040
-93,030	-200,000	-0,009	0,076
-92,016	77,589	-0,048	0,036
-91,001	282,375	-0,108	0,139
-89,986	110,604	0,080	0,069
-88,972	276,407	-0,103	0,132
-87,957	-200,000	-0,005	0,053
-86,943	-3,027	0,030	-0,015
-85,928	-77,008	-0,043	-0,011
-84,913	-200,000	0,005	-0,035
-83,899	86,027	-0,047	0,037
-82,884	312,353	-0,055	0,075
-81,870	104,680	-0,017	0,014
-80,855	-200,000	0,016	0,154
-79,840	-36,853	-0,111	0,043
-78,826	-200,000	-0,007	0,047
-77,811	-17,916	0,028	-0,013
-76,797	-128,129	-0,059	-0,006
-75,782	726,780	-0,070	0,135
-74,767	157,376	0,149	0,149
-73,753	-200,000	-0,008	0,049
-72,738	800,000	-0,012	-0,033
-71,724	-91,577	-0,122	-0,025
-70,709	-100,713	-0,090	0,016
-69,694	105,145	-0,048	0,041
-68,680	83,046	0,068	0,053
-67,665	657,698	0,057	-0,106
-66,651	-32,452	0,102	-0,041
-65,636	-2,372	-0,145	0,072
-64,622	54,886	-0,044	0,031
-63,607	84,708	-0,054	0,042
-62,592	800,000	0,039	0,083
-61,578	35,099	0,054	-0,034
-60,563	420,592	0,070	0,107
-59,549	800,000	0,022	0,050
-58,534	97,777	-2,766	-2,280
-57,519	-5,067	0,362	-0,178
-56,505	-200,000	-1,699	-5,635
-55,490	440,420	1,328	2,089
-54,476	800,000	5,151	11,195
-53,461	-200,000	23,001	347,246
-52,446	800,000	765,535	2262,238
-51,432	497,387	1642,718	2720,016
-50,417	92,997	1598,728	1294,258
-49,403	60,533	1253,910	888,978
-48,388	21,013	1006,063	583,372
-47,373	18,308	973,881	555,865
-46,359	11,706	960,612	526,932
-45,344	7,587	957,754	512,009
-44,330	7,960	955,195	511,827
-43,315	7,028	953,470	507,872
-42,300	7,042	952,269	507,258
-41,286	6,972	951,306	506,500
-40,271	6,958	950,358	505,928
-39,257	6,983	949,519	505,542
-38,242	6,921	948,684	504,879
-37,227	6,952	947,905	504,544
-36,213	6,955	946,919	504,007
-35,198	6,913	946,371	503,564
-34,184	7,068	945,497	503,575
-33,169	6,976	944,405	502,678
-32,154	7,076	943,431	502,459
-31,140	7,016	942,791	501,906
-30,125	6,997	942,161	501,490
-29,111	7,060	941,274	501,200
-28,096	7,009	940,646	500,684
-27,082	6,931	940,213	500,185
-26,067	6,991	939,197	499,815
-25,052	6,948	938,510	499,293
-24,038	6,937	937,829	498,876
-23,023	6,935	937,170	498,498
-22,009	6,999	936,424	498,286
-20,994	6,924	936,210	497,913
-19,979	6,939	935,332	497,474
-18,965	7,020	934,518	497,276
-17,950	6,960	934,034	496,810
-16,936	6,885	933,713	496,382
-15,921	6,949	932,795	496,078
-14,906	6,899	932,107	495,536
-13,892	6,886	931,490	495,146
-12,877	6,882	931,030	494,869
-11,863	6,856	930,182	494,316
-10,848	6,872	929,562	494,019
-9,833	6,929	929,238	494,004
-8,819	6,895	928,673	493,577
-7,804	6,867	927,964	493,093
-6,790	6,837	927,490	492,730
-5,775	6,955	926,685	492,651
-4,760	6,833	926,282	492,037
-3,746	6,891	925,534	491,801
-2,731	6,732	925,047	491,024
-1,717	6,694	924,433	490,561
-0,702	6,708	923,696	490,195
0,313	6,557	922,971	490,078
1,327	9,998	920,533	499,456
2,342	18,744	769,876	440,333
3,356	13,858	443,536	246,380
4,371	-11,534	310,984	145,902
5,386	-15,044	293,707	134,254
6,400	-17,052	287,606	129,476
7,415	-18,117	284,837	127,178
8,429	-18,851	282,915	125,597
9,444	-18,766	281,888	125,213
10,459	-19,000	281,498	124,803
11,473	-18,988	280,813	124,499
12,488	-18,860	280,320	124,392
13,502	-18,972	279,674	123,988
14,517	-18,838	279,398	123,982
15,531	-18,857	278,629	123,611
16,546	-18,808	278,457	123,571
17,561	-18,886	277,913	123,244
18,575	-18,924	277,701	123,103
19,590	-18,698	277,253	123,109
20,604	-18,864	277,012	122,833
21,619	-19,046	276,737	122,527
22,634	-18,886	276,146	122,406
23,648	-18,920	276,140	122,360
24,663	-18,842	275,877	122,307
25,677	-18,867	275,552	122,128
26,692	-18,753	275,251	122,091
27,707	-18,884	274,927	121,813
28,721	-18,853	274,664	121,715
29,736	-18,905	274,409	121,542
30,750	-18,949	274,101	121,354
31,765	-18,887	273,930	121,326
32,780	-18,845	273,666	121,237
33,794	-18,827	273,311	121,085
34,809	-18,699	273,078	121,092
35,823	-18,891	272,884	120,815
36,838	-18,824	272,555	120,721
37,853	-18,775	272,414	120,694
38,867	-19,039	272,161	120,325
39,882	-18,959	271,963	120,301
40,896	-19,097	271,730	120,060
41,911	-18,910	271,360	120,058
42,926	-18,803	271,109	120,036
43,940	-18,858	270,888	119,877
44,955	-18,755	270,656	119,859
45,969	-18,893	270,392	119,603
46,984	-18,761	270,197	119,629
47,999	-18,765	270,074	119,560
49,013	-18,710	269,753	119,458
50,028	-18,773	269,538	119,293
51,042	-18,703	269,300	119,242
52,057	-18,727	269,067	119,106
53,071	-18,713	268,897	119,033
54,086	-18,855	268,711	118,810
55,101	-18,675	268,469	118,857
56,115	-18,680	268,000	118,635
57,130	-18,745	268,004	118,566
58,144	-18,911	267,663	118,254
59,159	-18,865	267,441	118,186
60,174	-18,707	267,254	118,238
61,188	-19,026	267,142	117,886
62,203	-18,725	266,779	117,990
63,217	-18,957	266,591	117,685
64,232	-18,838	266,318	117,663
65,247	-18,695	266,078	117,675
66,261	-18,843	265,958	117,477
67,276	-18,734	265,558	117,389
68,290	-18,666	265,310	117,331
69,305	-18,638	265,056	117,233
70,320	-18,636	265,047	117,221
71,334	-18,697	264,663	116,985
72,349	-18,693	264,492	116,903
73,363	-18,694	264,113	116,724
74,378	-18,688	263,939	116,642
75,393	-18,738	263,738	116,498
76,407	-18,640	263,567	116,500
77,422	-18,868	263,311	116,172
78,436	-18,787	263,172	116,173
79,451	-18,605	262,791	116,157
80,466	-18,855	262,557	115,820
81,480	-18,761	262,447	115,845
82,495	-18,909	262,430	115,695
83,509	-18,811	262,037	115,599
84,524	-18,710	261,722	115,539
85,539	-18,689	261,618	115,502
86,553	-18,548	261,284	115,470
87,568	-18,701	261,018	115,206
88,582	-18,915	260,982	114,989
89,597	-18,722	260,733	115,041
90,611	-18,561	260,427	115,038
91,626	-18,701	260,228	114,816
92,641	-18,881	260,055	114,571
93,655	-18,691	259,845	114,636
94,670	-18,788	259,674	114,464
95,684	-18,644	259,497	114,503
96,699	-18,876	259,490	114,285
97,714	-18,564	259,025	114,345
98,728	-18,908	259,027	114,032
99,743	-18,666	258,729	114,104
100,757	-19,028	258,634	113,734
101,772	-18,652	258,347	113,927
102,787	-18,660	258,036	113,773
103,801	-18,605	257,880	113,743
104,816	-18,768	257,744	113,530
105,830	-18,693	257,552	113,501
106,845	-18,672	257,195	113,351
107,860	-18,507	257,088	113,438
108,874	-18,603	256,863	113,245
109,889	-18,712	256,790	113,108
110,903	-18,595	256,490	113,067
111,918	-18,604	256,297	112,965
112,933	-18,581	256,054	112,867
113,947	-18,663	255,950	112,740
114,962	-18,754	255,650	112,519
115,976	-18,592	255,430	112,553
116,991	-18,491	255,071	112,472
118,006	-18,768	255,164	112,263
119,020	-18,806	255,074	112,181
120,035	-18,665	254,818	112,180
121,049	-18,558	254,611	112,171
122,064	-18,506	254,372	112,100
123,079	-18,656	254,097	111,840
124,093	-18,576	253,800	111,769
125,108	-18,891	253,774	111,476
126,122	-18,409	253,530	111,773
127,137	-18,774	253,368	111,378
128,151	-18,577	253,207	111,466
129,166	-18,732	253,095	111,275
130,181	-18,599	252,855	111,273
131,195	-18,385	252,500	111,290
132,210	-18,587	252,451	111,085
133,224	-18,659	252,232	110,917
134,239	-18,572	252,009	110,884
135,254	-18,637	251,767	110,712
136,268	-18,718	251,694	110,601
137,283	-18,570	251,430	110,601
138,297	-18,461	251,280	110,618
139,312	-18,487	250,988	110,458
140,327	-18,618	250,676	110,199
141,341	-18,697	250,578	110,079
142,356	-18,469	250,424	110,196
143,370	-18,675	250,160	109,895
144,385	-18,608	250,080	109,907
145,400	-18,571	249,811	109,810
146,414	-18,488	249,419	109,698
147,429	-18,708	249,494	109,535
148,443	-18,543	249,166	109,521
149,458	-18,617	249,096	109,418
150,473	-18,441	248,954	109,494
151,487	-18,583	248,804	109,299
152,502	-18,616	248,393	109,081
153,516	-18,449	248,284	109,163
154,531	-18,558	247,956	108,918
155,546	-18,489	247,976	108,975
156,560	-18,593	247,814	108,806
157,575	-18,506	247,659	108,802
158,589	-18,709	247,471	108,540
159,604	-18,628	247,108	108,439
160,619	-18,670	247,001	108,347
161,633	-18,670	246,845	108,269
162,648	-18,576	246,797	108,316
163,662	-18,840	246,662	108,028
164,677	-18,442	246,212	108,152
165,692	-18,411	246,220	108,171
166,706	-18,709	246,097	107,860
167,721	-18,640	245,807	107,781
168,735	-18,523	245,688	107,816
169,750	-18,664	245,604	107,653
170,764	-18,227	245,361	107,899
171,779	-18,591	245,264	107,544
172,794	-18,330	245,160	107,706
173,808	-18,446	244,879	107,477
174,823	-18,485	244,713	107,362
175,837	-18,255	244,388	107,399
176,852	-18,402	244,536	107,334
177,867	-18,399	244,147	107,156
178,881	-18,465	243,942	107,002
179,896	-18,489	243,823	106,920
180,910	-18,606	243,666	106,746
181,925	-18,456	243,530	106,800
182,940	-18,547	243,417	106,667
183,954	-18,545	243,078	106,510
184,969	-18,443	242,987	106,544
185,983	-18,716	242,851	106,251
186,998	-18,429	242,565	106,351
188,013	-18,416	242,428	106,293
189,027	-18,588	242,128	106,011
190,042	-18,422	241,998	106,080
191,056	-18,289	242,007	106,183
192,071	-18,431	241,858	105,993
193,086	-18,287	241,571	105,974
194,100	-18,381	241,252	105,749
195,115	-18,465	241,210	105,653
196,129	-18,510	240,964	105,499
197,144	-18,597	240,841	105,365
198,159	-18,336	240,628	105,474
199,173	-18,345	240,524	105,412
200,188	-18,407	240,370	105,285
201,202	-18,489	240,320	105,187
202,217	-18,185	239,930	105,253
203,232	-18,385	239,836	105,041
204,246	-18,158	239,618	105,119
205,261	-18,194	239,578	105,063
206,275	-16,497	240,083	106,647
207,290	-11,588	241,818	111,401
208,304	-5,544	243,704	117,204
209,319	-2,582	244,361	119,934
210,334	-1,617	244,561	120,811
211,348	-0,883	244,617	121,429
212,363	-0,115	244,733	122,103
213,377	0,201	244,857	122,413
214,392	0,657	244,764	122,729
215,407	0,634	244,654	122,643
216,421	0,821	244,481	122,699
217,436	0,890	244,463	122,734
218,450	0,920	244,294	122,663
219,465	1,048	244,053	122,636
220,480	0,958	243,939	122,494
221,494	0,923	243,760	122,365
222,509	0,455	243,420	121,803
223,523	0,430	243,177	121,651
224,538	0,378	243,037	121,527
225,553	0,356	243,001	121,481
226,567	0,347	242,724	121,324
227,582	0,350	242,546	121,226
228,596	0,197	242,554	121,096
229,611	0,512	242,269	121,198
230,626	0,431	242,072	121,023
231,640	0,421	241,935	120,935
232,655	0,321	241,742	120,747
233,669	0,331	241,731	120,740
234,684	0,234	241,504	120,537
235,699	0,417	241,420	120,632
236,713	0,409	241,213	120,511
237,728	0,216	241,075	120,277
238,742	0,259	240,819	120,172
239,757	0,261	240,611	120,060
240,772	0,496	240,410	120,137
241,786	0,190	240,317	119,834
242,801	0,234	240,128	119,765
243,815	0,381	239,942	119,779
244,830	0,200	239,879	119,592
245,844	0,210	239,829	119,564
246,859	0,261	239,567	119,464
247,874	0,309	239,477	119,447
248,888	0,348	239,215	119,336
249,903	0,203	239,118	119,162
250,917	0,233	238,982	119,108
251,932	0,650	238,871	119,373
252,947	0,381	238,575	119,001
253,961	0,390	238,435	118,927
254,976	0,433	238,352	118,909
255,990	0,296	238,159	118,694
257,005	0,420	237,991	118,698
258,020	0,330	237,897	118,570
259,034	0,269	237,712	118,419
260,049	0,423	237,509	118,428
261,063	0,387	237,363	118,317
262,078	0,485	237,116	118,260
263,093	0,387	237,138	118,183
264,107	0,370	236,874	118,028
265,122	0,553	236,822	118,135
266,136	0,508	236,700	118,029
267,151	0,358	236,440	117,771
268,166	0,241	236,325	117,611
269,180	0,390	236,104	117,607
270,195	0,500	235,951	117,607
271,209	0,291	236,057	117,485
272,224	0,131	235,803	117,223
273,239	0,338	235,491	117,220
274,253	0,287	235,405	117,126
275,268	0,457	235,253	117,173
276,282	0,304	235,037	116,935
277,297	0,241	234,953	116,834
278,312	0,295	234,813	116,796
279,326	0,258	234,683	116,692
280,341	0,368	234,496	116,674
281,355	0,162	234,423	116,468
282,370	0,349	234,231	116,507
283,384	0,502	233,904	116,453
284,399	0,563	233,817	116,447
285,414	0,720	233,590	116,445
286,428	0,347	233,556	116,128
287,443	0,559	233,503	116,256
288,457	0,429	233,212	116,000
289,472	0,431	233,316	116,043
290,487	0,394	233,111	115,902
291,501	0,420	232,890	115,802
292,516	0,431	232,753	115,732
293,530	0,422	232,621	115,650
294,545	0,423	232,575	115,617
295,560	0,590	232,381	115,639
296,574	0,513	232,190	115,474
297,589	0,593	231,905	115,383
298,603	0,291	231,995	115,186
299,618	0,606	231,691	115,266
300,633	0,569	231,522	115,144
301,647	0,638	231,553	115,202
302,662	0,708	231,267	115,103
303,676	0,616	231,121	114,949
304,691	0,726	231,055	114,991
305,706	0,466	230,751	114,630
306,720	0,614	230,674	114,695
307,735	0,702	230,517	114,674
308,749	0,915	230,298	114,717
309,764	0,647	230,382	114,545
310,779	0,717	230,285	114,539
311,793	0,520	230,024	114,249
312,808	0,633	229,813	114,220
313,822	0,664	229,576	114,116
314,837	0,831	229,464	114,177
315,852	0,587	229,402	113,950
316,866	0,643	229,296	113,930
317,881	0,732	229,107	113,894
318,895	0,784	228,951	113,845
319,910	0,837	228,784	113,792
320,925	0,819	228,580	113,667
321,939	0,535	228,538	113,421
322,954	0,701	228,385	113,461
323,968	0,779	228,143	113,389
324,983	0,945	228,049	113,457
325,997	0,676	227,925	113,182
327,012	0,655	227,790	113,090
328,027	0,667	227,615	113,002
329,041	0,754	227,494	112,997
330,056	0,841	227,278	112,945
331,070	0,810	227,199	112,873
332,085	0,840	227,063	112,818
333,100	0,942	226,806	112,756
334,114	0,567	226,653	112,389
335,129	0,657	226,583	112,412
336,143	0,686	226,442	112,354
337,158	0,814	226,255	112,347
338,173	1,054	226,170	112,474
339,187	1,092	226,022	112,418
340,202	0,697	225,993	112,099
341,216	0,828	225,865	112,123
342,231	0,616	225,605	111,826
343,246	0,840	225,474	111,918
344,260	0,836	225,375	111,856
345,275	1,138	225,037	111,902
346,289	0,683	225,145	111,608
347,304	0,925	224,859	111,636
348,319	0,872	224,674	111,495
349,333	0,860	224,650	111,464
350,348	0,717	224,499	111,273
351,362	0,995	224,309	111,375
352,377	0,877	224,223	111,235
353,392	0,798	224,192	111,152
354,406	0,915	223,990	111,128
355,421	192,756	1311,286	1377,113
356,435	154,381	1443,596	1376,931
