DTS Sentinel unit serial number:	SN410029Multiplexer serial number:	ORYXHardware model number:	OX2-SRSoftware version number:	ORYX F/W v4,00 Oryx Data Collector v3.7.2.0data status	okinstallation	B5 Nyhavnadifferential loss correction	single-endedforward channel	channel 2reverse channel	N/Adate	2023/12/12time	11:42:13forward acquisition time	300,00reverse acquisition time	0,00gamma	499,1914k internal	0,3158k external	0,3158temperature offset calibration	1,0000default loss term (dB/km)	0,3820temperature slope calibration	1,0000multiplexer offset coefficient	1,0000multiplexer slope coefficient	1,0000fibre end	0,00T internal ref (°C)	15,12T ext. ref 1 (°C)	-0,97T ext. ref 2 (°C)	-1,25length (m)	temperature (°C)	Stokes	anti-Stokes-744,400	14,685	0,081	-0,047
-743,385	-136,685	-0,304	0,025
-742,371	-200,000	0,046	0,210
-741,356	-39,223	-0,167	-0,064
-740,342	132,138	0,110	0,104
-739,327	-137,327	-0,315	-0,026
-738,312	-165,913	0,060	-0,002
-737,298	-138,935	-0,245	-0,019
-736,283	-92,604	0,131	0,027
-735,269	-62,767	-0,289	0,088
-734,254	-164,743	0,067	-0,002
-733,239	-87,249	-0,361	-0,080
-732,225	5,662	0,181	0,098
-731,210	-200,000	0,006	0,072
-730,196	41,877	0,077	-0,051
-729,181	-200,000	0,007	0,093
-728,167	800,000	0,053	-0,169
-727,152	-65,195	-0,106	-0,031
-726,137	92,063	-0,062	-0,052
-725,123	110,759	-0,117	-0,103
-724,108	-2,279	-0,160	-0,082
-723,094	-43,540	-0,056	0,021
-722,079	-53,477	-0,072	-0,024
-721,064	72,505	-0,158	-0,121
-720,050	-110,136	0,206	0,031
-719,035	139,966	0,095	-0,092
-718,021	-119,891	-0,182	0,023
-717,006	-200,000	-0,012	-0,056
-715,991	679,233	-0,090	-0,174
-714,977	800,000	0,041	-0,108
-713,962	-28,803	0,097	-0,041
-712,948	-116,843	-0,094	0,013
-711,933	154,990	0,140	0,141
-710,918	110,277	-0,084	-0,074
-709,904	800,000	-0,087	-0,242
-708,889	148,560	0,071	-0,071
-707,875	40,023	-0,063	-0,041
-706,860	800,000	-0,056	-0,171
-705,845	-123,465	-0,108	-0,013
-704,831	30,580	0,014	0,009
-703,816	43,792	-0,058	-0,039
-702,802	177,227	0,050	-0,054
-701,787	-200,000	0,005	-0,115
-700,772	800,000	-0,029	-0,088
-699,758	-165,152	-0,128	0,004
-698,743	800,000	0,023	-0,070
-697,729	0,739	0,137	0,072
-696,714	421,333	-0,045	0,072
-695,699	800,000	0,015	-0,036
-694,685	655,065	-0,021	-0,040
-693,670	146,097	0,033	-0,032
-692,656	134,415	0,038	0,036
-691,641	800,000	0,015	0,047
-690,627	-200,000	0,032	0,113
-689,612	73,639	-0,052	0,040
-688,597	-75,530	-0,104	-0,027
-687,583	-6,588	-0,103	-0,052
-686,568	34,177	-0,129	-0,083
-685,554	-150,029	0,092	-0,005
-684,539	285,763	-0,078	-0,104
-683,524	-200,000	-0,008	-0,028
-682,510	-200,000	0,049	0,198
-681,495	-50,090	0,009	0,003
-680,481	-200,000	-0,042	0,000
-679,466	290,482	0,061	-0,082
-678,451	149,835	-0,123	-0,123
-677,437	306,515	0,090	-0,123
-676,422	56,781	-0,039	0,028
-675,408	800,000	0,010	0,022
-674,393	-53,610	-0,125	0,042
-673,378	138,267	-0,106	-0,102
-672,364	-200,000	0,003	-0,123
-671,349	-25,793	-0,019	-0,008
-670,335	-200,000	-0,002	0,041
-669,320	28,461	0,082	0,051
-668,305	-200,000	0,049	0,196
-667,291	800,000	-0,013	0,037
-666,276	800,000	0,013	-0,037
-665,262	38,374	-0,108	-0,070
-664,247	-200,000	0,033	-0,137
-663,232	800,000	-0,037	-0,089
-662,218	-200,000	0,013	-0,063
-661,203	-200,000	-0,016	0,114
-660,189	579,536	-0,032	-0,058
-659,174	-123,254	0,075	-0,009
-658,159	264,476	-0,104	-0,133
-657,145	-22,220	-0,140	0,062
-656,130	-143,946	-0,223	-0,015
-655,116	-103,400	0,118	0,020
-654,101	-200,000	0,032	0,160
-653,086	302,196	-0,055	0,074
-652,072	-140,940	0,159	0,012
-651,057	-200,000	-0,012	-0,122
-650,043	-200,000	0,021	-0,115
-649,028	-200,000	-0,003	0,082
-648,014	-200,000	-0,009	-0,098
-646,999	-106,161	0,068	0,011
-645,984	-200,000	-0,009	0,106
-644,970	-200,000	-0,037	0,187
-643,955	-87,280	-0,115	0,025
-642,941	800,000	-0,023	-0,073
-641,926	-179,736	-0,092	0,001
-640,911	150,858	-0,019	0,019
-639,897	-200,000	0,013	-0,150
-638,882	-200,000	-0,000	-0,011
-637,868	413,318	-0,010	0,016
-636,853	275,904	0,049	0,064
-635,838	-94,471	-0,083	-0,017
-634,824	-97,101	0,157	0,030
-633,809	-6,717	0,103	-0,051
-632,795	-33,699	0,169	-0,068
-631,780	216,539	0,069	0,081
-630,765	800,000	-0,040	-0,113
-629,751	-129,460	-0,012	0,001
-628,736	800,000	0,032	-0,094
-627,722	31,138	-0,084	-0,053
-626,707	-100,991	-0,049	0,009
-625,692	-200,000	0,025	0,106
-624,678	17,870	0,116	0,067
-623,663	-200,000	0,003	0,063
-622,649	-78,736	0,105	0,026
-621,634	-22,727	-0,168	0,074
-620,619	66,927	0,060	-0,045
-619,605	301,076	0,083	0,113
-618,590	-200,000	-0,023	0,131
-617,576	295,323	-0,017	0,023
-616,561	-200,000	-0,001	-0,072
-615,546	-200,000	0,006	-0,071
-614,532	800,000	-0,058	-0,157
-613,517	800,000	-0,018	-0,051
-612,503	-200,000	-0,036	0,145
-611,488	-15,500	-0,073	0,034
-610,474	26,011	0,017	-0,010
-609,459	615,894	-0,007	0,014
-608,444	800,000	-0,043	-0,114
-607,430	56,465	0,072	-0,051
-606,415	-197,692	-0,130	-0,001
-605,401	-37,154	-0,050	-0,020
-604,386	-200,000	0,000	0,139
-603,371	-165,381	0,164	-0,005
-602,357	-200,000	-0,024	-0,093
-601,342	497,179	-0,032	-0,054
-600,328	-83,233	0,051	-0,012
-599,313	-200,000	0,014	-0,056
-598,298	63,293	0,096	-0,071
-597,284	-69,439	-0,114	-0,032
-596,269	-200,000	0,031	0,150
-595,255	-68,708	0,071	-0,020
-594,240	-200,000	0,007	0,030
-593,225	196,326	0,032	0,036
-592,211	-200,000	-0,006	-0,039
-591,196	-200,000	-0,042	0,157
-590,182	800,000	0,039	0,081
-589,167	-200,000	0,019	-0,116
-588,152	800,000	0,058	0,148
-587,138	-41,333	-0,061	-0,023
-586,123	-200,000	-0,034	-0,152
-585,109	141,055	-0,042	-0,041
-584,094	208,771	-0,047	0,053
-583,079	103,305	0,103	-0,089
-582,065	-13,626	0,125	-0,059
-581,050	638,425	0,056	0,105
-580,036	-72,493	0,069	0,019
-579,021	38,224	-0,089	-0,058
-578,006	744,233	0,089	-0,177
-576,992	6,775	-0,088	-0,048
-575,977	-200,000	-0,020	-0,154
-574,963	800,000	0,027	0,056
-573,948	420,504	0,078	0,123
-572,934	6,175	-0,025	0,014
-571,919	-200,000	-0,003	-0,013
-570,904	-200,000	-0,030	-0,208
-569,890	560,751	-0,070	-0,124
-568,875	352,375	0,102	-0,149
-567,861	800,000	-0,032	0,066
-566,846	-21,403	-0,122	-0,054
-565,831	-6,570	0,044	-0,022
-564,817	-28,605	-0,089	-0,038
-563,802	69,647	-0,118	-0,089
-562,788	-148,954	0,082	0,005
-561,773	800,000	0,052	0,112
-560,758	-200,000	0,008	-0,075
-559,744	48,764	0,049	0,033
-558,729	32,988	0,144	0,091
-557,715	-200,000	-0,018	0,122
-556,700	70,819	0,059	0,044
-555,685	23,137	0,085	-0,051
-554,671	502,869	-0,057	-0,096
-553,656	137,489	0,100	-0,095
-552,642	800,000	-0,066	0,142
-551,627	129,673	0,047	-0,044
-550,612	800,000	0,029	-0,058
-549,598	67,812	0,064	0,048
-548,583	-124,038	-0,138	0,016
-547,569	800,000	-0,001	0,002
-546,554	-148,930	0,142	0,008
-545,539	19,853	0,035	-0,021
-544,525	-92,532	0,116	0,024
-543,510	94,958	-0,096	-0,080
-542,496	-200,000	-0,001	-0,043
-541,481	-168,646	-0,116	-0,003
-540,466	-25,146	-0,139	-0,060
-539,452	800,000	0,015	-0,046
-538,437	-151,550	0,146	-0,008
-537,423	-200,000	0,007	-0,058
-536,408	-200,000	0,035	-0,156
-535,393	-85,332	-0,103	-0,023
-534,379	-200,000	-0,004	0,091
-533,364	388,901	-0,117	-0,177
-532,350	-33,902	0,034	-0,014
-531,335	542,438	0,020	0,036
-530,321	-70,671	-0,083	-0,023
-529,306	182,288	-0,031	0,034
-528,291	-96,833	-0,187	-0,036
-527,277	140,051	0,073	0,070
-526,262	-200,000	0,015	0,059
-525,248	-23,129	0,166	0,073
-524,233	800,000	0,004	-0,009
-523,218	-92,411	-0,119	-0,024
-522,204	-143,257	0,084	-0,006
-521,189	-200,000	0,006	0,037
-520,175	-156,723	0,088	0,004
-519,160	-200,000	-0,024	0,093
-518,145	94,747	0,059	0,049
-517,131	154,084	-0,085	-0,085
-516,116	-200,000	-0,013	0,054
-515,102	39,466	0,045	0,029
-514,087	-67,803	0,095	0,027
-513,072	343,870	-0,025	-0,036
-512,058	-177,274	-0,037	0,001
-511,043	175,282	0,098	-0,104
-510,029	165,711	-0,083	0,086
-509,014	-28,316	0,113	0,048
-507,999	-200,000	-0,010	-0,069
-506,985	194,046	-0,151	-0,168
-505,970	-200,000	-0,014	-0,083
-504,956	-200,000	-0,030	-0,123
-503,941	800,000	-0,023	0,050
-502,926	-16,564	0,090	-0,042
-501,912	-102,596	-0,048	0,008
-500,897	-71,867	-0,144	0,039
-499,883	800,000	-0,016	0,038
-498,868	800,000	-0,046	-0,115
-497,853	-133,947	0,127	-0,011
-496,839	-75,750	-0,020	0,005
-495,824	-200,000	0,024	0,104
-494,810	411,319	-0,070	-0,109
-493,795	453,052	0,048	0,078
-492,781	24,629	0,092	-0,055
-491,766	-16,358	-0,130	-0,060
-490,751	101,831	0,153	0,131
-489,737	69,354	0,103	0,077
-488,722	-128,892	0,158	-0,016
-487,708	-200,000	0,020	0,120
-486,693	-22,034	-0,090	0,040
-485,678	8,282	0,087	0,047
-484,664	316,404	-0,012	-0,016
-483,649	800,000	-0,058	-0,139
-482,635	688,011	0,033	-0,064
-481,620	-200,000	0,010	-0,156
-480,605	-36,484	0,019	0,007
-479,591	334,264	0,036	0,050
-478,576	800,000	0,020	0,045
-477,562	27,052	-0,052	-0,032
-476,547	181,123	-0,125	-0,135
-475,532	-200,000	0,006	0,194
-474,518	550,996	0,076	-0,133
-473,503	-90,872	-0,062	-0,013
-472,489	174,299	0,057	-0,060
-471,474	-89,356	-0,139	0,030
-470,459	-200,000	-0,002	0,031
-469,445	-114,761	-0,136	0,019
-468,430	-200,000	0,002	-0,086
-467,416	1,327	0,078	0,041
-466,401	122,255	0,086	0,079
-465,386	-200,000	-0,014	0,072
-464,372	101,117	0,025	0,021
-463,357	-200,000	0,041	-0,158
-462,343	-155,023	-0,120	-0,006
-461,328	28,755	-0,036	0,022
-460,313	-181,422	0,022	0,000
-459,299	800,000	0,024	0,051
-458,284	-25,673	0,100	0,043
-457,270	-200,000	-0,005	-0,024
-456,255	800,000	0,025	0,075
-455,241	325,301	-0,048	-0,067
-454,226	800,000	-0,044	-0,092
-453,211	425,846	0,058	-0,092
-452,197	442,873	0,133	0,212
-451,182	-200,000	-0,007	0,031
-450,168	168,658	-0,062	0,065
-449,153	147,285	0,048	-0,047
-448,138	171,983	0,030	-0,031
-447,124	800,000	-0,017	-0,035
-446,109	28,809	0,030	-0,018
-445,095	-148,950	-0,066	0,004
-444,080	71,957	0,018	-0,014
-443,065	-107,141	0,090	0,014
-442,051	-32,138	0,016	-0,007
-441,036	800,000	-0,040	-0,114
-440,022	-200,000	0,010	0,071
-439,007	-193,374	0,085	-0,001
-437,992	-101,775	0,102	-0,018
-436,978	37,745	0,061	-0,039
-435,963	-200,000	0,022	0,087
-434,949	-9,051	0,034	0,016
-433,934	-200,000	-0,002	0,074
-432,919	195,686	0,022	0,024
-431,905	800,000	0,017	0,050
-430,890	13,803	-0,054	-0,031
-429,876	800,000	0,038	0,108
-428,861	-167,931	0,070	0,002
-427,846	-71,835	0,085	-0,023
-426,832	-104,401	-0,117	-0,020
-425,817	800,000	-0,024	0,058
-424,803	800,000	-0,040	0,121
-423,788	-96,026	-0,110	0,021
-422,773	-200,000	-0,014	0,072
-421,759	800,000	0,019	-0,046
-420,744	-118,816	-0,140	0,018
-419,730	223,282	-0,071	0,084
-418,715	46,152	-0,146	0,098
-417,701	-200,000	-0,004	-0,029
-416,686	-68,780	0,049	-0,014
-415,671	-200,000	-0,015	0,127
-414,657	554,610	0,035	0,062
-413,642	690,998	0,026	-0,050
-412,628	-200,000	-0,001	-0,115
-411,613	-62,130	-0,040	-0,012
-410,598	-125,656	0,075	0,008
-409,584	644,166	0,014	-0,026
-408,569	-171,837	-0,060	-0,001
-407,555	-200,000	0,004	-0,120
-406,540	-200,000	0,008	0,039
-405,525	607,690	0,052	-0,095
-404,511	38,053	-0,054	-0,035
-403,496	-162,312	-0,159	-0,006
-402,482	-9,819	-0,079	0,038
-401,467	-200,000	0,010	0,083
-400,452	-200,000	0,002	-0,058
-399,438	-142,038	-0,002	-0,000
-398,423	-108,256	-0,073	0,011
-397,409	-10,284	-0,074	-0,036
-396,394	324,369	-0,045	-0,062
-395,379	-23,236	0,113	0,049
-394,365	7,524	0,116	-0,063
-393,350	-200,000	0,010	0,078
-392,336	68,900	0,127	0,095
-391,321	222,521	-0,025	-0,030
-390,306	-200,000	-0,019	-0,151
-389,292	800,000	-0,026	-0,058
-388,277	15,173	0,071	-0,040
-387,263	49,948	-0,053	-0,037
-386,248	-31,471	0,109	0,044
-385,233	-13,630	-0,124	0,058
-384,219	800,000	0,043	-0,121
-383,204	169,494	0,035	0,037
-382,190	-71,322	-0,107	0,029
-381,175	129,728	-0,026	-0,024
-380,160	4,579	0,029	0,015
-379,146	-200,000	-0,000	-0,033
-378,131	699,646	-0,082	0,158
-377,117	103,040	-0,045	-0,038
-376,102	631,297	-0,016	0,029
-375,088	-75,863	0,084	0,022
-374,073	31,615	0,036	-0,022
-373,058	155,663	0,058	0,058
-372,044	-200,000	-0,011	0,060
-371,029	148,866	-0,068	-0,067
-370,015	-37,207	0,137	-0,053
-369,000	200,617	0,017	-0,019
-367,985	-149,958	-0,143	-0,008
-366,971	311,336	-0,042	0,058
-365,956	-33,138	0,195	0,078
-364,942	622,232	-0,071	0,130
-363,927	149,279	-0,077	0,076
-362,912	73,134	-0,007	0,005
-361,898	0,663	-0,167	0,087
-360,883	-35,955	-0,132	0,052
-359,869	-200,000	0,018	-0,057
-358,854	-200,000	-0,026	0,099
-357,839	742,149	-0,073	0,143
-356,825	103,428	0,124	0,105
-355,810	-6,085	0,048	0,024
-354,796	-25,550	0,014	0,006
-353,781	800,000	-0,031	0,075
-352,766	130,497	-0,038	0,035
-351,752	800,000	-0,055	0,145
-350,737	800,000	-0,062	-0,155
-349,723	504,632	-0,029	0,049
-348,708	-50,300	0,112	0,038
-347,693	-200,000	0,010	0,137
-346,679	154,218	-0,068	0,068
-345,664	-200,000	0,002	-0,065
-344,650	361,739	0,050	-0,073
-343,635	85,795	0,037	-0,029
-342,620	12,404	0,054	0,030
-341,606	-200,000	-0,021	-0,141
-340,591	-200,000	0,022	-0,091
-339,577	800,000	0,049	-0,103
-338,562	-200,000	-0,008	0,057
-337,548	201,860	0,082	-0,091
-336,533	-200,000	-0,004	0,018
-335,518	7,375	0,099	0,053
-334,504	-143,365	-0,082	0,006
-333,489	27,801	-0,031	0,019
-332,475	717,842	-0,033	-0,064
-331,460	101,039	0,111	-0,094
-330,445	450,441	-0,023	0,037
-329,431	-120,388	-0,097	0,012
-328,416	-40,799	0,160	0,060
-327,402	-17,833	0,136	0,062
-326,387	-200,000	-0,027	0,000
-325,372	-130,544	0,066	-0,006
-324,358	-200,000	-0,024	-0,124
-323,343	800,000	-0,050	-0,113
-322,329	800,000	-0,011	-0,030
-321,314	82,131	-0,044	0,035
-320,299	21,970	-0,095	-0,056
-319,285	-39,268	0,149	-0,057
-318,270	-200,000	-0,024	0,088
-317,256	10,746	0,063	-0,035
-316,241	114,282	-0,058	-0,051
-315,226	420,990	0,051	-0,080
-314,212	-127,138	-0,013	0,001
-313,197	800,000	-0,036	0,102
-312,183	135,290	0,034	0,032
-311,168	-57,034	-0,028	-0,009
-310,153	88,021	-0,105	-0,084
-309,139	494,340	0,056	-0,094
-308,124	800,000	-0,040	0,088
-307,110	-200,000	-0,020	0,222
-306,095	18,781	0,175	-0,101
-305,080	750,649	0,019	0,037
-304,066	-200,000	-0,013	-0,104
-303,051	-200,000	-0,025	-0,147
-302,037	-38,010	-0,151	-0,058
-301,022	15,545	0,111	-0,063
-300,008	140,416	-0,029	-0,028
-298,993	-57,210	0,179	-0,057
-297,978	-17,348	0,141	0,064
-296,964	-200,000	-0,034	0,155
-295,949	-200,000	-0,044	-0,182
-294,935	346,206	0,042	-0,060
-293,920	-146,727	-0,118	-0,007
-292,905	66,845	0,072	-0,053
-291,891	631,715	-0,056	-0,103
-290,876	-200,000	-0,007	-0,067
-289,862	545,790	-0,018	-0,032
-288,847	485,507	-0,046	0,076
-287,832	1,246	-0,168	-0,087
-286,818	800,000	-0,040	-0,084
-285,803	572,684	-0,068	0,121
-284,789	3,293	0,025	-0,013
-283,774	128,763	-0,064	-0,059
-282,759	173,895	-0,033	-0,034
-281,745	200,967	0,028	-0,032
-280,730	-19,434	-0,127	-0,057
-279,716	-120,485	0,094	-0,011
-278,701	60,804	-0,047	-0,034
-277,686	-61,213	0,157	0,048
-276,672	110,643	0,029	0,025
-275,657	800,000	-0,045	0,108
-274,643	-179,673	-0,140	-0,002
-273,628	800,000	-0,027	-0,063
-272,613	-200,000	0,003	0,081
-271,599	-200,000	-0,005	-0,055
-270,584	-59,491	-0,121	0,037
-269,570	86,732	-0,124	0,099
-268,555	-20,715	0,109	0,048
-267,540	188,501	0,043	-0,047
-266,526	384,778	0,068	0,101
-265,511	39,041	-0,105	-0,068
-264,497	580,654	0,012	-0,021
-263,482	262,189	-0,095	0,120
-262,467	224,083	-0,009	0,011
-261,453	-32,571	-0,062	0,025
-260,438	800,000	-0,042	0,094
-259,424	-174,229	-0,185	-0,004
-258,409	-200,000	0,015	-0,120
-257,395	127,924	0,058	0,054
-256,380	83,108	0,051	0,040
-255,365	800,000	-0,030	0,095
-254,351	-200,000	0,014	-0,154
-253,336	-200,000	-0,019	-0,081
-252,322	800,000	-0,005	-0,013
-251,307	-123,798	-0,007	0,001
-250,292	800,000	0,029	-0,070
-249,278	55,362	0,044	0,031
-248,263	-200,000	0,016	-0,054
-247,249	159,978	0,056	-0,056
-246,234	-27,089	-0,054	0,022
-245,219	1,995	0,047	-0,024
-244,205	-132,938	-0,083	0,008
-243,190	-115,391	0,068	-0,009
-242,176	-200,000	-0,032	0,103
-241,161	114,346	0,075	-0,066
-240,146	37,763	-0,071	0,046
-239,132	-102,377	-0,102	0,017
-238,117	94,037	0,082	-0,067
-237,103	-200,000	-0,011	-0,080
-236,088	800,000	0,028	-0,074
-235,073	231,388	0,061	0,073
-234,059	286,210	0,093	0,122
-233,044	185,333	-0,092	-0,099
-232,030	422,657	0,038	0,059
-231,015	195,638	-0,086	0,095
-230,000	34,549	-0,137	0,086
-228,986	-128,888	-0,054	-0,005
-227,971	-200,000	0,004	-0,052
-226,957	-83,764	0,104	0,024
-225,942	234,950	0,121	0,145
-224,927	138,089	-0,031	0,030
-223,913	-147,953	-0,082	0,005
-222,898	657,394	-0,056	-0,104
-221,884	34,235	-0,116	-0,073
-220,869	-200,000	-0,002	0,115
-219,855	800,000	-0,034	0,094
-218,840	-12,575	0,077	0,036
-217,825	800,000	0,042	-0,114
-216,811	523,907	0,057	0,097
-215,796	400,056	-0,039	0,060
-214,782	800,000	-0,018	0,052
-213,767	348,329	-0,047	-0,067
-212,752	126,553	0,051	-0,047
-211,738	8,774	0,077	0,042
-210,723	-200,000	0,008	-0,066
-209,709	731,954	-0,075	-0,145
-208,694	155,701	-0,040	-0,040
-207,679	-67,895	0,093	0,026
-206,665	-200,000	-0,003	-0,011
-205,650	172,580	0,027	0,028
-204,636	-200,000	-0,020	0,184
-203,621	-33,892	0,071	0,028
-202,606	-125,751	-0,184	-0,020
-201,592	629,658	-0,028	0,050
-200,577	-126,218	0,102	-0,011
-199,563	86,995	-0,053	-0,042
-198,548	800,000	-0,009	-0,021
-197,533	242,984	0,056	0,068
-196,519	-8,782	-0,089	0,043
-195,504	-93,463	0,020	-0,004
-194,490	-100,758	-0,111	0,020
-193,475	-200,000	0,007	-0,038
-192,460	-87,933	0,142	-0,030
-191,446	-200,000	-0,008	0,059
-190,431	57,876	0,067	-0,047
-189,417	594,881	-0,036	-0,064
-188,402	536,323	-0,018	-0,032
-187,387	760,924	0,063	-0,125
-186,373	14,852	-0,079	-0,044
-185,358	5,752	-0,081	0,043
-184,344	-200,000	0,011	0,060
-183,329	-200,000	0,030	-0,205
-182,315	-200,000	-0,012	0,119
-181,300	-59,256	-0,073	-0,023
-180,285	444,865	0,034	-0,054
-179,271	-60,139	-0,000	0,000
-178,256	-200,000	0,005	0,070
-177,242	800,000	-0,029	0,084
-176,227	251,310	-0,029	0,036
-175,212	-200,000	0,047	0,171
-174,198	800,000	-0,044	0,102
-173,183	143,101	-0,020	0,020
-172,169	289,662	0,046	0,060
-171,154	312,126	0,039	0,053
-170,139	117,099	-0,058	0,051
-169,125	-64,876	-0,053	-0,015
-168,110	51,110	0,055	0,038
-167,096	-200,000	0,007	0,080
-166,081	480,735	0,030	-0,049
-165,066	-38,501	0,064	-0,024
-164,052	-200,000	-0,014	-0,085
-163,037	133,983	-0,097	-0,091
-162,023	333,873	0,145	0,203
-161,008	-54,536	0,121	-0,039
-159,993	-76,498	0,102	-0,026
-158,979	-200,000	-0,011	0,067
-157,964	-47,675	-0,040	-0,014
-156,950	-200,000	0,002	0,110
-155,935	-200,000	-0,029	0,091
-154,920	1,552	-0,067	-0,035
-153,906	-200,000	-0,002	-0,010
-152,891	-72,712	0,068	0,018
-151,877	98,830	0,133	-0,110
-150,862	-200,000	-0,006	-0,084
-149,847	196,603	-0,043	-0,047
-148,833	1,355	-0,081	-0,042
-147,818	315,410	0,030	0,041
-146,804	-184,791	0,117	0,001
-145,789	144,909	0,048	0,046
-144,775	-91,806	-0,044	-0,009
-143,760	-200,000	0,031	-0,157
-142,745	-77,152	-0,062	0,015
-141,731	-48,882	0,190	0,065
-140,716	-139,120	0,138	-0,011
-139,702	130,322	0,046	0,043
-138,687	57,711	-0,028	-0,019
-137,672	-172,795	-0,102	0,002
-136,658	-118,264	0,049	-0,006
-135,643	151,064	0,068	-0,067
-134,629	-200,000	0,006	0,125
-133,614	-28,229	0,059	0,024
-132,599	-21,067	-0,108	0,047
-131,585	61,723	-0,017	-0,012
-130,570	354,866	-0,046	0,066
-129,556	-200,000	-0,021	0,229
-128,541	-77,901	-0,018	0,004
-127,526	221,183	0,033	0,039
-126,512	-110,858	0,131	-0,019
-125,497	-167,318	0,225	-0,006
-124,483	3,419	0,078	-0,041
-123,468	741,343	0,039	-0,075
-122,453	-200,000	0,009	-0,038
-121,439	800,000	-0,021	-0,045
-120,424	747,161	-0,088	-0,171
-119,410	-134,175	-0,090	0,008
-118,395	-200,000	0,018	0,110
-117,380	-64,818	0,081	0,024
-116,366	158,875	-0,033	-0,033
-115,351	69,666	0,078	0,058
-114,337	292,853	-0,017	-0,022
-113,322	-200,000	0,024	-0,147
-112,307	-200,000	-0,004	-0,082
-111,293	533,225	0,118	0,202
-110,278	575,285	0,013	-0,024
-109,264	54,841	-0,056	-0,038
-108,249	-200,000	-0,008	-0,115
-107,234	-200,000	-0,015	-0,139
-106,220	-91,562	0,052	0,010
-105,205	-200,000	0,028	-0,200
-104,191	-200,000	0,002	-0,129
-103,176	-44,835	0,086	-0,031
-102,162	-200,000	-0,001	-0,017
-101,147	383,742	-0,015	0,023
-100,132	203,196	-0,036	-0,040
-99,118	-55,128	-0,111	0,036
-98,103	71,628	0,081	-0,060
-97,089	-1,182	-0,065	0,033
-96,074	-43,904	-0,046	0,017
-95,059	274,578	0,041	0,053
-94,045	100,445	0,091	-0,076
-93,030	800,000	0,040	-0,117
-92,016	-45,947	-0,123	-0,043
-91,001	53,848	0,068	-0,047
-89,986	800,000	-0,036	-0,096
-88,972	-143,178	0,138	-0,009
-87,957	-200,000	-0,008	-0,121
-86,943	-200,000	0,029	0,151
-85,928	108,348	-0,047	-0,040
-84,913	-166,577	-0,169	0,005
-83,899	800,000	0,066	-0,137
-82,884	33,495	0,051	0,032
-81,870	-200,000	-0,003	0,025
-80,855	18,496	0,082	0,047
-79,840	-93,132	-0,075	-0,015
-78,826	139,045	-0,006	0,006
-77,811	-184,331	-0,142	0,002
-76,797	29,796	-0,099	-0,060
-75,782	87,927	-0,199	0,158
-74,767	-130,907	0,176	0,017
-73,753	800,000	0,017	0,044
-72,738	537,121	0,033	0,056
-71,724	259,286	0,035	0,044
-70,709	-200,000	-0,031	0,141
-69,694	-84,531	-0,039	-0,009
-68,680	-52,346	0,200	0,066
-67,665	773,361	-0,075	-0,148
-66,651	-200,000	0,008	0,050
-65,636	-124,031	-0,135	-0,015
-64,622	-200,000	0,007	-0,023
-63,607	314,884	0,057	0,077
-62,592	800,000	-0,012	0,035
-61,578	-200,000	0,011	0,072
-60,563	224,408	-0,073	0,085
-59,549	-33,679	-0,135	0,053
-58,534	13,533	-1,888	-1,048
-57,519	-200,000	-0,206	-0,930
-56,505	-200,000	-1,222	-4,865
-55,490	140,108	0,739	0,700
-54,476	800,000	5,373	11,936
-53,461	-200,000	17,656	285,810
-52,446	800,000	728,140	2222,468
-51,432	536,718	1644,481	2812,423
-50,417	109,864	1634,872	1406,645
-49,403	75,862	1286,719	975,043
-48,388	31,923	1027,294	633,505
-47,373	20,136	989,171	571,149
-46,359	18,282	977,112	558,088
-45,344	15,418	973,041	546,376
-44,330	15,659	971,294	546,158
-43,315	15,175	969,661	543,640
-42,300	15,139	968,687	542,956
-41,286	15,052	967,657	542,074
-40,271	15,148	966,413	541,667
-39,257	15,161	965,492	541,170
-38,242	15,179	964,531	540,669
-37,227	15,168	963,880	540,247
-36,213	15,159	962,960	539,682
-35,198	15,118	962,198	539,101
-34,184	15,146	961,479	538,767
-33,169	15,092	960,383	537,956
-32,154	15,147	959,631	537,689
-31,140	15,144	958,516	537,035
-30,125	15,131	957,963	536,663
-29,111	15,221	956,971	536,375
-28,096	15,140	956,612	535,893
-27,082	15,145	955,663	535,356
-26,067	15,143	954,932	534,918
-25,052	15,155	954,194	534,523
-24,038	15,154	953,523	534,120
-23,023	15,151	952,807	533,690
-22,009	15,198	952,267	533,517
-20,994	15,157	951,743	533,070
-19,979	15,204	950,924	532,739
-18,965	15,153	950,264	532,186
-17,950	15,108	949,796	531,761
-16,936	15,128	948,988	531,351
-15,921	15,097	948,395	530,899
-14,906	14,998	947,725	530,186
-13,892	15,031	947,109	529,927
-12,877	15,058	946,432	529,612
-11,863	14,995	945,802	529,039
-10,848	15,078	945,225	528,958
-9,833	15,156	944,795	528,945
-8,819	15,107	944,122	528,393
-7,804	15,101	943,349	527,917
-6,790	15,023	942,864	527,378
-5,775	15,048	942,406	527,181
-4,760	15,119	941,738	527,011
-3,746	14,970	941,291	526,267
-2,731	14,897	940,404	525,520
-1,717	14,828	939,930	525,017
-0,702	14,847	939,210	524,654
0,313	14,663	938,540	524,491
1,327	18,028	936,257	533,762
2,342	27,252	793,243	476,630
3,356	24,112	458,683	270,785
4,371	-3,208	314,858	156,812
5,386	-7,206	296,557	143,634
6,400	-9,122	290,421	138,747
7,415	-9,567	287,935	137,108
8,429	-9,917	286,414	136,029
9,444	-9,957	285,452	135,521
10,459	-9,876	284,783	135,270
11,473	-10,023	284,286	134,879
12,488	-9,971	283,724	134,651
13,502	-9,866	283,175	134,480
14,517	-9,879	282,779	134,267
15,531	-9,893	282,184	133,960
16,546	-9,939	281,877	133,757
17,561	-10,009	281,522	133,510
18,575	-9,968	281,237	133,402
19,590	-10,020	280,798	133,132
20,604	-9,932	280,439	133,035
21,619	-9,968	280,125	132,840
22,634	-10,062	279,835	132,600
23,648	-9,995	279,425	132,458
24,663	-10,173	279,377	132,253
25,677	-10,177	279,079	132,097
26,692	-10,089	278,663	131,972
27,707	-9,953	278,394	131,962
28,721	-10,008	278,319	131,862
29,736	-9,949	277,838	131,679
30,750	-10,033	277,569	131,460
31,765	-10,011	277,402	131,390
32,780	-9,938	277,160	131,333
33,794	-10,198	276,883	130,944
34,809	-9,999	276,492	130,935
35,823	-10,132	276,423	130,765
36,838	-10,194	276,079	130,533
37,853	-10,074	275,848	130,525
38,867	-10,188	275,788	130,377
39,882	-10,089	275,470	130,308
40,896	-10,083	275,301	130,223
41,911	-10,303	274,928	129,828
42,926	-9,964	274,579	129,969
43,940	-10,152	274,308	129,654
44,955	-10,140	274,108	129,559
45,969	-10,121	273,900	129,466
46,984	-10,224	273,655	129,242
47,999	-10,495	273,411	128,863
49,013	-10,783	273,174	128,472
50,028	-10,865	272,909	128,260
51,042	-10,789	272,591	128,170
52,057	-10,906	272,374	127,947
53,071	-10,830	272,111	127,883
54,086	-10,590	271,994	128,039
55,101	-10,753	271,925	127,844
56,115	-10,476	271,785	128,023
57,130	-9,896	271,416	128,374
58,144	-9,929	271,283	128,270
59,159	-10,126	271,255	128,063
60,174	-9,913	270,895	128,079
61,188	-9,845	270,835	128,101
62,203	-9,813	270,383	127,905
63,217	-9,775	270,175	127,830
64,232	-9,821	270,174	127,776
65,247	-9,843	269,909	127,619
66,261	-10,182	269,793	127,242
67,276	-10,123	269,230	127,019
68,290	-10,382	269,101	126,709
69,305	-10,405	268,786	126,529
70,320	-10,161	268,613	126,659
71,334	-10,164	268,326	126,510
72,349	-9,931	268,211	126,657
73,363	-9,887	267,861	126,521
74,378	-9,941	267,895	126,476
75,393	-9,925	267,617	126,349
76,407	-10,012	267,632	126,265
77,422	-10,011	267,297	126,096
78,436	-9,915	266,907	125,988
79,451	-9,870	266,754	125,946
80,466	-10,015	266,445	125,657
81,480	-10,242	266,219	125,334
82,495	-10,045	265,818	125,312
83,509	-10,142	265,959	125,280
84,524	-10,102	265,609	125,140
85,539	-10,238	265,452	124,932
86,553	-10,365	265,185	124,681
87,568	-10,314	265,030	124,642
88,582	-10,206	264,672	124,560
89,597	-10,176	264,441	124,467
90,611	-10,208	264,487	124,450
91,626	-10,001	264,280	124,526
92,641	-10,111	264,123	124,342
93,655	-10,012	263,793	124,265
94,670	-10,094	263,645	124,111
95,684	-10,196	263,459	123,921
96,699	-10,157	263,190	123,818
97,714	-10,114	263,146	123,824
98,728	-10,313	262,816	123,481
99,743	-10,310	262,433	123,293
100,757	-10,410	262,373	123,165
101,772	-10,041	262,017	123,315
102,787	-10,092	262,003	123,251
103,801	-10,077	261,836	123,176
104,816	-10,103	261,636	123,048
105,830	-9,948	261,535	123,127
106,845	-9,998	261,353	122,985
107,860	-10,022	261,114	122,841
108,874	-10,063	260,885	122,686
109,889	-10,062	260,617	122,550
110,903	-10,104	260,533	122,462
111,918	-10,091	260,374	122,388
112,933	-9,938	260,052	122,361
113,947	-9,892	259,872	122,306
114,962	-9,947	259,785	122,205
115,976	-9,991	259,492	122,018
116,991	-9,735	259,341	122,161
118,006	-10,000	259,159	121,831
119,020	-10,077	259,161	121,754
120,035	-9,897	258,892	121,775
121,049	-9,915	258,693	121,655
122,064	-9,886	258,617	121,633
123,079	-10,081	258,208	121,260
124,093	-10,046	258,127	121,241
125,108	-10,076	257,813	121,056
126,122	-10,173	257,495	120,812
127,137	-10,469	257,310	120,457
128,151	-10,343	257,265	120,534
129,166	-10,216	257,269	120,636
130,181	-10,133	256,815	120,485
131,195	-10,036	256,475	120,399
132,210	-10,260	256,649	120,275
133,224	-10,064	256,381	120,308
134,239	-9,975	256,121	120,253
135,254	-10,179	256,049	120,032
136,268	-10,107	255,645	119,894
137,283	-10,184	255,370	119,688
138,297	-10,363	255,096	119,394
139,312	-10,381	255,056	119,349
140,327	-10,123	254,975	119,523
141,341	-9,802	254,828	119,720
142,356	-9,802	254,680	119,640
143,370	-9,971	254,579	119,437
144,385	-9,747	254,354	119,513
145,400	-9,905	254,122	119,257
146,414	-9,806	253,929	119,241
147,429	-9,926	253,864	119,097
148,443	-9,725	253,524	119,099
149,458	-9,766	253,359	118,976
150,473	-9,764	253,267	118,924
151,487	-9,902	252,971	118,656
152,502	-9,901	252,918	118,622
153,516	-9,858	252,686	118,539
154,531	-9,843	252,498	118,453
155,546	-9,873	252,357	118,351
156,560	-9,791	252,102	118,291
157,575	-9,913	251,922	118,092
158,589	-9,882	251,833	118,066
159,604	-9,832	251,607	117,992
160,619	-9,722	251,401	117,978
161,633	-9,691	251,177	117,889
162,648	-9,910	251,111	117,662
163,662	-9,674	250,804	117,707
164,677	-9,672	250,750	117,673
165,692	-9,801	250,722	117,540
166,706	-9,625	250,431	117,542
167,721	-9,764	250,224	117,317
168,735	-9,905	250,050	117,106
169,750	-10,020	250,120	117,031
170,764	-9,724	249,814	117,128
171,779	-9,668	249,741	117,129
172,794	-9,583	249,479	117,068
173,808	-9,793	249,275	116,785
174,823	-10,238	249,062	116,301
175,837	-10,442	248,740	115,969
176,852	-10,031	248,688	116,280
177,867	-9,742	248,580	116,461
178,881	-9,732	248,497	116,420
179,896	-9,623	248,203	116,363
180,910	-9,637	247,965	116,229
181,925	-9,769	248,021	116,135
182,940	-9,743	247,804	116,044
183,954	-9,563	247,348	115,971
184,969	-9,718	247,341	115,828
185,983	-9,648	247,221	115,819
186,998	-9,642	246,841	115,636
188,013	-9,669	246,876	115,620
189,027	-9,518	246,667	115,637
190,042	-9,649	246,477	115,429
191,056	-9,576	246,327	115,409
192,071	-9,612	246,184	115,302
193,086	-9,659	245,975	115,154
194,100	-9,782	245,843	114,981
195,115	-9,473	245,649	115,135
196,129	-9,613	245,467	114,924
197,144	-9,583	245,231	114,828
198,159	-9,739	245,143	114,648
199,173	-9,905	245,014	114,441
200,188	-9,737	244,713	114,428
201,202	-9,867	244,467	114,196
202,217	-10,228	244,202	113,765
203,232	-10,218	244,033	113,685
204,246	-10,031	244,060	113,840
205,261	-9,316	243,969	114,375
206,275	-10,153	243,733	113,568
207,290	-6,081	245,411	117,697
208,304	0,660	247,259	124,157
209,319	3,310	247,981	126,704
210,334	3,757	247,982	127,062
211,348	4,057	247,762	127,186
212,363	4,418	247,756	127,469
213,377	4,453	247,593	127,403
214,392	4,346	247,452	127,231
215,407	4,246	247,234	127,025
216,421	4,185	247,237	126,965
217,436	4,540	247,082	127,166
218,450	4,688	246,815	127,139
219,465	4,235	246,630	126,661
220,480	4,220	246,385	126,512
221,494	3,979	246,324	126,271
222,509	4,091	246,024	126,198
223,523	4,024	245,867	126,051
224,538	3,585	245,568	125,527
225,553	3,673	245,563	125,586
226,567	3,937	245,421	125,717
227,582	3,889	245,305	125,608
228,596	3,931	245,153	125,553
229,611	3,812	244,875	125,302
230,626	3,710	244,663	125,100
231,640	3,627	244,561	124,968
232,655	3,945	244,388	125,128
233,669	3,774	244,179	124,871
234,684	3,725	243,925	124,690
235,699	4,268	243,911	125,112
236,713	4,183	243,741	124,945
237,728	3,669	243,644	124,467
238,742	3,656	243,324	124,283
239,757	3,858	243,138	124,340
240,772	3,786	242,997	124,198
241,786	3,900	242,953	124,257
242,801	3,724	242,829	124,040
243,815	3,877	242,685	124,079
244,830	3,858	242,526	123,971
245,844	3,912	242,394	123,937
246,859	3,813	242,075	123,683
247,874	3,852	241,899	123,613
248,888	3,756	241,802	123,475
249,903	3,821	241,732	123,481
250,917	3,968	241,615	123,528
251,932	4,106	241,519	123,578
252,947	3,910	241,278	123,287
253,961	3,742	240,929	122,964
254,976	3,852	240,913	123,032
255,990	4,081	240,773	123,133
257,005	3,717	240,576	122,730
258,020	3,540	240,393	122,485
259,034	3,621	240,259	122,470
260,049	3,889	240,172	122,629
261,063	3,498	239,787	122,110
262,078	3,531	239,848	122,156
263,093	3,805	239,744	122,311
264,107	4,021	239,432	122,312
265,122	3,495	239,363	121,848
266,136	3,934	239,316	122,162
267,151	4,053	239,133	122,152
268,166	3,883	238,832	121,852
269,180	3,564	238,691	121,517
270,195	4,206	238,768	122,054
271,209	4,415	238,579	122,112
272,224	3,833	238,313	121,505
273,239	3,554	237,919	121,073
274,253	3,575	237,817	121,027
275,268	3,761	237,840	121,174
276,282	3,889	237,668	121,177
277,297	3,468	237,456	120,727
278,312	3,683	237,380	120,847
279,326	3,868	237,385	120,984
280,341	3,817	237,132	120,804
281,355	3,928	236,953	120,789
282,370	3,723	236,949	120,616
283,384	4,044	236,509	120,632
284,399	3,715	236,429	120,323
285,414	3,673	236,281	120,204
286,428	3,702	236,149	120,149
287,443	3,865	235,925	120,151
288,457	3,967	235,831	120,173
289,472	3,979	235,772	120,141
290,487	3,845	235,646	119,962
291,501	3,685	235,439	119,721
292,516	3,540	235,189	119,471
293,530	3,351	235,038	119,235
294,545	3,942	235,023	119,677
295,560	3,965	234,786	119,564
296,574	3,565	234,648	119,172
297,589	3,687	234,508	119,185
298,603	3,918	234,442	119,320
299,618	4,034	234,220	119,286
300,633	4,020	234,019	119,163
301,647	3,907	233,964	119,037
302,662	4,182	234,040	119,277
303,676	4,315	233,685	119,188
304,691	4,002	233,500	118,842
305,706	4,104	233,532	118,926
306,720	4,142	233,234	118,793
307,735	3,945	233,249	118,639
308,749	4,082	232,825	118,518
309,764	3,589	232,608	118,018
310,779	3,637	232,572	118,026
311,793	3,458	232,236	117,707
312,808	3,739	231,997	117,791
313,822	3,595	232,126	117,735
314,837	3,486	231,903	117,529
315,852	3,714	231,615	117,546
316,866	3,776	231,629	117,591
317,881	4,096	231,465	117,742
318,895	3,962	231,445	117,619
319,910	4,017	231,288	117,570
320,925	3,628	231,048	117,141
321,939	3,864	231,013	117,293
322,954	4,234	230,928	117,521
323,968	3,939	230,771	117,206
324,983	3,773	230,451	116,907
325,997	3,860	230,311	116,892
327,012	3,709	230,211	116,716
328,027	4,061	230,132	116,933
329,041	4,261	230,161	117,089
330,056	4,596	230,143	117,324
331,070	4,563	229,855	117,141
332,085	4,249	229,626	116,776
333,100	3,890	229,370	116,364
334,114	3,956	229,275	116,355
335,129	4,111	229,200	116,424
336,143	4,302	229,094	116,504
337,158	4,146	228,964	116,309
338,173	4,082	228,782	116,158
339,187	4,027	228,487	115,957
340,202	3,957	228,415	115,858
341,216	4,114	228,214	115,863
342,231	3,969	228,009	115,640
343,246	3,879	227,916	115,514
344,260	4,174	227,838	115,687
345,275	4,110	227,775	115,596
346,289	4,258	227,624	115,621
347,304	4,322	227,390	115,539
348,319	4,353	227,261	115,486
349,333	4,185	227,056	115,247
350,348	3,933	226,907	114,972
351,362	4,025	226,885	115,020
352,377	3,944	226,565	114,787
353,392	3,737	226,358	114,517
354,406	3,996	226,301	114,671
355,421	194,958	1323,743	1398,444
356,435	156,248	1457,439	1398,433
