DTS Sentinel unit serial number:	SN410029Multiplexer serial number:	ORYXHardware model number:	OX2-SRSoftware version number:	ORYX F/W v4,00 Oryx Data Collector v3.7.2.0data status	okinstallation	B5 Nyhavnadifferential loss correction	single-endedforward channel	channel 2reverse channel	N/Adate	2023/12/14time	16:07:13forward acquisition time	300,00reverse acquisition time	0,00gamma	499,1914k internal	0,3157k external	0,3157temperature offset calibration	1,0000default loss term (dB/km)	0,3820temperature slope calibration	1,0000multiplexer offset coefficient	1,0000multiplexer slope coefficient	1,0000fibre end	0,00T internal ref (°C)	7,92T ext. ref 1 (°C)	-7,75T ext. ref 2 (°C)	-7,78length (m)	temperature (°C)	Stokes	anti-Stokes-744,400	-145,131	0,301	0,020
-743,385	-46,936	-0,339	-0,121
-742,371	47,526	0,114	-0,079
-741,356	-116,997	-0,352	-0,047
-740,342	800,000	0,052	0,120
-739,327	-7,757	-0,488	-0,242
-738,312	11,578	0,154	0,087
-737,298	-4,506	-0,369	-0,187
-736,283	79,215	0,081	-0,064
-735,269	-181,646	-0,319	-0,004
-734,254	269,033	0,103	0,133
-733,239	-103,515	-0,567	-0,097
-732,225	88,962	0,263	0,216
-731,210	800,000	-0,049	0,152
-730,196	-200,000	-0,007	-0,099
-729,181	-14,935	-0,242	-0,114
-728,167	4,826	0,093	-0,050
-727,152	-200,000	-0,022	-0,092
-726,137	-62,369	-0,068	0,021
-725,123	5,675	-0,129	-0,070
-724,108	591,642	0,025	0,045
-723,094	800,000	-0,020	-0,062
-722,079	103,217	0,111	-0,096
-721,064	169,165	-0,114	-0,120
-720,050	684,174	-0,049	-0,094
-719,035	-200,000	0,002	-0,083
-718,021	-62,917	0,056	0,017
-717,006	-47,023	0,082	-0,029
-715,991	-200,000	-0,050	-0,177
-714,977	55,753	-0,017	-0,012
-713,962	-50,807	-0,107	0,037
-712,948	541,117	-0,060	-0,106
-711,933	-200,000	-0,015	0,113
-710,918	800,000	-0,028	-0,058
-709,904	8,848	-0,089	-0,049
-708,889	56,506	-0,125	-0,089
-707,875	-19,645	-0,159	-0,072
-706,860	24,597	-0,110	0,067
-705,845	146,921	-0,079	0,078
-704,831	478,847	-0,030	0,051
-703,816	29,191	0,092	0,058
-702,802	117,933	-0,084	-0,076
-701,787	-148,475	-0,085	0,005
-700,772	-55,204	-0,089	-0,029
-699,758	-111,135	-0,084	-0,013
-698,743	10,224	0,070	-0,039
-697,729	800,000	0,016	0,041
-696,714	129,855	0,063	0,059
-695,699	-200,000	-0,017	-0,109
-694,685	64,784	-0,059	0,044
-693,670	454,496	-0,042	-0,069
-692,656	161,712	0,091	-0,094
-691,641	-99,082	-0,020	0,004
-690,627	-42,005	0,149	0,056
-689,612	230,687	-0,022	0,027
-688,597	-159,644	-0,076	-0,003
-687,583	800,000	-0,011	-0,024
-686,568	-61,978	-0,059	0,018
-685,554	751,222	0,046	0,092
-684,539	67,685	0,023	0,017
-683,524	-162,034	0,027	-0,001
-682,510	606,872	0,046	-0,085
-681,495	-200,000	0,002	-0,119
-680,481	-167,651	-0,060	0,002
-679,466	11,888	-0,164	-0,093
-678,451	-200,000	0,004	-0,055
-677,437	-118,550	0,128	0,017
-676,422	-200,000	0,021	-0,080
-675,408	523,134	-0,013	-0,023
-674,393	-70,600	-0,270	-0,075
-673,378	-200,000	0,009	-0,123
-672,364	-100,888	-0,104	-0,019
-671,349	-87,955	0,100	0,022
-670,335	-132,723	-0,085	-0,008
-669,320	3,641	0,084	-0,045
-668,305	-200,000	0,004	0,049
-667,291	-200,000	0,014	0,163
-666,276	172,700	-0,071	-0,075
-665,262	800,000	-0,036	-0,084
-664,247	465,340	-0,124	-0,205
-663,232	800,000	-0,018	-0,051
-662,218	-83,272	0,057	-0,013
-661,203	180,798	-0,047	0,051
-660,189	577,694	-0,083	-0,150
-659,174	800,000	-0,065	-0,146
-658,159	-104,797	-0,079	-0,013
-657,145	800,000	-0,045	0,095
-656,130	-200,000	0,021	-0,131
-655,116	-143,710	0,057	-0,004
-654,101	232,362	-0,024	0,029
-653,086	143,511	0,078	-0,077
-652,072	-9,764	-0,060	-0,029
-651,057	-200,000	0,013	-0,090
-650,043	-95,194	-0,080	0,016
-649,028	-200,000	0,011	-0,059
-648,014	459,625	0,027	0,044
-646,999	-164,840	-0,051	-0,002
-645,984	2,230	0,046	0,024
-644,970	-68,157	0,052	-0,015
-643,955	800,000	-0,058	-0,126
-642,941	-67,037	-0,088	-0,025
-641,926	-200,000	-0,031	0,122
-640,911	-200,000	0,014	-0,057
-639,897	165,619	-0,073	0,076
-638,882	131,847	0,038	-0,036
-637,868	455,651	-0,025	0,040
-636,853	208,369	-0,114	-0,131
-635,838	-9,387	-0,150	-0,073
-634,824	199,170	0,078	-0,088
-633,809	-200,000	-0,001	0,202
-632,795	74,819	0,037	-0,029
-631,780	-141,831	-0,085	0,006
-630,765	178,886	-0,064	0,069
-629,751	298,189	-0,108	-0,147
-628,736	180,582	-0,078	-0,084
-627,722	23,983	0,105	0,063
-626,707	257,307	-0,037	0,047
-625,692	119,220	0,113	0,102
-624,678	-200,000	-0,004	-0,111
-623,663	-200,000	-0,007	-0,069
-622,649	454,962	0,010	0,016
-621,634	800,000	-0,033	0,102
-620,619	-46,844	-0,137	-0,049
-619,605	116,118	0,046	0,041
-618,590	-184,379	0,091	0,001
-617,576	-200,000	0,006	-0,023
-616,561	-103,044	0,084	-0,014
-615,546	800,000	0,025	-0,072
-614,532	-200,000	0,009	-0,042
-613,517	-66,519	0,075	0,022
-612,503	-101,464	0,151	-0,027
-611,488	257,599	-0,048	-0,061
-610,474	211,204	-0,093	0,108
-609,459	-124,860	-0,197	-0,022
-608,444	130,260	-0,106	-0,100
-607,430	70,637	0,093	-0,070
-606,415	800,000	-0,065	-0,159
-605,401	800,000	0,030	0,092
-604,386	-77,343	0,107	0,027
-603,371	-67,560	0,114	-0,033
-602,357	-200,000	-0,012	0,050
-601,342	-188,905	-0,089	-0,001
-600,328	485,658	0,058	0,097
-599,313	-101,739	0,079	-0,014
-598,298	-106,930	-0,053	0,009
-597,284	259,714	-0,062	0,079
-596,269	800,000	-0,029	-0,083
-595,255	-134,448	0,122	0,011
-594,240	57,609	-0,090	0,064
-593,225	697,439	0,016	-0,031
-592,211	-5,229	-0,114	-0,057
-591,196	-139,529	-0,061	0,005
-590,182	30,590	-0,008	-0,005
-589,167	800,000	0,023	-0,053
-588,152	650,089	-0,025	0,047
-587,138	86,640	-0,091	0,073
-586,123	-26,984	-0,147	-0,063
-585,109	124,257	-0,065	0,060
-584,094	-200,000	-0,008	0,068
-583,079	85,869	-0,035	0,028
-582,065	109,637	0,076	-0,067
-581,050	-101,802	-0,062	-0,011
-580,036	800,000	-0,038	-0,082
-579,021	-96,132	-0,063	0,012
-578,006	-200,000	0,000	-0,085
-576,992	-200,000	-0,043	-0,200
-575,977	800,000	-0,018	0,039
-574,963	4,867	0,130	-0,070
-573,948	-146,252	-0,090	0,006
-572,934	151,189	-0,052	0,051
-571,919	-108,207	-0,039	-0,006
-570,904	537,680	0,055	-0,097
-569,890	372,903	0,063	-0,094
-568,875	-61,657	0,097	-0,029
-567,861	-174,618	-0,026	0,001
-566,846	670,502	-0,039	0,075
-565,831	-92,799	-0,146	0,030
-564,817	-87,313	-0,062	-0,014
-563,802	-81,790	-0,201	-0,048
-562,788	-18,248	0,155	0,071
-561,773	104,595	-0,065	-0,056
-560,758	-200,000	-0,016	0,052
-559,744	323,591	-0,050	0,071
-558,729	677,095	0,012	-0,022
-557,715	124,746	-0,100	-0,092
-556,700	-0,766	0,012	0,006
-555,685	47,811	0,137	-0,094
-554,671	23,989	0,061	0,037
-553,656	-68,149	-0,055	0,016
-552,642	-200,000	-0,011	0,067
-551,627	781,699	0,053	-0,106
-550,612	-26,277	0,207	-0,088
-549,598	-68,458	-0,215	-0,061
-548,583	571,063	0,035	-0,063
-547,569	-200,000	-0,016	-0,055
-546,554	257,305	0,063	0,079
-545,539	-200,000	-0,007	-0,046
-544,525	97,503	-0,093	0,078
-543,510	11,763	0,064	-0,036
-542,496	109,652	-0,038	0,033
-541,481	-122,357	-0,069	-0,008
-540,466	175,660	-0,044	-0,046
-539,452	-95,476	-0,045	0,009
-538,437	800,000	-0,017	0,051
-537,423	-200,000	-0,006	0,058
-536,408	-200,000	0,023	-0,101
-535,393	56,006	-0,111	-0,078
-534,379	-44,034	0,048	-0,017
-533,364	753,849	-0,031	-0,062
-532,350	-200,000	-0,007	0,034
-531,335	-200,000	-0,013	0,052
-530,321	-91,658	-0,107	0,022
-529,306	168,746	0,067	-0,070
-528,291	-122,278	-0,163	-0,019
-527,277	800,000	-0,021	0,046
-526,262	-13,987	-0,135	-0,063
-525,248	-200,000	-0,001	-0,025
-524,233	609,278	0,023	-0,042
-523,218	-200,000	-0,050	0,201
-522,204	626,770	0,062	0,115
-521,189	172,263	-0,036	-0,038
-520,175	299,140	0,043	-0,058
-519,160	464,734	-0,083	-0,136
-518,145	485,136	-0,086	-0,143
-517,131	-6,033	0,134	-0,067
-516,116	-200,000	0,000	-0,029
-515,102	171,176	-0,043	-0,045
-514,087	672,928	0,034	0,064
-513,072	800,000	0,029	-0,083
-512,058	126,241	0,020	0,019
-511,043	23,113	0,094	-0,056
-510,029	-21,783	0,102	0,045
-509,014	-5,932	-0,058	0,029
-507,999	-200,000	-0,002	-0,015
-506,985	-200,000	-0,006	-0,078
-505,970	103,487	0,070	-0,060
-504,956	266,663	-0,007	0,009
-503,941	-168,096	-0,039	-0,001
-502,926	-90,491	0,086	0,018
-501,912	134,596	-0,086	0,081
-500,897	-200,000	0,028	0,131
-499,883	211,211	0,048	-0,055
-498,868	138,801	-0,077	-0,074
-497,853	800,000	-0,019	-0,055
-496,839	800,000	-0,019	-0,051
-495,824	800,000	0,048	-0,099
-494,810	-200,000	-0,001	-0,060
-493,795	-97,950	0,081	-0,015
-492,781	111,924	-0,081	-0,071
-491,766	-200,000	0,001	0,138
-490,751	377,696	0,029	0,043
-489,737	-200,000	-0,003	-0,019
-488,722	800,000	-0,048	-0,104
-487,708	-78,994	0,079	0,020
-486,693	697,578	0,070	0,135
-485,678	-84,318	0,120	-0,027
-484,664	800,000	0,082	0,171
-483,649	-35,021	-0,114	-0,045
-482,635	233,820	0,058	-0,070
-481,620	238,162	-0,073	-0,088
-480,605	22,354	0,052	0,031
-479,591	-200,000	0,003	0,042
-478,576	186,308	-0,014	-0,016
-477,562	156,672	-0,125	-0,126
-476,547	147,119	-0,070	-0,069
-475,532	-200,000	-0,023	-0,147
-474,518	-200,000	0,032	0,118
-473,503	-200,000	-0,005	0,054
-472,489	198,674	0,052	0,059
-471,474	-200,000	-0,037	0,171
-470,459	527,968	0,040	0,069
-469,445	-133,176	-0,120	-0,011
-468,430	71,875	-0,057	-0,043
-467,416	369,986	0,081	0,121
-466,401	105,602	0,029	0,025
-465,386	48,108	0,025	0,017
-464,372	800,000	0,015	0,038
-463,357	-35,119	-0,112	-0,044
-462,343	96,354	0,085	-0,071
-461,328	-45,696	-0,157	-0,056
-460,313	733,314	-0,022	-0,044
-459,299	489,350	0,063	0,105
-458,284	28,116	0,120	0,074
-457,270	-109,530	-0,041	-0,006
-456,255	-200,000	0,027	-0,119
-455,241	-146,303	-0,172	-0,011
-454,226	122,689	-0,061	0,056
-453,211	112,148	-0,011	0,010
-452,197	800,000	0,032	0,075
-451,182	382,285	0,076	0,114
-450,168	497,752	-0,072	-0,121
-449,153	758,617	0,026	0,052
-448,138	-139,508	-0,100	-0,008
-447,124	-200,000	0,008	-0,031
-446,109	33,063	-0,119	0,075
-445,095	201,486	-0,050	0,056
-444,080	-89,663	0,085	-0,018
-443,065	100,078	-0,108	-0,092
-442,051	800,000	0,033	-0,072
-441,036	-66,760	-0,176	-0,050
-440,022	-200,000	-0,001	-0,131
-439,007	-200,000	-0,028	-0,091
-437,992	-200,000	0,048	0,190
-436,978	-45,392	0,084	0,030
-435,963	-200,000	-0,002	-0,061
-434,949	-200,000	-0,043	-0,164
-433,934	180,432	0,144	0,154
-432,919	800,000	-0,035	-0,082
-431,905	3,176	-0,097	-0,051
-430,890	-95,537	0,119	0,023
-429,876	380,867	0,033	0,049
-428,861	-44,351	0,107	0,039
-427,846	514,382	-0,007	0,012
-426,832	-7,474	-0,095	0,046
-425,817	-200,000	-0,027	0,141
-424,803	437,354	-0,012	-0,019
-423,788	800,000	0,074	0,223
-422,773	-200,000	0,023	0,131
-421,759	-200,000	0,007	0,137
-420,744	-68,638	-0,049	0,014
-419,730	-19,533	0,168	-0,075
-418,715	-200,000	0,049	-0,159
-417,701	13,231	0,088	0,049
-416,686	800,000	0,039	0,118
-415,671	800,000	0,021	0,045
-414,657	105,860	0,053	0,046
-413,642	176,922	0,087	0,092
-412,628	-200,000	-0,005	-0,074
-411,613	187,367	0,061	-0,066
-410,598	168,699	-0,090	-0,094
-409,584	-200,000	-0,015	-0,068
-408,569	-5,421	0,111	0,055
-407,555	-93,198	-0,060	0,012
-406,540	248,792	0,048	-0,059
-405,525	-174,630	-0,196	0,004
-404,511	201,773	-0,041	-0,046
-403,496	-14,702	-0,118	0,055
-402,482	800,000	-0,013	-0,032
-401,467	800,000	0,066	0,175
-400,452	380,829	0,102	0,152
-399,438	800,000	0,018	0,056
-398,423	800,000	-0,029	-0,083
-397,409	-28,219	-0,060	0,025
-396,394	258,895	-0,020	-0,025
-395,379	-50,695	-0,044	-0,015
-394,365	-200,000	-0,028	-0,127
-393,350	-102,054	0,123	0,021
-392,336	135,557	-0,094	0,089
-391,321	545,154	0,031	-0,054
-390,306	214,583	0,122	-0,140
-389,292	-200,000	-0,020	0,187
-388,277	-74,661	0,060	0,016
-387,263	219,300	0,042	-0,049
-386,248	-62,664	-0,054	0,016
-385,233	72,061	-0,113	0,086
-384,219	106,208	0,060	-0,052
-383,204	-200,000	-0,150	0,000
-382,190	21,393	0,034	0,020
-381,175	-57,156	-0,034	-0,011
-380,160	696,419	0,083	0,159
-379,146	-200,000	0,001	0,092
-378,131	-200,000	-0,017	0,128
-377,117	-200,000	-0,011	0,036
-376,102	268,689	-0,042	0,054
-375,088	5,356	-0,118	-0,063
-374,073	698,411	0,083	-0,159
-373,058	-45,706	-0,069	0,024
-372,044	-200,000	0,067	-0,000
-371,029	-200,000	-0,004	-0,054
-370,015	414,574	0,007	0,011
-369,000	149,695	-0,065	0,064
-367,985	-14,603	0,108	-0,050
-366,971	17,776	0,086	0,050
-365,956	-117,884	0,160	-0,021
-364,942	395,730	-0,043	0,066
-363,927	-200,000	0,005	0,086
-362,912	20,483	-0,020	-0,012
-361,898	-200,000	0,001	0,123
-360,883	-88,965	0,188	-0,040
-359,869	90,507	-0,028	0,023
-358,854	-200,000	0,007	0,080
-357,839	304,422	0,038	0,051
-356,825	800,000	0,063	0,138
-355,810	-200,000	-0,009	0,076
-354,796	-200,000	0,004	0,080
-353,781	185,701	-0,094	0,101
-352,766	-82,551	0,169	0,039
-351,752	-76,552	0,119	0,030
-350,737	800,000	-0,028	-0,079
-349,723	97,652	0,111	0,092
-348,708	-62,669	-0,101	0,030
-347,693	-65,318	-0,097	0,028
-346,679	800,000	0,065	-0,152
-345,664	225,953	-0,077	-0,091
-344,650	699,602	0,031	-0,060
-343,635	104,936	0,150	-0,128
-342,620	699,573	-0,047	0,090
-341,606	-200,000	-0,001	-0,025
-340,591	110,089	-0,103	-0,089
-339,577	-147,677	0,125	-0,007
-338,562	58,260	-0,039	0,028
-337,548	146,056	0,024	-0,023
-336,533	800,000	0,058	-0,126
-335,518	332,434	0,065	-0,091
-334,504	34,689	0,044	-0,028
-333,489	745,666	-0,053	0,105
-332,475	148,474	0,075	0,074
-331,460	-37,733	0,090	-0,035
-330,445	11,362	-0,119	0,066
-329,431	-200,000	-0,006	-0,073
-328,416	285,691	-0,055	0,072
-327,402	-34,725	-0,065	0,026
-326,387	-200,000	-0,013	-0,101
-325,372	-145,840	-0,090	-0,006
-324,358	-25,004	-0,111	0,047
-323,343	-200,000	-0,022	0,120
-322,329	-102,243	0,242	0,042
-321,314	800,000	-0,010	0,029
-320,299	-200,000	0,016	0,089
-319,285	798,057	-0,019	0,038
-318,270	73,768	0,080	0,061
-317,256	-123,781	-0,057	-0,006
-316,241	49,535	0,103	-0,070
-315,226	-2,718	0,141	-0,072
-314,212	800,000	0,053	0,165
-313,197	-68,046	0,108	0,030
-312,183	-94,227	-0,042	0,008
-311,168	-110,831	-0,078	-0,011
-310,153	160,663	0,065	-0,066
-309,139	800,000	0,010	-0,028
-308,124	800,000	-0,066	0,142
-307,110	-200,000	0,006	0,119
-306,095	68,203	-0,021	0,015
-305,080	-200,000	0,020	0,127
-304,066	300,094	-0,080	0,107
-303,051	-200,000	-0,003	0,015
-302,037	581,035	-0,069	-0,123
-301,022	339,303	-0,067	0,095
-300,008	348,235	0,028	0,040
-298,993	-200,000	-0,027	0,168
-297,978	-118,956	0,090	0,011
-296,964	-24,112	-0,066	0,028
-295,949	-169,015	0,115	-0,003
-294,935	800,000	-0,021	-0,044
-293,920	-141,793	0,203	-0,014
-292,905	504,584	0,028	-0,046
-291,891	-55,447	-0,021	-0,007
-290,876	168,519	0,046	0,047
-289,862	800,000	0,024	-0,060
-288,847	-200,000	-0,013	-0,064
-287,832	-6,425	-0,034	0,017
-286,818	276,353	-0,043	-0,055
-285,803	242,774	0,102	0,123
-284,789	522,030	0,063	0,107
-283,774	197,305	0,042	0,046
-282,759	21,354	0,029	0,017
-281,745	-200,000	-0,047	0,209
-280,730	-14,317	0,072	0,034
-279,716	737,352	-0,051	0,100
-278,701	800,000	0,081	-0,217
-277,686	149,946	0,041	0,040
-276,672	800,000	0,039	0,116
-275,657	347,881	0,097	0,139
-274,643	341,198	-0,102	-0,145
-273,628	-18,402	0,012	-0,005
-272,613	157,092	-0,125	-0,125
-271,599	-119,621	0,141	-0,017
-270,584	-3,398	-0,028	-0,014
-269,570	-134,958	0,174	0,015
-268,555	-128,579	-0,161	-0,016
-267,540	764,757	0,016	-0,031
-266,526	223,642	-0,045	-0,052
-265,511	-200,000	-0,009	0,066
-264,497	-200,000	-0,016	-0,184
-263,482	582,889	-0,029	-0,053
-262,467	-172,802	-0,078	0,002
-261,453	-54,932	-0,100	-0,033
-260,438	-200,000	-0,012	-0,083
-259,424	360,370	-0,069	-0,101
-258,409	800,000	-0,016	-0,051
-257,395	-120,574	0,074	0,009
-256,380	800,000	0,014	-0,043
-255,365	126,380	-0,024	-0,022
-254,351	185,908	0,077	0,083
-253,336	-200,000	-0,002	-0,131
-252,322	292,425	0,048	-0,064
-251,307	39,826	-0,170	0,110
-250,292	800,000	0,032	-0,076
-249,278	226,437	0,076	0,089
-248,263	-200,000	-0,006	0,026
-247,249	-88,401	-0,088	0,019
-246,234	-132,611	-0,085	-0,008
-245,219	152,551	0,021	-0,020
-244,205	3,374	0,112	0,059
-243,190	-40,481	0,072	0,027
-242,176	800,000	0,017	-0,035
-241,161	-114,614	0,185	0,025
-240,146	56,186	-0,054	0,038
-239,132	-200,000	-0,004	-0,148
-238,117	-200,000	-0,016	0,056
-237,103	97,618	0,056	-0,047
-236,088	239,585	-0,046	-0,056
-235,073	16,081	0,093	0,053
-234,059	293,150	-0,087	0,115
-233,044	125,711	0,158	-0,144
-232,030	800,000	0,024	-0,060
-231,015	-200,000	-0,041	-0,176
-230,000	-180,959	0,108	-0,002
-228,986	-180,480	0,038	-0,001
-227,971	204,735	-0,079	-0,089
-226,957	-133,968	0,021	-0,002
-225,942	-22,424	0,094	-0,041
-224,927	800,000	0,026	-0,061
-223,913	217,878	0,028	-0,033
-222,898	92,147	-0,101	0,082
-221,884	89,642	-0,048	0,039
-220,869	-200,000	-0,002	0,028
-219,855	-200,000	0,006	-0,051
-218,840	-200,000	-0,011	0,131
-217,825	-200,000	-0,006	-0,176
-216,811	-66,239	-0,078	-0,022
-215,796	-112,114	-0,109	0,016
-214,782	-124,043	-0,092	0,010
-213,767	110,074	0,104	-0,091
-212,752	-200,000	-0,012	-0,075
-211,738	259,112	0,032	0,040
-210,723	182,982	0,077	-0,082
-209,709	52,851	0,075	0,052
-208,694	60,848	0,051	-0,036
-207,679	-73,784	0,070	0,018
-206,665	-120,625	0,112	0,014
-205,650	377,664	0,102	0,151
-204,636	-24,648	0,107	0,046
-203,621	75,802	-0,079	-0,060
-202,606	-200,000	0,003	-0,107
-201,592	-33,843	-0,026	0,010
-200,577	-200,000	-0,012	0,055
-199,563	-200,000	-0,019	0,139
-198,548	-3,985	-0,045	0,022
-197,533	96,334	0,060	-0,049
-196,519	-200,000	-0,040	-0,163
-195,504	431,967	-0,013	0,020
-194,490	-200,000	0,002	-0,007
-193,475	-200,000	-0,030	-0,135
-192,460	-200,000	0,007	0,066
-191,446	276,135	0,085	0,109
-190,431	-200,000	0,028	0,119
-189,417	-200,000	-0,013	-0,054
-188,402	597,758	0,030	-0,054
-187,387	800,000	-0,088	-0,216
-186,373	-143,272	-0,046	-0,003
-185,358	-166,991	0,038	-0,001
-184,344	-104,917	0,067	0,011
-183,329	-200,000	-0,006	0,064
-182,315	40,190	-0,033	0,022
-181,300	-4,183	-0,194	-0,097
-180,285	90,720	0,090	-0,073
-179,271	800,000	-0,078	0,160
-178,256	40,749	-0,059	-0,038
-177,242	-109,295	0,184	0,028
-176,227	-40,577	0,033	-0,012
-175,212	-200,000	0,050	0,161
-174,198	-76,542	-0,211	0,053
-173,183	800,000	0,029	-0,065
-172,169	-200,000	-0,017	-0,068
-171,154	-200,000	0,011	-0,097
-170,139	-27,240	0,081	-0,034
-169,125	-200,000	0,019	0,063
-168,110	219,671	0,093	-0,107
-167,096	-46,353	-0,171	-0,060
-166,081	-23,328	-0,115	-0,050
-165,066	277,047	0,060	-0,077
-164,052	433,901	-0,040	0,063
-163,037	-177,936	0,134	0,002
-162,023	800,000	-0,040	0,100
-161,008	-200,000	-0,019	0,104
-159,993	21,566	0,083	0,049
-158,979	-200,000	-0,020	-0,076
-157,964	-200,000	0,008	-0,070
-156,950	215,983	-0,052	0,060
-155,935	-4,135	-0,049	-0,024
-154,920	655,796	-0,055	0,102
-153,906	800,000	0,022	-0,046
-152,891	-200,000	0,021	0,162
-151,877	455,502	-0,006	-0,010
-150,862	46,537	-0,098	-0,065
-149,847	-2,654	-0,038	-0,019
-148,833	-122,166	-0,125	-0,015
-147,818	-85,792	0,038	-0,008
-146,804	-200,000	-0,004	0,044
-145,789	1,979	0,072	0,037
-144,775	800,000	0,070	-0,196
-143,760	-183,054	-0,042	0,001
-142,745	-110,539	0,126	-0,019
-141,731	643,985	-0,053	0,098
-140,716	223,891	-0,054	0,062
-139,702	800,000	0,032	0,072
-138,687	-34,902	-0,071	0,028
-137,672	648,412	0,041	-0,077
-136,658	26,124	-0,046	-0,027
-135,643	800,000	0,026	-0,064
-134,629	-108,378	-0,050	0,008
-133,614	5,531	0,106	0,056
-132,599	512,452	-0,077	0,130
-131,585	-61,499	-0,045	0,014
-130,570	-200,000	-0,004	-0,022
-129,556	531,273	0,069	0,117
-128,541	-119,145	-0,155	-0,019
-127,526	800,000	0,023	-0,046
-126,512	-45,571	-0,042	0,015
-125,497	144,675	0,086	-0,083
-124,483	513,954	0,075	0,127
-123,468	-7,788	0,066	-0,032
-122,453	-200,000	0,009	0,091
-121,439	94,552	0,023	-0,018
-120,424	800,000	-0,045	-0,101
-119,410	70,090	-0,043	0,032
-118,395	414,210	0,067	-0,103
-117,380	-200,000	-0,003	0,019
-116,366	-43,860	0,122	0,044
-115,351	800,000	-0,014	0,037
-114,337	-64,580	-0,109	0,032
-113,322	115,930	0,031	-0,027
-112,307	-200,000	0,016	0,059
-111,293	227,546	0,072	-0,084
-110,278	23,432	0,098	-0,058
-109,264	-15,132	-0,114	-0,053
-108,249	141,079	-0,016	0,015
-107,234	58,933	-0,135	-0,096
-106,220	43,511	-0,144	-0,094
-105,205	-10,236	0,111	-0,053
-104,191	-174,244	0,100	0,002
-103,176	253,315	0,074	-0,091
-102,162	800,000	-0,075	-0,177
-101,147	528,009	0,049	-0,083
-100,132	800,000	-0,052	-0,130
-99,118	-200,000	0,010	-0,131
-98,103	103,122	0,084	-0,071
-97,089	-171,455	-0,084	-0,002
-96,074	-117,833	0,090	-0,011
-95,059	91,122	-0,016	0,013
-94,045	-184,297	0,027	0,000
-93,030	-200,000	0,007	-0,113
-92,016	-110,403	-0,161	-0,024
-91,001	214,038	0,053	-0,061
-89,986	-106,172	-0,064	0,010
-88,972	-200,000	0,021	0,189
-87,957	800,000	-0,067	-0,184
-86,943	-200,000	-0,010	0,121
-85,928	-74,349	-0,073	-0,019
-84,913	154,924	0,116	-0,114
-83,899	800,000	-0,048	-0,096
-82,884	77,716	-0,075	-0,057
-81,870	-106,943	0,058	-0,009
-80,855	21,994	0,087	0,051
-79,840	-86,972	-0,054	0,012
-78,826	-200,000	-0,006	-0,040
-77,811	157,732	-0,025	-0,025
-76,797	196,299	-0,119	-0,130
-75,782	-200,000	-0,022	0,198
-74,767	464,976	0,035	-0,056
-73,753	-17,117	0,096	0,043
-72,738	-128,766	-0,066	0,007
-71,724	-200,000	-0,013	-0,066
-70,709	387,582	-0,012	0,017
-69,694	800,000	0,061	-0,144
-68,680	-19,953	0,029	-0,013
-67,665	4,130	-0,057	-0,030
-66,651	141,442	0,010	0,010
-65,636	-200,000	-0,002	-0,030
-64,622	-30,281	-0,060	-0,025
-63,607	-103,169	-0,110	0,018
-62,592	-176,221	0,087	0,002
-61,578	-87,178	-0,146	0,032
-60,563	543,677	-0,061	0,105
-59,549	119,387	0,022	0,020
-58,534	69,329	-2,694	-1,988
-57,519	-49,953	0,565	-0,191
-56,505	-200,000	-1,545	-5,393
-55,490	450,659	1,251	1,989
-54,476	800,000	5,194	11,177
-53,461	-200,000	22,173	346,867
-52,446	800,000	759,581	2293,043
-51,432	513,855	1645,229	2764,742
-50,417	97,370	1608,711	1325,088
-49,403	65,108	1265,805	916,878
-48,388	22,994	1017,477	597,458
-47,373	19,329	984,775	566,147
-46,359	12,908	971,589	537,551
-45,344	8,548	968,475	521,529
-44,330	9,004	966,558	521,968
-43,315	8,036	964,547	517,698
-42,300	8,006	963,508	517,024
-41,286	7,956	962,525	516,312
-40,271	7,968	961,589	515,827
-39,257	7,958	960,590	515,238
-38,242	7,910	959,856	514,668
-37,227	7,954	958,968	514,316
-36,213	7,903	958,163	513,699
-35,198	7,929	957,274	513,284
-34,184	8,022	956,444	513,120
-33,169	7,955	955,556	512,408
-32,154	8,029	954,531	512,075
-31,140	8,000	953,792	511,567
-30,125	7,985	953,004	511,074
-29,111	8,053	952,275	510,883
-28,096	7,973	951,658	510,273
-27,082	7,993	950,840	509,881
-26,067	7,874	950,192	509,130
-25,052	7,895	949,492	508,799
-24,038	7,943	948,587	508,451
-23,023	7,919	948,030	508,054
-22,009	7,954	947,421	507,818
-20,994	7,979	946,653	507,468
-19,979	7,914	946,257	507,027
-18,965	7,957	945,392	506,681
-17,950	7,960	945,013	506,468
-16,936	7,875	944,227	505,754
-15,921	7,905	943,498	505,440
-14,906	7,851	942,754	504,850
-13,892	7,866	942,228	504,594
-12,877	7,834	941,711	504,196
-11,863	7,797	941,024	503,691
-10,848	7,831	940,528	503,514
-9,833	7,919	940,076	503,532
-8,819	7,902	939,232	503,004
-7,804	7,824	938,755	502,483
-6,790	7,807	938,143	502,082
-5,775	7,909	937,395	501,984
-4,760	7,962	936,780	501,803
-3,746	7,903	936,247	501,310
-2,731	7,722	935,595	500,370
-1,717	7,653	935,104	499,868
-0,702	7,675	934,494	499,591
0,313	7,539	933,776	499,532
1,327	10,985	931,374	509,064
2,342	19,541	780,064	448,793
3,356	14,796	448,245	250,718
4,371	-11,172	312,358	147,114
5,386	-14,936	294,932	135,090
6,400	-16,959	289,126	130,412
7,415	-17,439	286,307	128,657
8,429	-18,104	284,370	127,127
9,444	-18,383	283,477	126,445
10,459	-18,171	282,863	126,365
11,473	-18,272	282,313	126,011
12,488	-18,105	281,709	125,891
13,502	-18,041	281,091	125,666
14,517	-18,008	280,740	125,529
15,531	-18,402	280,394	124,984
16,546	-18,167	279,873	124,966
17,561	-18,199	279,566	124,788
18,575	-18,151	279,301	124,704
19,590	-18,173	278,805	124,451
20,604	-18,139	278,600	124,381
21,619	-18,161	278,092	124,122
22,634	-18,130	277,816	124,018
23,648	-18,350	277,700	123,745
24,663	-18,060	277,491	123,917
25,677	-18,074	277,115	123,725
26,692	-18,119	276,899	123,575
27,707	-18,156	276,507	123,354
28,721	-17,963	276,165	123,372
29,736	-18,104	275,810	123,069
30,750	-18,089	275,658	123,004
31,765	-18,139	275,332	122,801
32,780	-18,125	275,195	122,743
33,794	-18,244	274,951	122,511
34,809	-17,954	274,620	122,625
35,823	-18,122	274,320	122,322
36,838	-18,211	274,104	122,132
37,853	-18,236	273,774	121,950
38,867	-18,185	273,740	121,972
39,882	-18,081	273,330	121,876
40,896	-18,057	273,222	121,839
41,911	-18,056	272,818	121,649
42,926	-18,096	272,656	121,528
43,940	-18,032	272,316	121,426
44,955	-18,148	272,195	121,253
45,969	-18,151	272,012	121,158
46,984	-18,136	271,780	121,057
47,999	-17,967	271,586	121,117
49,013	-17,784	271,364	121,178
50,028	-17,999	271,269	120,924
51,042	-17,904	270,833	120,807
52,057	-18,018	270,610	120,592
53,071	-17,718	270,366	120,750
54,086	-17,964	270,275	120,471
55,101	-17,835	270,034	120,471
56,115	-17,922	269,728	120,244
57,130	-17,895	269,285	120,062
58,144	-17,936	269,199	119,975
59,159	-17,974	268,835	119,767
60,174	-18,132	268,627	119,518
61,188	-18,220	268,455	119,351
62,203	-18,080	268,241	119,372
63,217	-17,812	267,978	119,490
64,232	-18,134	267,875	119,139
65,247	-18,099	267,497	118,993
66,261	-18,153	267,194	118,798
67,276	-18,089	267,145	118,823
68,290	-17,900	266,879	118,867
69,305	-17,786	266,651	118,858
70,320	-17,976	266,391	118,560
71,334	-18,095	266,197	118,355
72,349	-17,818	265,937	118,480
73,363	-18,043	265,615	118,121
74,378	-17,887	265,280	118,103
75,393	-17,996	265,269	117,989
76,407	-18,034	264,984	117,818
77,422	-17,906	264,916	117,893
78,436	-17,881	264,585	117,757
79,451	-17,846	264,522	117,751
80,466	-17,963	264,158	117,473
81,480	-17,938	263,989	117,409
82,495	-18,047	263,704	117,174
83,509	-17,929	263,597	117,221
84,524	-17,875	263,337	117,144
85,539	-17,944	263,202	117,012
86,553	-17,787	262,982	117,045
87,568	-17,941	262,751	116,793
88,582	-17,842	262,461	116,743
89,597	-17,989	262,350	116,551
90,611	-17,866	261,964	116,479
91,626	-17,870	261,982	116,473
92,641	-18,004	261,633	116,188
93,655	-17,943	261,506	116,176
94,670	-18,058	261,367	116,002
95,684	-18,012	260,948	115,846
96,699	-18,106	260,804	115,689
97,714	-17,944	260,667	115,761
98,728	-17,777	260,412	115,785
99,743	-17,751	260,309	115,753
100,757	-17,749	259,994	115,604
101,772	-17,814	259,794	115,447
102,787	-17,966	259,607	115,219
103,801	-17,714	259,200	115,251
104,816	-17,928	259,236	115,068
105,830	-18,055	259,100	114,885
106,845	-18,020	258,916	114,824
107,860	-17,787	258,567	114,864
108,874	-17,888	258,383	114,683
109,889	-17,904	258,174	114,566
110,903	-18,099	257,996	114,307
111,918	-17,830	257,746	114,421
112,933	-17,924	257,569	114,250
113,947	-17,858	257,297	114,177
114,962	-17,914	257,174	114,063
115,976	-17,955	257,031	113,954
116,991	-17,890	256,635	113,824
118,006	-17,723	256,653	113,968
119,020	-17,869	256,385	113,712
120,035	-17,886	256,307	113,652
121,049	-17,957	256,089	113,484
122,064	-18,023	255,972	113,364
123,079	-18,029	255,715	113,235
124,093	-17,896	255,518	113,253
125,108	-17,922	255,349	113,146
126,122	-17,915	255,206	113,078
127,137	-17,907	254,926	112,951
128,151	-17,823	254,786	112,952
129,166	-17,991	254,579	112,705
130,181	-17,828	254,357	112,737
131,195	-17,807	253,854	112,522
132,210	-17,824	253,888	112,512
133,224	-17,881	253,737	112,386
134,239	-17,967	253,608	112,245
135,254	-17,821	253,276	112,214
136,268	-17,942	253,091	112,018
137,283	-17,768	252,984	112,110
138,297	-17,868	252,725	111,899
139,312	-17,797	252,508	111,854
140,327	-17,836	252,208	111,677
141,341	-17,810	251,972	111,585
142,356	-17,830	251,944	111,546
143,370	-17,844	251,562	111,355
144,385	-17,849	251,499	111,313
145,400	-17,981	251,338	111,119
146,414	-18,039	251,241	111,018
147,429	-17,628	250,829	111,175
148,443	-17,831	250,869	111,010
149,458	-17,744	250,513	110,916
150,473	-17,831	250,422	110,792
151,487	-17,900	250,348	110,691
152,502	-17,955	249,987	110,475
153,516	-18,076	249,920	110,334
154,531	-17,920	249,705	110,361
155,546	-17,885	249,523	110,299
156,560	-17,751	249,265	110,289
157,575	-17,835	249,051	110,113
158,589	-17,919	248,942	109,985
159,604	-17,727	248,606	109,988
160,619	-17,738	248,314	109,840
161,633	-17,847	248,277	109,722
162,648	-17,881	248,193	109,647
163,662	-17,626	248,045	109,785
164,677	-17,717	247,840	109,609
165,692	-17,638	247,736	109,619
166,706	-17,881	247,438	109,274
167,721	-17,955	247,202	109,098
168,735	-17,788	247,145	109,202
169,750	-17,953	247,009	108,995
170,764	-17,865	246,833	108,981
171,779	-17,984	246,840	108,875
172,794	-17,761	246,584	108,939
173,808	-17,777	246,416	108,841
174,823	-17,856	246,262	108,698
175,837	-17,822	246,192	108,686
176,852	-17,656	245,878	108,675
177,867	-17,934	245,762	108,384
178,881	-17,709	245,637	108,505
179,896	-17,874	245,444	108,273
180,910	-17,866	245,192	108,159
181,925	-17,878	245,047	108,076
182,940	-17,730	244,820	108,089
183,954	-18,031	244,683	107,769
184,969	-17,688	244,367	107,904
185,983	-17,832	244,396	107,788
186,998	-17,892	244,201	107,643
188,013	-17,823	243,993	107,598
189,027	-17,888	243,796	107,449
190,042	-17,822	243,533	107,378
191,056	-17,924	243,461	107,253
192,071	-17,680	243,203	107,329
193,086	-17,749	243,026	107,185
194,100	-17,841	242,822	107,010
195,115	-17,634	242,588	107,067
196,129	-17,686	242,288	106,882
197,144	-17,991	242,352	106,651
198,159	-17,764	241,903	106,630
199,173	-17,699	241,843	106,647
200,188	-17,643	241,802	106,665
201,202	-17,417	241,702	106,795
202,217	-17,416	241,354	106,633
203,232	-17,628	241,331	106,441
204,246	-17,518	240,935	106,346
205,261	-17,599	240,883	106,248
206,275	-16,050	241,514	107,778
207,290	-11,381	243,086	112,293
208,304	-5,600	245,080	117,965
209,319	-3,218	245,447	120,092
210,334	-2,655	245,448	120,545
211,348	-1,832	245,692	121,331
212,363	-1,112	245,556	121,845
213,377	-0,715	245,898	122,330
214,392	-0,087	245,836	122,806
215,407	0,121	245,861	122,978
216,421	0,319	245,727	123,063
217,436	0,257	245,601	122,937
218,450	0,515	245,262	122,969
219,465	0,537	245,204	122,946
220,480	0,458	244,939	122,738
221,494	0,487	244,913	122,738
222,509	0,310	244,581	122,416
223,523	0,183	244,387	122,204
224,538	-0,023	244,293	121,978
225,553	0,036	243,965	121,851
226,567	0,003	243,827	121,745
227,582	0,105	243,686	121,747
228,596	-0,110	243,486	121,461
229,611	0,083	243,473	121,601
230,626	0,055	243,308	121,484
231,640	0,069	243,107	121,384
232,655	0,128	242,878	121,307
233,669	0,014	242,809	121,170
234,684	0,119	242,529	121,104
235,699	0,010	242,560	121,020
236,713	0,006	242,382	120,918
237,728	0,031	242,330	120,901
238,742	0,064	241,938	120,722
239,757	0,175	241,747	120,705
240,772	0,093	241,596	120,552
241,786	-0,074	241,459	120,339
242,801	0,127	241,228	120,375
243,815	-0,016	241,367	120,319
244,830	0,031	241,133	120,229
245,844	0,083	240,902	120,145
246,859	0,075	240,723	120,038
247,874	0,137	240,366	119,899
248,888	0,112	240,454	119,913
249,903	-0,113	240,273	119,632
250,917	0,214	240,108	119,800
251,932	0,295	239,967	119,784
252,947	0,187	239,775	119,591
253,961	0,165	239,637	119,494
254,976	-0,072	239,608	119,280
255,990	0,183	239,400	119,369
257,005	0,239	239,138	119,272
258,020	0,045	238,993	119,035
259,034	0,098	238,853	118,997
260,049	0,054	238,725	118,887
261,063	0,006	238,470	118,712
262,078	0,193	238,458	118,843
263,093	-0,129	238,208	118,453
264,107	0,110	238,170	118,613
265,122	0,010	237,849	118,364
266,136	0,186	237,839	118,487
267,151	0,048	237,763	118,330
268,166	0,324	237,433	118,373
269,180	0,052	237,155	118,009
270,195	0,238	237,196	118,166
271,209	0,016	236,766	117,766
272,224	0,043	236,959	117,873
273,239	0,072	236,705	117,759
274,253	0,169	236,505	117,725
275,268	0,107	236,475	117,651
276,282	0,191	236,218	117,579
277,297	0,057	236,134	117,421
278,312	0,236	235,874	117,421
279,326	0,196	235,818	117,352
280,341	0,143	235,622	117,203
281,355	0,286	235,487	117,237
282,370	0,108	235,406	117,047
283,384	0,136	235,219	116,966
284,399	0,074	235,004	116,800
285,414	0,191	234,733	116,746
286,428	0,104	234,756	116,679
287,443	0,040	234,657	116,570
288,457	0,394	234,499	116,756
289,472	0,261	234,337	116,561
290,487	0,270	234,108	116,444
291,501	0,001	234,055	116,198
292,516	0,319	233,702	116,260
293,530	0,297	233,654	116,208
294,545	0,441	233,493	116,229
295,560	0,247	233,497	116,070
296,574	0,398	233,074	115,967
297,589	0,017	233,230	115,739
298,603	0,264	232,911	115,762
299,618	0,176	232,883	115,669
300,633	0,346	232,746	115,722
301,647	0,373	232,602	115,661
302,662	0,328	232,513	115,572
303,676	0,331	232,242	115,429
304,691	0,477	232,136	115,478
305,706	0,376	231,886	115,266
306,720	0,162	231,794	115,046
307,735	0,177	231,755	115,028
308,749	0,285	231,629	115,038
309,764	0,614	231,439	115,186
310,779	0,441	231,265	114,956
311,793	0,374	231,001	114,764
312,808	0,260	230,862	114,597
313,822	0,477	230,657	114,651
314,837	0,352	230,664	114,548
315,852	0,322	230,313	114,340
316,866	0,544	230,277	114,482
317,881	0,221	230,228	114,201
318,895	0,525	230,089	114,354
319,910	0,425	229,808	114,128
320,925	0,607	229,730	114,217
321,939	0,336	229,570	113,922
322,954	0,516	229,389	113,959
323,968	0,424	229,401	113,884
324,983	0,358	229,324	113,786
325,997	0,604	228,816	113,710
327,012	0,525	228,876	113,670
328,027	0,504	228,676	113,545
329,041	0,365	228,500	113,342
330,056	0,680	228,321	113,482
331,070	0,525	228,365	113,375
332,085	0,326	228,204	113,136
333,100	0,450	227,934	113,085
334,114	0,303	227,840	112,918
335,129	0,646	227,619	113,056
336,143	0,595	227,396	112,897
337,158	0,720	227,318	112,942
338,173	0,526	227,373	112,814
339,187	0,552	227,253	112,763
340,202	0,567	226,956	112,617
341,216	0,935	226,849	112,830
342,231	0,663	226,626	112,505
343,246	0,698	226,552	112,485
344,260	0,557	226,405	112,296
345,275	0,724	226,339	112,378
346,289	0,673	226,119	112,221
347,304	0,791	225,992	112,236
348,319	0,744	225,760	112,076
349,333	0,668	225,749	112,003
350,348	0,642	225,561	111,881
351,362	0,712	225,454	111,870
352,377	0,753	225,353	111,840
353,392	0,879	225,057	111,778
354,406	0,682	225,104	111,644
355,421	192,021	1311,806	1377,017
356,435	153,797	1444,040	1376,846
