DTS Sentinel unit serial number:	SN410029Multiplexer serial number:	ORYXHardware model number:	OX2-SRSoftware version number:	ORYX F/W v4,00 Oryx Data Collector v3.7.2.0data status	okinstallation	B5 Nyhavnadifferential loss correction	single-endedforward channel	channel 2reverse channel	N/Adate	2023/12/14time	04:22:13forward acquisition time	300,00reverse acquisition time	0,00gamma	499,1914k internal	0,3156k external	0,3156temperature offset calibration	1,0000default loss term (dB/km)	0,3820temperature slope calibration	1,0000multiplexer offset coefficient	1,0000multiplexer slope coefficient	1,0000fibre end	0,00T internal ref (°C)	7,90T ext. ref 1 (°C)	-8,56T ext. ref 2 (°C)	-8,64length (m)	temperature (°C)	Stokes	anti-Stokes-744,400	367,806	0,052	0,077
-743,385	-141,194	-0,351	-0,026
-742,371	6,392	0,159	0,087
-741,356	-62,386	-0,264	-0,080
-740,342	203,479	0,103	0,117
-739,327	-114,479	-0,389	-0,055
-738,312	232,671	-0,046	0,056
-737,298	-56,600	-0,382	-0,124
-736,283	-35,866	0,211	-0,084
-735,269	-110,145	-0,365	-0,056
-734,254	7,034	0,217	0,119
-733,239	-42,870	-0,548	-0,204
-732,225	77,480	0,131	0,103
-731,210	32,554	-0,139	0,089
-730,196	465,649	0,009	-0,016
-729,181	163,438	-0,021	0,022
-728,167	214,899	-0,098	-0,115
-727,152	-40,529	-0,091	-0,035
-726,137	800,000	-0,031	-0,086
-725,123	341,322	-0,075	-0,109
-724,108	38,249	-0,151	-0,099
-723,094	166,714	-0,059	-0,061
-722,079	-200,000	-0,161	-0,001
-721,064	-69,155	0,130	-0,037
-720,050	235,304	-0,030	0,036
-719,035	593,590	0,037	0,067
-718,021	3,534	0,066	0,035
-717,006	35,778	-0,141	-0,091
-715,991	-200,000	0,016	-0,062
-714,977	800,000	-0,053	-0,133
-713,962	-104,500	0,104	-0,018
-712,948	-200,000	-0,005	0,099
-711,933	97,012	0,117	0,099
-710,918	-97,105	-0,061	0,012
-709,904	270,353	-0,034	-0,044
-708,889	-200,000	-0,024	-0,165
-707,875	-200,000	0,003	-0,011
-706,860	121,465	-0,045	-0,041
-705,845	800,000	-0,041	-0,090
-704,831	266,107	-0,061	0,078
-703,816	-200,000	0,011	0,073
-702,802	-200,000	0,000	0,020
-701,787	219,752	0,086	-0,102
-700,772	-29,577	-0,147	0,061
-699,758	733,437	-0,051	-0,101
-698,743	-114,775	0,121	0,017
-697,729	53,504	0,038	-0,027
-696,714	43,959	0,054	0,037
-695,699	311,644	-0,087	-0,120
-694,685	-128,853	-0,039	0,004
-693,670	-165,481	0,174	-0,005
-692,656	12,584	-0,143	0,081
-691,641	-113,104	0,114	-0,016
-690,627	292,835	0,129	0,173
-689,612	166,718	-0,029	0,030
-688,597	64,056	-0,004	0,003
-687,583	612,748	-0,077	-0,143
-686,568	-119,316	0,003	0,000
-685,554	72,116	-0,084	-0,064
-684,539	-113,278	0,148	-0,021
-683,524	103,356	0,099	-0,086
-682,510	-97,592	0,018	-0,003
-681,495	50,335	-0,077	-0,054
-680,481	203,981	-0,147	-0,168
-679,466	-200,000	0,011	0,069
-678,451	-200,000	0,019	0,131
-677,437	-200,000	-0,032	0,166
-676,422	800,000	0,045	-0,106
-675,408	294,080	0,076	0,103
-674,393	-133,600	0,093	0,008
-673,378	-126,987	0,084	-0,009
-672,364	122,942	-0,059	-0,054
-671,349	-109,153	-0,151	0,023
-670,335	741,460	0,063	-0,125
-669,320	-20,963	0,107	-0,048
-668,305	-8,770	0,085	-0,042
-667,291	-200,000	-0,006	-0,083
-666,276	-200,000	0,005	-0,161
-665,262	746,618	-0,038	-0,075
-664,247	-200,000	0,011	0,060
-663,232	127,023	0,064	-0,060
-662,218	7,382	-0,107	-0,059
-661,203	-200,000	0,002	0,119
-660,189	-122,178	-0,050	-0,006
-659,174	-33,476	-0,131	0,053
-658,159	-22,728	-0,093	0,041
-657,145	-200,000	0,002	-0,007
-656,130	-200,000	-0,006	-0,039
-655,116	-46,045	0,116	-0,042
-654,101	92,588	0,059	0,049
-653,086	-200,000	0,009	-0,062
-652,072	-155,019	0,137	0,007
-651,057	800,000	-0,065	-0,134
-650,043	-94,695	-0,179	0,035
-649,028	-200,000	0,001	-0,015
-648,014	-159,060	-0,039	-0,002
-646,999	-138,542	-0,163	0,013
-645,984	266,408	-0,042	-0,054
-644,970	204,089	0,010	-0,011
-643,955	-186,739	-0,116	-0,001
-642,941	-32,521	-0,080	0,033
-641,926	-200,000	0,005	-0,125
-640,911	18,525	0,077	-0,045
-639,897	-200,000	0,007	0,072
-638,882	-200,000	0,018	-0,096
-637,868	81,035	-0,082	0,065
-636,853	225,904	-0,083	-0,099
-635,838	314,638	-0,036	-0,050
-634,824	304,110	-0,031	-0,042
-633,809	800,000	-0,053	-0,142
-632,795	-67,015	0,026	0,008
-631,780	-200,000	-0,019	-0,101
-630,765	21,165	-0,086	-0,051
-629,751	-15,690	-0,045	-0,021
-628,736	109,453	-0,041	0,036
-627,722	-200,000	-0,012	0,046
-626,707	-200,000	0,026	0,090
-625,692	210,603	-0,104	-0,120
-624,678	-200,000	-0,022	0,106
-623,663	-163,330	-0,067	0,002
-622,649	-200,000	-0,026	-0,142
-621,634	800,000	-0,057	-0,137
-620,619	151,299	0,012	-0,012
-619,605	-109,736	-0,154	0,023
-618,590	482,171	0,060	0,101
-617,576	-200,000	0,024	0,087
-616,561	800,000	-0,054	-0,131
-615,546	-40,382	0,033	-0,013
-614,532	95,511	-0,111	-0,093
-613,517	-200,000	-0,039	-0,144
-612,503	-51,744	0,064	0,022
-611,488	319,956	0,019	-0,026
-610,474	-37,524	0,063	0,024
-609,459	15,975	-0,063	0,037
-608,444	82,482	-0,072	-0,057
-607,430	800,000	-0,023	-0,063
-606,415	-200,000	0,036	-0,128
-605,401	54,076	0,127	-0,089
-604,386	800,000	0,038	0,093
-603,371	290,375	-0,036	0,049
-602,357	226,945	-0,013	-0,016
-601,342	-200,000	-0,034	-0,160
-600,328	-155,404	0,064	-0,003
-599,313	60,543	0,014	-0,010
-598,298	-92,590	0,061	-0,012
-597,284	9,593	0,128	-0,071
-596,269	166,055	-0,064	0,066
-595,255	17,493	-0,107	0,062
-594,240	730,426	-0,049	0,096
-593,225	800,000	0,043	-0,116
-592,211	800,000	0,030	-0,088
-591,196	800,000	-0,008	0,026
-590,182	336,207	0,051	-0,073
-589,167	362,988	0,051	-0,075
-588,152	-120,183	-0,124	-0,015
-587,138	319,468	0,128	0,178
-586,123	62,167	-0,034	0,025
-585,109	549,920	0,071	0,125
-584,094	-74,553	-0,048	0,013
-583,079	219,020	0,085	0,099
-582,065	-200,000	0,012	-0,067
-581,050	678,486	-0,032	0,062
-580,036	172,981	-0,032	0,034
-579,021	397,044	-0,074	0,114
-578,006	-39,706	-0,056	-0,021
-576,992	134,901	0,128	0,122
-575,977	139,630	-0,034	0,033
-574,963	-131,118	-0,037	-0,004
-573,948	3,320	-0,145	0,077
-572,934	64,286	-0,010	0,007
-571,919	-91,515	0,161	-0,033
-570,904	-176,884	-0,130	-0,002
-569,890	199,009	0,073	-0,082
-568,875	430,903	-0,062	0,098
-567,861	-73,219	0,033	0,009
-566,846	800,000	-0,059	0,144
-565,831	68,806	0,084	-0,063
-564,817	-159,083	-0,148	-0,006
-563,802	176,999	0,076	-0,081
-562,788	-85,459	0,151	-0,034
-561,773	52,615	-0,045	0,032
-560,758	645,570	0,041	0,077
-559,744	800,000	-0,081	0,196
-558,729	-200,000	-0,003	0,044
-557,715	327,902	-0,113	-0,159
-556,700	7,503	-0,130	-0,071
-555,685	-200,000	-0,008	0,075
-554,671	-200,000	0,005	0,084
-553,656	-200,000	0,017	0,120
-552,642	165,955	0,019	-0,020
-551,627	-57,176	-0,022	-0,007
-550,612	-108,254	-0,060	0,009
-549,598	361,082	-0,046	-0,068
-548,583	642,262	0,018	-0,033
-547,569	4,734	0,129	0,069
-546,554	-12,374	-0,046	-0,022
-545,539	255,120	0,018	-0,023
-544,525	140,258	0,149	0,144
-543,510	-200,000	-0,023	0,092
-542,496	241,485	0,038	-0,047
-541,481	-120,812	0,068	-0,008
-540,466	-88,647	0,032	-0,007
-539,452	-44,845	0,040	0,014
-538,437	-28,407	-0,055	-0,023
-537,423	-3,812	-0,045	0,023
-536,408	342,775	-0,070	0,100
-535,393	343,461	-0,021	-0,030
-534,379	28,806	0,062	0,038
-533,364	800,000	-0,011	-0,033
-532,350	463,257	0,008	0,014
-531,335	-45,656	-0,033	0,012
-530,321	293,347	-0,079	-0,106
-529,306	800,000	0,043	-0,104
-528,291	-75,460	-0,098	0,025
-527,277	800,000	-0,037	0,103
-526,262	33,407	-0,010	0,006
-525,248	-191,709	0,156	0,001
-524,233	61,879	0,113	0,083
-523,218	-36,227	0,072	-0,028
-522,204	-200,000	0,012	-0,098
-521,189	78,238	-0,070	-0,055
-520,175	-200,000	-0,032	0,116
-519,160	-200,000	-0,049	-0,161
-518,145	11,526	0,054	-0,030
-517,131	269,300	0,103	-0,133
-516,116	358,835	0,099	0,145
-515,102	104,370	-0,098	-0,085
-514,087	800,000	-0,020	-0,043
-513,072	-200,000	-0,049	0,166
-512,058	-200,000	-0,026	-0,098
-511,043	800,000	0,023	0,068
-510,029	64,603	0,058	0,042
-509,014	-39,881	0,035	0,013
-507,999	91,252	0,055	-0,045
-506,985	-184,544	-0,067	0,001
-505,970	-200,000	-0,005	0,019
-504,956	-200,000	-0,003	-0,084
-503,941	561,474	0,038	0,067
-502,926	220,457	-0,082	0,096
-501,912	35,372	0,082	0,053
-500,897	92,844	0,036	0,029
-499,883	-126,671	-0,070	0,007
-498,868	-39,924	-0,059	-0,022
-497,853	79,768	0,068	-0,053
-496,839	355,650	0,078	-0,114
-495,824	-138,183	0,086	-0,007
-494,810	224,764	-0,094	0,111
-493,795	-25,846	0,092	-0,039
-492,781	-134,333	-0,041	0,004
-491,766	-166,601	0,135	0,004
-490,751	617,469	-0,076	-0,139
-489,737	113,598	0,074	-0,066
-488,722	-200,000	0,023	0,121
-487,708	-135,389	0,067	0,006
-486,693	800,000	-0,030	-0,077
-485,678	800,000	-0,015	-0,037
-484,664	351,479	0,076	-0,110
-483,649	-83,533	-0,069	-0,016
-482,635	-25,438	0,096	0,041
-481,620	186,022	-0,012	0,013
-480,605	-114,862	0,056	-0,008
-479,591	560,200	0,020	0,036
-478,576	-0,695	0,077	0,040
-477,562	37,266	-0,088	0,057
-476,547	-78,200	-0,064	0,016
-475,532	218,557	-0,002	-0,002
-474,518	800,000	-0,034	0,073
-473,503	219,645	0,067	0,078
-472,489	227,399	-0,066	0,079
-471,474	-200,000	0,006	-0,105
-470,459	241,682	0,062	-0,076
-469,445	118,169	-0,079	-0,071
-468,430	-164,982	-0,082	0,003
-467,416	-25,206	0,226	-0,097
-466,401	-42,728	-0,074	-0,027
-465,386	7,240	-0,012	-0,007
-464,372	-200,000	0,012	0,042
-463,357	274,315	0,077	-0,099
-462,343	-111,799	-0,025	0,004
-461,328	800,000	-0,016	-0,047
-460,313	-198,765	-0,050	-0,000
-459,299	-200,000	0,008	-0,030
-458,284	-200,000	0,014	-0,062
-457,270	449,704	-0,014	0,023
-456,255	-200,000	0,010	-0,048
-455,241	7,735	-0,022	-0,012
-454,226	-15,448	-0,094	-0,044
-453,211	379,127	-0,027	0,041
-452,197	-54,088	0,124	-0,041
-451,182	-39,140	0,055	0,021
-450,168	203,345	-0,032	0,036
-449,153	-90,185	0,058	-0,012
-448,138	800,000	-0,024	-0,061
-447,124	106,906	-0,139	-0,120
-446,109	800,000	0,031	0,080
-445,095	800,000	-0,046	0,102
-444,080	-106,762	0,098	-0,016
-443,065	-200,000	-0,036	-0,249
-442,051	800,000	0,074	0,150
-441,036	-143,124	0,114	0,008
-440,022	82,901	-0,064	-0,050
-439,007	415,204	0,026	-0,041
-437,992	-112,097	0,025	0,004
-436,978	-200,000	-0,027	-0,106
-435,963	641,271	0,037	0,069
-434,949	-200,000	-0,009	-0,105
-433,934	-130,258	-0,172	0,017
-432,919	168,497	0,083	0,086
-431,905	-200,000	-0,004	-0,160
-430,890	800,000	0,018	0,044
-429,876	-71,144	-0,097	0,026
-428,861	-200,000	0,002	0,039
-427,846	800,000	0,009	-0,019
-426,832	362,150	-0,035	0,051
-425,817	228,285	-0,058	-0,069
-424,803	26,274	-0,062	0,037
-423,788	-50,630	0,149	0,051
-422,773	-200,000	0,034	0,143
-421,759	473,395	-0,033	0,054
-420,744	-75,687	0,039	0,010
-419,730	-132,746	-0,213	-0,020
-418,715	170,314	0,044	-0,046
-417,701	-32,405	-0,114	-0,046
-416,686	-171,054	0,066	-0,002
-415,671	475,491	0,061	0,101
-414,657	561,632	-0,041	-0,073
-413,642	534,774	0,054	0,094
-412,628	181,183	0,033	0,036
-411,613	-200,000	0,014	0,151
-410,598	-200,000	-0,016	0,148
-409,584	800,000	0,063	0,195
-408,569	-200,000	0,028	-0,148
-407,555	800,000	-0,010	0,027
-406,540	19,700	-0,032	-0,019
-405,525	-10,150	0,095	-0,046
-404,511	-200,000	0,008	-0,046
-403,496	315,332	0,035	0,048
-402,482	-14,465	-0,057	0,027
-401,467	213,416	0,091	0,104
-400,452	-200,000	-0,026	0,093
-399,438	191,510	0,017	-0,018
-398,423	224,809	-0,087	-0,103
-397,409	800,000	-0,046	-0,107
-396,394	211,316	-0,124	-0,142
-395,379	786,941	0,020	-0,041
-394,365	113,843	0,078	0,069
-393,350	14,024	0,132	-0,074
-392,336	-146,167	-0,144	-0,009
-391,321	53,981	0,097	0,067
-390,306	-154,610	-0,122	-0,006
-389,292	-200,000	-0,013	0,074
-388,277	193,042	-0,026	0,029
-387,263	-1,742	0,061	-0,031
-386,248	414,332	-0,042	0,066
-385,233	-200,000	0,010	0,076
-384,219	-45,208	-0,008	-0,003
-383,204	516,424	0,013	0,022
-382,190	800,000	0,026	-0,070
-381,175	128,404	-0,126	0,117
-380,160	-30,689	-0,088	-0,036
-379,146	-193,220	0,194	0,001
-378,131	-54,874	-0,047	-0,015
-377,117	-6,407	-0,041	-0,020
-376,102	260,305	0,099	0,124
-375,088	255,788	-0,052	-0,065
-374,073	800,000	0,046	-0,146
-373,058	253,621	0,030	0,038
-372,044	98,202	-0,067	0,056
-371,029	-82,670	-0,100	0,023
-370,015	-200,000	0,014	0,097
-369,000	20,143	-0,255	-0,149
-367,985	18,604	-0,054	-0,031
-366,971	470,792	0,056	-0,092
-365,956	800,000	-0,049	0,100
-364,942	-43,837	0,125	-0,045
-363,927	800,000	-0,018	-0,044
-362,912	-71,279	-0,096	-0,026
-361,898	-200,000	0,017	0,070
-360,883	71,720	-0,087	0,065
-359,869	-106,226	0,047	-0,008
-358,854	-200,000	-0,000	-0,087
-357,839	-200,000	0,010	0,060
-356,825	-104,445	0,063	-0,010
-355,810	-200,000	-0,013	0,042
-354,796	-200,000	0,004	0,133
-353,781	33,643	-0,068	-0,043
-352,766	-183,226	0,080	0,001
-351,752	-200,000	0,005	-0,172
-350,737	94,942	-0,063	0,052
-349,723	47,917	0,044	-0,030
-348,708	292,220	-0,026	0,034
-347,693	-200,000	0,006	-0,093
-346,679	-79,190	0,057	-0,014
-345,664	-200,000	0,018	0,081
-344,650	-21,245	-0,169	-0,075
-343,635	167,104	0,027	0,028
-342,620	67,676	0,090	0,067
-341,606	686,744	0,094	0,180
-340,591	17,625	0,142	0,082
-339,577	121,815	-0,109	-0,099
-338,562	79,289	-0,113	-0,088
-337,548	-200,000	0,010	0,091
-336,533	164,283	0,065	0,067
-335,518	-200,000	-0,022	0,111
-334,504	34,246	-0,049	-0,031
-333,489	186,731	-0,018	-0,020
-332,475	-200,000	-0,025	-0,103
-331,460	453,585	-0,034	-0,055
-330,445	92,140	-0,038	0,031
-329,431	-54,460	0,054	0,018
-328,416	-162,303	0,217	0,008
-327,402	800,000	-0,032	-0,075
-326,387	-117,646	0,021	0,003
-325,372	59,662	0,020	-0,014
-324,358	1,990	-0,045	-0,024
-323,343	-200,000	-0,001	0,139
-322,329	652,209	0,022	0,042
-321,314	120,032	0,081	0,073
-320,299	-31,942	0,080	0,033
-319,285	-200,000	-0,009	-0,078
-318,270	16,808	0,097	-0,055
-317,256	-200,000	0,020	-0,236
-316,241	23,495	0,079	-0,047
-315,226	-200,000	-0,032	0,130
-314,212	-180,888	0,137	0,002
-313,197	-144,703	-0,068	0,004
-312,183	377,379	0,097	0,144
-311,168	-19,389	0,099	-0,044
-310,153	505,103	-0,069	-0,116
-309,139	-200,000	0,027	-0,143
-308,124	562,776	0,046	-0,081
-307,110	800,000	0,053	-0,141
-306,095	800,000	0,053	0,115
-305,080	250,904	0,087	-0,107
-304,066	-98,145	-0,100	-0,019
-303,051	-97,727	-0,108	0,020
-302,037	682,641	-0,017	0,033
-301,022	-200,000	0,031	0,130
-300,008	-12,109	0,094	0,045
-298,993	-181,077	0,113	-0,002
-297,978	241,254	-0,157	0,190
-296,964	-200,000	0,005	-0,059
-295,949	800,000	-0,044	0,122
-294,935	800,000	-0,040	0,085
-293,920	37,010	-0,021	-0,014
-292,905	-164,086	0,132	0,004
-291,891	-43,136	-0,177	0,064
-290,876	-147,765	-0,043	-0,003
-289,862	-24,515	-0,075	-0,032
-288,847	-200,000	-0,002	-0,039
-287,832	-155,847	0,046	0,002
-286,818	-200,000	0,018	-0,123
-285,803	-200,000	0,010	0,041
-284,789	-51,682	0,092	-0,031
-283,774	165,460	-0,124	-0,128
-282,759	607,335	-0,072	-0,131
-281,745	800,000	0,043	-0,090
-280,730	-126,723	-0,158	-0,017
-279,716	282,187	0,048	-0,062
-278,701	-200,000	0,003	0,068
-277,686	16,729	0,102	0,059
-276,672	-103,558	0,108	-0,018
-275,657	-154,136	0,105	-0,005
-274,643	25,124	0,117	-0,070
-273,628	-131,729	-0,129	-0,012
-272,613	1,661	-0,089	-0,046
-271,599	-200,000	0,028	-0,149
-270,584	-200,000	-0,015	0,055
-269,570	14,902	0,057	-0,032
-268,555	-93,553	-0,065	-0,013
-267,540	402,213	-0,056	-0,085
-266,526	205,328	0,037	-0,042
-265,511	-200,000	0,007	-0,086
-264,497	8,640	-0,068	0,037
-263,482	162,566	0,049	0,049
-262,467	800,000	0,044	0,109
-261,453	395,110	-0,092	0,139
-260,438	151,235	0,112	0,111
-259,424	-51,447	-0,077	-0,026
-258,409	-200,000	0,022	-0,130
-257,395	349,739	0,060	0,087
-256,380	-92,887	-0,133	-0,027
-255,365	800,000	-0,042	0,088
-254,351	-200,000	-0,006	0,031
-253,336	800,000	-0,024	-0,075
-252,322	-60,375	0,028	0,009
-251,307	-136,775	0,101	-0,008
-250,292	-200,000	0,017	0,205
-249,278	401,530	-0,072	-0,109
-248,263	164,690	0,045	0,046
-247,249	340,115	0,113	-0,159
-246,234	-81,746	0,035	-0,008
-245,219	-10,451	0,066	0,032
-244,205	237,246	-0,073	-0,088
-243,190	-6,004	0,034	0,017
-242,176	-17,744	-0,074	0,034
-241,161	782,015	-0,033	0,065
-240,146	-200,000	-0,014	-0,057
-239,132	-100,762	0,058	0,010
-238,117	-8,394	0,061	-0,030
-237,103	18,009	0,051	-0,029
-236,088	-94,068	0,058	-0,011
-235,073	302,861	-0,091	0,122
-234,059	226,014	0,066	0,077
-233,044	10,869	0,194	0,107
-232,030	-200,000	0,041	0,136
-231,015	89,371	0,071	-0,057
-230,000	-200,000	0,015	0,068
-228,986	-28,788	-0,057	-0,024
-227,971	-200,000	0,011	0,100
-226,957	-96,290	0,095	0,018
-225,942	-200,000	0,010	0,135
-224,927	11,571	0,104	0,057
-223,913	-84,371	-0,103	-0,023
-222,898	-30,801	0,033	-0,013
-221,884	-200,000	-0,002	0,052
-220,869	2,098	-0,086	0,045
-219,855	4,966	0,072	0,038
-218,840	-200,000	0,010	0,061
-217,825	329,883	0,053	-0,073
-216,811	17,447	-0,102	-0,058
-215,796	-200,000	-0,028	-0,190
-214,782	-200,000	0,007	0,040
-213,767	393,730	-0,048	0,072
-212,752	-103,157	0,137	0,023
-211,738	63,737	-0,072	0,053
-210,723	-160,433	0,068	-0,003
-209,709	460,905	-0,097	0,157
-208,694	-200,000	-0,011	0,130
-207,679	-87,470	0,013	0,003
-206,665	-80,330	0,198	0,047
-205,650	300,221	-0,067	0,089
-204,636	244,053	0,053	-0,065
-203,621	331,865	-0,083	0,116
-202,606	-150,588	0,067	-0,004
-201,592	188,980	-0,064	-0,069
-200,577	-200,000	0,034	-0,140
-199,563	-179,668	0,076	-0,001
-198,548	-62,283	0,159	0,047
-197,533	-200,000	-0,008	0,077
-196,519	-116,227	-0,238	0,031
-195,504	-200,000	0,001	0,086
-194,490	305,499	-0,060	-0,081
-193,475	317,939	-0,086	-0,118
-192,460	-200,000	-0,043	-0,154
-191,446	800,000	-0,039	0,107
-190,431	-200,000	0,006	0,050
-189,417	800,000	0,021	0,063
-188,402	-126,288	-0,049	-0,005
-187,387	562,082	0,057	-0,100
-186,373	103,065	-0,014	0,012
-185,358	800,000	0,054	-0,144
-184,344	-200,000	0,021	0,094
-183,329	613,496	0,032	0,058
-182,315	-89,971	-0,056	-0,012
-181,300	432,069	0,036	-0,056
-180,285	-69,373	-0,172	-0,047
-179,271	232,945	0,039	-0,047
-178,256	251,208	-0,037	-0,046
-177,242	22,036	0,049	-0,029
-176,227	92,602	0,007	0,006
-175,212	23,896	0,089	0,053
-174,198	-200,000	0,038	0,171
-173,183	18,853	-0,046	-0,026
-172,169	800,000	0,049	-0,105
-171,154	0,332	-0,097	-0,050
-170,139	-65,795	0,061	-0,017
-169,125	-200,000	-0,001	0,102
-168,110	-200,000	0,020	0,104
-167,096	5,321	0,061	0,032
-166,081	-107,073	-0,076	0,012
-165,066	-33,813	-0,127	-0,050
-164,052	10,853	-0,109	-0,060
-163,037	-5,204	0,071	0,035
-162,023	-105,007	-0,046	0,007
-161,008	-132,711	0,065	-0,006
-159,993	-200,000	0,002	-0,076
-158,979	-200,000	0,002	-0,105
-157,964	515,932	-0,067	-0,113
-156,950	407,691	0,050	0,077
-155,935	460,374	0,036	0,058
-154,920	5,491	-0,084	0,045
-153,906	-164,463	-0,080	-0,003
-152,891	102,261	0,095	-0,080
-151,877	-23,369	0,136	0,058
-150,862	-171,949	-0,208	0,005
-149,847	-33,199	-0,027	-0,011
-148,833	3,364	-0,070	-0,036
-147,818	-136,885	-0,077	0,006
-146,804	800,000	0,041	0,101
-145,789	529,603	0,118	0,202
-144,775	-43,961	-0,042	-0,015
-143,760	-200,000	0,001	-0,038
-142,745	-200,000	0,002	-0,046
-141,731	-194,263	-0,042	0,000
-140,716	-137,907	0,132	-0,010
-139,702	-140,289	0,135	-0,010
-138,687	226,090	-0,059	0,069
-137,672	-107,861	-0,069	0,011
-136,658	277,890	0,036	-0,047
-135,643	38,599	0,053	-0,034
-134,629	-8,438	0,097	-0,047
-133,614	-200,000	0,021	-0,097
-132,599	307,422	0,122	0,164
-131,585	51,701	0,042	0,028
-130,570	-123,161	-0,074	0,008
-129,556	286,574	-0,054	0,070
-128,541	139,828	0,076	0,073
-127,526	-63,373	0,060	0,018
-126,512	488,464	-0,006	0,009
-125,497	187,349	-0,008	-0,009
-124,483	-200,000	0,027	0,157
-123,468	54,142	0,033	-0,023
-122,453	5,858	0,117	-0,062
-121,439	15,868	0,142	0,080
-120,424	-59,738	-0,051	0,016
-119,410	-200,000	0,000	-0,006
-118,395	303,369	-0,064	0,085
-117,380	-88,275	0,101	0,022
-116,366	800,000	-0,063	0,161
-115,351	-1,607	-0,093	-0,047
-114,337	-200,000	-0,006	-0,034
-113,322	-115,572	-0,087	-0,012
-112,307	-75,422	0,195	-0,050
-111,293	800,000	0,045	0,106
-110,278	-75,089	0,081	0,021
-109,264	800,000	0,036	0,093
-108,249	800,000	0,054	0,119
-107,234	529,568	-0,059	-0,100
-106,220	-113,827	-0,063	-0,009
-105,205	26,055	-0,068	0,041
-104,191	-139,746	0,091	0,007
-103,176	55,747	0,189	0,132
-102,162	-27,904	-0,183	-0,076
-101,147	800,000	0,043	0,094
-100,132	-74,378	0,016	0,004
-99,118	-200,000	-0,021	0,107
-98,103	82,633	-0,057	-0,045
-97,089	-200,000	0,013	0,079
-96,074	352,689	0,048	0,069
-95,059	-94,376	-0,080	-0,016
-94,045	-114,117	0,064	0,009
-93,030	547,420	-0,014	-0,025
-92,016	-200,000	-0,009	0,039
-91,001	800,000	0,009	-0,023
-89,986	-63,792	0,083	-0,024
-88,972	207,806	0,151	0,169
-87,957	-200,000	0,003	0,098
-86,943	-77,177	0,110	0,027
-85,928	-75,001	-0,019	0,005
-84,913	182,060	0,006	0,006
-83,899	252,709	0,073	-0,089
-82,884	-157,053	0,063	0,003
-81,870	-87,138	0,071	-0,015
-80,855	37,788	0,062	0,040
-79,840	-200,000	-0,039	0,147
-78,826	-200,000	-0,020	0,212
-77,811	90,230	-0,091	0,073
-76,797	80,568	-0,108	0,083
-75,782	126,756	0,057	0,052
-74,767	-60,065	-0,046	0,014
-73,753	94,804	-0,144	0,117
-72,738	-45,047	0,140	0,050
-71,724	-200,000	-0,000	-0,030
-70,709	-112,100	0,140	-0,020
-69,694	-106,999	-0,108	0,017
-68,680	-134,541	0,071	0,006
-67,665	293,074	0,101	0,133
-66,651	266,637	0,164	0,206
-65,636	-200,000	-0,015	-0,058
-64,622	-129,613	0,097	-0,009
-63,607	-183,138	0,025	-0,000
-62,592	343,422	0,091	0,129
-61,578	-54,923	0,034	-0,011
-60,563	311,092	0,016	-0,022
-59,549	480,090	0,051	0,084
-58,534	108,112	-2,560	-2,191
-57,519	115,749	0,313	-0,275
-56,505	-200,000	-1,560	-5,613
-55,490	383,875	1,239	1,837
-54,476	800,000	5,094	11,299
-53,461	-200,000	22,457	348,092
-52,446	800,000	759,699	2291,852
-51,432	512,838	1643,780	2760,672
-50,417	96,716	1606,642	1320,541
-49,403	64,443	1264,187	913,254
-48,388	22,792	1016,497	596,335
-47,373	19,571	983,860	566,550
-46,359	12,943	971,186	537,565
-45,344	8,517	967,906	521,239
-44,330	9,062	965,710	521,821
-43,315	8,058	963,926	517,557
-42,300	7,926	962,961	516,587
-41,286	7,924	962,021	516,054
-40,271	7,934	961,139	515,594
-39,257	7,926	960,124	515,002
-38,242	7,925	959,052	514,406
-37,227	7,909	958,336	513,950
-36,213	7,942	957,364	513,514
-35,198	7,967	956,542	513,132
-34,184	7,963	955,947	512,782
-33,169	7,932	955,040	512,175
-32,154	7,943	954,015	511,638
-31,140	7,950	953,314	511,265
-30,125	8,006	952,504	510,992
-29,111	7,928	951,722	510,301
-28,096	8,007	951,028	510,163
-27,082	8,010	950,220	509,718
-26,067	7,908	949,756	509,120
-25,052	7,909	948,786	508,584
-24,038	7,901	948,062	508,151
-23,023	7,827	947,771	507,736
-22,009	7,914	947,015	507,589
-20,994	7,917	946,321	507,208
-19,979	7,940	945,864	507,016
-18,965	7,882	944,994	506,344
-17,950	7,952	944,354	506,206
-16,936	7,905	943,616	505,641
-15,921	7,869	943,082	505,220
-14,906	7,842	942,268	504,677
-13,892	7,887	941,665	504,476
-12,877	7,813	941,065	503,898
-11,863	7,730	940,643	503,389
-10,848	7,800	940,057	503,278
-9,833	7,897	939,541	503,292
-8,819	7,879	938,948	502,896
-7,804	7,818	938,090	502,224
-6,790	7,854	937,500	502,000
-5,775	7,891	936,958	501,807
-4,760	7,928	936,401	501,606
-3,746	7,841	935,768	500,972
-2,731	7,696	935,069	500,119
-1,717	7,698	934,483	499,794
-0,702	7,661	933,844	499,314
0,313	7,554	933,100	499,332
1,327	10,947	930,864	508,783
2,342	19,581	779,084	448,436
3,356	14,523	447,480	249,935
4,371	-11,977	312,223	146,223
5,386	-15,654	294,765	134,318
6,400	-17,815	288,498	129,311
7,415	-17,738	285,843	128,185
8,429	-18,447	284,238	126,763
9,444	-18,441	283,315	126,346
10,459	-18,308	282,672	126,176
11,473	-18,386	282,046	125,811
12,488	-18,179	281,551	125,778
13,502	-18,240	281,119	125,515
14,517	-18,101	280,688	125,445
15,531	-18,396	280,317	124,985
16,546	-18,034	279,973	125,168
17,561	-17,947	279,460	125,011
18,575	-18,119	279,253	124,742
19,590	-18,161	278,779	124,480
20,604	-18,241	278,617	124,320
21,619	-18,032	278,092	124,273
22,634	-18,023	277,901	124,185
23,648	-18,088	277,540	123,951
24,663	-18,115	277,290	123,803
25,677	-18,033	277,070	123,772
26,692	-18,088	276,786	123,582
27,707	-18,063	276,486	123,460
28,721	-18,132	276,286	123,295
29,736	-18,043	275,917	123,203
30,750	-17,997	275,673	123,126
31,765	-18,197	275,591	122,890
32,780	-18,059	275,162	122,818
33,794	-18,073	274,964	122,706
34,809	-17,987	274,878	122,737
35,823	-18,137	274,451	122,395
36,838	-17,912	274,104	122,440
37,853	-17,910	273,824	122,306
38,867	-18,061	273,679	122,088
39,882	-18,024	273,500	122,033
40,896	-17,933	273,019	121,892
41,911	-18,017	272,991	121,790
42,926	-17,909	272,731	121,764
43,940	-18,158	272,566	121,447
44,955	-18,108	272,240	121,339
45,969	-18,146	272,201	121,275
46,984	-17,864	271,752	121,326
47,999	-17,889	271,565	121,208
49,013	-17,725	271,401	121,276
50,028	-17,782	271,153	121,101
51,042	-17,805	270,925	120,968
52,057	-17,809	270,630	120,822
53,071	-17,858	270,502	120,709
54,086	-17,855	270,323	120,620
55,101	-17,890	270,108	120,482
56,115	-17,871	269,759	120,332
57,130	-18,122	269,598	120,019
58,144	-18,180	269,311	119,827
59,159	-18,079	269,066	119,800
60,174	-18,277	268,821	119,499
61,188	-17,971	268,503	119,627
62,203	-18,033	268,439	119,532
63,217	-17,947	268,089	119,444
64,232	-18,097	268,015	119,262
65,247	-18,107	267,548	119,035
66,261	-18,141	267,383	118,920
67,276	-18,012	267,207	118,949
68,290	-17,952	266,989	118,896
69,305	-17,990	266,755	118,746
70,320	-17,890	266,597	118,757
71,334	-17,958	266,266	118,537
72,349	-18,033	265,991	118,336
73,363	-17,970	265,751	118,276
74,378	-17,909	265,364	118,148
75,393	-17,860	265,301	118,153
76,407	-17,997	265,140	117,947
77,422	-18,002	264,902	117,826
78,436	-17,934	264,772	117,819
79,451	-18,076	264,610	117,609
80,466	-17,891	264,095	117,536
81,480	-17,960	264,040	117,439
82,495	-18,038	263,804	117,253
83,509	-17,918	263,578	117,251
84,524	-17,821	263,399	117,247
85,539	-17,889	263,152	117,066
86,553	-17,909	262,968	116,956
87,568	-17,802	262,696	116,920
88,582	-17,874	262,482	116,750
89,597	-18,028	262,292	116,518
90,611	-18,029	262,124	116,432
91,626	-18,111	261,953	116,272
92,641	-18,036	261,876	116,294
93,655	-17,955	261,629	116,247
94,670	-17,953	261,373	116,124
95,684	-17,846	261,149	116,110
96,699	-18,021	260,960	115,860
97,714	-18,080	260,741	115,700
98,728	-17,901	260,516	115,748
99,743	-17,815	260,289	115,714
100,757	-17,896	260,014	115,509
101,772	-17,761	259,903	115,569
102,787	-17,829	259,702	115,408
103,801	-17,825	259,426	115,280
104,816	-17,615	259,091	115,305
105,830	-17,764	259,081	115,160
106,845	-17,925	258,863	114,910
107,860	-18,098	258,653	114,655
108,874	-17,935	258,509	114,725
109,889	-17,874	258,257	114,655
110,903	-18,120	258,001	114,316
111,918	-17,989	257,841	114,350
112,933	-17,723	257,584	114,459
113,947	-17,879	257,470	114,261
114,962	-17,974	257,191	114,044
115,976	-17,753	257,061	114,170
116,991	-17,973	256,861	113,878
118,006	-17,897	256,604	113,820
119,020	-17,932	256,392	113,686
120,035	-17,809	256,277	113,731
121,049	-17,977	256,176	113,531
122,064	-18,060	256,073	113,403
123,079	-17,829	255,727	113,440
124,093	-17,840	255,446	113,296
125,108	-17,960	255,227	113,084
126,122	-17,752	255,141	113,216
127,137	-17,711	255,001	113,180
128,151	-17,870	254,834	112,958
129,166	-17,825	254,528	112,851
130,181	-17,795	254,417	112,818
131,195	-17,879	254,092	112,591
132,210	-17,905	253,834	112,444
133,224	-17,789	253,625	112,442
134,239	-17,922	253,400	112,217
135,254	-17,896	253,159	112,123
136,268	-17,803	253,042	112,141
137,283	-17,753	252,977	112,146
138,297	-17,706	252,652	112,031
139,312	-17,802	252,466	111,857
140,327	-17,877	252,216	111,672
141,341	-17,811	251,984	111,615
142,356	-17,973	251,911	111,435
143,370	-17,961	251,706	111,344
144,385	-17,749	251,512	111,430
145,400	-17,944	251,394	111,201
146,414	-17,976	251,104	111,035
147,429	-18,009	250,918	110,915
148,443	-17,918	250,909	110,979
149,458	-17,885	250,502	110,817
150,473	-17,851	250,377	110,781
151,487	-17,897	250,116	110,616
152,502	-17,853	250,105	110,639
153,516	-18,032	249,855	110,367
154,531	-17,750	249,644	110,503
155,546	-17,941	249,450	110,245
156,560	-17,791	249,272	110,283
157,575	-17,728	249,011	110,212
158,589	-18,093	249,050	109,911
159,604	-17,846	248,729	109,967
160,619	-17,938	248,607	109,826
161,633	-17,988	248,372	109,671
162,648	-17,640	248,160	109,860
163,662	-17,622	247,928	109,762
164,677	-17,794	247,895	109,593
165,692	-17,802	247,722	109,500
166,706	-17,990	247,481	109,226
167,721	-17,853	247,377	109,286
168,735	-17,717	247,014	109,229
169,750	-17,726	246,973	109,194
170,764	-17,824	246,925	109,081
171,779	-17,805	246,608	108,947
172,794	-17,914	246,506	108,801
173,808	-17,830	246,189	108,721
174,823	-17,621	246,232	108,905
175,837	-17,752	245,960	108,666
176,852	-17,886	245,886	108,512
177,867	-17,697	245,617	108,541
178,881	-17,709	245,415	108,432
179,896	-17,894	245,284	108,211
180,910	-17,767	245,065	108,210
181,925	-17,916	244,902	108,005
182,940	-17,782	244,616	107,980
183,954	-17,827	244,549	107,904
184,969	-17,701	244,406	107,935
185,983	-17,673	244,217	107,865
186,998	-17,825	244,134	107,694
188,013	-17,800	243,854	107,581
189,027	-17,904	243,765	107,447
190,042	-17,972	243,604	107,310
191,056	-18,058	243,444	107,159
192,071	-17,948	243,260	107,159
193,086	-17,860	242,909	107,067
194,100	-17,983	242,877	106,942
195,115	-17,693	242,652	107,071
196,129	-18,006	242,458	106,720
197,144	-18,046	242,156	106,545
198,159	-17,951	241,992	106,541
199,173	-17,779	241,870	106,618
200,188	-17,885	241,769	106,477
201,202	-17,901	241,556	106,362
202,217	-17,724	241,513	106,477
203,232	-17,571	241,122	106,419
204,246	-17,925	240,844	106,000
205,261	-18,253	240,685	105,655
206,275	-16,922	241,034	106,879
207,290	-12,251	242,752	111,453
208,304	-5,823	244,833	117,690
209,319	-2,369	245,705	120,945
210,334	-1,290	245,800	121,869
211,348	-0,331	246,086	122,791
212,363	0,325	246,232	123,393
213,377	0,549	246,116	123,508
214,392	0,964	246,120	123,840
215,407	1,041	246,050	123,858
216,421	1,284	245,911	123,976
217,436	1,375	245,674	123,920
218,450	1,312	245,543	123,791
219,465	1,223	245,443	123,657
220,480	1,320	245,279	123,643
221,494	1,319	245,211	123,597
222,509	0,889	244,866	123,061
223,523	0,761	244,458	122,740
224,538	0,645	244,357	122,583
225,553	0,426	244,212	122,321
226,567	0,591	243,968	122,322
227,582	0,512	243,792	122,159
228,596	0,385	243,734	122,015
229,611	0,600	243,487	122,056
230,626	0,427	243,264	121,793
231,640	0,545	243,178	121,834
232,655	0,603	243,040	121,802
233,669	0,501	242,951	121,663
234,684	0,484	242,671	121,498
235,699	0,483	242,624	121,464
236,713	0,448	242,448	121,336
237,728	0,509	242,283	121,292
238,742	0,687	241,972	121,269
239,757	0,332	241,955	120,963
240,772	0,703	241,740	121,144
241,786	0,560	241,663	120,980
242,801	0,687	241,433	120,956
243,815	0,552	241,328	120,784
244,830	0,682	241,088	120,757
245,844	0,397	241,103	120,526
246,859	0,564	240,685	120,440
247,874	0,568	240,723	120,451
248,888	0,517	240,495	120,285
249,903	0,703	240,288	120,320
250,917	0,520	240,226	120,132
251,932	0,862	240,030	120,296
252,947	0,638	240,104	120,143
253,961	0,543	239,812	119,911
254,976	0,735	239,586	119,941
255,990	0,495	239,423	119,657
257,005	0,843	239,317	119,870
258,020	0,560	239,229	119,590
259,034	0,638	238,871	119,463
260,049	0,500	238,880	119,347
261,063	0,494	238,722	119,252
262,078	0,748	238,466	119,315
263,093	0,523	238,450	119,118
264,107	0,382	238,306	118,924
265,122	0,674	238,049	119,017
266,136	0,471	237,975	118,808
267,151	0,779	237,708	118,908
268,166	0,357	237,686	118,552
269,180	0,301	237,472	118,391
270,195	0,559	237,202	118,449
271,209	0,784	237,054	118,542
272,224	0,581	236,994	118,342
273,239	0,575	236,846	118,252
274,253	0,824	236,620	118,325
275,268	0,628	236,397	118,048
276,282	0,486	236,330	117,893
277,297	0,724	236,009	117,909
278,312	0,686	235,984	117,856
279,326	0,618	235,856	117,729
280,341	0,710	235,681	117,703
281,355	0,768	235,547	117,671
282,370	0,643	235,533	117,556
283,384	0,703	235,376	117,514
284,399	0,662	235,105	117,336
285,414	0,581	235,026	117,222
286,428	0,631	234,899	117,188
287,443	0,708	234,605	117,091
288,457	0,651	234,682	117,075
289,472	0,703	234,484	117,006
290,487	0,586	234,268	116,796
291,501	0,505	234,092	116,635
292,516	0,529	233,932	116,564
293,530	0,512	233,861	116,505
294,545	0,538	233,666	116,417
295,560	0,620	233,468	116,372
296,574	0,637	233,374	116,328
297,589	0,699	233,241	116,299
298,603	0,896	233,024	116,333
299,618	0,814	233,027	116,261
300,633	0,712	232,829	116,073
301,647	0,824	232,730	116,099
302,662	0,928	232,425	116,017
303,676	0,948	232,434	116,027
304,691	0,872	232,305	115,893
305,706	0,768	232,045	115,673
306,720	0,800	231,974	115,652
307,735	0,872	231,852	115,637
308,749	0,968	231,599	115,574
309,764	0,978	231,408	115,476
310,779	0,938	231,230	115,346
311,793	0,877	231,231	115,289
312,808	0,956	231,042	115,245
313,822	1,002	230,898	115,198
314,837	0,900	230,707	115,015
315,852	1,067	230,393	114,976
316,866	1,015	230,365	114,912
317,881	0,856	230,298	114,747
318,895	1,114	230,157	114,863
319,910	1,156	229,935	114,774
320,925	0,885	229,789	114,485
321,939	1,023	229,595	114,483
322,954	0,813	229,635	114,333
323,968	0,830	229,474	114,255
324,983	0,841	229,202	114,118
325,997	1,036	229,222	114,266
327,012	0,871	229,084	114,062
328,027	0,973	228,798	113,987
329,041	1,065	228,644	113,969
330,056	0,827	228,523	113,718
331,070	0,932	228,349	113,701
332,085	1,075	228,079	113,664
333,100	1,107	228,069	113,674
334,114	1,092	227,828	113,532
335,129	0,671	227,766	113,174
336,143	0,748	227,634	113,156
337,158	0,926	227,542	113,234
338,173	0,889	227,345	113,098
339,187	1,222	227,272	113,302
340,202	1,131	227,085	113,131
341,216	1,144	226,915	113,045
342,231	1,090	226,715	112,895
343,246	0,872	226,737	112,733
344,260	0,979	226,570	112,720
345,275	1,117	226,372	112,715
346,289	1,001	226,303	112,583
347,304	1,170	226,055	112,576
348,319	1,099	225,832	112,402
349,333	1,118	225,848	112,414
350,348	0,836	225,792	112,167
351,362	0,961	225,589	112,148
352,377	1,038	225,353	112,079
353,392	1,224	225,259	112,160
354,406	1,107	225,084	111,976
355,421	191,439	1311,314	1374,968
356,435	153,310	1443,508	1374,815
