DTS Sentinel unit serial number:	SN410029Multiplexer serial number:	ORYXHardware model number:	OX2-SRSoftware version number:	ORYX F/W v4,00 Oryx Data Collector v3.7.2.0data status	okinstallation	B5 Nyhavnadifferential loss correction	single-endedforward channel	channel 2reverse channel	N/Adate	2023/12/12time	19:02:13forward acquisition time	300,00reverse acquisition time	0,00gamma	499,1914k internal	0,3156k external	0,3156temperature offset calibration	1,0000default loss term (dB/km)	0,3820temperature slope calibration	1,0000multiplexer offset coefficient	1,0000multiplexer slope coefficient	1,0000fibre end	0,00T internal ref (°C)	15,52T ext. ref 1 (°C)	-1,10T ext. ref 2 (°C)	-1,41length (m)	temperature (°C)	Stokes	anti-Stokes-744,400	-77,082	0,091	0,023
-743,385	-46,185	-0,314	0,113
-742,371	23,158	0,136	-0,082
-741,356	-92,255	-0,355	0,073
-740,342	131,759	0,024	-0,023
-739,327	-88,232	-0,310	-0,068
-738,312	-33,842	0,203	-0,082
-737,298	-92,532	-0,444	0,091
-736,283	-57,580	0,101	0,032
-735,269	-105,220	-0,396	0,066
-734,254	40,713	0,074	-0,049
-733,239	-50,452	-0,584	-0,202
-732,225	-132,811	0,217	-0,020
-731,210	10,302	-0,170	0,095
-730,196	-52,218	-0,091	0,031
-729,181	223,647	-0,014	0,017
-728,167	132,083	0,106	0,101
-727,152	-45,984	-0,051	0,018
-726,137	436,933	-0,080	0,128
-725,123	800,000	-0,015	0,039
-724,108	40,981	-0,052	0,034
-723,094	219,826	0,025	-0,029
-722,079	155,362	-0,047	0,047
-721,064	-165,644	0,047	-0,001
-720,050	-92,040	-0,086	-0,018
-719,035	-200,000	-0,004	0,040
-718,021	32,210	-0,155	-0,099
-717,006	-56,605	-0,192	0,062
-715,991	69,321	-0,163	-0,124
-714,977	-100,003	0,096	-0,017
-713,962	-35,833	-0,068	0,027
-712,948	800,000	0,039	-0,104
-711,933	-53,316	0,110	0,037
-710,918	115,263	-0,071	0,064
-709,904	-65,040	0,093	0,027
-708,889	133,686	-0,091	-0,087
-707,875	-200,000	-0,019	-0,108
-706,860	400,858	-0,056	-0,087
-705,845	-183,047	-0,148	-0,002
-704,831	-129,344	-0,073	0,007
-703,816	276,310	-0,072	-0,095
-702,802	-200,000	-0,027	0,096
-701,787	-200,000	-0,004	-0,057
-700,772	-64,352	-0,081	-0,024
-699,758	-45,589	-0,115	-0,042
-698,743	-179,435	-0,167	-0,003
-697,729	800,000	0,022	0,053
-696,714	-200,000	0,022	0,103
-695,699	-90,209	-0,117	-0,025
-694,685	561,885	0,047	-0,084
-693,670	-200,000	-0,026	-0,164
-692,656	-65,149	-0,062	0,018
-691,641	-78,425	0,088	-0,022
-690,627	800,000	0,023	-0,057
-689,612	171,808	-0,077	-0,081
-688,597	800,000	-0,010	0,026
-687,583	-200,000	-0,003	0,106
-686,568	38,609	-0,023	-0,015
-685,554	-200,000	0,036	-0,120
-684,539	-114,479	-0,047	-0,007
-683,524	-13,602	0,092	0,044
-682,510	206,499	-0,056	-0,064
-681,495	6,736	-0,060	-0,033
-680,481	800,000	-0,064	-0,202
-679,466	-85,553	-0,168	-0,038
-678,451	-200,000	-0,027	-0,130
-677,437	789,717	-0,054	-0,111
-676,422	-29,635	-0,077	-0,032
-675,408	-31,748	-0,144	-0,059
-674,393	3,221	-0,066	0,035
-673,378	32,741	-0,117	-0,074
-672,364	-200,000	-0,001	-0,176
-671,349	-172,195	0,026	-0,001
-670,335	-98,665	-0,042	-0,008
-669,320	274,839	-0,032	-0,042
-668,305	-67,222	-0,007	0,002
-667,291	476,500	-0,121	0,202
-666,276	366,501	-0,042	0,062
-665,262	32,430	-0,071	-0,045
-664,247	-18,806	-0,162	-0,074
-663,232	-129,760	-0,111	0,011
-662,218	-200,000	-0,019	0,085
-661,203	-139,093	0,030	0,002
-660,189	182,208	0,091	-0,099
-659,174	-133,315	-0,155	-0,014
-658,159	-109,996	-0,078	-0,012
-657,145	-73,410	-0,149	0,040
-656,130	55,455	0,061	-0,043
-655,116	20,202	-0,068	0,040
-654,101	319,712	-0,041	0,057
-653,086	-127,313	-0,088	0,009
-652,072	392,961	-0,018	-0,028
-651,057	547,142	-0,069	0,122
-650,043	-117,565	-0,073	-0,010
-649,028	-200,000	-0,039	-0,147
-648,014	96,012	0,025	0,021
-646,999	-109,942	-0,119	0,018
-645,984	800,000	0,004	-0,009
-644,970	-164,977	-0,156	-0,005
-643,955	800,000	-0,024	-0,062
-642,941	49,698	-0,125	-0,086
-641,926	376,285	-0,048	-0,072
-640,911	131,708	0,021	-0,019
-639,897	257,200	0,046	0,058
-638,882	800,000	0,059	0,125
-637,868	61,883	0,084	0,061
-636,853	-200,000	0,019	0,077
-635,838	-105,041	-0,161	-0,027
-634,824	28,586	0,037	-0,023
-633,809	-200,000	0,017	0,136
-632,795	-61,658	0,097	-0,030
-631,780	412,476	-0,091	0,142
-630,765	-200,000	0,012	0,129
-629,751	-97,184	-0,100	0,019
-628,736	-38,851	-0,093	-0,036
-627,722	50,899	-0,052	0,036
-626,707	187,409	-0,052	0,057
-625,692	259,484	0,039	0,049
-624,678	-200,000	0,011	0,047
-623,663	-13,337	-0,051	0,024
-622,649	-200,000	-0,015	0,095
-621,634	583,895	-0,023	0,041
-620,619	-200,000	-0,002	0,131
-619,605	-86,230	-0,033	0,008
-618,590	532,787	0,029	0,050
-617,576	655,875	-0,024	0,045
-616,561	225,885	-0,062	0,073
-615,546	-200,000	-0,029	0,101
-614,532	800,000	-0,044	-0,094
-613,517	116,913	0,068	0,062
-612,503	800,000	0,074	0,178
-611,488	95,616	0,100	-0,084
-610,474	-5,437	-0,053	0,027
-609,459	-200,000	0,003	0,015
-608,444	-200,000	-0,016	-0,180
-607,430	-24,895	-0,072	0,031
-606,415	-177,781	-0,109	0,002
-605,401	-200,000	-0,039	0,146
-604,386	217,389	0,050	-0,059
-603,371	370,486	-0,047	-0,069
-602,357	-106,918	0,024	-0,004
-601,342	63,426	-0,080	-0,058
-600,328	209,648	-0,029	0,033
-599,313	564,659	0,046	-0,082
-598,298	-200,000	0,006	0,043
-597,284	-165,006	0,086	-0,003
-596,269	800,000	-0,035	0,098
-595,255	-73,889	-0,075	-0,020
-594,240	-63,898	-0,076	0,023
-593,225	-116,075	0,125	0,017
-592,211	800,000	0,029	-0,073
-591,196	76,662	0,070	0,054
-590,182	-200,000	-0,007	-0,038
-589,167	24,976	0,081	-0,049
-588,152	-126,968	0,015	0,002
-587,138	-200,000	-0,007	-0,051
-586,123	181,701	-0,040	0,043
-585,109	-33,150	0,095	0,039
-584,094	-72,434	-0,082	-0,022
-583,079	197,037	0,041	0,046
-582,065	-200,000	0,023	-0,084
-581,050	38,994	0,067	-0,044
-580,036	-200,000	-0,002	0,123
-579,021	-200,000	-0,009	-0,067
-578,006	-108,954	0,083	-0,013
-576,992	166,298	0,026	0,027
-575,977	615,306	0,026	-0,048
-574,963	102,489	0,140	0,120
-573,948	-200,000	0,026	0,084
-572,934	26,511	-0,073	0,045
-571,919	119,083	-0,080	-0,072
-570,904	-200,000	-0,012	-0,121
-569,890	722,522	0,028	-0,054
-568,875	33,659	0,032	0,020
-567,861	327,019	-0,053	0,075
-566,846	-42,868	-0,090	0,033
-565,831	157,148	0,067	-0,068
-564,817	472,014	-0,055	-0,090
-563,802	103,197	-0,048	-0,041
-562,788	-200,000	0,000	-0,101
-561,773	-142,685	0,106	0,008
-560,758	-200,000	0,022	-0,086
-559,744	-149,294	-0,087	0,005
-558,729	-102,174	-0,100	0,017
-557,715	-115,948	-0,092	-0,012
-556,700	1,622	-0,064	0,034
-555,685	235,468	0,036	0,044
-554,671	-93,864	0,176	-0,035
-553,656	800,000	0,048	-0,134
-552,642	221,671	-0,042	0,050
-551,627	-200,000	0,010	0,043
-550,612	-74,508	0,116	-0,030
-549,598	532,310	-0,049	-0,085
-548,583	-200,000	-0,018	-0,092
-547,569	-104,010	0,159	0,027
-546,554	-200,000	0,001	-0,086
-545,539	64,947	-0,105	-0,077
-544,525	738,346	-0,080	-0,157
-543,510	157,179	0,063	0,063
-542,496	206,635	-0,026	-0,030
-541,481	1,489	-0,061	-0,032
-540,466	-200,000	-0,006	-0,132
-539,452	-200,000	0,009	-0,135
-538,437	-200,000	0,002	-0,032
-537,423	800,000	-0,077	-0,169
-536,408	124,429	0,028	-0,026
-535,393	800,000	-0,041	0,088
-534,379	800,000	0,013	0,027
-533,364	162,900	-0,106	0,109
-532,350	28,451	0,070	0,043
-531,335	-152,811	-0,115	0,006
-530,321	202,914	0,031	0,036
-529,306	187,858	-0,069	-0,075
-528,291	-82,523	-0,120	-0,028
-527,277	400,063	-0,085	-0,130
-526,262	-200,000	-0,001	-0,015
-525,248	366,527	0,074	-0,109
-524,233	766,534	0,036	-0,071
-523,218	-33,671	-0,065	-0,026
-522,204	-200,000	0,000	-0,007
-521,189	147,680	-0,088	-0,086
-520,175	76,274	-0,047	-0,037
-519,160	199,170	0,063	-0,071
-518,145	-112,021	0,034	0,005
-517,131	25,572	0,057	0,035
-516,116	297,242	0,048	0,065
-515,102	63,019	-0,136	-0,099
-514,087	69,505	-0,049	-0,037
-513,072	294,105	-0,038	-0,051
-512,058	-200,000	-0,030	-0,127
-511,043	-200,000	-0,006	0,034
-510,029	-200,000	0,020	0,100
-509,014	200,468	-0,053	0,060
-507,999	-15,451	-0,046	0,021
-506,985	746,571	-0,084	-0,167
-505,970	-200,000	0,000	-0,088
-504,956	102,392	-0,094	0,080
-503,941	746,715	-0,020	0,040
-502,926	87,719	0,076	0,061
-501,912	191,843	0,101	0,112
-500,897	91,675	0,062	0,051
-499,883	-29,217	-0,216	-0,090
-498,868	777,222	-0,030	-0,061
-497,853	16,968	0,045	-0,026
-496,839	-73,138	-0,099	-0,026
-495,824	-200,000	-0,018	0,061
-494,810	297,248	0,078	0,105
-493,795	-200,000	0,002	0,026
-492,781	-29,834	-0,040	-0,016
-491,766	460,182	-0,045	-0,073
-490,751	93,559	0,084	-0,070
-489,737	-200,000	0,004	-0,091
-488,722	-200,000	-0,013	-0,072
-487,708	800,000	-0,013	-0,037
-486,693	-200,000	-0,094	0,000
-485,678	-63,515	0,083	-0,025
-484,664	-93,081	-0,092	-0,019
-483,649	800,000	0,017	-0,038
-482,635	-200,000	0,022	-0,127
-481,620	-200,000	-0,034	-0,143
-480,605	154,731	-0,158	0,159
-479,591	513,089	-0,030	0,051
-478,576	-128,866	0,068	-0,007
-477,562	800,000	0,016	-0,034
-476,547	-171,312	0,034	0,001
-475,532	94,081	0,056	-0,046
-474,518	129,295	-0,087	-0,081
-473,503	-111,877	0,198	0,029
-472,489	266,099	-0,034	0,044
-471,474	-200,000	-0,016	0,091
-470,459	733,433	-0,021	-0,042
-469,445	477,483	0,030	-0,050
-468,430	59,165	-0,037	0,027
-467,416	220,248	-0,039	0,046
-466,401	369,968	0,043	0,064
-465,386	800,000	0,066	0,179
-464,372	288,991	-0,016	0,022
-463,357	408,029	0,004	0,006
-462,343	118,179	0,004	0,003
-461,328	30,946	0,120	-0,075
-460,313	-26,085	0,047	0,020
-459,299	800,000	-0,043	0,120
-458,284	800,000	-0,013	0,036
-457,270	-200,000	-0,032	0,155
-456,255	-70,843	0,007	0,002
-455,241	800,000	-0,026	-0,065
-454,226	-200,000	0,008	0,050
-453,211	-70,579	0,051	-0,014
-452,197	290,745	-0,048	-0,063
-451,182	200,844	0,072	0,081
-450,168	800,000	-0,028	0,075
-449,153	-87,637	-0,121	-0,026
-448,138	43,956	-0,060	0,040
-447,124	404,763	0,061	-0,094
-446,109	107,718	0,074	-0,064
-445,095	-59,912	-0,057	0,018
-444,080	-200,000	-0,021	-0,086
-443,065	73,340	-0,041	0,032
-442,051	158,465	-0,083	-0,084
-441,036	-200,000	0,005	-0,135
-440,022	800,000	-0,036	-0,076
-439,007	-200,000	0,010	0,057
-437,992	-200,000	-0,019	0,077
-436,978	92,850	0,075	0,062
-435,963	-200,000	-0,001	-0,031
-434,949	-59,267	-0,101	0,031
-433,934	164,235	0,049	0,050
-432,919	197,204	-0,070	-0,078
-431,905	110,402	-0,035	-0,031
-430,890	800,000	0,041	-0,089
-429,876	-200,000	0,004	-0,074
-428,861	83,029	0,027	0,022
-427,846	-172,590	-0,027	-0,001
-426,832	432,965	0,017	-0,026
-425,817	-200,000	-0,015	-0,104
-424,803	660,459	-0,038	0,072
-423,788	800,000	0,028	-0,059
-422,773	25,048	-0,022	-0,013
-421,759	-200,000	0,013	0,062
-420,744	-200,000	-0,022	0,086
-419,730	23,179	-0,023	0,014
-418,715	-71,659	-0,099	-0,027
-417,701	-53,080	-0,086	-0,028
-416,686	35,152	0,143	0,091
-415,671	-200,000	-0,008	0,097
-414,657	350,458	-0,012	0,017
-413,642	-166,456	0,070	0,002
-412,628	-159,675	-0,168	0,007
-411,613	-128,908	-0,037	-0,004
-410,598	0,536	0,057	0,030
-409,584	-200,000	0,024	-0,092
-408,569	80,035	-0,049	0,038
-407,555	-107,379	0,090	0,014
-406,540	173,969	-0,012	0,012
-405,525	800,000	0,016	-0,051
-404,511	-200,000	-0,018	0,063
-403,496	65,313	-0,036	-0,027
-402,482	-200,000	0,006	0,075
-401,467	-65,228	0,111	-0,032
-400,452	274,918	-0,039	0,051
-399,438	31,381	0,019	-0,012
-398,423	644,864	-0,067	0,126
-397,409	800,000	-0,012	0,032
-396,394	-9,198	-0,007	0,003
-395,379	16,588	0,053	0,030
-394,365	-118,157	0,103	-0,013
-393,350	25,554	0,035	0,021
-392,336	71,570	-0,041	-0,031
-391,321	699,392	-0,070	-0,135
-390,306	7,616	0,092	0,050
-389,292	-166,651	-0,148	0,004
-388,277	-105,503	0,075	-0,012
-387,263	-155,501	0,114	-0,005
-386,248	35,126	0,087	0,055
-385,233	-200,000	-0,013	-0,094
-384,219	163,142	-0,032	0,032
-383,204	284,328	0,009	-0,012
-382,190	-200,000	-0,019	-0,125
-381,175	-151,300	0,046	-0,002
-380,160	-200,000	0,031	0,173
-379,146	800,000	0,069	0,145
-378,131	-90,004	0,072	-0,015
-377,117	-200,000	0,031	-0,122
-376,102	391,752	-0,066	-0,100
-375,088	-76,473	-0,045	-0,012
-374,073	650,444	0,043	-0,080
-373,058	-36,959	0,045	0,018
-372,044	-200,000	-0,007	-0,111
-371,029	-66,362	0,160	0,046
-370,015	-200,000	0,019	0,098
-369,000	-127,855	0,130	-0,013
-367,985	113,701	-0,125	-0,110
-366,971	441,226	0,031	0,050
-365,956	800,000	-0,045	0,123
-364,942	-26,044	0,136	-0,058
-363,927	-125,613	0,174	0,019
-362,912	222,934	-0,115	-0,135
-361,898	-125,133	-0,140	-0,015
-360,883	57,520	-0,053	-0,038
-359,869	188,567	0,058	-0,063
-358,854	-200,000	-0,002	0,047
-357,839	19,204	0,095	-0,055
-356,825	800,000	-0,038	0,085
-355,810	284,170	-0,079	-0,103
-354,796	-134,588	-0,085	-0,007
-353,781	-116,475	-0,066	-0,009
-352,766	-24,725	0,096	-0,041
-351,752	-12,691	0,050	-0,024
-350,737	-44,156	0,055	-0,020
-349,723	636,134	0,061	0,113
-348,708	-200,000	0,001	0,088
-347,693	-200,000	0,011	-0,145
-346,679	-151,026	-0,146	-0,008
-345,664	-200,000	0,022	-0,071
-344,650	800,000	0,031	0,077
-343,635	-50,112	0,014	-0,005
-342,620	181,476	-0,033	0,036
-341,606	-142,598	0,067	-0,005
-340,591	-16,425	-0,009	-0,004
-339,577	-200,000	0,005	-0,104
-338,562	-112,035	-0,171	-0,025
-337,548	-153,025	0,063	-0,003
-336,533	-35,670	0,027	-0,011
-335,518	-200,000	0,011	0,115
-334,504	209,455	0,082	0,093
-333,489	348,144	0,017	-0,024
-332,475	-96,433	-0,040	-0,008
-331,460	800,000	-0,025	0,055
-330,445	82,564	-0,015	0,012
-329,431	-59,801	0,162	-0,050
-328,416	34,646	0,000	-0,000
-327,402	633,917	0,052	0,097
-326,387	746,094	-0,057	0,113
-325,372	282,463	-0,095	0,124
-324,358	1,245	0,100	-0,052
-323,343	-200,000	-0,012	0,043
-322,329	-200,000	0,020	0,191
-321,314	-127,689	0,109	-0,011
-320,299	-66,241	0,224	-0,064
-319,285	62,023	-0,060	-0,043
-318,270	114,903	0,018	-0,016
-317,256	99,759	-0,041	0,035
-316,241	490,954	-0,072	0,121
-315,226	519,717	-0,065	-0,111
-314,212	-200,000	0,010	-0,035
-313,197	-100,439	-0,071	-0,013
-312,183	-190,860	0,036	0,000
-311,168	209,721	-0,095	-0,109
-310,153	-118,826	-0,099	0,012
-309,139	-26,044	0,043	0,018
-308,124	-94,488	-0,009	0,002
-307,110	-200,000	-0,014	0,135
-306,095	-16,131	-0,075	0,034
-305,080	-76,046	-0,051	0,013
-304,066	800,000	0,014	-0,034
-303,051	419,369	-0,057	-0,088
-302,037	800,000	-0,050	-0,131
-301,022	-23,669	0,056	-0,024
-300,008	-200,000	0,013	0,054
-298,993	-55,224	-0,024	-0,008
-297,978	12,771	0,073	0,041
-296,964	530,913	0,021	-0,036
-295,949	452,735	-0,093	-0,149
-294,935	-200,000	0,018	-0,117
-293,920	130,025	0,062	0,057
-292,905	72,510	0,025	0,019
-291,891	705,565	0,013	-0,025
-290,876	-200,000	-0,003	0,017
-289,862	-53,058	-0,040	-0,013
-288,847	35,877	-0,105	-0,067
-287,832	-84,277	0,040	-0,009
-286,818	-80,925	0,151	0,036
-285,803	800,000	0,060	0,150
-284,789	-97,323	-0,097	-0,018
-283,774	800,000	0,030	0,069
-282,759	-200,000	-0,021	0,087
-281,745	118,350	-0,107	0,096
-280,730	399,868	0,020	0,030
-279,716	323,850	-0,017	-0,024
-278,701	-32,144	-0,027	0,011
-277,686	-200,000	-0,009	0,036
-276,672	800,000	0,048	0,110
-275,657	182,682	0,026	0,027
-274,643	272,090	-0,032	0,041
-273,628	-69,415	0,218	0,060
-272,613	-95,009	-0,084	-0,016
-271,599	-50,002	0,146	-0,050
-270,584	-147,610	-0,021	-0,001
-269,570	784,129	0,026	0,051
-268,555	-200,000	-0,047	0,210
-267,540	-77,665	0,146	0,036
-266,526	-76,689	-0,134	-0,034
-265,511	-111,392	-0,067	-0,010
-264,497	-200,000	-0,019	-0,098
-263,482	-15,753	0,116	0,053
-262,467	-200,000	0,009	-0,097
-261,453	-22,269	-0,030	0,013
-260,438	152,371	-0,042	-0,041
-259,424	-135,790	-0,054	-0,005
-258,409	-200,000	-0,017	-0,060
-257,395	-200,000	0,011	-0,150
-256,380	6,853	0,090	0,048
-255,365	787,514	-0,013	0,026
-254,351	-200,000	-0,038	0,155
-253,336	-31,065	0,165	0,067
-252,322	-200,000	0,001	-0,049
-251,307	800,000	0,019	-0,049
-250,292	129,150	-0,053	-0,049
-249,278	127,325	0,104	-0,095
-248,263	-200,000	-0,053	0,195
-247,249	-200,000	0,019	0,077
-246,234	-123,669	0,053	-0,006
-245,219	-23,559	0,054	-0,023
-244,205	-78,569	0,104	0,025
-243,190	800,000	0,014	-0,034
-242,176	-200,000	-0,011	-0,054
-241,161	800,000	0,033	0,082
-240,146	530,405	-0,052	0,089
-239,132	800,000	0,073	0,203
-238,117	12,685	-0,137	0,076
-237,103	-105,822	-0,068	0,011
-236,088	90,925	0,115	0,093
-235,073	-145,507	0,068	-0,004
-234,059	214,141	0,079	-0,091
-233,044	105,891	0,019	-0,016
-232,030	800,000	0,017	-0,049
-231,015	-59,436	-0,115	-0,035
-230,000	66,158	-0,099	-0,073
-228,986	800,000	0,043	-0,113
-227,971	439,978	0,031	0,049
-226,957	62,038	0,120	-0,087
-225,942	142,439	0,064	0,061
-224,927	217,970	-0,041	-0,047
-223,913	-65,346	-0,024	-0,007
-222,898	353,115	-0,052	-0,075
-221,884	-200,000	0,009	0,179
-220,869	-49,721	0,120	-0,041
-219,855	-182,775	-0,097	0,001
-218,840	141,280	0,091	0,087
-217,825	-200,000	0,009	-0,036
-216,811	484,875	-0,055	-0,090
-215,796	-12,075	-0,177	0,084
-214,782	-200,000	0,006	0,050
-213,767	256,349	0,035	0,044
-212,752	-200,000	-0,004	-0,035
-211,738	18,214	0,039	0,022
-210,723	198,701	-0,040	0,044
-209,709	-200,000	0,006	-0,026
-208,694	-200,000	0,013	-0,096
-207,679	-93,268	-0,188	-0,037
-206,665	-28,786	0,100	-0,042
-205,650	73,855	0,121	0,092
-204,636	-116,882	0,038	-0,005
-203,621	-200,000	0,008	0,051
-202,606	-200,000	-0,034	0,125
-201,592	-200,000	-0,016	-0,118
-200,577	800,000	0,023	0,060
-199,563	381,275	-0,043	-0,064
-198,548	-200,000	0,052	0,230
-197,533	200,440	-0,089	-0,099
-196,519	800,000	0,046	0,093
-195,504	208,256	0,079	-0,089
-194,490	-147,664	-0,128	0,008
-193,475	138,760	0,022	-0,021
-192,460	-200,000	0,001	0,100
-191,446	192,063	-0,070	0,077
-190,431	281,812	0,079	0,103
-189,417	-127,114	0,073	-0,008
-188,402	216,190	-0,048	-0,055
-187,387	-200,000	-0,001	0,124
-186,373	-200,000	-0,003	-0,137
-185,358	-200,000	-0,025	-0,167
-184,344	-28,810	0,101	-0,042
-183,329	-132,045	0,053	-0,005
-182,315	-107,041	0,105	-0,017
-181,300	97,833	-0,095	0,079
-180,285	-200,000	0,023	-0,079
-179,271	-200,000	-0,001	-0,154
-178,256	327,125	-0,110	-0,152
-177,242	-200,000	0,033	-0,116
-176,227	-200,000	0,001	0,131
-175,212	-200,000	0,020	-0,072
-174,198	800,000	0,008	0,024
-173,183	5,841	0,126	-0,067
-172,169	800,000	-0,017	-0,049
-171,154	-56,666	0,098	-0,031
-170,139	307,016	0,054	0,073
-169,125	-135,375	0,134	-0,011
-168,110	-200,000	0,019	0,108
-167,096	-200,000	-0,003	0,044
-166,081	-67,671	-0,086	-0,024
-165,066	46,913	-0,039	0,026
-164,052	800,000	0,059	-0,147
-163,037	108,082	0,118	0,101
-162,023	210,792	-0,020	0,023
-161,008	-200,000	-0,008	0,030
-159,993	-200,000	0,004	0,048
-158,979	5,638	-0,134	0,071
-157,964	-41,548	0,121	0,045
-156,950	452,323	0,093	-0,149
-155,935	800,000	-0,022	0,054
-154,920	-27,176	0,067	-0,028
-153,906	-200,000	-0,023	0,120
-152,891	-129,733	-0,052	0,005
-151,877	-200,000	-0,001	0,042
-150,862	-155,722	-0,163	-0,007
-149,847	282,161	0,053	-0,069
-148,833	248,590	0,015	-0,019
-147,818	-66,841	0,146	0,041
-146,804	156,351	-0,073	-0,073
-145,789	-73,340	-0,093	0,024
-144,775	341,312	-0,003	0,004
-143,760	-139,010	0,025	0,002
-142,745	-92,369	-0,135	0,027
-141,731	-12,168	0,050	0,023
-140,716	486,260	-0,092	0,151
-139,702	143,092	-0,033	0,031
-138,687	-165,092	-0,219	-0,007
-137,672	120,476	-0,140	0,125
-136,658	36,123	0,094	-0,060
-135,643	800,000	-0,054	-0,118
-134,629	800,000	-0,031	0,087
-133,614	-200,000	-0,009	0,095
-132,599	-42,694	0,035	-0,013
-131,585	169,535	-0,181	0,186
-130,570	-119,036	0,115	0,014
-129,556	64,165	-0,078	0,057
-128,541	225,830	-0,099	-0,116
-127,526	-200,000	-0,002	0,084
-126,512	-200,000	-0,008	0,053
-125,497	98,605	0,053	-0,044
-124,483	171,850	-0,127	0,132
-123,468	-200,000	0,046	0,171
-122,453	-200,000	-0,016	-0,131
-121,439	800,000	-0,057	0,150
-120,424	361,519	0,044	0,063
-119,410	-200,000	-0,026	-0,182
-118,395	-200,000	-0,022	0,108
-117,380	-100,045	0,118	-0,021
-116,366	93,485	0,068	0,055
-115,351	800,000	-0,036	-0,083
-114,337	-200,000	-0,003	-0,124
-113,322	325,857	0,049	0,068
-112,307	259,597	-0,074	-0,092
-111,293	800,000	0,029	-0,078
-110,278	-160,189	0,044	-0,002
-109,264	-200,000	-0,003	-0,037
-108,249	-200,000	0,015	0,067
-107,234	-63,017	-0,027	-0,008
-106,220	305,344	-0,058	-0,078
-105,205	-91,262	0,174	-0,036
-104,191	800,000	-0,046	-0,098
-103,176	-200,000	0,064	0,000
-102,162	-200,000	0,024	0,153
-101,147	-107,980	-0,073	-0,011
-100,132	-85,176	-0,189	0,042
-99,118	800,000	0,017	-0,035
-98,103	-200,000	-0,033	-0,108
-97,089	-3,777	0,117	0,058
-96,074	-30,503	-0,022	-0,009
-95,059	-200,000	-0,008	0,088
-94,045	-200,000	-0,020	0,146
-93,030	241,268	0,025	0,030
-92,016	-12,461	-0,137	0,064
-91,001	23,272	0,083	0,049
-89,986	248,730	0,080	0,097
-88,972	-46,164	0,072	0,025
-87,957	-200,000	0,004	0,033
-86,943	-200,000	-0,015	-0,078
-85,928	-167,339	0,097	0,003
-84,913	222,622	0,057	-0,066
-83,899	-200,000	-0,006	-0,116
-82,884	800,000	0,017	-0,038
-81,870	-49,638	-0,014	0,005
-80,855	-200,000	0,019	-0,093
-79,840	14,444	-0,078	0,043
-78,826	166,547	0,047	-0,048
-77,811	0,559	-0,090	0,046
-76,797	687,753	-0,013	0,024
-75,782	-72,898	-0,044	-0,012
-74,767	-200,000	-0,005	0,079
-73,753	800,000	-0,013	0,036
-72,738	317,612	-0,013	-0,018
-71,724	-122,815	-0,047	0,005
-70,709	-200,000	-0,003	0,067
-69,694	77,926	0,095	-0,073
-68,680	-88,235	-0,092	0,020
-67,665	486,311	0,025	0,042
-66,651	800,000	0,041	-0,114
-65,636	800,000	-0,014	-0,042
-64,622	-7,727	0,026	-0,013
-63,607	-161,616	0,028	0,001
-62,592	2,700	-0,152	0,079
-61,578	140,613	-0,020	-0,019
-60,563	790,273	0,085	0,168
-59,549	800,000	-0,093	0,223
-58,534	17,870	-1,804	-1,029
-57,519	800,000	-0,392	-0,977
-56,505	-200,000	-1,218	-4,844
-55,490	63,208	0,878	0,631
-54,476	800,000	5,222	12,049
-53,461	-200,000	17,535	283,492
-52,446	800,000	725,717	2218,728
-51,432	537,615	1641,673	2811,138
-50,417	110,302	1632,526	1407,525
-49,403	74,884	1286,134	971,241
-48,388	32,156	1027,756	634,947
-47,373	20,188	989,491	571,832
-46,359	18,552	977,631	559,589
-45,344	15,865	973,547	548,434
-44,330	15,996	972,096	548,026
-43,315	15,595	970,427	545,752
-42,300	15,564	969,320	545,008
-41,286	15,525	968,512	544,405
-40,271	15,540	967,390	543,799
-39,257	15,526	966,430	543,193
-38,242	15,514	965,643	542,689
-37,227	15,579	964,740	542,373
-36,213	15,517	964,034	541,753
-35,198	15,499	963,228	541,220
-34,184	15,559	962,242	540,838
-33,169	15,507	961,440	540,198
-32,154	15,577	960,318	539,771
-31,140	15,572	959,521	539,288
-30,125	15,560	958,826	538,837
-29,111	15,535	958,007	538,275
-28,096	15,640	957,303	538,194
-27,082	15,543	956,683	537,513
-26,067	15,554	955,819	537,041
-25,052	15,573	955,066	536,658
-24,038	15,558	954,391	536,209
-23,023	15,502	953,932	535,752
-22,009	15,574	953,021	535,448
-20,994	15,602	952,436	535,188
-19,979	15,586	951,962	534,851
-18,965	15,616	951,250	534,523
-17,950	15,563	950,610	533,975
-16,936	15,488	950,083	533,416
-15,921	15,500	949,291	532,991
-14,906	15,413	948,659	532,337
-13,892	15,456	948,009	532,086
-12,877	15,446	947,305	531,640
-11,863	15,359	946,762	531,038
-10,848	15,422	946,200	530,902
-9,833	15,556	945,677	531,013
-8,819	15,493	945,095	530,466
-7,804	15,449	944,419	529,923
-6,790	15,403	943,975	529,510
-5,775	15,449	943,515	529,374
-4,760	15,475	942,725	528,993
-3,746	15,430	942,012	528,429
-2,731	15,317	941,410	527,713
-1,717	15,342	940,627	527,332
-0,702	15,334	940,059	526,968
0,313	15,111	939,427	526,705
1,327	18,228	937,073	535,160
2,342	26,951	794,522	476,876
3,356	23,571	459,226	270,431
4,371	-3,386	314,401	156,482
5,386	-7,276	296,107	143,427
6,400	-9,375	290,030	138,388
7,415	-9,845	287,650	136,777
8,429	-10,135	286,286	135,832
9,444	-9,969	285,174	135,455
10,459	-9,810	284,537	135,295
11,473	-10,007	283,945	134,811
12,488	-9,823	283,563	134,795
13,502	-10,025	283,030	134,335
14,517	-9,717	282,561	134,397
15,531	-9,939	282,154	133,978
16,546	-9,791	281,666	133,876
17,561	-9,872	281,267	133,597
18,575	-9,776	281,071	133,584
19,590	-9,903	280,649	133,250
20,604	-9,808	280,308	133,167
21,619	-9,962	279,988	132,856
22,634	-9,971	279,894	132,791
23,648	-9,969	279,495	132,592
24,663	-9,897	279,177	132,498
25,677	-9,927	278,983	132,365
26,692	-9,936	278,672	132,198
27,707	-9,810	278,348	132,152
28,721	-9,877	278,066	131,943
29,736	-9,856	277,840	131,843
30,750	-9,965	277,505	131,569
31,765	-9,975	277,386	131,491
32,780	-9,951	277,115	131,374
33,794	-9,791	276,724	131,329
34,809	-9,856	276,769	131,276
35,823	-9,913	276,278	130,978
36,838	-10,008	276,231	130,854
37,853	-9,973	275,849	130,695
38,867	-9,885	275,579	130,638
39,882	-9,954	275,483	130,516
40,896	-9,950	275,077	130,316
41,911	-9,909	274,657	130,143
42,926	-9,820	274,400	130,094
43,940	-9,977	274,408	129,938
44,955	-10,004	274,056	129,735
45,969	-10,143	273,872	129,507
46,984	-10,092	273,574	129,401
47,999	-10,522	273,536	128,971
49,013	-10,357	273,175	128,943
50,028	-10,382	272,827	128,744
51,042	-10,676	272,598	128,351
52,057	-10,702	272,325	128,187
53,071	-10,685	272,083	128,077
54,086	-10,603	271,946	128,077
55,101	-10,363	271,961	128,296
56,115	-10,220	271,621	128,256
57,130	-9,880	271,414	128,462
58,144	-9,828	271,125	128,362
59,159	-9,824	270,966	128,278
60,174	-9,794	270,759	128,197
61,188	-9,819	270,564	128,070
62,203	-9,883	270,427	127,934
63,217	-9,823	270,151	127,848
64,232	-9,813	269,906	127,730
65,247	-9,720	269,709	127,711
66,261	-9,781	269,408	127,501
67,276	-9,978	269,190	127,206
68,290	-10,149	268,947	126,923
69,305	-10,245	268,655	126,685
70,320	-9,984	268,266	126,729
71,334	-10,044	268,446	126,749
72,349	-9,755	268,104	126,839
73,363	-9,803	267,812	126,647
74,378	-9,675	267,718	126,707
75,393	-9,915	267,530	126,389
76,407	-9,950	267,331	126,251
77,422	-9,893	266,929	126,101
78,436	-9,774	266,817	126,146
79,451	-9,714	266,512	126,044
80,466	-9,881	266,338	125,799
81,480	-9,822	266,146	125,752
82,495	-10,035	265,842	125,404
83,509	-9,862	265,687	125,476
84,524	-9,966	265,601	125,330
85,539	-10,035	265,229	125,082
86,553	-10,032	264,980	124,955
87,568	-10,125	264,840	124,794
88,582	-9,900	264,523	124,837
89,597	-9,927	264,399	124,743
90,611	-9,954	264,466	124,738
91,626	-9,769	264,106	124,724
92,641	-9,762	263,958	124,649
93,655	-9,882	263,755	124,434
94,670	-9,900	263,680	124,372
95,684	-9,900	263,330	124,196
96,699	-9,970	263,233	124,077
97,714	-9,946	262,966	123,961
98,728	-9,960	262,714	123,818
99,743	-10,145	262,566	123,572
100,757	-10,076	262,355	123,524
101,772	-9,980	262,165	123,509
102,787	-10,244	262,053	123,210
103,801	-10,003	261,783	123,286
104,816	-9,718	261,480	123,386
105,830	-9,810	261,372	123,242
106,845	-9,901	261,212	123,074
107,860	-9,769	261,013	123,087
108,874	-9,883	260,908	122,925
109,889	-9,897	260,594	122,754
110,903	-9,940	260,384	122,607
111,918	-9,909	260,350	122,606
112,933	-9,847	259,986	122,479
113,947	-9,802	259,847	122,442
114,962	-9,966	259,719	122,227
115,976	-10,028	259,536	122,076
116,991	-9,898	259,203	122,022
118,006	-9,858	259,009	121,954
119,020	-9,797	258,917	121,954
120,035	-9,750	258,852	121,955
121,049	-9,804	258,526	121,742
122,064	-9,911	258,354	121,557
123,079	-9,666	258,127	121,654
124,093	-9,904	257,882	121,319
125,108	-10,027	257,692	121,111
126,122	-10,160	257,412	120,853
127,137	-10,183	257,111	120,681
128,151	-9,939	257,205	120,927
129,166	-10,018	256,888	120,698
130,181	-10,103	256,818	120,580
131,195	-9,960	256,518	120,553
132,210	-10,047	256,453	120,437
133,224	-9,807	256,173	120,502
134,239	-9,882	256,114	120,399
135,254	-9,859	255,910	120,312
136,268	-9,922	255,603	120,102
137,283	-9,990	255,312	119,896
138,297	-10,214	255,149	119,616
139,312	-10,204	254,963	119,526
140,327	-10,087	254,829	119,554
141,341	-9,758	254,752	119,791
142,356	-9,722	254,552	119,717
143,370	-10,038	254,438	119,381
144,385	-9,782	254,292	119,521
145,400	-9,916	254,047	119,281
146,414	-9,563	253,944	119,525
147,429	-9,780	253,692	119,210
148,443	-9,819	253,585	119,116
149,458	-9,760	253,373	119,056
150,473	-9,661	253,176	119,037
151,487	-9,743	252,953	118,851
152,502	-9,580	252,714	118,868
153,516	-9,628	252,585	118,756
154,531	-9,660	252,332	118,599
155,546	-9,708	252,087	118,432
156,560	-9,706	252,003	118,384
157,575	-9,776	251,779	118,208
158,589	-9,634	251,632	118,250
159,604	-9,573	251,385	118,175
160,619	-9,606	251,142	118,022
161,633	-9,781	251,132	117,859
162,648	-9,732	251,051	117,852
163,662	-9,731	250,908	117,775
164,677	-9,689	250,706	117,705
165,692	-9,737	250,502	117,558
166,706	-9,614	250,256	117,536
167,721	-9,540	250,214	117,568
168,735	-9,631	250,040	117,399
169,750	-9,643	249,765	117,250
170,764	-9,779	249,721	117,103
171,779	-9,637	249,490	117,105
172,794	-9,683	249,429	117,027
173,808	-9,745	249,271	116,890
174,823	-10,214	248,909	116,316
175,837	-10,176	248,806	116,289
176,852	-9,858	248,709	116,501
177,867	-9,514	248,453	116,658
178,881	-9,590	248,347	116,535
179,896	-9,474	248,030	116,472
180,910	-9,707	248,018	116,262
181,925	-9,607	247,819	116,242
182,940	-9,589	247,610	116,148
183,954	-9,685	247,403	115,961
184,969	-9,678	247,328	115,921
185,983	-9,607	247,184	115,902
186,998	-9,647	246,965	115,756
188,013	-9,689	246,927	115,693
189,027	-9,392	246,617	115,785
190,042	-9,673	246,552	115,510
191,056	-9,708	246,317	115,361
192,071	-9,523	246,016	115,363
193,086	-9,697	245,895	115,152
194,100	-9,696	245,755	115,077
195,115	-9,417	245,617	115,233
196,129	-9,571	245,355	114,972
197,144	-9,700	245,195	114,780
198,159	-9,698	244,957	114,660
199,173	-9,766	244,824	114,532
200,188	-9,830	244,758	114,438
201,202	-9,753	244,320	114,286
202,217	-9,960	244,127	114,016
203,232	-10,021	243,809	113,807
204,246	-9,676	243,949	114,145
205,261	-9,519	243,722	114,158
206,275	-10,443	243,221	113,157
207,290	-7,444	244,607	116,258
208,304	0,081	247,093	123,665
209,319	4,041	248,141	127,462
210,334	4,632	248,116	127,927
211,348	4,548	248,075	127,825
212,363	4,841	247,942	127,988
213,377	4,894	247,730	127,911
214,392	4,948	247,486	127,818
215,407	4,638	247,421	127,517
216,421	4,704	247,121	127,406
217,436	5,009	247,028	127,598
218,450	5,287	246,869	127,733
219,465	4,748	246,639	127,160
220,480	4,489	246,443	126,834
221,494	4,359	246,274	126,629
222,509	4,458	246,028	126,572
223,523	4,257	246,054	126,410
224,538	3,900	245,752	125,951
225,553	4,328	245,458	126,139
226,567	4,241	245,396	126,025
227,582	4,523	245,124	126,105
228,596	4,315	245,165	125,944
229,611	4,090	244,896	125,611
230,626	4,210	244,613	125,553
231,640	4,159	244,587	125,487
232,655	4,338	244,340	125,494
233,669	3,967	244,334	125,178
234,684	3,914	244,177	125,044
235,699	4,457	244,056	125,412
236,713	4,411	244,037	125,353
237,728	4,186	243,657	124,965
238,742	4,035	243,308	124,652
239,757	3,895	243,301	124,524
240,772	4,001	243,037	124,464
241,786	4,215	242,943	124,578
242,801	3,989	242,802	124,311
243,815	3,999	242,718	124,265
244,830	4,194	242,505	124,303
245,844	4,333	242,463	124,382
246,859	4,204	242,141	124,101
247,874	4,145	242,000	123,971
248,888	4,083	241,918	123,868
249,903	4,279	241,768	123,937
250,917	4,290	241,691	123,895
251,932	4,520	241,592	124,019
252,947	4,439	241,298	123,792
253,961	4,211	241,015	123,453
254,976	4,256	240,932	123,436
255,990	4,357	240,857	123,467
257,005	4,045	240,667	123,109
258,020	4,047	240,335	122,930
259,034	4,249	240,241	123,032
260,049	4,164	240,236	122,951
261,063	3,972	239,994	122,663
262,078	4,051	239,900	122,667
263,093	4,157	239,805	122,692
264,107	4,351	239,634	122,748
265,122	4,057	239,439	122,403
266,136	4,226	239,348	122,480
267,151	4,466	239,092	122,528
268,166	4,182	238,924	122,206
269,180	3,831	238,684	121,794
270,195	4,439	238,787	122,318
271,209	4,925	238,663	122,629
272,224	4,192	238,409	121,907
273,239	3,676	238,154	121,358
274,253	3,981	237,970	121,495
275,268	4,256	237,974	121,702
276,282	4,366	237,743	121,660
277,297	3,763	237,453	121,026
278,312	4,052	237,359	121,195
279,326	4,330	237,390	121,419
280,341	4,264	237,167	121,242
281,355	4,500	236,935	121,298
282,370	4,306	236,916	121,125
283,384	4,172	236,682	120,890
284,399	4,188	236,411	120,753
285,414	3,850	236,327	120,435
286,428	4,210	236,070	120,575
287,443	4,203	236,052	120,549
288,457	4,281	235,978	120,562
289,472	4,508	235,825	120,651
290,487	4,302	235,581	120,354
291,501	3,971	235,336	119,959
292,516	3,650	235,267	119,664
293,530	3,924	235,028	119,745
294,545	4,154	235,035	119,917
295,560	4,187	234,857	119,841
296,574	3,736	234,745	119,423
297,589	4,020	234,443	119,479
298,603	4,299	234,544	119,737
299,618	4,524	234,342	119,797
300,633	4,237	234,219	119,501
301,647	4,274	234,126	119,472
302,662	4,549	234,156	119,689
303,676	4,374	233,897	119,411
304,691	4,479	233,573	119,316
305,706	4,672	233,435	119,383
306,720	4,703	233,422	119,390
307,735	4,385	233,277	119,060
308,749	4,385	232,930	118,873
309,764	4,001	232,883	118,542
310,779	4,049	232,617	118,433
311,793	3,906	232,273	118,138
312,808	3,966	232,195	118,133
313,822	3,824	232,078	117,954
314,837	3,690	232,083	117,844
315,852	3,571	231,771	117,583
316,866	3,869	231,675	117,752
317,881	4,170	231,661	117,965
318,895	4,459	231,545	118,117
319,910	4,725	231,514	118,293
320,925	4,275	231,172	117,765
321,939	3,954	231,019	117,431
322,954	4,134	230,889	117,492
323,968	4,039	230,673	117,300
324,983	4,357	230,624	117,506
325,997	4,678	230,556	117,705
327,012	4,478	230,422	117,474
328,027	4,320	230,188	117,224
329,041	4,738	230,150	117,512
330,056	5,042	230,147	117,731
331,070	4,942	229,979	117,559
332,085	4,711	229,725	117,244
333,100	4,399	229,462	116,862
334,114	4,464	229,299	116,818
335,129	4,490	229,340	116,849
336,143	4,857	229,256	117,072
337,158	4,831	228,920	116,872
338,173	4,576	228,699	116,555
339,187	4,279	228,541	116,241
340,202	4,491	228,335	116,285
341,216	4,533	228,279	116,278
342,231	4,172	228,100	115,905
343,246	4,194	228,015	115,867
344,260	4,310	227,905	115,889
345,275	4,570	227,758	115,999
346,289	4,565	227,646	115,928
347,304	4,424	227,584	115,780
348,319	4,773	227,385	115,930
349,333	4,335	227,157	115,476
350,348	4,316	227,044	115,394
351,362	4,323	226,954	115,343
352,377	4,271	226,679	115,154
353,392	4,081	226,457	114,889
354,406	4,042	226,290	114,765
355,421	196,895	1319,777	1401,191
356,435	157,902	1452,992	1401,196
