DTS Sentinel unit serial number:	SN410029Multiplexer serial number:	ORYXHardware model number:	OX2-SRSoftware version number:	ORYX F/W v4,00 Oryx Data Collector v3.7.2.0data status	okinstallation	B5 Nyhavnadifferential loss correction	single-endedforward channel	channel 2reverse channel	N/Adate	2023/12/14time	05:02:13forward acquisition time	300,00reverse acquisition time	0,00gamma	499,1914k internal	0,3157k external	0,3157temperature offset calibration	1,0000default loss term (dB/km)	0,3820temperature slope calibration	1,0000multiplexer offset coefficient	1,0000multiplexer slope coefficient	1,0000fibre end	0,00T internal ref (°C)	7,83T ext. ref 1 (°C)	-8,73T ext. ref 2 (°C)	-8,81length (m)	temperature (°C)	Stokes	anti-Stokes-744,400	112,979	0,103	0,092
-743,385	-130,612	-0,282	-0,028
-742,371	-40,695	0,186	0,071
-741,356	-94,451	-0,222	-0,044
-740,342	122,722	0,153	0,141
-739,327	-139,921	-0,478	0,037
-738,312	70,590	0,160	0,122
-737,298	-90,239	-0,435	-0,092
-736,283	-34,178	0,166	0,067
-735,269	-149,292	-0,250	0,014
-734,254	28,815	0,281	0,175
-733,239	21,261	-0,443	-0,264
-732,225	108,100	0,202	0,177
-731,210	-200,000	0,004	-0,034
-730,196	100,800	-0,051	-0,043
-729,181	-183,386	-0,069	-0,001
-728,167	-90,650	0,118	-0,025
-727,152	-88,315	0,101	-0,022
-726,137	-97,980	-0,094	-0,018
-725,123	12,887	0,105	-0,060
-724,108	-200,000	-0,008	0,050
-723,094	800,000	-0,031	0,069
-722,079	211,910	0,092	-0,107
-721,064	135,985	-0,020	0,019
-720,050	147,503	-0,079	0,079
-719,035	-35,417	0,070	-0,028
-718,021	101,591	-0,063	0,054
-717,006	592,788	-0,052	-0,095
-715,991	491,946	-0,082	-0,139
-714,977	-200,000	0,021	-0,087
-713,962	43,070	-0,123	0,083
-712,948	39,704	0,071	-0,047
-711,933	247,235	0,081	-0,101
-710,918	42,589	-0,018	-0,012
-709,904	336,449	-0,137	-0,196
-708,889	-200,000	0,012	0,053
-707,875	706,898	0,031	-0,060
-706,860	-94,036	-0,033	0,007
-705,845	156,279	0,028	0,029
-704,831	58,933	0,090	0,065
-703,816	24,834	-0,097	-0,059
-702,802	-109,677	-0,096	0,015
-701,787	473,476	-0,034	-0,056
-700,772	-200,000	-0,014	-0,100
-699,758	-200,000	-0,026	-0,114
-698,743	469,045	-0,010	0,016
-697,729	-90,239	-0,139	-0,029
-696,714	252,311	0,077	-0,097
-695,699	58,811	-0,016	-0,012
-694,685	141,034	-0,141	-0,138
-693,670	-200,000	0,050	-0,167
-692,656	10,979	0,032	-0,018
-691,641	800,000	0,045	0,094
-690,627	-200,000	-0,010	-0,046
-689,612	339,054	-0,035	-0,051
-688,597	239,156	-0,079	-0,096
-687,583	-200,000	-0,002	-0,170
-686,568	-71,048	-0,049	0,014
-685,554	218,772	0,033	0,039
-684,539	545,138	-0,022	-0,039
-683,524	-200,000	-0,023	0,078
-682,510	120,991	-0,049	0,045
-681,495	78,535	-0,150	0,118
-680,481	41,700	0,092	0,061
-679,466	800,000	-0,028	-0,080
-678,451	154,512	-0,036	0,036
-677,437	461,952	-0,057	0,093
-676,422	13,767	-0,041	-0,023
-675,408	228,507	-0,117	-0,141
-674,393	16,808	0,052	-0,030
-673,378	-100,382	-0,210	-0,038
-672,364	335,631	0,059	-0,085
-671,349	360,956	0,077	-0,114
-670,335	174,558	0,059	0,063
-669,320	13,974	0,114	0,065
-668,305	105,037	0,039	-0,034
-667,291	-67,061	-0,098	0,028
-666,276	464,650	0,051	0,084
-665,262	619,845	0,034	-0,063
-664,247	800,000	-0,022	0,053
-663,232	171,370	0,025	-0,027
-662,218	-200,000	0,024	0,090
-661,203	2,493	0,059	-0,031
-660,189	634,708	0,030	-0,056
-659,174	-72,572	0,007	-0,002
-658,159	202,438	-0,046	0,053
-657,145	-200,000	0,006	-0,159
-656,130	221,540	-0,063	0,074
-655,116	-200,000	0,028	-0,148
-654,101	61,971	0,101	-0,074
-653,086	-200,000	-0,001	0,047
-652,072	31,022	0,099	0,062
-651,057	-200,000	0,013	-0,074
-650,043	167,359	-0,134	-0,140
-649,028	-200,000	-0,010	-0,074
-648,014	629,652	-0,072	-0,134
-646,999	-9,415	-0,014	-0,007
-645,984	37,435	0,084	0,054
-644,970	-56,676	-0,146	0,047
-643,955	470,835	-0,042	-0,070
-642,941	250,469	-0,091	0,113
-641,926	-123,291	0,040	0,005
-640,911	-200,000	0,009	-0,031
-639,897	-200,000	-0,026	0,120
-638,882	21,525	0,068	-0,041
-637,868	-41,110	-0,078	-0,030
-636,853	-200,000	0,009	-0,043
-635,838	-200,000	-0,035	-0,143
-634,824	-200,000	-0,008	0,117
-633,809	-200,000	0,004	-0,017
-632,795	83,712	0,150	-0,120
-631,780	-118,394	-0,111	0,014
-630,765	-42,430	0,129	-0,048
-629,751	-200,000	-0,012	-0,124
-628,736	-50,693	-0,053	-0,018
-627,722	-200,000	-0,009	-0,076
-626,707	-54,693	0,087	0,029
-625,692	800,000	-0,026	0,059
-624,678	6,141	-0,060	-0,032
-623,663	-28,798	-0,117	0,049
-622,649	-175,270	-0,079	-0,002
-621,634	-86,475	-0,037	0,008
-620,619	-116,559	0,017	0,002
-619,605	-200,000	0,033	-0,133
-618,590	-43,339	-0,010	0,004
-617,576	-82,218	0,037	0,009
-616,561	235,703	-0,075	-0,091
-615,546	-56,299	-0,123	-0,040
-614,532	658,758	-0,063	-0,119
-613,517	102,007	-0,077	-0,066
-612,503	-35,362	0,131	0,052
-611,488	2,851	-0,048	0,026
-610,474	-101,358	-0,165	0,029
-609,459	60,730	0,131	0,095
-608,444	-200,000	-0,044	-0,202
-607,430	588,712	-0,041	-0,075
-606,415	273,323	0,040	-0,052
-605,401	669,728	-0,032	0,062
-604,386	77,205	0,143	0,111
-603,371	221,132	-0,052	-0,061
-602,357	-200,000	-0,027	0,098
-601,342	-200,000	0,011	-0,113
-600,328	204,747	-0,050	-0,057
-599,313	437,125	0,034	-0,055
-598,298	-148,087	-0,037	0,002
-597,284	-200,000	-0,004	0,052
-596,269	440,287	-0,042	0,067
-595,255	-200,000	-0,016	-0,090
-594,240	800,000	0,017	0,054
-593,225	-200,000	-0,004	-0,016
-592,211	800,000	0,008	0,026
-591,196	63,822	-0,077	0,056
-590,182	-200,000	0,002	0,008
-589,167	153,411	-0,091	0,091
-588,152	319,025	0,070	0,097
-587,138	-4,187	0,050	-0,025
-586,123	212,664	0,098	-0,114
-585,109	-200,000	0,000	0,001
-584,094	-37,141	-0,075	0,029
-583,079	-200,000	-0,011	0,061
-582,065	-5,496	-0,045	-0,023
-581,050	-200,000	-0,020	0,066
-580,036	102,201	0,019	-0,016
-579,021	-20,988	-0,115	0,051
-578,006	-200,000	-0,007	-0,044
-576,992	800,000	-0,014	0,040
-575,977	38,399	0,065	-0,043
-574,963	56,368	0,069	0,049
-573,948	13,376	-0,183	-0,103
-572,934	-165,413	0,038	-0,001
-571,919	110,809	0,071	-0,062
-570,904	800,000	0,017	-0,042
-569,890	299,922	-0,030	0,040
-568,875	336,570	0,085	0,122
-567,861	-200,000	0,015	0,057
-566,846	-200,000	0,009	-0,060
-565,831	-200,000	0,003	-0,048
-564,817	126,165	0,080	-0,074
-563,802	115,075	0,083	0,074
-562,788	-63,705	-0,121	-0,036
-561,773	9,680	0,084	0,046
-560,758	4,068	-0,033	-0,017
-559,744	49,201	-0,087	0,060
-558,729	169,949	-0,038	-0,039
-557,715	82,522	-0,131	-0,104
-556,700	800,000	-0,019	-0,059
-555,685	-178,813	0,150	0,002
-554,671	-117,559	-0,154	0,020
-553,656	800,000	-0,056	0,121
-552,642	168,227	-0,072	0,075
-551,627	800,000	0,040	0,115
-550,612	0,130	-0,125	0,065
-549,598	-63,320	-0,044	-0,013
-548,583	-200,000	-0,015	0,091
-547,569	-200,000	-0,029	-0,105
-546,554	-13,284	0,106	0,050
-545,539	10,481	0,053	0,030
-544,525	124,551	0,051	0,047
-543,510	-12,998	-0,041	0,019
-542,496	-200,000	-0,010	-0,097
-541,481	-57,748	-0,045	-0,014
-540,466	381,617	0,047	-0,071
-539,452	35,785	-0,154	0,099
-538,437	22,438	0,099	0,059
-537,423	331,461	0,058	0,083
-536,408	82,483	-0,123	-0,097
-535,393	-200,000	0,004	0,015
-534,379	-0,374	0,085	-0,044
-533,364	-169,789	0,010	-0,000
-532,350	130,749	-0,092	0,086
-531,335	-7,888	0,096	-0,047
-530,321	43,321	0,123	0,082
-529,306	55,404	-0,017	-0,012
-528,291	210,872	-0,087	-0,100
-527,277	-76,761	0,047	0,012
-526,262	654,952	0,043	-0,080
-525,248	-20,018	-0,068	0,030
-524,233	800,000	0,037	0,111
-523,218	-200,000	-0,014	0,062
-522,204	-140,977	-0,028	-0,002
-521,189	800,000	0,019	-0,042
-520,175	800,000	0,062	-0,142
-519,160	-200,000	0,000	-0,037
-518,145	66,441	-0,145	0,108
-517,131	89,224	0,079	0,065
-516,116	561,951	0,064	0,114
-515,102	17,920	-0,074	-0,043
-514,087	100,068	0,113	-0,095
-513,072	-74,440	-0,147	0,039
-512,058	168,894	-0,014	-0,015
-511,043	-33,015	0,093	-0,037
-510,029	248,607	-0,030	-0,038
-509,014	30,871	0,116	-0,072
-507,999	800,000	-0,037	0,075
-506,985	-64,186	0,074	-0,022
-505,970	800,000	0,045	-0,123
-504,956	-124,653	-0,123	0,014
-503,941	-47,267	0,093	0,033
-502,926	228,813	0,027	-0,032
-501,912	82,256	0,180	0,143
-500,897	277,513	-0,035	0,045
-499,883	34,175	-0,120	0,076
-498,868	357,501	0,031	-0,045
-497,853	-104,509	0,175	0,029
-496,839	-74,867	-0,157	0,041
-495,824	-200,000	0,020	0,070
-494,810	258,131	-0,055	0,069
-493,795	-57,271	-0,098	-0,031
-492,781	103,048	0,077	-0,066
-491,766	-6,073	0,076	0,038
-490,751	82,672	0,032	0,025
-489,737	77,192	0,092	0,071
-488,722	483,993	0,049	-0,081
-487,708	38,140	0,074	0,048
-486,693	-200,000	0,002	-0,008
-485,678	128,453	-0,079	-0,074
-484,664	-200,000	0,006	-0,039
-483,649	-64,836	0,155	-0,045
-482,635	-74,944	-0,127	0,033
-481,620	417,090	0,081	-0,127
-480,605	-32,349	-0,089	0,036
-479,591	19,804	0,136	0,080
-478,576	14,856	0,033	-0,019
-477,562	2,374	-0,075	0,039
-476,547	86,377	-0,072	-0,058
-475,532	390,889	0,048	0,072
-474,518	120,197	0,081	-0,073
-473,503	800,000	-0,020	-0,055
-472,489	-200,000	-0,011	-0,073
-471,474	-63,592	-0,138	0,041
-470,459	162,713	-0,068	-0,069
-469,445	-79,150	0,126	0,031
-468,430	251,302	-0,031	-0,038
-467,416	172,676	0,077	0,080
-466,401	-200,000	0,002	0,154
-465,386	-200,000	0,012	0,045
-464,372	112,665	0,047	-0,042
-463,357	-78,559	-0,063	0,016
-462,343	73,201	0,112	-0,085
-461,328	497,570	-0,043	0,072
-460,313	-76,329	-0,108	-0,028
-459,299	-200,000	0,027	0,113
-458,284	800,000	-0,027	0,075
-457,270	281,116	-0,048	-0,063
-456,255	-186,656	0,026	-0,000
-455,241	-200,000	-0,012	-0,124
-454,226	-92,391	0,037	0,008
-453,211	-36,878	-0,118	0,046
-452,197	800,000	-0,025	0,062
-451,182	-200,000	-0,013	0,146
-450,168	304,051	0,032	0,044
-449,153	800,000	0,036	-0,096
-448,138	800,000	-0,013	0,038
-447,124	-34,777	0,104	-0,041
-446,109	-200,000	-0,014	-0,054
-445,095	100,771	-0,152	0,129
-444,080	-44,215	0,032	0,012
-443,065	-200,000	-0,013	0,100
-442,051	-47,327	0,101	0,036
-441,036	-116,619	-0,044	-0,006
-440,022	800,000	0,008	-0,021
-439,007	-200,000	-0,000	0,017
-437,992	800,000	-0,033	0,105
-436,978	176,562	-0,071	0,075
-435,963	-0,433	0,077	-0,040
-434,949	-200,000	-0,016	-0,109
-433,934	-36,199	-0,260	-0,102
-432,919	53,694	0,107	0,075
-431,905	111,951	-0,056	0,049
-430,890	225,821	0,035	-0,041
-429,876	85,110	-0,073	-0,058
-428,861	800,000	0,035	0,082
-427,846	441,782	-0,064	0,102
-426,832	800,000	0,057	-0,160
-425,817	-200,000	-0,037	-0,179
-424,803	800,000	0,025	-0,070
-423,788	-200,000	0,015	0,101
-422,773	125,700	0,114	0,105
-421,759	-200,000	-0,005	0,102
-420,744	-200,000	-0,014	-0,112
-419,730	-62,540	-0,062	0,019
-418,715	-110,369	0,028	-0,004
-417,701	120,384	-0,028	-0,025
-416,686	-61,481	0,043	0,013
-415,671	688,357	0,017	-0,033
-414,657	577,096	-0,055	0,098
-413,642	398,415	0,039	0,059
-412,628	605,648	0,044	-0,081
-411,613	800,000	-0,066	-0,134
-410,598	7,169	-0,084	-0,045
-409,584	155,458	0,044	-0,045
-408,569	800,000	0,057	0,130
-407,555	-200,000	-0,007	0,085
-406,540	-200,000	0,010	0,062
-405,525	256,356	-0,009	-0,012
-404,511	44,264	-0,084	0,056
-403,496	148,275	0,023	0,022
-402,482	-14,859	-0,016	-0,007
-401,467	800,000	0,013	-0,029
-400,452	33,368	0,055	0,035
-399,438	800,000	-0,059	0,136
-398,423	21,332	-0,044	-0,026
-397,409	-33,902	-0,011	-0,004
-396,394	-82,257	0,095	-0,022
-395,379	75,793	0,213	0,163
-394,365	35,719	0,040	-0,026
-393,350	259,699	-0,014	-0,018
-392,336	-22,554	-0,079	-0,035
-391,321	112,718	0,040	0,036
-390,306	186,240	-0,071	0,077
-389,292	-169,675	-0,018	-0,000
-388,277	-152,230	-0,063	0,003
-387,263	-23,716	0,067	0,029
-386,248	800,000	-0,021	-0,060
-385,233	-200,000	-0,038	-0,148
-384,219	-32,996	-0,040	0,016
-383,204	254,053	-0,082	-0,102
-382,190	800,000	-0,048	-0,114
-381,175	-139,205	0,044	0,003
-380,160	-200,000	-0,027	0,115
-379,146	-200,000	-0,010	0,119
-378,131	-145,564	-0,089	-0,006
-377,117	-200,000	-0,003	-0,080
-376,102	-200,000	-0,001	-0,010
-375,088	642,622	-0,056	-0,104
-374,073	146,261	-0,061	-0,059
-373,058	289,096	0,063	0,083
-372,044	-200,000	-0,008	0,120
-371,029	-200,000	0,001	0,042
-370,015	34,871	0,034	-0,021
-369,000	-200,000	-0,037	0,162
-367,985	-86,754	-0,212	0,047
-366,971	-186,338	0,123	0,001
-365,956	134,584	0,041	-0,039
-364,942	-200,000	-0,009	-0,116
-363,927	108,665	0,166	0,144
-362,912	-200,000	0,008	0,041
-361,898	-200,000	-0,055	0,222
-360,883	464,968	-0,026	-0,043
-359,869	1,403	0,038	-0,020
-358,854	-86,610	0,067	-0,015
-357,839	-99,742	0,041	0,007
-356,825	425,462	0,081	0,127
-355,810	119,739	0,087	0,078
-354,796	-200,000	-0,016	0,089
-353,781	106,928	-0,085	-0,073
-352,766	800,000	0,014	0,036
-351,752	75,853	0,054	-0,041
-350,737	-200,000	-0,003	0,041
-349,723	-200,000	-0,006	0,060
-348,708	-26,379	0,132	0,056
-347,693	800,000	-0,035	0,091
-346,679	-5,431	0,067	0,033
-345,664	256,621	0,096	-0,120
-344,650	124,322	0,054	-0,050
-343,635	3,129	0,081	-0,043
-342,620	-75,902	-0,030	0,008
-341,606	75,553	0,112	0,086
-340,591	-41,333	0,059	0,022
-339,577	35,021	0,059	-0,038
-338,562	-158,542	0,119	-0,005
-337,548	66,975	0,032	-0,024
-336,533	217,037	0,045	0,052
-335,518	86,838	0,044	-0,035
-334,504	-108,204	0,165	0,026
-333,489	-0,651	-0,036	-0,018
-332,475	-26,114	0,028	-0,012
-331,460	76,253	-0,059	0,045
-330,445	-200,000	0,008	-0,146
-329,431	21,548	-0,026	0,015
-328,416	77,319	-0,075	-0,058
-327,402	102,224	0,133	0,112
-326,387	-22,983	-0,016	0,007
-325,372	462,371	0,016	0,027
-324,358	-200,000	-0,004	0,028
-323,343	227,617	-0,098	0,116
-322,329	2,075	-0,063	-0,033
-321,314	-124,525	-0,035	-0,004
-320,299	-27,259	-0,089	0,037
-319,285	484,620	0,019	-0,031
-318,270	-84,073	-0,166	-0,038
-317,256	-17,904	-0,133	-0,060
-316,241	185,182	-0,015	0,016
-315,226	300,188	0,077	-0,104
-314,212	-200,000	-0,025	0,313
-313,197	-200,000	0,015	0,114
-312,183	15,225	0,120	-0,068
-311,168	-132,030	0,060	-0,006
-310,153	736,615	-0,055	-0,108
-309,139	-112,130	-0,090	-0,013
-308,124	99,543	-0,053	0,044
-307,110	160,874	0,100	0,101
-306,095	131,326	0,044	0,041
-305,080	273,871	0,040	0,051
-304,066	54,063	-0,111	-0,077
-303,051	-80,620	-0,083	-0,020
-302,037	194,640	0,050	-0,056
-301,022	-47,770	0,015	-0,005
-300,008	-155,264	0,062	0,003
-298,993	-85,451	0,042	-0,009
-297,978	467,184	-0,037	0,060
-296,964	-32,412	0,111	-0,045
-295,949	-20,434	-0,051	0,023
-294,935	-200,000	-0,011	-0,107
-293,920	406,073	-0,039	-0,059
-292,905	-104,911	0,065	-0,011
-291,891	46,622	0,107	0,072
-290,876	49,883	-0,022	-0,015
-289,862	-200,000	0,027	-0,103
-288,847	72,115	-0,123	-0,093
-287,832	87,918	0,121	-0,097
-286,818	246,302	0,054	-0,066
-285,803	800,000	0,082	0,237
-284,789	231,728	0,022	-0,027
-283,774	40,656	0,140	-0,091
-282,759	27,755	0,092	0,056
-281,745	-80,805	-0,020	-0,005
-280,730	-21,242	0,081	0,036
-279,716	41,973	0,019	0,012
-278,701	373,464	0,031	-0,045
-277,686	27,482	0,051	-0,031
-276,672	800,000	-0,002	-0,007
-275,657	427,206	0,040	0,062
-274,643	-200,000	-0,003	-0,098
-273,628	-125,776	-0,186	-0,020
-272,613	800,000	0,021	0,052
-271,599	685,817	0,081	-0,153
-270,584	214,857	-0,088	0,101
-269,570	-56,262	0,192	0,061
-268,555	-200,000	-0,013	-0,072
-267,540	-200,000	-0,005	-0,141
-266,526	161,830	-0,087	-0,089
-265,511	-13,360	-0,080	0,037
-264,497	-200,000	-0,006	-0,034
-263,482	-200,000	0,011	0,098
-262,467	-37,731	0,023	0,009
-261,453	800,000	-0,043	0,109
-260,438	-200,000	-0,008	-0,092
-259,424	61,895	0,016	0,012
-258,409	486,954	0,043	-0,071
-257,395	-200,000	0,031	0,132
-256,380	-200,000	0,003	0,158
-255,365	528,925	0,071	0,121
-254,351	-200,000	0,010	0,046
-253,336	55,473	-0,026	-0,018
-252,322	-42,283	-0,106	0,039
-251,307	4,609	-0,064	-0,034
-250,292	800,000	0,044	0,095
-249,278	-33,892	0,154	0,061
-248,263	-78,527	-0,059	0,015
-247,249	17,014	-0,038	-0,022
-246,234	800,000	-0,077	-0,163
-245,219	-44,034	0,123	-0,044
-244,205	40,097	0,103	-0,067
-243,190	53,084	-0,033	0,023
-242,176	-90,609	0,087	0,018
-241,161	-27,627	-0,085	0,035
-240,146	561,180	-0,022	0,038
-239,132	-200,000	0,017	-0,092
-238,117	110,947	-0,124	-0,108
-237,103	-200,000	-0,030	-0,144
-236,088	-143,852	0,064	-0,004
-235,073	800,000	0,026	-0,068
-234,059	800,000	0,027	0,068
-233,044	102,870	0,069	-0,058
-232,030	-106,803	-0,139	-0,022
-231,015	748,857	-0,042	-0,082
-230,000	-200,000	0,000	-0,212
-228,986	471,819	0,017	0,028
-227,971	-190,743	-0,057	0,000
-226,957	25,403	0,023	0,014
-225,942	446,058	0,035	-0,055
-224,927	-19,972	-0,029	0,013
-223,913	589,066	-0,064	-0,114
-222,898	-35,443	-0,006	0,002
-221,884	-200,000	-0,002	-0,036
-220,869	800,000	0,027	-0,074
-219,855	260,156	-0,022	0,027
-218,840	800,000	0,010	-0,032
-217,825	-200,000	0,003	-0,065
-216,811	428,828	-0,062	-0,097
-215,796	161,162	-0,078	-0,079
-214,782	9,990	-0,131	-0,072
-213,767	231,826	0,068	0,081
-212,752	-200,000	-0,001	-0,040
-211,738	-102,809	0,105	-0,018
-210,723	-114,905	-0,055	0,008
-209,709	-163,234	-0,057	-0,002
-208,694	62,926	0,029	-0,021
-207,679	179,723	-0,084	-0,088
-206,665	285,766	0,085	0,111
-205,650	184,100	0,104	0,111
-204,636	-137,869	-0,158	-0,013
-203,621	468,739	0,023	0,038
-202,606	800,000	-0,082	-0,199
-201,592	-200,000	-0,002	-0,013
-200,577	180,686	0,039	-0,042
-199,563	-41,561	0,096	-0,035
-198,548	-134,296	0,114	0,010
-197,533	-200,000	-0,013	0,057
-196,519	-200,000	-0,004	-0,047
-195,504	40,382	-0,095	-0,061
-194,490	-138,515	-0,093	-0,007
-193,475	-101,838	-0,053	0,009
-192,460	-119,323	0,085	0,011
-191,446	800,000	0,046	0,103
-190,431	68,109	0,050	0,037
-189,417	295,783	-0,033	-0,043
-188,402	-103,969	-0,216	0,036
-187,387	-150,735	0,046	0,002
-186,373	796,239	-0,099	-0,198
-185,358	-13,563	0,056	-0,026
-184,344	800,000	-0,023	-0,072
-183,329	-200,000	-0,010	0,049
-182,315	731,472	-0,031	0,061
-181,300	369,670	0,063	-0,093
-180,285	68,840	-0,062	0,046
-179,271	185,254	-0,023	0,025
-178,256	-133,495	0,081	0,007
-177,242	336,550	-0,065	-0,091
-176,227	-162,322	0,108	-0,004
-175,212	-200,000	-0,010	0,102
-174,198	800,000	0,055	0,139
-173,183	-200,000	0,034	-0,176
-172,169	184,670	-0,094	0,100
-171,154	800,000	-0,026	0,057
-170,139	20,597	0,062	0,036
-169,125	-200,000	0,030	-0,105
-168,110	9,231	-0,014	0,008
-167,096	24,296	0,095	-0,056
-166,081	-122,129	-0,110	0,013
-165,066	100,210	-0,121	-0,101
-164,052	-153,654	0,072	-0,003
-163,037	-138,155	0,201	0,016
-162,023	536,480	0,060	-0,103
-161,008	-200,000	-0,006	0,082
-159,993	800,000	-0,015	0,043
-158,979	-53,406	-0,088	0,029
-157,964	77,897	-0,075	-0,058
-156,950	-94,587	-0,148	0,029
-155,935	218,478	0,049	0,057
-154,920	-87,502	0,189	0,041
-153,906	800,000	-0,046	0,132
-152,891	-158,631	-0,074	0,003
-151,877	-82,220	-0,169	-0,039
-150,862	-177,879	-0,019	0,000
-149,847	-180,561	0,055	-0,001
-148,833	800,000	0,022	0,056
-147,818	126,941	0,108	-0,099
-146,804	171,837	0,100	-0,104
-145,789	800,000	-0,037	-0,091
-144,775	800,000	-0,005	-0,011
-143,760	134,176	0,050	-0,047
-142,745	376,862	-0,071	-0,105
-141,731	-19,507	-0,100	0,045
-140,716	355,450	0,014	0,020
-139,702	-157,595	0,078	-0,003
-138,687	-56,378	-0,043	-0,014
-137,672	-200,000	-0,002	-0,019
-136,658	-200,000	-0,005	-0,029
-135,643	145,741	-0,074	-0,071
-134,629	-107,650	-0,129	-0,020
-133,614	-200,000	0,002	-0,072
-132,599	580,068	-0,092	0,164
-131,585	-200,000	-0,028	0,113
-130,570	-116,043	-0,132	-0,017
-129,556	800,000	0,021	0,059
-128,541	-0,999	-0,109	-0,055
-127,526	-200,000	-0,020	0,124
-126,512	-98,500	-0,082	-0,015
-125,497	-70,328	0,005	0,001
-124,483	-40,879	0,087	0,032
-123,468	800,000	0,038	0,103
-122,453	-126,065	-0,183	-0,020
-121,439	-0,203	0,034	-0,017
-120,424	63,982	-0,077	0,056
-119,410	75,467	-0,082	0,062
-118,395	-200,000	0,007	0,072
-117,380	800,000	-0,057	0,119
-116,366	60,088	0,090	-0,064
-115,351	-200,000	0,004	0,053
-114,337	-82,608	0,126	-0,029
-113,322	73,096	-0,061	0,046
-112,307	106,637	0,137	-0,117
-111,293	800,000	0,021	0,054
-110,278	131,837	0,077	0,071
-109,264	-36,074	-0,187	-0,072
-108,249	-27,556	-0,081	0,034
-107,234	-153,395	-0,084	-0,004
-106,220	-200,000	0,030	0,094
-105,205	384,210	-0,008	0,012
-104,191	-200,000	0,009	-0,088
-103,176	37,005	0,041	-0,026
-102,162	-200,000	0,001	-0,113
-101,147	-55,631	0,047	0,015
-100,132	84,250	-0,056	-0,044
-99,118	-200,000	0,004	-0,142
-98,103	-94,032	-0,026	-0,005
-97,089	-200,000	0,009	-0,051
-96,074	28,362	0,084	-0,051
-95,059	-178,667	0,070	-0,001
-94,045	256,353	-0,077	0,095
-93,030	-200,000	-0,017	0,115
-92,016	-81,120	-0,142	-0,033
-91,001	12,505	0,081	-0,045
-89,986	551,567	0,047	0,082
-88,972	-85,909	0,037	0,008
-87,957	-19,886	-0,181	0,080
-86,943	-200,000	-0,076	0,000
-85,928	-200,000	-0,010	0,059
-84,913	-200,000	-0,017	-0,058
-83,899	-63,267	-0,130	0,038
-82,884	-200,000	-0,021	0,185
-81,870	484,576	-0,054	0,089
-80,855	800,000	-0,045	-0,094
-79,840	-96,780	0,104	0,019
-78,826	800,000	-0,018	0,039
-77,811	-200,000	-0,001	-0,079
-76,797	800,000	0,032	0,090
-75,782	-200,000	0,016	-0,117
-74,767	-26,401	-0,015	-0,006
-73,753	800,000	-0,007	-0,022
-72,738	244,901	-0,044	0,053
-71,724	800,000	-0,038	-0,112
-70,709	800,000	0,062	-0,124
-69,694	-42,803	-0,088	-0,032
-68,680	3,708	0,075	-0,039
-67,665	624,532	-0,037	-0,067
-66,651	398,335	-0,041	0,062
-65,636	-140,141	-0,141	0,010
-64,622	-189,930	0,005	0,000
-63,607	-178,551	-0,080	-0,001
-62,592	55,204	-0,035	-0,024
-61,578	-136,855	0,073	0,006
-60,563	-200,000	0,022	0,074
-59,549	-200,000	-0,002	0,106
-58,534	94,504	-2,661	-2,170
-57,519	-128,300	0,317	-0,032
-56,505	-200,000	-1,705	-5,452
-55,490	574,976	1,116	1,964
-54,476	800,000	5,364	11,218
-53,461	-200,000	22,171	348,354
-52,446	800,000	760,549	2293,971
-51,432	513,073	1644,518	2762,127
-50,417	96,734	1606,985	1320,759
-49,403	64,474	1264,064	913,189
-48,388	22,779	1016,347	596,135
-47,373	19,455	983,861	566,103
-46,359	12,744	971,032	536,767
-45,344	8,507	967,657	521,015
-44,330	8,964	965,711	521,441
-43,315	7,954	963,848	517,118
-42,300	7,934	962,619	516,373
-41,286	7,896	961,827	515,802
-40,271	7,904	960,822	515,269
-39,257	7,831	959,857	514,495
-38,242	7,893	959,039	514,237
-37,227	7,864	958,107	513,622
-36,213	7,819	957,387	513,069
-35,198	7,847	956,338	512,578
-34,184	7,920	955,618	512,407
-33,169	7,860	954,692	511,698
-32,154	7,861	954,155	511,392
-31,140	7,871	953,211	510,897
-30,125	7,929	952,246	510,548
-29,111	7,899	951,538	510,051
-28,096	7,875	950,843	509,582
-27,082	7,872	950,193	509,203
-26,067	7,832	949,584	508,729
-25,052	7,844	948,699	508,271
-24,038	7,851	947,995	507,896
-23,023	7,828	947,325	507,443
-22,009	7,853	946,673	507,156
-20,994	7,805	946,274	506,768
-19,979	7,871	945,381	506,480
-18,965	7,802	944,815	505,937
-17,950	7,866	944,155	505,767
-16,936	7,785	943,678	505,234
-15,921	7,867	942,850	505,030
-14,906	7,832	942,043	504,466
-13,892	7,821	941,499	504,121
-12,877	7,722	940,924	503,477
-11,863	7,758	940,407	503,297
-10,848	7,768	939,772	502,968
-9,833	7,832	939,307	502,903
-8,819	7,777	938,733	502,400
-7,804	7,716	938,127	501,862
-6,790	7,756	937,331	501,542
-5,775	7,766	936,798	501,269
-4,760	7,812	936,164	501,056
-3,746	7,787	935,796	500,762
-2,731	7,634	934,937	499,798
-1,717	7,605	934,278	499,334
-0,702	7,649	933,470	499,019
0,313	7,392	933,105	498,768
1,327	10,918	930,758	508,578
2,342	19,638	778,788	448,365
3,356	14,637	446,625	249,602
4,371	-11,792	311,398	146,017
5,386	-15,944	294,171	133,740
6,400	-17,879	287,934	128,980
7,415	-17,998	285,338	127,690
8,429	-18,478	283,575	126,422
9,444	-18,670	282,765	125,864
10,459	-18,466	282,058	125,736
11,473	-18,519	281,482	125,416
12,488	-18,269	280,970	125,418
13,502	-18,322	280,451	125,124
14,517	-18,438	280,016	124,807
15,531	-18,209	279,416	124,748
16,546	-18,317	279,314	124,588
17,561	-18,170	278,887	124,527
18,575	-18,127	278,603	124,431
19,590	-18,257	278,219	124,124
20,604	-18,130	277,829	124,060
21,619	-18,185	277,524	123,860
22,634	-18,270	277,230	123,637
23,648	-18,288	276,707	123,375
24,663	-18,326	276,617	123,288
25,677	-18,074	276,247	123,351
26,692	-18,231	276,100	123,126
27,707	-18,263	275,882	122,988
28,721	-18,192	275,519	122,882
29,736	-18,213	275,268	122,739
30,750	-18,223	274,985	122,592
31,765	-18,185	274,697	122,490
32,780	-18,299	274,674	122,361
33,794	-18,126	274,161	122,283
34,809	-18,152	274,081	122,213
35,823	-17,912	273,681	122,248
36,838	-18,265	273,385	121,775
37,853	-18,199	273,309	121,792
38,867	-18,084	273,053	121,775
39,882	-18,179	272,914	121,613
40,896	-18,047	272,375	121,484
41,911	-18,171	272,239	121,298
42,926	-18,212	272,080	121,178
43,940	-18,083	271,760	121,145
44,955	-18,088	271,483	121,006
45,969	-18,214	271,387	120,835
46,984	-18,123	271,075	120,770
47,999	-18,052	270,997	120,790
49,013	-18,021	270,904	120,767
50,028	-18,008	270,625	120,644
51,042	-17,990	270,296	120,502
52,057	-18,005	270,078	120,381
53,071	-18,059	269,836	120,213
54,086	-17,965	269,555	120,164
55,101	-17,939	269,471	120,139
56,115	-18,088	269,266	119,900
57,130	-18,124	268,974	119,726
58,144	-18,305	268,508	119,342
59,159	-18,345	268,372	119,234
60,174	-18,342	268,030	119,074
61,188	-18,211	267,752	119,060
62,203	-18,156	267,795	119,119
63,217	-18,064	267,429	119,029
64,232	-18,255	267,358	118,813
65,247	-18,161	267,052	118,752
66,261	-18,246	266,804	118,554
67,276	-18,102	266,673	118,616
68,290	-18,065	266,306	118,475
69,305	-18,165	266,297	118,370
70,320	-18,220	265,854	118,112
71,334	-18,203	265,693	118,046
72,349	-18,195	265,425	117,924
73,363	-18,284	265,225	117,744
74,378	-18,186	264,983	117,714
75,393	-18,134	264,864	117,698
76,407	-18,228	264,510	117,446
77,422	-18,184	264,363	117,409
78,436	-18,175	264,081	117,282
79,451	-18,179	263,890	117,183
80,466	-18,101	263,655	117,139
81,480	-18,120	263,457	117,023
82,495	-18,191	263,311	116,884
83,509	-17,892	263,072	117,035
84,524	-18,044	262,723	116,734
85,539	-17,990	262,601	116,718
86,553	-17,943	262,456	116,685
87,568	-18,012	262,182	116,491
88,582	-18,125	261,958	116,280
89,597	-18,043	261,805	116,274
90,611	-18,141	261,684	116,123
91,626	-18,233	261,533	115,964
92,641	-18,171	261,187	115,855
93,655	-18,052	260,974	115,856
94,670	-18,001	260,697	115,769
95,684	-17,966	260,541	115,720
96,699	-18,080	260,338	115,519
97,714	-18,171	260,224	115,377
98,728	-18,091	259,992	115,334
99,743	-18,131	259,659	115,142
100,757	-17,957	259,411	115,175
101,772	-17,991	259,265	115,069
102,787	-18,136	258,992	114,811
103,801	-18,103	258,859	114,770
104,816	-18,194	258,724	114,619
105,830	-18,152	258,558	114,573
106,845	-18,100	258,187	114,444
107,860	-18,112	258,119	114,393
108,874	-18,140	257,972	114,294
109,889	-18,024	257,512	114,181
110,903	-18,157	257,416	114,012
111,918	-18,187	257,315	113,930
112,933	-17,931	257,088	114,044
113,947	-17,960	256,758	113,861
114,962	-17,944	256,611	113,801
115,976	-18,086	256,500	113,617
116,991	-17,996	256,231	113,566
118,006	-18,096	256,000	113,367
119,020	-18,159	255,956	113,283
120,035	-18,116	255,726	113,208
121,049	-18,120	255,558	113,120
122,064	-18,165	255,374	112,989
123,079	-18,068	255,177	112,976
124,093	-18,101	255,139	112,921
125,108	-18,103	254,726	112,726
126,122	-17,965	254,671	112,811
127,137	-18,025	254,416	112,636
128,151	-17,776	254,097	112,700
129,166	-17,946	253,980	112,492
130,181	-17,818	253,817	112,519
131,195	-17,932	253,423	112,237
132,210	-18,126	253,416	112,057
133,224	-17,828	252,989	112,114
134,239	-18,044	253,004	111,924
135,254	-18,054	252,700	111,772
136,268	-17,920	252,554	111,812
137,283	-18,039	252,419	111,640
138,297	-18,019	252,180	111,542
139,312	-18,043	252,075	111,465
140,327	-17,954	251,718	111,373
141,341	-18,200	251,408	111,016
142,356	-18,020	251,176	111,057
143,370	-17,938	251,075	111,072
144,385	-17,974	250,840	110,928
145,400	-18,167	250,765	110,721
146,414	-17,991	250,551	110,766
147,429	-18,154	250,465	110,580
148,443	-17,976	250,038	110,532
149,458	-18,106	250,013	110,401
150,473	-18,202	249,905	110,263
151,487	-18,190	249,693	110,169
152,502	-18,116	249,355	110,073
153,516	-18,007	249,242	110,105
154,531	-17,937	249,060	110,074
155,546	-17,909	248,943	110,036
156,560	-17,976	248,811	109,912
157,575	-17,949	248,428	109,755
158,589	-18,015	248,419	109,686
159,604	-17,925	248,023	109,577
160,619	-17,996	247,937	109,470
161,633	-18,161	247,662	109,200
162,648	-18,130	247,776	109,267
163,662	-18,018	247,562	109,256
164,677	-17,930	247,319	109,213
165,692	-18,028	247,091	109,020
166,706	-18,105	247,163	108,978
167,721	-18,049	246,768	108,841
168,735	-18,248	246,653	108,615
169,750	-17,988	246,225	108,632
170,764	-18,069	246,322	108,599
171,779	-18,031	246,071	108,510
172,794	-18,082	246,067	108,456
173,808	-18,011	245,866	108,417
174,823	-17,938	245,612	108,355
175,837	-18,048	245,589	108,245
176,852	-18,048	245,260	108,090
177,867	-17,890	245,101	108,140
178,881	-17,934	244,883	107,999
179,896	-17,992	244,610	107,821
180,910	-17,884	244,520	107,861
181,925	-17,927	244,364	107,747
182,940	-17,987	244,069	107,558
183,954	-18,086	244,176	107,513
184,969	-17,911	243,722	107,448
185,983	-18,006	243,770	107,382
186,998	-17,842	243,521	107,397
188,013	-17,998	243,303	107,163
189,027	-17,940	242,999	107,067
190,042	-17,870	242,843	107,047
191,056	-18,129	242,712	106,767
192,071	-18,011	242,480	106,752
193,086	-17,906	242,290	106,745
194,100	-17,916	242,245	106,707
195,115	-17,793	242,001	106,690
196,129	-18,053	241,790	106,376
197,144	-18,092	241,514	106,213
198,159	-18,080	241,286	106,113
199,173	-18,022	241,246	106,133
200,188	-18,261	241,116	105,872
201,202	-17,854	240,928	106,111
202,217	-17,780	240,721	106,071
203,232	-17,719	240,561	106,040
204,246	-17,929	240,298	105,745
205,261	-18,157	240,122	105,473
206,275	-16,910	240,578	106,675
207,290	-12,162	242,132	111,228
208,304	-5,909	244,405	117,400
209,319	-2,195	245,196	120,824
210,334	-1,128	245,417	121,800
211,348	0,013	245,514	122,774
212,363	0,326	245,516	123,021
213,377	0,722	245,528	123,341
214,392	0,809	245,489	123,382
215,407	1,082	245,409	123,555
216,421	1,156	245,218	123,509
217,436	1,182	245,021	123,419
218,450	1,125	245,022	123,362
219,465	1,105	244,914	123,280
220,480	1,298	244,786	123,363
221,494	1,079	244,539	123,048
222,509	0,873	244,227	122,712
223,523	0,596	244,102	122,413
224,538	0,674	243,659	122,243
225,553	0,582	243,693	122,175
226,567	0,534	243,479	122,017
227,582	0,484	243,459	121,955
228,596	0,600	243,063	121,841
229,611	0,673	243,151	121,933
230,626	0,561	242,742	121,626
231,640	0,450	242,663	121,486
232,655	0,484	242,469	121,406
233,669	0,558	242,320	121,380
234,684	0,514	242,049	121,198
235,699	0,467	242,003	121,126
236,713	0,565	241,855	121,120
237,728	0,565	241,688	121,026
238,742	0,573	241,520	120,938
239,757	0,512	241,339	120,787
240,772	0,374	241,271	120,631
241,786	0,484	240,944	120,545
242,801	0,501	240,967	120,559
243,815	0,484	240,791	120,447
244,830	0,519	240,477	120,307
245,844	0,475	240,439	120,243
246,859	0,428	240,259	120,104
247,874	0,485	240,117	120,068
248,888	0,610	239,879	120,038
249,903	0,587	239,916	120,027
250,917	0,410	239,719	119,777
251,932	0,755	239,550	119,957
252,947	0,575	239,497	119,776
253,961	0,678	239,120	119,659
254,976	0,364	239,152	119,414
255,990	0,690	238,841	119,507
257,005	0,779	238,644	119,469
258,020	0,658	238,575	119,327
259,034	0,559	238,341	119,122
260,049	0,636	238,256	119,130
261,063	0,501	238,176	118,972
262,078	0,431	237,972	118,804
263,093	0,512	237,686	118,715
264,107	0,533	237,625	118,690
265,122	0,736	237,427	118,741
266,136	0,281	237,409	118,362
267,151	0,458	237,249	118,411
268,166	0,492	237,065	118,335
269,180	0,692	236,738	118,320
270,195	0,579	236,652	118,177
271,209	0,659	236,535	118,171
272,224	0,675	236,220	118,016
273,239	0,555	236,268	117,935
274,253	0,560	236,100	117,844
275,268	0,590	235,897	117,756
276,282	0,533	235,781	117,643
277,297	0,473	235,583	117,487
278,312	0,682	235,486	117,591
279,326	0,314	235,419	117,259
280,341	0,606	235,169	117,353
281,355	0,657	235,144	117,369
282,370	0,642	235,056	117,304
283,384	0,569	234,841	117,129
284,399	0,616	234,535	117,002
285,414	0,693	234,382	116,976
286,428	0,439	234,386	116,769
287,443	0,577	234,050	116,699
288,457	0,723	233,978	116,766
289,472	0,709	233,888	116,700
290,487	0,675	233,720	116,580
291,501	0,640	233,558	116,461
292,516	0,680	233,461	116,434
293,530	0,594	233,277	116,264
294,545	0,819	233,145	116,363
295,560	0,648	233,012	116,153
296,574	0,754	232,777	116,108
297,589	0,701	232,593	115,965
298,603	0,722	232,581	115,965
299,618	0,658	232,446	115,838
300,633	0,494	232,354	115,655
301,647	0,666	232,169	115,685
302,662	0,780	231,938	115,647
303,676	0,817	231,827	115,610
304,691	0,736	231,671	115,460
305,706	0,656	231,502	115,304
306,720	0,586	231,310	115,144
307,735	0,788	231,139	115,204
308,749	0,863	231,102	115,232
309,764	0,913	231,058	115,238
310,779	0,845	230,795	115,045
311,793	0,701	230,682	114,869
312,808	0,733	230,525	114,804
313,822	0,726	230,400	114,727
314,837	0,874	230,155	114,707
315,852	0,845	230,060	114,627
316,866	0,773	229,993	114,529
317,881	1,180	229,740	114,703
318,895	0,907	229,582	114,406
319,910	0,634	229,459	114,127
320,925	0,543	229,394	114,015
321,939	0,774	229,253	114,110
322,954	0,947	229,073	114,142
323,968	1,016	228,795	114,046
324,983	1,037	228,656	113,982
325,997	1,045	228,546	113,922
327,012	0,743	228,482	113,652
328,027	0,530	228,391	113,436
329,041	0,794	228,276	113,568
330,056	0,751	228,074	113,425
331,070	0,849	227,951	113,428
332,085	0,947	227,738	113,386
333,100	0,951	227,465	113,242
334,114	1,009	227,325	113,206
335,129	0,817	227,242	113,010
336,143	1,062	227,045	113,087
337,158	0,631	227,032	112,747
338,173	0,916	226,838	112,854
339,187	0,987	226,729	112,843
340,202	0,852	226,602	112,668
341,216	1,099	226,371	112,728
342,231	1,076	226,221	112,627
343,246	1,188	226,049	112,614
344,260	0,954	225,978	112,394
345,275	0,857	225,926	112,286
346,289	0,975	225,740	112,272
347,304	1,019	225,581	112,215
348,319	1,047	225,322	112,097
349,333	0,958	225,207	111,963
350,348	1,004	225,055	111,912
351,362	1,124	224,855	111,892
352,377	1,038	224,815	111,798
353,392	1,017	224,693	111,712
354,406	0,956	224,515	111,568
355,421	191,704	1310,825	1375,142
356,435	153,516	1443,027	1374,980
