DTS Sentinel unit serial number:	SN410029Multiplexer serial number:	ORYXHardware model number:	OX2-SRSoftware version number:	ORYX F/W v4,00 Oryx Data Collector v3.7.2.0data status	okinstallation	B5 Nyhavnadifferential loss correction	single-endedforward channel	channel 2reverse channel	N/Adate	2023/12/13time	11:12:13forward acquisition time	300,00reverse acquisition time	0,00gamma	499,1914k internal	0,3161k external	0,3161temperature offset calibration	1,0000default loss term (dB/km)	0,3820temperature slope calibration	1,0000multiplexer offset coefficient	1,0000multiplexer slope coefficient	1,0000fibre end	0,00T internal ref (°C)	13,72T ext. ref 1 (°C)	-2,40T ext. ref 2 (°C)	-2,71length (m)	temperature (°C)	Stokes	anti-Stokes-744,400	-160,472	0,003	-0,000
-743,385	-167,328	-0,332	0,010
-742,371	141,452	0,128	0,125
-741,356	-149,501	-0,326	0,019
-740,342	108,280	0,116	0,102
-739,327	-62,440	-0,346	0,105
-738,312	-38,239	0,103	0,040
-737,298	-15,457	-0,337	-0,158
-736,283	-68,038	0,048	0,014
-735,269	17,421	-0,251	0,146
-734,254	-29,838	-0,110	0,046
-733,239	-46,589	-0,494	-0,178
-732,225	77,342	0,129	0,101
-731,210	492,014	0,066	-0,112
-730,196	800,000	0,010	0,027
-729,181	72,387	0,015	0,011
-728,167	94,375	0,077	0,064
-727,152	-200,000	0,041	-0,172
-726,137	-34,412	-0,087	-0,035
-725,123	110,742	-0,057	0,051
-724,108	-176,648	-0,093	0,002
-723,094	-32,701	-0,142	-0,058
-722,079	-93,529	-0,105	-0,021
-721,064	-110,512	0,090	-0,014
-720,050	85,996	-0,100	0,081
-719,035	-200,000	0,004	0,019
-718,021	-47,545	-0,023	0,008
-717,006	-133,649	-0,185	-0,017
-715,991	-200,000	-0,023	-0,185
-714,977	-200,000	-0,006	0,146
-713,962	-142,416	0,061	-0,004
-712,948	131,316	0,124	-0,117
-711,933	99,619	-0,060	-0,051
-710,918	-200,000	-0,023	0,144
-709,904	-24,871	0,113	-0,049
-708,889	800,000	-0,027	-0,072
-707,875	8,442	-0,162	-0,089
-706,860	-200,000	0,036	0,174
-705,845	-200,000	-0,003	-0,012
-704,831	149,916	0,077	0,077
-703,816	-200,000	0,020	0,077
-702,802	138,388	0,067	0,065
-701,787	-120,109	-0,115	-0,014
-700,772	31,195	-0,030	-0,019
-699,758	-88,504	-0,080	-0,017
-698,743	-200,000	-0,016	0,070
-697,729	-15,204	0,049	0,023
-696,714	800,000	-0,028	-0,072
-695,699	-22,198	0,097	-0,043
-694,685	-200,000	0,002	-0,176
-693,670	114,183	-0,076	-0,068
-692,656	800,000	-0,074	-0,206
-691,641	58,388	-0,040	0,029
-690,627	-17,867	0,091	-0,042
-689,612	-158,439	0,075	0,003
-688,597	-200,000	-0,044	-0,159
-687,583	800,000	-0,028	-0,084
-686,568	-200,000	-0,020	-0,074
-685,554	-200,000	-0,003	-0,057
-684,539	267,394	-0,067	-0,087
-683,524	-4,751	-0,016	0,008
-682,510	800,000	-0,007	-0,017
-681,495	800,000	-0,059	0,139
-680,481	-92,024	-0,099	0,020
-679,466	185,974	-0,026	-0,029
-678,451	57,849	0,052	-0,037
-677,437	30,458	0,077	-0,049
-676,422	800,000	0,025	0,064
-675,408	-200,000	-0,010	0,038
-674,393	-117,823	0,079	-0,010
-673,378	93,481	0,075	-0,062
-672,364	-66,420	-0,132	0,038
-671,349	10,008	-0,119	-0,066
-670,335	78,779	0,112	0,088
-669,320	-169,608	0,121	-0,003
-668,305	-2,299	-0,165	-0,085
-667,291	-112,351	0,073	0,011
-666,276	72,743	-0,029	-0,022
-665,262	409,143	-0,068	-0,107
-664,247	800,000	0,051	-0,106
-663,232	-200,000	-0,022	-0,206
-662,218	64,268	0,063	0,046
-661,203	113,318	-0,068	0,060
-660,189	60,185	0,043	0,031
-659,174	-72,304	-0,071	-0,019
-658,159	-200,000	0,018	-0,155
-657,145	-200,000	-0,007	-0,202
-656,130	23,040	0,035	0,021
-655,116	594,567	-0,037	-0,068
-654,101	-200,000	0,023	-0,075
-653,086	291,258	-0,027	-0,037
-652,072	432,078	-0,030	-0,048
-651,057	61,307	0,159	-0,116
-650,043	-200,000	-0,006	-0,083
-649,028	49,118	0,180	-0,124
-648,014	800,000	-0,027	-0,081
-646,999	800,000	0,063	-0,136
-645,984	467,608	-0,020	-0,034
-644,970	800,000	0,050	0,138
-643,955	-19,046	-0,176	-0,080
-642,941	-200,000	-0,042	-0,165
-641,926	-46,376	-0,091	-0,033
-640,911	-90,622	0,119	0,025
-639,897	412,514	-0,089	-0,139
-638,882	-200,000	0,015	-0,106
-637,868	-74,159	-0,048	-0,013
-636,853	120,184	0,049	0,045
-635,838	632,626	0,065	-0,121
-634,824	-36,131	0,101	0,040
-633,809	-15,596	0,062	0,029
-632,795	-200,000	-0,002	0,024
-631,780	275,132	-0,089	-0,116
-630,765	-75,084	0,090	-0,023
-629,751	-200,000	0,053	-0,183
-628,736	-48,127	0,011	-0,004
-627,722	410,288	-0,040	-0,062
-626,707	800,000	-0,025	-0,077
-625,692	713,299	0,023	0,046
-624,678	-137,053	-0,083	-0,007
-623,663	-200,000	-0,187	-0,000
-622,649	156,037	0,087	-0,088
-621,634	43,871	0,148	-0,099
-620,619	218,934	-0,098	-0,115
-619,605	-200,000	-0,003	0,039
-618,590	800,000	0,040	0,102
-617,576	-81,038	0,082	0,020
-616,561	102,585	-0,060	0,051
-615,546	24,812	-0,010	-0,006
-614,532	800,000	-0,015	-0,035
-613,517	115,508	0,029	-0,026
-612,503	-154,978	-0,096	-0,005
-611,488	-200,000	0,008	0,038
-610,474	-32,265	-0,085	0,035
-609,459	54,163	0,059	0,042
-608,444	-106,081	0,117	0,019
-607,430	203,972	0,097	-0,110
-606,415	213,627	-0,045	-0,052
-605,401	144,303	0,037	0,037
-604,386	800,000	0,041	-0,088
-603,371	-73,162	-0,045	0,012
-602,357	181,437	-0,022	0,023
-601,342	-200,000	-0,018	-0,082
-600,328	-137,867	-0,099	-0,008
-599,313	288,865	-0,036	0,048
-598,298	800,000	0,017	-0,040
-597,284	-78,727	-0,005	0,001
-596,269	-200,000	-0,040	0,142
-595,255	800,000	0,041	0,131
-594,240	105,324	-0,085	-0,073
-593,225	800,000	-0,022	-0,052
-592,211	-150,562	-0,057	-0,003
-591,196	800,000	-0,040	0,086
-590,182	41,228	0,073	-0,048
-589,167	661,755	0,093	-0,176
-588,152	391,043	0,034	0,051
-587,138	-30,076	-0,050	-0,021
-586,123	383,896	-0,076	-0,114
-585,109	9,666	0,060	-0,033
-584,094	13,369	0,108	-0,061
-583,079	413,747	-0,029	0,045
-582,065	20,399	-0,093	-0,055
-581,050	800,000	-0,042	-0,094
-580,036	-150,650	0,071	0,004
-579,021	-24,842	-0,054	0,023
-578,006	531,350	-0,044	-0,077
-576,992	-114,686	-0,098	0,014
-575,977	0,251	0,074	0,038
-574,963	-4,755	0,076	-0,038
-573,948	95,521	-0,066	-0,055
-572,934	70,036	-0,082	-0,062
-571,919	454,843	-0,029	-0,047
-570,904	77,080	0,058	-0,045
-569,890	64,500	-0,086	-0,063
-568,875	151,405	0,082	0,082
-567,861	197,379	0,074	-0,082
-566,846	-7,692	0,013	-0,006
-565,831	-200,000	-0,005	0,030
-564,817	-60,860	-0,097	0,030
-563,802	80,608	-0,059	-0,046
-562,788	-3,022	0,036	0,019
-561,773	-200,000	0,001	-0,007
-560,758	142,866	-0,089	0,087
-559,744	24,463	0,097	-0,059
-558,729	109,180	-0,020	0,017
-557,715	-96,415	-0,016	-0,003
-556,700	800,000	-0,033	-0,075
-555,685	800,000	-0,033	-0,093
-554,671	-191,800	-0,164	-0,001
-553,656	-88,459	-0,033	-0,007
-552,642	-34,447	0,070	-0,028
-551,627	89,739	-0,015	-0,012
-550,612	110,455	-0,035	-0,031
-549,598	-62,494	-0,059	0,018
-548,583	57,544	0,123	0,088
-547,569	-200,000	0,016	0,093
-546,554	261,094	0,039	-0,049
-545,539	800,000	-0,021	0,062
-544,525	493,650	0,021	0,036
-543,510	772,419	0,012	0,025
-542,496	-101,991	-0,017	0,003
-541,481	146,441	0,075	-0,074
-540,466	100,129	-0,102	-0,086
-539,452	-19,023	0,023	0,010
-538,437	-133,937	0,096	-0,009
-537,423	-200,000	-0,016	-0,125
-536,408	-200,000	-0,020	-0,092
-535,393	-51,165	-0,139	0,047
-534,379	-26,257	0,155	0,066
-533,364	310,757	0,036	0,049
-532,350	-200,000	0,027	-0,177
-531,335	-110,388	0,083	-0,012
-530,321	636,044	0,048	-0,090
-529,306	-138,174	-0,048	-0,004
-528,291	-200,000	-0,006	-0,069
-527,277	-128,699	0,167	0,017
-526,262	-200,000	-0,021	0,115
-525,248	-200,000	0,005	-0,062
-524,233	800,000	0,050	0,103
-523,218	-53,916	-0,010	-0,003
-522,204	273,598	0,092	0,119
-521,189	54,590	-0,089	-0,063
-520,175	-78,044	-0,087	0,022
-519,160	674,608	0,031	0,059
-518,145	301,317	0,059	0,080
-517,131	800,000	0,025	-0,067
-516,116	-200,000	-0,008	0,109
-515,102	155,385	0,040	0,040
-514,087	-130,340	-0,166	-0,016
-513,072	10,591	0,048	-0,026
-512,058	-99,188	0,014	-0,003
-511,043	207,034	0,097	0,110
-510,029	800,000	-0,043	0,107
-509,014	-147,146	0,157	-0,010
-507,999	-200,000	0,016	0,189
-506,985	269,547	-0,053	0,068
-505,970	-200,000	-0,000	-0,084
-504,956	-121,803	0,124	-0,015
-503,941	30,999	-0,031	0,019
-502,926	-63,718	0,052	-0,015
-501,912	-200,000	-0,030	0,109
-500,897	-4,593	0,064	-0,032
-499,883	-134,504	0,138	0,012
-498,868	16,252	0,113	-0,065
-497,853	11,372	-0,025	0,014
-496,839	800,000	0,059	0,134
-495,824	101,425	0,017	-0,015
-494,810	49,690	-0,113	0,078
-493,795	514,659	0,106	0,181
-492,781	-200,000	0,014	0,067
-491,766	341,287	0,048	-0,069
-490,751	800,000	0,035	-0,081
-489,737	21,180	0,009	-0,005
-488,722	57,985	0,064	-0,046
-487,708	-147,060	0,094	-0,006
-486,693	-200,000	-0,007	0,027
-485,678	-200,000	-0,017	0,130
-484,664	-70,055	0,079	-0,022
-483,649	-147,238	-0,068	0,004
-482,635	113,186	0,034	0,030
-481,620	18,523	-0,130	-0,076
-480,605	69,964	0,077	0,058
-479,591	-102,360	0,058	0,010
-478,576	188,361	-0,091	0,099
-477,562	-200,000	-0,003	0,031
-476,547	-39,142	0,086	-0,033
-475,532	55,311	-0,067	0,047
-474,518	402,759	0,044	-0,068
-473,503	-200,000	-0,005	0,024
-472,489	10,454	0,069	-0,038
-471,474	529,590	0,031	-0,053
-470,459	239,171	-0,091	0,111
-469,445	-200,000	0,010	-0,039
-468,430	-24,037	-0,055	-0,024
-467,416	800,000	-0,054	-0,133
-466,401	-23,620	0,090	0,039
-465,386	69,299	-0,102	0,077
-464,372	144,815	-0,068	-0,066
-463,357	800,000	-0,046	-0,115
-462,343	-200,000	0,021	-0,105
-461,328	-105,597	0,105	-0,017
-460,313	67,720	-0,051	-0,038
-459,299	780,565	0,023	0,046
-458,284	583,070	-0,043	0,077
-457,270	-200,000	-0,028	-0,116
-456,255	461,605	-0,015	-0,025
-455,241	4,055	0,071	-0,038
-454,226	-200,000	-0,013	0,094
-453,211	71,032	0,058	-0,043
-452,197	-48,165	0,088	0,031
-451,182	-200,000	-0,029	0,125
-450,168	53,499	-0,070	0,049
-449,153	-101,791	-0,081	0,014
-448,138	-200,000	0,027	-0,114
-447,124	-80,039	-0,026	0,006
-446,109	-115,891	0,104	0,014
-445,095	65,560	-0,051	-0,038
-444,080	800,000	0,011	0,021
-443,065	113,400	0,106	-0,094
-442,051	-88,824	-0,063	-0,014
-441,036	-163,713	0,018	-0,001
-440,022	-23,718	-0,105	-0,046
-439,007	183,750	0,026	0,028
-437,992	-93,814	0,081	-0,016
-436,978	800,000	0,046	0,142
-435,963	-8,522	0,076	0,037
-434,949	800,000	-0,012	0,034
-433,934	800,000	-0,040	-0,086
-432,919	-71,187	0,107	-0,029
-431,905	-29,675	-0,093	0,038
-430,890	205,493	0,073	0,083
-429,876	-200,000	-0,017	0,064
-428,861	800,000	0,039	0,120
-427,846	-113,070	-0,061	-0,009
-426,832	-105,541	0,074	0,012
-425,817	-200,000	0,010	-0,067
-424,803	-200,000	0,023	-0,082
-423,788	-71,983	0,055	0,015
-422,773	800,000	0,067	0,157
-421,759	-200,000	-0,021	-0,072
-420,744	800,000	0,020	0,044
-419,730	-86,275	-0,080	0,018
-418,715	-200,000	-0,004	-0,099
-417,701	-7,067	0,081	0,040
-416,686	-23,090	0,078	-0,034
-415,671	156,587	-0,081	0,081
-414,657	284,266	0,068	-0,089
-413,642	41,859	0,073	-0,048
-412,628	343,806	-0,006	0,009
-411,613	-200,000	0,005	-0,098
-410,598	-200,000	-0,038	-0,183
-409,584	800,000	-0,026	-0,056
-408,569	325,133	-0,092	-0,129
-407,555	-82,276	0,258	0,061
-406,540	5,550	0,086	0,046
-405,525	-200,000	-0,020	-0,120
-404,511	800,000	-0,014	0,029
-403,496	-137,056	0,062	0,005
-402,482	-200,000	-0,001	-0,157
-401,467	11,746	0,105	0,059
-400,452	-200,000	0,001	0,165
-399,438	427,591	0,013	0,020
-398,423	59,751	0,080	0,057
-397,409	-200,000	-0,008	-0,091
-396,394	-40,253	0,065	-0,025
-395,379	-200,000	0,005	0,084
-394,365	423,965	0,112	0,175
-393,350	353,976	0,113	0,164
-392,336	800,000	-0,034	0,074
-391,321	3,035	-0,199	-0,105
-390,306	406,694	-0,073	-0,112
-389,292	9,476	-0,103	-0,056
-388,277	800,000	-0,022	-0,067
-387,263	148,687	0,046	-0,046
-386,248	-75,966	0,207	0,053
-385,233	407,298	0,069	0,107
-384,219	-37,152	-0,086	0,033
-383,204	146,057	-0,077	-0,075
-382,190	738,287	0,049	0,097
-381,175	33,299	-0,043	-0,027
-380,160	147,224	0,070	-0,069
-379,146	142,303	-0,043	0,042
-378,131	271,656	-0,087	-0,112
-377,117	800,000	-0,050	0,117
-376,102	355,257	-0,036	-0,052
-375,088	786,575	0,116	-0,232
-374,073	498,180	0,018	0,030
-373,058	453,093	0,071	0,115
-372,044	-37,091	0,083	-0,032
-371,029	-200,000	-0,005	-0,035
-370,015	-33,255	0,117	0,047
-369,000	160,941	-0,070	0,071
-367,985	337,926	-0,047	-0,066
-366,971	130,336	0,089	0,083
-365,956	-200,000	0,002	0,088
-364,942	-86,157	-0,054	-0,012
-363,927	91,286	-0,149	-0,122
-362,912	0,265	-0,081	-0,042
-361,898	800,000	0,052	0,120
-360,883	362,079	0,032	0,047
-359,869	594,774	-0,031	0,056
-358,854	122,428	-0,107	-0,097
-357,839	479,336	0,026	-0,043
-356,825	-177,750	-0,070	-0,001
-355,810	-136,246	0,086	0,007
-354,796	-73,895	-0,221	-0,058
-353,781	-48,876	-0,173	0,060
-352,766	-99,611	-0,152	-0,027
-351,752	337,252	0,059	0,084
-350,737	-126,861	-0,032	0,003
-349,723	-200,000	0,019	0,134
-348,708	-160,153	-0,173	0,007
-347,693	-200,000	0,000	0,031
-346,679	177,689	-0,029	0,031
-345,664	-48,815	0,054	-0,019
-344,650	-78,343	-0,024	0,006
-343,635	-200,000	0,002	0,009
-342,620	-102,059	0,155	0,027
-341,606	473,993	0,051	-0,084
-340,591	-67,497	0,131	-0,037
-339,577	495,811	0,049	-0,082
-338,562	139,171	0,051	-0,048
-337,548	669,983	-0,046	0,087
-336,533	800,000	-0,027	0,084
-335,518	-200,000	-0,010	0,071
-334,504	800,000	-0,055	0,151
-333,489	-200,000	-0,001	-0,105
-332,475	-200,000	-0,012	-0,041
-331,460	-200,000	0,020	-0,107
-330,445	-36,720	-0,047	-0,018
-329,431	-200,000	0,036	0,138
-328,416	362,850	-0,099	0,144
-327,402	340,945	0,045	0,065
-326,387	-17,516	-0,070	-0,032
-325,372	-28,007	-0,046	-0,019
-324,358	800,000	-0,017	-0,050
-323,343	114,847	0,067	-0,059
-322,329	-81,130	-0,045	-0,011
-321,314	104,412	0,037	-0,031
-320,299	180,159	-0,023	0,025
-319,285	-1,237	0,108	-0,055
-318,270	-37,956	-0,091	-0,035
-317,256	25,743	-0,061	-0,037
-316,241	-50,136	0,129	-0,044
-315,226	-76,433	-0,078	-0,020
-314,212	168,412	0,013	0,014
-313,197	-200,000	-0,018	0,096
-312,183	36,713	0,056	0,036
-311,168	534,575	-0,024	-0,041
-310,153	-142,538	-0,092	0,006
-309,139	304,449	-0,092	-0,123
-308,124	-200,000	0,025	0,083
-307,110	282,557	-0,020	-0,026
-306,095	312,403	-0,048	-0,066
-305,080	-200,000	0,054	-0,216
-304,066	-200,000	0,016	-0,137
-303,051	-98,452	0,022	0,004
-302,037	-200,000	-0,002	0,031
-301,022	800,000	-0,028	0,088
-300,008	175,283	0,033	-0,035
-298,993	800,000	0,017	0,048
-297,978	-200,000	-0,019	0,073
-296,964	206,336	-0,072	0,081
-295,949	371,674	-0,045	-0,067
-294,935	259,483	-0,030	-0,037
-293,920	800,000	-0,031	-0,097
-292,905	-115,554	0,158	0,021
-291,891	-200,000	-0,006	0,047
-290,876	-200,000	-0,027	-0,117
-289,862	-128,288	-0,049	0,005
-288,847	800,000	0,034	0,086
-287,832	-159,063	0,135	-0,005
-286,818	-104,695	0,111	0,018
-285,803	-200,000	0,024	0,179
-284,789	-120,531	-0,032	0,004
-283,774	66,767	0,022	0,017
-282,759	800,000	-0,018	0,056
-281,745	800,000	-0,024	-0,068
-280,730	772,643	-0,021	-0,041
-279,716	9,088	-0,018	-0,010
-278,701	435,350	-0,039	-0,062
-277,686	786,292	-0,076	0,151
-276,672	534,189	0,069	0,119
-275,657	800,000	0,038	0,090
-274,643	64,276	-0,110	0,080
-273,628	381,954	0,048	0,072
-272,613	193,676	-0,020	0,021
-271,599	-160,582	-0,085	0,003
-270,584	244,661	-0,111	0,135
-269,570	249,613	0,054	0,066
-268,555	84,190	-0,181	0,143
-267,540	800,000	-0,017	0,052
-266,526	800,000	-0,093	-0,214
-265,511	4,125	-0,122	-0,064
-264,497	-200,000	0,007	0,084
-263,482	-200,000	-0,012	0,082
-262,467	-0,232	-0,100	-0,051
-261,453	18,933	-0,071	0,041
-260,438	-200,000	-0,001	0,018
-259,424	445,447	-0,053	-0,084
-258,409	11,958	-0,216	0,119
-257,395	-17,739	0,074	-0,033
-256,380	580,914	0,036	-0,064
-255,365	-92,833	0,121	0,024
-254,351	528,908	0,024	0,041
-253,336	33,490	-0,081	-0,051
-252,322	83,340	-0,023	-0,018
-251,307	-95,767	-0,079	0,015
-250,292	294,689	0,040	-0,053
-249,278	-117,307	0,051	-0,007
-248,263	-200,000	-0,010	-0,110
-247,249	18,019	0,099	0,057
-246,234	800,000	-0,054	0,163
-245,219	-200,000	-0,015	-0,086
-244,205	-38,763	-0,120	-0,046
-243,190	7,659	-0,094	-0,051
-242,176	0,678	0,068	-0,035
-241,161	-200,000	-0,010	0,056
-240,146	-200,000	-0,012	0,122
-239,132	204,697	-0,029	0,032
-238,117	451,863	0,018	-0,029
-237,103	249,463	-0,106	0,130
-236,088	571,119	-0,022	0,039
-235,073	-200,000	-0,010	-0,032
-234,059	234,178	-0,070	-0,083
-233,044	-200,000	0,006	0,066
-232,030	-200,000	-0,003	-0,092
-231,015	-95,000	-0,122	0,024
-230,000	686,352	-0,006	0,011
-228,986	800,000	0,030	0,069
-227,971	-200,000	0,019	0,067
-226,957	277,536	-0,085	0,109
-225,942	800,000	0,040	0,090
-224,927	151,957	-0,045	0,045
-223,913	195,060	-0,095	-0,104
-222,898	800,000	-0,031	-0,086
-221,884	134,873	0,063	-0,059
-220,869	-117,883	-0,115	-0,015
-219,855	-200,000	0,016	0,127
-218,840	616,147	-0,029	-0,052
-217,825	800,000	0,036	0,090
-216,811	119,985	-0,034	0,031
-215,796	58,926	0,042	-0,030
-214,782	800,000	0,029	-0,058
-213,767	-26,442	0,049	0,021
-212,752	-75,856	0,011	0,003
-211,738	80,886	0,063	0,049
-210,723	141,606	-0,049	-0,047
-209,709	663,535	0,029	0,055
-208,694	-78,852	-0,106	0,026
-207,679	-200,000	-0,018	-0,085
-206,665	-40,946	-0,100	-0,037
-205,650	-200,000	-0,011	0,052
-204,636	390,658	0,058	0,088
-203,621	-26,526	-0,186	0,078
-202,606	-200,000	-0,027	0,200
-201,592	-41,179	0,051	0,019
-200,577	3,486	0,086	0,045
-199,563	800,000	-0,025	0,076
-198,548	-200,000	-0,006	0,059
-197,533	-7,633	0,026	-0,012
-196,519	34,210	-0,059	-0,037
-195,504	-200,000	-0,020	-0,070
-194,490	800,000	-0,032	0,066
-193,475	-70,738	-0,075	-0,020
-192,460	-200,000	0,008	0,027
-191,446	-200,000	0,015	-0,058
-190,431	134,521	0,015	0,014
-189,417	64,824	0,071	0,051
-188,402	320,988	-0,021	0,029
-187,387	303,408	-0,056	-0,075
-186,373	-54,350	0,079	-0,026
-185,358	800,000	0,026	0,063
-184,344	-24,326	-0,114	0,049
-183,329	357,853	-0,022	-0,031
-182,315	800,000	0,035	-0,096
-181,300	594,644	-0,018	0,032
-180,285	114,053	0,169	-0,148
-179,271	-200,000	0,011	0,042
-178,256	117,355	0,032	0,028
-177,242	-78,187	-0,114	-0,028
-176,227	-63,016	0,123	0,036
-175,212	-146,989	-0,084	-0,005
-174,198	62,682	0,045	0,032
-173,183	-24,745	0,081	0,034
-172,169	-9,648	0,038	0,018
-171,154	179,809	0,040	-0,042
-170,139	101,473	0,009	-0,008
-169,125	47,507	0,115	-0,077
-168,110	-200,000	-0,022	0,123
-167,096	-200,000	0,002	-0,063
-166,081	57,749	-0,078	-0,055
-165,066	185,320	0,019	-0,021
-164,052	513,669	-0,052	-0,088
-163,037	800,000	0,051	0,107
-162,023	653,044	0,079	0,147
-161,008	102,989	-0,064	-0,054
-159,993	8,328	0,032	-0,017
-158,979	669,261	0,052	-0,098
-157,964	-200,000	0,013	-0,075
-156,950	-147,992	-0,120	0,007
-155,935	399,224	0,056	0,085
-154,920	12,165	0,027	0,015
-153,906	-128,850	0,245	-0,025
-152,891	-200,000	-0,019	0,104
-151,877	74,166	0,094	-0,071
-150,862	182,521	-0,096	-0,102
-149,847	-125,903	0,135	0,014
-148,833	800,000	0,063	-0,184
-147,818	-200,000	0,003	-0,020
-146,804	21,841	-0,161	0,094
-145,789	-44,646	0,040	0,014
-144,775	-200,000	0,014	-0,065
-143,760	-200,000	0,008	-0,026
-142,745	-200,000	0,007	-0,042
-141,731	-119,131	0,075	0,009
-140,716	127,775	0,055	0,050
-139,702	226,743	-0,009	0,011
-138,687	-137,342	0,084	0,007
-137,672	174,162	0,019	0,020
-136,658	435,658	-0,054	0,085
-135,643	-200,000	0,001	-0,024
-134,629	-35,893	-0,072	0,028
-133,614	-46,056	0,018	-0,006
-132,599	116,685	-0,080	-0,071
-131,585	-145,987	0,121	-0,008
-130,570	-200,000	0,003	0,016
-129,556	-200,000	-0,035	-0,152
-128,541	800,000	-0,032	0,094
-127,526	-200,000	0,004	-0,066
-126,512	800,000	-0,027	-0,083
-125,497	27,697	0,066	-0,040
-124,483	-57,132	0,080	-0,025
-123,468	-200,000	0,022	0,202
-122,453	54,410	-0,071	-0,049
-121,439	800,000	0,023	0,066
-120,424	250,407	-0,038	0,046
-119,410	244,439	-0,009	0,011
-118,395	135,883	0,077	-0,072
-117,380	352,331	-0,046	-0,066
-116,366	-160,675	0,074	-0,003
-115,351	800,000	-0,014	-0,040
-114,337	-82,207	-0,023	0,005
-113,322	-200,000	-0,017	-0,097
-112,307	-23,604	0,099	-0,043
-111,293	189,839	-0,055	0,060
-110,278	-200,000	0,014	0,059
-109,264	-200,000	-0,011	0,061
-108,249	243,538	-0,103	-0,124
-107,234	142,596	0,071	-0,068
-106,220	-200,000	-0,009	-0,034
-105,205	-58,168	-0,069	0,021
-104,191	-169,361	0,136	-0,004
-103,176	513,759	0,046	0,078
-102,162	-89,559	-0,115	-0,024
-101,147	-69,886	0,056	-0,015
-100,132	-13,354	-0,102	0,047
-99,118	-200,000	-0,028	0,124
-98,103	800,000	-0,022	0,058
-97,089	-148,037	0,059	0,003
-96,074	151,853	0,050	0,049
-95,059	800,000	-0,073	0,156
-94,045	41,385	-0,085	0,055
-93,030	65,329	0,012	0,009
-92,016	-61,169	-0,080	-0,024
-91,001	-4,423	0,015	-0,008
-89,986	171,684	0,029	0,030
-88,972	-200,000	0,032	0,103
-87,957	-200,000	-0,002	-0,017
-86,943	-1,346	-0,037	0,019
-85,928	-200,000	0,008	-0,132
-84,913	-200,000	0,006	-0,094
-83,899	260,192	0,090	-0,112
-82,884	363,965	0,122	-0,176
-81,870	800,000	-0,019	-0,059
-80,855	800,000	-0,043	0,099
-79,840	-31,701	-0,025	0,010
-78,826	512,815	-0,057	0,096
-77,811	274,164	-0,071	-0,090
-76,797	800,000	-0,030	-0,086
-75,782	800,000	-0,003	-0,008
-74,767	-41,531	0,051	0,019
-73,753	190,407	0,044	-0,048
-72,738	800,000	0,061	0,150
-71,724	305,646	0,028	-0,037
-70,709	-130,922	0,123	-0,012
-69,694	87,206	-0,054	-0,043
-68,680	66,215	0,071	-0,052
-67,665	382,499	0,060	0,088
-66,651	-122,351	0,081	-0,009
-65,636	377,549	0,015	0,021
-64,622	282,685	0,071	-0,091
-63,607	178,482	-0,063	-0,066
-62,592	217,300	0,034	0,039
-61,578	367,523	0,059	-0,086
-60,563	-200,000	-0,033	0,123
-59,549	-67,185	0,026	0,007
-58,534	37,828	-1,947	-1,238
-57,519	-200,000	-0,118	-0,771
-56,505	-200,000	-1,401	-5,105
-55,490	101,803	0,899	0,752
-54,476	800,000	5,252	11,965
-53,461	-200,000	18,721	316,311
-52,446	800,000	741,340	2331,494
-51,432	558,356	1657,303	2877,982
-50,417	111,124	1640,893	1416,792
-49,403	75,449	1290,791	975,725
-48,388	30,386	1031,443	630,334
-47,373	19,945	994,010	572,869
-46,359	17,473	981,592	557,555
-45,344	14,137	977,831	544,429
-44,330	14,455	975,966	544,415
-43,315	13,829	974,272	541,392
-42,300	13,720	973,203	540,422
-41,286	13,696	972,250	539,792
-40,271	13,725	971,401	539,395
-39,257	13,754	970,602	539,024
-38,242	13,770	969,638	538,520
-37,227	13,783	968,889	538,125
-36,213	13,742	967,849	537,391
-35,198	13,741	967,010	536,900
-34,184	13,754	966,253	536,503
-33,169	13,689	965,348	535,767
-32,154	13,717	964,408	535,314
-31,140	13,799	963,499	535,055
-30,125	13,796	962,712	534,586
-29,111	13,723	961,946	533,905
-28,096	13,774	961,223	533,647
-27,082	13,786	960,409	533,212
-26,067	13,782	959,911	532,903
-25,052	13,746	959,191	532,366
-24,038	13,708	958,409	531,788
-23,023	13,806	957,676	531,676
-22,009	13,808	957,163	531,376
-20,994	13,758	956,465	530,807
-19,979	13,748	955,900	530,440
-18,965	13,773	955,060	530,031
-17,950	13,741	954,678	529,695
-16,936	13,689	953,983	529,124
-15,921	13,691	953,229	528,691
-14,906	13,660	952,659	528,253
-13,892	13,640	952,038	527,825
-12,877	13,640	951,163	527,317
-11,863	13,615	950,661	526,938
-10,848	13,626	950,173	526,682
-9,833	13,735	949,561	526,669
-8,819	13,732	948,924	526,288
-7,804	13,710	948,311	525,855
-6,790	13,677	947,655	525,367
-5,775	13,686	947,138	525,088
-4,760	13,654	946,587	524,660
-3,746	13,663	946,003	524,342
-2,731	13,534	945,316	523,530
-1,717	13,511	944,468	522,967
-0,702	13,520	943,822	522,618
0,313	13,302	943,133	522,335
1,327	16,623	941,021	531,629
2,342	25,657	796,022	473,714
3,356	22,088	460,952	268,804
4,371	-4,566	318,117	156,840
5,386	-8,478	300,052	143,912
6,400	-10,505	294,095	139,005
7,415	-10,678	291,542	137,613
8,429	-11,056	289,923	136,462
9,444	-11,315	289,071	135,792
10,459	-11,003	288,206	135,681
11,473	-11,093	287,568	135,280
12,488	-11,086	287,176	135,091
13,502	-11,192	286,719	134,760
14,517	-11,275	286,268	134,454
15,531	-11,143	285,738	134,323
16,546	-11,231	285,346	134,041
17,561	-11,244	284,926	133,819
18,575	-11,283	284,630	133,630
19,590	-11,198	284,054	133,430
20,604	-11,272	283,979	133,311
21,619	-11,383	283,658	133,042
22,634	-11,282	283,150	132,888
23,648	-11,437	282,932	132,625
24,663	-11,281	282,519	132,570
25,677	-11,408	282,367	132,364
26,692	-11,338	282,260	132,370
27,707	-11,097	281,777	132,363
28,721	-11,181	281,470	132,126
29,736	-11,199	281,127	131,936
30,750	-11,272	280,805	131,704
31,765	-11,292	280,564	131,560
32,780	-11,270	280,459	131,520
33,794	-11,240	280,126	131,380
34,809	-11,401	279,952	131,134
35,823	-11,310	279,539	131,015
36,838	-11,508	279,390	130,745
37,853	-11,460	279,125	130,655
38,867	-11,423	279,113	130,673
39,882	-11,323	278,720	130,572
40,896	-11,266	278,422	130,475
41,911	-11,403	278,211	130,234
42,926	-11,504	277,917	129,990
43,940	-11,218	277,642	130,120
44,955	-11,527	277,547	129,772
45,969	-11,338	277,209	129,781
46,984	-11,663	277,139	129,429
47,999	-11,797	276,735	129,102
49,013	-12,014	276,413	128,736
50,028	-12,033	276,151	128,585
51,042	-12,041	275,692	128,352
52,057	-12,116	275,619	128,237
53,071	-12,021	275,497	128,257
54,086	-11,843	275,087	128,222
55,101	-11,903	275,282	128,245
56,115	-11,598	274,913	128,348
57,130	-11,338	274,760	128,508
58,144	-11,221	274,707	128,581
59,159	-11,133	274,375	128,496
60,174	-11,138	274,078	128,342
61,188	-11,030	273,972	128,381
62,203	-11,149	273,729	128,144
63,217	-11,359	273,619	127,886
64,232	-11,236	273,267	127,825
65,247	-11,138	272,992	127,776
66,261	-11,165	272,823	127,660
67,276	-11,402	272,555	127,304
68,290	-11,726	272,202	126,827
69,305	-11,693	272,031	126,767
70,320	-11,485	271,901	126,887
71,334	-11,254	271,607	126,952
72,349	-11,298	271,451	126,827
73,363	-11,106	271,253	126,900
74,378	-11,138	271,011	126,747
75,393	-11,191	270,656	126,521
76,407	-11,240	270,695	126,482
77,422	-11,236	270,370	126,323
78,436	-11,134	270,048	126,255
79,451	-11,183	269,811	126,088
80,466	-11,479	269,581	125,697
81,480	-11,357	269,357	125,694
82,495	-11,573	269,140	125,383
83,509	-11,342	269,077	125,555
84,524	-11,458	268,734	125,278
85,539	-11,655	268,419	124,939
86,553	-11,545	268,259	124,954
87,568	-11,430	268,094	124,972
88,582	-11,516	267,873	124,779
89,597	-11,442	267,689	124,749
90,611	-11,259	267,529	124,829
91,626	-11,357	267,222	124,586
92,641	-11,253	267,093	124,609
93,655	-11,221	266,940	124,556
94,670	-11,404	266,720	124,276
95,684	-11,274	266,507	124,283
96,699	-11,374	266,325	124,098
97,714	-11,401	266,113	123,964
98,728	-11,535	265,945	123,753
99,743	-11,480	265,564	123,614
100,757	-11,617	265,439	123,422
101,772	-11,369	265,212	123,528
102,787	-11,274	264,884	123,450
103,801	-11,295	264,837	123,398
104,816	-11,268	264,789	123,389
105,830	-11,291	264,614	123,275
106,845	-11,124	264,374	123,302
107,860	-11,094	264,084	123,183
108,874	-11,304	263,910	122,903
109,889	-11,396	263,775	122,747
110,903	-11,339	263,482	122,651
111,918	-11,384	263,248	122,491
112,933	-11,253	263,002	122,482
113,947	-11,216	262,906	122,460
114,962	-11,265	262,740	122,327
115,976	-11,175	262,421	122,249
116,991	-11,158	262,329	122,209
118,006	-11,175	262,143	122,096
119,020	-11,103	261,985	122,076
120,035	-11,132	261,890	121,996
121,049	-11,252	261,730	121,803
122,064	-11,161	261,440	121,738
123,079	-11,139	261,101	121,589
124,093	-11,320	261,069	121,404
125,108	-11,449	260,789	121,149
126,122	-11,581	260,470	120,873
127,137	-11,684	260,145	120,621
128,151	-11,498	260,133	120,768
129,166	-11,507	259,929	120,654
130,181	-11,404	259,689	120,623
131,195	-11,588	259,606	120,412
132,210	-11,231	259,280	120,563
133,224	-11,289	259,260	120,492
134,239	-11,198	258,970	120,427
135,254	-11,240	258,826	120,312
136,268	-11,086	258,427	120,250
137,283	-11,607	258,227	119,692
138,297	-11,595	258,169	119,665
139,312	-11,626	257,754	119,435
140,327	-11,364	257,835	119,690
141,341	-11,163	257,754	119,816
142,356	-11,185	257,614	119,722
143,370	-11,005	257,360	119,750
144,385	-11,025	257,115	119,608
145,400	-10,913	256,760	119,529
146,414	-10,925	256,833	119,542
147,429	-11,060	256,720	119,362
148,443	-11,089	256,361	119,159
149,458	-10,927	256,284	119,253
150,473	-11,067	256,172	119,069
151,487	-10,936	255,819	119,008
152,502	-11,026	255,752	118,888
153,516	-10,955	255,422	118,785
154,531	-10,890	255,289	118,769
155,546	-10,834	255,085	118,711
156,560	-11,021	254,904	118,456
157,575	-11,034	254,808	118,390
158,589	-11,077	254,551	118,222
159,604	-11,003	254,450	118,228
160,619	-10,985	254,207	118,120
161,633	-11,090	254,095	117,968
162,648	-10,963	253,772	117,916
163,662	-11,132	253,793	117,771
164,677	-11,021	253,616	117,773
165,692	-11,076	253,555	117,687
166,706	-11,132	253,248	117,487
167,721	-10,864	252,966	117,574
168,735	-11,079	252,853	117,328
169,750	-11,051	252,702	117,271
170,764	-10,919	252,543	117,299
171,779	-10,863	252,540	117,334
172,794	-10,778	252,243	117,258
173,808	-11,252	251,952	116,710
174,823	-11,195	251,696	116,630
175,837	-11,466	251,462	116,281
176,852	-11,075	251,484	116,613
177,867	-10,894	251,386	116,710
178,881	-11,036	251,175	116,482
179,896	-10,905	250,989	116,495
180,910	-10,978	250,913	116,388
181,925	-10,977	250,708	116,283
182,940	-10,750	250,489	116,363
183,954	-10,806	250,185	116,164
184,969	-10,995	250,223	116,012
185,983	-10,870	249,951	115,981
186,998	-10,975	249,899	115,858
188,013	-11,091	249,639	115,629
189,027	-11,019	249,505	115,618
190,042	-11,035	249,266	115,483
191,056	-10,967	248,998	115,406
192,071	-10,712	248,955	115,589
193,086	-10,966	248,790	115,290
194,100	-10,842	248,480	115,239
195,115	-10,888	248,459	115,181
196,129	-10,954	248,103	114,951
197,144	-10,772	247,865	114,982
198,159	-10,897	247,835	114,854
199,173	-10,681	247,575	114,903
200,188	-10,945	247,427	114,604
201,202	-11,015	247,168	114,416
202,217	-11,391	246,838	113,940
203,232	-11,494	246,692	113,778
204,246	-11,201	246,738	114,031
205,261	-10,490	246,676	114,583
206,275	-11,024	246,462	114,031
207,290	-5,505	248,622	119,626
208,304	2,449	250,883	127,379
209,319	4,610	251,559	129,523
210,334	4,874	251,571	129,740
211,348	4,871	251,416	129,644
212,363	5,145	251,289	129,797
213,377	5,130	251,056	129,653
214,392	5,160	250,875	129,572
215,407	5,222	250,846	129,598
216,421	5,055	250,761	129,402
217,436	5,224	250,495	129,396
218,450	5,042	250,418	129,192
219,465	4,963	249,898	128,846
220,480	4,818	249,714	128,619
221,494	4,612	249,605	128,381
222,509	4,420	249,527	128,170
223,523	4,664	249,311	128,250
224,538	4,561	248,934	127,959
225,553	4,642	248,956	128,026
226,567	4,761	248,800	128,033
227,582	4,693	248,648	127,888
228,596	4,668	248,455	127,756
229,611	4,542	248,303	127,562
230,626	4,599	247,968	127,426
231,640	4,429	247,858	127,218
232,655	4,680	247,670	127,317
233,669	4,513	247,489	127,075
234,684	4,403	247,359	126,907
235,699	4,555	247,244	126,962
236,713	4,539	247,139	126,882
237,728	4,417	246,956	126,678
238,742	4,401	246,775	126,560
239,757	4,230	246,657	126,348
240,772	4,515	246,478	126,479
241,786	4,369	246,394	126,304
242,801	4,418	246,125	126,195
243,815	4,572	246,001	126,247
244,830	4,655	245,881	126,242
245,844	4,733	245,737	126,220
246,859	4,453	245,628	125,925
247,874	4,659	245,367	125,947
248,888	4,841	245,238	126,017
249,903	4,638	245,144	125,793
250,917	4,600	245,062	125,709
251,932	4,930	244,834	125,848
252,947	4,500	244,677	125,407
253,961	4,502	244,527	125,321
254,976	4,416	244,326	125,137
255,990	4,626	244,074	125,167
257,005	4,265	244,054	124,854
258,020	4,623	243,818	125,012
259,034	4,497	243,718	124,847
260,049	4,541	243,551	124,786
261,063	4,468	243,387	124,632
262,078	4,526	243,201	124,572
263,093	4,598	243,192	124,614
264,107	4,729	242,952	124,586
265,122	4,407	242,703	124,188
266,136	4,646	242,590	124,311
267,151	4,859	242,469	124,410
268,166	4,586	242,233	124,058
269,180	4,335	242,146	123,801
270,195	4,625	241,947	123,921
271,209	4,836	241,845	124,026
272,224	4,432	241,653	123,594
273,239	4,260	241,457	123,345
274,253	4,376	241,379	123,386
275,268	4,471	241,170	123,345
276,282	4,590	240,959	123,321
277,297	4,457	240,877	123,161
278,312	4,422	240,731	123,048
279,326	4,626	240,627	123,146
280,341	4,482	240,498	122,955
281,355	4,402	240,249	122,753
282,370	4,488	240,160	122,765
283,384	4,357	239,902	122,518
284,399	4,364	239,711	122,416
285,414	4,286	239,516	122,243
286,428	4,253	239,532	122,214
287,443	4,378	239,380	122,225
288,457	4,451	239,318	122,239
289,472	4,545	239,137	122,210
290,487	4,394	238,806	121,911
291,501	4,201	238,683	121,685
292,516	4,326	238,582	121,721
293,530	4,345	238,480	121,674
294,545	4,617	238,285	121,778
295,560	4,486	238,249	121,645
296,574	4,406	238,066	121,477
297,589	4,505	237,915	121,468
298,603	4,784	237,848	121,643
299,618	4,775	237,655	121,526
300,633	4,592	237,544	121,315
301,647	4,658	237,455	121,309
302,662	4,797	237,410	121,385
303,676	5,082	237,035	121,406
304,691	4,638	236,910	120,983
305,706	4,834	236,787	121,064
306,720	4,569	236,642	120,771
307,735	4,618	236,282	120,615
308,749	4,426	236,159	120,391
309,764	4,222	235,967	120,124
310,779	4,320	235,774	120,091
311,793	4,169	235,667	119,908
312,808	4,311	235,473	119,910
313,822	4,118	235,445	119,734
314,837	4,413	235,249	119,853
315,852	4,536	235,201	119,913
316,866	4,774	235,079	120,025
317,881	4,701	234,967	119,900
318,895	4,737	234,723	119,794
319,910	4,681	234,539	119,646
320,925	4,202	234,432	119,210
321,939	4,587	234,164	119,361
322,954	4,531	234,265	119,358
323,968	4,757	233,942	119,357
324,983	4,832	233,825	119,345
325,997	4,765	233,873	119,307
327,012	4,718	233,636	119,139
328,027	4,808	233,368	119,061
329,041	4,971	233,423	119,204
330,056	5,290	233,209	119,329
331,070	4,938	233,011	118,947
332,085	5,039	232,848	118,931
333,100	4,723	232,785	118,645
334,114	4,668	232,522	118,458
335,129	4,949	232,456	118,630
336,143	5,014	232,287	118,583
337,158	4,497	232,263	118,164
338,173	4,534	231,987	118,042
339,187	4,406	231,970	117,924
340,202	4,568	231,718	117,909
341,216	4,680	231,568	117,908
342,231	4,639	231,254	117,707
343,246	4,636	231,305	117,720
344,260	4,695	231,093	117,646
345,275	4,987	230,942	117,781
346,289	4,537	230,822	117,367
347,304	4,722	230,721	117,446
348,319	4,755	230,393	117,293
349,333	4,536	230,354	117,097
350,348	4,417	229,965	116,799
351,362	4,466	229,911	116,799
352,377	4,189	229,759	116,501
353,392	3,784	229,564	116,086
354,406	3,864	229,325	116,015
355,421	195,906	1317,934	1394,244
356,435	157,172	1450,524	1394,210
