DTS Sentinel unit serial number:	SN410029Multiplexer serial number:	ORYXHardware model number:	OX2-SRSoftware version number:	ORYX F/W v4,00 Oryx Data Collector v3.7.2.0data status	okinstallation	B5 Nyhavnadifferential loss correction	single-endedforward channel	channel 2reverse channel	N/Adate	2023/12/12time	11:27:13forward acquisition time	300,00reverse acquisition time	0,00gamma	499,1914k internal	0,3158k external	0,3158temperature offset calibration	1,0000default loss term (dB/km)	0,3820temperature slope calibration	1,0000multiplexer offset coefficient	1,0000multiplexer slope coefficient	1,0000fibre end	0,00T internal ref (°C)	15,07T ext. ref 1 (°C)	-1,05T ext. ref 2 (°C)	-1,32length (m)	temperature (°C)	Stokes	anti-Stokes-744,400	307,729	0,103	-0,142
-743,385	-94,176	-0,212	-0,042
-742,371	123,897	0,091	0,084
-741,356	-55,951	-0,345	0,113
-740,342	-78,455	-0,110	0,028
-739,327	56,924	-0,227	0,163
-738,312	-161,126	0,066	0,002
-737,298	-87,063	-0,291	0,065
-736,283	-59,280	0,039	-0,012
-735,269	111,788	-0,169	0,150
-734,254	-102,478	0,174	0,030
-733,239	-11,411	-0,465	-0,225
-732,225	-144,121	0,213	-0,014
-731,210	264,960	0,057	0,074
-730,196	311,536	-0,117	-0,163
-729,181	92,011	0,033	-0,027
-728,167	-44,535	-0,052	-0,019
-727,152	-200,000	-0,021	-0,111
-726,137	-200,000	0,013	-0,050
-725,123	-39,650	-0,131	-0,050
-724,108	-200,000	-0,027	-0,152
-723,094	83,836	-0,073	-0,059
-722,079	237,577	-0,119	-0,146
-721,064	357,483	0,134	-0,197
-720,050	-200,000	0,002	-0,060
-719,035	-0,523	-0,168	-0,088
-718,021	-128,010	-0,165	0,017
-717,006	49,148	-0,080	-0,055
-715,991	-200,000	-0,009	0,133
-714,977	385,796	-0,046	0,071
-713,962	-14,337	-0,088	-0,042
-712,948	-200,000	-0,008	0,204
-711,933	295,640	-0,088	0,119
-710,918	-95,391	-0,056	-0,011
-709,904	-200,000	-0,001	-0,110
-708,889	112,513	0,117	-0,104
-707,875	731,704	0,070	0,138
-706,860	-200,000	0,019	-0,137
-705,845	-74,548	0,231	0,061
-704,831	141,669	-0,020	0,020
-703,816	-200,000	-0,001	-0,045
-702,802	-200,000	-0,028	-0,118
-701,787	47,283	0,054	0,037
-700,772	800,000	-0,036	-0,113
-699,758	-36,237	0,047	0,019
-698,743	764,614	0,051	0,103
-697,729	800,000	-0,056	0,140
-696,714	304,635	0,043	0,058
-695,699	-58,007	-0,033	-0,011
-694,685	800,000	-0,028	0,069
-693,670	-94,897	-0,074	0,015
-692,656	177,520	0,007	0,008
-691,641	-200,000	-0,000	0,022
-690,627	800,000	0,014	-0,033
-689,612	-117,951	0,047	-0,006
-688,597	800,000	-0,027	0,065
-687,583	-107,322	-0,081	0,013
-686,568	180,922	0,006	0,007
-685,554	-200,000	0,005	0,027
-684,539	-33,880	0,064	-0,026
-683,524	410,815	0,055	0,087
-682,510	92,837	0,095	0,079
-681,495	800,000	-0,095	0,208
-680,481	-11,371	0,058	-0,028
-679,466	111,154	-0,052	-0,046
-678,451	-200,000	0,018	-0,118
-677,437	270,366	-0,018	0,023
-676,422	398,269	-0,028	0,044
-675,408	281,942	-0,023	-0,030
-674,393	30,122	-0,017	-0,011
-673,378	-200,000	0,001	-0,078
-672,364	-110,675	-0,140	-0,021
-671,349	108,163	0,064	-0,056
-670,335	800,000	0,021	-0,054
-669,320	39,188	0,128	0,084
-668,305	-66,218	0,045	-0,013
-667,291	-54,517	0,057	0,019
-666,276	800,000	-0,032	0,078
-665,262	741,873	-0,072	-0,143
-664,247	159,607	0,049	0,050
-663,232	-79,479	0,086	-0,021
-662,218	-156,534	-0,105	0,005
-661,203	641,289	0,046	0,087
-660,189	225,754	-0,116	0,138
-659,174	279,095	-0,070	-0,092
-658,159	-200,000	0,005	-0,155
-657,145	155,419	-0,005	0,005
-656,130	18,088	0,073	0,043
-655,116	800,000	0,001	0,002
-654,101	-200,000	-0,016	0,061
-653,086	104,238	0,028	-0,024
-652,072	-200,000	-0,001	0,025
-651,057	-15,766	-0,088	-0,041
-650,043	-200,000	0,020	0,073
-649,028	-200,000	0,013	0,056
-648,014	-200,000	0,003	0,056
-646,999	194,539	-0,009	0,010
-645,984	800,000	-0,024	-0,071
-644,970	-7,770	-0,033	0,016
-643,955	29,462	-0,095	-0,059
-642,941	-107,756	-0,101	-0,016
-641,926	388,026	0,060	-0,091
-640,911	-112,356	0,238	0,035
-639,897	-29,868	0,084	0,035
-638,882	257,550	-0,025	0,031
-637,868	267,510	0,018	0,023
-636,853	413,471	-0,063	-0,099
-635,838	-58,772	0,059	-0,019
-634,824	-200,000	-0,008	-0,093
-633,809	-156,358	-0,075	-0,003
-632,795	75,174	0,063	0,048
-631,780	107,765	-0,051	0,045
-630,765	102,927	-0,033	0,028
-629,751	181,941	-0,069	-0,074
-628,736	54,665	-0,069	0,049
-627,722	56,923	-0,083	-0,060
-626,707	272,564	0,024	0,032
-625,692	-200,000	0,038	0,131
-624,678	-45,870	-0,033	0,012
-623,663	-200,000	-0,034	0,119
-622,649	-89,504	-0,101	-0,021
-621,634	-46,014	-0,112	-0,040
-620,619	800,000	-0,008	-0,021
-619,605	15,146	-0,048	-0,027
-618,590	475,116	0,095	-0,158
-617,576	-63,642	-0,049	-0,015
-616,561	302,795	-0,052	0,071
-615,546	112,777	-0,089	-0,079
-614,532	-200,000	0,018	-0,090
-613,517	-87,052	-0,059	0,013
-612,503	-64,498	-0,065	-0,019
-611,488	460,866	0,033	0,054
-610,474	-162,046	-0,033	0,001
-609,459	-84,257	-0,100	0,023
-608,444	134,561	0,088	-0,084
-607,430	-200,000	-0,036	-0,148
-606,415	-103,258	-0,035	0,006
-605,401	167,644	0,069	-0,072
-604,386	-200,000	-0,011	0,066
-603,371	215,345	0,028	-0,032
-602,357	800,000	0,043	-0,106
-601,342	-47,360	-0,138	-0,049
-600,328	438,359	-0,069	-0,111
-599,313	657,526	0,032	0,061
-598,298	198,206	0,076	-0,086
-597,284	-102,001	-0,132	-0,023
-596,269	-34,611	0,150	0,060
-595,255	244,126	0,029	0,036
-594,240	-133,854	-0,012	0,001
-593,225	4,651	-0,071	0,038
-592,211	109,145	-0,056	0,049
-591,196	800,000	-0,040	0,087
-590,182	301,073	0,074	0,100
-589,167	-123,076	0,084	0,010
-588,152	207,818	0,032	-0,037
-587,138	430,864	0,025	0,040
-586,123	334,094	-0,067	-0,095
-585,109	435,826	0,030	0,047
-584,094	-48,204	0,063	0,022
-583,079	-13,685	0,102	-0,048
-582,065	92,891	0,096	-0,079
-581,050	-30,653	-0,143	-0,059
-580,036	514,579	0,002	0,004
-579,021	173,354	0,017	0,018
-578,006	800,000	0,025	0,051
-576,992	-200,000	0,011	-0,037
-575,977	-71,458	0,100	-0,027
-574,963	324,657	-0,036	-0,050
-573,948	0,133	-0,045	-0,023
-572,934	800,000	-0,019	0,060
-571,919	-200,000	0,004	-0,034
-570,904	202,716	0,072	0,082
-569,890	262,570	0,085	0,109
-568,875	800,000	-0,016	0,037
-567,861	356,441	0,087	0,128
-566,846	499,762	-0,064	-0,108
-565,831	141,497	-0,101	-0,098
-564,817	800,000	-0,055	-0,133
-563,802	442,781	-0,016	-0,026
-562,788	774,151	-0,034	-0,068
-561,773	190,954	-0,069	0,076
-560,758	-200,000	0,015	0,170
-559,744	195,436	-0,029	0,032
-558,729	800,000	-0,020	0,050
-557,715	-99,507	-0,086	0,016
-556,700	26,173	0,062	-0,038
-555,685	-200,000	-0,034	-0,152
-554,671	800,000	0,035	0,080
-553,656	155,209	0,124	-0,125
-552,642	-123,846	-0,038	0,004
-551,627	-69,743	-0,139	-0,039
-550,612	62,798	0,075	0,055
-549,598	-4,984	-0,100	-0,050
-548,583	143,914	0,055	0,053
-547,569	-200,000	-0,036	0,127
-546,554	147,662	-0,085	-0,084
-545,539	-157,345	0,105	-0,005
-544,525	-138,976	-0,096	0,008
-543,510	-181,979	0,103	0,001
-542,496	-191,114	-0,097	0,001
-541,481	800,000	-0,033	-0,072
-540,466	331,181	0,045	0,064
-539,452	174,229	-0,037	0,039
-538,437	443,669	0,046	0,075
-537,423	-185,335	0,157	0,002
-536,408	-124,478	0,070	-0,008
-535,393	-126,623	-0,038	0,004
-534,379	800,000	-0,033	0,095
-533,364	-137,265	-0,054	0,004
-532,350	660,442	-0,043	0,082
-531,335	27,778	0,040	0,024
-530,321	125,230	0,027	0,024
-529,306	-41,010	0,038	0,014
-528,291	-47,525	-0,091	-0,032
-527,277	800,000	-0,016	-0,039
-526,262	-200,000	-0,002	-0,131
-525,248	-146,445	0,148	0,009
-524,233	-98,568	0,121	0,022
-523,218	-90,298	-0,061	0,013
-522,204	-156,675	0,069	-0,003
-521,189	-200,000	-0,011	-0,090
-520,175	70,437	0,198	-0,150
-519,160	800,000	-0,022	-0,070
-518,145	238,700	0,086	-0,105
-517,131	10,702	0,103	0,057
-516,116	-200,000	-0,001	0,016
-515,102	-27,967	0,084	0,035
-514,087	36,202	-0,061	0,039
-513,072	-200,000	-0,024	0,090
-512,058	-49,072	0,044	-0,015
-511,043	430,256	-0,028	-0,045
-510,029	-168,252	-0,048	-0,001
-509,014	229,020	0,085	-0,101
-507,999	-200,000	-0,001	-0,030
-506,985	89,807	0,076	-0,062
-505,970	0,356	-0,104	0,054
-504,956	183,989	0,051	-0,055
-503,941	635,688	-0,025	0,046
-502,926	-112,222	-0,037	0,005
-501,912	800,000	0,063	0,167
-500,897	-66,657	-0,173	-0,050
-499,883	-40,189	0,023	0,009
-498,868	371,051	-0,058	-0,086
-497,853	800,000	0,028	-0,087
-496,839	-28,956	-0,108	0,045
-495,824	800,000	0,026	0,061
-494,810	74,682	-0,032	-0,024
-493,795	800,000	-0,037	0,107
-492,781	-200,000	-0,049	0,167
-491,766	-200,000	-0,015	-0,148
-490,751	136,450	-0,028	-0,027
-489,737	450,054	0,067	-0,108
-488,722	397,752	0,042	-0,064
-487,708	-200,000	0,028	0,094
-486,693	14,803	-0,130	0,074
-485,678	56,807	-0,160	-0,113
-484,664	-0,703	-0,074	0,038
-483,649	-138,994	-0,085	0,007
-482,635	-148,403	0,130	-0,008
-481,620	-200,000	-0,003	0,046
-480,605	112,375	0,021	0,018
-479,591	-200,000	0,014	0,164
-478,576	-76,919	-0,195	-0,049
-477,562	149,297	-0,071	-0,070
-476,547	226,550	-0,071	-0,084
-475,532	-141,000	0,038	0,003
-474,518	-18,682	0,202	-0,092
-473,503	-134,182	-0,063	0,006
-472,489	-200,000	0,026	0,100
-471,474	-62,450	-0,087	-0,026
-470,459	691,707	-0,041	-0,079
-469,445	33,420	0,062	-0,039
-468,430	-52,374	0,088	-0,029
-467,416	100,322	0,065	0,055
-466,401	441,431	0,064	0,102
-465,386	224,890	0,095	0,112
-464,372	22,076	-0,102	-0,060
-463,357	457,583	0,022	0,036
-462,343	84,914	-0,024	0,019
-461,328	634,184	-0,033	-0,062
-460,313	-59,701	0,168	0,052
-459,299	144,922	-0,050	0,049
-458,284	-121,554	0,167	0,020
-457,270	-200,000	-0,022	0,120
-456,255	323,528	0,063	-0,088
-455,241	353,526	-0,085	-0,123
-454,226	29,853	0,086	-0,054
-453,211	-200,000	-0,057	0,000
-452,197	-18,818	-0,153	-0,069
-451,182	-75,950	0,107	0,027
-450,168	-35,568	0,127	0,050
-449,153	708,452	-0,026	-0,051
-448,138	68,345	0,056	-0,042
-447,124	-100,491	0,056	-0,010
-446,109	3,655	-0,019	0,010
-445,095	55,102	-0,062	-0,044
-444,080	800,000	-0,058	0,152
-443,065	216,615	0,023	-0,027
-442,051	-14,010	-0,102	-0,048
-441,036	-200,000	0,006	0,032
-440,022	44,839	0,055	-0,037
-439,007	92,147	0,071	-0,058
-437,992	735,460	-0,051	0,100
-436,978	-32,900	-0,072	0,029
-435,963	-39,147	0,164	-0,062
-434,949	494,685	-0,055	0,092
-433,934	261,324	-0,044	0,055
-432,919	-139,188	-0,117	0,009
-431,905	41,956	-0,050	0,033
-430,890	24,831	-0,038	0,023
-429,876	-12,907	0,075	0,036
-428,861	800,000	-0,039	0,081
-427,846	153,244	0,028	0,028
-426,832	800,000	-0,008	0,021
-425,817	-33,743	-0,103	-0,041
-424,803	392,428	0,063	-0,095
-423,788	182,762	-0,066	-0,071
-422,773	-97,553	0,154	-0,029
-421,759	36,327	-0,085	0,055
-420,744	256,776	0,041	0,051
-419,730	380,234	-0,038	0,056
-418,715	800,000	-0,039	-0,094
-417,701	-67,158	-0,087	0,025
-416,686	-133,370	-0,109	-0,010
-415,671	-51,468	0,138	0,047
-414,657	-200,000	-0,027	0,133
-413,642	20,077	0,050	-0,029
-412,628	-200,000	-0,037	0,000
-411,613	257,502	-0,020	0,025
-410,598	84,190	-0,102	0,081
-409,584	-200,000	0,013	-0,081
-408,569	378,267	-0,047	0,070
-407,555	81,398	0,236	0,186
-406,540	79,458	-0,064	0,050
-405,525	313,201	0,063	-0,086
-404,511	800,000	-0,025	-0,078
-403,496	614,952	-0,041	-0,075
-402,482	44,228	-0,037	0,025
-401,467	12,600	0,065	0,036
-400,452	-165,398	-0,115	-0,004
-399,438	-92,591	-0,050	0,010
-398,423	-26,027	0,058	-0,025
-397,409	-22,660	-0,186	0,081
-396,394	68,523	0,105	0,079
-395,379	800,000	0,065	0,141
-394,365	-200,000	0,006	-0,094
-393,350	45,072	-0,096	-0,064
-392,336	-200,000	0,017	-0,099
-391,321	58,393	0,067	0,048
-390,306	78,793	-0,075	-0,058
-389,292	366,944	0,053	-0,078
-388,277	-200,000	0,005	-0,069
-387,263	-200,000	-0,009	0,063
-386,248	91,384	0,126	0,103
-385,233	-101,143	-0,206	-0,036
-384,219	677,816	0,011	0,020
-383,204	-200,000	0,021	0,070
-382,190	-117,895	0,093	0,012
-381,175	-65,387	0,189	-0,055
-380,160	-58,633	0,096	-0,030
-379,146	-200,000	-0,004	0,060
-378,131	800,000	0,044	0,125
-377,117	-200,000	0,012	0,124
-376,102	-200,000	-0,017	-0,080
-375,088	-200,000	0,002	-0,050
-374,073	-84,185	0,116	0,027
-373,058	716,542	-0,065	-0,125
-372,044	800,000	-0,031	0,078
-371,029	-28,018	0,041	-0,017
-370,015	-185,999	0,024	-0,000
-369,000	-146,837	-0,023	-0,001
-367,985	136,707	0,040	0,038
-366,971	-200,000	-0,007	-0,035
-365,956	-135,123	0,128	-0,011
-364,942	770,781	-0,015	0,031
-363,927	-8,868	0,065	-0,032
-362,912	-200,000	-0,011	0,056
-361,898	176,048	-0,052	0,054
-360,883	316,376	0,013	0,018
-359,869	-59,798	0,060	0,019
-358,854	-67,248	0,064	-0,018
-357,839	800,000	0,016	0,045
-356,825	-9,386	-0,183	0,089
-355,810	-200,000	-0,016	0,123
-354,796	265,563	0,041	-0,052
-353,781	-12,100	-0,099	-0,047
-352,766	136,469	0,037	0,035
-351,752	44,126	-0,111	0,074
-350,737	-200,000	0,029	0,158
-349,723	-146,153	0,054	0,003
-348,708	800,000	0,062	-0,125
-347,693	104,233	0,056	0,048
-346,679	176,382	-0,077	0,081
-345,664	-164,319	0,144	-0,005
-344,650	-200,000	0,002	0,128
-343,635	-200,000	-0,016	0,197
-342,620	81,844	0,097	-0,076
-341,606	388,663	-0,053	0,079
-340,591	-85,672	-0,062	0,014
-339,577	-33,233	-0,087	0,035
-338,562	124,703	0,018	0,017
-337,548	-111,928	0,037	-0,005
-336,533	-144,152	-0,042	-0,003
-335,518	597,208	0,063	0,114
-334,504	78,778	0,109	0,085
-333,489	299,437	-0,025	0,033
-332,475	-200,000	0,041	0,179
-331,460	-200,000	0,029	0,108
-330,445	-200,000	-0,007	0,030
-329,431	94,733	0,063	0,052
-328,416	-74,774	-0,088	-0,023
-327,402	-110,031	-0,048	-0,007
-326,387	-200,000	-0,027	-0,152
-325,372	31,292	-0,083	0,051
-324,358	14,389	0,017	-0,010
-323,343	158,510	-0,048	-0,048
-322,329	-200,000	0,000	-0,159
-321,314	-74,251	0,142	0,037
-320,299	123,181	0,060	-0,054
-319,285	293,523	0,044	-0,058
-318,270	684,560	0,047	-0,089
-317,256	800,000	-0,033	-0,071
-316,241	800,000	-0,022	-0,066
-315,226	320,149	0,101	-0,139
-314,212	-200,000	0,001	-0,052
-313,197	126,673	0,025	0,023
-312,183	91,341	0,108	0,088
-311,168	432,758	0,062	0,097
-310,153	-12,093	-0,197	-0,093
-309,139	141,377	0,132	-0,127
-308,124	148,979	-0,047	0,046
-307,110	-200,000	-0,030	-0,120
-306,095	489,733	0,021	-0,035
-305,080	276,190	-0,070	-0,091
-304,066	787,532	-0,034	-0,068
-303,051	-167,871	-0,126	0,004
-302,037	-200,000	-0,001	-0,203
-301,022	289,757	-0,050	-0,066
-300,008	-20,174	0,144	-0,064
-298,993	-31,548	0,093	-0,038
-297,978	536,690	-0,059	0,102
-296,964	188,231	0,075	-0,082
-295,949	-109,677	-0,061	0,009
-294,935	442,977	0,032	-0,051
-293,920	-57,602	-0,086	0,027
-292,905	126,355	-0,081	-0,075
-291,891	-200,000	0,012	0,096
-290,876	132,003	-0,125	-0,116
-289,862	-200,000	-0,007	-0,081
-288,847	-200,000	0,005	-0,121
-287,832	643,679	-0,044	-0,081
-286,818	-200,000	-0,000	-0,101
-285,803	56,018	0,108	0,076
-284,789	69,224	-0,093	-0,069
-283,774	-200,000	0,027	-0,152
-282,759	49,864	0,030	0,020
-281,745	-200,000	0,012	0,064
-280,730	537,200	-0,022	0,039
-279,716	800,000	-0,020	-0,054
-278,701	65,517	0,064	0,047
-277,686	-46,362	0,087	0,031
-276,672	265,376	-0,014	-0,018
-275,657	-200,000	-0,003	-0,053
-274,643	-3,334	-0,058	-0,029
-273,628	800,000	-0,082	0,240
-272,613	-200,000	0,006	-0,042
-271,599	19,496	0,020	0,012
-270,584	-21,993	0,164	0,072
-269,570	800,000	-0,022	0,048
-268,555	-200,000	-0,006	0,101
-267,540	800,000	0,032	-0,065
-266,526	-13,020	0,023	-0,011
-265,511	-200,000	-0,000	-0,025
-264,497	-45,967	0,120	0,043
-263,482	-200,000	0,019	0,142
-262,467	-174,168	-0,129	0,003
-261,453	-33,684	0,129	-0,051
-260,438	456,692	-0,018	0,029
-259,424	193,576	-0,067	0,074
-258,409	-200,000	0,002	-0,048
-257,395	-141,822	0,053	-0,004
-256,380	29,798	0,091	0,056
-255,365	435,900	0,055	0,087
-254,351	800,000	-0,039	0,082
-253,336	275,966	-0,040	-0,051
-252,322	-58,513	0,053	-0,017
-251,307	209,072	-0,043	0,049
-250,292	800,000	0,035	0,097
-249,278	-51,790	-0,100	-0,033
-248,263	-35,750	0,118	0,046
-247,249	74,755	0,044	0,033
-246,234	4,037	-0,085	-0,045
-245,219	18,017	-0,038	0,022
-244,205	-172,111	-0,069	0,002
-243,190	107,420	-0,063	0,055
-242,176	323,818	0,076	0,105
-241,161	353,762	-0,061	0,087
-240,146	40,896	0,071	0,046
-239,132	137,743	-0,056	0,053
-238,117	555,856	0,035	-0,061
-237,103	-200,000	-0,032	-0,142
-236,088	-200,000	-0,020	0,110
-235,073	37,067	0,042	-0,027
-234,059	800,000	-0,037	0,083
-233,044	466,438	0,058	0,095
-232,030	746,811	-0,029	-0,057
-231,015	-18,608	-0,109	0,049
-230,000	193,746	0,043	-0,047
-228,986	83,086	-0,019	-0,015
-227,971	800,000	-0,048	-0,137
-226,957	-200,000	-0,007	0,130
-225,942	-86,863	0,022	-0,005
-224,927	800,000	0,004	-0,009
-223,913	-200,000	-0,067	-0,258
-222,898	379,287	-0,089	-0,132
-221,884	747,956	-0,100	-0,196
-220,869	800,000	0,037	0,074
-219,855	420,350	0,052	0,081
-218,840	-45,082	-0,141	-0,050
-217,825	-22,154	-0,083	-0,036
-216,811	800,000	0,004	-0,010
-215,796	26,467	-0,040	0,024
-214,782	-200,000	0,013	-0,061
-213,767	102,172	-0,030	-0,025
-212,752	-165,039	0,079	0,002
-211,738	-200,000	0,006	0,095
-210,723	88,952	0,091	0,073
-209,709	117,236	-0,125	-0,111
-208,694	-200,000	-0,006	-0,112
-207,679	800,000	-0,044	-0,119
-206,665	-200,000	-0,012	0,063
-205,650	-97,213	0,156	-0,029
-204,636	195,632	0,097	-0,106
-203,621	19,512	0,059	-0,034
-202,606	29,085	0,107	-0,066
-201,592	70,274	-0,021	0,015
-200,577	-10,825	-0,022	-0,010
-199,563	156,390	-0,123	-0,122
-198,548	140,305	0,065	-0,062
-197,533	-200,000	0,008	0,113
-196,519	-97,300	0,109	0,020
-195,504	290,313	-0,068	-0,090
-194,490	42,521	-0,143	-0,094
-193,475	-2,925	0,022	-0,011
-192,460	-131,078	0,095	-0,009
-191,446	-30,256	0,094	0,038
-190,431	219,408	0,026	0,030
-189,417	-200,000	-0,011	0,103
-188,402	-58,682	-0,162	-0,050
-187,387	-200,000	0,021	-0,074
-186,373	-37,590	0,099	0,038
-185,358	-200,000	-0,007	-0,037
-184,344	-18,506	0,069	0,031
-183,329	283,224	0,071	-0,092
-182,315	-200,000	0,012	0,072
-181,300	-200,000	-0,019	0,104
-180,285	-187,764	-0,046	0,000
-179,271	86,914	0,049	-0,039
-178,256	466,588	-0,042	0,068
-177,242	-200,000	0,000	0,033
-176,227	-200,000	-0,034	-0,112
-175,212	-200,000	-0,013	0,074
-174,198	-160,652	-0,140	0,005
-173,183	-47,306	0,035	0,012
-172,169	6,738	-0,032	-0,017
-171,154	-179,594	0,138	0,002
-170,139	800,000	-0,033	0,080
-169,125	-161,932	-0,086	-0,003
-168,110	800,000	0,046	0,100
-167,096	800,000	0,063	-0,170
-166,081	-7,582	-0,036	0,017
-165,066	454,291	0,013	-0,021
-164,052	-16,817	-0,146	0,066
-163,037	506,043	-0,048	0,080
-162,023	192,389	-0,013	0,014
-161,008	-83,723	0,012	-0,003
-159,993	-23,385	-0,173	0,075
-158,979	-66,802	0,155	0,044
-157,964	45,930	-0,027	0,018
-156,950	137,689	-0,086	-0,081
-155,935	-112,326	-0,082	-0,012
-154,920	-87,932	0,082	0,018
-153,906	11,405	0,119	0,066
-152,891	-115,325	0,167	0,023
-151,877	-200,000	0,002	0,009
-150,862	176,479	-0,051	0,053
-149,847	-50,974	0,088	0,030
-148,833	138,216	0,073	-0,069
-147,818	519,014	0,075	0,127
-146,804	800,000	0,086	0,220
-145,789	-200,000	0,003	0,105
-144,775	-200,000	-0,022	-0,125
-143,760	-14,594	-0,165	0,076
-142,745	-200,000	0,013	-0,048
-141,731	200,577	-0,040	-0,044
-140,716	-83,471	0,054	0,012
-139,702	-160,682	0,130	-0,005
-138,687	800,000	-0,044	0,123
-137,672	-200,000	-0,009	0,043
-136,658	-200,000	-0,003	0,068
-135,643	444,259	0,037	0,058
-134,629	27,688	-0,057	-0,034
-133,614	-31,768	-0,084	0,034
-132,599	800,000	-0,037	0,082
-131,585	-200,000	-0,012	0,101
-130,570	604,509	-0,036	0,065
-129,556	682,720	0,013	0,024
-128,541	286,784	-0,083	-0,108
-127,526	227,665	0,069	-0,081
-126,512	164,384	-0,023	-0,023
-125,497	166,729	0,104	-0,106
-124,483	-81,412	0,077	-0,018
-123,468	-73,171	0,064	0,017
-122,453	-89,708	-0,191	-0,040
-121,439	-200,000	-0,023	0,084
-120,424	-200,000	-0,019	-0,078
-119,410	-200,000	0,024	-0,158
-118,395	773,502	-0,041	-0,081
-117,380	26,602	0,086	0,052
-116,366	206,414	-0,025	-0,028
-115,351	-200,000	-0,006	0,058
-114,337	-62,190	-0,038	0,011
-113,322	800,000	-0,037	-0,102
-112,307	221,525	0,060	-0,069
-111,293	800,000	0,056	0,125
-110,278	29,747	0,171	0,104
-109,264	-9,715	-0,088	-0,042
-108,249	8,362	-0,091	0,049
-107,234	-3,449	-0,133	-0,066
-106,220	-200,000	0,042	0,149
-105,205	94,736	0,086	-0,070
-104,191	800,000	0,010	-0,027
-103,176	-200,000	-0,036	0,140
-102,162	-100,205	-0,144	-0,026
-101,147	71,925	-0,006	-0,004
-100,132	-47,981	-0,133	0,046
-99,118	800,000	-0,064	-0,152
-98,103	-200,000	0,018	-0,059
-97,089	99,918	-0,047	-0,039
-96,074	800,000	0,039	0,078
-95,059	-71,857	-0,083	0,022
-94,045	103,914	-0,060	-0,050
-93,030	161,196	0,089	-0,089
-92,016	-200,000	-0,014	-0,075
-91,001	281,562	-0,024	-0,031
-89,986	-134,380	0,014	0,001
-88,972	95,607	0,084	0,068
-87,957	762,377	-0,060	0,117
-86,943	-43,208	0,091	0,033
-85,928	146,697	-0,041	-0,039
-84,913	-200,000	-0,022	-0,201
-83,899	-200,000	0,047	-0,176
-82,884	-131,466	0,174	-0,016
-81,870	16,455	0,038	0,022
-80,855	-200,000	-0,029	0,096
-79,840	204,379	0,097	0,108
-78,826	145,214	-0,096	-0,093
-77,811	800,000	0,027	-0,059
-76,797	49,863	-0,061	0,042
-75,782	64,555	0,039	0,028
-74,767	-100,273	-0,018	-0,003
-73,753	-72,715	0,067	-0,018
-72,738	-200,000	-0,017	0,124
-71,724	-136,617	-0,029	0,002
-70,709	347,824	0,039	-0,055
-69,694	-200,000	0,007	0,082
-68,680	800,000	-0,029	0,084
-67,665	-200,000	-0,019	0,137
-66,651	-200,000	0,006	0,091
-65,636	-200,000	0,008	0,090
-64,622	203,824	0,068	-0,076
-63,607	148,265	-0,070	-0,068
-62,592	253,322	-0,122	-0,150
-61,578	119,866	-0,044	0,039
-60,563	-200,000	-0,012	0,071
-59,549	800,000	-0,085	0,201
-58,534	-0,309	-1,883	-0,957
-57,519	-200,000	-0,124	-0,731
-56,505	-200,000	-1,307	-4,948
-55,490	30,802	0,927	0,568
-54,476	800,000	5,379	12,267
-53,461	-200,000	17,756	286,865
-52,446	800,000	728,524	2225,527
-51,432	537,455	1644,689	2814,344
-50,417	109,757	1635,244	1406,449
-49,403	75,770	1286,969	974,860
-48,388	31,878	1027,433	633,438
-47,373	20,095	989,234	571,048
-46,359	18,328	976,962	558,151
-45,344	15,366	972,972	546,162
-44,330	15,604	971,594	546,145
-43,315	15,173	969,653	543,626
-42,300	15,078	968,498	542,647
-41,286	15,035	967,694	542,035
-40,271	15,032	966,484	541,328
-39,257	15,075	965,612	540,957
-38,242	15,058	964,857	540,457
-37,227	15,113	964,015	540,140
-36,213	15,117	963,027	539,579
-35,198	15,050	962,153	538,852
-34,184	15,076	961,486	538,541
-33,169	15,003	960,510	537,736
-32,154	15,078	959,526	537,408
-31,140	15,110	958,686	537,020
-30,125	15,106	958,169	536,696
-29,111	15,128	956,972	536,075
-28,096	15,074	956,535	535,635
-27,082	15,093	955,813	535,270
-26,067	15,085	954,986	534,761
-25,052	15,121	954,004	534,305
-24,038	15,150	953,465	534,075
-23,023	15,160	952,894	533,766
-22,009	15,096	952,304	533,208
-20,994	15,115	951,607	532,857
-19,979	15,188	950,884	532,664
-18,965	15,147	950,271	532,170
-17,950	15,112	949,766	531,753
-16,936	15,052	949,188	531,217
-15,921	15,026	948,503	530,731
-14,906	14,937	947,788	530,025
-13,892	14,951	947,219	529,731
-12,877	15,009	946,597	529,548
-11,863	15,015	945,810	529,103
-10,848	14,940	945,397	528,613
-9,833	15,088	944,799	528,729
-8,819	15,063	944,152	528,265
-7,804	14,965	943,712	527,689
-6,790	15,006	942,859	527,319
-5,775	15,067	942,273	527,165
-4,760	15,046	941,604	526,704
-3,746	15,019	941,144	526,341
-2,731	14,884	940,454	525,504
-1,717	14,840	939,866	525,017
-0,702	14,822	939,062	524,492
0,313	14,646	938,497	524,413
1,327	17,939	936,326	533,519
2,342	27,110	793,446	476,376
3,356	24,070	458,556	270,645
4,371	-3,310	314,730	156,637
5,386	-7,303	296,548	143,531
6,400	-9,244	290,344	138,589
7,415	-9,644	287,806	136,971
8,429	-10,041	286,498	135,947
9,444	-9,914	285,331	135,505
10,459	-9,865	284,898	135,336
11,473	-10,030	284,323	134,890
12,488	-9,972	283,697	134,636
13,502	-10,003	283,431	134,468
14,517	-9,860	282,720	134,258
15,531	-10,015	282,200	133,849
16,546	-9,933	281,864	133,757
17,561	-10,045	281,503	133,466
18,575	-9,991	281,127	133,327
19,590	-10,064	280,676	133,032
20,604	-10,007	280,418	132,952
21,619	-10,077	280,156	132,749
22,634	-10,027	279,752	132,594
23,648	-10,152	279,458	132,323
24,663	-10,118	279,106	132,177
25,677	-10,073	278,998	132,157
26,692	-9,896	278,651	132,150
27,707	-10,033	278,340	131,860
28,721	-10,023	277,955	131,676
29,736	-10,095	277,832	131,537
30,750	-10,037	277,545	131,444
31,765	-10,075	277,309	131,285
32,780	-10,265	277,250	131,066
33,794	-10,076	276,768	131,004
34,809	-10,172	276,632	130,838
35,823	-10,064	276,149	130,699
36,838	-10,013	276,009	130,670
37,853	-10,023	275,831	130,564
38,867	-10,237	275,527	130,207
39,882	-10,160	275,377	130,198
40,896	-10,062	274,968	130,084
41,911	-10,335	274,750	129,714
42,926	-10,188	274,555	129,748
43,940	-10,100	274,366	129,729
44,955	-10,262	274,122	129,451
45,969	-10,197	273,891	129,391
46,984	-10,467	273,726	129,050
47,999	-10,695	273,373	128,659
49,013	-10,714	273,048	128,477
50,028	-10,683	272,794	128,375
51,042	-10,882	272,483	128,032
52,057	-10,929	272,297	127,889
53,071	-10,807	272,135	127,915
54,086	-10,591	271,914	128,001
55,101	-10,483	271,749	128,011
56,115	-10,436	271,570	127,959
57,130	-10,146	271,541	128,202
58,144	-9,912	271,353	128,318
59,159	-9,853	270,990	128,189
60,174	-9,884	270,780	128,050
61,188	-10,045	270,588	127,800
62,203	-9,876	270,281	127,798
63,217	-10,002	270,200	127,633
64,232	-9,961	269,973	127,552
65,247	-9,819	269,701	127,542
66,261	-9,998	269,576	127,308
67,276	-10,114	269,218	127,021
68,290	-10,212	268,959	126,798
69,305	-10,423	268,675	126,459
70,320	-10,143	268,503	126,623
71,334	-10,068	268,302	126,586
72,349	-9,979	268,149	126,584
73,363	-9,994	267,985	126,481
74,378	-9,793	267,625	126,483
75,393	-10,080	267,643	126,218
76,407	-9,963	267,346	126,174
77,422	-10,065	267,083	125,946
78,436	-9,916	266,939	126,002
79,451	-9,919	266,677	125,864
80,466	-9,993	266,315	125,615
81,480	-10,167	266,142	125,365
82,495	-10,173	265,841	125,207
83,509	-10,084	265,767	125,241
84,524	-10,455	265,621	124,826
85,539	-10,327	265,353	124,805
86,553	-10,197	265,065	124,775
87,568	-10,389	264,813	124,472
88,582	-10,289	264,728	124,511
89,597	-10,307	264,473	124,364
90,611	-9,997	264,394	124,594
91,626	-9,796	264,192	124,668
92,641	-9,893	263,852	124,410
93,655	-9,876	263,655	124,321
94,670	-10,074	263,500	124,060
95,684	-10,034	263,273	123,978
96,699	-10,209	263,169	123,761
97,714	-10,184	262,778	123,589
98,728	-10,328	262,754	123,438
99,743	-10,453	262,573	123,230
100,757	-10,419	262,344	123,142
101,772	-10,092	262,085	123,301
102,787	-10,107	261,894	123,186
103,801	-9,946	261,734	123,243
104,816	-10,051	261,824	123,181
105,830	-10,085	261,443	122,961
106,845	-9,819	261,123	123,035
107,860	-9,859	260,963	122,914
108,874	-10,062	260,780	122,637
109,889	-10,124	260,614	122,492
110,903	-10,165	260,391	122,341
111,918	-9,977	260,227	122,419
112,933	-10,047	260,027	122,252
113,947	-10,035	259,761	122,127
114,962	-9,967	259,573	122,087
115,976	-10,036	259,436	121,951
116,991	-9,899	259,245	121,970
118,006	-9,913	259,107	121,883
119,020	-9,876	258,963	121,836
120,035	-9,808	258,775	121,798
121,049	-9,952	258,511	121,536
122,064	-9,918	258,396	121,500
123,079	-10,066	258,431	121,377
124,093	-10,061	258,003	121,170
125,108	-10,183	257,755	120,935
126,122	-10,379	257,477	120,623
127,137	-10,551	257,236	120,350
128,151	-10,262	257,119	120,536
129,166	-10,163	256,933	120,525
130,181	-10,278	256,741	120,323
131,195	-10,187	256,454	120,257
132,210	-9,937	256,269	120,376
133,224	-9,928	256,231	120,356
134,239	-10,084	255,988	120,096
135,254	-9,800	255,703	120,197
136,268	-10,121	255,588	119,854
137,283	-10,352	255,308	119,513
138,297	-10,361	255,055	119,377
139,312	-10,460	254,872	119,195
140,327	-10,150	254,776	119,406
141,341	-9,927	254,675	119,540
142,356	-9,851	254,602	119,561
143,370	-9,812	254,291	119,438
144,385	-9,790	254,254	119,429
145,400	-9,857	254,126	119,300
146,414	-9,901	253,848	119,122
147,429	-9,809	253,636	119,090
148,443	-9,903	253,536	118,953
149,458	-9,738	253,191	118,921
150,473	-9,708	253,085	118,886
151,487	-10,054	252,884	118,486
152,502	-9,776	252,629	118,593
153,516	-9,869	252,574	118,477
154,531	-9,810	252,471	118,468
155,546	-9,785	252,241	118,371
156,560	-9,798	251,987	118,230
157,575	-9,679	251,613	118,145
158,589	-9,932	251,695	117,959
159,604	-9,800	251,354	117,900
160,619	-9,722	251,264	117,913
161,633	-9,936	251,136	117,661
162,648	-9,927	251,036	117,612
163,662	-9,845	251,017	117,662
164,677	-9,573	250,522	117,649
165,692	-9,890	250,552	117,384
166,706	-9,599	250,185	117,447
167,721	-9,898	250,225	117,204
168,735	-9,632	249,885	117,259
169,750	-9,658	249,817	117,194
170,764	-9,668	249,579	117,063
171,779	-9,550	249,385	117,061
172,794	-9,572	249,330	117,007
173,808	-9,714	249,089	116,764
174,823	-10,150	248,801	116,253
175,837	-10,159	248,631	116,156
176,852	-9,984	248,674	116,312
177,867	-9,599	248,477	116,532
178,881	-9,638	248,223	116,370
179,896	-9,640	248,122	116,311
180,910	-9,547	247,924	116,285
181,925	-9,770	247,766	116,014
182,940	-9,839	247,810	115,966
183,954	-9,784	247,498	115,856
184,969	-9,681	247,183	115,784
185,983	-9,839	247,081	115,594
186,998	-9,706	247,008	115,661
188,013	-9,530	246,735	115,669
189,027	-9,749	246,763	115,490
190,042	-9,550	246,368	115,459
191,056	-9,543	246,115	115,336
192,071	-9,803	246,134	115,120
193,086	-9,692	245,894	115,089
194,100	-9,737	245,754	114,976
195,115	-9,481	245,503	115,060
196,129	-9,594	245,248	114,837
197,144	-9,615	245,183	114,779
198,159	-9,660	244,945	114,620
199,173	-9,462	244,871	114,739
200,188	-9,740	244,647	114,395
201,202	-9,800	244,200	114,126
202,217	-9,984	243,985	113,865
203,232	-10,192	243,904	113,646
204,246	-10,007	243,904	113,787
205,261	-9,264	243,817	114,346
206,275	-10,030	243,483	113,552
207,290	-5,719	245,243	117,914
208,304	1,217	247,271	124,622
209,319	3,579	247,850	126,859
210,334	3,889	247,983	127,171
211,348	4,255	247,778	127,357
212,363	4,493	247,792	127,549
213,377	4,756	247,561	127,637
214,392	4,270	247,297	127,088
215,407	4,315	247,094	127,010
216,421	4,229	246,989	126,874
217,436	4,507	247,071	127,133
218,450	4,618	246,820	127,084
219,465	4,278	246,581	126,670
220,480	4,051	246,326	126,342
221,494	4,093	246,232	126,316
222,509	4,313	246,016	126,375
223,523	3,964	245,934	126,035
224,538	3,492	245,540	125,436
225,553	3,866	245,415	125,667
226,567	4,029	245,219	125,688
227,582	3,828	245,240	125,524
228,596	4,270	245,038	125,770
229,611	3,834	244,638	125,198
230,626	3,715	244,550	125,045
231,640	3,643	244,595	124,999
232,655	4,077	244,390	125,236
233,669	3,753	244,039	124,782
234,684	3,642	243,888	124,603
235,699	3,835	244,020	124,816
236,713	4,033	243,701	124,802
237,728	3,791	243,502	124,494
238,742	3,739	243,340	124,357
239,757	3,647	243,160	124,180
240,772	3,726	243,078	124,191
241,786	3,870	242,946	124,229
242,801	3,699	242,797	124,004
243,815	3,746	242,543	123,900
244,830	3,781	242,416	123,853
245,844	3,995	242,238	123,923
246,859	3,785	242,069	123,656
247,874	3,770	241,889	123,542
248,888	4,081	241,803	123,736
249,903	3,957	241,658	123,551
250,917	3,846	241,475	123,359
251,932	4,226	241,408	123,617
252,947	4,045	241,285	123,399
253,961	3,802	241,032	123,064
254,976	3,908	240,818	123,028
255,990	3,964	240,587	122,944
257,005	3,692	240,573	122,708
258,020	3,549	240,348	122,468
259,034	3,753	240,204	122,547
260,049	3,868	240,152	122,601
261,063	3,702	239,803	122,280
262,078	3,743	239,718	122,258
263,093	3,915	239,586	122,317
264,107	4,040	239,520	122,372
265,122	3,829	239,264	122,062
266,136	3,870	239,235	122,069
267,151	4,306	239,063	122,317
268,166	3,694	238,846	121,710
269,180	3,554	238,582	121,453
270,195	4,207	238,752	122,046
271,209	4,498	238,564	122,170
272,224	3,857	238,335	121,534
273,239	3,620	237,920	121,125
274,253	3,595	237,891	121,080
275,268	3,802	237,782	121,177
276,282	3,917	237,705	121,217
277,297	3,850	237,302	120,948
278,312	3,762	237,144	120,788
279,326	3,831	237,233	120,877
280,341	3,960	237,103	120,901
281,355	4,026	236,903	120,840
282,370	3,984	236,849	120,769
283,384	3,728	236,615	120,438
284,399	3,587	236,436	120,226
285,414	3,685	236,139	120,141
286,428	3,724	236,088	120,134
287,443	3,838	235,907	120,121
288,457	3,985	235,860	120,201
289,472	4,035	235,730	120,163
290,487	3,820	235,523	119,880
291,501	3,712	235,320	119,681
292,516	3,585	235,161	119,491
293,530	3,569	234,908	119,338
294,545	3,883	234,924	119,580
295,560	3,761	234,752	119,387
296,574	3,704	234,483	119,196
297,589	3,667	234,386	119,107
298,603	4,029	234,309	119,338
299,618	4,026	234,234	119,287
300,633	4,147	234,067	119,285
301,647	4,070	234,006	119,184
302,662	4,389	233,821	119,325
303,676	4,381	233,663	119,228
304,691	4,108	233,603	118,976
305,706	4,192	233,354	118,903
306,720	4,101	233,118	118,702
307,735	4,104	233,059	118,664
308,749	4,168	232,792	118,566
309,764	3,639	232,706	118,105
310,779	3,629	232,479	117,972
311,793	3,573	232,331	117,843
312,808	3,447	232,149	117,644
313,822	3,616	231,944	117,659
314,837	3,747	231,721	117,636
315,852	3,572	231,754	117,508
316,866	3,820	231,558	117,588
317,881	4,242	231,408	117,824
318,895	3,850	231,389	117,503
319,910	4,095	230,997	117,481
320,925	3,779	230,953	117,207
321,939	3,845	231,010	117,277
322,954	4,205	230,860	117,464
323,968	4,022	230,667	117,216
324,983	3,883	230,486	117,008
325,997	3,859	230,294	116,882
327,012	3,847	230,225	116,827
328,027	4,144	230,043	116,950
329,041	4,228	230,149	117,057
330,056	4,385	230,092	117,137
331,070	4,825	229,776	117,299
332,085	4,055	229,487	116,558
333,100	4,175	229,230	116,508
334,114	4,078	229,088	116,352
335,129	4,354	229,000	116,505
336,143	4,374	228,965	116,492
337,158	4,534	228,746	116,491
338,173	4,091	228,612	116,079
339,187	4,068	228,467	115,977
340,202	3,903	228,446	115,832
341,216	4,128	228,251	115,892
342,231	4,163	228,039	115,800
343,246	4,110	227,795	115,627
344,260	3,932	227,955	115,564
345,275	4,263	227,855	115,751
346,289	4,332	227,515	115,620
347,304	4,316	227,454	115,567
348,319	4,232	227,314	115,422
349,333	4,214	227,198	115,340
350,348	3,898	226,944	114,964
351,362	4,162	226,680	115,017
352,377	3,828	226,614	114,724
353,392	3,681	226,467	114,530
354,406	3,699	226,262	114,429
355,421	195,573	1322,700	1399,291
356,435	156,770	1456,267	1399,277
