DTS Sentinel unit serial number:	SN410029Multiplexer serial number:	ORYXHardware model number:	OX2-SRSoftware version number:	ORYX F/W v4,00 Oryx Data Collector v3.7.2.0data status	okinstallation	B5 Nyhavnadifferential loss correction	single-endedforward channel	channel 2reverse channel	N/Adate	2023/12/13time	05:02:13forward acquisition time	300,00reverse acquisition time	0,00gamma	499,1914k internal	0,3160k external	0,3160temperature offset calibration	1,0000default loss term (dB/km)	0,3820temperature slope calibration	1,0000multiplexer offset coefficient	1,0000multiplexer slope coefficient	1,0000fibre end	0,00T internal ref (°C)	13,90T ext. ref 1 (°C)	-2,52T ext. ref 2 (°C)	-2,80length (m)	temperature (°C)	Stokes	anti-Stokes-744,400	336,957	0,064	-0,093
-743,385	-66,954	-0,206	-0,060
-742,371	317,390	0,056	0,078
-741,356	-57,900	-0,313	0,100
-740,342	-200,000	-0,026	0,126
-739,327	-120,760	-0,276	0,034
-738,312	10,669	0,059	0,033
-737,298	-51,731	-0,366	-0,125
-736,283	-83,846	0,187	-0,043
-735,269	-137,843	-0,248	0,020
-734,254	800,000	0,004	-0,012
-733,239	53,946	-0,407	-0,288
-732,225	-166,385	0,263	-0,008
-731,210	-200,000	-0,011	-0,075
-730,196	24,159	-0,070	0,042
-729,181	-32,912	-0,097	-0,039
-728,167	202,419	-0,015	-0,017
-727,152	502,329	-0,039	0,067
-726,137	-200,000	-0,003	-0,098
-725,123	460,180	-0,068	-0,112
-724,108	227,518	-0,058	-0,069
-723,094	619,046	-0,067	-0,124
-722,079	-200,000	-0,028	0,097
-721,064	81,024	-0,066	0,052
-720,050	36,524	-0,056	-0,036
-719,035	143,075	0,047	-0,046
-718,021	-200,000	0,005	0,035
-717,006	-76,461	-0,149	0,038
-715,991	-200,000	-0,007	-0,057
-714,977	212,083	-0,064	-0,074
-713,962	800,000	0,046	-0,096
-712,948	-149,740	-0,114	0,006
-711,933	314,822	-0,034	0,047
-710,918	8,838	0,146	0,081
-709,904	122,002	-0,025	0,023
-708,889	-200,000	-0,013	0,050
-707,875	44,714	-0,055	-0,037
-706,860	98,036	0,069	0,058
-705,845	85,927	0,032	0,026
-704,831	800,000	0,061	-0,132
-703,816	112,489	0,073	-0,065
-702,802	316,616	0,021	-0,029
-701,787	800,000	-0,063	-0,142
-700,772	-153,803	-0,037	-0,002
-699,758	-4,971	0,017	-0,008
-698,743	-151,364	0,058	-0,003
-697,729	83,424	-0,100	-0,080
-696,714	-43,011	0,063	-0,023
-695,699	515,762	-0,133	-0,230
-694,685	90,426	-0,088	0,072
-693,670	-76,474	-0,027	-0,007
-692,656	162,982	0,110	-0,113
-691,641	-66,125	-0,062	0,018
-690,627	-122,991	-0,155	0,018
-689,612	-200,000	0,016	0,125
-688,597	287,421	-0,059	-0,078
-687,583	155,581	0,089	-0,090
-686,568	452,519	-0,057	-0,093
-685,554	721,959	-0,068	-0,133
-684,539	-200,000	0,026	-0,084
-683,524	-56,488	0,065	0,021
-682,510	-200,000	-0,035	0,117
-681,495	-7,115	-0,080	0,040
-680,481	-35,395	0,066	-0,026
-679,466	89,609	-0,070	-0,058
-678,451	-70,448	-0,042	-0,012
-677,437	-200,000	0,007	-0,059
-676,422	367,866	0,074	-0,110
-675,408	-104,423	0,140	0,024
-674,393	-74,750	-0,088	-0,023
-673,378	4,836	0,093	-0,050
-672,364	-200,000	-0,018	-0,165
-671,349	-200,000	0,022	-0,120
-670,335	-200,000	-0,003	0,092
-669,320	800,000	0,036	0,080
-668,305	-129,285	-0,081	0,008
-667,291	-145,961	-0,088	0,006
-666,276	-200,000	0,032	-0,104
-665,262	-200,000	0,012	-0,146
-664,247	-49,487	-0,166	0,058
-663,232	82,095	0,066	0,052
-662,218	759,930	0,043	-0,085
-661,203	800,000	0,016	-0,036
-660,189	-15,744	0,138	0,064
-659,174	-134,761	-0,245	0,022
-658,159	800,000	-0,015	-0,034
-657,145	357,650	0,092	-0,135
-656,130	-7,585	0,013	0,006
-655,116	700,210	-0,022	0,043
-654,101	-200,000	0,040	0,137
-653,086	800,000	-0,032	0,074
-652,072	-200,000	0,001	-0,135
-651,057	-27,851	0,031	0,013
-650,043	-200,000	0,016	-0,107
-649,028	352,636	-0,082	-0,120
-648,014	113,751	0,062	-0,055
-646,999	-27,153	-0,107	0,045
-645,984	631,125	0,031	-0,057
-644,970	263,355	-0,056	-0,071
-643,955	-26,122	-0,028	-0,012
-642,941	-54,287	-0,135	0,045
-641,926	-200,000	0,005	0,061
-640,911	367,974	-0,043	-0,064
-639,897	800,000	-0,029	-0,069
-638,882	28,599	-0,097	-0,060
-637,868	-200,000	0,012	0,162
-636,853	-34,926	-0,082	0,033
-635,838	-33,880	-0,176	-0,071
-634,824	330,444	0,010	0,015
-633,809	514,417	0,048	0,082
-632,795	800,000	0,044	-0,092
-631,780	-200,000	-0,021	-0,111
-630,765	178,911	-0,029	-0,031
-629,751	-200,000	0,024	-0,129
-628,736	499,494	-0,058	0,098
-627,722	-46,510	0,084	-0,030
-626,707	44,663	0,068	0,046
-625,692	330,388	-0,051	-0,072
-624,678	-200,000	-0,003	0,144
-623,663	800,000	0,017	0,047
-622,649	-79,383	-0,194	0,048
-621,634	28,596	-0,054	0,033
-620,619	727,456	0,032	-0,062
-619,605	261,745	0,015	0,019
-618,590	-72,576	0,017	0,004
-617,576	-143,395	0,040	0,003
-616,561	309,029	0,087	0,120
-615,546	800,000	0,043	-0,125
-614,532	127,866	-0,069	-0,065
-613,517	-200,000	-0,003	-0,047
-612,503	603,587	0,104	0,190
-611,488	-200,000	-0,021	0,170
-610,474	149,361	0,018	-0,018
-609,459	89,569	-0,056	-0,046
-608,444	-200,000	0,042	-0,154
-607,430	582,892	-0,021	0,037
-606,415	80,394	0,016	0,013
-605,401	-103,241	0,158	-0,027
-604,386	749,207	-0,050	-0,099
-603,371	512,755	-0,047	0,080
-602,357	83,148	0,096	0,076
-601,342	93,328	0,103	-0,086
-600,328	560,078	-0,054	-0,095
-599,313	199,249	0,054	-0,061
-598,298	-102,296	0,166	0,029
-597,284	159,184	0,044	0,045
-596,269	-200,000	0,046	0,164
-595,255	729,375	-0,069	0,136
-594,240	-200,000	-0,004	0,043
-593,225	-200,000	0,001	-0,011
-592,211	42,424	-0,047	0,031
-591,196	800,000	-0,093	0,212
-590,182	-200,000	0,009	0,127
-589,167	-200,000	-0,032	-0,218
-588,152	-200,000	0,014	0,191
-587,138	-45,810	-0,147	0,053
-586,123	112,566	-0,075	-0,066
-585,109	426,479	-0,058	-0,092
-584,094	134,546	-0,034	0,033
-583,079	800,000	0,040	0,092
-582,065	-200,000	-0,015	0,097
-581,050	55,725	-0,054	-0,038
-580,036	92,618	0,047	-0,039
-579,021	-70,091	-0,089	0,025
-578,006	29,935	0,071	-0,044
-576,992	-200,000	-0,016	-0,236
-575,977	-21,278	-0,070	-0,031
-574,963	615,373	-0,019	-0,035
-573,948	302,330	0,027	-0,036
-572,934	41,070	0,144	0,095
-571,919	-99,515	-0,161	-0,029
-570,904	-200,000	-0,007	-0,069
-569,890	-200,000	0,015	0,089
-568,875	-200,000	0,009	0,065
-567,861	231,953	0,126	0,152
-566,846	-71,984	0,107	0,029
-565,831	-99,716	0,059	0,011
-564,817	-174,144	-0,093	0,002
-563,802	-12,569	0,138	-0,066
-562,788	268,053	-0,046	0,059
-561,773	232,155	-0,029	0,035
-560,758	800,000	0,023	0,067
-559,744	-200,000	0,010	-0,072
-558,729	-200,000	0,009	0,058
-557,715	-200,000	-0,023	0,109
-556,700	800,000	-0,024	-0,052
-555,685	-57,917	0,107	0,034
-554,671	-194,680	-0,153	0,001
-553,656	101,315	0,041	-0,035
-552,642	219,535	0,033	0,039
-551,627	-112,389	0,099	-0,014
-550,612	3,981	-0,030	-0,016
-549,598	-65,886	-0,044	-0,013
-548,583	800,000	-0,027	0,084
-547,569	390,917	-0,049	0,074
-546,554	800,000	0,059	-0,129
-545,539	114,643	0,139	0,124
-544,525	-39,476	0,129	0,049
-543,510	-38,238	-0,043	0,016
-542,496	800,000	0,022	-0,058
-541,481	7,731	-0,192	-0,105
-540,466	43,498	0,058	0,039
-539,452	507,344	0,093	0,158
-538,437	-200,000	-0,043	0,149
-537,423	141,966	0,076	0,074
-536,408	800,000	0,050	-0,155
-535,393	-200,000	0,025	-0,147
-534,379	609,297	0,040	-0,073
-533,364	202,783	0,045	-0,051
-532,350	800,000	0,044	0,095
-531,335	-200,000	0,044	0,173
-530,321	800,000	-0,021	0,048
-529,306	201,975	-0,057	0,064
-528,291	-47,141	-0,072	0,025
-527,277	319,730	0,016	-0,022
-526,262	-71,269	-0,092	0,025
-525,248	-17,967	0,069	0,031
-524,233	-39,583	0,084	0,032
-523,218	239,633	-0,009	0,011
-522,204	800,000	0,026	0,076
-521,189	-15,361	0,226	0,105
-520,175	96,699	0,040	-0,034
-519,160	-200,000	0,005	-0,067
-518,145	-101,176	0,075	-0,013
-517,131	218,407	0,018	-0,021
-516,116	-10,627	-0,110	-0,053
-515,102	225,195	-0,102	0,121
-514,087	-29,300	0,124	-0,052
-513,072	-200,000	-0,008	-0,087
-512,058	-94,570	-0,124	-0,024
-511,043	214,270	0,109	0,126
-510,029	-200,000	-0,020	0,105
-509,014	-200,000	0,014	-0,052
-507,999	-101,793	0,096	0,017
-506,985	-200,000	-0,006	-0,020
-505,970	-86,845	-0,033	-0,007
-504,956	8,298	-0,054	-0,030
-503,941	118,384	-0,006	0,005
-502,926	-200,000	-0,012	-0,048
-501,912	-200,000	0,010	0,045
-500,897	19,917	-0,058	0,034
-499,883	-200,000	-0,015	-0,102
-498,868	787,856	0,042	-0,085
-497,853	800,000	-0,035	0,085
-496,839	630,392	0,044	0,081
-495,824	156,110	0,044	0,045
-494,810	-200,000	-0,003	0,118
-493,795	297,486	0,085	-0,114
-492,781	2,322	0,121	-0,064
-491,766	104,884	-0,099	-0,086
-490,751	154,517	-0,022	-0,022
-489,737	-69,621	-0,099	0,027
-488,722	-200,000	-0,025	0,113
-487,708	-200,000	-0,039	0,130
-486,693	-54,481	0,065	0,021
-485,678	-59,049	0,028	-0,009
-484,664	326,512	-0,003	-0,004
-483,649	-49,304	-0,087	-0,030
-482,635	800,000	-0,032	-0,086
-481,620	-200,000	0,011	-0,052
-480,605	-200,000	0,000	0,106
-479,591	-12,322	-0,043	0,021
-478,576	-27,116	-0,079	0,034
-477,562	100,657	-0,054	-0,046
-476,547	351,302	-0,065	-0,094
-475,532	155,264	0,030	-0,030
-474,518	48,027	-0,086	0,059
-473,503	-39,945	0,078	0,029
-472,489	256,282	0,040	-0,051
-471,474	38,521	0,058	-0,037
-470,459	-200,000	-0,018	-0,147
-469,445	193,835	0,064	0,070
-468,430	800,000	0,022	-0,071
-467,416	-125,635	-0,102	0,011
-466,401	-97,095	0,011	-0,002
-465,386	-200,000	-0,012	0,083
-464,372	22,400	0,107	-0,063
-463,357	55,298	-0,164	-0,115
-462,343	352,782	-0,066	-0,096
-461,328	220,905	-0,010	0,012
-460,313	800,000	-0,082	0,232
-459,299	-138,813	0,032	-0,002
-458,284	-123,910	0,119	0,014
-457,270	-200,000	0,004	-0,067
-456,255	-61,380	-0,165	0,050
-455,241	-160,585	-0,020	-0,001
-454,226	800,000	-0,037	-0,114
-453,211	258,847	-0,033	-0,042
-452,197	800,000	0,049	0,111
-451,182	-164,118	-0,117	0,004
-450,168	-80,560	0,065	-0,016
-449,153	159,589	0,023	-0,023
-448,138	198,657	-0,147	-0,164
-447,124	715,432	-0,045	-0,088
-446,109	222,409	-0,028	0,033
-445,095	4,180	-0,091	-0,048
-444,080	-43,855	-0,052	-0,019
-443,065	-101,806	0,161	0,028
-442,051	-200,000	-0,024	0,108
-441,036	-200,000	0,009	0,103
-440,022	-200,000	-0,022	0,103
-439,007	293,954	0,040	0,054
-437,992	39,193	-0,042	-0,027
-436,978	800,000	0,043	-0,131
-435,963	-143,728	0,157	-0,011
-434,949	244,763	0,087	-0,107
-433,934	800,000	0,049	-0,155
-432,919	-45,116	-0,067	0,024
-431,905	402,462	-0,043	0,067
-430,890	566,459	0,060	-0,106
-429,876	502,177	0,056	0,094
-428,861	-53,432	0,130	0,043
-427,846	800,000	-0,023	0,075
-426,832	196,979	-0,052	-0,057
-425,817	800,000	0,024	-0,053
-424,803	153,954	0,073	0,072
-423,788	67,531	0,086	0,064
-422,773	-200,000	0,009	-0,095
-421,759	-57,309	0,058	0,019
-420,744	-200,000	0,026	0,096
-419,730	-101,212	0,116	0,020
-418,715	-74,295	-0,082	-0,021
-417,701	800,000	0,035	-0,100
-416,686	46,250	-0,048	-0,032
-415,671	-200,000	-0,001	0,015
-414,657	-143,137	-0,031	-0,002
-413,642	570,107	-0,079	0,141
-412,628	218,231	-0,079	0,092
-411,613	-62,197	0,024	0,007
-410,598	-200,000	-0,012	-0,088
-409,584	-125,016	0,121	0,013
-408,569	-200,000	0,006	-0,022
-407,555	-73,313	-0,066	0,017
-406,540	105,302	0,097	0,083
-405,525	-200,000	0,005	0,028
-404,511	-39,788	-0,131	0,050
-403,496	-200,000	-0,008	-0,102
-402,482	-200,000	0,000	-0,040
-401,467	-45,725	0,030	-0,011
-400,452	-200,000	0,010	0,128
-399,438	176,132	0,037	0,039
-398,423	-200,000	-0,020	0,080
-397,409	-200,000	0,004	-0,080
-396,394	800,000	-0,117	-0,245
-395,379	-155,448	0,078	0,004
-394,365	-200,000	-0,011	0,041
-393,350	-200,000	-0,005	0,036
-392,336	731,813	0,075	0,147
-391,321	-105,680	-0,156	0,025
-390,306	405,810	0,082	0,126
-389,292	-153,944	0,034	0,002
-388,277	196,271	-0,044	0,049
-387,263	-88,666	0,036	0,008
-386,248	725,432	-0,064	0,124
-385,233	229,722	-0,045	-0,054
-384,219	-95,401	-0,103	0,020
-383,204	800,000	-0,082	-0,178
-382,190	27,483	-0,101	-0,061
-381,175	3,720	-0,040	-0,021
-380,160	390,381	0,076	-0,115
-379,146	19,422	0,096	-0,056
-378,131	-17,686	0,081	0,037
-377,117	-0,419	-0,046	-0,024
-376,102	-110,859	-0,032	-0,005
-375,088	128,872	-0,096	-0,089
-374,073	-153,568	0,057	-0,003
-373,058	-200,000	-0,012	0,091
-372,044	148,320	0,029	0,028
-371,029	-111,932	-0,090	0,013
-370,015	-150,629	-0,061	0,003
-369,000	-69,880	0,046	-0,013
-367,985	-24,189	-0,080	-0,034
-366,971	-200,000	0,009	-0,034
-365,956	-35,720	-0,080	0,031
-364,942	555,007	0,049	0,086
-363,927	12,123	-0,076	0,042
-362,912	-82,991	0,141	-0,033
-361,898	-18,737	0,022	0,010
-360,883	-159,427	0,075	-0,003
-359,869	-185,566	-0,011	-0,000
-358,854	218,956	-0,051	-0,059
-357,839	-146,273	0,143	-0,009
-356,825	49,839	0,049	0,033
-355,810	800,000	-0,074	0,169
-354,796	483,589	0,008	-0,012
-353,781	184,091	0,016	-0,017
-352,766	-71,707	0,063	-0,017
-351,752	-168,335	0,098	0,003
-350,737	451,404	-0,083	0,133
-349,723	800,000	0,045	0,132
-348,708	514,180	-0,069	0,117
-347,693	-159,284	0,071	-0,003
-346,679	800,000	-0,044	-0,118
-345,664	-200,000	-0,007	-0,038
-344,650	-31,958	0,081	0,033
-343,635	-144,012	0,093	0,006
-342,620	414,143	0,077	0,120
-341,606	77,357	-0,144	0,111
-340,591	-173,239	-0,022	0,000
-339,577	124,674	0,035	-0,032
-338,562	120,868	-0,054	0,049
-337,548	725,700	-0,079	-0,152
-336,533	291,197	0,064	0,085
-335,518	800,000	-0,042	0,087
-334,504	-200,000	0,007	-0,114
-333,489	214,843	-0,066	0,076
-332,475	-106,449	-0,208	-0,033
-331,460	225,265	0,114	-0,134
-330,445	-200,000	-0,054	-0,178
-329,431	-93,633	0,117	-0,023
-328,416	-200,000	-0,004	0,093
-327,402	291,088	0,082	0,108
-326,387	800,000	-0,008	-0,022
-325,372	10,114	-0,109	0,060
-324,358	683,352	0,081	-0,154
-323,343	800,000	-0,031	-0,066
-322,329	-17,701	-0,046	-0,021
-321,314	376,314	-0,022	-0,033
-320,299	-162,331	0,188	-0,007
-319,285	-200,000	-0,018	0,112
-318,270	160,047	-0,045	-0,046
-317,256	-53,132	0,055	-0,018
-316,241	-141,026	-0,118	-0,009
-315,226	-200,000	-0,017	0,058
-314,212	29,340	0,116	-0,071
-313,197	-155,124	0,162	0,008
-312,183	-200,000	0,029	0,097
-311,168	-200,000	0,002	0,062
-310,153	-200,000	0,014	-0,051
-309,139	-179,829	-0,114	-0,002
-308,124	-200,000	-0,012	0,060
-307,110	102,067	0,071	-0,060
-306,095	800,000	0,040	-0,112
-305,080	451,316	-0,091	0,145
-304,066	54,667	0,030	-0,021
-303,051	-200,000	0,034	0,176
-302,037	-114,726	-0,097	-0,013
-301,022	31,637	0,035	0,021
-300,008	-168,763	0,042	0,001
-298,993	-135,854	0,049	-0,004
-297,978	-70,282	-0,054	0,015
-296,964	503,230	0,071	0,120
-295,949	-7,475	0,044	-0,021
-294,935	-200,000	0,011	0,100
-293,920	139,107	0,152	-0,145
-292,905	-126,869	0,091	0,010
-291,891	-200,000	-0,008	-0,101
-290,876	198,946	0,029	-0,033
-289,862	-109,278	-0,089	-0,014
-288,847	-200,000	-0,033	-0,159
-287,832	-49,148	0,047	-0,016
-286,818	-200,000	0,024	-0,110
-285,803	169,970	-0,022	0,022
-284,789	-200,000	0,008	0,076
-283,774	-59,537	-0,024	-0,007
-282,759	-200,000	-0,050	0,229
-281,745	-140,669	-0,062	-0,005
-280,730	800,000	0,024	0,053
-279,716	-200,000	0,013	0,050
-278,701	-200,000	-0,011	0,094
-277,686	-200,000	0,009	0,126
-276,672	37,524	0,092	-0,059
-275,657	27,546	-0,155	-0,094
-274,643	-23,781	-0,018	0,008
-273,628	-24,767	-0,062	0,026
-272,613	313,603	-0,134	-0,183
-271,599	464,332	0,101	-0,163
-270,584	-200,000	0,006	-0,020
-269,570	108,484	0,029	-0,025
-268,555	-200,000	-0,006	0,091
-267,540	-130,530	-0,188	-0,018
-266,526	698,772	-0,064	0,122
-265,511	-9,648	0,083	-0,040
-264,497	-200,000	0,005	-0,029
-263,482	-200,000	-0,001	0,059
-262,467	-200,000	0,025	0,136
-261,453	-200,000	0,023	0,098
-260,438	-122,535	0,058	-0,007
-259,424	-156,946	-0,180	0,008
-258,409	-200,000	0,014	-0,077
-257,395	524,701	-0,030	0,052
-256,380	-200,000	-0,039	-0,142
-255,365	-159,006	-0,111	0,004
-254,351	-200,000	-0,006	-0,097
-253,336	-88,294	0,073	-0,016
-252,322	-200,000	-0,037	-0,127
-251,307	-166,509	0,049	0,001
-250,292	-200,000	0,012	0,176
-249,278	482,718	0,026	0,043
-248,263	86,469	0,123	-0,098
-247,249	12,930	-0,094	0,052
-246,234	-200,000	-0,002	-0,035
-245,219	-11,517	-0,074	0,035
-244,205	800,000	-0,017	0,052
-243,190	103,465	0,040	-0,034
-242,176	57,039	-0,062	0,043
-241,161	-200,000	-0,007	0,091
-240,146	800,000	0,053	-0,125
-239,132	-36,840	-0,050	-0,019
-238,117	-77,675	-0,062	0,015
-237,103	49,590	-0,129	-0,088
-236,088	-200,000	0,014	-0,197
-235,073	-200,000	0,017	-0,072
-234,059	-104,108	0,104	0,017
-233,044	223,516	-0,031	-0,037
-232,030	-200,000	-0,032	-0,102
-231,015	-200,000	0,001	-0,020
-230,000	800,000	0,023	0,069
-228,986	-21,863	0,091	0,040
-227,971	165,632	-0,074	-0,076
-226,957	-19,900	0,075	-0,033
-225,942	800,000	-0,055	0,136
-224,927	-19,984	0,040	-0,018
-223,913	254,389	0,083	-0,102
-222,898	-70,381	0,044	-0,012
-221,884	-200,000	0,035	0,158
-220,869	-133,489	0,091	-0,008
-219,855	-154,764	0,025	-0,001
-218,840	504,617	-0,037	-0,063
-217,825	249,336	-0,072	0,088
-216,811	153,936	0,038	0,038
-215,796	403,285	0,065	-0,099
-214,782	800,000	-0,038	0,096
-213,767	128,700	0,085	0,078
-212,752	-75,458	0,019	0,005
-211,738	-200,000	0,009	-0,092
-210,723	534,132	-0,023	-0,040
-209,709	-200,000	0,002	0,053
-208,694	526,666	-0,078	-0,132
-207,679	-155,573	-0,026	0,001
-206,665	800,000	0,031	-0,084
-205,650	-4,688	0,054	-0,027
-204,636	-140,558	0,158	-0,012
-203,621	-59,726	0,136	0,042
-202,606	-107,741	-0,119	-0,019
-201,592	214,794	0,056	-0,064
-200,577	662,447	0,036	-0,067
-199,563	-74,366	-0,069	0,018
-198,548	-177,885	0,079	0,001
-197,533	-200,000	-0,013	0,057
-196,519	11,751	0,056	-0,031
-195,504	-191,940	0,078	0,001
-194,490	-0,386	-0,149	0,076
-193,475	581,145	0,055	0,097
-192,460	-102,157	0,102	0,018
-191,446	-31,626	0,163	0,066
-190,431	800,000	0,045	0,118
-189,417	133,455	0,064	0,060
-188,402	-200,000	-0,016	-0,137
-187,387	800,000	-0,073	-0,201
-186,373	226,232	-0,041	-0,048
-185,358	37,570	-0,142	-0,091
-184,344	-108,114	-0,079	0,012
-183,329	-200,000	-0,019	-0,074
-182,315	-200,000	-0,007	0,060
-181,300	-200,000	0,010	-0,052
-180,285	-36,659	0,102	-0,039
-179,271	-83,178	0,064	-0,015
-178,256	800,000	-0,024	-0,067
-177,242	348,841	-0,078	-0,111
-176,227	-200,000	-0,007	-0,087
-175,212	800,000	0,041	-0,082
-174,198	107,092	-0,018	-0,016
-173,183	-5,626	-0,092	0,045
-172,169	-135,162	0,031	-0,003
-171,154	297,841	-0,078	-0,103
-170,139	13,270	-0,012	-0,006
-169,125	-85,486	0,051	0,011
-168,110	800,000	-0,026	-0,078
-167,096	-200,000	-0,029	-0,127
-166,081	128,785	-0,078	-0,071
-165,066	148,124	-0,097	-0,095
-164,052	-98,689	-0,055	0,010
-163,037	127,569	0,011	-0,010
-162,023	13,306	0,141	0,078
-161,008	-61,138	0,057	-0,017
-159,993	37,504	0,033	0,021
-158,979	5,090	0,024	0,013
-157,964	-23,432	-0,182	-0,078
-156,950	-200,000	0,014	-0,046
-155,935	800,000	-0,009	0,023
-154,920	-75,836	-0,128	-0,032
-153,906	219,263	-0,026	0,030
-152,891	-200,000	0,002	-0,033
-151,877	396,149	0,041	-0,062
-150,862	-200,000	-0,006	-0,053
-149,847	-19,857	0,064	-0,028
-148,833	-94,844	0,102	-0,020
-147,818	-200,000	-0,014	-0,048
-146,804	-83,208	-0,151	0,035
-145,789	-200,000	-0,005	0,047
-144,775	-200,000	-0,022	0,082
-143,760	-200,000	-0,005	-0,149
-142,745	800,000	0,058	-0,123
-141,731	-108,426	0,088	0,014
-140,716	800,000	-0,016	-0,043
-139,702	-112,723	0,046	-0,007
-138,687	388,802	0,052	0,077
-137,672	323,271	0,013	0,018
-136,658	713,407	-0,122	-0,234
-135,643	17,143	0,036	-0,021
-134,629	-136,537	-0,058	0,005
-133,614	-200,000	0,028	0,092
-132,599	-57,846	0,104	-0,032
-131,585	-145,195	-0,123	0,008
-130,570	91,429	-0,004	-0,004
-129,556	52,290	-0,147	-0,100
-128,541	576,513	-0,025	0,045
-127,526	-200,000	0,010	-0,076
-126,512	314,605	0,040	0,054
-125,497	-123,297	-0,114	-0,013
-124,483	-9,643	0,089	-0,042
-123,468	356,366	0,013	0,019
-122,453	153,880	-0,126	-0,124
-121,439	238,460	0,060	0,071
-120,424	174,381	-0,048	0,050
-119,410	26,738	0,057	0,034
-118,395	-93,518	-0,034	-0,007
-117,380	3,155	0,159	-0,083
-116,366	19,419	0,081	0,046
-115,351	-40,847	-0,100	0,037
-114,337	-103,858	-0,132	-0,022
-113,322	800,000	-0,050	0,142
-112,307	-63,823	0,041	-0,012
-111,293	181,835	0,085	-0,090
-110,278	370,066	-0,039	-0,057
-109,264	-200,000	-0,008	0,125
-108,249	197,692	-0,084	-0,092
-107,234	-26,810	-0,082	-0,034
-106,220	-19,085	-0,104	-0,046
-105,205	193,735	-0,047	0,052
-104,191	-196,311	0,183	-0,001
-103,176	-77,118	0,099	-0,025
-102,162	-200,000	0,020	-0,128
-101,147	17,193	0,020	0,012
-100,132	-165,971	-0,165	0,005
-99,118	-200,000	0,001	0,061
-98,103	224,669	-0,104	0,121
-97,089	58,277	-0,050	-0,035
-96,074	300,831	0,055	0,073
-95,059	-200,000	-0,037	-0,128
-94,045	-20,215	-0,054	-0,024
-93,030	-200,000	-0,002	0,081
-92,016	57,329	-0,126	-0,088
-91,001	-200,000	0,015	0,088
-89,986	-200,000	-0,013	0,099
-88,972	-110,059	0,056	-0,008
-87,957	800,000	0,064	0,175
-86,943	-118,195	0,053	0,007
-85,928	-200,000	-0,037	-0,146
-84,913	304,643	0,046	0,062
-83,899	-24,787	-0,109	0,046
-82,884	479,065	0,074	0,121
-81,870	299,958	-0,020	-0,026
-80,855	-62,968	0,023	0,007
-79,840	246,446	-0,121	-0,147
-78,826	-131,394	0,147	-0,014
-77,811	-54,206	-0,105	-0,034
-76,797	100,665	-0,057	-0,048
-75,782	-89,964	0,021	-0,004
-74,767	-200,000	-0,003	0,117
-73,753	74,933	0,117	0,088
-72,738	308,960	-0,077	-0,104
-71,724	-200,000	0,007	-0,033
-70,709	274,482	-0,110	-0,141
-69,694	-164,206	-0,104	-0,003
-68,680	-29,957	-0,019	-0,008
-67,665	-200,000	0,004	0,138
-66,651	-200,000	0,018	-0,097
-65,636	143,902	-0,085	-0,082
-64,622	800,000	0,012	0,032
-63,607	376,308	-0,032	-0,047
-62,592	-200,000	0,002	-0,090
-61,578	200,185	-0,050	-0,056
-60,563	5,055	-0,082	-0,043
-59,549	52,265	-0,102	-0,070
-58,534	6,873	-2,091	-1,114
-57,519	-200,000	-0,162	-0,792
-56,505	-200,000	-1,355	-5,027
-55,490	26,292	0,820	0,490
-54,476	800,000	5,300	12,013
-53,461	-200,000	18,588	312,900
-52,446	800,000	740,478	2323,781
-51,432	557,258	1657,015	2875,942
-50,417	110,956	1640,466	1415,984
-49,403	75,215	1290,497	974,816
-48,388	30,480	1031,155	630,643
-47,373	19,974	993,722	572,950
-46,359	17,564	981,382	557,878
-45,344	14,280	977,519	544,867
-44,330	14,604	975,726	544,912
-43,315	14,015	973,986	541,984
-42,300	13,887	972,979	540,984
-41,286	13,884	972,229	540,535
-40,271	13,853	971,210	539,845
-39,257	13,895	970,408	539,515
-38,242	13,923	969,229	538,930
-37,227	13,902	968,540	538,458
-36,213	13,919	967,538	537,935
-35,198	13,902	966,632	537,353
-34,184	13,925	965,878	536,990
-33,169	13,822	965,002	536,145
-32,154	13,961	963,857	535,937
-31,140	13,931	963,122	535,413
-30,125	13,941	962,397	535,019
-29,111	13,973	961,391	534,543
-28,096	13,954	961,031	534,259
-27,082	13,912	960,260	533,675
-26,067	13,945	959,380	533,270
-25,052	13,906	958,739	532,767
-24,038	13,939	958,056	532,474
-23,023	13,873	957,505	531,934
-22,009	13,898	956,816	531,609
-20,994	13,980	956,129	531,472
-19,979	13,949	955,538	531,021
-18,965	13,982	954,680	530,631
-17,950	13,966	954,388	530,394
-16,936	13,905	953,548	529,712
-15,921	13,888	952,734	529,184
-14,906	13,812	952,194	528,618
-13,892	13,828	951,540	528,285
-12,877	13,821	950,827	527,847
-11,863	13,796	950,225	527,412
-10,848	13,830	949,505	527,099
-9,833	13,916	949,090	527,124
-8,819	13,919	948,427	526,745
-7,804	13,816	947,850	526,073
-6,790	13,796	947,491	525,791
-5,775	13,923	946,736	525,754
-4,760	13,812	946,335	525,159
-3,746	13,812	945,735	524,803
-2,731	13,731	944,968	524,101
-1,717	13,583	944,312	523,244
-0,702	13,650	943,440	522,954
0,313	13,422	942,812	522,673
1,327	16,701	940,448	531,691
2,342	25,471	795,569	473,073
3,356	21,793	460,387	268,091
4,371	-4,759	317,346	156,291
5,386	-8,877	299,165	143,116
6,400	-10,790	293,119	138,293
7,415	-10,974	290,576	136,898
8,429	-11,484	289,071	135,673
9,444	-11,452	288,182	135,275
10,459	-11,234	287,546	135,179
11,473	-11,397	286,937	134,721
12,488	-11,331	286,275	134,462
13,502	-11,392	285,877	134,204
14,517	-11,237	285,473	134,153
15,531	-11,258	284,886	133,845
16,546	-11,229	284,437	133,650
17,561	-11,487	284,234	133,292
18,575	-11,322	283,823	133,248
19,590	-11,364	283,492	133,040
20,604	-11,349	283,163	132,888
21,619	-11,317	282,715	132,697
22,634	-11,136	282,332	132,680
23,648	-11,282	282,093	132,415
24,663	-11,201	281,889	132,386
25,677	-11,284	281,499	132,111
26,692	-11,273	281,416	132,070
27,707	-11,212	280,950	131,898
28,721	-11,336	280,624	131,615
29,736	-11,291	280,399	131,541
30,750	-11,270	280,199	131,456
31,765	-11,328	279,769	131,186
32,780	-11,382	279,871	131,171
33,794	-11,318	279,456	131,026
34,809	-11,504	279,327	130,776
35,823	-11,365	279,032	130,759
36,838	-11,516	278,680	130,438
37,853	-11,401	278,423	130,416
38,867	-11,434	278,360	130,343
39,882	-11,311	278,017	130,288
40,896	-11,531	277,806	129,969
41,911	-11,317	277,463	130,000
42,926	-11,390	277,141	129,768
43,940	-11,329	276,813	129,660
44,955	-11,355	276,814	129,625
45,969	-11,417	276,459	129,388
46,984	-11,691	276,335	129,061
47,999	-11,638	275,805	128,851
49,013	-11,759	275,697	128,676
50,028	-11,941	275,288	128,303
51,042	-12,054	275,096	128,096
52,057	-11,930	274,856	128,089
53,071	-12,035	274,772	127,940
54,086	-11,758	274,466	128,045
55,101	-11,735	274,350	128,001
56,115	-11,453	274,104	128,138
57,130	-11,443	274,084	128,127
58,144	-11,020	273,803	128,379
59,159	-11,181	273,485	128,068
60,174	-11,126	273,384	128,060
61,188	-11,159	273,071	127,872
62,203	-11,282	272,973	127,700
63,217	-11,017	272,699	127,807
64,232	-11,124	272,404	127,558
65,247	-11,185	272,105	127,350
66,261	-11,431	272,093	127,105
67,276	-11,309	271,755	127,049
68,290	-11,565	271,374	126,622
69,305	-11,623	271,259	126,504
70,320	-11,653	271,029	126,358
71,334	-11,311	270,801	126,555
72,349	-11,373	270,603	126,394
73,363	-11,200	270,371	126,435
74,378	-11,198	270,226	126,357
75,393	-11,265	269,944	126,152
76,407	-11,141	269,661	126,122
77,422	-11,349	269,527	125,858
78,436	-11,043	269,253	125,999
79,451	-11,096	268,945	125,795
80,466	-11,365	268,801	125,470
81,480	-11,392	268,550	125,318
82,495	-11,524	268,441	125,135
83,509	-11,283	268,254	125,257
84,524	-11,375	268,031	125,058
85,539	-11,488	267,650	124,766
86,553	-11,613	267,645	124,639
87,568	-11,299	267,267	124,737
88,582	-11,444	267,179	124,553
89,597	-11,381	266,985	124,509
90,611	-11,321	266,843	124,486
91,626	-11,287	266,693	124,435
92,641	-11,365	266,604	124,312
93,655	-11,167	266,107	124,248
94,670	-11,644	266,054	123,782
95,684	-11,291	265,826	123,983
96,699	-11,417	265,644	123,774
97,714	-11,393	265,494	123,714
98,728	-11,262	265,042	123,610
99,743	-11,609	264,921	123,231
100,757	-11,317	264,626	123,345
101,772	-11,331	264,353	123,194
102,787	-11,461	264,262	123,024
103,801	-11,285	264,195	123,140
104,816	-11,376	263,869	122,895
105,830	-11,240	263,818	122,983
106,845	-11,216	263,525	122,857
107,860	-11,246	263,315	122,720
108,874	-11,367	263,339	122,613
109,889	-11,153	262,898	122,587
110,903	-11,208	262,669	122,421
111,918	-11,344	262,622	122,267
112,933	-11,349	262,406	122,151
113,947	-11,247	262,306	122,184
114,962	-11,320	262,017	121,973
115,976	-11,218	261,813	121,958
116,991	-11,315	261,593	121,759
118,006	-11,298	261,463	121,702
119,020	-11,010	261,307	121,874
120,035	-11,157	261,312	121,735
121,049	-11,186	260,954	121,532
122,064	-11,289	260,752	121,336
123,079	-11,154	260,491	121,323
124,093	-11,418	260,325	121,002
125,108	-11,340	260,110	120,960
126,122	-11,587	259,672	120,529
127,137	-11,626	259,511	120,409
128,151	-11,602	259,421	120,378
129,166	-11,319	259,230	120,526
130,181	-11,423	258,988	120,312
131,195	-11,728	258,868	119,978
132,210	-11,245	258,759	120,340
133,224	-11,245	258,340	120,135
134,239	-11,316	258,288	120,038
135,254	-11,295	258,198	120,003
136,268	-11,383	257,996	119,822
137,283	-11,463	257,751	119,628
138,297	-11,555	257,538	119,438
139,312	-11,611	257,200	119,222
140,327	-11,297	257,172	119,472
141,341	-11,346	257,019	119,347
142,356	-11,254	256,897	119,359
143,370	-11,188	256,595	119,266
144,385	-11,010	256,402	119,320
145,400	-10,977	256,358	119,317
146,414	-11,050	256,062	119,106
147,429	-11,246	256,062	118,926
148,443	-11,134	255,754	118,868
149,458	-11,041	255,578	118,857
150,473	-11,055	255,381	118,742
151,487	-11,232	255,219	118,504
152,502	-11,215	254,984	118,398
153,516	-10,907	254,784	118,560
154,531	-10,992	254,717	118,446
155,546	-11,178	254,390	118,123
156,560	-11,001	254,260	118,204
157,575	-11,035	253,969	118,029
158,589	-11,237	253,738	117,739
159,604	-11,257	253,691	117,689
160,619	-11,018	253,552	117,818
161,633	-11,105	253,275	117,605
162,648	-10,977	253,072	117,609
163,662	-11,095	252,959	117,446
164,677	-10,954	252,809	117,486
165,692	-11,115	252,788	117,329
166,706	-11,032	252,490	117,250
167,721	-11,058	252,385	117,169
168,735	-11,064	252,152	117,045
169,750	-10,894	251,984	117,102
170,764	-11,084	251,998	116,936
171,779	-10,886	251,662	116,938
172,794	-10,939	251,679	116,890
173,808	-11,128	251,289	116,538
174,823	-11,491	250,971	116,073
175,837	-11,682	250,812	115,828
176,852	-11,247	250,763	116,163
177,867	-11,089	250,644	116,231
178,881	-11,056	250,452	116,159
179,896	-10,920	250,221	116,156
180,910	-10,924	250,120	116,095
181,925	-10,925	250,057	116,055
182,940	-10,969	249,746	115,863
183,954	-10,980	249,459	115,710
184,969	-11,023	249,410	115,641
185,983	-11,080	249,192	115,482
186,998	-10,997	249,180	115,537
188,013	-11,126	248,870	115,274
189,027	-10,947	248,753	115,360
190,042	-10,888	248,530	115,295
191,056	-11,091	248,409	115,059
192,071	-11,127	248,248	114,944
193,086	-10,993	248,006	114,933
194,100	-10,947	247,780	114,857
195,115	-10,957	247,718	114,809
196,129	-10,897	247,423	114,712
197,144	-10,879	247,208	114,617
198,159	-10,748	246,979	114,610
199,173	-10,929	246,968	114,445
200,188	-11,074	246,869	114,268
201,202	-11,173	246,554	114,030
202,217	-11,438	246,310	113,687
203,232	-11,577	246,007	113,422
204,246	-11,016	245,994	113,870
205,261	-10,953	245,898	113,868
206,275	-11,919	245,434	112,846
207,290	-8,384	246,958	116,470
208,304	-0,012	249,623	124,719
209,319	4,403	250,755	128,969
210,334	4,641	250,804	129,182
211,348	4,888	250,714	129,331
212,363	5,069	250,576	129,399
213,377	5,108	250,555	129,409
214,392	4,916	250,422	129,168
215,407	4,736	250,031	128,805
216,421	4,932	249,741	128,808
217,436	5,052	249,841	128,947
218,450	5,043	249,645	128,827
219,465	4,991	249,411	128,652
220,480	4,702	249,187	128,285
221,494	4,739	249,052	128,235
222,509	4,815	248,751	128,131
223,523	4,747	248,464	127,916
224,538	4,184	248,471	127,443
225,553	4,483	248,363	127,623
226,567	4,622	248,144	127,614
227,582	4,706	247,865	127,528
228,596	4,499	247,769	127,297
229,611	4,112	247,662	126,912
230,626	4,130	247,392	126,777
231,640	4,293	247,248	126,825
232,655	4,480	247,184	126,936
233,669	4,333	246,847	126,630
234,684	4,209	246,712	126,448
235,699	4,674	246,604	126,763
236,713	4,905	246,499	126,886
237,728	4,408	246,300	126,366
238,742	4,227	246,115	126,112
239,757	4,008	245,960	125,842
240,772	4,312	245,824	126,010
241,786	4,532	245,685	126,107
242,801	4,206	245,579	125,775
243,815	4,240	245,435	125,718
244,830	4,510	245,244	125,828
245,844	4,672	244,964	125,806
246,859	4,394	244,856	125,513
247,874	4,175	244,661	125,224
248,888	4,380	244,518	125,306
249,903	4,512	244,503	125,394
250,917	4,479	244,423	125,315
251,932	4,767	244,172	125,409
252,947	4,462	243,944	125,033
253,961	4,493	243,612	124,877
254,976	4,588	243,536	124,904
255,990	4,634	243,478	124,900
257,005	4,438	243,355	124,668
258,020	4,362	242,992	124,409
259,034	4,399	242,946	124,405
260,049	4,554	242,778	124,432
261,063	4,237	242,628	124,089
262,078	4,141	242,648	124,011
263,093	4,384	242,259	123,996
264,107	4,532	242,042	123,993
265,122	4,333	241,909	123,755
266,136	4,435	242,011	123,877
267,151	4,590	241,889	123,928
268,166	4,322	241,545	123,526
269,180	4,288	241,347	123,387
270,195	4,683	241,456	123,747
271,209	4,970	241,305	123,889
272,224	4,521	240,929	123,326
273,239	4,086	240,683	122,842
274,253	4,307	240,545	122,937
275,268	4,110	240,543	122,768
276,282	4,359	240,248	122,805
277,297	4,246	240,023	122,589
278,312	4,221	239,942	122,516
279,326	4,360	239,868	122,579
280,341	4,246	239,846	122,466
281,355	4,189	239,602	122,285
282,370	4,426	239,510	122,415
283,384	4,453	239,257	122,296
284,399	4,197	238,991	121,946
285,414	4,164	238,901	121,864
286,428	4,170	238,702	121,756
287,443	4,386	238,700	121,915
288,457	4,563	238,515	121,949
289,472	4,793	238,419	122,071
290,487	4,621	238,061	121,741
291,501	4,304	237,985	121,442
292,516	4,077	237,759	121,137
293,530	4,078	237,705	121,099
294,545	4,426	237,595	121,306
295,560	4,269	237,475	121,111
296,574	4,221	237,043	120,842
297,589	4,228	237,005	120,817
298,603	4,742	237,167	121,292
299,618	4,845	236,727	121,137
300,633	4,673	236,780	121,019
301,647	4,650	236,741	120,970
302,662	4,905	236,526	121,049
303,676	4,669	236,363	120,770
304,691	4,595	236,142	120,589
305,706	4,828	236,012	120,693
306,720	4,772	235,998	120,632
307,735	4,717	235,653	120,402
308,749	4,435	235,516	120,102
309,764	4,348	235,358	119,943
310,779	4,218	234,953	119,625
311,793	4,014	234,847	119,402
312,808	4,362	234,702	119,587
313,822	4,180	234,531	119,349
314,837	4,056	234,394	119,172
315,852	4,046	234,329	119,121
316,866	4,173	234,254	119,171
317,881	4,280	234,023	119,125
318,895	4,297	234,013	119,122
319,910	4,496	233,809	119,161
320,925	4,711	233,611	119,216
321,939	4,410	233,347	118,839
322,954	4,498	233,484	118,965
323,968	4,384	233,358	118,803
324,983	4,533	233,147	118,800
325,997	4,674	233,008	118,826
327,012	4,759	232,850	118,801
328,027	4,367	232,739	118,432
329,041	4,854	232,587	118,718
330,056	5,172	232,488	118,901
331,070	5,017	232,525	118,790
332,085	4,955	232,178	118,554
333,100	4,657	231,955	118,202
334,114	4,437	231,754	117,922
335,129	4,594	231,824	118,066
336,143	4,972	231,747	118,306
337,158	4,727	231,514	117,989
338,173	4,743	231,129	117,794
339,187	4,281	231,216	117,477
340,202	4,618	231,029	117,627
341,216	4,450	230,810	117,378
342,231	4,541	230,590	117,325
343,246	4,398	230,500	117,160
344,260	4,606	230,408	117,260
345,275	4,857	230,292	117,381
346,289	4,870	230,052	117,258
347,304	4,935	229,899	117,219
348,319	4,880	229,845	117,139
349,333	4,745	229,577	116,891
350,348	4,318	229,423	116,479
351,362	4,607	229,184	116,565
352,377	4,509	229,059	116,417
353,392	4,112	228,882	116,018
354,406	4,091	228,825	115,963
355,421	194,635	1319,921	1392,676
356,435	156,076	1452,814	1392,643
