DTS Sentinel unit serial number:	SN410029Multiplexer serial number:	ORYXHardware model number:	OX2-SRSoftware version number:	ORYX F/W v4,00 Oryx Data Collector v3.7.2.0data status	okinstallation	B5 Nyhavnadifferential loss correction	single-endedforward channel	channel 2reverse channel	N/Adate	2023/12/12time	08:12:13forward acquisition time	300,00reverse acquisition time	0,00gamma	499,1914k internal	0,3158k external	0,3158temperature offset calibration	1,0000default loss term (dB/km)	0,3820temperature slope calibration	1,0000multiplexer offset coefficient	1,0000multiplexer slope coefficient	1,0000fibre end	0,00T internal ref (°C)	15,10T ext. ref 1 (°C)	-1,28T ext. ref 2 (°C)	-1,57length (m)	temperature (°C)	Stokes	anti-Stokes-744,400	-200,000	-0,034	-0,111
-743,385	-147,855	-0,271	-0,016
-742,371	-75,662	0,144	-0,038
-741,356	-21,144	-0,292	0,131
-740,342	379,837	0,087	0,132
-739,327	-65,670	-0,389	0,114
-738,312	176,529	0,103	0,111
-737,298	-192,655	-0,314	0,002
-736,283	-60,927	-0,065	-0,020
-735,269	182,467	-0,193	0,210
-734,254	800,000	0,024	-0,067
-733,239	-79,441	-0,431	-0,107
-732,225	153,389	0,174	0,176
-731,210	148,002	-0,026	-0,026
-730,196	446,733	0,036	-0,059
-729,181	-40,985	0,140	0,053
-728,167	-18,107	0,093	0,043
-727,152	398,519	0,057	0,088
-726,137	800,000	-0,030	0,077
-725,123	-136,731	-0,096	-0,008
-724,108	3,782	-0,161	-0,086
-723,094	46,920	0,037	0,026
-722,079	800,000	-0,051	-0,154
-721,064	800,000	-0,003	-0,010
-720,050	-200,000	-0,011	-0,119
-719,035	260,997	-0,051	-0,065
-718,021	-200,000	0,019	-0,156
-717,006	-108,224	-0,044	0,007
-715,991	344,933	0,045	-0,066
-714,977	-59,098	-0,104	-0,033
-713,962	45,607	-0,042	-0,028
-712,948	800,000	0,039	0,084
-711,933	-200,000	-0,020	0,124
-710,918	-200,000	0,016	0,063
-709,904	-200,000	-0,041	-0,212
-708,889	238,325	-0,105	-0,129
-707,875	-11,761	-0,134	-0,065
-706,860	95,272	-0,104	-0,087
-705,845	-200,000	0,027	0,099
-704,831	-23,528	0,141	-0,062
-703,816	-200,000	-0,012	-0,076
-702,802	800,000	0,026	0,057
-701,787	-20,282	0,042	-0,019
-700,772	41,044	-0,044	-0,029
-699,758	75,840	0,021	-0,016
-698,743	-200,000	0,000	0,122
-697,729	800,000	0,062	0,175
-696,714	800,000	-0,044	-0,105
-695,699	380,244	0,044	-0,066
-694,685	-3,668	-0,103	-0,053
-693,670	-15,778	0,056	-0,026
-692,656	800,000	-0,070	0,162
-691,641	200,254	0,037	0,042
-690,627	321,160	0,007	0,010
-689,612	-131,250	-0,053	-0,005
-688,597	-13,736	0,007	0,003
-687,583	52,555	0,056	-0,039
-686,568	52,437	-0,087	0,061
-685,554	86,899	-0,052	0,042
-684,539	800,000	0,099	-0,221
-683,524	134,965	-0,067	0,064
-682,510	-36,038	0,047	-0,019
-681,495	-9,049	-0,068	0,034
-680,481	293,207	-0,052	-0,070
-679,466	274,596	0,066	-0,087
-678,451	-116,519	-0,061	0,008
-677,437	-2,114	0,099	-0,051
-676,422	654,944	0,030	0,056
-675,408	505,882	-0,010	-0,016
-674,393	-200,000	-0,010	-0,075
-673,378	100,029	-0,077	-0,066
-672,364	800,000	-0,047	-0,109
-671,349	554,821	-0,010	0,018
-670,335	-74,290	-0,017	0,004
-669,320	800,000	-0,041	-0,099
-668,305	442,121	0,038	0,062
-667,291	-200,000	-0,020	-0,120
-666,276	800,000	0,045	0,101
-665,262	673,544	-0,079	-0,150
-664,247	-200,000	0,001	-0,119
-663,232	443,199	0,055	0,089
-662,218	-3,295	0,060	0,031
-661,203	-200,000	-0,012	-0,197
-660,189	679,586	-0,043	0,082
-659,174	63,546	-0,042	-0,031
-658,159	142,474	0,027	-0,027
-657,145	88,683	-0,056	-0,045
-656,130	239,655	-0,035	-0,043
-655,116	344,999	0,022	-0,032
-654,101	549,978	0,012	0,022
-653,086	82,256	0,085	0,068
-652,072	-129,988	-0,214	-0,021
-651,057	179,937	0,020	0,022
-650,043	-200,000	-0,006	0,085
-649,028	416,121	-0,066	-0,104
-648,014	-200,000	-0,004	-0,034
-646,999	151,357	0,084	0,085
-645,984	-200,000	-0,014	-0,083
-644,970	300,026	-0,083	0,113
-643,955	483,964	0,042	-0,070
-642,941	274,299	-0,089	-0,116
-641,926	-200,000	0,022	0,086
-640,911	153,493	0,008	0,008
-639,897	64,818	0,124	0,092
-638,882	-200,000	0,024	-0,078
-637,868	139,256	-0,068	-0,066
-636,853	-112,405	0,035	0,005
-635,838	59,343	-0,070	0,051
-634,824	392,599	-0,040	0,061
-633,809	-6,614	0,181	-0,090
-632,795	-18,083	-0,069	-0,032
-631,780	800,000	0,046	0,109
-630,765	-62,272	-0,102	-0,031
-629,751	-200,000	0,001	0,083
-628,736	-200,000	-0,012	0,123
-627,722	-54,018	-0,169	-0,056
-626,707	-82,645	0,063	0,015
-625,692	-200,000	0,031	0,160
-624,678	800,000	-0,050	0,104
-623,663	-66,578	0,154	-0,045
-622,649	28,090	0,042	0,026
-621,634	82,462	-0,088	-0,070
-620,619	-119,786	-0,112	0,014
-619,605	-192,653	0,085	0,001
-618,590	-17,702	0,103	0,047
-617,576	528,984	0,036	0,063
-616,561	-178,558	0,016	0,000
-615,546	-25,490	-0,125	-0,054
-614,532	623,354	-0,102	-0,190
-613,517	-16,375	0,121	0,056
-612,503	-91,703	-0,135	-0,028
-611,488	-198,174	0,047	-0,000
-610,474	-90,702	0,121	-0,025
-609,459	6,778	-0,016	0,009
-608,444	-200,000	0,021	-0,159
-607,430	-200,000	0,031	-0,162
-606,415	800,000	0,006	-0,013
-605,401	177,996	-0,082	0,088
-604,386	-200,000	0,003	-0,032
-603,371	734,004	-0,082	0,162
-602,357	4,878	0,016	0,008
-601,342	21,829	-0,082	-0,049
-600,328	-40,090	-0,118	0,045
-599,313	12,081	0,225	-0,126
-598,298	800,000	-0,013	-0,041
-597,284	323,526	0,083	-0,116
-596,269	229,763	-0,019	0,023
-595,255	-200,000	-0,007	-0,060
-594,240	-18,891	0,036	0,016
-593,225	8,452	-0,075	-0,041
-592,211	446,354	-0,015	-0,024
-591,196	173,649	-0,055	-0,058
-590,182	-200,000	0,007	-0,104
-589,167	44,551	-0,027	0,018
-588,152	800,000	-0,057	0,141
-587,138	563,774	-0,075	0,133
-586,123	285,901	-0,090	-0,119
-585,109	346,209	0,143	-0,207
-584,094	-142,771	0,111	-0,008
-583,079	800,000	-0,060	0,146
-582,065	-200,000	0,001	0,134
-581,050	420,713	0,038	0,060
-580,036	-200,000	0,001	0,092
-579,021	-109,629	-0,127	-0,019
-578,006	-48,171	-0,109	-0,038
-576,992	381,565	-0,093	-0,140
-575,977	-200,000	-0,005	-0,080
-574,963	779,915	-0,024	0,048
-573,948	567,144	-0,074	-0,132
-572,934	800,000	-0,058	0,188
-571,919	800,000	-0,062	-0,127
-570,904	-200,000	0,010	-0,111
-569,890	460,279	0,059	-0,097
-568,875	-200,000	0,011	0,085
-567,861	-200,000	0,009	-0,042
-566,846	800,000	0,055	-0,118
-565,831	-31,931	-0,009	-0,004
-564,817	-200,000	0,049	0,000
-563,802	384,089	0,056	-0,085
-562,788	727,794	0,014	-0,028
-561,773	103,268	0,021	-0,018
-560,758	-146,222	0,177	-0,011
-559,744	-56,520	-0,045	-0,015
-558,729	11,437	0,114	-0,064
-557,715	-96,102	0,117	0,023
-556,700	619,040	-0,046	0,085
-555,685	-200,000	0,005	-0,045
-554,671	-123,571	0,103	0,012
-553,656	-1,980	-0,072	0,037
-552,642	3,105	0,145	0,077
-551,627	233,992	0,048	0,058
-550,612	800,000	-0,037	-0,107
-549,598	59,727	0,052	0,038
-548,583	-200,000	0,006	-0,075
-547,569	68,135	0,078	0,058
-546,554	321,205	0,057	-0,080
-545,539	-85,783	0,110	-0,025
-544,525	-164,957	-0,038	0,001
-543,510	298,890	0,023	-0,031
-542,496	-174,586	-0,096	0,002
-541,481	-51,531	-0,141	0,048
-540,466	-132,098	0,174	0,016
-539,452	308,583	0,021	0,029
-538,437	-66,883	0,055	-0,016
-537,423	19,105	0,062	0,036
-536,408	-47,824	-0,092	-0,032
-535,393	-20,740	0,112	-0,050
-534,379	-200,000	-0,075	-0,243
-533,364	-91,194	-0,102	0,021
-532,350	-200,000	0,016	0,096
-531,335	237,553	0,011	-0,013
-530,321	800,000	0,028	0,074
-529,306	-26,421	0,113	-0,048
-528,291	-32,384	-0,108	-0,044
-527,277	800,000	0,053	0,115
-526,262	83,360	-0,070	0,056
-525,248	800,000	0,043	-0,132
-524,233	385,906	-0,066	-0,100
-523,218	-200,000	-0,009	0,077
-522,204	346,658	0,060	0,087
-521,189	105,937	-0,111	-0,096
-520,175	237,216	-0,102	-0,123
-519,160	285,886	-0,028	-0,037
-518,145	133,541	-0,086	-0,081
-517,131	666,241	-0,046	0,088
-516,116	-27,466	-0,083	0,035
-515,102	-200,000	-0,015	0,098
-514,087	-200,000	-0,018	-0,128
-513,072	-139,632	0,150	-0,012
-512,058	-200,000	-0,010	0,132
-511,043	-200,000	0,022	0,106
-510,029	-114,245	0,108	-0,015
-509,014	-4,648	0,042	0,021
-507,999	-200,000	0,011	-0,128
-506,985	571,862	-0,075	-0,133
-505,970	-200,000	-0,015	-0,133
-504,956	-200,000	-0,001	-0,094
-503,941	62,078	0,100	-0,073
-502,926	-111,031	-0,032	0,005
-501,912	323,951	-0,029	0,041
-500,897	-191,419	0,098	-0,001
-499,883	305,445	-0,010	0,014
-498,868	800,000	-0,040	-0,126
-497,853	14,191	-0,036	0,021
-496,839	594,433	-0,062	0,112
-495,824	485,583	0,072	0,120
-494,810	-86,085	-0,154	-0,035
-493,795	-200,000	0,001	-0,143
-492,781	-200,000	-0,008	-0,160
-491,766	-77,794	0,104	-0,026
-490,751	800,000	-0,021	0,059
-489,737	-7,151	-0,073	0,036
-488,722	800,000	0,046	0,112
-487,708	800,000	0,030	0,087
-486,693	20,020	-0,125	0,073
-485,678	-53,940	0,082	0,027
-484,664	-30,924	0,049	-0,020
-483,649	-90,270	-0,126	0,026
-482,635	-33,712	-0,088	0,035
-481,620	47,542	-0,006	-0,004
-480,605	71,118	-0,042	-0,032
-479,591	-200,000	-0,017	0,126
-478,576	-114,486	0,110	0,015
-477,562	305,630	-0,011	-0,015
-476,547	191,738	-0,117	-0,129
-475,532	-200,000	-0,011	-0,098
-474,518	-154,773	-0,140	-0,007
-473,503	51,395	-0,085	-0,059
-472,489	-29,207	-0,073	0,030
-471,474	40,844	0,041	0,027
-470,459	-13,942	0,042	-0,020
-469,445	90,980	-0,114	-0,094
-468,430	-144,919	-0,081	-0,005
-467,416	-160,093	0,200	0,008
-466,401	472,459	0,031	0,051
-465,386	527,658	-0,117	0,203
-464,372	-200,000	0,004	0,134
-463,357	800,000	0,031	0,069
-462,343	100,435	0,080	0,068
-461,328	800,000	-0,027	0,066
-460,313	145,058	0,025	0,024
-459,299	-200,000	-0,012	0,108
-458,284	249,371	0,072	-0,089
-457,270	357,916	0,012	0,018
-456,255	205,219	0,084	0,096
-455,241	154,361	0,104	0,104
-454,226	-200,000	0,002	0,062
-453,211	32,640	0,150	0,094
-452,197	-19,732	0,135	-0,061
-451,182	-200,000	-0,007	0,071
-450,168	-200,000	-0,041	0,147
-449,153	800,000	-0,045	0,093
-448,138	-186,315	0,068	-0,001
-447,124	210,549	-0,062	-0,072
-446,109	340,006	0,060	0,085
-445,095	-200,000	-0,001	-0,054
-444,080	-6,691	0,121	0,060
-443,065	115,234	-0,020	0,017
-442,051	-73,870	-0,154	-0,041
-441,036	202,167	0,017	0,020
-440,022	-60,356	-0,102	0,031
-439,007	554,998	0,029	-0,051
-437,992	270,767	0,078	-0,100
-436,978	28,537	0,025	0,015
-435,963	-4,227	-0,042	0,021
-434,949	45,907	0,010	-0,007
-433,934	27,499	-0,104	0,064
-432,919	800,000	0,033	0,077
-431,905	-200,000	0,022	0,080
-430,890	-200,000	-0,002	0,057
-429,876	-165,389	0,071	0,002
-428,861	521,423	-0,031	0,053
-427,846	17,737	-0,057	0,033
-426,832	-17,119	0,102	0,047
-425,817	13,776	-0,063	0,035
-424,803	12,613	-0,083	0,047
-423,788	800,000	0,057	0,129
-422,773	-200,000	0,013	-0,066
-421,759	225,679	-0,034	-0,040
-420,744	206,476	0,099	0,113
-419,730	224,846	-0,075	0,088
-418,715	800,000	0,030	-0,067
-417,701	-146,932	0,052	0,003
-416,686	-103,072	-0,083	-0,014
-415,671	14,510	-0,123	0,070
-414,657	800,000	0,059	-0,137
-413,642	-87,023	0,049	0,011
-412,628	-200,000	0,029	0,127
-411,613	-17,051	0,109	-0,050
-410,598	-46,180	-0,107	-0,038
-409,584	12,332	-0,052	0,029
-408,569	179,107	0,062	0,066
-407,555	-75,333	0,089	0,023
-406,540	555,992	0,035	-0,061
-405,525	-200,000	0,008	-0,079
-404,511	189,255	0,105	-0,115
-403,496	-200,000	-0,005	0,111
-402,482	61,359	-0,042	0,030
-401,467	-24,005	-0,110	0,048
-400,452	-36,425	-0,075	-0,029
-399,438	3,511	0,045	-0,024
-398,423	800,000	-0,063	0,158
-397,409	-174,883	-0,100	0,002
-396,394	-97,141	-0,093	-0,017
-395,379	213,140	-0,018	-0,020
-394,365	225,110	0,045	0,053
-393,350	800,000	0,005	0,013
-392,336	-114,539	0,068	0,009
-391,321	-34,324	-0,077	0,031
-390,306	247,056	-0,122	-0,151
-389,292	82,430	0,110	-0,086
-388,277	11,582	-0,063	0,035
-387,263	800,000	0,017	0,047
-386,248	800,000	-0,031	-0,064
-385,233	72,646	0,052	0,039
-384,219	25,873	0,096	-0,058
-383,204	-32,406	0,063	-0,025
-382,190	55,861	-0,009	-0,006
-381,175	800,000	0,008	-0,019
-380,160	-21,386	-0,114	-0,050
-379,146	41,644	0,071	-0,046
-378,131	-129,557	0,037	-0,004
-377,117	-200,000	0,024	0,184
-376,102	405,935	0,009	0,015
-375,088	800,000	-0,013	0,035
-374,073	-166,352	0,055	0,002
-373,058	292,146	0,053	0,070
-372,044	12,922	0,119	0,066
-371,029	800,000	-0,032	0,078
-370,015	800,000	0,033	-0,081
-369,000	133,497	-0,064	0,060
-367,985	800,000	-0,062	-0,145
-366,971	-123,590	0,074	-0,008
-365,956	-200,000	0,003	0,114
-364,942	800,000	0,028	0,083
-363,927	138,658	0,028	0,026
-362,912	80,014	0,092	-0,072
-361,898	-69,433	-0,037	-0,010
-360,883	800,000	0,011	0,024
-359,869	-169,568	-0,088	0,002
-358,854	-29,927	0,030	0,012
-357,839	82,282	0,128	0,101
-356,825	72,984	-0,111	-0,084
-355,810	104,941	-0,074	-0,063
-354,796	-200,000	0,017	-0,088
-353,781	81,105	0,047	-0,037
-352,766	166,457	-0,060	0,061
-351,752	-43,966	-0,010	0,004
-350,737	800,000	0,059	0,169
-349,723	8,487	0,015	0,008
-348,708	7,954	0,115	0,062
-347,693	75,240	-0,113	0,086
-346,679	-200,000	-0,004	0,021
-345,664	161,649	0,047	0,048
-344,650	-32,536	-0,055	0,022
-343,635	-200,000	0,019	0,069
-342,620	32,050	-0,020	0,012
-341,606	-95,002	0,078	0,015
-340,591	-200,000	0,022	-0,115
-339,577	-200,000	0,004	-0,039
-338,562	-200,000	0,007	-0,095
-337,548	-170,961	0,117	0,003
-336,533	19,307	0,098	-0,057
-335,518	-98,374	0,130	0,024
-334,504	-200,000	0,010	-0,040
-333,489	27,563	-0,070	0,043
-332,475	-192,210	0,024	0,000
-331,460	270,197	-0,036	-0,046
-330,445	-200,000	0,018	-0,094
-329,431	137,756	-0,030	0,029
-328,416	127,431	0,047	0,044
-327,402	206,121	-0,046	0,053
-326,387	800,000	0,021	0,064
-325,372	476,055	0,029	-0,048
-324,358	-168,048	-0,053	0,001
-323,343	407,769	-0,027	-0,042
-322,329	237,886	0,105	0,126
-321,314	140,507	-0,106	-0,102
-320,299	-121,787	0,124	0,015
-319,285	-100,583	-0,151	-0,027
-318,270	-200,000	-0,036	-0,221
-317,256	-200,000	0,007	-0,074
-316,241	380,325	0,025	-0,038
-315,226	-200,000	-0,014	0,071
-314,212	-200,000	0,049	0,163
-313,197	146,760	0,111	0,108
-312,183	266,266	0,127	-0,161
-311,168	-74,388	-0,111	-0,029
-310,153	25,424	0,039	-0,023
-309,139	-48,756	0,030	0,010
-308,124	-117,537	-0,067	-0,009
-307,110	262,195	0,087	-0,110
-306,095	628,607	0,025	0,045
-305,080	-200,000	-0,010	-0,050
-304,066	-200,000	-0,009	-0,059
-303,051	800,000	0,022	-0,067
-302,037	-48,129	-0,075	-0,026
-301,022	-88,086	0,077	-0,017
-300,008	-200,000	0,021	0,126
-298,993	723,924	0,062	-0,120
-297,978	200,320	0,119	-0,133
-296,964	175,610	-0,054	0,057
-295,949	77,673	-0,099	-0,077
-294,935	-200,000	-0,021	-0,187
-293,920	19,506	-0,088	-0,051
-292,905	-71,791	0,050	-0,013
-291,891	178,777	-0,059	0,062
-290,876	800,000	0,045	0,141
-289,862	210,519	-0,024	0,027
-288,847	244,547	0,032	0,039
-287,832	57,652	-0,096	0,068
-286,818	275,725	-0,025	-0,033
-285,803	-9,344	0,108	-0,052
-284,789	-127,054	0,036	-0,004
-283,774	344,671	0,022	-0,031
-282,759	556,690	-0,018	-0,032
-281,745	80,662	0,100	-0,078
-280,730	-160,673	-0,145	-0,005
-279,716	123,253	0,069	0,063
-278,701	36,787	0,093	-0,059
-277,686	-24,794	-0,147	-0,063
-276,672	479,610	0,087	0,143
-275,657	36,611	-0,092	-0,059
-274,643	228,282	-0,105	-0,124
-273,628	58,409	0,089	0,063
-272,613	-18,915	0,125	0,056
-271,599	144,016	0,036	-0,035
-270,584	84,326	-0,067	-0,053
-269,570	513,881	0,045	0,077
-268,555	-105,604	-0,072	0,012
-267,540	-200,000	-0,017	0,067
-266,526	640,661	-0,050	-0,093
-265,511	-43,609	-0,061	0,022
-264,497	351,190	0,032	0,045
-263,482	50,340	0,050	0,034
-262,467	800,000	-0,029	-0,062
-261,453	-200,000	0,001	0,003
-260,438	546,202	-0,030	0,051
-259,424	133,283	-0,043	-0,040
-258,409	269,975	-0,058	0,074
-257,395	346,861	-0,027	-0,038
-256,380	115,124	-0,085	-0,075
-255,365	57,939	0,112	-0,079
-254,351	16,138	0,103	0,058
-253,336	72,583	-0,167	-0,126
-252,322	33,320	0,050	-0,032
-251,307	76,770	-0,015	-0,011
-250,292	-200,000	-0,002	0,007
-249,278	-200,000	0,045	-0,152
-248,263	468,580	-0,075	-0,122
-247,249	-183,928	0,096	-0,001
-246,234	27,376	-0,107	-0,065
-245,219	-106,039	-0,063	-0,010
-244,205	571,238	0,032	0,056
-243,190	-37,633	0,063	0,024
-242,176	-200,000	-0,002	-0,013
-241,161	248,244	0,081	-0,100
-240,146	375,998	0,023	-0,035
-239,132	-200,000	-0,011	-0,106
-238,117	15,170	-0,111	-0,063
-237,103	39,311	-0,018	0,012
-236,088	-200,000	-0,014	-0,129
-235,073	-200,000	-0,014	-0,170
-234,059	290,510	-0,067	0,089
-233,044	-200,000	-0,019	0,197
-232,030	800,000	-0,017	0,053
-231,015	-200,000	-0,057	-0,204
-230,000	-114,249	0,059	-0,008
-228,986	649,246	-0,038	-0,071
-227,971	439,053	0,042	0,066
-226,957	-200,000	0,007	-0,035
-225,942	-200,000	-0,014	0,122
-224,927	183,412	-0,070	-0,075
-223,913	68,578	-0,191	-0,141
-222,898	-200,000	0,037	-0,137
-221,884	-200,000	-0,013	-0,108
-220,869	-163,703	0,102	-0,003
-219,855	-29,415	-0,047	0,019
-218,840	-5,648	0,107	0,053
-217,825	-200,000	0,016	0,087
-216,811	-200,000	0,009	-0,042
-215,796	421,021	-0,015	-0,024
-214,782	-44,022	0,075	-0,027
-213,767	-200,000	-0,009	0,040
-212,752	-200,000	-0,016	0,104
-211,738	416,282	0,070	-0,108
-210,723	-139,757	-0,101	0,008
-209,709	-25,785	-0,087	0,037
-208,694	38,888	-0,101	-0,065
-207,679	-183,989	0,062	-0,001
-206,665	191,958	-0,085	0,092
-205,650	-200,000	0,028	0,094
-204,636	97,389	0,138	0,115
-203,621	800,000	0,058	0,164
-202,606	-200,000	-0,013	0,048
-201,592	333,678	0,090	-0,126
-200,577	-57,106	-0,135	0,043
-199,563	208,189	0,077	0,087
-198,548	-166,641	0,149	0,004
-197,533	-49,419	-0,074	-0,025
-196,519	800,000	-0,051	0,130
-195,504	650,131	-0,070	-0,130
-194,490	-200,000	-0,017	0,066
-193,475	487,855	-0,057	0,095
-192,460	-37,364	0,065	0,025
-191,446	451,681	0,015	0,024
-190,431	800,000	0,010	0,030
-189,417	800,000	0,040	0,119
-188,402	-46,322	-0,111	-0,039
-187,387	250,249	-0,086	0,105
-186,373	-116,317	-0,076	-0,010
-185,358	15,295	0,042	0,023
-184,344	41,632	0,024	0,015
-183,329	-200,000	-0,008	0,069
-182,315	-172,816	0,047	-0,001
-181,300	-6,579	-0,033	-0,016
-180,285	336,179	-0,058	-0,082
-179,271	-119,329	0,092	0,011
-178,256	115,297	0,053	-0,047
-177,242	-200,000	0,011	-0,042
-176,227	800,000	-0,025	-0,061
-175,212	77,635	-0,074	0,057
-174,198	333,584	-0,057	0,079
-173,183	-48,796	-0,068	-0,024
-172,169	-20,835	-0,115	-0,050
-171,154	-200,000	-0,036	0,170
-170,139	72,463	0,119	0,089
-169,125	44,649	0,088	0,058
-168,110	196,155	0,060	0,065
-167,096	2,110	0,021	0,011
-166,081	-24,043	-0,019	-0,008
-165,066	800,000	-0,022	-0,066
-164,052	-8,269	-0,065	-0,031
-163,037	61,367	0,029	-0,021
-162,023	121,005	-0,030	0,027
-161,008	351,679	0,040	-0,057
-159,993	-121,479	-0,082	0,010
-158,979	163,427	-0,077	0,078
-157,964	-200,000	0,003	0,084
-156,950	-169,049	-0,112	0,003
-155,935	14,127	-0,048	0,027
-154,920	-200,000	0,006	-0,040
-153,906	-34,426	0,101	-0,040
-152,891	800,000	0,028	0,086
-151,877	739,600	-0,065	-0,127
-150,862	-154,467	-0,130	0,006
-149,847	-200,000	-0,005	-0,018
-148,833	-200,000	-0,010	-0,061
-147,818	-124,777	0,027	0,003
-146,804	115,273	-0,059	0,052
-145,789	82,672	0,047	0,037
-144,775	-64,442	0,024	-0,007
-143,760	619,999	0,004	0,007
-142,745	-200,000	0,000	0,014
-141,731	-157,043	-0,114	0,005
-140,716	575,914	0,076	0,135
-139,702	-114,158	-0,073	0,010
-138,687	233,770	0,068	0,081
-137,672	160,843	-0,026	-0,026
-136,658	-153,549	-0,069	0,003
-135,643	-200,000	-0,021	-0,068
-134,629	-200,000	0,012	-0,042
-133,614	13,548	0,031	-0,017
-132,599	-200,000	-0,013	-0,057
-131,585	-141,962	0,056	-0,004
-130,570	-37,969	-0,045	-0,017
-129,556	-42,313	0,047	-0,017
-128,541	-112,383	0,116	-0,017
-127,526	-161,101	0,086	-0,003
-126,512	-112,448	0,118	0,017
-125,497	-200,000	-0,003	-0,090
-124,483	156,382	-0,017	0,017
-123,468	-28,087	0,032	0,013
-122,453	-102,695	-0,199	-0,034
-121,439	-68,433	0,086	0,024
-120,424	800,000	-0,048	-0,129
-119,410	-200,000	0,007	-0,140
-118,395	800,000	-0,032	0,079
-117,380	800,000	0,022	0,069
-116,366	-14,328	0,082	0,038
-115,351	800,000	0,009	0,029
-114,337	-151,946	-0,163	-0,008
-113,322	29,440	0,075	0,046
-112,307	121,524	0,156	0,140
-111,293	800,000	0,037	0,095
-110,278	346,613	0,066	0,094
-109,264	800,000	-0,012	0,037
-108,249	-200,000	-0,011	-0,044
-107,234	800,000	-0,054	-0,139
-106,220	760,027	-0,034	0,067
-105,205	-113,597	0,118	-0,016
-104,191	131,746	0,073	0,068
-103,176	155,784	0,121	0,120
-102,162	44,342	-0,144	0,095
-101,147	-200,000	-0,020	-0,069
-100,132	64,779	-0,068	0,049
-99,118	48,865	-0,070	-0,047
-98,103	7,508	0,141	-0,075
-97,089	471,643	0,094	-0,152
-96,074	148,687	-0,019	0,019
-95,059	275,782	0,039	-0,050
-94,045	145,071	0,127	0,122
-93,030	270,369	0,029	-0,037
-92,016	-83,651	-0,163	0,037
-91,001	-29,796	-0,102	-0,041
-89,986	120,097	0,085	0,076
-88,972	86,071	-0,054	0,043
-87,957	-28,427	-0,080	0,033
-86,943	-70,276	-0,035	0,009
-85,928	-25,496	-0,057	-0,024
-84,913	-32,196	-0,088	0,035
-83,899	135,328	0,052	0,049
-82,884	1,261	-0,056	0,029
-81,870	273,685	0,098	0,125
-80,855	95,153	0,061	-0,050
-79,840	345,704	0,051	-0,072
-78,826	377,359	-0,072	-0,107
-77,811	-5,216	0,066	0,032
-76,797	256,749	-0,089	-0,110
-75,782	-200,000	-0,011	-0,080
-74,767	-110,623	-0,058	0,008
-73,753	-82,322	-0,110	0,026
-72,738	147,358	-0,125	0,120
-71,724	-200,000	-0,002	-0,066
-70,709	-15,440	-0,170	-0,077
-69,694	440,471	0,085	-0,135
-68,680	-200,000	0,061	0,226
-67,665	309,089	0,031	0,041
-66,651	800,000	0,025	0,057
-65,636	800,000	-0,021	0,050
-64,622	-200,000	0,008	-0,036
-63,607	516,154	-0,084	-0,141
-62,592	559,541	0,111	0,194
-61,578	350,751	0,083	0,119
-60,563	-68,057	-0,043	0,012
-59,549	-175,129	-0,138	-0,003
-58,534	2,250	-1,961	-1,015
-57,519	-200,000	-0,148	-0,826
-56,505	-200,000	-1,281	-4,956
-55,490	11,965	0,868	0,478
-54,476	800,000	5,294	12,144
-53,461	-200,000	17,743	286,616
-52,446	800,000	729,019	2225,706
-51,432	536,832	1645,031	2814,236
-50,417	109,741	1635,150	1406,609
-49,403	75,810	1286,871	975,166
-48,388	31,911	1027,313	633,619
-47,373	20,143	989,063	571,237
-46,359	18,352	976,922	558,335
-45,344	15,386	973,075	546,412
-44,330	15,661	971,481	546,392
-43,315	15,140	969,581	543,601
-42,300	15,063	968,419	542,677
-41,286	15,111	967,573	542,338
-40,271	15,105	966,530	541,713
-39,257	15,146	965,505	541,250
-38,242	15,078	964,787	540,605
-37,227	15,188	963,772	540,373
-36,213	15,191	962,965	539,909
-35,198	15,082	962,255	539,134
-34,184	15,168	961,350	538,884
-33,169	15,015	960,480	537,883
-32,154	15,126	959,543	537,694
-31,140	15,113	958,587	537,094
-30,125	15,159	957,897	536,835
-29,111	15,148	957,058	536,308
-28,096	15,110	956,621	535,920
-27,082	15,178	955,685	535,593
-26,067	15,160	954,926	535,089
-25,052	15,091	954,281	534,484
-24,038	15,123	953,621	534,196
-23,023	15,102	953,105	533,818
-22,009	15,162	952,328	533,555
-20,994	15,214	951,514	533,244
-19,979	15,149	950,986	532,718
-18,965	15,110	950,359	532,223
-17,950	15,123	949,739	531,894
-16,936	15,104	949,119	531,466
-15,921	15,128	948,307	531,065
-14,906	15,002	947,673	530,287
-13,892	15,109	946,902	530,177
-12,877	14,989	946,440	529,514
-11,863	15,045	945,695	529,257
-10,848	15,058	945,248	529,025
-9,833	15,142	944,589	528,903
-8,819	15,111	944,034	528,472
-7,804	15,004	943,590	527,863
-6,790	14,992	942,936	527,438
-5,775	15,043	942,430	527,297
-4,760	15,002	941,932	526,867
-3,746	15,099	940,949	526,604
-2,731	14,907	940,308	525,617
-1,717	14,811	939,993	525,116
-0,702	14,851	939,132	524,741
0,313	14,627	938,547	524,497
1,327	17,969	936,307	533,723
2,342	27,087	793,350	476,364
3,356	23,805	458,624	270,342
4,371	-3,520	314,552	156,358
5,386	-7,565	296,435	143,244
6,400	-9,546	290,449	138,370
7,415	-9,954	287,795	136,692
8,429	-10,209	286,320	135,729
9,444	-10,294	285,448	135,221
10,459	-10,232	284,925	135,021
11,473	-10,294	284,278	134,642
12,488	-10,187	283,631	134,428
13,502	-10,256	283,232	134,160
14,517	-10,061	282,840	134,151
15,531	-10,280	282,445	133,740
16,546	-9,972	281,703	133,673
17,561	-9,955	281,501	133,582
18,575	-10,013	281,092	133,320
19,590	-10,085	280,812	133,106
20,604	-10,072	280,619	133,015
21,619	-10,165	280,266	132,747
22,634	-10,145	279,697	132,485
23,648	-10,137	279,620	132,444
24,663	-10,164	279,138	132,178
25,677	-10,253	278,973	132,003
26,692	-9,984	278,614	132,078
27,707	-10,104	278,382	131,842
28,721	-10,249	278,176	131,596
29,736	-9,985	277,813	131,662
30,750	-10,135	277,544	131,381
31,765	-10,228	277,294	131,163
32,780	-10,142	277,196	131,186
33,794	-10,272	276,885	130,904
34,809	-10,226	276,591	130,797
35,823	-10,157	276,291	130,708
36,838	-10,033	275,997	130,675
37,853	-10,074	275,791	130,527
38,867	-10,167	275,574	130,326
39,882	-10,089	275,402	130,305
40,896	-10,104	275,202	130,185
41,911	-10,091	274,778	129,985
42,926	-10,223	274,755	129,840
43,940	-10,137	274,235	129,662
44,955	-10,256	274,172	129,510
45,969	-10,224	273,900	129,399
46,984	-10,390	273,660	129,120
47,999	-10,808	273,446	128,617
49,013	-10,805	273,100	128,445
50,028	-10,621	272,783	128,456
51,042	-10,924	272,726	128,136
52,057	-10,898	272,303	127,951
53,071	-10,889	272,218	127,908
54,086	-10,640	271,857	127,956
55,101	-10,464	271,862	128,111
56,115	-10,412	271,725	128,083
57,130	-10,099	271,444	128,229
58,144	-9,983	271,193	128,206
59,159	-9,928	271,002	128,154
60,174	-9,960	270,821	128,029
61,188	-10,136	270,648	127,773
62,203	-10,135	270,484	127,685
63,217	-10,125	270,318	127,605
64,232	-10,055	270,069	127,540
65,247	-10,181	269,783	127,278
66,261	-10,132	269,609	127,229
67,276	-10,078	269,233	127,090
68,290	-10,332	269,058	126,763
69,305	-10,419	268,715	126,511
70,320	-10,214	268,419	126,548
71,334	-10,078	268,356	126,631
72,349	-10,203	268,189	126,426
73,363	-9,985	267,947	126,500
74,378	-10,004	267,867	126,434
75,393	-10,114	267,508	126,153
76,407	-10,049	267,359	126,130
77,422	-10,100	267,055	125,929
78,436	-10,018	266,869	125,905
79,451	-10,114	266,697	125,726
80,466	-10,093	266,364	125,576
81,480	-10,080	266,024	125,417
82,495	-10,145	266,030	125,349
83,509	-10,296	265,913	125,147
84,524	-10,262	265,647	125,041
85,539	-10,446	265,295	124,699
86,553	-10,358	265,091	124,671
87,568	-10,272	264,983	124,686
88,582	-10,384	264,859	124,516
89,597	-10,252	264,555	124,481
90,611	-10,183	264,277	124,401
91,626	-9,958	264,227	124,567
92,641	-9,981	264,038	124,447
93,655	-10,128	263,771	124,178
94,670	-10,135	263,561	124,062
95,684	-10,116	263,382	123,984
96,699	-10,000	263,160	123,972
97,714	-10,154	262,889	123,696
98,728	-10,214	262,721	123,553
99,743	-10,313	262,443	123,322
100,757	-10,455	262,307	123,121
101,772	-10,317	262,014	123,095
102,787	-10,103	261,861	123,203
103,801	-10,285	261,839	123,019
104,816	-10,201	261,549	122,947
105,830	-10,061	261,391	122,986
106,845	-9,989	261,339	123,014
107,860	-9,927	260,927	122,864
108,874	-9,882	260,593	122,735
109,889	-10,106	260,503	122,485
110,903	-10,165	260,316	122,334
111,918	-10,109	260,243	122,337
112,933	-9,865	259,836	122,350
113,947	-10,070	259,852	122,166
114,962	-9,936	259,476	122,097
115,976	-10,030	259,364	121,950
116,991	-10,162	259,212	121,752
118,006	-10,044	258,946	121,720
119,020	-10,087	258,898	121,649
120,035	-9,899	258,835	121,773
121,049	-10,002	258,586	121,555
122,064	-10,050	258,479	121,452
123,079	-10,059	258,158	121,282
124,093	-10,206	257,992	121,065
125,108	-10,233	257,628	120,860
126,122	-10,512	257,516	120,553
127,137	-10,479	257,225	120,435
128,151	-10,522	257,102	120,329
129,166	-10,350	256,924	120,384
130,181	-10,537	256,627	120,072
131,195	-10,467	256,580	120,101
132,210	-9,964	256,394	120,439
133,224	-10,026	256,105	120,239
134,239	-10,128	256,016	120,098
135,254	-10,167	255,872	119,986
136,268	-10,169	255,629	119,860
137,283	-10,376	255,319	119,525
138,297	-10,286	254,995	119,440
139,312	-10,408	254,789	119,228
140,327	-10,227	254,768	119,363
141,341	-9,903	254,612	119,558
142,356	-10,005	254,595	119,452
143,370	-9,959	254,310	119,347
144,385	-9,819	254,067	119,343
145,400	-9,782	253,873	119,273
146,414	-9,796	253,818	119,224
147,429	-9,803	253,469	119,044
148,443	-9,880	253,543	119,002
149,458	-9,886	253,307	118,876
150,473	-9,864	253,110	118,791
151,487	-9,952	252,896	118,605
152,502	-9,989	252,708	118,475
153,516	-9,939	252,545	118,430
154,531	-9,850	252,360	118,409
155,546	-10,107	252,315	118,158
156,560	-9,955	251,991	118,125
157,575	-9,975	251,773	117,996
158,589	-9,926	251,488	117,893
159,604	-9,792	251,257	117,888
160,619	-10,007	251,300	117,716
161,633	-9,935	251,114	117,679
162,648	-9,918	250,887	117,577
163,662	-9,781	250,616	117,555
164,677	-9,670	250,490	117,579
165,692	-9,985	250,424	117,271
166,706	-9,743	250,102	117,314
167,721	-9,808	249,938	117,172
168,735	-9,777	249,927	117,182
169,750	-9,850	249,820	117,061
170,764	-9,795	249,575	116,981
171,779	-9,856	249,395	116,835
172,794	-9,714	249,197	116,851
173,808	-9,977	249,100	116,574
174,823	-10,245	248,712	116,158
175,837	-10,474	248,649	115,926
176,852	-9,943	248,453	116,269
177,867	-10,041	248,519	116,207
178,881	-9,951	248,248	116,146
179,896	-9,796	248,046	116,171
180,910	-9,901	247,992	116,047
181,925	-9,858	247,674	115,923
182,940	-9,845	247,639	115,908
183,954	-9,822	247,433	115,820
184,969	-9,849	247,151	115,655
185,983	-9,906	247,089	115,568
186,998	-9,745	246,887	115,598
188,013	-9,865	246,683	115,392
189,027	-9,821	246,567	115,365
190,042	-9,839	246,417	115,269
191,056	-9,879	246,067	115,062
192,071	-9,778	245,949	115,080
193,086	-9,995	245,883	114,859
194,100	-9,852	245,581	114,826
195,115	-9,667	245,464	114,914
196,129	-9,818	245,272	114,689
197,144	-9,765	245,088	114,636
198,159	-9,925	244,992	114,450
199,173	-9,994	244,669	114,232
200,188	-9,935	244,594	114,235
201,202	-10,111	244,266	113,928
202,217	-10,381	244,121	113,628
203,232	-10,254	243,713	113,532
204,246	-10,108	243,812	113,688
205,261	-9,596	243,729	114,059
206,275	-10,264	243,413	113,354
207,290	-6,741	244,853	116,913
208,304	0,103	247,081	123,635
209,319	3,192	247,844	126,564
210,334	3,840	247,769	127,050
211,348	4,001	247,870	127,224
212,363	4,301	247,523	127,282
213,377	4,457	247,403	127,337
214,392	4,385	247,258	127,192
215,407	4,033	247,099	126,809
216,421	4,072	246,955	126,756
217,436	4,384	246,742	126,892
218,450	4,668	246,642	127,063
219,465	4,322	246,441	126,664
220,480	3,897	246,308	126,235
221,494	4,009	246,151	126,235
222,509	3,961	245,875	126,043
223,523	3,769	245,691	125,780
224,538	3,593	245,382	125,467
225,553	3,715	245,375	125,552
226,567	3,925	245,232	125,639
227,582	3,921	245,088	125,551
228,596	3,888	244,846	125,389
229,611	3,449	244,757	124,974
230,626	3,489	244,495	124,861
231,640	3,737	244,455	125,032
232,655	3,737	244,255	124,918
233,669	3,848	244,024	124,880
234,684	3,499	243,908	124,526
235,699	3,905	243,954	124,867
236,713	3,965	243,774	124,813
237,728	3,660	243,407	124,367
238,742	3,684	243,113	124,225
239,757	3,568	242,979	124,052
240,772	3,734	242,888	124,129
241,786	3,732	242,780	124,061
242,801	3,674	242,546	123,883
243,815	3,546	242,465	123,728
244,830	3,964	242,279	123,958
245,844	3,958	242,172	123,887
246,859	3,632	242,115	123,585
247,874	3,691	241,827	123,475
248,888	3,641	241,638	123,327
249,903	3,648	241,649	123,327
250,917	3,749	241,517	123,330
251,932	3,936	241,299	123,358
252,947	4,023	241,036	123,281
253,961	3,686	240,879	122,920
254,976	3,624	240,826	122,833
255,990	3,749	240,850	122,934
257,005	3,661	240,354	122,600
258,020	3,419	240,166	122,300
259,034	3,476	240,068	122,284
260,049	3,958	239,961	122,603
261,063	3,540	239,888	122,222
262,078	3,452	239,672	122,031
263,093	3,935	239,525	122,330
264,107	3,990	239,460	122,329
265,122	3,816	239,228	122,061
266,136	3,701	239,190	121,940
267,151	3,952	239,075	122,070
268,166	3,712	238,684	121,669
269,180	3,490	238,653	121,467
270,195	4,135	238,545	121,911
271,209	4,333	238,566	122,068
272,224	3,825	238,136	121,436
273,239	3,373	237,917	120,956
274,253	3,631	237,638	121,007
275,268	3,798	237,621	121,119
276,282	3,700	237,488	120,963
277,297	3,263	237,341	120,534
278,312	3,473	237,306	120,670
279,326	3,855	237,149	120,880
280,341	3,728	236,972	120,680
281,355	3,757	236,948	120,679
282,370	3,994	236,748	120,753
283,384	3,719	236,471	120,385
284,399	3,470	236,452	120,169
285,414	3,583	236,095	120,066
286,428	3,758	235,919	120,102
287,443	3,685	235,833	119,991
288,457	3,657	235,814	119,949
289,472	3,782	235,708	119,982
290,487	3,847	235,353	119,841
291,501	3,646	235,139	119,565
292,516	3,328	235,022	119,247
293,530	3,363	234,917	119,210
294,545	3,614	234,937	119,405
295,560	3,914	234,757	119,536
296,574	3,436	234,473	119,010
297,589	3,503	234,396	119,012
298,603	3,876	234,257	119,220
299,618	4,075	234,088	119,278
300,633	3,961	233,935	119,101
301,647	3,843	233,967	119,015
302,662	4,067	233,880	119,133
303,676	4,143	233,519	118,998
304,691	4,006	233,434	118,838
305,706	4,152	233,272	118,858
306,720	3,901	233,350	118,693
307,735	3,783	233,074	118,451
308,749	3,882	232,791	118,373
309,764	3,522	232,637	118,007
310,779	3,672	232,342	117,962
311,793	3,247	232,298	117,603
312,808	3,279	232,087	117,510
313,822	3,390	231,911	117,495
314,837	3,313	231,722	117,331
315,852	3,451	231,611	117,369
316,866	3,788	231,479	117,550
317,881	4,043	231,372	117,679
318,895	3,984	231,311	117,593
319,910	4,031	231,218	117,571
320,925	3,787	230,855	117,190
321,939	3,504	230,669	116,870
322,954	3,309	230,747	116,750
323,968	3,671	230,520	116,900
324,983	3,693	230,554	116,924
325,997	3,936	230,343	116,992
327,012	3,652	230,164	116,675
328,027	3,416	229,882	116,342
329,041	3,555	229,928	116,461
330,056	4,217	229,931	116,954
331,070	4,484	229,765	117,062
332,085	3,963	229,651	116,598
333,100	3,870	229,386	116,383
334,114	3,775	229,165	116,188
335,129	3,858	229,060	116,188
336,143	4,273	228,759	116,338
337,158	4,117	228,802	116,232
338,173	4,017	228,563	116,025
339,187	3,989	228,349	115,884
340,202	4,062	228,338	115,923
341,216	3,983	228,072	115,719
342,231	3,615	227,980	115,385
343,246	3,902	227,734	115,466
344,260	3,941	227,646	115,440
345,275	4,332	227,692	115,746
346,289	4,174	227,462	115,501
347,304	4,239	227,371	115,493
348,319	4,203	227,229	115,384
349,333	3,975	227,002	115,088
350,348	3,807	226,777	114,838
351,362	3,836	226,778	114,849
352,377	3,626	226,466	114,524
353,392	3,433	226,345	114,309
354,406	3,601	226,143	114,322
355,421	195,108	1322,566	1397,989
356,435	156,375	1456,142	1397,981
