DTS Sentinel unit serial number:	SN410029Multiplexer serial number:	ORYXHardware model number:	OX2-SRSoftware version number:	ORYX F/W v4,00 Oryx Data Collector v3.7.2.0data status	okinstallation	B5 Nyhavnadifferential loss correction	single-endedforward channel	channel 2reverse channel	N/Adate	2023/12/12time	16:17:13forward acquisition time	300,00reverse acquisition time	0,00gamma	499,1914k internal	0,3156k external	0,3156temperature offset calibration	1,0000default loss term (dB/km)	0,3820temperature slope calibration	1,0000multiplexer offset coefficient	1,0000multiplexer slope coefficient	1,0000fibre end	0,00T internal ref (°C)	15,87T ext. ref 1 (°C)	-0,62T ext. ref 2 (°C)	-0,95length (m)	temperature (°C)	Stokes	anti-Stokes-744,400	-200,000	0,000	-0,054
-743,385	-167,929	-0,286	0,008
-742,371	-63,111	0,087	0,026
-741,356	-4,581	-0,265	0,135
-740,342	800,000	0,061	0,143
-739,327	-20,795	-0,235	-0,106
-738,312	52,787	0,057	-0,040
-737,298	-71,599	-0,297	-0,081
-736,283	306,100	0,120	-0,165
-735,269	-75,567	-0,362	0,094
-734,254	201,741	0,090	0,103
-733,239	-80,568	-0,463	-0,113
-732,225	23,337	0,090	0,055
-731,210	-106,926	0,058	-0,009
-730,196	543,096	0,056	-0,100
-729,181	73,176	-0,062	-0,048
-728,167	-200,000	0,007	-0,113
-727,152	435,391	-0,028	0,044
-726,137	800,000	-0,060	0,158
-725,123	-200,000	0,003	-0,107
-724,108	-200,000	-0,016	-0,132
-723,094	130,480	-0,082	-0,077
-722,079	-200,000	0,026	-0,091
-721,064	-25,939	-0,091	-0,039
-720,050	800,000	0,025	0,059
-719,035	98,844	0,045	0,039
-718,021	800,000	0,026	-0,078
-717,006	70,561	-0,074	-0,056
-715,991	-200,000	-0,066	-0,224
-714,977	-200,000	-0,031	-0,161
-713,962	295,100	-0,033	0,045
-712,948	554,690	0,052	0,093
-711,933	420,229	-0,030	0,048
-710,918	-171,737	-0,064	0,002
-709,904	800,000	-0,092	-0,208
-708,889	328,411	0,033	-0,046
-707,875	-200,000	0,007	0,132
-706,860	27,112	-0,077	0,047
-705,845	24,265	0,063	-0,038
-704,831	-200,000	0,006	-0,059
-703,816	395,033	-0,040	0,062
-702,802	204,588	-0,049	0,056
-701,787	-58,717	-0,043	-0,014
-700,772	-78,308	-0,111	0,028
-699,758	-128,993	-0,096	-0,010
-698,743	12,298	0,085	0,048
-697,729	519,649	-0,091	0,158
-696,714	-200,000	0,025	0,116
-695,699	-63,700	0,074	-0,022
-694,685	416,272	-0,075	-0,118
-693,670	94,239	-0,082	-0,069
-692,656	-81,212	0,086	0,021
-691,641	19,736	0,059	0,035
-690,627	-32,840	0,111	-0,045
-689,612	76,360	-0,033	0,026
-688,597	800,000	-0,025	-0,067
-687,583	-21,016	-0,116	-0,052
-686,568	125,636	-0,101	-0,094
-685,554	-86,371	0,078	-0,018
-684,539	585,481	-0,041	-0,075
-683,524	-54,933	0,015	0,005
-682,510	-200,000	-0,030	0,151
-681,495	8,160	0,103	0,057
-680,481	43,995	-0,075	0,050
-679,466	800,000	0,042	-0,104
-678,451	513,118	-0,015	-0,025
-677,437	-200,000	0,033	-0,155
-676,422	-200,000	0,026	0,100
-675,408	-55,828	0,051	-0,017
-674,393	-200,000	-0,004	0,018
-673,378	-200,000	-0,013	-0,072
-672,364	-200,000	-0,033	-0,123
-671,349	563,804	0,041	-0,073
-670,335	-99,823	-0,085	0,015
-669,320	-200,000	-0,011	0,067
-668,305	397,006	-0,034	0,053
-667,291	-179,604	-0,059	0,001
-666,276	-117,947	-0,121	0,016
-665,262	284,148	-0,078	-0,103
-664,247	38,846	0,071	0,046
-663,232	41,321	0,105	-0,070
-662,218	-200,000	-0,007	0,091
-661,203	2,452	-0,053	0,028
-660,189	-200,000	-0,010	-0,087
-659,174	105,783	-0,058	-0,051
-658,159	-48,172	-0,085	0,030
-657,145	-95,540	-0,090	-0,018
-656,130	-200,000	-0,019	0,133
-655,116	-200,000	0,105	0,000
-654,101	-200,000	0,033	0,114
-653,086	7,432	-0,044	-0,024
-652,072	15,906	0,074	0,043
-651,057	-139,890	0,088	0,007
-650,043	-27,688	-0,132	0,056
-649,028	214,922	0,058	0,068
-648,014	-100,023	0,177	0,032
-646,999	129,141	-0,043	-0,040
-645,984	311,804	-0,009	0,013
-644,970	304,512	-0,111	-0,152
-643,955	-156,135	-0,161	-0,007
-642,941	299,717	-0,017	0,024
-641,926	202,386	-0,028	0,032
-640,911	-123,443	0,033	-0,004
-639,897	-200,000	0,006	0,056
-638,882	-200,000	0,020	-0,083
-637,868	24,524	-0,023	0,014
-636,853	-104,200	-0,141	-0,024
-635,838	26,735	-0,073	0,045
-634,824	-200,000	-0,012	-0,093
-633,809	-200,000	0,008	-0,091
-632,795	-71,111	-0,031	-0,009
-631,780	-200,000	-0,025	-0,116
-630,765	69,300	-0,029	0,022
-629,751	287,149	-0,088	-0,117
-628,736	-109,356	0,049	-0,008
-627,722	-200,000	0,006	0,051
-626,707	-112,769	0,086	0,012
-625,692	-200,000	-0,034	-0,111
-624,678	201,263	0,056	0,064
-623,663	-200,000	-0,016	0,135
-622,649	-96,275	-0,115	-0,022
-621,634	503,704	-0,069	-0,117
-620,619	-57,181	-0,058	0,019
-619,605	-81,886	-0,005	-0,001
-618,590	219,631	-0,076	-0,089
-617,576	-110,115	0,073	-0,011
-616,561	-78,676	-0,091	-0,023
-615,546	-27,144	0,069	0,029
-614,532	108,407	0,070	-0,061
-613,517	800,000	-0,031	0,072
-612,503	-42,549	-0,066	-0,024
-611,488	489,877	-0,053	0,089
-610,474	800,000	-0,006	-0,020
-609,459	-200,000	-0,020	-0,121
-608,444	-57,207	0,022	0,007
-607,430	-200,000	-0,009	-0,099
-606,415	-42,528	-0,040	-0,015
-605,401	34,594	0,119	0,076
-604,386	-195,274	0,031	0,000
-603,371	44,382	-0,044	-0,030
-602,357	-6,682	0,020	0,010
-601,342	166,969	-0,026	0,027
-600,328	27,133	-0,048	0,029
-599,313	207,098	-0,062	-0,071
-598,298	-200,000	0,033	-0,131
-597,284	196,576	-0,036	0,040
-596,269	466,029	-0,053	0,088
-595,255	-117,760	0,092	-0,012
-594,240	800,000	0,017	0,049
-593,225	106,808	0,057	0,050
-592,211	-162,011	-0,031	0,001
-591,196	585,516	0,066	-0,119
-590,182	800,000	-0,018	0,056
-589,167	-150,677	-0,077	0,004
-588,152	-200,000	-0,007	-0,150
-587,138	-200,000	0,008	-0,056
-586,123	-200,000	-0,010	-0,049
-585,109	134,926	0,055	0,052
-584,094	509,728	-0,028	-0,048
-583,079	-1,065	0,097	0,050
-582,065	476,918	0,059	0,097
-581,050	-200,000	0,026	0,101
-580,036	-200,000	0,014	0,095
-579,021	-171,684	-0,119	-0,003
-578,006	-64,428	-0,053	0,016
-576,992	31,507	0,026	0,017
-575,977	-28,935	0,118	0,049
-574,963	-200,000	0,009	-0,112
-573,948	-27,663	0,046	0,019
-572,934	-54,306	-0,053	-0,017
-571,919	92,876	-0,078	-0,065
-570,904	129,024	-0,071	0,066
-569,890	58,693	0,122	-0,088
-568,875	57,391	-0,028	-0,020
-567,861	-200,000	0,005	0,024
-566,846	550,120	0,074	0,130
-565,831	-143,372	-0,077	0,005
-564,817	-76,443	0,094	-0,024
-563,802	-200,000	-0,010	-0,106
-562,788	-200,000	-0,050	-0,225
-561,773	-65,308	0,127	0,037
-560,758	-8,256	0,055	0,027
-559,744	-86,597	-0,073	-0,016
-558,729	-200,000	0,007	0,121
-557,715	800,000	0,032	0,083
-556,700	-200,000	-0,014	-0,078
-555,685	39,947	-0,061	0,040
-554,671	403,999	0,078	0,121
-553,656	350,070	0,073	0,105
-552,642	-200,000	-0,024	0,088
-551,627	-200,000	-0,042	-0,160
-550,612	7,581	-0,049	-0,027
-549,598	-103,190	0,116	0,020
-548,583	-128,903	-0,061	-0,006
-547,569	800,000	-0,040	0,091
-546,554	-112,273	0,030	-0,004
-545,539	-21,566	0,107	0,047
-544,525	-24,938	0,056	-0,024
-543,510	-87,518	-0,019	0,004
-542,496	800,000	0,030	-0,072
-541,481	171,810	0,007	-0,008
-540,466	743,728	-0,023	0,045
-539,452	-14,576	-0,126	-0,059
-538,437	45,483	-0,052	-0,035
-537,423	-94,360	0,037	0,007
-536,408	141,514	-0,077	0,074
-535,393	-200,000	0,009	0,053
-534,379	-56,695	-0,191	-0,062
-533,364	182,995	-0,083	-0,090
-532,350	-200,000	0,003	-0,120
-531,335	800,000	-0,012	0,037
-530,321	800,000	0,014	0,042
-529,306	-75,699	0,091	-0,023
-528,291	132,736	0,012	0,011
-527,277	84,214	0,064	-0,051
-526,262	-20,158	0,116	0,052
-525,248	118,040	-0,051	0,046
-524,233	623,868	0,044	-0,081
-523,218	-13,846	0,074	0,035
-522,204	-67,953	-0,063	-0,018
-521,189	247,195	-0,073	-0,090
-520,175	211,262	-0,026	-0,030
-519,160	-157,088	-0,135	0,006
-518,145	40,964	0,180	-0,119
-517,131	-200,000	-0,003	0,092
-516,116	800,000	-0,017	-0,042
-515,102	15,956	-0,112	0,064
-514,087	486,123	0,048	0,080
-513,072	-50,624	0,144	-0,049
-512,058	417,937	-0,030	-0,047
-511,043	-92,821	-0,054	-0,011
-510,029	-200,000	0,010	0,112
-509,014	-200,000	-0,019	0,085
-507,999	36,701	-0,123	0,079
-506,985	-200,000	0,005	0,090
-505,970	64,313	-0,057	0,042
-504,956	-200,000	0,028	-0,121
-503,941	177,756	0,084	-0,090
-502,926	-71,479	-0,102	0,028
-501,912	-100,100	0,028	0,005
-500,897	-106,491	0,101	0,016
-499,883	-93,977	-0,083	-0,017
-498,868	471,808	0,038	0,063
-497,853	-66,511	-0,032	-0,009
-496,839	180,354	-0,094	0,101
-495,824	692,966	0,057	0,110
-494,810	330,341	-0,049	0,070
-493,795	241,148	-0,085	-0,104
-492,781	800,000	-0,013	-0,039
-491,766	384,352	0,044	-0,066
-490,751	-200,000	-0,021	-0,162
-489,737	800,000	-0,066	-0,155
-488,722	-164,712	0,082	-0,003
-487,708	-148,135	-0,042	0,002
-486,693	-200,000	-0,021	0,070
-485,678	-115,945	0,047	0,006
-484,664	738,665	0,012	0,023
-483,649	-200,000	-0,027	-0,092
-482,635	-119,525	0,035	0,004
-481,620	387,115	-0,046	0,070
-480,605	441,673	0,064	0,102
-479,591	299,029	0,074	-0,100
-478,576	-38,334	-0,137	0,053
-477,562	-62,640	-0,144	-0,043
-476,547	-200,000	0,000	-0,152
-475,532	49,534	-0,092	0,063
-474,518	-200,000	-0,008	-0,073
-473,503	44,800	0,106	0,071
-472,489	-200,000	0,002	-0,011
-471,474	-200,000	-0,009	-0,131
-470,459	-118,233	0,111	0,014
-469,445	143,695	0,092	-0,090
-468,430	800,000	0,031	-0,095
-467,416	69,299	0,023	0,018
-466,401	-200,000	0,000	0,029
-465,386	423,704	-0,098	0,155
-464,372	-200,000	0,024	0,152
-463,357	84,892	-0,084	0,067
-462,343	-200,000	-0,011	-0,219
-461,328	736,857	-0,092	-0,180
-460,313	583,685	0,022	-0,040
-459,299	-200,000	-0,004	0,030
-458,284	-200,000	0,004	0,057
-457,270	186,271	-0,043	-0,046
-456,255	265,897	-0,070	-0,089
-455,241	191,229	-0,106	-0,116
-454,226	-115,494	0,020	0,003
-453,211	-200,000	0,004	0,018
-452,197	279,486	0,079	0,102
-451,182	-52,745	0,025	-0,008
-450,168	-90,752	-0,072	0,015
-449,153	-200,000	0,017	-0,123
-448,138	800,000	-0,082	-0,171
-447,124	382,173	-0,081	-0,122
-446,109	88,645	-0,137	-0,111
-445,095	86,460	-0,032	0,026
-444,080	-81,641	0,118	0,028
-443,065	-91,976	0,146	-0,030
-442,051	549,006	0,045	0,080
-441,036	800,000	0,034	-0,077
-440,022	-29,150	-0,154	-0,064
-439,007	-200,000	0,008	-0,046
-437,992	-200,000	-0,002	0,145
-436,978	-200,000	0,001	-0,129
-435,963	800,000	0,044	0,095
-434,949	242,389	-0,059	0,073
-433,934	79,839	0,020	-0,016
-432,919	-200,000	0,012	-0,178
-431,905	312,260	0,095	-0,131
-430,890	15,111	0,059	0,034
-429,876	-200,000	-0,003	-0,121
-428,861	-148,939	-0,080	0,005
-427,846	-165,946	-0,065	0,002
-426,832	-200,000	0,056	-0,000
-425,817	16,155	0,076	0,043
-424,803	-200,000	0,020	0,092
-423,788	800,000	0,033	-0,097
-422,773	120,787	-0,065	-0,059
-421,759	87,068	-0,101	-0,081
-420,744	800,000	-0,029	-0,084
-419,730	73,631	-0,024	0,019
-418,715	257,209	0,043	-0,054
-417,701	-166,096	-0,066	-0,002
-416,686	-14,085	-0,024	-0,011
-415,671	16,688	0,054	-0,031
-414,657	199,131	0,050	-0,055
-413,642	61,738	0,051	-0,037
-412,628	-95,600	0,110	-0,021
-411,613	-89,993	-0,058	0,012
-410,598	1,993	-0,093	-0,049
-409,584	-200,000	0,009	-0,062
-408,569	241,259	0,036	0,043
-407,555	-200,000	0,034	0,150
-406,540	-111,126	0,060	0,009
-405,525	-200,000	0,002	0,043
-404,511	-70,875	-0,028	0,008
-403,496	58,285	0,031	0,022
-402,482	-55,389	0,113	-0,037
-401,467	-200,000	0,042	-0,142
-400,452	133,527	-0,114	-0,108
-399,438	-200,000	-0,004	-0,023
-398,423	-200,000	-0,002	-0,037
-397,409	-200,000	-0,044	-0,184
-396,394	48,482	0,093	-0,063
-395,379	-109,860	0,059	-0,009
-394,365	-4,611	0,173	0,087
-393,350	-111,536	-0,162	0,024
-392,336	-75,487	0,054	0,014
-391,321	-200,000	-0,004	-0,033
-390,306	38,382	-0,081	0,053
-389,292	241,583	-0,093	0,113
-388,277	-116,260	0,134	0,018
-387,263	800,000	0,098	-0,245
-386,248	800,000	0,015	0,033
-385,233	137,849	0,107	-0,102
-384,219	800,000	-0,037	0,081
-383,204	163,062	0,065	-0,066
-382,190	-53,797	0,096	-0,032
-381,175	95,574	-0,079	-0,065
-380,160	-200,000	0,021	0,128
-379,146	500,180	-0,033	0,055
-378,131	280,150	-0,028	0,037
-377,117	-189,717	-0,100	0,001
-376,102	800,000	-0,047	-0,128
-375,088	120,439	-0,038	-0,035
-374,073	60,388	-0,107	0,077
-373,058	271,092	-0,074	0,095
-372,044	-200,000	0,021	0,074
-371,029	-200,000	0,004	-0,077
-370,015	800,000	0,031	0,080
-369,000	-200,000	-0,008	0,060
-367,985	256,735	-0,065	-0,081
-366,971	138,660	-0,128	0,122
-365,956	-200,000	-0,018	-0,112
-364,942	-200,000	0,001	-0,038
-363,927	800,000	0,029	0,073
-362,912	-83,768	0,117	0,027
-361,898	-82,247	-0,130	-0,030
-360,883	-29,433	0,113	0,047
-359,869	459,155	-0,033	0,053
-358,854	-200,000	0,013	0,057
-357,839	-63,825	0,040	0,012
-356,825	-200,000	0,054	0,201
-355,810	-131,746	-0,139	-0,013
-354,796	164,139	0,136	-0,139
-353,781	-200,000	0,008	-0,119
-352,766	588,972	0,062	0,111
-351,752	-200,000	-0,008	-0,070
-350,737	405,632	0,079	0,121
-349,723	-81,462	-0,021	-0,005
-348,708	-56,094	0,051	-0,016
-347,693	215,522	0,030	-0,035
-346,679	-58,052	0,048	-0,015
-345,664	-41,814	-0,095	-0,035
-344,650	-13,337	0,065	0,031
-343,635	188,279	-0,109	0,118
-342,620	-157,390	0,102	0,004
-341,606	-85,727	-0,085	0,019
-340,591	-200,000	-0,008	0,074
-339,577	-89,471	-0,118	-0,025
-338,562	169,088	0,131	-0,136
-337,548	78,644	-0,041	0,032
-336,533	294,125	-0,024	-0,032
-335,518	-200,000	0,011	0,130
-334,504	-29,900	0,088	0,036
-333,489	-49,815	0,122	0,042
-332,475	198,765	0,019	-0,021
-331,460	-82,013	0,072	-0,017
-330,445	-22,385	-0,017	-0,008
-329,431	724,974	0,059	0,115
-328,416	-21,308	-0,113	0,050
-327,402	23,970	0,037	0,022
-326,387	-200,000	-0,012	0,088
-325,372	635,575	-0,035	0,065
-324,358	-78,380	-0,141	-0,035
-323,343	-82,001	0,043	-0,010
-322,329	-200,000	0,010	-0,042
-321,314	-166,064	0,032	-0,001
-320,299	182,014	0,190	-0,203
-319,285	-200,000	-0,009	-0,114
-318,270	-27,618	-0,064	0,027
-317,256	410,380	0,081	-0,125
-316,241	-127,362	0,042	-0,004
-315,226	800,000	-0,026	-0,055
-314,212	-127,501	0,111	-0,011
-313,197	29,721	0,046	0,028
-312,183	-97,535	0,104	0,019
-311,168	-36,124	-0,064	0,025
-310,153	368,557	0,017	-0,024
-309,139	-85,707	-0,019	-0,004
-308,124	-200,000	0,021	-0,071
-307,110	424,710	0,048	0,074
-306,095	715,936	-0,017	0,033
-305,080	-200,000	-0,017	-0,062
-304,066	-57,865	0,040	-0,013
-303,051	115,833	-0,069	-0,061
-302,037	309,344	0,022	-0,030
-301,022	442,928	0,053	0,084
-300,008	-180,262	0,084	-0,001
-298,993	-200,000	0,018	0,104
-297,978	-200,000	-0,006	0,022
-296,964	392,585	-0,066	0,099
-295,949	-81,322	-0,082	0,019
-294,935	-200,000	-0,003	0,035
-293,920	-200,000	0,056	-0,000
-292,905	-200,000	-0,014	0,088
-291,891	124,787	0,075	0,068
-290,876	83,994	0,143	0,113
-289,862	57,787	-0,107	0,076
-288,847	310,033	0,036	0,049
-287,832	427,892	-0,088	-0,139
-286,818	163,760	0,079	0,080
-285,803	800,000	-0,050	0,121
-284,789	-200,000	-0,058	0,242
-283,774	289,737	0,113	0,149
-282,759	56,391	0,064	0,045
-281,745	800,000	0,031	0,068
-280,730	-50,881	-0,055	-0,019
-279,716	706,189	-0,038	0,072
-278,701	-62,575	-0,064	-0,019
-277,686	-18,411	0,120	0,054
-276,672	800,000	0,037	0,081
-275,657	-200,000	-0,004	0,027
-274,643	800,000	0,012	-0,028
-273,628	67,607	-0,141	-0,104
-272,613	292,135	-0,014	0,018
-271,599	-120,706	-0,050	0,006
-270,584	121,480	-0,030	-0,027
-269,570	208,906	0,116	0,131
-268,555	800,000	-0,030	-0,066
-267,540	150,781	-0,060	-0,059
-266,526	177,725	0,050	0,052
-265,511	471,940	-0,008	0,012
-264,497	-70,733	-0,080	0,022
-263,482	-19,896	-0,036	-0,016
-262,467	69,066	0,012	0,009
-261,453	-122,472	0,097	-0,011
-260,438	-38,774	0,051	-0,019
-259,424	166,274	-0,135	0,138
-258,409	-15,919	0,106	0,049
-257,395	-200,000	0,008	-0,051
-256,380	663,474	-0,046	0,087
-255,365	-200,000	0,003	0,067
-254,351	800,000	-0,045	0,097
-253,336	6,655	0,130	-0,070
-252,322	-200,000	0,007	-0,146
-251,307	662,821	0,026	-0,049
-250,292	-111,322	0,072	0,011
-249,278	143,182	0,028	0,027
-248,263	-200,000	-0,022	0,193
-247,249	45,822	-0,075	-0,050
-246,234	-200,000	-0,002	-0,041
-245,219	-5,786	-0,145	-0,072
-244,205	57,248	-0,041	0,029
-243,190	-200,000	0,017	0,077
-242,176	-200,000	0,033	-0,106
-241,161	164,894	0,102	-0,104
-240,146	-200,000	0,019	0,069
-239,132	655,031	-0,008	-0,016
-238,117	298,093	-0,157	-0,209
-237,103	4,013	0,066	0,035
-236,088	-99,093	0,102	0,018
-235,073	59,918	-0,035	0,025
-234,059	474,379	0,044	0,073
-233,044	197,517	-0,112	0,124
-232,030	-86,795	0,147	-0,032
-231,015	-200,000	-0,020	-0,099
-230,000	-200,000	-0,034	0,247
-228,986	-101,023	0,093	-0,016
-227,971	-99,249	0,149	0,027
-226,957	-200,000	-0,016	0,186
-225,942	252,350	-0,017	-0,021
-224,927	-50,850	-0,091	-0,031
-223,913	45,271	0,087	0,058
-222,898	162,909	-0,169	0,172
-221,884	136,086	0,099	-0,094
-220,869	800,000	-0,023	0,064
-219,855	-200,000	0,005	0,115
-218,840	-200,000	0,007	0,044
-217,825	-62,976	-0,075	0,022
-216,811	-72,400	-0,086	0,023
-215,796	-200,000	0,021	-0,067
-214,782	-200,000	0,031	0,136
-213,767	-200,000	-0,007	-0,023
-212,752	69,742	0,092	0,068
-211,738	-95,757	0,107	-0,021
-210,723	90,314	0,058	0,047
-209,709	-200,000	0,039	-0,154
-208,694	209,985	-0,032	-0,037
-207,679	-59,804	-0,007	-0,002
-206,665	800,000	0,045	-0,090
-205,650	4,169	-0,086	0,045
-204,636	-85,203	-0,082	0,018
-203,621	800,000	0,055	-0,169
-202,606	146,850	-0,123	-0,119
-201,592	-162,742	-0,237	0,008
-200,577	425,793	-0,048	-0,075
-199,563	170,215	0,047	-0,049
-198,548	-200,000	0,010	0,044
-197,533	800,000	0,040	0,111
-196,519	-58,178	-0,015	0,005
-195,504	-44,874	-0,068	0,024
-194,490	-43,174	0,055	-0,020
-193,475	430,765	0,038	-0,060
-192,460	-142,521	0,100	-0,007
-191,446	-28,695	-0,057	0,023
-190,431	-84,812	-0,069	-0,016
-189,417	94,882	-0,116	0,095
-188,402	-200,000	-0,007	0,095
-187,387	10,173	0,078	-0,042
-186,373	249,308	0,067	0,082
-185,358	69,245	-0,049	0,036
-184,344	504,322	0,100	-0,168
-183,329	-98,106	0,117	0,021
-182,315	182,181	-0,039	0,042
-181,300	61,520	-0,043	0,031
-180,285	127,371	0,022	0,021
-179,271	45,806	-0,084	0,056
-178,256	-49,859	-0,171	0,058
-177,242	-200,000	-0,002	0,165
-176,227	14,966	0,085	-0,048
-175,212	25,189	-0,009	-0,005
-174,198	204,859	0,113	0,127
-173,183	800,000	0,012	-0,038
-172,169	-127,388	-0,061	-0,006
-171,154	487,799	-0,046	0,076
-170,139	103,481	0,096	0,082
-169,125	538,052	0,047	0,081
-168,110	28,702	-0,107	0,065
-167,096	-200,000	0,014	0,075
-166,081	207,913	-0,076	-0,086
-165,066	489,049	0,053	-0,087
-164,052	-30,823	-0,061	-0,025
-163,037	-200,000	-0,002	-0,043
-162,023	-62,202	0,169	-0,050
-161,008	159,100	-0,038	-0,038
-159,993	-84,182	-0,083	-0,019
-158,979	-200,000	0,008	0,101
-157,964	800,000	-0,006	-0,013
-156,950	61,427	0,147	-0,105
-155,935	710,251	-0,024	-0,046
-154,920	-49,847	0,119	0,040
-153,906	-51,225	-0,038	-0,013
-152,891	484,938	0,024	-0,039
-151,877	130,407	-0,159	0,147
-150,862	-200,000	-0,000	-0,006
-149,847	34,675	0,086	0,054
-148,833	480,248	0,096	0,157
-147,818	-200,000	0,009	0,125
-146,804	322,701	0,020	0,027
-145,789	488,556	0,135	0,223
-144,775	-43,500	-0,052	-0,019
-143,760	-200,000	0,002	0,022
-142,745	120,586	-0,042	-0,038
-141,731	-200,000	0,030	-0,207
-140,716	14,768	0,118	-0,066
-139,702	157,067	-0,050	0,049
-138,687	-119,827	-0,036	-0,004
-137,672	102,183	0,074	0,063
-136,658	-91,310	-0,118	0,024
-135,643	-89,297	-0,200	-0,042
-134,629	56,518	-0,086	-0,060
-133,614	-59,443	0,114	-0,035
-132,599	-64,151	0,128	-0,037
-131,585	59,392	-0,018	-0,013
-130,570	-62,152	-0,007	0,002
-129,556	17,685	0,063	0,036
-128,541	-141,983	-0,084	-0,006
-127,526	-126,247	0,034	-0,004
-126,512	-0,719	0,105	0,053
-125,497	-117,644	0,119	-0,015
-124,483	-200,000	0,051	0,167
-123,468	432,255	-0,026	0,041
-122,453	-30,008	-0,060	-0,024
-121,439	-200,000	0,002	-0,028
-120,424	115,128	0,069	-0,060
-119,410	800,000	0,022	-0,064
-118,395	-200,000	0,002	0,051
-117,380	-200,000	0,009	0,030
-116,366	800,000	-0,019	0,042
-115,351	113,641	-0,020	-0,018
-114,337	31,714	-0,061	0,038
-113,322	4,261	0,068	0,036
-112,307	-123,190	-0,130	0,015
-111,293	800,000	0,075	0,151
-110,278	800,000	-0,031	0,091
-109,264	247,234	0,047	-0,057
-108,249	38,270	0,050	0,032
-107,234	-108,189	0,120	-0,019
-106,220	-1,780	0,080	0,041
-105,205	-34,269	-0,011	0,004
-104,191	110,864	-0,104	0,090
-103,176	-155,072	0,064	0,003
-102,162	211,753	-0,060	0,068
-101,147	-200,000	-0,008	0,093
-100,132	536,207	0,030	-0,051
-99,118	239,352	-0,096	-0,115
-98,103	-200,000	-0,018	-0,070
-97,089	-200,000	0,016	0,078
-96,074	-200,000	-0,030	0,122
-95,059	286,846	0,076	-0,099
-94,045	276,943	0,074	-0,094
-93,030	-29,289	0,045	0,018
-92,016	-200,000	0,009	-0,145
-91,001	-200,000	-0,004	-0,070
-89,986	-131,020	0,103	0,010
-88,972	128,199	0,107	0,098
-87,957	-200,000	-0,028	0,127
-86,943	77,328	0,138	-0,105
-85,928	34,774	-0,080	-0,050
-84,913	-200,000	-0,040	-0,231
-83,899	-17,295	0,058	0,026
-82,884	-90,149	0,092	0,019
-81,870	-111,745	-0,104	-0,015
-80,855	-77,106	-0,022	-0,006
-79,840	207,300	-0,095	-0,107
-78,826	-200,000	-0,004	-0,086
-77,811	-200,000	-0,012	0,105
-76,797	-200,000	0,008	0,162
-75,782	-200,000	0,006	0,030
-74,767	800,000	-0,015	0,036
-73,753	20,156	-0,084	-0,049
-72,738	-200,000	0,013	-0,101
-71,724	149,220	-0,011	0,011
-70,709	39,118	0,050	-0,032
-69,694	146,104	-0,088	-0,084
-68,680	-200,000	-0,026	0,088
-67,665	800,000	-0,013	0,033
-66,651	-119,236	0,091	-0,011
-65,636	-200,000	-0,006	-0,048
-64,622	-200,000	0,009	-0,125
-63,607	-76,699	-0,183	-0,046
-62,592	148,951	0,044	-0,043
-61,578	198,015	0,144	0,158
-60,563	-200,000	0,003	0,129
-59,549	518,559	-0,034	0,057
-58,534	30,916	-1,784	-1,095
-57,519	800,000	-0,341	-0,942
-56,505	-200,000	-1,174	-4,835
-55,490	22,259	0,837	0,490
-54,476	800,000	5,241	12,079
-53,461	-200,000	17,459	284,765
-52,446	800,000	723,322	2229,857
-51,432	544,001	1639,038	2820,230
-50,417	112,064	1630,746	1414,419
-49,403	76,277	1286,251	976,924
-48,388	32,808	1028,862	637,863
-47,373	20,241	990,717	572,732
-46,359	18,747	978,600	560,799
-45,344	16,218	974,762	550,291
-44,330	16,425	973,345	550,148
-43,315	15,915	971,411	547,363
-42,300	15,904	970,402	546,739
-41,286	15,883	969,460	546,118
-40,271	15,874	968,303	545,413
-39,257	15,884	967,509	544,980
-38,242	15,925	966,664	544,613
-37,227	15,895	965,781	543,996
-36,213	15,872	964,967	543,444
-35,198	15,947	964,009	543,126
-34,184	15,989	963,332	542,858
-33,169	15,845	962,466	541,883
-32,154	15,884	961,439	541,407
-31,140	15,921	960,531	540,995
-30,125	15,883	959,943	540,519
-29,111	15,925	958,985	540,095
-28,096	15,864	958,498	539,603
-27,082	15,922	957,632	539,281
-26,067	15,934	956,914	538,892
-25,052	15,872	956,057	538,190
-24,038	15,893	955,551	537,951
-23,023	15,860	954,869	537,440
-22,009	15,890	954,175	537,126
-20,994	15,983	953,683	537,124
-19,979	15,996	952,961	536,738
-18,965	15,902	952,397	536,097
-17,950	15,894	951,618	535,613
-16,936	15,986	950,904	535,485
-15,921	15,888	950,414	534,873
-14,906	15,804	949,722	534,195
-13,892	15,756	949,130	533,689
-12,877	15,761	948,357	533,246
-11,863	15,745	947,848	532,890
-10,848	15,769	947,343	532,659
-9,833	15,935	946,862	532,897
-8,819	15,823	946,195	532,143
-7,804	15,780	945,520	531,606
-6,790	15,833	944,793	531,346
-5,775	15,852	944,299	531,106
-4,760	15,828	943,631	530,635
-3,746	15,782	943,088	530,160
-2,731	15,673	942,480	529,454
-1,717	15,611	941,819	528,866
-0,702	15,624	941,106	528,484
0,313	15,435	940,441	528,311
1,327	18,602	938,341	537,075
2,342	27,323	795,770	478,620
3,356	24,044	459,597	271,381
4,371	-2,947	314,229	156,871
5,386	-6,879	295,796	143,682
6,400	-8,978	289,582	138,571
7,415	-9,625	287,336	136,847
8,429	-9,616	285,984	136,201
9,444	-9,575	284,956	135,739
10,459	-9,581	284,388	135,450
11,473	-9,578	283,715	135,121
12,488	-9,537	283,219	134,912
13,502	-9,575	282,740	134,635
14,517	-9,389	282,195	134,543
15,531	-9,484	281,858	134,279
16,546	-9,441	281,532	134,153
17,561	-9,529	281,110	133,856
18,575	-9,264	280,762	133,933
19,590	-9,649	280,466	133,410
20,604	-9,471	280,168	133,426
21,619	-9,545	279,848	133,191
22,634	-9,500	279,412	133,015
23,648	-9,564	279,080	132,784
24,663	-9,606	278,972	132,681
25,677	-9,494	278,640	132,617
26,692	-9,306	278,271	132,609
27,707	-9,655	278,161	132,213
28,721	-9,441	277,853	132,259
29,736	-9,593	277,465	131,918
30,750	-9,433	277,340	131,998
31,765	-9,501	277,076	131,796
32,780	-9,538	276,823	131,629
33,794	-9,419	276,556	131,603
34,809	-9,520	276,357	131,401
35,823	-9,532	276,086	131,249
36,838	-9,635	275,781	130,995
37,853	-9,520	275,650	131,030
38,867	-9,489	275,225	130,845
39,882	-9,622	275,056	130,629
40,896	-9,379	274,776	130,711
41,911	-9,476	274,510	130,483
42,926	-9,470	274,192	130,326
43,940	-9,494	273,987	130,193
44,955	-9,693	273,947	129,978
45,969	-9,829	273,689	129,717
46,984	-9,777	273,419	129,626
47,999	-10,094	273,216	129,222
49,013	-10,145	272,853	128,992
50,028	-10,074	272,436	128,848
51,042	-10,109	272,318	128,749
52,057	-10,410	272,071	128,341
53,071	-10,220	272,006	128,475
54,086	-10,149	271,823	128,444
55,101	-9,849	271,511	128,562
56,115	-9,791	271,256	128,484
57,130	-9,506	271,323	128,767
58,144	-9,405	271,155	128,769
59,159	-9,402	270,846	128,615
60,174	-9,365	270,569	128,505
61,188	-9,499	270,362	128,272
62,203	-9,460	270,149	128,196
63,217	-9,259	269,953	128,276
64,232	-9,313	269,618	128,056
65,247	-9,440	269,498	127,871
66,261	-9,465	269,197	127,694
67,276	-9,654	269,041	127,435
68,290	-9,510	268,718	127,402
69,305	-9,823	268,460	126,983
70,320	-9,722	268,290	126,984
71,334	-9,579	268,123	127,024
72,349	-9,273	267,891	127,181
73,363	-9,386	267,584	126,921
74,378	-9,237	267,497	127,004
75,393	-9,574	267,458	126,667
76,407	-9,448	267,162	126,631
77,422	-9,458	266,893	126,483
78,436	-9,553	266,672	126,281
79,451	-9,521	266,534	126,233
80,466	-9,522	266,090	126,011
81,480	-9,656	266,008	125,839
82,495	-9,588	265,829	125,805
83,509	-9,474	265,596	125,786
84,524	-9,628	265,315	125,503
85,539	-9,653	265,017	125,328
86,553	-9,726	264,905	125,199
87,568	-9,671	264,798	125,186
88,582	-9,546	264,475	125,135
89,597	-9,629	264,273	124,954
90,611	-9,470	264,027	124,969
91,626	-9,429	264,024	124,993
92,641	-9,598	263,911	124,777
93,655	-9,389	263,682	124,844
94,670	-9,324	263,264	124,694
95,684	-9,622	263,219	124,395
96,699	-9,509	263,022	124,392
97,714	-9,398	262,713	124,334
98,728	-9,536	262,536	124,115
99,743	-9,649	262,285	123,886
100,757	-9,733	262,121	123,722
101,772	-9,559	261,898	123,760
102,787	-9,695	261,881	123,620
103,801	-9,488	261,574	123,648
104,816	-9,491	261,459	123,580
105,830	-9,435	261,242	123,516
106,845	-9,505	261,096	123,374
107,860	-9,455	260,775	123,255
108,874	-9,466	260,631	123,167
109,889	-9,511	260,480	123,044
110,903	-9,346	260,048	122,975
111,918	-9,491	259,877	122,755
112,933	-9,528	259,751	122,652
113,947	-9,543	259,611	122,563
114,962	-9,648	259,467	122,391
115,976	-9,577	259,260	122,344
116,991	-9,516	259,115	122,319
118,006	-9,330	258,919	122,379
119,020	-9,472	258,798	122,186
120,035	-9,385	258,569	122,143
121,049	-9,344	258,512	122,142
122,064	-9,446	258,271	121,928
123,079	-9,417	257,947	121,790
124,093	-9,665	257,989	121,581
125,108	-9,619	257,687	121,469
126,122	-9,847	257,265	121,060
127,137	-9,826	257,092	120,986
128,151	-9,728	256,894	120,967
129,166	-9,773	256,833	120,889
130,181	-9,859	256,613	120,700
131,195	-9,684	256,350	120,717
132,210	-9,631	256,177	120,671
133,224	-9,574	256,085	120,666
134,239	-9,663	255,843	120,464
135,254	-9,664	255,738	120,403
136,268	-9,610	255,483	120,318
137,283	-9,725	255,229	120,089
138,297	-9,840	255,056	119,897
139,312	-9,758	254,730	119,805
140,327	-9,344	254,618	120,098
141,341	-9,305	254,614	120,119
142,356	-9,360	254,333	119,928
143,370	-9,235	254,244	119,984
144,385	-9,331	254,032	119,790
145,400	-9,391	253,904	119,667
146,414	-9,424	253,860	119,607
147,429	-9,317	253,496	119,517
148,443	-9,259	253,410	119,516
149,458	-9,183	253,232	119,486
150,473	-9,059	252,986	119,466
151,487	-9,510	252,830	118,996
152,502	-9,440	252,566	118,921
153,516	-9,266	252,570	119,060
154,531	-9,163	252,296	119,009
155,546	-9,307	252,081	118,774
156,560	-9,219	251,895	118,750
157,575	-9,468	251,596	118,387
158,589	-9,368	251,436	118,387
159,604	-9,307	251,375	118,399
160,619	-9,441	251,195	118,190
161,633	-9,327	250,897	118,136
162,648	-9,133	250,856	118,271
163,662	-9,285	250,692	118,053
164,677	-9,497	250,618	117,829
165,692	-9,217	250,361	117,934
166,706	-9,316	250,197	117,763
167,721	-9,294	249,930	117,646
168,735	-9,263	249,828	117,612
169,750	-9,123	249,780	117,698
170,764	-9,147	249,516	117,542
171,779	-9,176	249,356	117,433
172,794	-9,082	249,198	117,427
173,808	-9,115	249,039	117,314
174,823	-9,662	248,708	116,688
175,837	-9,760	248,511	116,504
176,852	-9,440	248,463	116,739
177,867	-9,453	248,406	116,690
178,881	-9,577	248,228	116,493
179,896	-9,178	248,085	116,749
180,910	-9,251	247,919	116,600
181,925	-9,220	247,686	116,505
182,940	-9,205	247,597	116,465
183,954	-9,389	247,352	116,187
184,969	-9,325	247,094	116,109
185,983	-9,249	247,011	116,122
186,998	-9,392	246,977	115,977
188,013	-9,215	246,708	115,987
189,027	-9,095	246,453	115,956
190,042	-9,256	246,211	115,699
191,056	-9,240	246,065	115,633
192,071	-9,233	245,975	115,587
193,086	-9,475	245,779	115,284
194,100	-9,306	245,747	115,399
195,115	-9,181	245,477	115,365
196,129	-9,088	245,173	115,288
197,144	-9,381	245,143	115,022
198,159	-9,385	244,951	114,918
199,173	-9,284	244,722	114,884
200,188	-9,361	244,538	114,723
201,202	-9,689	244,457	114,406
202,217	-9,943	244,010	113,978
203,232	-9,757	243,771	114,009
204,246	-9,362	243,734	114,305
205,261	-8,983	243,578	114,532
206,275	-10,235	243,074	113,261
207,290	-7,167	244,452	116,415
208,304	0,194	246,865	123,648
209,319	3,779	247,680	127,012
210,334	4,062	247,636	127,212
211,348	4,370	247,621	127,447
212,363	4,709	247,510	127,659
213,377	4,875	247,395	127,725
214,392	4,614	247,299	127,449
215,407	4,381	247,076	127,130
216,421	4,538	246,817	127,115
217,436	4,750	246,750	127,244
218,450	4,795	246,784	127,287
219,465	4,394	246,398	126,748
220,480	4,436	246,082	126,608
221,494	4,177	246,041	126,363
222,509	4,209	245,891	126,301
223,523	4,251	245,537	126,142
224,538	3,935	245,417	125,811
225,553	4,045	245,285	125,822
226,567	4,054	245,120	125,733
227,582	4,132	245,146	125,800
228,596	4,340	244,875	125,819
229,611	3,922	244,672	125,362
230,626	3,762	244,295	125,028
231,640	3,832	244,377	125,116
232,655	4,113	244,236	125,261
233,669	3,785	243,972	124,848
234,684	3,859	243,800	124,808
235,699	4,290	243,698	125,096
236,713	4,388	243,613	125,120
237,728	4,009	243,373	124,679
238,742	3,925	243,125	124,472
239,757	3,871	242,965	124,335
240,772	3,938	242,908	124,349
241,786	4,105	242,717	124,375
242,801	3,863	242,659	124,139
243,815	3,789	242,456	123,965
244,830	4,010	242,280	124,042
245,844	4,078	241,996	123,940
246,859	4,022	241,995	123,884
247,874	3,943	241,712	123,664
248,888	4,181	241,545	123,759
249,903	4,100	241,540	123,680
250,917	4,067	241,439	123,591
251,932	4,084	241,327	123,536
252,947	4,305	241,048	123,559
253,961	4,203	240,766	123,322
254,976	4,163	240,658	123,223
255,990	4,360	240,543	123,311
257,005	4,108	240,293	122,971
258,020	3,916	240,229	122,774
259,034	4,017	240,122	122,789
260,049	3,946	239,860	122,588
261,063	3,740	239,716	122,338
262,078	3,893	239,476	122,327
263,093	3,955	239,506	122,381
264,107	4,220	239,439	122,546
265,122	3,813	239,139	122,059
266,136	3,882	239,091	122,078
267,151	4,160	238,967	122,225
268,166	4,011	238,567	121,891
269,180	3,899	238,374	121,693
270,195	4,559	238,528	122,284
271,209	4,630	238,501	122,315
272,224	4,079	238,203	121,716
273,239	3,800	237,751	121,253
274,253	3,821	237,771	121,270
275,268	4,054	237,662	121,387
276,282	3,958	237,652	121,295
277,297	3,758	237,168	120,880
278,312	4,070	237,089	121,074
279,326	4,123	237,119	121,120
280,341	4,028	236,977	120,962
281,355	4,029	236,579	120,749
282,370	4,239	236,480	120,853
283,384	4,081	236,423	120,689
284,399	3,977	236,097	120,430
285,414	3,780	235,921	120,176
286,428	3,728	235,978	120,154
287,443	3,977	235,847	120,271
288,457	4,073	235,695	120,257
289,472	4,350	235,470	120,348
290,487	4,120	235,355	120,099
291,501	3,880	235,149	119,796
292,516	3,888	234,862	119,646
293,530	3,871	234,816	119,598
294,545	4,202	234,764	119,819
295,560	4,120	234,689	119,706
296,574	3,708	234,447	119,252
297,589	4,121	234,236	119,454
298,603	4,185	234,127	119,437
299,618	4,188	234,092	119,412
300,633	4,138	233,935	119,282
301,647	4,588	233,821	119,561
302,662	4,530	233,728	119,458
303,676	4,318	233,691	119,265
304,691	4,198	233,506	119,067
305,706	4,427	233,321	119,139
306,720	4,487	233,117	119,071
307,735	4,259	232,959	118,803
308,749	3,977	232,735	118,461
309,764	3,860	232,682	118,334
310,779	3,928	232,344	118,204
311,793	3,863	232,146	118,043
312,808	3,796	231,989	117,901
313,822	3,822	231,780	117,804
314,837	3,879	231,637	117,765
315,852	3,821	231,501	117,640
316,866	3,911	231,473	117,685
317,881	4,117	231,370	117,779
318,895	4,006	231,146	117,570
319,910	4,433	231,111	117,867
320,925	4,436	230,934	117,770
321,939	3,857	230,864	117,281
322,954	4,208	230,703	117,457
323,968	3,946	230,498	117,142
324,983	3,733	230,233	116,835
325,997	4,023	230,463	117,162
327,012	4,350	230,313	117,324
328,027	4,290	229,930	117,073
329,041	4,529	229,883	117,220
330,056	4,848	229,840	117,430
331,070	4,835	229,647	117,311
332,085	4,462	229,377	116,880
333,100	4,026	229,292	116,496
334,114	4,202	229,112	116,528
335,129	4,315	229,010	116,551
336,143	4,685	228,853	116,740
337,158	4,491	228,721	116,516
338,173	4,573	228,408	116,408
339,187	4,106	228,343	116,012
340,202	4,413	228,179	116,150
341,216	4,394	228,046	116,058
342,231	4,196	227,791	115,768
343,246	4,129	227,619	115,621
344,260	4,281	227,549	115,689
345,275	4,583	227,500	115,880
346,289	4,624	227,509	115,905
347,304	4,327	227,244	115,537
348,319	4,587	227,167	115,682
349,333	4,353	226,971	115,397
350,348	4,174	226,689	115,110
351,362	4,163	226,592	115,042
352,377	4,083	226,433	114,891
353,392	3,831	226,228	114,589
354,406	3,995	226,150	114,662
355,421	194,757	1322,247	1397,052
356,435	156,087	1455,785	1397,067
