DTS Sentinel unit serial number:	SN410029Multiplexer serial number:	ORYXHardware model number:	OX2-SRSoftware version number:	ORYX F/W v4,00 Oryx Data Collector v3.7.2.0data status	okinstallation	B5 Nyhavnadifferential loss correction	single-endedforward channel	channel 2reverse channel	N/Adate	2023/12/14time	07:37:13forward acquisition time	300,00reverse acquisition time	0,00gamma	499,1914k internal	0,3159k external	0,3159temperature offset calibration	1,0000default loss term (dB/km)	0,3820temperature slope calibration	1,0000multiplexer offset coefficient	1,0000multiplexer slope coefficient	1,0000fibre end	0,00T internal ref (°C)	7,13T ext. ref 1 (°C)	-9,31T ext. ref 2 (°C)	-9,38length (m)	temperature (°C)	Stokes	anti-Stokes-744,400	103,920	0,097	-0,084
-743,385	-89,820	-0,479	-0,102
-742,371	358,598	0,124	0,183
-741,356	-132,333	-0,284	-0,027
-740,342	598,190	0,065	0,119
-739,327	-156,698	-0,450	-0,020
-738,312	9,360	0,198	0,110
-737,298	-61,081	-0,300	-0,093
-736,283	2,934	0,125	0,067
-735,269	-121,671	-0,310	-0,037
-734,254	-152,812	0,195	-0,010
-733,239	-16,435	-0,588	-0,274
-732,225	316,290	0,146	0,203
-731,210	31,423	-0,055	0,035
-730,196	59,467	0,030	0,022
-729,181	48,546	-0,151	0,104
-728,167	107,839	0,055	0,048
-727,152	441,808	-0,123	0,199
-726,137	-200,000	-0,007	-0,140
-725,123	-158,700	-0,210	0,009
-724,108	89,893	0,008	-0,006
-723,094	-200,000	0,018	-0,154
-722,079	800,000	0,032	-0,084
-721,064	419,496	0,085	0,135
-720,050	-76,699	-0,049	0,013
-719,035	-15,706	-0,050	-0,024
-718,021	133,051	-0,014	0,014
-717,006	-35,216	0,033	0,013
-715,991	106,773	-0,071	-0,062
-714,977	-200,000	-0,013	-0,073
-713,962	225,583	-0,044	-0,053
-712,948	-63,012	-0,044	0,013
-711,933	800,000	-0,019	-0,060
-710,918	311,769	-0,070	0,097
-709,904	522,355	-0,045	0,078
-708,889	800,000	-0,048	-0,149
-707,875	-148,307	-0,140	0,008
-706,860	-70,485	0,147	-0,041
-705,845	-200,000	0,010	-0,037
-704,831	75,864	0,108	0,084
-703,816	-34,483	0,042	-0,017
-702,802	-71,737	0,117	0,032
-701,787	-15,033	-0,152	0,071
-700,772	-186,378	0,184	0,002
-699,758	-86,141	0,081	-0,018
-698,743	-200,000	0,004	0,035
-697,729	-200,000	-0,032	0,108
-696,714	614,215	0,093	-0,173
-695,699	-68,873	-0,113	-0,032
-694,685	-85,006	-0,008	-0,002
-693,670	-200,000	0,003	-0,077
-692,656	93,585	0,083	-0,069
-691,641	-200,000	0,018	0,088
-690,627	75,592	0,084	0,065
-689,612	-200,000	0,006	-0,036
-688,597	-70,518	-0,075	-0,021
-687,583	177,476	0,040	-0,042
-686,568	325,819	-0,081	-0,114
-685,554	430,720	-0,054	-0,086
-684,539	232,303	-0,008	0,010
-683,524	-200,000	-0,009	0,034
-682,510	467,585	-0,060	-0,099
-681,495	-22,900	-0,175	0,077
-680,481	-115,943	-0,110	0,015
-679,466	800,000	0,013	-0,038
-678,451	29,297	-0,065	0,040
-677,437	-139,574	-0,046	0,004
-676,422	92,566	0,048	-0,039
-675,408	-183,296	-0,028	0,000
-674,393	-145,759	0,112	0,007
-673,378	-11,120	-0,180	0,087
-672,364	478,355	-0,030	-0,051
-671,349	227,428	0,055	-0,065
-670,335	-67,267	-0,092	-0,026
-669,320	-200,000	-0,014	-0,091
-668,305	-200,000	-0,013	0,077
-667,291	66,995	-0,035	-0,026
-666,276	-154,635	-0,098	-0,005
-665,262	800,000	-0,061	-0,175
-664,247	89,705	-0,070	-0,058
-663,232	-50,895	0,135	-0,046
-662,218	-200,000	0,005	0,052
-661,203	-200,000	0,035	-0,205
-660,189	-127,412	-0,137	-0,014
-659,174	230,043	-0,150	-0,180
-658,159	-184,092	-0,051	0,001
-657,145	-200,000	0,039	-0,154
-656,130	-156,772	0,045	-0,002
-655,116	800,000	-0,018	0,051
-654,101	-17,209	-0,084	-0,039
-653,086	244,416	-0,132	-0,164
-652,072	-194,296	-0,120	-0,001
-651,057	800,000	-0,105	-0,223
-650,043	468,734	0,079	0,131
-649,028	-111,673	-0,121	0,018
-648,014	235,790	-0,078	-0,095
-646,999	-200,000	0,003	-0,082
-645,984	154,441	-0,029	-0,029
-644,970	-200,000	0,022	-0,121
-643,955	-70,086	-0,106	-0,029
-642,941	-200,000	0,005	-0,075
-641,926	-200,000	-0,015	-0,056
-640,911	45,232	0,053	0,036
-639,897	47,719	-0,047	0,032
-638,882	-147,925	-0,090	0,005
-637,868	-155,713	-0,121	0,006
-636,853	-31,124	0,010	-0,004
-635,838	-97,958	-0,037	-0,007
-634,824	357,347	-0,050	-0,073
-633,809	-86,626	0,091	0,020
-632,795	-134,991	0,132	-0,012
-631,780	-200,000	0,002	-0,017
-630,765	-11,660	0,114	0,055
-629,751	-69,574	0,118	-0,033
-628,736	-200,000	0,026	-0,119
-627,722	596,966	0,033	0,060
-626,707	167,069	0,045	-0,047
-625,692	-74,734	0,103	0,027
-624,678	410,638	-0,066	0,103
-623,663	469,859	0,033	0,055
-622,649	34,074	-0,089	-0,056
-621,634	104,489	-0,041	0,035
-620,619	4,196	0,224	-0,120
-619,605	214,696	0,017	0,020
-618,590	800,000	-0,034	-0,105
-617,576	-5,498	0,107	-0,054
-616,561	-121,100	-0,108	-0,013
-615,546	800,000	-0,049	-0,157
-614,532	31,106	-0,052	-0,032
-613,517	-70,694	-0,087	-0,024
-612,503	360,515	0,014	-0,021
-611,488	137,565	-0,096	0,092
-610,474	-200,000	0,004	0,027
-609,459	189,107	-0,105	0,115
-608,444	731,805	-0,052	-0,102
-607,430	-200,000	0,011	-0,157
-606,415	-16,583	-0,061	0,028
-605,401	-200,000	0,011	0,039
-604,386	132,220	-0,117	-0,110
-603,371	-200,000	-0,021	-0,097
-602,357	58,436	0,037	0,027
-601,342	-18,477	-0,060	0,027
-600,328	800,000	0,035	-0,073
-599,313	389,495	-0,065	0,099
-598,298	-105,145	0,159	0,026
-597,284	800,000	0,020	0,047
-596,269	68,552	0,045	0,034
-595,255	416,350	-0,024	0,038
-594,240	-102,113	0,047	0,008
-593,225	-200,000	-0,024	-0,114
-592,211	-21,360	-0,026	0,012
-591,196	-200,000	0,001	0,051
-590,182	268,442	0,029	-0,038
-589,167	558,538	-0,030	0,054
-588,152	-200,000	-0,009	-0,097
-587,138	-200,000	-0,004	0,071
-586,123	339,097	-0,070	0,100
-585,109	-200,000	-0,004	-0,045
-584,094	-200,000	-0,004	-0,104
-583,079	-58,330	0,062	-0,019
-582,065	800,000	-0,034	0,072
-581,050	-200,000	-0,005	0,093
-580,036	170,791	0,084	0,088
-579,021	285,903	-0,042	-0,055
-578,006	192,129	-0,059	-0,066
-576,992	-160,194	-0,048	-0,002
-575,977	-93,087	0,092	0,018
-574,963	-28,687	0,028	0,012
-573,948	32,990	-0,089	0,057
-572,934	-69,518	-0,163	-0,046
-571,919	800,000	0,041	-0,104
-570,904	-65,581	-0,038	0,011
-569,890	-0,716	-0,075	-0,039
-568,875	-200,000	0,018	-0,085
-567,861	477,483	0,057	0,095
-566,846	-53,645	-0,036	-0,012
-565,831	19,144	-0,079	-0,046
-564,817	800,000	-0,069	-0,145
-563,802	16,753	-0,112	-0,065
-562,788	561,225	-0,123	-0,218
-561,773	800,000	0,030	0,064
-560,758	84,300	-0,051	0,041
-559,744	800,000	-0,014	0,029
-558,729	-31,650	0,057	-0,023
-557,715	-37,952	-0,025	-0,010
-556,700	800,000	0,056	-0,137
-555,685	3,385	0,061	-0,032
-554,671	464,801	-0,057	0,093
-553,656	208,122	-0,083	-0,095
-552,642	800,000	0,039	0,122
-551,627	-135,167	-0,077	-0,007
-550,612	800,000	0,079	0,162
-549,598	235,917	-0,060	0,072
-548,583	-50,711	-0,081	-0,028
-547,569	135,275	0,112	-0,106
-546,554	-200,000	-0,006	0,067
-545,539	-93,056	0,143	0,029
-544,525	-130,186	0,089	0,009
-543,510	-200,000	0,027	0,115
-542,496	-21,382	-0,061	-0,027
-541,481	-200,000	0,016	0,116
-540,466	71,957	0,059	0,045
-539,452	-111,710	0,063	-0,009
-538,437	51,599	-0,040	0,028
-537,423	-77,795	-0,096	-0,024
-536,408	94,959	0,071	0,059
-535,393	76,575	-0,066	0,051
-534,379	6,546	0,139	-0,075
-533,364	79,533	-0,109	-0,086
-532,350	361,156	0,052	-0,076
-531,335	221,869	0,075	-0,089
-530,321	-200,000	-0,001	0,092
-529,306	-200,000	0,001	0,006
-528,291	21,022	-0,153	-0,091
-527,277	223,000	-0,057	-0,067
-526,262	424,443	-0,016	0,025
-525,248	109,009	0,129	0,113
-524,233	305,139	-0,073	0,099
-523,218	-88,251	0,104	0,022
-522,204	-9,063	-0,098	-0,048
-521,189	-200,000	0,029	0,124
-520,175	-200,000	0,068	0,000
-519,160	-160,585	-0,193	0,007
-518,145	800,000	-0,035	-0,086
-517,131	-80,382	0,093	0,022
-516,116	277,249	0,050	-0,065
-515,102	-191,256	0,048	0,000
-514,087	800,000	-0,023	0,049
-513,072	482,773	-0,110	-0,184
-512,058	37,302	0,086	0,056
-511,043	-200,000	-0,008	0,080
-510,029	-86,170	0,074	-0,017
-509,014	-30,100	-0,064	0,026
-507,999	-200,000	0,006	0,095
-506,985	210,713	-0,050	-0,058
-505,970	138,647	-0,105	-0,101
-504,956	-94,255	-0,070	-0,014
-503,941	-200,000	-0,002	0,114
-502,926	274,629	-0,020	0,026
-501,912	800,000	0,020	-0,048
-500,897	800,000	0,031	-0,079
-499,883	-120,489	0,020	-0,002
-498,868	800,000	0,023	-0,051
-497,853	338,522	-0,063	-0,090
-496,839	-53,137	-0,031	0,010
-495,824	-172,660	-0,032	0,001
-494,810	25,957	-0,006	0,004
-493,795	81,456	0,042	-0,033
-492,781	171,538	0,073	0,077
-491,766	800,000	-0,029	0,068
-490,751	32,075	0,041	0,026
-489,737	800,000	0,019	0,052
-488,722	47,978	0,075	0,051
-487,708	31,512	-0,114	-0,072
-486,693	-22,338	-0,016	0,007
-485,678	159,850	-0,099	0,100
-484,664	-200,000	-0,005	0,072
-483,649	-200,000	0,002	0,006
-482,635	-131,899	0,112	0,010
-481,620	-200,000	-0,033	0,120
-480,605	22,379	0,053	-0,032
-479,591	-200,000	-0,014	0,061
-478,576	-200,000	-0,055	-0,181
-477,562	-158,845	0,152	0,006
-476,547	138,324	-0,043	-0,041
-475,532	-32,483	0,161	-0,065
-474,518	229,308	0,019	-0,022
-473,503	406,699	0,081	0,125
-472,489	-151,497	-0,110	0,006
-471,474	49,468	0,055	0,037
-470,459	800,000	0,040	0,107
-469,445	210,709	0,044	-0,051
-468,430	-200,000	-0,021	0,114
-467,416	-200,000	0,005	-0,084
-466,401	-200,000	-0,006	0,121
-465,386	-200,000	-0,016	0,169
-464,372	742,189	0,030	-0,059
-463,357	-50,447	-0,136	-0,047
-462,343	-90,980	0,172	-0,036
-461,328	459,937	0,060	-0,098
-460,313	-21,368	-0,088	-0,039
-459,299	-200,000	0,014	0,156
-458,284	59,071	0,060	-0,043
-457,270	-46,077	-0,021	0,007
-456,255	-67,011	-0,149	0,043
-455,241	-79,238	-0,049	0,012
-454,226	-59,669	0,061	-0,019
-453,211	-112,700	-0,071	0,010
-452,197	520,400	0,057	0,098
-451,182	-200,000	-0,007	0,194
-450,168	800,000	0,047	-0,133
-449,153	-44,545	-0,042	0,015
-448,138	1,339	0,114	-0,060
-447,124	-146,611	0,037	-0,002
-446,109	65,063	0,074	-0,054
-445,095	505,531	0,029	-0,049
-444,080	268,951	0,068	0,087
-443,065	274,246	-0,093	0,121
-442,051	800,000	0,073	-0,157
-441,036	800,000	-0,025	0,065
-440,022	-25,875	-0,067	-0,029
-439,007	178,692	-0,012	0,013
-437,992	-200,000	0,010	0,098
-436,978	-200,000	0,004	0,151
-435,963	155,036	-0,141	0,141
-434,949	-23,591	0,091	0,040
-433,934	-19,423	0,086	-0,039
-432,919	-200,000	0,006	-0,062
-431,905	-200,000	0,010	-0,060
-430,890	26,336	0,035	0,021
-429,876	-82,276	0,044	0,010
-428,861	-200,000	0,018	0,091
-427,846	238,821	0,018	-0,022
-426,832	-200,000	-0,016	-0,156
-425,817	800,000	-0,065	-0,151
-424,803	404,983	-0,030	-0,046
-423,788	-200,000	-0,012	0,047
-422,773	67,385	0,136	0,101
-421,759	431,078	-0,010	-0,016
-420,744	-200,000	-0,007	0,083
-419,730	34,618	-0,132	0,084
-418,715	13,686	-0,168	-0,095
-417,701	63,707	-0,078	0,057
-416,686	172,170	0,081	-0,085
-415,671	-80,892	0,182	0,044
-414,657	109,881	-0,140	-0,122
-413,642	-120,644	-0,112	-0,014
-412,628	-200,000	0,005	-0,038
-411,613	-87,066	0,053	-0,012
-410,598	-97,872	0,110	-0,021
-409,584	75,170	0,131	0,100
-408,569	-89,908	0,124	0,026
-407,555	-200,000	0,003	0,029
-406,540	-58,700	-0,088	0,027
-405,525	-59,978	-0,078	0,024
-404,511	132,196	0,094	-0,088
-403,496	134,389	-0,106	-0,100
-402,482	-104,366	-0,057	-0,009
-401,467	526,746	0,035	0,061
-400,452	500,845	0,082	0,138
-399,438	282,389	0,087	0,114
-398,423	757,667	-0,057	0,112
-397,409	71,648	-0,023	-0,018
-396,394	-12,672	0,126	0,059
-395,379	-20,062	0,062	-0,028
-394,365	-80,918	0,157	-0,038
-393,350	-29,914	0,109	0,045
-392,336	14,992	-0,041	0,023
-391,321	-4,928	0,095	-0,047
-390,306	-11,642	-0,114	-0,054
-389,292	-175,874	-0,039	-0,001
-388,277	800,000	-0,007	0,014
-387,263	-200,000	-0,010	-0,084
-386,248	-200,000	-0,009	0,060
-385,233	-200,000	-0,001	-0,098
-384,219	53,357	0,017	0,012
-383,204	-200,000	-0,013	-0,071
-382,190	148,377	0,013	0,013
-381,175	-56,115	0,103	0,033
-380,160	-133,980	0,048	0,004
-379,146	-103,912	-0,084	-0,014
-378,131	117,361	-0,100	-0,089
-377,117	-200,000	0,007	-0,027
-376,102	-200,000	-0,014	-0,087
-375,088	207,455	0,057	-0,065
-374,073	-117,459	0,124	0,016
-373,058	450,282	0,046	0,073
-372,044	179,108	0,085	0,090
-371,029	95,507	-0,090	0,075
-370,015	-200,000	0,031	0,142
-369,000	-103,156	0,112	-0,019
-367,985	355,179	-0,058	-0,084
-366,971	-90,844	0,037	-0,008
-365,956	-200,000	-0,002	0,026
-364,942	219,309	0,036	0,042
-363,927	800,000	0,045	0,112
-362,912	211,652	-0,127	-0,145
-361,898	205,947	-0,050	-0,056
-360,883	42,147	-0,122	-0,080
-359,869	-200,000	0,052	0,207
-358,854	-200,000	0,013	-0,151
-357,839	-200,000	0,016	-0,092
-356,825	493,943	-0,036	0,060
-355,810	-14,347	0,024	-0,011
-354,796	-200,000	0,006	-0,146
-353,781	-200,000	-0,008	-0,198
-352,766	170,569	0,016	0,017
-351,752	-6,660	0,077	-0,038
-350,737	-58,301	-0,115	-0,036
-349,723	-84,770	0,020	-0,004
-348,708	-100,176	0,013	0,002
-347,693	-200,000	0,005	-0,043
-346,679	-9,938	-0,090	-0,044
-345,664	800,000	-0,041	-0,088
-344,650	735,866	-0,024	0,046
-343,635	-176,537	0,140	0,003
-342,620	-130,787	-0,155	-0,015
-341,606	63,603	0,025	-0,018
-340,591	800,000	0,053	-0,119
-339,577	17,825	-0,079	-0,045
-338,562	-106,497	0,080	0,013
-337,548	800,000	-0,041	0,126
-336,533	172,692	-0,082	0,086
-335,518	-200,000	-0,003	0,089
-334,504	-126,946	0,017	-0,002
-333,489	-29,822	-0,059	-0,024
-332,475	-19,682	-0,053	-0,024
-331,460	-52,617	0,092	0,031
-330,445	800,000	-0,018	-0,048
-329,431	-84,087	-0,073	-0,017
-328,416	800,000	0,063	-0,145
-327,402	174,477	-0,045	0,047
-326,387	-200,000	-0,016	-0,080
-325,372	-200,000	0,009	-0,085
-324,358	155,342	-0,062	-0,062
-323,343	-29,456	-0,015	-0,006
-322,329	-48,268	0,043	-0,015
-321,314	39,959	-0,076	0,049
-320,299	800,000	0,064	0,130
-319,285	741,562	0,053	0,103
-318,270	-200,000	-0,015	0,070
-317,256	-200,000	0,005	-0,094
-316,241	478,994	0,012	-0,019
-315,226	3,958	0,054	0,029
-314,212	195,637	-0,097	-0,108
-313,197	800,000	0,056	0,165
-312,183	529,658	-0,008	-0,014
-311,168	800,000	0,028	-0,066
-310,153	-10,355	-0,046	-0,022
-309,139	-200,000	-0,001	-0,053
-308,124	-200,000	0,002	-0,024
-307,110	-144,070	0,099	-0,007
-306,095	-200,000	0,055	0,192
-305,080	-1,190	0,153	-0,078
-304,066	-20,584	-0,053	0,024
-303,051	-200,000	0,009	-0,077
-302,037	402,281	-0,021	-0,032
-301,022	59,687	0,016	-0,012
-300,008	-82,509	-0,107	0,025
-298,993	578,016	-0,009	0,016
-297,978	35,914	0,066	0,042
-296,964	-9,849	0,150	-0,072
-295,949	664,645	-0,040	-0,076
-294,935	87,510	-0,120	-0,096
-293,920	800,000	-0,036	-0,089
-292,905	-200,000	0,008	-0,029
-291,891	-113,599	0,062	0,009
-290,876	-200,000	0,018	0,143
-289,862	-200,000	-0,012	0,055
-288,847	800,000	-0,076	-0,153
-287,832	-200,000	-0,032	-0,123
-286,818	197,850	-0,027	-0,030
-285,803	215,952	-0,022	0,026
-284,789	-56,945	0,178	0,057
-283,774	96,585	-0,037	0,030
-282,759	-38,608	-0,082	0,031
-281,745	-200,000	0,025	0,081
-280,730	800,000	0,040	-0,107
-279,716	800,000	0,018	-0,054
-278,701	-70,975	0,040	0,011
-277,686	-132,623	-0,028	-0,003
-276,672	-200,000	-0,013	0,136
-275,657	-200,000	0,007	-0,098
-274,643	387,537	-0,045	-0,067
-273,628	56,479	0,030	0,021
-272,613	140,904	-0,039	0,037
-271,599	122,147	0,139	0,125
-270,584	-200,000	0,006	-0,098
-269,570	-200,000	-0,003	0,034
-268,555	-200,000	-0,021	0,091
-267,540	-60,583	-0,066	0,020
-266,526	-27,488	-0,106	-0,044
-265,511	-48,597	-0,089	-0,031
-264,497	-147,328	0,079	-0,005
-263,482	140,991	0,034	-0,032
-262,467	-200,000	-0,003	-0,075
-261,453	-80,507	-0,182	-0,044
-260,438	-200,000	-0,001	-0,084
-259,424	486,841	-0,079	0,131
-258,409	11,982	-0,099	-0,055
-257,395	800,000	-0,080	0,197
-256,380	-200,000	-0,003	0,051
-255,365	-200,000	-0,032	0,133
-254,351	-10,045	0,083	0,040
-253,336	-47,336	-0,041	0,014
-252,322	82,457	0,046	0,036
-251,307	125,013	-0,085	-0,077
-250,292	-74,260	0,048	-0,012
-249,278	243,840	0,082	0,099
-248,263	140,793	0,110	-0,105
-247,249	-200,000	-0,004	0,048
-246,234	-200,000	-0,029	-0,114
-245,219	34,967	0,064	0,041
-244,205	-140,464	-0,138	0,010
-243,190	-200,000	0,020	0,086
-242,176	62,887	0,086	-0,062
-241,161	229,800	-0,064	0,076
-240,146	105,523	-0,132	0,112
-239,132	-200,000	0,003	0,083
-238,117	-144,262	-0,066	-0,004
-237,103	69,420	0,038	0,028
-236,088	-80,478	-0,068	-0,016
-235,073	-200,000	0,013	0,061
-234,059	-200,000	0,018	-0,095
-233,044	556,054	-0,035	0,061
-232,030	-200,000	-0,000	-0,023
-231,015	107,645	-0,044	0,038
-230,000	-39,978	0,146	-0,055
-228,986	-171,880	0,010	0,000
-227,971	4,796	0,028	0,015
-226,957	-83,666	-0,123	0,028
-225,942	-101,856	0,036	-0,006
-224,927	293,341	0,079	0,105
-223,913	614,807	-0,034	-0,062
-222,898	94,703	0,020	-0,016
-221,884	-200,000	0,008	-0,127
-220,869	59,082	0,157	0,112
-219,855	-62,913	-0,140	-0,042
-218,840	83,613	0,047	-0,037
-217,825	34,771	-0,070	0,044
-216,811	225,355	-0,027	0,031
-215,796	230,202	-0,076	-0,090
-214,782	221,470	0,013	0,015
-213,767	-12,515	0,083	0,039
-212,752	-132,573	0,133	-0,012
-211,738	-200,000	0,048	0,153
-210,723	32,424	-0,101	0,063
-209,709	-74,409	-0,151	-0,039
-208,694	800,000	0,031	0,097
-207,679	85,456	0,061	0,048
-206,665	180,680	0,061	-0,065
-205,650	-35,587	-0,005	-0,002
-204,636	-200,000	0,020	0,069
-203,621	800,000	0,014	0,029
-202,606	185,736	0,079	-0,085
-201,592	44,138	0,074	-0,049
-200,577	-19,430	-0,112	-0,050
-199,563	74,547	0,054	0,041
-198,548	-200,000	0,008	0,117
-197,533	247,118	0,071	0,086
-196,519	-200,000	0,002	0,020
-195,504	-139,562	-0,039	-0,003
-194,490	-3,340	-0,145	0,073
-193,475	-200,000	-0,008	-0,039
-192,460	-70,338	0,124	-0,034
-191,446	411,264	0,039	0,060
-190,431	-139,658	0,056	0,004
-189,417	631,416	-0,028	-0,052
-188,402	-200,000	0,010	0,054
-187,387	7,676	-0,028	0,015
-186,373	14,922	0,149	-0,084
-185,358	-200,000	0,017	-0,108
-184,344	800,000	0,049	-0,125
-183,329	65,657	0,011	0,008
-182,315	-200,000	0,006	0,053
-181,300	197,768	0,077	-0,085
-180,285	800,000	0,009	-0,021
-179,271	-200,000	-0,048	-0,201
-178,256	115,897	0,076	-0,067
-177,242	-200,000	-0,004	0,182
-176,227	800,000	0,013	-0,028
-175,212	-55,481	-0,104	0,034
-174,198	-40,266	-0,086	0,032
-173,183	431,992	-0,040	0,062
-172,169	143,720	-0,096	-0,092
-171,154	72,424	0,113	0,085
-170,139	635,233	0,054	0,099
-169,125	-142,313	0,095	0,007
-168,110	-200,000	0,011	0,098
-167,096	91,049	-0,049	0,039
-166,081	-73,336	-0,052	-0,014
-165,066	-102,711	-0,104	0,018
-164,052	280,478	-0,044	-0,057
-163,037	37,468	0,174	-0,111
-162,023	-103,323	-0,057	-0,010
-161,008	-200,000	0,006	0,150
-159,993	309,818	0,107	0,144
-158,979	37,264	-0,017	0,011
-157,964	-200,000	-0,005	0,038
-156,950	494,857	0,034	-0,057
-155,935	698,970	-0,075	0,142
-154,920	-48,444	-0,047	-0,016
-153,906	-70,636	0,158	-0,043
-152,891	-107,489	-0,096	-0,015
-151,877	-128,749	-0,053	-0,005
-150,862	-135,725	-0,116	-0,010
-149,847	6,547	0,115	-0,061
-148,833	151,052	0,039	0,039
-147,818	-200,000	0,012	-0,049
-146,804	-21,790	-0,012	0,005
-145,789	-200,000	0,004	0,033
-144,775	25,071	-0,050	-0,030
-143,760	800,000	0,018	0,042
-142,745	-19,936	0,089	-0,040
-141,731	-53,154	-0,148	-0,049
-140,716	800,000	0,020	-0,047
-139,702	-59,984	0,137	0,042
-138,687	800,000	-0,028	-0,075
-137,672	38,261	-0,135	0,087
-136,658	513,455	-0,012	-0,019
-135,643	-93,747	-0,100	0,020
-134,629	-79,561	-0,054	0,013
-133,614	-200,000	-0,010	-0,122
-132,599	-200,000	-0,022	0,100
-131,585	-126,756	-0,089	-0,009
-130,570	132,316	0,029	0,027
-129,556	-3,683	0,025	0,013
-128,541	-200,000	0,003	-0,097
-127,526	-198,855	0,119	0,000
-126,512	800,000	0,028	0,085
-125,497	-127,783	0,183	-0,019
-124,483	-173,254	0,139	0,003
-123,468	-200,000	-0,005	0,032
-122,453	800,000	-0,026	0,055
-121,439	800,000	-0,037	-0,083
-120,424	506,810	0,103	-0,172
-119,410	138,912	-0,053	-0,050
-118,395	800,000	0,040	-0,088
-117,380	-200,000	0,005	0,084
-116,366	-13,056	-0,096	0,045
-115,351	-200,000	0,009	-0,123
-114,337	-200,000	0,006	0,042
-113,322	106,625	0,057	-0,048
-112,307	-114,848	-0,038	0,005
-111,293	-200,000	-0,002	0,144
-110,278	427,014	-0,084	-0,130
-109,264	187,981	0,106	0,114
-108,249	46,154	-0,145	-0,096
-107,234	252,086	0,049	0,060
-106,220	668,711	0,079	-0,147
-105,205	-200,000	-0,002	0,014
-104,191	1,324	-0,077	0,040
-103,176	-200,000	-0,013	0,130
-102,162	800,000	-0,022	0,046
-101,147	403,978	-0,085	-0,129
-100,132	-137,754	-0,092	-0,007
-99,118	75,953	0,068	-0,051
-98,103	-200,000	-0,022	0,119
-97,089	-200,000	0,010	0,037
-96,074	-143,830	0,138	0,009
-95,059	800,000	0,007	-0,022
-94,045	-200,000	-0,004	-0,021
-93,030	800,000	-0,021	-0,067
-92,016	121,488	-0,132	-0,118
-91,001	800,000	0,039	-0,086
-89,986	-129,905	-0,070	-0,007
-88,972	16,541	-0,047	-0,027
-87,957	-200,000	-0,017	0,064
-86,943	194,607	0,074	0,080
-85,928	274,225	-0,017	-0,022
-84,913	410,708	-0,026	-0,039
-83,899	-200,000	0,006	0,028
-82,884	-200,000	-0,002	0,182
-81,870	25,620	-0,084	-0,050
-80,855	370,188	0,023	-0,033
-79,840	12,302	-0,024	-0,013
-78,826	579,961	-0,045	-0,079
-77,811	67,478	-0,086	0,063
-76,797	341,214	-0,052	-0,074
-75,782	-62,414	0,032	0,009
-74,767	-200,000	-0,072	0,000
-73,753	460,543	-0,081	0,130
-72,738	-7,738	-0,200	-0,097
-71,724	89,728	0,065	0,052
-70,709	-5,808	-0,044	0,021
-69,694	-200,000	-0,004	0,066
-68,680	-38,379	0,038	-0,014
-67,665	-162,538	-0,101	0,004
-66,651	356,351	-0,052	0,074
-65,636	-74,630	-0,057	0,015
-64,622	-74,891	0,034	-0,009
-63,607	742,268	-0,071	-0,137
-62,592	14,059	-0,026	-0,015
-61,578	-100,666	0,076	0,013
-60,563	48,692	-0,079	-0,053
-59,549	81,556	0,190	0,147
-58,534	70,046	-2,836	-2,098
-57,519	-10,473	0,552	-0,261
-56,505	-200,000	-1,604	-5,551
-55,490	443,023	1,334	2,105
-54,476	800,000	5,245	11,359
-53,461	-200,000	23,083	348,648
-52,446	800,000	765,151	2265,897
-51,432	497,673	1643,688	2723,806
-50,417	93,421	1600,109	1298,152
-49,403	61,138	1255,637	893,116
-48,388	21,266	1007,748	585,531
-47,373	18,480	975,355	557,583
-46,359	11,879	962,577	528,868
-45,344	7,770	959,177	513,653
-44,330	8,180	956,902	513,743
-43,315	7,280	955,132	509,859
-42,300	7,155	954,344	509,015
-41,286	7,176	953,260	508,483
-40,271	7,174	952,213	507,898
-39,257	7,193	951,231	507,415
-38,242	7,201	950,138	506,840
-37,227	7,172	949,690	506,486
-36,213	7,129	948,915	505,914
-35,198	7,167	947,951	505,502
-34,184	7,199	947,197	505,184
-33,169	7,134	946,223	504,435
-32,154	7,244	945,367	504,311
-31,140	7,241	944,558	503,852
-30,125	7,244	943,844	503,458
-29,111	7,156	943,109	502,765
-28,096	7,197	942,643	502,626
-27,082	7,226	941,782	502,242
-26,067	7,175	941,113	501,702
-25,052	7,057	940,464	500,960
-24,038	7,166	939,555	500,805
-23,023	7,104	938,988	500,284
-22,009	7,159	938,521	500,191
-20,994	7,177	937,749	499,817
-19,979	7,147	937,247	499,433
-18,965	7,199	936,198	499,021
-17,950	7,116	935,878	498,568
-16,936	7,110	935,390	498,269
-15,921	7,158	934,605	497,981
-14,906	7,014	933,986	497,176
-13,892	7,015	933,392	496,845
-12,877	7,058	932,613	496,544
-11,863	7,043	932,133	496,222
-10,848	7,081	931,705	496,094
-9,833	7,110	931,056	495,821
-8,819	7,120	930,468	495,520
-7,804	7,065	929,729	494,934
-6,790	7,063	929,218	494,636
-5,775	7,075	928,525	494,283
-4,760	7,108	928,048	494,113
-3,746	7,088	927,401	493,688
-2,731	6,919	926,682	492,756
-1,717	6,908	926,086	492,384
-0,702	6,929	925,424	492,080
0,313	6,747	924,712	491,873
1,327	10,102	922,322	501,031
2,342	18,613	771,087	440,933
3,356	13,450	442,581	245,379
4,371	-12,525	309,404	144,192
5,386	-16,155	292,069	132,469
6,400	-18,009	285,853	127,822
7,415	-18,456	283,455	126,303
8,429	-19,209	281,698	124,782
9,444	-19,133	280,597	124,356
10,459	-18,977	280,007	124,233
11,473	-19,072	279,428	123,874
12,488	-19,038	279,004	123,708
13,502	-18,987	278,499	123,522
14,517	-18,843	278,024	123,437
15,531	-18,927	277,677	123,192
16,546	-18,749	277,171	123,125
17,561	-18,863	276,829	122,854
18,575	-18,598	276,566	122,978
19,590	-18,957	276,171	122,451
20,604	-18,713	275,960	122,578
21,619	-18,743	275,466	122,319
22,634	-18,711	275,150	122,198
23,648	-18,849	274,942	121,965
24,663	-18,829	274,773	121,897
25,677	-18,742	274,327	121,771
26,692	-18,702	273,989	121,647
27,707	-18,831	273,863	121,460
28,721	-18,712	273,596	121,442
29,736	-18,673	273,230	121,306
30,750	-18,827	272,967	121,034
31,765	-18,596	272,505	121,034
32,780	-18,561	272,464	121,037
33,794	-18,823	272,200	120,665
34,809	-18,741	272,011	120,647
35,823	-18,741	271,686	120,492
36,838	-18,612	271,500	120,518
37,853	-18,482	271,235	120,511
38,867	-18,808	271,059	120,119
39,882	-18,797	270,696	119,958
40,896	-18,706	270,486	119,939
41,911	-18,564	270,231	119,946
42,926	-18,652	269,981	119,744
43,940	-18,802	269,853	119,537
44,955	-18,860	269,574	119,350
45,969	-18,705	269,347	119,381
46,984	-18,668	269,189	119,335
47,999	-18,652	269,100	119,300
49,013	-18,545	268,830	119,267
50,028	-18,550	268,571	119,137
51,042	-18,507	268,290	119,042
52,057	-18,506	268,014	118,909
53,071	-18,547	267,782	118,758
54,086	-18,485	267,565	118,708
55,101	-18,583	267,600	118,623
56,115	-18,763	267,261	118,298
57,130	-18,684	266,924	118,210
58,144	-18,771	266,639	117,995
59,159	-18,691	266,295	117,904
60,174	-18,835	266,141	117,695
61,188	-18,558	265,891	117,826
62,203	-18,740	265,934	117,669
63,217	-18,551	265,398	117,592
64,232	-18,727	265,297	117,378
65,247	-18,600	265,060	117,377
66,261	-18,729	264,768	117,121
67,276	-18,764	264,654	117,028
68,290	-18,729	264,394	116,934
69,305	-18,495	264,147	117,026
70,320	-18,503	263,813	116,860
71,334	-18,714	263,772	116,642
72,349	-18,688	263,548	116,555
73,363	-18,638	263,288	116,475
74,378	-18,776	263,069	116,244
75,393	-18,423	262,800	116,431
76,407	-18,419	262,480	116,282
77,422	-18,828	262,378	115,861
78,436	-18,527	262,045	115,972
79,451	-18,807	261,824	115,615
80,466	-18,895	261,790	115,511
81,480	-18,802	261,471	115,443
82,495	-18,575	261,203	115,516
83,509	-18,701	260,951	115,282
84,524	-18,493	260,664	115,329
85,539	-18,828	260,748	115,059
86,553	-18,543	260,352	115,127
87,568	-18,617	260,276	115,017
88,582	-18,665	259,981	114,834
89,597	-18,635	259,903	114,816
90,611	-18,732	259,481	114,534
91,626	-18,687	259,405	114,530
92,641	-18,732	259,246	114,409
93,655	-18,655	259,031	114,373
94,670	-18,560	258,621	114,265
95,684	-18,759	258,581	114,062
96,699	-18,841	258,474	113,932
97,714	-18,580	258,117	113,995
98,728	-18,417	257,986	114,069
99,743	-18,608	257,898	113,853
100,757	-18,534	257,358	113,669
101,772	-18,537	257,329	113,643
102,787	-18,576	256,990	113,449
103,801	-18,611	256,920	113,378
104,816	-18,704	256,678	113,180
105,830	-18,787	256,498	113,017
106,845	-18,521	256,178	113,099
107,860	-18,684	255,958	112,849
108,874	-18,792	255,808	112,679
109,889	-18,681	255,720	112,727
110,903	-18,467	255,300	112,718
111,918	-18,576	255,324	112,624
112,933	-18,517	255,068	112,551
113,947	-18,645	254,882	112,348
114,962	-18,722	254,727	112,203
115,976	-18,670	254,402	112,095
116,991	-18,564	254,191	112,084
118,006	-18,547	254,093	112,045
119,020	-18,351	253,907	112,122
120,035	-18,734	253,838	111,752
121,049	-18,738	253,569	111,620
122,064	-18,747	253,277	111,473
123,079	-18,744	253,279	111,467
124,093	-18,628	252,937	111,406
125,108	-18,479	252,715	111,426
126,122	-18,623	252,634	111,257
127,137	-18,477	252,404	111,271
128,151	-18,407	252,258	111,257
129,166	-18,394	252,009	111,149
130,181	-18,273	251,698	111,104
131,195	-18,753	251,617	110,649
132,210	-18,495	251,407	110,767
133,224	-18,569	251,059	110,541
134,239	-18,543	251,093	110,567
135,254	-18,512	250,670	110,398
136,268	-18,682	250,606	110,216
137,283	-18,558	250,466	110,250
138,297	-18,346	250,193	110,299
139,312	-18,522	250,054	110,079
140,327	-18,683	249,837	109,838
141,341	-18,711	249,614	109,706
142,356	-18,624	249,356	109,656
143,370	-18,578	249,107	109,576
144,385	-18,566	248,970	109,516
145,400	-18,374	248,782	109,585
146,414	-18,520	248,675	109,405
147,429	-18,573	248,354	109,210
148,443	-18,509	248,095	109,140
149,458	-18,562	248,019	109,052
150,473	-18,686	248,009	108,934
151,487	-18,760	247,764	108,755
152,502	-18,508	247,604	108,886
153,516	-18,496	247,292	108,749
154,531	-18,670	247,215	108,559
155,546	-18,692	246,992	108,434
156,560	-18,533	246,646	108,404
157,575	-18,600	246,755	108,387
158,589	-18,538	246,314	108,236
159,604	-18,530	246,145	108,158
160,619	-18,655	246,023	107,991
161,633	-18,746	245,883	107,844
162,648	-18,489	245,631	107,938
163,662	-18,351	245,477	107,975
164,677	-18,645	245,474	107,720
165,692	-18,452	245,214	107,756
166,706	-18,525	244,880	107,539
167,721	-18,519	244,742	107,474
168,735	-18,647	244,813	107,390
169,750	-18,526	244,566	107,372
170,764	-18,491	244,403	107,319
171,779	-18,698	244,275	107,083
172,794	-18,344	244,067	107,275
173,808	-18,341	243,713	107,112
174,823	-18,377	243,693	107,064
175,837	-18,344	243,473	106,984
176,852	-18,197	243,317	107,028
177,867	-18,613	243,167	106,610
178,881	-18,446	242,862	106,603
179,896	-18,685	242,788	106,366
180,910	-18,580	242,586	106,354
181,925	-18,628	242,489	106,263
182,940	-18,653	242,171	106,093
183,954	-18,473	241,976	106,145
184,969	-18,464	241,898	106,109
185,983	-18,554	241,667	105,925
186,998	-18,644	241,612	105,818
188,013	-18,497	241,370	105,822
189,027	-18,536	241,226	105,718
190,042	-18,553	240,945	105,572
191,056	-18,552	240,727	105,467
192,071	-18,564	240,621	105,402
193,086	-18,531	240,508	105,370
194,100	-18,567	240,350	105,262
195,115	-18,425	240,105	105,260
196,129	-18,645	239,900	104,983
197,144	-18,548	239,712	104,970
198,159	-18,573	239,360	104,786
199,173	-18,655	239,401	104,729
200,188	-18,576	239,162	104,679
201,202	-18,470	239,051	104,706
202,217	-18,452	238,936	104,661
203,232	-18,482	238,713	104,530
204,246	-18,394	238,389	104,449
205,261	-18,701	238,320	104,163
206,275	-17,212	238,806	105,564
207,290	-12,259	240,356	110,247
208,304	-5,945	242,398	116,316
209,319	-2,216	243,397	119,827
210,334	-1,145	243,640	120,809
211,348	-0,161	243,853	121,706
212,363	0,204	243,647	121,890
213,377	0,529	243,661	122,151
214,392	0,499	243,664	122,117
215,407	0,795	243,668	122,349
216,421	1,121	243,341	122,438
217,436	1,105	243,246	122,367
218,450	1,106	243,076	122,272
219,465	1,308	242,962	122,367
220,480	1,234	242,749	122,188
221,494	0,992	242,763	121,989
222,509	0,632	242,395	121,502
223,523	0,532	242,210	121,317
224,538	0,569	241,925	121,194
225,553	0,352	241,710	120,901
226,567	0,347	241,536	120,798
227,582	0,412	241,436	120,790
228,596	0,201	241,352	120,567
229,611	0,361	241,095	120,556
230,626	0,474	240,945	120,562
231,640	0,543	240,756	120,512
232,655	0,335	240,806	120,359
233,669	0,468	240,275	120,189
234,684	0,384	240,381	120,164
235,699	0,460	240,222	120,135
236,713	0,336	240,092	119,960
237,728	0,696	239,896	120,140
238,742	0,537	239,658	119,883
239,757	0,401	239,684	119,776
240,772	0,296	239,411	119,545
241,786	0,520	239,168	119,592
242,801	0,395	239,066	119,430
243,815	0,299	238,996	119,308
244,830	0,432	238,783	119,297
245,844	0,522	238,662	119,298
246,859	0,392	238,355	119,030
247,874	0,569	238,245	119,106
248,888	0,386	238,177	118,915
249,903	0,228	237,913	118,648
250,917	0,444	237,913	118,809
251,932	0,558	237,739	118,801
252,947	0,579	237,617	118,746
253,961	0,527	237,374	118,573
254,976	0,581	237,162	118,499
255,990	0,443	237,187	118,393
257,005	0,375	236,866	118,168
258,020	0,433	236,700	118,120
259,034	0,451	236,591	118,070
260,049	0,441	236,517	118,014
261,063	0,349	236,249	117,797
262,078	0,333	236,186	117,743
263,093	0,290	236,041	117,626
264,107	0,432	235,957	117,686
265,122	0,701	235,522	117,669
266,136	0,398	235,529	117,425
267,151	0,436	235,397	117,378
268,166	0,646	235,181	117,424
269,180	0,544	234,899	117,193
270,195	0,513	234,789	117,103
271,209	0,308	234,907	116,992
272,224	0,403	234,675	116,940
273,239	0,566	234,483	116,961
274,253	0,584	234,287	116,867
275,268	0,340	234,167	116,607
276,282	0,408	233,889	116,511
277,297	0,363	233,880	116,461
278,312	0,331	233,729	116,351
279,326	0,317	233,606	116,268
280,341	0,508	233,342	116,274
281,355	0,676	233,132	116,289
282,370	0,441	233,129	116,095
283,384	0,501	232,893	116,014
284,399	0,539	232,740	115,956
285,414	0,577	232,592	115,902
286,428	0,434	232,657	115,813
287,443	0,373	232,451	115,654
288,457	0,544	232,238	115,669
289,472	0,524	232,041	115,545
290,487	0,655	231,804	115,518
291,501	0,515	231,710	115,353
292,516	0,543	231,564	115,292
293,530	0,633	231,480	115,309
294,545	0,332	231,351	115,003
295,560	0,595	231,226	115,132
296,574	0,687	230,954	115,057
297,589	0,636	230,843	114,953
298,603	0,699	230,608	114,874
299,618	0,584	230,595	114,769
300,633	0,791	230,621	114,930
301,647	0,784	230,282	114,746
302,662	0,715	230,213	114,648
303,676	0,874	230,034	114,670
304,691	0,650	229,840	114,393
305,706	0,742	229,632	114,349
306,720	0,773	229,692	114,392
307,735	0,675	229,445	114,184
308,749	0,877	229,337	114,274
309,764	0,791	229,167	114,113
310,779	0,750	229,032	114,005
311,793	0,760	228,826	113,900
312,808	0,709	228,715	113,796
313,822	0,550	228,460	113,539
314,837	0,959	228,331	113,773
315,852	0,904	228,082	113,597
316,866	0,886	228,173	113,619
317,881	0,934	228,032	113,576
318,895	0,759	227,881	113,358
319,910	0,789	227,704	113,282
320,925	0,887	227,439	113,214
321,939	0,808	227,537	113,193
322,954	0,827	227,321	113,090
323,968	0,587	227,212	112,846
324,983	0,910	227,024	112,984
325,997	0,789	226,878	112,811
327,012	0,836	226,663	112,729
328,027	0,701	226,456	112,515
329,041	0,742	226,494	112,555
330,056	0,781	226,286	112,471
331,070	0,872	226,152	112,462
332,085	0,841	225,895	112,301
333,100	0,912	225,767	112,280
334,114	0,968	225,643	112,251
335,129	0,857	225,466	112,070
336,143	0,910	225,330	112,031
337,158	1,154	225,261	112,169
338,173	0,833	225,073	111,827
339,187	0,999	224,861	111,834
340,202	1,032	224,813	111,825
341,216	0,873	224,701	111,641
342,231	0,939	224,392	111,527
343,246	0,870	224,347	111,444
344,260	0,963	224,246	111,452
345,275	1,033	224,081	111,412
346,289	0,770	224,171	111,252
347,304	0,780	223,944	111,137
348,319	0,774	223,717	111,010
349,333	0,828	223,546	110,956
350,348	0,762	223,369	110,809
351,362	0,971	223,386	110,962
352,377	1,219	223,045	110,965
353,392	0,944	223,064	110,762
354,406	1,030	222,823	110,695
355,421	192,545	1311,715	1377,671
356,435	154,166	1444,224	1377,496
