DTS Sentinel unit serial number:	SN410029Multiplexer serial number:	ORYXHardware model number:	OX2-SRSoftware version number:	ORYX F/W v4,00 Oryx Data Collector v3.7.2.0data status	okinstallation	B5 Nyhavnadifferential loss correction	single-endedforward channel	channel 2reverse channel	N/Adate	2023/12/14time	00:37:13forward acquisition time	300,00reverse acquisition time	0,00gamma	499,1914k internal	0,3155k external	0,3155temperature offset calibration	1,0000default loss term (dB/km)	0,3820temperature slope calibration	1,0000multiplexer offset coefficient	1,0000multiplexer slope coefficient	1,0000fibre end	0,00T internal ref (°C)	8,67T ext. ref 1 (°C)	-7,23T ext. ref 2 (°C)	-7,28length (m)	temperature (°C)	Stokes	anti-Stokes-744,400	-132,058	0,258	0,024
-743,385	-77,627	-0,352	-0,089
-742,371	400,493	0,100	0,155
-741,356	-82,165	-0,483	-0,115
-740,342	10,236	0,107	0,060
-739,327	-133,672	-0,595	-0,054
-738,312	37,725	0,206	0,134
-737,298	-42,883	-0,343	-0,128
-736,283	800,000	0,018	-0,047
-735,269	-43,504	-0,215	-0,080
-734,254	62,459	0,228	0,168
-733,239	-85,084	-0,464	-0,106
-732,225	58,722	0,157	0,113
-731,210	-40,722	-0,081	0,031
-730,196	-87,837	-0,046	-0,010
-729,181	-31,768	-0,064	-0,026
-728,167	283,780	-0,105	0,140
-727,152	62,936	-0,046	-0,034
-726,137	129,561	-0,076	0,072
-725,123	57,995	-0,077	-0,056
-724,108	27,874	-0,043	-0,027
-723,094	-200,000	0,014	-0,104
-722,079	-41,378	-0,109	0,041
-721,064	-92,115	-0,044	-0,009
-720,050	85,259	0,058	-0,047
-719,035	-200,000	0,020	0,099
-718,021	-21,706	-0,120	0,054
-717,006	800,000	-0,021	-0,063
-715,991	277,674	0,035	-0,046
-714,977	-47,069	-0,065	-0,023
-713,962	-24,989	0,216	0,094
-712,948	6,874	0,027	0,015
-711,933	545,075	0,064	-0,113
-710,918	222,822	-0,025	-0,030
-709,904	-95,803	-0,033	0,006
-708,889	-200,000	0,025	-0,111
-707,875	7,033	-0,110	0,060
-706,860	391,786	0,027	0,042
-705,845	-110,892	0,196	0,029
-704,831	-117,597	-0,079	0,010
-703,816	109,329	-0,070	0,062
-702,802	-200,000	0,007	-0,046
-701,787	-187,364	-0,243	0,002
-700,772	-118,963	-0,151	-0,019
-699,758	-200,000	0,004	-0,074
-698,743	207,789	0,024	-0,028
-697,729	-166,701	-0,064	0,002
-696,714	708,029	-0,096	-0,188
-695,699	-200,000	0,009	-0,135
-694,685	-72,774	-0,092	0,025
-693,670	34,930	-0,113	0,073
-692,656	37,533	0,121	0,079
-691,641	-195,281	-0,107	-0,001
-690,627	-74,632	0,067	-0,018
-689,612	-0,696	0,111	-0,058
-688,597	-200,000	-0,012	0,069
-687,583	63,843	0,055	0,041
-686,568	-200,000	0,000	0,146
-685,554	363,693	-0,059	-0,087
-684,539	366,287	-0,030	-0,044
-683,524	-108,819	-0,133	0,021
-682,510	502,057	-0,008	-0,014
-681,495	-71,657	-0,044	-0,012
-680,481	445,394	-0,030	-0,049
-679,466	-55,298	-0,132	-0,043
-678,451	-26,335	0,078	0,034
-677,437	-200,000	0,012	-0,134
-676,422	-200,000	0,023	0,090
-675,408	196,434	-0,140	0,157
-674,393	-200,000	0,005	-0,042
-673,378	7,633	-0,136	-0,075
-672,364	-44,165	-0,157	-0,058
-671,349	-200,000	0,007	0,147
-670,335	800,000	0,026	0,054
-669,320	-138,376	0,049	-0,004
-668,305	-126,958	-0,105	-0,011
-667,291	-200,000	0,007	0,098
-666,276	-48,891	-0,251	-0,088
-665,262	-200,000	0,002	-0,158
-664,247	-200,000	-0,008	-0,233
-663,232	154,373	-0,032	-0,032
-662,218	-200,000	-0,004	0,058
-661,203	-200,000	0,006	-0,054
-660,189	-200,000	0,042	0,172
-659,174	-200,000	-0,042	-0,150
-658,159	-200,000	0,006	0,110
-657,145	270,155	-0,074	-0,096
-656,130	800,000	-0,055	-0,141
-655,116	22,431	0,143	-0,086
-654,101	148,207	-0,093	-0,092
-653,086	-85,070	-0,118	0,027
-652,072	654,162	0,069	-0,130
-651,057	137,796	-0,072	0,070
-650,043	414,133	0,017	-0,026
-649,028	-200,000	-0,007	0,109
-648,014	31,611	0,084	-0,053
-646,999	800,000	-0,028	0,066
-645,984	-200,000	-0,012	-0,048
-644,970	-58,330	-0,067	0,021
-643,955	-200,000	-0,019	0,084
-642,941	-200,000	-0,059	0,000
-641,926	-45,566	-0,060	0,022
-640,911	99,196	0,077	0,066
-639,897	637,573	0,043	0,081
-638,882	589,604	0,040	0,074
-637,868	800,000	-0,044	-0,096
-636,853	114,276	-0,145	0,129
-635,838	-45,463	-0,117	-0,042
-634,824	-79,644	-0,127	0,031
-633,809	191,234	-0,015	0,016
-632,795	150,480	-0,062	-0,062
-631,780	22,428	-0,139	-0,083
-630,765	-200,000	-0,072	-0,000
-629,751	184,007	-0,089	-0,097
-628,736	84,487	0,101	-0,081
-627,722	177,278	0,062	-0,066
-626,707	90,943	0,007	-0,006
-625,692	-200,000	0,018	0,079
-624,678	344,809	-0,078	0,113
-623,663	-15,585	0,008	-0,004
-622,649	-5,581	-0,033	0,016
-621,634	-18,507	0,031	-0,014
-620,619	-200,000	-0,019	-0,079
-619,605	800,000	-0,045	-0,142
-618,590	292,950	0,033	0,044
-617,576	214,255	0,037	0,043
-616,561	312,440	0,065	-0,090
-615,546	-99,953	-0,074	-0,013
-614,532	-200,000	0,005	-0,064
-613,517	-200,000	0,015	0,105
-612,503	-163,872	0,062	-0,002
-611,488	-200,000	0,016	-0,121
-610,474	265,098	0,023	-0,030
-609,459	-78,592	-0,092	0,023
-608,444	63,044	0,021	0,016
-607,430	-68,646	-0,175	-0,049
-606,415	21,352	-0,052	-0,031
-605,401	-200,000	-0,022	-0,191
-604,386	800,000	-0,031	0,072
-603,371	-86,180	0,045	0,010
-602,357	10,249	0,111	0,062
-601,342	282,667	-0,078	0,103
-600,328	-200,000	-0,009	-0,036
-599,313	20,483	0,115	-0,068
-598,298	-48,314	-0,044	-0,016
-597,284	-200,000	0,000	-0,057
-596,269	446,500	0,024	0,038
-595,255	-200,000	0,001	0,111
-594,240	-152,846	-0,212	-0,011
-593,225	310,659	-0,030	0,041
-592,211	-115,666	0,045	0,006
-591,196	-200,000	0,034	0,000
-590,182	-121,761	0,117	-0,014
-589,167	-163,900	0,091	0,003
-588,152	329,123	0,064	-0,091
-587,138	624,439	0,033	-0,061
-586,123	-69,049	0,115	-0,032
-585,109	-128,814	-0,081	0,008
-584,094	64,132	0,124	-0,091
-583,079	-64,503	-0,109	-0,032
-582,065	-200,000	0,073	0,000
-581,050	-130,486	-0,069	-0,007
-580,036	204,612	-0,076	-0,086
-579,021	800,000	-0,011	-0,026
-578,006	-200,000	0,021	-0,121
-576,992	-200,000	0,022	0,097
-575,977	-53,340	0,060	-0,020
-574,963	179,415	0,011	-0,012
-573,948	-200,000	0,001	-0,004
-572,934	-200,000	-0,002	0,028
-571,919	-119,710	-0,033	-0,004
-570,904	-40,315	-0,122	0,046
-569,890	-75,309	-0,178	0,046
-568,875	-21,399	0,088	-0,039
-567,861	800,000	-0,022	0,068
-566,846	-200,000	-0,055	0,292
-565,831	-39,855	0,017	-0,006
-564,817	800,000	0,023	0,063
-563,802	-200,000	-0,005	-0,178
-562,788	-200,000	-0,071	-0,000
-561,773	-200,000	0,007	0,184
-560,758	-79,609	-0,071	-0,017
-559,744	698,825	0,095	0,183
-558,729	104,825	0,071	-0,061
-557,715	-62,143	0,116	0,035
-556,700	-102,082	-0,093	-0,016
-555,685	27,770	-0,080	-0,049
-554,671	45,440	0,019	-0,013
-553,656	43,570	0,099	-0,066
-552,642	-106,600	0,082	0,013
-551,627	-200,000	-0,004	-0,033
-550,612	-72,534	-0,093	0,025
-549,598	412,213	-0,045	-0,071
-548,583	-88,859	0,060	-0,013
-547,569	12,099	0,046	-0,026
-546,554	-200,000	-0,014	0,078
-545,539	800,000	-0,021	0,048
-544,525	-81,481	0,073	-0,018
-543,510	-46,781	-0,077	0,027
-542,496	800,000	-0,030	-0,073
-541,481	328,495	-0,086	-0,121
-540,466	386,300	-0,035	0,054
-539,452	-14,896	0,009	0,004
-538,437	-117,750	0,075	-0,010
-537,423	0,504	0,027	0,014
-536,408	-48,214	0,099	0,035
-535,393	-200,000	0,036	-0,229
-534,379	404,887	0,055	-0,085
-533,364	-138,210	-0,129	0,010
-532,350	-200,000	-0,024	0,116
-531,335	-140,293	-0,034	0,003
-530,321	58,105	-0,040	0,029
-529,306	-200,000	-0,000	0,019
-528,291	-131,942	-0,053	-0,005
-527,277	-200,000	-0,000	-0,023
-526,262	-200,000	-0,012	0,058
-525,248	-119,995	0,075	0,009
-524,233	-124,116	0,182	0,021
-523,218	-27,726	-0,093	-0,039
-522,204	88,398	0,033	-0,026
-521,189	-200,000	-0,016	-0,084
-520,175	133,495	-0,085	-0,080
-519,160	-48,247	-0,039	0,014
-518,145	-200,000	0,006	0,081
-517,131	-200,000	-0,002	0,165
-516,116	800,000	-0,040	0,083
-515,102	49,028	-0,078	-0,054
-514,087	-6,626	-0,092	-0,045
-513,072	8,189	-0,043	0,024
-512,058	236,375	-0,082	-0,099
-511,043	-76,776	0,043	-0,011
-510,029	46,072	0,121	0,082
-509,014	-9,003	-0,145	0,071
-507,999	-200,000	-0,002	-0,036
-506,985	-200,000	0,002	-0,087
-505,970	-135,193	-0,189	0,016
-504,956	3,241	0,048	-0,025
-503,941	800,000	-0,030	0,088
-502,926	238,060	-0,064	-0,078
-501,912	347,169	0,044	0,063
-500,897	14,833	-0,109	0,062
-499,883	324,247	0,047	-0,066
-498,868	65,496	-0,084	-0,062
-497,853	-200,000	0,007	-0,029
-496,839	-168,339	0,144	0,004
-495,824	160,862	-0,019	-0,020
-494,810	178,584	0,069	0,074
-493,795	-200,000	0,013	0,062
-492,781	112,635	-0,072	-0,064
-491,766	-62,707	-0,033	0,010
-490,751	-10,969	-0,043	-0,021
-489,737	72,158	0,048	-0,036
-488,722	800,000	-0,047	0,112
-487,708	131,319	0,051	0,048
-486,693	61,363	-0,075	-0,054
-485,678	-43,586	0,139	-0,051
-484,664	28,708	0,041	0,025
-483,649	36,341	0,045	-0,029
-482,635	-200,000	0,013	0,161
-481,620	-24,194	0,039	0,017
-480,605	374,685	0,033	0,049
-479,591	800,000	-0,005	-0,012
-478,576	-3,992	0,019	0,010
-477,562	-200,000	-0,006	-0,077
-476,547	165,505	0,036	0,037
-475,532	150,002	0,046	0,045
-474,518	65,133	-0,027	0,020
-473,503	-51,933	0,025	0,009
-472,489	-200,000	0,022	0,133
-471,474	95,320	-0,056	0,047
-470,459	-200,000	-0,023	0,112
-469,445	800,000	-0,019	-0,041
-468,430	-200,000	0,006	-0,180
-467,416	-151,920	-0,038	0,002
-466,401	-200,000	0,054	0,224
-465,386	66,351	-0,054	0,040
-464,372	20,092	0,037	-0,022
-463,357	-56,294	-0,092	-0,030
-462,343	-25,605	-0,102	0,044
-461,328	-100,178	0,005	-0,001
-460,313	-200,000	0,011	-0,065
-459,299	12,326	0,067	0,038
-458,284	326,812	0,026	0,036
-457,270	-76,669	-0,060	-0,015
-456,255	-103,805	0,078	-0,013
-455,241	-91,602	0,082	0,017
-454,226	-200,000	-0,011	-0,038
-453,211	294,554	-0,052	0,070
-452,197	221,133	-0,118	0,138
-451,182	-200,000	-0,025	0,221
-450,168	800,000	0,010	-0,029
-449,153	237,500	0,034	-0,042
-448,138	-200,000	0,001	0,087
-447,124	-41,891	-0,146	-0,054
-446,109	800,000	0,015	-0,039
-445,095	-200,000	-0,021	0,080
-444,080	417,608	0,013	-0,021
-443,065	132,563	0,069	0,065
-442,051	-166,035	-0,197	0,006
-441,036	-200,000	-0,001	-0,004
-440,022	23,165	-0,087	0,052
-439,007	33,323	-0,035	-0,022
-437,992	-149,799	0,091	-0,005
-436,978	-64,099	-0,115	-0,034
-435,963	-1,822	0,095	-0,049
-434,949	800,000	0,022	-0,065
-433,934	-20,822	0,042	0,019
-432,919	272,838	0,094	0,121
-431,905	-200,000	0,012	-0,057
-430,890	800,000	-0,008	-0,024
-429,876	-98,232	-0,011	0,002
-428,861	415,490	0,038	-0,059
-427,846	800,000	0,046	-0,124
-426,832	-200,000	-0,009	0,031
-425,817	-200,000	-0,014	-0,198
-424,803	-18,818	-0,073	-0,033
-423,788	-115,940	-0,119	0,016
-422,773	800,000	0,034	0,096
-421,759	24,736	0,003	-0,002
-420,744	-200,000	0,007	-0,047
-419,730	-55,339	-0,125	-0,041
-418,715	97,842	-0,118	-0,099
-417,701	800,000	-0,011	-0,031
-416,686	-0,715	0,112	0,058
-415,671	-200,000	0,016	-0,069
-414,657	800,000	0,048	0,154
-413,642	-200,000	0,029	0,141
-412,628	44,638	-0,045	-0,030
-411,613	133,322	0,073	-0,069
-410,598	54,129	0,046	-0,032
-409,584	22,354	-0,077	0,046
-408,569	69,329	0,076	0,057
-407,555	102,736	0,044	0,037
-406,540	73,658	0,009	0,007
-405,525	85,948	-0,048	-0,039
-404,511	9,888	-0,121	-0,067
-403,496	31,852	0,034	-0,021
-402,482	679,893	0,015	0,028
-401,467	-200,000	-0,012	0,093
-400,452	300,215	0,092	-0,124
-399,438	-53,798	-0,081	0,027
-398,423	-13,290	0,096	-0,045
-397,409	34,056	0,075	0,047
-396,394	800,000	-0,022	0,062
-395,379	-200,000	-0,016	-0,179
-394,365	117,303	0,086	0,077
-393,350	-200,000	-0,035	0,171
-392,336	-45,812	0,139	-0,050
-391,321	-200,000	-0,014	0,053
-390,306	365,306	0,028	-0,041
-389,292	14,093	0,100	-0,057
-388,277	16,301	0,040	-0,023
-387,263	115,834	0,084	-0,075
-386,248	800,000	0,072	0,163
-385,233	216,408	0,028	-0,033
-384,219	189,344	0,023	-0,025
-383,204	800,000	-0,021	-0,045
-382,190	-158,838	-0,012	-0,000
-381,175	-26,382	0,026	0,011
-380,160	-200,000	-0,008	-0,040
-379,146	363,820	-0,051	-0,074
-378,131	220,817	0,051	0,060
-377,117	124,894	-0,057	0,053
-376,102	-178,090	-0,150	0,003
-375,088	-200,000	0,002	-0,066
-374,073	800,000	0,049	-0,138
-373,058	-109,299	-0,174	-0,027
-372,044	25,572	0,232	0,140
-371,029	706,273	0,062	-0,120
-370,015	12,795	0,072	-0,040
-369,000	-87,568	0,062	0,014
-367,985	-200,000	0,001	-0,091
-366,971	-200,000	-0,013	-0,072
-365,956	-200,000	-0,012	-0,103
-364,942	-65,466	0,134	0,039
-363,927	-63,308	0,103	-0,031
-362,912	-200,000	0,015	0,064
-361,898	-99,934	-0,108	-0,019
-360,883	2,047	-0,059	-0,031
-359,869	-33,559	0,113	-0,045
-358,854	706,383	-0,019	0,037
-357,839	251,892	0,072	0,090
-356,825	470,258	-0,073	-0,120
-355,810	50,946	0,059	-0,040
-354,796	269,282	0,103	-0,132
-353,781	-95,922	-0,119	0,023
-352,766	-124,709	-0,086	0,010
-351,752	177,308	0,090	0,095
-350,737	800,000	-0,028	0,068
-349,723	216,733	0,048	0,056
-348,708	800,000	-0,037	0,087
-347,693	-97,303	-0,108	0,020
-346,679	-132,355	-0,063	0,006
-345,664	-161,473	0,140	-0,005
-344,650	169,438	0,076	0,079
-343,635	-200,000	0,032	0,151
-342,620	774,243	-0,027	-0,054
-341,606	-72,226	-0,053	0,014
-340,591	54,058	0,098	0,068
-339,577	800,000	-0,035	-0,070
-338,562	-200,000	0,009	0,080
-337,548	-56,635	-0,094	0,030
-336,533	-98,727	-0,094	-0,017
-335,518	-71,550	-0,100	-0,027
-334,504	-200,000	0,000	0,059
-333,489	-149,090	0,069	-0,004
-332,475	114,666	0,110	-0,098
-331,460	-200,000	0,016	-0,096
-330,445	223,326	0,078	-0,091
-329,431	800,000	-0,038	0,121
-328,416	-74,558	0,184	0,048
-327,402	-45,429	0,087	-0,031
-326,387	40,731	-0,021	-0,013
-325,372	-192,650	-0,106	0,001
-324,358	81,509	0,099	0,077
-323,343	-145,255	0,094	0,006
-322,329	-27,960	0,035	0,015
-321,314	50,715	-0,058	-0,040
-320,299	15,687	0,130	0,074
-319,285	-108,613	0,099	-0,015
-318,270	757,961	-0,062	0,123
-317,256	-38,411	0,097	0,037
-316,241	-90,202	-0,122	0,026
-315,226	10,869	-0,028	0,015
-314,212	426,102	0,020	0,031
-313,197	-200,000	0,003	-0,049
-312,183	-200,000	0,014	-0,060
-311,168	-200,000	-0,027	-0,095
-310,153	86,177	-0,074	-0,059
-309,139	-200,000	0,005	-0,040
-308,124	634,507	-0,029	-0,053
-307,110	256,755	-0,095	-0,118
-306,095	-124,572	0,075	-0,008
-305,080	-23,039	-0,098	-0,043
-304,066	-200,000	-0,004	0,072
-303,051	313,627	-0,055	0,075
-302,037	-78,011	0,128	-0,032
-301,022	-200,000	-0,010	0,052
-300,008	409,993	0,017	-0,027
-298,993	-87,127	-0,104	-0,023
-297,978	48,937	-0,018	0,012
-296,964	251,755	0,057	0,070
-295,949	-174,854	-0,050	-0,001
-294,935	108,654	-0,036	-0,031
-293,920	-200,000	-0,023	0,118
-292,905	51,039	0,093	0,064
-291,891	326,241	0,070	-0,097
-290,876	-154,708	-0,036	-0,002
-289,862	-16,206	0,076	-0,035
-288,847	800,000	-0,039	0,084
-287,832	-200,000	0,011	0,102
-286,818	575,648	0,077	-0,137
-285,803	74,531	0,068	0,052
-284,789	800,000	-0,020	0,047
-283,774	232,387	-0,078	0,093
-282,759	-200,000	0,005	-0,055
-281,745	637,380	-0,072	-0,133
-280,730	800,000	-0,042	-0,094
-279,716	69,676	-0,065	0,048
-278,701	89,903	0,090	0,073
-277,686	-12,594	-0,020	-0,009
-276,672	140,957	0,048	-0,046
-275,657	604,380	0,017	-0,031
-274,643	456,231	-0,052	-0,084
-273,628	-200,000	-0,001	0,049
-272,613	297,899	0,099	-0,132
-271,599	-80,442	-0,099	0,024
-270,584	-200,000	-0,033	0,169
-269,570	331,620	-0,019	0,027
-268,555	-200,000	-0,026	-0,188
-267,540	-50,525	0,075	-0,026
-266,526	-200,000	0,063	-0,256
-265,511	-129,107	-0,203	0,020
-264,497	59,915	0,090	-0,064
-263,482	-30,716	-0,019	0,008
-262,467	800,000	-0,010	0,031
-261,453	67,733	0,023	-0,017
-260,438	-200,000	0,097	0,000
-259,424	-200,000	-0,004	0,041
-258,409	-200,000	-0,026	0,168
-257,395	-150,359	0,043	0,002
-256,380	-86,851	-0,072	0,016
-255,365	211,296	0,026	-0,029
-254,351	800,000	0,049	-0,122
-253,336	800,000	-0,035	0,104
-252,322	-32,023	-0,147	-0,059
-251,307	-38,134	-0,013	0,005
-250,292	14,069	0,088	0,050
-249,278	113,470	-0,078	-0,069
-248,263	-106,167	-0,062	-0,010
-247,249	-20,618	-0,028	-0,012
-246,234	173,054	-0,056	0,058
-245,219	47,740	0,068	-0,046
-244,205	-200,000	0,020	0,079
-243,190	-200,000	-0,039	0,206
-242,176	-200,000	0,002	-0,062
-241,161	186,771	0,044	0,047
-240,146	563,134	0,057	0,101
-239,132	800,000	0,049	-0,105
-238,117	-146,100	-0,016	0,001
-237,103	800,000	0,015	0,031
-236,088	-107,071	0,140	0,022
-235,073	-5,472	-0,101	0,050
-234,059	502,806	-0,022	-0,037
-233,044	-144,247	0,070	-0,005
-232,030	-200,000	-0,001	-0,028
-231,015	-68,159	-0,052	0,015
-230,000	-81,343	-0,060	0,014
-228,986	582,400	0,051	-0,092
-227,971	800,000	0,028	0,067
-226,957	-137,116	0,111	-0,009
-225,942	-200,000	0,010	0,117
-224,927	800,000	0,017	-0,047
-223,913	297,468	-0,057	0,075
-222,898	149,997	0,025	-0,025
-221,884	-106,233	0,086	0,014
-220,869	457,975	-0,018	0,029
-219,855	-200,000	0,011	0,066
-218,840	-100,680	0,089	-0,016
-217,825	69,626	0,046	-0,034
-216,811	-0,734	-0,073	-0,037
-215,796	-56,612	-0,054	0,017
-214,782	97,345	0,014	-0,011
-213,767	-16,889	-0,074	0,034
-212,752	-200,000	0,007	0,089
-211,738	75,028	-0,028	-0,021
-210,723	800,000	0,035	-0,090
-209,709	800,000	-0,021	-0,051
-208,694	95,578	0,046	-0,038
-207,679	-12,186	-0,153	0,072
-206,665	-140,791	0,047	0,003
-205,650	-200,000	-0,012	0,075
-204,636	195,116	-0,054	0,060
-203,621	-119,666	0,167	0,021
-202,606	-200,000	0,002	-0,049
-201,592	-42,371	-0,114	-0,042
-200,577	-113,099	0,040	0,006
-199,563	25,688	0,063	-0,038
-198,548	261,355	0,091	0,114
-197,533	800,000	0,036	-0,105
-196,519	141,685	0,036	-0,035
-195,504	-200,000	-0,037	0,141
-194,490	-200,000	-0,014	-0,101
-193,475	15,689	-0,065	-0,037
-192,460	450,437	0,080	-0,128
-191,446	763,295	0,085	-0,167
-190,431	343,936	-0,027	0,039
-189,417	-109,295	0,109	-0,016
-188,402	182,431	-0,040	-0,042
-187,387	182,629	0,066	-0,070
-186,373	234,472	-0,072	-0,086
-185,358	-36,103	0,156	0,061
-184,344	-200,000	-0,067	0,256
-183,329	-97,045	0,122	-0,023
-182,315	-69,706	0,073	0,020
-181,300	-32,394	-0,128	-0,051
-180,285	19,246	0,118	-0,068
-179,271	-129,705	-0,128	0,013
-178,256	-187,224	0,064	0,001
-177,242	254,392	-0,091	0,113
-176,227	800,000	0,024	0,074
-175,212	3,852	-0,060	-0,032
-174,198	-121,794	-0,113	0,013
-173,183	800,000	-0,047	-0,147
-172,169	-200,000	-0,026	-0,084
-171,154	100,851	-0,040	0,034
-170,139	-69,142	0,103	0,028
-169,125	520,207	0,026	-0,044
-168,110	340,110	0,056	0,079
-167,096	-0,728	-0,056	0,029
-166,081	-42,513	-0,065	0,024
-165,066	771,214	0,022	0,043
-164,052	-200,000	0,009	-0,119
-163,037	800,000	-0,053	-0,144
-162,023	69,891	0,075	-0,055
-161,008	-100,019	0,024	-0,004
-159,993	229,400	0,032	-0,038
-158,979	-200,000	-0,007	-0,083
-157,964	-101,530	-0,095	0,016
-156,950	-200,000	-0,020	0,123
-155,935	377,842	0,075	-0,112
-154,920	-32,730	-0,092	0,037
-153,906	-200,000	0,006	0,030
-152,891	455,996	0,041	0,066
-151,877	-12,104	0,044	0,021
-150,862	-200,000	0,004	-0,121
-149,847	-197,834	-0,033	-0,000
-148,833	138,283	0,033	-0,031
-147,818	800,000	-0,042	0,094
-146,804	-200,000	0,046	-0,155
-145,789	127,417	0,099	-0,090
-144,775	31,014	-0,090	-0,055
-143,760	-83,981	-0,167	-0,038
-142,745	-200,000	-0,027	-0,190
-141,731	567,307	0,067	-0,117
-140,716	-200,000	0,009	-0,072
-139,702	-19,821	-0,021	0,009
-138,687	42,335	0,089	-0,058
-137,672	422,094	-0,082	-0,128
-136,658	-124,547	-0,118	0,013
-135,643	446,418	-0,055	-0,088
-134,629	359,334	0,042	-0,060
-133,614	800,000	0,041	-0,088
-132,599	-117,230	0,096	-0,012
-131,585	206,599	-0,009	-0,010
-130,570	627,643	-0,026	-0,048
-129,556	14,414	-0,042	-0,024
-128,541	-115,519	-0,069	-0,009
-127,526	-95,362	0,054	0,010
-126,512	-200,000	-0,005	0,039
-125,497	-200,000	0,023	0,083
-124,483	800,000	0,007	0,019
-123,468	-15,091	-0,068	-0,031
-122,453	264,139	-0,013	-0,016
-121,439	242,792	-0,094	-0,114
-120,424	-200,000	0,107	0,000
-119,410	116,168	0,069	0,061
-118,395	146,705	0,064	0,062
-117,380	-200,000	-0,047	0,151
-116,366	-200,000	0,005	0,028
-115,351	135,179	-0,132	-0,123
-114,337	-130,479	-0,151	-0,015
-113,322	12,072	-0,025	0,014
-112,307	94,556	-0,089	0,073
-111,293	11,850	0,090	-0,050
-110,278	-71,215	-0,059	0,016
-109,264	478,099	-0,083	-0,135
-108,249	192,605	0,149	-0,162
-107,234	14,159	-0,168	-0,094
-106,220	800,000	-0,037	0,084
-105,205	-200,000	-0,011	-0,110
-104,191	723,065	0,069	0,133
-103,176	-200,000	-0,013	0,124
-102,162	-200,000	0,013	-0,071
-101,147	37,261	-0,081	-0,052
-100,132	-38,356	-0,083	-0,031
-99,118	-87,548	0,059	-0,013
-98,103	-0,520	0,173	-0,088
-97,089	19,054	-0,107	0,062
-96,074	-83,900	0,068	0,015
-95,059	260,953	0,020	0,024
-94,045	319,973	-0,074	-0,101
-93,030	-63,166	-0,081	-0,024
-92,016	-200,000	0,007	-0,028
-91,001	509,353	0,062	0,104
-89,986	16,342	0,117	0,066
-88,972	-154,555	0,070	0,003
-87,957	-200,000	0,009	-0,050
-86,943	-200,000	-0,017	0,062
-85,928	-61,824	-0,052	0,016
-84,913	793,053	-0,064	-0,128
-83,899	210,538	-0,028	0,031
-82,884	-25,320	0,139	0,059
-81,870	-200,000	0,031	0,110
-80,855	797,503	0,040	-0,080
-79,840	38,613	-0,122	-0,078
-78,826	800,000	-0,028	-0,065
-77,811	-22,361	-0,126	0,055
-76,797	473,342	-0,082	-0,133
-75,782	-200,000	-0,000	0,022
-74,767	78,356	-0,047	-0,036
-73,753	594,508	0,021	0,037
-72,738	559,057	0,058	0,100
-71,724	550,582	0,033	-0,058
-70,709	800,000	-0,055	-0,137
-69,694	-200,000	-0,018	0,106
-68,680	100,050	0,031	-0,026
-67,665	474,009	0,048	-0,078
-66,651	190,730	0,042	-0,045
-65,636	223,687	0,033	0,038
-64,622	-80,411	-0,075	0,018
-63,607	800,000	0,056	-0,144
-62,592	-105,407	-0,079	-0,013
-61,578	-200,000	-0,037	0,135
-60,563	94,088	0,011	0,009
-59,549	-140,738	-0,085	-0,006
-58,534	58,520	-2,607	-1,836
-57,519	49,359	0,428	-0,289
-56,505	-200,000	-1,560	-5,381
-55,490	314,308	1,185	1,607
-54,476	800,000	5,304	11,427
-53,461	-200,000	21,834	344,288
-52,446	800,000	760,947	2311,692
-51,432	519,715	1652,000	2790,808
-50,417	103,697	1617,134	1363,307
-49,403	73,341	1272,728	955,354
-48,388	25,296	1021,864	608,243
-47,373	19,205	988,081	567,969
-46,359	13,443	975,127	541,588
-45,344	9,285	972,083	526,207
-44,330	9,894	969,721	526,909
-43,315	8,821	967,980	522,424
-42,300	8,741	966,953	521,587
-41,286	8,779	965,601	520,959
-40,271	8,725	964,841	520,352
-39,257	8,717	963,920	519,810
-38,242	8,652	962,922	519,040
-37,227	8,666	962,416	518,791
-36,213	8,652	961,418	518,185
-35,198	8,629	960,826	517,772
-34,184	8,733	959,870	517,575
-33,169	8,697	958,867	516,895
-32,154	8,771	957,991	516,644
-31,140	8,746	957,089	516,057
-30,125	8,768	956,183	515,617
-29,111	8,721	955,508	515,083
-28,096	8,760	955,024	514,927
-27,082	8,778	954,098	514,466
-26,067	8,753	953,450	514,014
-25,052	8,700	952,734	513,436
-24,038	8,586	952,040	512,674
-23,023	8,619	951,385	512,407
-22,009	8,720	950,884	512,442
-20,994	8,745	950,161	512,115
-19,979	8,700	949,715	511,707
-18,965	8,711	948,911	511,289
-17,950	8,711	948,444	511,017
-16,936	8,656	947,775	510,462
-15,921	8,656	947,052	510,051
-14,906	8,619	946,270	509,492
-13,892	8,634	945,551	509,131
-12,877	8,623	944,955	508,756
-11,863	8,548	944,488	508,245
-10,848	8,645	943,781	508,153
-9,833	8,635	943,266	507,823
-8,819	8,638	942,647	507,482
-7,804	8,619	941,895	506,997
-6,790	8,616	941,326	506,659
-5,775	8,668	940,718	506,477
-4,760	8,657	940,242	506,164
-3,746	8,647	939,458	505,692
-2,731	8,494	938,844	504,855
-1,717	8,450	938,159	504,329
-0,702	8,406	937,602	503,867
0,313	8,287	936,856	503,849
1,327	11,688	934,566	513,333
2,342	20,353	783,189	452,988
3,356	15,591	449,912	253,003
4,371	-10,606	313,347	148,275
5,386	-14,233	295,555	136,167
6,400	-16,297	289,465	131,300
7,415	-16,553	286,848	129,849
8,429	-17,269	285,072	128,333
9,444	-17,282	284,092	127,868
10,459	-17,364	283,521	127,520
11,473	-17,292	282,909	127,303
12,488	-17,422	282,619	127,035
13,502	-17,317	282,124	126,903
14,517	-17,106	281,580	126,850
15,531	-17,268	281,104	126,468
16,546	-17,228	280,804	126,361
17,561	-17,125	280,245	126,197
18,575	-17,062	279,965	126,120
19,590	-17,243	279,660	125,798
20,604	-17,150	279,327	125,726
21,619	-17,273	278,937	125,422
22,634	-17,086	278,528	125,405
23,648	-17,299	278,231	125,057
24,663	-17,159	277,963	125,059
25,677	-17,087	277,734	125,013
26,692	-17,157	277,583	124,867
27,707	-17,081	277,183	124,748
28,721	-17,120	276,980	124,609
29,736	-17,319	276,771	124,316
30,750	-17,034	276,311	124,368
31,765	-17,294	276,210	124,065
32,780	-17,074	275,856	124,103
33,794	-17,220	275,651	123,862
34,809	-17,149	275,435	123,820
35,823	-17,123	275,083	123,676
36,838	-17,058	274,958	123,669
37,853	-17,116	274,581	123,435
38,867	-17,135	274,424	123,335
39,882	-17,002	274,174	123,336
40,896	-17,096	273,865	123,098
41,911	-17,220	273,708	122,901
42,926	-17,215	273,501	122,802
43,940	-17,093	273,265	122,799
44,955	-17,071	272,956	122,669
45,969	-17,168	272,791	122,494
46,984	-17,168	272,774	122,475
47,999	-17,020	272,346	122,410
49,013	-16,888	272,204	122,458
50,028	-17,040	271,883	122,162
51,042	-16,922	271,587	122,127
52,057	-17,220	271,453	121,780
53,071	-16,937	271,094	121,870
54,086	-17,078	270,997	121,685
55,101	-16,989	270,719	121,632
56,115	-16,899	270,376	121,550
57,130	-17,235	270,325	121,205
58,144	-17,247	270,071	121,070
59,159	-17,298	269,738	120,863
60,174	-17,100	269,524	120,938
61,188	-17,175	269,386	120,797
62,203	-16,953	269,034	120,832
63,217	-17,126	268,923	120,613
64,232	-17,200	268,783	120,471
65,247	-16,922	268,253	120,477
66,261	-17,172	268,126	120,180
67,276	-17,116	267,971	120,151
68,290	-17,027	267,561	120,039
69,305	-17,152	267,634	119,946
70,320	-16,969	267,139	119,880
71,334	-17,088	267,123	119,754
72,349	-17,187	266,703	119,465
73,363	-17,094	266,549	119,470
74,378	-17,187	266,361	119,291
75,393	-17,031	266,109	119,309
76,407	-17,022	265,894	119,210
77,422	-16,932	265,749	119,216
78,436	-17,010	265,375	118,967
79,451	-17,248	265,130	118,631
80,466	-16,926	264,831	118,777
81,480	-17,097	264,737	118,571
82,495	-17,031	264,708	118,607
83,509	-17,116	264,497	118,425
84,524	-16,930	264,217	118,456
85,539	-16,967	263,994	118,313
86,553	-16,849	263,686	118,270
87,568	-16,930	263,464	118,087
88,582	-17,044	263,398	117,945
89,597	-16,828	263,159	118,021
90,611	-17,139	263,012	117,666
91,626	-17,025	262,684	117,610
92,641	-17,048	262,475	117,485
93,655	-16,996	262,305	117,446
94,670	-17,080	261,992	117,220
95,684	-17,072	261,892	117,172
96,699	-17,025	261,560	117,055
97,714	-17,003	261,454	117,016
98,728	-16,974	261,359	116,989
99,743	-17,099	261,252	116,820
100,757	-17,003	260,902	116,738
101,772	-17,111	260,687	116,536
102,787	-17,170	260,361	116,328
103,801	-17,050	260,173	116,340
104,816	-16,925	260,000	116,362
105,830	-17,069	259,738	116,107
106,845	-17,121	259,688	116,029
107,860	-16,914	259,256	116,008
108,874	-17,060	259,195	115,842
109,889	-17,154	258,951	115,640
110,903	-17,028	258,671	115,615
111,918	-16,963	258,577	115,620
112,933	-17,093	258,442	115,435
113,947	-17,000	258,177	115,388
114,962	-16,763	257,806	115,419
115,976	-17,057	257,792	115,146
116,991	-17,090	257,712	115,070
118,006	-16,953	257,352	115,019
119,020	-17,028	257,249	114,897
120,035	-17,026	257,121	114,832
121,049	-17,066	256,900	114,688
122,064	-16,832	256,605	114,750
123,079	-16,943	256,415	114,558
124,093	-17,108	256,320	114,361
125,108	-16,954	256,047	114,364
126,122	-17,059	255,919	114,205
127,137	-16,860	255,665	114,254
128,151	-17,068	255,711	114,084
129,166	-16,881	255,226	114,019
130,181	-17,024	255,216	113,881
131,195	-16,876	254,922	113,868
132,210	-16,877	254,627	113,725
133,224	-17,109	254,517	113,465
134,239	-16,949	254,319	113,505
135,254	-16,951	254,092	113,392
136,268	-16,971	254,017	113,331
137,283	-16,958	253,736	113,206
138,297	-16,891	253,529	113,162
139,312	-16,955	253,174	112,939
140,327	-16,889	253,023	112,918
141,341	-17,061	252,875	112,694
142,356	-16,959	252,780	112,729
143,370	-17,024	252,486	112,532
144,385	-17,010	252,362	112,479
145,400	-16,812	252,084	112,514
146,414	-17,006	251,945	112,276
147,429	-17,096	251,494	111,988
148,443	-16,906	251,624	112,199
149,458	-17,028	251,446	112,006
150,473	-17,109	251,302	111,862
151,487	-16,739	250,949	112,010
152,502	-16,897	250,815	111,805
153,516	-16,918	250,647	111,703
154,531	-16,990	250,378	111,512
155,546	-17,059	250,262	111,392
156,560	-16,933	250,146	111,437
157,575	-16,927	249,792	111,275
158,589	-16,879	249,622	111,229
159,604	-16,977	249,440	111,055
160,619	-17,068	249,467	110,981
161,633	-17,072	249,134	110,819
162,648	-16,785	248,992	110,989
163,662	-16,968	248,813	110,744
164,677	-16,951	248,723	110,709
165,692	-16,982	248,557	110,600
166,706	-16,994	248,387	110,504
167,721	-16,877	248,097	110,463
168,735	-16,952	248,015	110,354
169,750	-16,776	247,792	110,392
170,764	-16,855	247,650	110,253
171,779	-16,914	247,431	110,097
172,794	-16,984	247,279	109,960
173,808	-16,864	247,023	109,937
174,823	-16,775	246,885	109,939
175,837	-16,930	246,831	109,776
176,852	-16,956	246,544	109,617
177,867	-17,067	246,471	109,482
178,881	-16,949	246,216	109,458
179,896	-17,071	246,092	109,292
180,910	-16,932	245,927	109,324
181,925	-16,960	245,779	109,225
182,940	-16,586	245,459	109,384
183,954	-16,975	245,321	108,990
184,969	-16,839	245,196	109,037
185,983	-17,083	244,960	108,721
186,998	-16,979	244,889	108,765
188,013	-16,781	244,615	108,798
189,027	-16,933	244,484	108,604
190,042	-16,807	244,333	108,632
191,056	-16,961	244,110	108,395
192,071	-16,835	243,929	108,409
193,086	-16,786	243,775	108,372
194,100	-16,949	243,611	108,155
195,115	-17,017	243,425	108,006
196,129	-16,908	243,162	107,970
197,144	-16,944	243,207	107,951
198,159	-16,717	242,843	107,966
199,173	-16,883	242,736	107,772
200,188	-16,943	242,408	107,569
201,202	-16,753	242,371	107,698
202,217	-16,576	242,162	107,739
203,232	-16,654	241,973	107,583
204,246	-16,745	241,662	107,360
205,261	-16,943	241,633	107,176
206,275	-15,572	242,198	108,537
207,290	-10,306	243,755	113,549
208,304	-4,401	245,717	119,330
209,319	-1,870	246,385	121,736
210,334	-0,834	246,572	122,672
211,348	0,304	246,750	123,690
212,363	0,970	246,819	124,264
213,377	1,234	246,977	124,551
214,392	1,432	246,811	124,619
215,407	1,693	246,783	124,809
216,421	1,789	246,662	124,816
217,436	1,862	246,350	124,707
218,450	1,799	246,347	124,643
219,465	2,017	245,951	124,610
220,480	1,702	246,028	124,379
221,494	1,706	245,671	124,190
222,509	1,137	245,310	123,531
223,523	0,881	245,206	123,258
224,538	0,955	244,899	123,153
225,553	0,888	244,763	123,019
226,567	0,920	244,501	122,902
227,582	1,074	244,400	122,966
228,596	0,900	244,305	122,765
229,611	0,788	244,150	122,585
230,626	0,935	243,925	122,581
231,640	0,633	243,905	122,314
232,655	0,870	243,572	122,329
233,669	0,862	243,411	122,231
234,684	0,815	243,347	122,150
235,699	0,899	243,088	122,077
236,713	0,657	243,087	121,869
237,728	1,083	242,778	122,049
238,742	1,041	242,745	121,987
239,757	0,757	242,572	121,659
240,772	0,976	242,346	121,712
241,786	1,109	242,271	121,771
242,801	0,905	241,967	121,443
243,815	1,014	241,876	121,474
244,830	0,965	241,720	121,346
245,844	0,893	241,537	121,185
246,859	0,941	241,394	121,142
247,874	0,900	241,194	120,997
248,888	1,017	241,078	121,022
249,903	0,867	240,921	120,812
250,917	1,106	240,705	120,884
251,932	1,071	240,672	120,829
252,947	0,959	240,527	120,656
253,961	0,986	240,477	120,642
254,976	0,938	240,090	120,399
255,990	0,815	240,080	120,284
257,005	1,095	239,893	120,404
258,020	1,209	239,696	120,385
259,034	0,870	239,492	120,002
260,049	1,028	239,356	120,049
261,063	0,869	239,246	119,856
262,078	1,027	238,993	119,845
263,093	0,939	238,786	119,660
264,107	0,946	238,744	119,634
265,122	0,959	238,660	119,591
266,136	0,940	238,507	119,488
267,151	1,032	238,295	119,445
268,166	0,944	238,085	119,259
269,180	0,951	237,861	119,142
270,195	0,846	237,815	119,025
271,209	1,044	237,642	119,085
272,224	0,937	237,579	118,958
273,239	1,060	237,355	118,932
274,253	0,902	237,199	118,718
275,268	0,993	237,048	118,705
276,282	0,824	236,864	118,468
277,297	0,766	236,749	118,355
278,312	0,796	236,732	118,359
279,326	0,899	236,453	118,290
280,341	0,915	236,288	118,210
281,355	1,022	236,187	118,232
282,370	1,063	236,067	118,194
283,384	1,157	235,779	118,113
284,399	0,866	235,686	117,828
285,414	0,761	235,537	117,661
286,428	0,969	235,410	117,749
287,443	0,776	235,328	117,547
288,457	1,199	235,049	117,727
289,472	1,120	234,926	117,594
290,487	1,026	234,953	117,524
291,501	1,023	234,672	117,370
292,516	0,915	234,547	117,213
293,530	0,870	234,359	117,074
294,545	1,097	234,337	117,229
295,560	1,181	233,978	117,104
296,574	1,132	234,047	117,090
297,589	1,178	233,640	116,912
298,603	1,100	233,625	116,833
299,618	1,065	233,430	116,698
300,633	1,292	233,331	116,814
301,647	1,091	233,293	116,629
302,662	1,259	233,032	116,619
303,676	1,002	233,006	116,396
304,691	1,221	232,780	116,442
305,706	1,175	232,621	116,316
306,720	1,216	232,415	116,234
307,735	1,286	232,179	116,160
308,749	1,225	232,354	116,190
309,764	1,312	232,041	116,090
310,779	1,185	231,874	115,898
311,793	1,095	231,662	115,713
312,808	1,175	231,513	115,690
313,822	1,417	231,338	115,778
314,837	1,221	231,321	115,609
315,852	1,080	231,155	115,407
316,866	1,078	231,047	115,341
317,881	1,423	230,832	115,488
318,895	1,229	230,634	115,231
319,910	1,167	230,505	115,108
320,925	1,306	230,281	115,092
321,939	0,920	230,275	114,785
322,954	1,034	230,183	114,815
323,968	1,214	229,949	114,825
324,983	1,230	229,861	114,783
325,997	1,153	229,678	114,623
327,012	1,218	229,566	114,606
328,027	1,190	229,242	114,414
329,041	1,177	229,168	114,356
330,056	1,282	229,060	114,372
331,070	1,241	228,994	114,297
332,085	1,225	228,797	114,177
333,100	1,457	228,583	114,235
334,114	1,197	228,424	113,949
335,129	1,308	228,313	113,968
336,143	1,332	228,183	113,911
337,158	1,250	228,096	113,795
338,173	1,398	227,900	113,799
339,187	1,445	227,725	113,737
340,202	1,237	227,625	113,520
341,216	1,244	227,313	113,360
342,231	1,378	227,128	113,358
343,246	1,331	227,229	113,363
344,260	1,372	226,992	113,265
345,275	1,258	226,913	113,130
346,289	1,190	226,826	113,026
347,304	1,247	226,572	112,932
348,319	1,409	226,471	112,992
349,333	1,255	226,323	112,793
350,348	1,158	226,086	112,593
351,362	1,477	226,050	112,803
352,377	1,273	226,068	112,650
353,392	1,301	225,721	112,488
354,406	1,283	225,560	112,384
355,421	191,813	1312,386	1377,777
356,435	153,632	1444,663	1377,628
