DTS Sentinel unit serial number:	SN410029Multiplexer serial number:	ORYXHardware model number:	OX2-SRSoftware version number:	ORYX F/W v4,00 Oryx Data Collector v3.7.2.0data status	okinstallation	B5 Nyhavnadifferential loss correction	single-endedforward channel	channel 2reverse channel	N/Adate	2023/12/12time	16:37:13forward acquisition time	300,00reverse acquisition time	0,00gamma	499,1914k internal	0,3156k external	0,3156temperature offset calibration	1,0000default loss term (dB/km)	0,3820temperature slope calibration	1,0000multiplexer offset coefficient	1,0000multiplexer slope coefficient	1,0000fibre end	0,00T internal ref (°C)	15,82T ext. ref 1 (°C)	-0,68T ext. ref 2 (°C)	-0,99length (m)	temperature (°C)	Stokes	anti-Stokes-744,400	-135,942	-0,068	0,006
-743,385	-177,866	-0,273	-0,005
-742,371	-144,250	0,058	-0,004
-741,356	-96,657	-0,085	0,016
-740,342	107,884	0,038	-0,033
-739,327	-180,670	-0,419	0,006
-738,312	-200,000	-0,016	0,056
-737,298	-200,000	-0,386	-0,001
-736,283	-200,000	0,009	0,052
-735,269	-126,623	-0,182	0,020
-734,254	-98,088	-0,034	0,006
-733,239	-84,709	-0,459	-0,106
-732,225	66,590	0,080	0,060
-731,210	-200,000	0,040	0,165
-730,196	-51,828	0,048	-0,016
-729,181	-200,000	0,009	-0,082
-728,167	355,378	0,009	0,013
-727,152	72,483	0,121	0,093
-726,137	-44,247	0,019	-0,007
-725,123	264,991	-0,112	-0,145
-724,108	-142,797	0,012	0,001
-723,094	800,000	0,027	0,080
-722,079	72,228	-0,135	-0,103
-721,064	-188,226	-0,110	0,001
-720,050	800,000	0,009	0,021
-719,035	-200,000	-0,039	-0,201
-718,021	-51,801	-0,110	-0,038
-717,006	-200,000	-0,025	-0,083
-715,991	85,874	-0,059	-0,048
-714,977	652,651	-0,083	-0,158
-713,962	0,815	-0,126	-0,067
-712,948	-71,045	-0,046	0,013
-711,933	39,923	-0,024	-0,016
-710,918	-25,433	0,123	0,053
-709,904	-57,508	-0,134	-0,043
-708,889	-200,000	-0,020	-0,147
-707,875	117,317	0,052	-0,047
-706,860	48,823	-0,104	-0,072
-705,845	-200,000	-0,019	0,088
-704,831	71,674	-0,051	0,039
-703,816	-54,899	-0,076	0,025
-702,802	800,000	0,041	0,098
-701,787	-77,378	-0,104	-0,026
-700,772	-37,899	-0,031	0,012
-699,758	800,000	-0,050	-0,111
-698,743	262,155	0,036	0,046
-697,729	800,000	-0,043	-0,121
-696,714	82,678	-0,163	-0,130
-695,699	-17,085	0,080	0,037
-694,685	-200,000	0,021	0,188
-693,670	4,162	-0,049	0,026
-692,656	-14,110	0,074	0,035
-691,641	-94,377	-0,046	-0,009
-690,627	800,000	-0,015	-0,035
-689,612	33,133	-0,044	-0,028
-688,597	-111,314	-0,066	0,010
-687,583	153,714	-0,057	-0,057
-686,568	-200,000	-0,030	-0,179
-685,554	-200,000	-0,001	-0,089
-684,539	437,439	0,052	0,084
-683,524	138,755	-0,087	0,084
-682,510	10,764	0,043	0,024
-681,495	-200,000	0,011	-0,103
-680,481	-54,098	0,060	-0,020
-679,466	-3,119	-0,280	-0,143
-678,451	509,930	-0,029	-0,050
-677,437	-4,087	-0,046	-0,024
-676,422	157,676	-0,063	0,064
-675,408	-132,026	0,047	0,004
-674,393	504,848	-0,014	-0,025
-673,378	-108,517	-0,039	-0,006
-672,364	90,593	-0,116	0,096
-671,349	-19,090	0,028	-0,013
-670,335	-75,691	-0,016	0,004
-669,320	-50,576	-0,025	-0,009
-668,305	-33,636	-0,112	0,045
-667,291	-78,752	0,186	-0,046
-666,276	-85,578	-0,099	-0,022
-665,262	-200,000	-0,032	-0,187
-664,247	-200,000	0,029	-0,137
-663,232	0,557	-0,049	-0,026
-662,218	-47,338	0,074	0,026
-661,203	181,847	0,065	0,070
-660,189	-200,000	-0,031	-0,116
-659,174	800,000	0,047	-0,110
-658,159	208,041	-0,123	-0,141
-657,145	-77,855	-0,142	-0,036
-656,130	-127,196	0,123	-0,013
-655,116	15,857	-0,087	0,050
-654,101	800,000	0,027	0,076
-653,086	-136,171	0,074	-0,006
-652,072	57,375	-0,044	0,032
-651,057	-145,754	-0,065	-0,004
-650,043	-145,322	-0,086	0,006
-649,028	800,000	-0,021	0,067
-648,014	-124,560	-0,050	-0,006
-646,999	-195,529	0,064	-0,000
-645,984	255,680	0,032	0,041
-644,970	800,000	-0,016	0,038
-643,955	120,098	0,078	-0,071
-642,941	800,000	0,027	-0,056
-641,926	15,016	0,040	-0,023
-640,911	13,746	0,088	-0,050
-639,897	196,416	-0,071	-0,079
-638,882	-200,000	0,028	-0,123
-637,868	-189,176	-0,149	-0,001
-636,853	-99,118	0,104	0,019
-635,838	725,358	-0,036	-0,070
-634,824	96,265	-0,047	-0,039
-633,809	14,181	-0,051	0,029
-632,795	136,454	0,083	0,080
-631,780	232,690	-0,051	0,062
-630,765	-200,000	-0,027	-0,116
-629,751	558,953	-0,013	0,024
-628,736	264,279	-0,090	-0,115
-627,722	-73,483	0,013	0,003
-626,707	-3,099	-0,029	0,015
-625,692	50,507	0,135	-0,094
-624,678	-200,000	0,012	0,085
-623,663	-18,036	-0,017	-0,008
-622,649	32,729	-0,181	-0,115
-621,634	-200,000	0,020	0,128
-620,619	-200,000	-0,010	-0,040
-619,605	344,729	0,028	0,040
-618,590	-141,713	-0,065	0,005
-617,576	800,000	-0,033	-0,078
-616,561	158,562	-0,009	0,009
-615,546	-200,000	0,018	0,063
-614,532	-74,332	-0,060	0,016
-613,517	800,000	-0,054	-0,134
-612,503	800,000	-0,025	0,063
-611,488	-197,512	-0,055	0,000
-610,474	-200,000	0,021	0,132
-609,459	542,956	-0,070	-0,123
-608,444	800,000	0,023	-0,059
-607,430	57,269	-0,094	-0,067
-606,415	800,000	-0,054	-0,127
-605,401	-6,068	-0,070	-0,035
-604,386	-59,912	0,181	-0,056
-603,371	-200,000	-0,007	-0,074
-602,357	491,314	-0,068	-0,114
-601,342	-68,924	0,185	-0,052
-600,328	757,650	-0,083	-0,166
-599,313	800,000	0,035	-0,097
-598,298	-143,070	0,156	-0,011
-597,284	600,191	-0,071	0,130
-596,269	-200,000	0,022	0,089
-595,255	754,077	0,023	-0,047
-594,240	-94,268	-0,065	0,013
-593,225	131,868	0,056	0,053
-592,211	-200,000	0,022	0,118
-591,196	-200,000	0,009	-0,065
-590,182	5,087	0,015	-0,008
-589,167	-49,799	0,101	0,035
-588,152	425,411	0,029	-0,045
-587,138	-65,435	-0,175	-0,051
-586,123	30,867	0,062	-0,039
-585,109	-51,802	-0,172	0,058
-584,094	-200,000	0,005	-0,029
-583,079	-121,438	-0,057	-0,007
-582,065	-200,000	0,000	0,094
-581,050	6,345	0,038	0,021
-580,036	-153,748	0,028	0,001
-579,021	42,224	-0,042	-0,028
-578,006	-200,000	0,004	-0,136
-576,992	-200,000	0,005	-0,090
-575,977	236,859	0,146	0,178
-574,963	800,000	0,015	-0,034
-573,948	394,782	0,084	0,129
-572,934	163,759	0,131	0,135
-571,919	254,428	-0,078	-0,097
-570,904	738,626	-0,014	0,028
-569,890	719,462	0,004	-0,007
-568,875	-12,643	0,117	0,056
-567,861	43,392	-0,094	0,063
-566,846	800,000	-0,027	0,085
-565,831	355,563	-0,061	0,089
-564,817	76,857	-0,143	-0,111
-563,802	108,997	0,033	-0,029
-562,788	311,767	-0,029	-0,039
-561,773	-200,000	0,022	0,196
-560,758	90,256	0,064	-0,052
-559,744	-200,000	-0,007	-0,055
-558,729	-200,000	-0,003	-0,013
-557,715	-42,407	-0,110	0,041
-556,700	36,507	-0,067	-0,043
-555,685	-94,659	-0,037	-0,007
-554,671	-200,000	-0,012	0,152
-553,656	-32,326	0,089	0,036
-552,642	-114,047	0,078	-0,011
-551,627	47,910	-0,041	0,028
-550,612	246,528	-0,016	-0,020
-549,598	-200,000	-0,037	-0,129
-548,583	-90,513	0,044	-0,009
-547,569	-200,000	0,100	0,000
-546,554	14,536	0,043	-0,024
-545,539	-200,000	0,033	0,114
-544,525	-200,000	0,021	0,087
-543,510	-174,113	0,072	0,002
-542,496	116,744	-0,062	0,056
-541,481	-200,000	0,018	-0,154
-540,466	519,558	-0,084	-0,144
-539,452	-158,746	0,149	0,006
-538,437	740,814	-0,016	-0,032
-537,423	-64,453	0,142	0,042
-536,408	-200,000	-0,002	0,040
-535,393	-200,000	0,000	-0,034
-534,379	800,000	-0,028	-0,088
-533,364	469,298	-0,041	-0,067
-532,350	401,663	0,057	-0,087
-531,335	-200,000	0,015	-0,097
-530,321	152,556	-0,026	-0,026
-529,306	-200,000	-0,033	-0,211
-528,291	72,667	-0,034	-0,026
-527,277	800,000	0,040	-0,121
-526,262	15,188	-0,108	0,062
-525,248	-55,578	-0,102	-0,033
-524,233	44,776	-0,009	0,006
-523,218	-78,728	-0,082	-0,020
-522,204	29,630	-0,042	0,026
-521,189	5,801	-0,256	-0,138
-520,175	228,994	0,017	0,021
-519,160	-39,170	0,080	-0,030
-518,145	-200,000	-0,018	-0,118
-517,131	-106,608	0,129	0,021
-516,116	-200,000	-0,008	-0,067
-515,102	-200,000	0,004	-0,020
-514,087	-200,000	0,028	0,151
-513,072	334,300	-0,078	-0,110
-512,058	267,323	-0,026	-0,033
-511,043	88,897	-0,024	-0,020
-510,029	24,546	0,082	-0,049
-509,014	800,000	0,012	-0,038
-507,999	161,974	-0,052	-0,054
-506,985	207,295	-0,058	-0,066
-505,970	-107,250	-0,097	0,015
-504,956	-127,520	-0,136	-0,014
-503,941	-141,425	0,043	0,003
-502,926	-22,752	0,085	0,037
-501,912	800,000	0,027	0,080
-500,897	-200,000	-0,016	0,087
-499,883	-143,505	-0,063	0,004
-498,868	800,000	-0,031	-0,079
-497,853	-200,000	0,030	-0,129
-496,839	351,566	-0,043	-0,063
-495,824	-48,812	-0,033	0,012
-494,810	-56,357	-0,025	0,008
-493,795	289,697	-0,071	0,095
-492,781	-129,652	-0,089	0,009
-491,766	282,627	-0,086	-0,113
-490,751	104,603	-0,036	-0,031
-489,737	73,092	0,129	-0,099
-488,722	-62,208	0,101	-0,031
-487,708	59,927	0,010	-0,007
-486,693	593,124	0,033	0,059
-485,678	-33,061	-0,067	0,027
-484,664	216,978	0,033	0,038
-483,649	-138,259	-0,242	-0,019
-482,635	-200,000	-0,000	-0,066
-481,620	377,466	0,037	0,056
-480,605	-200,000	0,004	0,018
-479,591	-200,000	-0,019	0,078
-478,576	-39,356	0,061	-0,023
-477,562	-200,000	-0,024	0,113
-476,547	-80,105	-0,232	-0,056
-475,532	-183,542	-0,094	-0,001
-474,518	-200,000	0,005	0,133
-473,503	235,261	0,076	0,092
-472,489	265,379	-0,047	-0,060
-471,474	98,410	-0,090	0,076
-470,459	-34,652	-0,065	-0,026
-469,445	631,062	-0,083	-0,153
-468,430	-200,000	-0,015	0,064
-467,416	-200,000	-0,004	0,085
-466,401	-138,894	-0,131	0,010
-465,386	261,805	-0,046	0,058
-464,372	-94,143	0,120	0,024
-463,357	196,198	-0,068	-0,076
-462,343	-200,000	-0,020	0,115
-461,328	1,510	0,068	-0,035
-460,313	-56,248	0,073	0,024
-459,299	-79,941	0,064	0,016
-458,284	-82,109	0,079	-0,019
-457,270	-28,081	-0,018	-0,008
-456,255	-81,580	-0,079	-0,019
-455,241	-200,000	-0,003	-0,050
-454,226	79,694	-0,094	-0,074
-453,211	-108,936	0,075	0,012
-452,197	-200,000	0,048	0,186
-451,182	62,876	0,059	0,043
-450,168	-200,000	-0,005	0,052
-449,153	68,912	-0,036	-0,027
-448,138	-200,000	0,006	-0,119
-447,124	309,982	-0,063	-0,086
-446,109	-200,000	0,020	-0,115
-445,095	-200,000	-0,007	-0,082
-444,080	-131,368	-0,061	-0,006
-443,065	84,344	0,149	0,118
-442,051	-44,387	-0,036	0,013
-441,036	-200,000	-0,010	-0,111
-440,022	482,258	-0,003	0,005
-439,007	-200,000	-0,110	0,000
-437,992	363,496	0,025	-0,037
-436,978	-51,107	-0,033	0,011
-435,963	-200,000	0,030	0,137
-434,949	-121,569	0,055	-0,007
-433,934	-200,000	-0,022	-0,081
-432,919	800,000	-0,023	-0,071
-431,905	577,961	-0,035	-0,063
-430,890	29,673	-0,046	-0,029
-429,876	-200,000	0,005	0,144
-428,861	81,969	-0,060	0,047
-427,846	-105,580	0,107	0,017
-426,832	186,585	-0,122	0,133
-425,817	-200,000	0,005	0,027
-424,803	-200,000	0,011	-0,064
-423,788	110,096	0,111	-0,097
-422,773	266,480	0,087	0,111
-421,759	43,389	0,096	0,064
-420,744	-121,134	0,137	0,017
-419,730	-139,152	-0,035	0,003
-418,715	800,000	-0,042	-0,129
-417,701	-200,000	-0,030	-0,146
-416,686	-139,682	-0,034	-0,003
-415,671	800,000	-0,053	0,139
-414,657	800,000	-0,024	0,066
-413,642	-185,204	-0,109	-0,001
-412,628	-110,168	-0,073	-0,011
-411,613	13,056	0,058	-0,033
-410,598	-26,498	-0,009	-0,004
-409,584	800,000	0,034	-0,070
-408,569	174,101	0,068	-0,072
-407,555	800,000	0,029	-0,085
-406,540	148,653	0,041	0,041
-405,525	280,904	-0,033	-0,043
-404,511	2,317	-0,086	-0,045
-403,496	800,000	0,013	-0,032
-402,482	56,244	0,096	-0,068
-401,467	266,111	-0,026	-0,033
-400,452	199,742	0,095	0,106
-399,438	259,330	-0,021	0,026
-398,423	-43,462	-0,019	-0,007
-397,409	-113,214	-0,135	0,019
-396,394	800,000	0,074	-0,153
-395,379	-115,411	0,040	0,005
-394,365	75,491	0,119	0,092
-393,350	27,748	-0,037	-0,023
-392,336	85,801	0,102	0,081
-391,321	800,000	0,043	0,116
-390,306	94,899	-0,063	0,052
-389,292	62,336	-0,100	-0,073
-388,277	-127,951	0,115	-0,012
-387,263	247,942	-0,094	0,116
-386,248	-48,107	0,051	-0,018
-385,233	-200,000	-0,015	0,052
-384,219	800,000	-0,017	-0,036
-383,204	-200,000	0,025	-0,125
-382,190	708,328	-0,007	0,013
-381,175	33,125	-0,070	0,044
-380,160	-200,000	0,033	0,122
-379,146	-200,000	0,030	0,138
-378,131	800,000	0,084	0,174
-377,117	360,199	-0,091	0,133
-376,102	-27,337	-0,056	-0,024
-375,088	248,950	-0,005	-0,006
-374,073	674,811	0,051	-0,096
-373,058	-35,186	-0,072	-0,028
-372,044	-110,955	0,089	-0,013
-371,029	-200,000	-0,025	0,089
-370,015	29,587	0,189	0,116
-369,000	412,876	-0,040	0,062
-367,985	-12,098	0,081	-0,039
-366,971	800,000	0,031	-0,096
-365,956	448,880	-0,078	0,125
-364,942	84,267	0,035	-0,028
-363,927	800,000	-0,018	0,051
-362,912	-40,004	-0,020	-0,007
-361,898	394,504	0,072	-0,109
-360,883	-200,000	-0,019	-0,086
-359,869	-20,648	0,077	0,034
-358,854	191,435	-0,067	0,074
-357,839	71,148	0,083	-0,062
-356,825	-200,000	-0,007	-0,102
-355,810	211,348	-0,052	-0,060
-354,796	-10,113	-0,034	-0,016
-353,781	-164,860	-0,053	-0,002
-352,766	-200,000	0,025	0,171
-351,752	-37,594	-0,019	0,007
-350,737	81,011	-0,034	-0,027
-349,723	-200,000	-0,021	0,173
-348,708	84,994	0,024	0,019
-347,693	467,297	-0,022	0,036
-346,679	-200,000	0,024	-0,108
-345,664	-137,912	-0,262	0,021
-344,650	800,000	0,053	0,141
-343,635	24,630	0,112	-0,067
-342,620	85,007	0,117	-0,093
-341,606	-200,000	-0,016	-0,146
-340,591	-200,000	-0,002	-0,033
-339,577	781,215	-0,062	-0,124
-338,562	284,634	-0,066	-0,086
-337,548	391,901	0,076	0,115
-336,533	669,579	-0,073	0,137
-335,518	-200,000	0,015	-0,182
-334,504	19,665	0,086	-0,050
-333,489	800,000	-0,033	-0,079
-332,475	369,758	-0,036	0,053
-331,460	403,685	-0,066	0,101
-330,445	-5,973	0,123	0,061
-329,431	-110,040	0,191	-0,029
-328,416	800,000	-0,023	0,070
-327,402	-121,104	0,062	0,007
-326,387	143,364	-0,072	0,070
-325,372	16,186	-0,072	0,041
-324,358	-70,074	-0,092	0,025
-323,343	-128,068	-0,075	-0,008
-322,329	32,533	0,062	-0,039
-321,314	102,908	0,086	0,073
-320,299	800,000	-0,069	0,166
-319,285	-200,000	0,002	0,207
-318,270	-200,000	-0,020	0,075
-317,256	-200,000	-0,007	-0,143
-316,241	151,393	-0,066	-0,065
-315,226	-200,000	-0,002	0,139
-314,212	-14,389	0,193	0,090
-313,197	-200,000	-0,004	0,073
-312,183	63,165	0,139	-0,101
-311,168	-200,000	-0,012	-0,093
-310,153	-200,000	0,004	-0,066
-309,139	217,055	-0,062	0,072
-308,124	264,861	-0,063	0,079
-307,110	-94,891	0,149	0,029
-306,095	-200,000	-0,031	0,179
-305,080	201,180	0,084	-0,094
-304,066	109,457	-0,015	0,013
-303,051	-200,000	0,013	-0,082
-302,037	100,634	-0,053	-0,044
-301,022	-200,000	-0,023	-0,105
-300,008	-12,053	0,134	-0,063
-298,993	-200,000	0,012	0,070
-297,978	-152,245	0,113	0,006
-296,964	-20,185	-0,038	0,017
-295,949	292,487	0,094	-0,125
-294,935	800,000	0,069	-0,176
-293,920	-91,097	0,110	0,023
-292,905	-15,590	0,093	0,043
-291,891	1,399	0,117	0,061
-290,876	30,639	0,195	-0,120
-289,862	-200,000	0,018	-0,061
-288,847	32,910	-0,106	-0,067
-287,832	218,849	0,083	-0,097
-286,818	251,737	-0,062	0,076
-285,803	-138,525	-0,008	0,001
-284,789	30,929	0,114	0,071
-283,774	50,258	0,099	0,068
-282,759	266,968	0,068	0,086
-281,745	70,442	0,102	0,076
-280,730	126,015	-0,066	-0,060
-279,716	-38,540	-0,076	0,029
-278,701	106,121	0,048	-0,041
-277,686	-200,000	0,001	-0,048
-276,672	-200,000	0,010	-0,121
-275,657	-34,671	-0,132	0,052
-274,643	800,000	0,001	-0,003
-273,628	47,598	-0,092	-0,062
-272,613	-113,465	-0,047	-0,007
-271,599	-43,837	0,058	0,021
-270,584	-106,467	0,127	-0,020
-269,570	-200,000	-0,010	0,076
-268,555	-200,000	-0,016	0,070
-267,540	259,907	0,086	-0,108
-266,526	3,114	-0,193	-0,101
-265,511	-20,835	0,035	0,016
-264,497	444,873	-0,077	0,123
-263,482	219,154	0,112	0,130
-262,467	-14,703	-0,009	0,004
-261,453	381,527	-0,060	0,089
-260,438	800,000	0,058	-0,161
-259,424	-35,202	-0,138	-0,054
-258,409	254,324	-0,019	0,024
-257,395	-200,000	0,004	-0,078
-256,380	-200,000	0,037	0,207
-255,365	192,119	0,115	0,126
-254,351	-200,000	0,009	-0,089
-253,336	-200,000	-0,001	0,015
-252,322	-83,639	-0,046	-0,010
-251,307	-151,809	-0,097	0,005
-250,292	181,107	0,064	0,068
-249,278	-72,336	0,028	-0,007
-248,263	-78,580	0,026	-0,006
-247,249	-200,000	-0,046	0,162
-246,234	42,518	-0,078	0,051
-245,219	577,736	-0,095	-0,169
-244,205	800,000	0,035	0,077
-243,190	55,116	0,093	0,065
-242,176	-162,424	0,167	0,006
-241,161	800,000	0,076	-0,173
-240,146	800,000	0,021	-0,066
-239,132	-85,045	-0,022	0,005
-238,117	713,979	0,028	0,054
-237,103	-200,000	0,024	-0,102
-236,088	-200,000	0,016	0,111
-235,073	-117,684	-0,094	0,012
-234,059	-200,000	0,031	0,136
-233,044	-154,685	0,075	0,004
-232,030	227,445	0,037	-0,043
-231,015	-74,481	-0,062	-0,016
-230,000	171,856	-0,039	0,041
-228,986	86,522	0,071	0,057
-227,971	508,683	0,028	0,046
-226,957	-110,640	-0,090	-0,013
-225,942	41,553	-0,086	0,056
-224,927	-27,208	0,017	0,007
-223,913	686,044	0,069	-0,130
-222,898	800,000	-0,044	-0,105
-221,884	225,729	0,095	0,111
-220,869	-29,799	-0,082	0,034
-219,855	108,115	-0,094	0,081
-218,840	800,000	-0,084	0,229
-217,825	-88,274	0,097	-0,021
-216,811	509,224	0,064	0,108
-215,796	210,271	-0,123	0,140
-214,782	41,132	-0,068	-0,044
-213,767	800,000	-0,043	-0,090
-212,752	91,647	0,044	-0,036
-211,738	-13,795	0,040	-0,019
-210,723	-104,726	0,145	-0,024
-209,709	-200,000	-0,015	-0,106
-208,694	-200,000	0,005	0,049
-207,679	-61,063	0,087	-0,026
-206,665	-101,207	-0,169	-0,029
-205,650	10,036	0,094	-0,051
-204,636	61,454	-0,072	-0,052
-203,621	800,000	0,037	-0,092
-202,606	-19,049	-0,093	-0,042
-201,592	-92,111	0,123	-0,025
-200,577	-200,000	-0,034	0,132
-199,563	800,000	-0,023	-0,057
-198,548	155,629	-0,077	0,076
-197,533	159,984	0,077	0,078
-196,519	-9,224	0,045	0,022
-195,504	29,636	-0,147	0,090
-194,490	556,317	0,038	-0,067
-193,475	-200,000	-0,010	-0,042
-192,460	800,000	-0,048	-0,112
-191,446	36,783	0,113	-0,072
-190,431	-181,705	0,160	-0,002
-189,417	-81,865	-0,057	0,013
-188,402	31,808	-0,131	0,081
-187,387	7,975	-0,115	-0,062
-186,373	-60,612	-0,056	-0,017
-185,358	-20,957	-0,050	-0,022
-184,344	19,162	0,060	0,035
-183,329	-200,000	0,013	-0,060
-182,315	800,000	-0,012	0,025
-181,300	-23,315	-0,075	-0,032
-180,285	39,763	0,050	-0,032
-179,271	-200,000	-0,041	0,157
-178,256	-200,000	0,015	0,111
-177,242	-200,000	0,016	0,204
-176,227	-93,428	0,095	-0,019
-175,212	-200,000	-0,028	0,097
-174,198	-200,000	-0,009	0,038
-173,183	-32,937	-0,080	-0,032
-172,169	274,148	-0,054	-0,070
-171,154	-30,298	-0,028	-0,012
-170,139	-87,114	0,117	-0,025
-169,125	-93,340	-0,096	0,019
-168,110	-32,945	-0,121	-0,048
-167,096	578,450	0,059	0,105
-166,081	581,295	0,008	-0,015
-165,066	24,824	-0,102	-0,061
-164,052	-111,623	0,117	-0,017
-163,037	-22,121	0,051	0,022
-162,023	-141,879	0,080	0,006
-161,008	39,224	0,095	0,061
-159,993	-200,000	0,005	0,061
-158,979	-122,794	-0,099	-0,011
-157,964	-82,935	0,040	-0,009
-156,950	-164,122	-0,105	-0,003
-155,935	-106,994	0,027	-0,004
-154,920	800,000	0,070	0,142
-153,906	800,000	0,081	0,164
-152,891	-10,057	0,075	-0,036
-151,877	6,656	-0,034	-0,018
-150,862	202,896	0,021	-0,024
-149,847	180,548	0,048	-0,051
-148,833	112,327	0,023	-0,020
-147,818	-57,947	0,051	0,016
-146,804	-200,000	-0,051	0,201
-145,789	103,499	0,063	-0,054
-144,775	-200,000	-0,016	0,112
-143,760	126,720	-0,060	-0,055
-142,745	60,732	0,034	-0,025
-141,731	454,050	-0,044	-0,070
-140,716	-200,000	0,032	-0,118
-139,702	-56,510	-0,063	0,020
-138,687	-200,000	-0,006	0,112
-137,672	145,513	0,065	0,063
-136,658	-200,000	0,020	-0,150
-135,643	42,756	0,101	0,066
-134,629	-120,515	-0,044	0,005
-133,614	-200,000	-0,004	0,155
-132,599	-200,000	0,001	0,042
-131,585	105,565	0,047	0,040
-130,570	-8,391	-0,140	-0,068
-129,556	-158,118	0,125	-0,005
-128,541	-45,783	-0,179	0,063
-127,526	-200,000	0,017	-0,073
-126,512	-95,341	0,117	0,022
-125,497	-120,330	-0,102	-0,012
-124,483	-200,000	-0,019	-0,082
-123,468	145,698	-0,082	0,079
-122,453	-20,714	-0,080	0,035
-121,439	268,797	0,031	0,039
-120,424	-177,173	0,008	0,000
-119,410	-200,000	-0,010	0,067
-118,395	-69,887	-0,060	0,016
-117,380	-6,696	0,158	-0,077
-116,366	235,877	-0,009	0,010
-115,351	800,000	0,054	-0,118
-114,337	-200,000	0,034	-0,178
-113,322	800,000	-0,043	0,096
-112,307	-200,000	-0,002	-0,034
-111,293	-200,000	-0,001	0,007
-110,278	-97,791	0,077	0,014
-109,264	800,000	0,036	0,106
-108,249	483,373	-0,044	0,073
-107,234	-200,000	-0,022	0,082
-106,220	493,718	0,048	-0,080
-105,205	-200,000	0,000	0,080
-104,191	77,271	-0,026	-0,020
-103,176	28,304	-0,077	-0,046
-102,162	-200,000	0,016	-0,065
-101,147	-200,000	-0,002	0,084
-100,132	60,614	-0,062	0,044
-99,118	56,022	-0,072	-0,050
-98,103	19,118	-0,029	0,017
-97,089	525,778	-0,081	0,138
-96,074	-40,280	-0,045	0,017
-95,059	71,774	-0,097	0,073
-94,045	231,194	-0,076	-0,090
-93,030	800,000	-0,057	-0,149
-92,016	163,672	-0,090	0,091
-91,001	800,000	-0,041	0,085
-89,986	571,603	0,030	0,054
-88,972	-200,000	-0,003	0,083
-87,957	450,978	-0,109	0,174
-86,943	800,000	0,033	-0,071
-85,928	800,000	-0,024	-0,067
-84,913	-128,661	-0,031	0,003
-83,899	148,689	0,118	-0,115
-82,884	353,059	0,069	0,099
-81,870	-68,074	0,063	-0,017
-80,855	-113,547	-0,106	0,015
-79,840	-80,624	-0,107	0,025
-78,826	-38,720	-0,129	0,049
-77,811	-75,486	-0,118	-0,030
-76,797	-61,394	-0,116	-0,035
-75,782	102,580	-0,081	0,068
-74,767	125,420	0,091	-0,083
-73,753	-200,000	0,001	0,086
-72,738	-200,000	-0,012	0,126
-71,724	289,664	-0,081	-0,106
-70,709	261,132	-0,064	-0,080
-69,694	-51,504	-0,054	-0,018
-68,680	-200,000	-0,003	-0,034
-67,665	800,000	0,043	0,130
-66,651	-200,000	0,004	0,065
-65,636	64,522	-0,035	0,025
-64,622	57,763	0,111	-0,078
-63,607	-129,496	0,094	0,009
-62,592	-200,000	-0,020	0,128
-61,578	-21,255	0,033	-0,015
-60,563	-200,000	-0,021	0,168
-59,549	295,001	0,042	-0,055
-58,534	9,440	-1,825	-0,989
-57,519	-200,000	-0,326	-1,098
-56,505	-200,000	-1,231	-4,861
-55,490	81,928	0,755	0,587
-54,476	800,000	5,285	12,098
-53,461	-200,000	17,291	284,501
-52,446	800,000	723,349	2229,261
-51,432	543,630	1639,065	2819,977
-50,417	111,815	1631,316	1413,970
-49,403	76,160	1286,238	976,616
-48,388	32,746	1028,473	637,520
-47,373	20,260	990,373	572,693
-46,359	18,698	978,409	560,624
-45,344	16,106	974,605	549,928
-44,330	16,299	973,181	549,736
-43,315	15,921	971,147	547,331
-42,300	15,857	970,058	546,485
-41,286	15,867	968,954	545,873
-40,271	15,801	968,314	545,276
-39,257	15,844	967,207	544,773
-38,242	15,857	966,420	544,350
-37,227	15,858	965,593	543,866
-36,213	15,818	964,790	543,260
-35,198	15,868	963,958	542,935
-34,184	15,912	963,115	542,578
-33,169	15,813	962,213	541,729
-32,154	15,927	961,172	541,489
-31,140	15,875	960,287	540,801
-30,125	15,878	959,691	540,454
-29,111	15,853	958,811	539,858
-28,096	15,896	958,158	539,606
-27,082	15,859	957,531	539,113
-26,067	15,780	956,851	538,455
-25,052	15,812	955,917	538,010
-24,038	15,794	955,265	537,565
-23,023	15,866	954,679	537,443
-22,009	15,814	953,998	536,874
-20,994	15,881	953,217	536,629
-19,979	15,870	952,776	536,322
-18,965	15,839	952,115	535,830
-17,950	15,856	951,638	535,593
-16,936	15,787	950,915	534,945
-15,921	15,867	950,096	534,719
-14,906	15,768	949,505	534,048
-13,892	15,740	948,702	533,485
-12,877	15,738	948,174	533,162
-11,863	15,658	947,631	532,581
-10,848	15,742	947,136	532,548
-9,833	15,811	946,464	532,371
-8,819	15,835	945,898	532,107
-7,804	15,742	945,416	531,518
-6,790	15,755	944,647	531,105
-5,775	15,771	944,087	530,820
-4,760	15,821	943,394	530,570
-3,746	15,764	942,654	529,950
-2,731	15,605	942,297	529,227
-1,717	15,643	941,521	528,891
-0,702	15,614	940,903	528,431
0,313	15,390	940,375	528,223
1,327	18,490	938,088	536,670
2,342	27,418	795,492	478,786
3,356	24,238	459,318	271,562
4,371	-2,913	313,920	156,779
5,386	-7,076	295,799	143,509
6,400	-9,127	289,686	138,497
7,415	-9,634	287,342	136,866
8,429	-9,577	285,701	136,128
9,444	-9,642	284,835	135,639
10,459	-9,580	284,220	135,394
11,473	-9,571	283,644	135,117
12,488	-9,392	283,143	135,039
13,502	-9,524	282,610	134,646
14,517	-9,641	282,337	134,390
15,531	-9,415	281,683	134,285
16,546	-9,444	281,318	134,071
17,561	-9,591	281,116	133,822
18,575	-9,289	280,742	133,921
19,590	-9,628	280,275	133,362
20,604	-9,483	280,200	133,453
21,619	-9,477	279,633	133,177
22,634	-9,610	279,423	132,938
23,648	-9,729	279,063	132,642
24,663	-9,374	278,728	132,809
25,677	-9,629	278,546	132,467
26,692	-9,499	278,317	132,470
27,707	-9,477	277,965	132,312
28,721	-9,582	277,744	132,095
29,736	-9,495	277,455	132,028
30,750	-9,578	277,168	131,802
31,765	-9,508	276,954	131,754
32,780	-9,614	276,736	131,539
33,794	-9,374	276,474	131,629
34,809	-9,484	276,128	131,349
35,823	-9,555	275,936	131,178
36,838	-9,413	275,573	131,128
37,853	-9,564	275,435	130,908
38,867	-9,590	275,345	130,829
39,882	-9,579	275,072	130,699
40,896	-9,614	274,874	130,560
41,911	-9,559	274,483	130,415
42,926	-9,712	274,338	130,191
43,940	-9,544	273,938	130,147
44,955	-9,537	273,712	130,034
45,969	-9,649	273,632	129,879
46,984	-9,763	273,262	129,587
47,999	-9,803	273,030	129,428
49,013	-9,935	272,718	129,145
50,028	-10,219	272,533	128,781
51,042	-10,158	272,280	128,708
52,057	-10,160	271,903	128,516
53,071	-10,245	271,755	128,356
54,086	-10,201	271,520	128,275
55,101	-10,050	271,521	128,403
56,115	-9,763	271,316	128,560
57,130	-9,520	271,171	128,704
58,144	-9,502	270,948	128,604
59,159	-9,431	270,686	128,534
60,174	-9,492	270,414	128,336
61,188	-9,479	270,328	128,296
62,203	-9,461	270,043	128,166
63,217	-9,259	269,754	128,203
64,232	-9,467	269,610	127,932
65,247	-9,373	269,379	127,898
66,261	-9,391	268,992	127,686
67,276	-9,584	268,839	127,425
68,290	-9,818	268,771	127,167
69,305	-10,094	268,441	126,748
70,320	-9,879	268,233	126,835
71,334	-9,742	267,991	126,834
72,349	-9,533	267,967	127,002
73,363	-9,466	267,617	126,885
74,378	-9,578	267,391	126,665
75,393	-9,502	267,204	126,634
76,407	-9,576	266,972	126,446
77,422	-9,459	266,782	126,451
78,436	-9,414	266,560	126,375
79,451	-9,407	266,342	126,267
80,466	-9,481	266,025	126,038
81,480	-9,508	265,827	125,909
82,495	-9,630	265,729	125,741
83,509	-9,500	265,546	125,761
84,524	-9,672	265,231	125,445
85,539	-9,871	265,147	125,215
86,553	-9,856	264,800	125,053
87,568	-9,718	264,630	125,086
88,582	-9,621	264,520	125,110
89,597	-9,795	264,174	124,779
90,611	-9,547	264,132	124,970
91,626	-9,371	263,881	124,999
92,641	-9,507	263,689	124,775
93,655	-9,517	263,479	124,655
94,670	-9,598	263,257	124,467
95,684	-9,622	263,191	124,403
96,699	-9,661	262,938	124,237
97,714	-9,602	262,682	124,159
98,728	-9,681	262,501	123,991
99,743	-9,786	262,238	123,762
100,757	-9,908	262,072	123,564
101,772	-9,657	261,812	123,654
102,787	-9,526	261,576	123,648
103,801	-9,401	261,575	123,748
104,816	-9,408	261,398	123,646
105,830	-9,282	260,979	123,548
106,845	-9,376	260,940	123,436
107,860	-9,458	260,650	123,215
108,874	-9,696	260,547	122,945
109,889	-9,442	260,326	123,054
110,903	-9,489	260,172	122,929
111,918	-9,507	259,887	122,767
112,933	-9,545	259,641	122,607
113,947	-9,610	259,578	122,509
114,962	-9,536	259,382	122,471
115,976	-9,384	259,160	122,488
116,991	-9,610	259,064	122,233
118,006	-9,465	258,839	122,243
119,020	-9,584	258,803	122,111
120,035	-9,341	258,541	122,190
121,049	-9,569	258,589	122,002
122,064	-9,469	258,078	121,837
123,079	-9,410	257,864	121,776
124,093	-9,454	257,722	121,661
125,108	-9,514	257,482	121,484
126,122	-9,788	257,142	121,074
127,137	-9,972	257,032	120,851
128,151	-9,772	256,950	120,977
129,166	-9,769	256,709	120,854
130,181	-9,826	256,443	120,669
131,195	-9,724	256,195	120,630
132,210	-9,559	256,216	120,773
133,224	-9,625	256,059	120,631
134,239	-9,724	255,877	120,448
135,254	-9,602	255,724	120,471
136,268	-9,599	255,474	120,345
137,283	-9,720	255,076	120,042
138,297	-9,717	254,879	119,942
139,312	-9,914	254,824	119,735
140,327	-9,567	254,725	119,977
141,341	-9,439	254,647	120,040
142,356	-9,561	254,385	119,801
143,370	-9,318	254,195	119,909
144,385	-9,168	253,984	119,928
145,400	-9,295	253,649	119,651
146,414	-9,230	253,676	119,708
147,429	-9,486	253,506	119,398
148,443	-9,254	253,271	119,475
149,458	-9,377	253,146	119,300
150,473	-9,252	252,901	119,281
151,487	-9,472	252,751	119,012
152,502	-9,488	252,500	118,869
153,516	-9,372	252,386	118,904
154,531	-9,277	252,082	118,830
155,546	-9,449	252,054	118,660
156,560	-9,320	251,788	118,634
157,575	-9,352	251,537	118,479
158,589	-9,328	251,334	118,393
159,604	-9,512	251,372	118,243
160,619	-9,458	251,023	118,115
161,633	-9,415	250,945	118,104
162,648	-9,298	250,893	118,169
163,662	-9,388	250,715	117,998
164,677	-9,128	250,528	118,119
165,692	-9,270	250,197	117,832
166,706	-9,444	250,189	117,671
167,721	-9,064	249,825	117,810
168,735	-9,298	249,789	117,585
169,750	-9,334	249,572	117,442
170,764	-9,325	249,558	117,433
171,779	-9,333	249,465	117,372
172,794	-9,310	249,115	117,215
173,808	-9,366	248,945	117,078
174,823	-9,593	248,545	116,689
175,837	-9,790	248,505	116,495
176,852	-9,624	248,373	116,562
177,867	-9,367	248,250	116,709
178,881	-9,410	248,241	116,658
179,896	-9,262	247,975	116,647
180,910	-9,099	247,635	116,613
181,925	-9,242	247,591	116,462
182,940	-9,200	247,349	116,373
183,954	-9,188	247,336	116,366
184,969	-9,285	247,162	116,194
185,983	-9,110	246,948	116,228
186,998	-9,359	246,922	115,998
188,013	-9,159	246,579	115,993
189,027	-9,265	246,416	115,818
190,042	-9,548	246,453	115,590
191,056	-9,328	246,032	115,565
192,071	-9,357	245,999	115,515
193,086	-9,383	245,669	115,328
194,100	-9,348	245,490	115,263
195,115	-9,363	245,504	115,247
196,129	-9,259	245,280	115,217
197,144	-9,290	244,952	115,027
198,159	-9,407	244,814	114,855
199,173	-9,283	244,700	114,894
200,188	-9,291	244,463	114,766
201,202	-9,519	244,092	114,394
202,217	-9,865	243,879	114,001
203,232	-9,785	243,785	114,011
204,246	-9,412	243,697	114,266
205,261	-9,264	243,533	114,300
206,275	-10,520	243,182	113,097
207,290	-7,320	244,455	116,311
208,304	0,040	246,832	123,525
209,319	3,846	247,733	127,117
210,334	4,192	247,794	127,422
211,348	4,464	247,637	127,555
212,363	4,589	247,491	127,572
213,377	4,707	247,430	127,627
214,392	4,697	247,356	127,569
215,407	4,571	246,893	127,215
216,421	4,598	246,874	127,216
217,436	4,776	246,689	127,256
218,450	5,065	246,678	127,476
219,465	4,672	246,204	126,898
220,480	4,226	246,255	126,546
221,494	4,245	245,995	126,417
222,509	4,368	245,826	126,420
223,523	4,362	245,610	126,293
224,538	3,904	245,420	125,808
225,553	4,080	245,228	125,843
226,567	4,043	245,145	125,759
227,582	4,032	245,019	125,674
228,596	4,369	245,003	125,929
229,611	3,989	244,562	125,382
230,626	3,831	244,372	125,145
231,640	4,183	244,144	125,303
232,655	4,039	244,141	125,174
233,669	4,082	243,833	125,039
234,684	4,043	243,852	125,006
235,699	4,229	243,793	125,116
236,713	4,519	243,562	125,221
237,728	4,143	243,317	124,780
238,742	3,821	243,267	124,482
239,757	3,902	242,963	124,380
240,772	4,045	242,815	124,409
241,786	3,922	242,777	124,280
242,801	3,971	242,464	124,148
243,815	3,835	242,325	123,956
244,830	4,028	242,223	124,048
245,844	4,175	242,140	124,113
246,859	4,069	241,861	123,874
247,874	3,944	241,692	123,675
248,888	3,968	241,645	123,660
249,903	3,953	241,487	123,556
250,917	4,147	241,427	123,670
251,932	4,343	241,187	123,693
252,947	4,307	240,946	123,530
253,961	4,178	240,763	123,322
254,976	4,152	240,696	123,255
255,990	4,385	240,592	123,377
257,005	4,026	240,252	122,906
258,020	3,891	240,102	122,710
259,034	4,073	240,061	122,824
260,049	4,174	240,000	122,862
261,063	3,898	239,730	122,493
262,078	3,851	239,552	122,353
263,093	4,402	239,345	122,675
264,107	4,143	239,461	122,517
265,122	3,956	239,122	122,184
266,136	4,219	239,023	122,332
267,151	4,335	238,880	122,340
268,166	4,141	238,612	122,038
269,180	3,984	238,323	121,755
270,195	4,362	238,414	122,090
271,209	4,772	238,344	122,367
272,224	4,261	237,953	121,752
273,239	3,780	237,739	121,253
274,253	3,878	237,631	121,264
275,268	4,015	237,452	121,270
276,282	4,090	237,450	121,317
277,297	4,006	237,053	121,037
278,312	4,077	237,124	121,119
279,326	4,088	236,966	121,035
280,341	3,943	236,889	120,872
281,355	3,980	236,733	120,810
282,370	4,267	236,643	120,978
283,384	3,883	236,605	120,647
284,399	3,981	236,272	120,544
285,414	3,616	236,039	120,128
286,428	3,966	235,878	120,309
287,443	3,832	235,775	120,141
288,457	4,000	235,696	120,222
289,472	4,306	235,545	120,373
290,487	4,127	235,302	120,098
291,501	3,992	235,110	119,884
292,516	3,789	234,963	119,641
293,530	3,620	234,783	119,407
294,545	4,118	234,834	119,810
295,560	4,158	234,614	119,718
296,574	3,966	234,370	119,434
297,589	4,026	234,308	119,438
298,603	4,332	234,178	119,599
299,618	4,289	234,059	119,493
300,633	4,417	233,796	119,447
301,647	4,347	233,944	119,458
302,662	4,554	233,844	119,556
303,676	4,566	233,554	119,407
304,691	4,402	233,308	119,144
305,706	4,338	233,172	119,015
306,720	4,493	233,066	119,069
307,735	4,266	233,009	118,855
308,749	4,373	232,622	118,729
309,764	3,960	232,496	118,336
310,779	3,952	232,334	118,238
311,793	3,731	232,190	117,983
312,808	3,839	231,923	117,920
313,822	3,742	231,783	117,765
314,837	3,764	231,640	117,698
315,852	3,742	231,590	117,645
316,866	3,974	231,525	117,779
317,881	4,122	231,382	117,809
318,895	3,968	231,117	117,546
319,910	4,442	231,169	117,924
320,925	4,396	231,088	117,838
321,939	3,895	230,827	117,312
322,954	4,162	230,633	117,406
323,968	3,840	230,516	117,091
324,983	3,836	230,102	116,867
325,997	4,377	230,340	117,389
327,012	4,455	230,172	117,352
328,027	4,215	229,937	117,040
329,041	4,548	229,875	117,250
330,056	4,838	229,813	117,428
331,070	5,014	229,627	117,456
332,085	4,712	229,269	117,034
333,100	4,483	229,231	116,831
334,114	4,076	229,023	116,407
335,129	4,552	228,821	116,654
336,143	4,678	228,817	116,736
337,158	4,463	228,783	116,546
338,173	4,349	228,541	116,326
339,187	4,233	228,277	116,095
340,202	4,496	228,209	116,248
341,216	4,323	227,993	115,997
342,231	4,124	227,881	115,780
343,246	4,131	227,712	115,689
344,260	4,278	227,659	115,762
345,275	4,550	227,510	115,880
346,289	4,636	227,435	115,896
347,304	4,469	227,298	115,691
348,319	4,481	226,945	115,510
349,333	4,194	226,835	115,229
350,348	4,059	226,798	115,099
351,362	4,126	226,584	115,030
352,377	4,046	226,329	114,830
353,392	3,987	226,223	114,723
354,406	4,205	225,975	114,749
355,421	195,741	1321,932	1400,089
356,435	156,907	1455,461	1400,096
