DTS Sentinel unit serial number:	SN410029Multiplexer serial number:	ORYXHardware model number:	OX2-SRSoftware version number:	ORYX F/W v4,00 Oryx Data Collector v3.7.2.0data status	okinstallation	B5 Nyhavnadifferential loss correction	single-endedforward channel	channel 2reverse channel	N/Adate	2023/12/12time	08:47:13forward acquisition time	300,00reverse acquisition time	0,00gamma	499,1914k internal	0,3158k external	0,3158temperature offset calibration	1,0000default loss term (dB/km)	0,3820temperature slope calibration	1,0000multiplexer offset coefficient	1,0000multiplexer slope coefficient	1,0000fibre end	0,00T internal ref (°C)	15,06T ext. ref 1 (°C)	-1,33T ext. ref 2 (°C)	-1,61length (m)	temperature (°C)	Stokes	anti-Stokes-744,400	-185,210	0,138	0,002
-743,385	-104,521	-0,210	0,035
-742,371	-38,743	0,059	-0,023
-741,356	-112,187	-0,233	0,034
-740,342	6,597	0,165	-0,090
-739,327	-92,838	-0,386	-0,079
-738,312	149,711	0,101	0,101
-737,298	-115,965	-0,350	0,048
-736,283	396,461	0,052	-0,080
-735,269	-34,621	-0,229	-0,092
-734,254	-74,329	-0,014	0,004
-733,239	42,139	-0,437	-0,292
-732,225	-17,892	0,130	0,060
-731,210	-200,000	0,012	0,070
-730,196	-200,000	-0,001	-0,103
-729,181	-127,127	0,121	-0,013
-728,167	-200,000	-0,053	-0,193
-727,152	800,000	0,024	-0,068
-726,137	-90,311	0,043	-0,009
-725,123	-75,844	0,059	0,015
-724,108	-155,218	-0,025	-0,001
-723,094	800,000	-0,044	-0,118
-722,079	-192,261	-0,092	-0,001
-721,064	-41,847	0,074	0,028
-720,050	90,257	-0,058	0,048
-719,035	800,000	0,023	0,051
-718,021	-104,008	-0,116	-0,020
-717,006	41,168	0,002	0,001
-715,991	-145,988	-0,082	-0,005
-714,977	262,195	0,061	-0,079
-713,962	771,184	-0,028	-0,057
-712,948	188,917	-0,100	0,110
-711,933	-88,351	-0,044	0,010
-710,918	-93,618	-0,120	-0,024
-709,904	-150,910	-0,108	-0,006
-708,889	-120,472	-0,157	-0,019
-707,875	800,000	-0,020	-0,054
-706,860	111,186	0,077	-0,069
-705,845	305,161	-0,048	-0,066
-704,831	-200,000	-0,000	0,028
-703,816	539,377	0,034	-0,059
-702,802	-149,657	-0,040	0,002
-701,787	800,000	-0,074	-0,183
-700,772	162,244	-0,090	-0,093
-699,758	-163,776	-0,017	0,001
-698,743	-154,048	0,161	0,008
-697,729	26,643	0,131	0,081
-696,714	92,699	-0,081	-0,067
-695,699	400,935	-0,060	-0,093
-694,685	122,385	-0,125	-0,115
-693,670	-200,000	0,000	-0,047
-692,656	-30,112	-0,050	0,021
-691,641	-200,000	-0,017	-0,065
-690,627	416,970	0,027	-0,043
-689,612	-200,000	-0,004	-0,020
-688,597	112,661	-0,055	0,049
-687,583	61,305	0,048	0,035
-686,568	800,000	0,072	-0,222
-685,554	-109,600	0,116	-0,018
-684,539	800,000	0,010	0,032
-683,524	775,801	-0,040	0,081
-682,510	-200,000	0,050	-0,208
-681,495	800,000	0,008	-0,023
-680,481	181,011	0,058	-0,063
-679,466	39,840	-0,129	0,085
-678,451	583,932	0,027	-0,049
-677,437	800,000	0,035	-0,105
-676,422	129,244	0,059	0,055
-675,408	19,283	-0,095	-0,056
-674,393	280,930	0,055	-0,072
-673,378	5,921	0,034	0,018
-672,364	-88,363	-0,152	0,033
-671,349	20,756	0,071	-0,042
-670,335	-200,000	0,004	0,071
-669,320	-16,406	-0,129	-0,060
-668,305	800,000	0,028	-0,071
-667,291	151,042	-0,121	-0,121
-666,276	-71,339	0,015	0,004
-665,262	19,599	-0,034	-0,020
-664,247	-200,000	0,027	-0,105
-663,232	70,571	0,011	0,008
-662,218	237,447	0,078	0,095
-661,203	94,831	0,038	0,032
-660,189	219,458	0,050	-0,059
-659,174	-109,668	-0,096	-0,015
-658,159	-2,317	-0,063	-0,032
-657,145	-134,511	0,085	-0,008
-656,130	-200,000	-0,012	0,142
-655,116	-93,840	-0,039	0,008
-654,101	88,852	0,123	0,101
-653,086	-200,000	-0,004	-0,079
-652,072	55,750	0,026	-0,018
-651,057	-200,000	-0,011	-0,211
-650,043	800,000	0,024	0,064
-649,028	-146,062	0,099	-0,006
-648,014	133,043	-0,090	-0,086
-646,999	-200,000	0,017	0,141
-645,984	-91,241	-0,123	0,026
-644,970	-107,140	0,190	-0,030
-643,955	-125,219	0,152	0,017
-642,941	-91,290	-0,095	0,020
-641,926	5,240	-0,065	0,035
-640,911	-125,226	-0,117	-0,013
-639,897	394,776	-0,092	0,142
-638,882	-5,581	-0,067	-0,034
-637,868	800,000	-0,038	-0,093
-636,853	-139,632	-0,183	-0,014
-635,838	46,788	-0,106	-0,072
-634,824	-155,973	-0,057	0,003
-633,809	149,035	0,054	0,054
-632,795	-200,000	-0,003	0,094
-631,780	-95,904	-0,057	-0,011
-630,765	-200,000	-0,010	-0,050
-629,751	800,000	0,025	0,065
-628,736	49,052	-0,145	0,100
-627,722	-174,214	0,157	0,003
-626,707	800,000	0,082	0,198
-625,692	-132,482	-0,015	0,001
-624,678	-200,000	-0,025	-0,124
-623,663	800,000	-0,037	-0,106
-622,649	800,000	0,013	-0,032
-621,634	766,121	-0,015	0,031
-620,619	-62,989	-0,139	-0,042
-619,605	78,426	-0,004	-0,003
-618,590	-108,364	0,116	-0,018
-617,576	-200,000	-0,004	0,206
-616,561	-182,682	-0,131	-0,002
-615,546	-200,000	-0,017	-0,092
-614,532	-28,139	-0,107	0,045
-613,517	22,938	-0,074	-0,044
-612,503	473,040	0,046	-0,077
-611,488	-43,414	0,106	0,039
-610,474	-55,829	0,104	-0,034
-609,459	128,657	0,035	-0,032
-608,444	800,000	0,072	0,173
-607,430	-200,000	0,013	-0,051
-606,415	76,031	0,066	0,052
-605,401	800,000	0,030	-0,065
-604,386	763,622	-0,068	-0,137
-603,371	-155,318	0,038	0,002
-602,357	590,388	-0,025	-0,045
-601,342	-200,000	-0,010	-0,199
-600,328	80,782	-0,164	-0,129
-599,313	-200,000	0,015	0,064
-598,298	118,919	-0,024	0,022
-597,284	800,000	0,019	-0,049
-596,269	-200,000	-0,009	-0,205
-595,255	-200,000	-0,023	0,132
-594,240	-200,000	0,007	0,040
-593,225	-161,393	-0,045	0,002
-592,211	263,736	-0,061	-0,077
-591,196	-114,240	-0,046	-0,006
-590,182	150,490	0,024	-0,024
-589,167	800,000	-0,040	0,084
-588,152	-104,751	0,066	-0,011
-587,138	681,478	0,029	0,055
-586,123	2,371	0,077	0,041
-585,109	-50,516	-0,110	-0,038
-584,094	649,708	0,010	0,019
-583,079	176,644	-0,044	-0,047
-582,065	68,936	-0,062	0,046
-581,050	-106,020	0,035	-0,006
-580,036	-200,000	-0,000	-0,018
-579,021	-106,859	0,041	0,007
-578,006	-33,042	-0,065	-0,026
-576,992	-79,350	0,063	0,015
-575,977	75,924	0,036	0,028
-574,963	-58,602	0,065	-0,020
-573,948	126,657	-0,047	-0,044
-572,934	524,398	0,029	0,051
-571,919	-200,000	0,002	-0,089
-570,904	-58,497	-0,113	0,036
-569,890	-90,911	-0,062	-0,013
-568,875	800,000	-0,050	0,109
-567,861	105,538	-0,073	0,063
-566,846	-200,000	0,011	-0,046
-565,831	112,529	-0,051	0,045
-564,817	6,039	0,076	-0,041
-563,802	-14,387	-0,053	0,025
-562,788	244,688	0,102	-0,125
-561,773	110,984	-0,048	-0,042
-560,758	800,000	0,041	0,100
-559,744	316,932	-0,123	0,171
-558,729	315,616	0,021	0,029
-557,715	-200,000	0,011	-0,070
-556,700	-35,411	0,064	0,025
-555,685	117,221	-0,143	0,129
-554,671	800,000	-0,033	-0,073
-553,656	-200,000	-0,000	0,040
-552,642	-30,089	0,069	0,028
-551,627	-200,000	0,014	0,235
-550,612	-124,990	-0,059	-0,007
-549,598	-200,000	0,005	-0,036
-548,583	-200,000	-0,023	-0,189
-547,569	-30,103	0,010	0,004
-546,554	50,373	0,088	-0,060
-545,539	-91,348	0,109	-0,023
-544,525	233,614	-0,092	-0,111
-543,510	-133,312	-0,048	-0,004
-542,496	-200,000	0,039	-0,198
-541,481	800,000	0,031	-0,097
-540,466	-200,000	0,010	0,061
-539,452	-200,000	-0,015	0,164
-538,437	334,264	0,039	-0,055
-537,423	-85,384	0,087	-0,020
-536,408	172,001	-0,081	-0,086
-535,393	13,707	0,096	-0,055
-534,379	-16,613	0,131	0,060
-533,364	-200,000	-0,003	0,169
-532,350	800,000	0,012	0,027
-531,335	-44,580	0,071	-0,026
-530,321	28,604	0,085	-0,053
-529,306	173,553	0,062	-0,066
-528,291	303,280	0,053	0,072
-527,277	800,000	0,043	-0,100
-526,262	-126,694	-0,175	-0,019
-525,248	91,280	-0,074	-0,061
-524,233	-11,461	-0,031	-0,015
-523,218	-200,000	0,015	-0,067
-522,204	255,820	0,035	-0,043
-521,189	-200,000	-0,001	0,132
-520,175	31,717	-0,038	-0,024
-519,160	800,000	0,033	-0,086
-518,145	-126,782	0,056	0,006
-517,131	-68,696	-0,069	-0,019
-516,116	-84,402	0,082	0,019
-515,102	-200,000	0,005	0,080
-514,087	800,000	0,016	-0,040
-513,072	-200,000	0,006	-0,036
-512,058	17,990	0,037	-0,021
-511,043	800,000	0,018	-0,042
-510,029	-200,000	-0,011	0,070
-509,014	800,000	0,021	0,064
-507,999	-33,789	-0,062	0,025
-506,985	8,123	-0,175	0,095
-505,970	-200,000	-0,010	-0,094
-504,956	18,334	-0,042	0,025
-503,941	-17,099	0,077	0,036
-502,926	-57,674	-0,082	-0,026
-501,912	589,545	-0,026	0,046
-500,897	33,430	-0,018	-0,012
-499,883	86,286	0,072	0,058
-498,868	55,307	-0,026	-0,018
-497,853	800,000	0,036	0,083
-496,839	-79,662	0,026	-0,006
-495,824	-64,383	-0,049	0,015
-494,810	800,000	0,013	0,038
-493,795	800,000	-0,061	0,163
-492,781	293,459	-0,071	0,094
-491,766	-86,990	-0,130	-0,029
-490,751	800,000	-0,025	0,074
-489,737	800,000	0,088	-0,211
-488,722	296,199	-0,030	0,040
-487,708	800,000	0,034	0,071
-486,693	-200,000	-0,003	0,067
-485,678	112,211	0,080	-0,070
-484,664	800,000	0,028	0,069
-483,649	-5,162	-0,079	0,040
-482,635	-121,872	0,120	-0,014
-481,620	687,800	-0,037	0,070
-480,605	53,970	-0,083	0,058
-479,591	-21,334	0,081	-0,036
-478,576	-43,805	-0,107	0,039
-477,562	-96,389	-0,048	0,009
-476,547	624,388	0,040	0,075
-475,532	-200,000	0,003	-0,042
-474,518	171,540	0,049	-0,052
-473,503	-200,000	0,007	0,063
-472,489	-85,183	0,065	0,015
-471,474	71,040	0,014	0,010
-470,459	-26,386	-0,090	0,038
-469,445	26,024	-0,067	-0,041
-468,430	145,255	0,081	0,079
-467,416	158,087	-0,048	-0,048
-466,401	-139,867	0,027	0,002
-465,386	2,823	0,019	-0,010
-464,372	-200,000	-0,037	-0,138
-463,357	56,252	-0,081	-0,058
-462,343	-200,000	-0,002	-0,078
-461,328	800,000	-0,013	-0,038
-460,313	-17,667	0,030	-0,014
-459,299	-94,050	0,072	0,014
-458,284	800,000	-0,034	0,089
-457,270	125,811	0,041	-0,038
-456,255	800,000	0,013	-0,032
-455,241	691,861	-0,023	0,044
-454,226	78,061	0,106	-0,083
-453,211	-16,959	0,103	0,047
-452,197	-200,000	0,011	-0,081
-451,182	-99,078	0,045	-0,008
-450,168	-200,000	-0,016	0,160
-449,153	475,670	0,029	0,049
-448,138	94,784	-0,091	0,075
-447,124	-13,174	-0,060	0,028
-446,109	-200,000	0,030	-0,150
-445,095	-55,169	0,089	-0,029
-444,080	-200,000	0,005	0,103
-443,065	-200,000	-0,040	0,143
-442,051	124,336	-0,088	-0,081
-441,036	-68,489	-0,064	0,018
-440,022	-200,000	-0,013	-0,101
-439,007	-120,276	-0,150	-0,018
-437,992	-200,000	-0,001	-0,065
-436,978	30,412	0,111	-0,069
-435,963	-200,000	-0,009	0,080
-434,949	154,374	-0,052	-0,052
-433,934	519,745	0,032	0,056
-432,919	782,151	-0,024	-0,048
-431,905	61,783	-0,171	-0,124
-430,890	-175,068	0,198	0,004
-429,876	136,171	0,012	0,011
-428,861	480,912	0,057	-0,095
-427,846	-200,000	-0,013	-0,088
-426,832	182,217	-0,117	-0,125
-425,817	50,010	-0,100	-0,069
-424,803	49,277	0,121	-0,083
-423,788	-200,000	-0,014	-0,222
-422,773	-117,314	-0,101	-0,013
-421,759	-200,000	0,010	0,039
-420,744	-130,777	0,056	-0,005
-419,730	800,000	0,034	-0,092
-418,715	-200,000	-0,002	0,045
-417,701	554,097	0,008	-0,014
-416,686	357,132	0,061	0,089
-415,671	-200,000	0,014	0,074
-414,657	-61,383	-0,051	-0,016
-413,642	156,842	0,026	0,026
-412,628	-200,000	-0,000	-0,032
-411,613	520,464	-0,013	0,022
-410,598	116,940	-0,064	0,057
-409,584	191,343	0,070	0,076
-408,569	701,177	-0,051	0,098
-407,555	489,474	0,037	-0,062
-406,540	46,185	-0,099	-0,067
-405,525	-135,579	-0,162	0,014
-404,511	279,665	-0,064	-0,083
-403,496	290,453	0,060	-0,080
-402,482	39,934	-0,036	0,024
-401,467	800,000	0,054	0,151
-400,452	-200,000	-0,043	0,142
-399,438	800,000	0,050	0,104
-398,423	800,000	0,045	0,110
-397,409	635,753	0,018	0,033
-396,394	-200,000	-0,012	0,101
-395,379	116,287	0,055	-0,049
-394,365	-57,544	0,056	0,018
-393,350	800,000	-0,014	0,044
-392,336	178,113	0,170	-0,181
-391,321	-3,445	-0,077	-0,039
-390,306	-42,125	-0,145	0,054
-389,292	800,000	-0,041	0,111
-388,277	109,025	-0,029	0,025
-387,263	800,000	0,053	0,114
-386,248	-47,912	0,127	0,044
-385,233	-47,819	0,112	-0,039
-384,219	208,159	0,019	0,021
-383,204	-129,054	-0,072	0,007
-382,190	66,836	0,038	-0,028
-381,175	-61,632	0,058	0,018
-380,160	317,032	-0,079	-0,108
-379,146	-25,937	0,093	0,040
-378,131	486,597	0,043	0,071
-377,117	669,910	-0,033	0,062
-376,102	-34,496	0,045	-0,018
-375,088	268,386	-0,115	-0,147
-374,073	43,233	-0,145	0,096
-373,058	800,000	-0,048	-0,149
-372,044	800,000	-0,018	0,044
-371,029	-90,707	-0,056	-0,012
-370,015	380,764	0,111	0,166
-369,000	191,050	-0,119	0,130
-367,985	-125,043	0,124	-0,014
-366,971	128,068	0,026	-0,024
-365,956	800,000	-0,018	-0,041
-364,942	-138,046	-0,029	0,002
-363,927	-5,044	0,154	0,077
-362,912	87,307	0,086	0,069
-361,898	-36,558	-0,021	0,008
-360,883	-200,000	-0,006	-0,056
-359,869	-200,000	-0,037	0,120
-358,854	334,792	0,075	-0,106
-357,839	314,143	0,066	-0,091
-356,825	256,097	0,128	0,159
-355,810	-149,760	-0,067	-0,004
-354,796	211,572	0,016	-0,018
-353,781	-46,303	-0,119	0,042
-352,766	73,836	0,172	-0,131
-351,752	-8,721	-0,107	-0,052
-350,737	-54,161	0,142	0,047
-349,723	800,000	0,046	-0,112
-348,708	118,449	-0,039	-0,035
-347,693	214,081	-0,041	-0,047
-346,679	-85,548	-0,146	-0,033
-345,664	-200,000	-0,047	-0,162
-344,650	-121,507	-0,070	-0,008
-343,635	-200,000	-0,008	0,091
-342,620	800,000	-0,005	0,011
-341,606	113,094	0,096	-0,085
-340,591	199,433	0,031	-0,035
-339,577	63,068	-0,174	-0,127
-338,562	285,337	-0,058	0,076
-337,548	232,474	-0,040	0,047
-336,533	527,470	0,006	-0,010
-335,518	-48,322	0,055	-0,019
-334,504	239,903	0,052	-0,063
-333,489	-200,000	-0,001	0,011
-332,475	-28,647	-0,044	-0,018
-331,460	534,524	0,048	-0,082
-330,445	-65,415	0,110	0,032
-329,431	487,981	-0,023	0,039
-328,416	-200,000	0,012	0,043
-327,402	-71,316	-0,026	-0,007
-326,387	458,355	0,050	0,081
-325,372	-40,297	-0,162	-0,061
-324,358	-9,736	0,044	-0,021
-323,343	-38,186	0,100	0,038
-322,329	280,928	0,035	-0,045
-321,314	-200,000	0,030	0,102
-320,299	-200,000	-0,007	-0,093
-319,285	452,142	-0,040	-0,065
-318,270	-200,000	0,005	-0,037
-317,256	124,601	-0,077	0,070
-316,241	3,950	0,068	0,036
-315,226	-92,667	0,141	0,028
-314,212	-200,000	0,001	-0,050
-313,197	188,128	0,048	0,052
-312,183	-200,000	0,041	0,132
-311,168	-200,000	-0,008	0,108
-310,153	110,001	0,035	-0,030
-309,139	800,000	0,028	-0,080
-308,124	-63,399	-0,090	0,027
-307,110	-200,000	0,035	0,149
-306,095	93,629	0,080	0,065
-305,080	4,319	-0,091	0,048
-304,066	-135,458	0,031	-0,003
-303,051	800,000	-0,028	-0,086
-302,037	309,797	0,032	0,044
-301,022	800,000	0,049	0,151
-300,008	80,425	0,041	0,032
-298,993	186,566	-0,126	0,136
-297,978	-200,000	0,016	-0,119
-296,964	720,383	0,033	-0,063
-295,949	59,292	0,063	-0,045
-294,935	358,547	-0,025	0,036
-293,920	97,407	0,021	0,017
-292,905	183,438	-0,110	0,118
-291,891	800,000	-0,064	0,139
-290,876	105,679	-0,099	-0,085
-289,862	-200,000	-0,014	-0,131
-288,847	-200,000	-0,043	-0,138
-287,832	-0,779	-0,072	-0,037
-286,818	51,580	0,035	0,024
-285,803	54,190	0,090	-0,063
-284,789	5,159	0,132	-0,070
-283,774	280,573	0,098	0,128
-282,759	136,320	0,069	0,065
-281,745	437,800	-0,074	0,117
-280,730	66,056	-0,066	0,049
-279,716	800,000	0,076	-0,204
-278,701	-52,784	0,039	-0,013
-277,686	83,008	0,067	0,053
-276,672	-111,043	0,187	0,027
-275,657	408,077	-0,055	-0,085
-274,643	800,000	0,023	-0,050
-273,628	-55,688	-0,015	0,005
-272,613	-200,000	-0,004	-0,073
-271,599	33,150	-0,137	-0,086
-270,584	31,971	0,234	0,146
-269,570	533,707	0,046	0,079
-268,555	129,003	0,088	0,081
-267,540	-22,186	-0,014	-0,006
-266,526	269,510	-0,039	0,049
-265,511	-143,119	-0,098	0,007
-264,497	-28,721	0,088	0,036
-263,482	800,000	0,077	0,158
-262,467	800,000	-0,009	0,028
-261,453	121,558	-0,045	0,041
-260,438	-95,564	-0,117	0,022
-259,424	-31,026	-0,056	0,023
-258,409	-48,128	-0,114	-0,039
-257,395	716,705	0,061	0,117
-256,380	-200,000	-0,006	0,084
-255,365	-2,318	-0,109	-0,055
-254,351	263,152	0,062	-0,078
-253,336	-200,000	-0,001	-0,023
-252,322	618,827	-0,077	-0,141
-251,307	220,640	0,032	0,037
-250,292	-200,000	0,004	0,068
-249,278	-200,000	-0,008	-0,047
-248,263	-125,493	0,110	-0,012
-247,249	132,286	-0,125	0,117
-246,234	-58,023	-0,070	-0,022
-245,219	16,613	0,059	-0,034
-244,205	-60,927	0,086	0,026
-243,190	-156,220	-0,102	0,005
-242,176	21,089	0,073	-0,043
-241,161	13,250	0,083	0,046
-240,146	-200,000	0,019	-0,130
-239,132	20,855	0,054	-0,031
-238,117	214,937	-0,082	-0,094
-237,103	-200,000	-0,029	-0,122
-236,088	-120,092	0,129	-0,016
-235,073	800,000	-0,037	-0,087
-234,059	697,921	0,068	0,130
-233,044	-30,492	0,124	0,050
-232,030	45,251	-0,043	0,029
-231,015	800,000	0,003	-0,010
-230,000	156,628	-0,059	-0,059
-228,986	-141,323	-0,076	0,006
-227,971	-19,685	0,060	-0,027
-226,957	-200,000	-0,010	0,072
-225,942	68,427	-0,031	-0,023
-224,927	258,888	0,077	-0,097
-223,913	-200,000	0,018	-0,059
-222,898	-177,442	0,055	-0,001
-221,884	503,514	-0,087	0,145
-220,869	385,099	-0,022	0,033
-219,855	86,826	0,078	-0,062
-218,840	108,596	-0,156	-0,134
-217,825	-200,000	0,010	0,085
-216,811	249,591	0,070	-0,086
-215,796	89,079	0,079	0,063
-214,782	-19,780	0,136	-0,061
-213,767	-200,000	-0,017	0,176
-212,752	191,692	0,134	0,146
-211,738	800,000	0,030	0,083
-210,723	735,513	-0,033	0,064
-209,709	-200,000	0,005	-0,027
-208,694	-200,000	0,031	-0,137
-207,679	8,600	-0,114	-0,062
-206,665	-156,287	0,035	0,002
-205,650	103,591	0,039	-0,033
-204,636	-84,541	0,161	-0,036
-203,621	-49,484	-0,109	-0,037
-202,606	56,101	-0,014	-0,010
-201,592	331,567	0,049	0,068
-200,577	-140,038	-0,034	-0,003
-199,563	-200,000	0,012	0,045
-198,548	394,532	-0,066	0,099
-197,533	-23,746	-0,042	0,018
-196,519	-82,299	0,026	-0,006
-195,504	797,691	-0,016	-0,032
-194,490	756,978	0,036	-0,071
-193,475	-200,000	-0,004	-0,187
-192,460	72,400	0,085	-0,064
-191,446	-133,280	0,040	0,004
-190,431	-150,403	0,180	0,010
-189,417	-84,417	0,081	-0,018
-188,402	10,236	-0,132	-0,072
-187,387	-200,000	0,002	-0,009
-186,373	184,728	-0,129	-0,138
-185,358	148,796	-0,018	0,017
-184,344	179,871	-0,061	0,065
-183,329	577,150	0,049	0,087
-182,315	-200,000	-0,008	0,099
-181,300	17,481	-0,112	-0,064
-180,285	800,000	0,068	-0,197
-179,271	-48,335	-0,034	0,012
-178,256	-132,809	0,130	0,012
-177,242	-97,314	0,125	0,023
-176,227	229,593	-0,057	0,067
-175,212	800,000	-0,042	-0,113
-174,198	800,000	0,015	-0,045
-173,183	-61,075	0,053	0,016
-172,169	800,000	0,040	-0,097
-171,154	-155,455	-0,124	-0,006
-170,139	-40,571	0,090	0,033
-169,125	595,573	-0,025	0,045
-168,110	-200,000	-0,019	0,080
-167,096	-200,000	-0,023	-0,076
-166,081	-37,853	0,173	-0,066
-165,066	-9,710	-0,072	0,034
-164,052	-62,965	-0,081	-0,024
-163,037	424,764	-0,062	-0,096
-162,023	-191,526	-0,019	0,000
-161,008	76,230	0,050	0,038
-159,993	273,733	-0,043	-0,055
-158,979	-103,919	-0,092	-0,015
-157,964	-122,454	0,024	0,003
-156,950	-190,143	-0,116	0,001
-155,935	166,551	-0,068	0,069
-154,920	-55,765	-0,047	0,015
-153,906	-2,780	0,075	0,038
-152,891	-141,038	-0,041	0,003
-151,877	-200,000	0,006	-0,040
-150,862	-200,000	-0,015	-0,091
-149,847	-200,000	-0,002	0,021
-148,833	8,075	-0,093	-0,050
-147,818	384,322	0,035	-0,052
-146,804	98,326	0,169	-0,140
-145,789	37,099	-0,124	0,079
-144,775	185,576	0,048	0,052
-143,760	-72,205	0,163	0,043
-142,745	-29,093	0,104	-0,043
-141,731	356,342	0,041	-0,059
-140,716	288,692	0,041	-0,054
-139,702	800,000	0,054	0,136
-138,687	137,149	-0,104	0,098
-137,672	592,452	0,038	0,068
-136,658	81,243	-0,067	0,052
-135,643	2,813	-0,089	-0,046
-134,629	800,000	0,018	-0,038
-133,614	21,135	-0,007	0,004
-132,599	-200,000	0,008	0,101
-131,585	104,143	0,188	0,159
-130,570	243,163	0,024	-0,029
-129,556	-96,919	-0,064	0,012
-128,541	85,118	-0,113	-0,089
-127,526	-95,054	0,040	0,008
-126,512	800,000	0,017	0,047
-125,497	132,467	-0,031	-0,029
-124,483	76,899	0,135	0,103
-123,468	-200,000	-0,001	0,038
-122,453	-45,294	-0,032	0,011
-121,439	-60,569	0,061	-0,018
-120,424	-200,000	-0,002	-0,074
-119,410	11,532	0,075	0,041
-118,395	227,295	-0,043	0,050
-117,380	-59,782	-0,104	-0,032
-116,366	800,000	0,089	-0,202
-115,351	27,950	-0,067	-0,040
-114,337	-54,251	0,107	-0,035
-113,322	501,359	0,023	0,039
-112,307	221,132	-0,103	-0,119
-111,293	42,299	-0,021	-0,014
-110,278	14,661	-0,090	-0,050
-109,264	800,000	-0,060	-0,184
-108,249	123,742	-0,027	-0,025
-107,234	-200,000	-0,051	-0,177
-106,220	-5,678	0,054	0,026
-105,205	691,828	0,083	-0,157
-104,191	-120,025	-0,057	-0,007
-103,176	16,525	0,166	0,094
-102,162	-168,435	-0,083	-0,002
-101,147	109,227	-0,013	0,011
-100,132	-200,000	0,019	0,105
-99,118	608,686	-0,023	-0,041
-98,103	-17,043	0,132	-0,060
-97,089	800,000	0,034	-0,103
-96,074	526,012	-0,065	0,111
-95,059	292,548	0,068	0,089
-94,045	-23,844	-0,098	0,042
-93,030	314,954	-0,034	0,047
-92,016	-200,000	-0,025	-0,183
-91,001	-127,200	0,181	-0,019
-89,986	-110,451	-0,073	0,011
-88,972	164,070	-0,029	-0,029
-87,957	-200,000	-0,017	0,109
-86,943	-200,000	0,008	0,052
-85,928	-200,000	-0,000	-0,062
-84,913	414,546	0,036	0,055
-83,899	-124,589	-0,008	-0,001
-82,884	800,000	0,024	0,072
-81,870	103,157	-0,094	0,079
-80,855	317,812	0,060	0,081
-79,840	268,889	0,060	0,076
-78,826	322,887	-0,014	0,019
-77,811	-50,979	-0,064	-0,022
-76,797	800,000	-0,057	0,159
-75,782	-191,786	-0,026	-0,000
-74,767	-200,000	-0,007	0,047
-73,753	800,000	0,039	-0,107
-72,738	322,742	-0,007	0,010
-71,724	-200,000	0,019	-0,109
-70,709	-6,841	-0,119	0,058
-69,694	19,579	0,129	-0,074
-68,680	-200,000	-0,002	0,038
-67,665	-200,000	0,009	0,044
-66,651	-73,374	-0,028	-0,007
-65,636	-200,000	0,032	-0,205
-64,622	-200,000	-0,004	0,102
-63,607	-200,000	0,003	-0,029
-62,592	-200,000	-0,029	0,171
-61,578	-159,618	0,146	-0,006
-60,563	186,708	-0,053	-0,057
-59,549	-200,000	0,019	0,132
-58,534	4,659	-1,937	-1,018
-57,519	800,000	-0,357	-0,949
-56,505	-200,000	-1,251	-4,880
-55,490	-5,812	0,805	0,394
-54,476	800,000	5,425	12,214
-53,461	-200,000	17,786	288,605
-52,446	800,000	729,136	2229,750
-51,432	537,676	1645,426	2816,399
-50,417	109,731	1635,607	1406,794
-49,403	75,627	1287,422	974,744
-48,388	31,890	1027,435	633,550
-47,373	20,162	989,385	571,421
-46,359	18,386	977,196	558,540
-45,344	15,451	972,945	546,489
-44,330	15,627	971,722	546,356
-43,315	15,130	969,777	543,618
-42,300	15,076	968,710	542,823
-41,286	15,027	967,859	542,164
-40,271	15,030	966,672	541,488
-39,257	15,073	965,710	541,068
-38,242	15,133	964,991	540,838
-37,227	15,070	963,932	540,019
-36,213	15,054	963,172	539,518
-35,198	15,106	962,284	539,169
-34,184	15,094	961,592	538,719
-33,169	15,032	960,527	537,902
-32,154	15,087	959,672	537,579
-31,140	15,158	958,724	537,256
-30,125	15,118	957,943	536,666
-29,111	15,087	957,232	536,150
-28,096	15,093	956,570	535,776
-27,082	15,111	955,815	535,388
-26,067	15,142	955,188	535,116
-25,052	15,088	954,444	534,506
-24,038	15,065	953,759	534,028
-23,023	15,039	953,286	533,656
-22,009	15,166	952,510	533,610
-20,994	15,161	951,729	533,134
-19,979	15,121	951,103	532,634
-18,965	15,030	950,681	532,084
-17,950	15,124	950,044	532,009
-16,936	15,049	949,172	531,261
-15,921	15,075	948,523	530,958
-14,906	14,987	947,942	530,333
-13,892	14,983	947,270	529,923
-12,877	14,909	946,638	529,310
-11,863	15,004	945,976	529,221
-10,848	14,944	945,618	528,811
-9,833	15,045	944,949	528,736
-8,819	15,050	944,215	528,320
-7,804	15,026	943,543	527,849
-6,790	15,033	943,017	527,555
-5,775	15,010	942,702	527,284
-4,760	15,054	941,910	526,959
-3,746	15,038	941,229	526,506
-2,731	14,872	940,347	525,469
-1,717	14,796	939,894	524,952
-0,702	14,865	939,335	524,837
0,313	14,611	938,623	524,430
1,327	17,976	936,430	533,756
2,342	27,104	793,133	476,225
3,356	23,826	458,379	270,199
4,371	-3,388	314,386	156,401
5,386	-7,711	296,272	143,001
6,400	-9,449	290,057	138,264
7,415	-9,783	287,684	136,792
8,429	-10,090	286,147	135,748
9,444	-10,270	285,219	135,120
10,459	-9,967	284,645	135,131
11,473	-10,081	284,069	134,735
12,488	-10,008	283,510	134,529
13,502	-10,273	283,128	134,079
14,517	-10,268	282,501	133,775
15,531	-9,937	281,942	133,817
16,546	-10,050	281,723	133,592
17,561	-10,208	281,289	133,223
18,575	-10,177	281,074	133,139
19,590	-10,116	280,534	132,930
20,604	-9,911	280,242	132,976
21,619	-10,192	279,926	132,545
22,634	-10,089	279,481	132,421
23,648	-10,244	279,217	132,136
24,663	-10,081	279,024	132,189
25,677	-10,032	278,710	132,075
26,692	-10,094	278,471	131,891
27,707	-10,147	278,146	131,675
28,721	-10,235	278,063	131,540
29,736	-10,062	277,557	131,453
30,750	-10,197	277,467	131,270
31,765	-10,129	277,123	131,161
32,780	-10,181	276,915	131,002
33,794	-10,252	276,676	130,809
34,809	-10,092	276,349	130,794
35,823	-10,130	276,158	130,656
36,838	-10,187	276,055	130,542
37,853	-10,218	275,657	130,313
38,867	-10,260	275,448	130,164
39,882	-10,210	275,288	130,123
40,896	-10,066	274,967	130,095
41,911	-10,198	274,637	129,803
42,926	-10,243	274,436	129,655
43,940	-10,350	274,283	129,471
44,955	-10,146	273,738	129,392
45,969	-10,170	273,757	129,368
46,984	-10,291	273,475	129,110
47,999	-10,497	273,236	128,793
49,013	-10,635	272,931	128,510
50,028	-10,803	272,734	128,250
51,042	-10,945	272,385	127,942
52,057	-10,914	272,198	127,871
53,071	-10,977	272,014	127,715
54,086	-10,644	271,770	127,898
55,101	-10,629	271,641	127,839
56,115	-10,428	271,463	127,930
57,130	-10,264	271,212	127,952
58,144	-10,016	270,983	128,062
59,159	-10,041	270,842	127,961
60,174	-10,023	270,413	127,763
61,188	-10,119	270,507	127,707
62,203	-10,216	270,261	127,491
63,217	-10,061	270,060	127,528
64,232	-10,145	269,704	127,271
65,247	-10,211	269,572	127,137
66,261	-10,216	269,345	127,014
67,276	-10,143	269,039	126,924
68,290	-10,272	268,847	126,705
69,305	-10,543	268,535	126,299
70,320	-10,302	268,167	126,334
71,334	-10,200	268,186	126,425
72,349	-10,082	267,977	126,423
73,363	-10,023	267,738	126,353
74,378	-9,970	267,563	126,306
75,393	-10,017	267,365	126,160
76,407	-10,116	267,131	125,948
77,422	-9,957	266,948	125,995
78,436	-9,972	266,674	125,840
79,451	-10,049	266,414	125,637
80,466	-10,005	266,162	125,547
81,480	-10,155	265,919	125,285
82,495	-10,208	265,673	125,110
83,509	-10,229	265,714	125,099
84,524	-10,106	265,387	125,045
85,539	-10,492	265,168	124,583
86,553	-10,541	264,939	124,420
87,568	-10,159	264,579	124,584
88,582	-10,312	264,603	124,446
89,597	-10,325	264,267	124,266
90,611	-10,197	264,264	124,368
91,626	-9,939	264,024	124,475
92,641	-10,073	263,824	124,250
93,655	-10,056	263,449	124,078
94,670	-10,017	263,356	124,057
95,684	-10,021	263,167	123,954
96,699	-10,275	263,039	123,656
97,714	-10,214	262,697	123,538
98,728	-10,270	262,527	123,397
99,743	-10,383	262,316	123,186
100,757	-10,249	261,946	123,120
101,772	-10,227	261,736	123,030
102,787	-10,295	261,729	122,955
103,801	-10,268	261,615	122,916
104,816	-10,028	261,253	122,947
105,830	-10,045	261,031	122,816
106,845	-9,980	261,021	122,858
107,860	-10,082	260,839	122,671
108,874	-10,432	260,675	122,273
109,889	-10,376	260,420	122,193
110,903	-10,203	260,138	122,202
111,918	-10,199	260,027	122,143
112,933	-9,961	259,684	122,181
113,947	-10,040	259,762	122,137
114,962	-10,138	259,466	121,901
115,976	-9,919	259,185	121,950
116,991	-10,122	259,135	121,737
118,006	-10,014	258,830	121,678
119,020	-10,227	258,842	121,486
120,035	-10,142	258,575	121,424
121,049	-10,043	258,394	121,415
122,064	-10,295	258,219	121,101
123,079	-10,107	258,077	121,189
124,093	-10,256	257,704	120,873
125,108	-10,200	257,439	120,786
126,122	-10,428	257,270	120,497
127,137	-10,359	256,987	120,414
128,151	-10,423	256,853	120,285
129,166	-10,263	256,596	120,293
130,181	-10,311	256,515	120,202
131,195	-10,441	256,261	119,960
132,210	-10,101	256,093	120,166
133,224	-9,953	256,036	120,256
134,239	-10,006	255,792	120,085
135,254	-9,981	255,637	120,023
136,268	-10,160	255,492	119,790
137,283	-10,386	255,013	119,359
138,297	-10,517	254,874	119,170
139,312	-10,408	254,640	119,145
140,327	-10,134	254,543	119,324
141,341	-9,963	254,370	119,379
142,356	-10,015	254,405	119,340
143,370	-10,185	254,140	119,060
144,385	-9,903	253,920	119,188
145,400	-10,015	253,877	119,061
146,414	-9,846	253,544	119,039
147,429	-9,906	253,396	118,908
148,443	-9,771	253,278	118,957
149,458	-10,031	253,082	118,633
150,473	-9,952	252,911	118,609
151,487	-9,976	252,656	118,459
152,502	-10,012	252,516	118,351
153,516	-9,910	252,289	118,322
154,531	-9,898	252,112	118,239
155,546	-9,722	251,987	118,319
156,560	-9,903	251,741	118,039
157,575	-9,933	251,527	117,902
158,589	-10,198	251,361	117,589
159,604	-9,922	251,085	117,684
160,619	-9,926	250,935	117,600
161,633	-9,976	250,863	117,513
162,648	-9,887	250,676	117,490
163,662	-9,813	250,439	117,432
164,677	-9,605	250,353	117,556
165,692	-9,775	250,310	117,382
166,706	-9,818	250,122	117,247
167,721	-9,647	249,918	117,285
168,735	-9,984	249,757	116,915
169,750	-9,730	249,491	116,994
170,764	-9,877	249,339	116,788
171,779	-9,845	249,278	116,777
172,794	-9,787	249,061	116,713
173,808	-9,992	248,903	116,457
174,823	-10,211	248,570	116,107
175,837	-10,364	248,301	115,842
176,852	-9,920	248,265	116,187
177,867	-10,017	248,231	116,080
178,881	-9,986	248,103	116,036
179,896	-9,654	247,893	116,204
180,910	-9,771	247,670	115,992
181,925	-9,835	247,642	115,915
182,940	-9,836	247,404	115,792
183,954	-10,057	247,235	115,519
184,969	-10,057	247,076	115,434
185,983	-9,855	246,907	115,514
186,998	-9,693	246,574	115,481
188,013	-9,654	246,383	115,414
189,027	-9,919	246,474	115,226
190,042	-9,892	246,150	115,087
191,056	-9,799	245,988	115,078
192,071	-9,669	245,816	115,095
193,086	-9,820	245,707	114,908
194,100	-9,890	245,416	114,704
195,115	-9,658	245,097	114,737
196,129	-9,786	245,032	114,590
197,144	-9,642	244,896	114,635
198,159	-9,920	244,868	114,383
199,173	-9,794	244,435	114,274
200,188	-9,943	244,326	114,091
201,202	-10,174	244,203	113,834
202,217	-10,424	243,833	113,445
203,232	-10,417	243,578	113,323
204,246	-9,998	243,602	113,667
205,261	-9,642	243,398	113,853
206,275	-10,843	243,082	112,713
207,290	-6,890	244,689	116,699
208,304	0,517	246,884	123,864
209,319	3,390	247,665	126,621
210,334	3,808	247,563	126,904
211,348	4,002	247,572	127,056
212,363	4,289	247,496	127,243
213,377	4,249	247,439	127,169
214,392	4,161	247,160	126,943
215,407	4,130	247,104	126,877
216,421	4,102	246,920	126,748
217,436	4,189	246,696	126,694
218,450	4,368	246,675	126,818
219,465	4,198	246,248	126,448
220,480	3,790	246,276	126,116
221,494	3,889	245,956	126,022
222,509	3,942	245,835	125,992
223,523	4,082	245,461	125,904
224,538	3,613	245,268	125,411
225,553	3,765	245,139	125,458
226,567	3,947	245,058	125,554
227,582	3,813	245,012	125,409
228,596	3,927	244,898	125,433
229,611	3,649	244,624	125,055
230,626	3,638	244,333	124,886
231,640	3,769	244,207	124,917
232,655	3,883	244,171	124,980
233,669	3,835	243,820	124,750
234,684	3,678	243,686	124,544
235,699	3,883	243,799	124,756
236,713	4,021	243,571	124,741
237,728	3,757	243,322	124,388
238,742	3,670	242,908	124,095
239,757	3,581	242,801	123,957
240,772	3,514	242,907	123,946
241,786	3,774	242,676	124,027
242,801	3,711	242,458	123,854
243,815	3,503	242,257	123,572
244,830	3,863	242,090	123,766
245,844	3,896	241,945	123,707
246,859	3,809	241,864	123,585
247,874	3,699	241,629	123,365
248,888	3,674	241,525	123,281
249,903	3,835	241,441	123,357
250,917	3,788	241,444	123,309
251,932	4,013	241,069	123,288
252,947	4,004	241,051	123,260
253,961	3,768	240,705	122,883
254,976	3,786	240,693	122,881
255,990	3,853	240,583	122,867
257,005	3,784	240,356	122,685
258,020	3,658	239,941	122,362
259,034	3,544	240,099	122,341
260,049	3,867	239,776	122,422
261,063	3,788	239,692	122,306
262,078	3,698	239,519	122,135
263,093	4,027	239,437	122,344
264,107	3,886	239,220	122,110
265,122	3,687	239,001	121,829
266,136	3,831	238,891	121,876
267,151	4,273	238,841	122,191
268,166	3,938	238,583	121,782
269,180	3,679	238,452	121,500
270,195	4,159	238,472	121,879
271,209	4,319	238,272	121,892
272,224	3,825	237,897	121,300
273,239	3,637	237,718	121,049
274,253	3,676	237,660	121,040
275,268	3,926	237,481	121,135
276,282	3,928	237,490	121,130
277,297	3,513	237,128	120,608
278,312	3,736	237,136	120,777
279,326	3,801	237,038	120,767
280,341	3,756	236,861	120,631
281,355	3,770	236,774	120,587
282,370	3,999	236,582	120,658
283,384	3,762	236,489	120,414
284,399	3,617	236,196	120,141
285,414	3,418	235,930	119,839
286,428	3,520	235,813	119,849
287,443	3,719	235,613	119,892
288,457	3,881	235,569	119,985
289,472	4,145	235,339	120,063
290,487	3,765	235,234	119,703
291,501	3,548	235,044	119,427
292,516	3,627	234,902	119,405
293,530	3,500	234,644	119,165
294,545	3,688	234,739	119,349
295,560	3,877	234,452	119,339
296,574	3,656	234,273	119,066
297,589	3,773	234,126	119,071
298,603	4,078	234,069	119,267
299,618	4,007	233,957	119,145
300,633	3,914	233,901	119,034
301,647	4,226	233,696	119,160
302,662	4,341	233,633	119,206
303,676	4,335	233,411	119,078
304,691	4,197	233,225	118,866
305,706	4,251	233,250	118,909
306,720	4,146	233,115	118,749
307,735	3,796	232,935	118,377
308,749	3,900	232,784	118,370
309,764	3,687	232,459	118,031
310,779	3,635	232,216	117,857
311,793	3,501	232,170	117,720
312,808	3,671	231,886	117,696
313,822	3,810	231,713	117,704
314,837	3,667	231,492	117,472
315,852	3,536	231,431	117,330
316,866	4,034	231,314	117,641
317,881	3,796	231,386	117,485
318,895	3,899	231,080	117,398
319,910	4,319	231,065	117,701
320,925	3,937	230,733	117,229
321,939	3,410	230,467	116,683
322,954	3,847	230,456	117,000
323,968	3,853	230,408	116,969
324,983	4,016	230,288	117,022
325,997	3,897	230,225	116,889
327,012	3,743	229,983	116,639
328,027	3,587	229,747	116,390
329,041	3,821	229,616	116,491
330,056	4,782	229,794	117,300
331,070	4,606	229,618	117,066
332,085	4,117	229,413	116,581
333,100	3,961	228,989	116,237
334,114	3,801	228,976	116,099
335,129	3,829	229,052	116,149
336,143	4,317	228,896	116,427
337,158	3,957	228,602	115,996
338,173	3,951	228,506	115,933
339,187	4,027	228,157	115,803
340,202	4,294	228,117	115,972
341,216	3,880	227,961	115,572
342,231	3,760	227,787	115,383
343,246	3,847	227,657	115,372
344,260	4,099	227,564	115,504
345,275	4,126	227,493	115,478
346,289	4,108	227,397	115,406
347,304	4,092	227,169	115,268
348,319	4,240	226,973	115,269
349,333	3,860	226,869	114,921
350,348	3,959	226,578	114,837
351,362	4,234	226,458	114,971
352,377	3,837	226,436	114,653
353,392	3,662	226,185	114,386
354,406	3,876	225,971	114,427
355,421	196,052	1321,999	1400,229
356,435	157,165	1455,528	1400,218
