DTS Sentinel unit serial number:	SN410029Multiplexer serial number:	ORYXHardware model number:	OX2-SRSoftware version number:	ORYX F/W v4,00 Oryx Data Collector v3.7.2.0data status	okinstallation	B5 Nyhavnadifferential loss correction	single-endedforward channel	channel 2reverse channel	N/Adate	2023/12/14time	03:32:14forward acquisition time	300,00reverse acquisition time	0,00gamma	499,1914k internal	0,3156k external	0,3156temperature offset calibration	1,0000default loss term (dB/km)	0,3820temperature slope calibration	1,0000multiplexer offset coefficient	1,0000multiplexer slope coefficient	1,0000fibre end	0,00T internal ref (°C)	8,18T ext. ref 1 (°C)	-8,21T ext. ref 2 (°C)	-8,29length (m)	temperature (°C)	Stokes	anti-Stokes-744,400	61,956	0,123	0,090
-743,385	-115,611	-0,389	-0,053
-742,371	7,026	0,140	-0,077
-741,356	-150,562	-0,315	0,018
-740,342	380,375	0,113	0,172
-739,327	-54,069	-0,360	-0,120
-738,312	-107,860	0,186	-0,030
-737,298	53,251	-0,404	-0,285
-736,283	465,772	0,049	0,081
-735,269	-100,773	-0,381	-0,069
-734,254	153,938	0,104	0,105
-733,239	47,129	-0,412	-0,282
-732,225	-73,867	0,235	0,062
-731,210	143,624	0,178	0,175
-730,196	-168,377	0,048	-0,001
-729,181	-198,869	-0,086	0,000
-728,167	13,654	-0,047	-0,027
-727,152	-31,860	-0,107	-0,044
-726,137	0,270	-0,069	0,036
-725,123	443,247	0,057	0,093
-724,108	128,021	-0,051	-0,048
-723,094	-0,036	-0,086	0,045
-722,079	-200,000	0,015	-0,082
-721,064	-140,067	0,024	-0,002
-720,050	-200,000	-0,004	0,031
-719,035	250,562	-0,054	0,067
-718,021	789,007	-0,035	0,071
-717,006	-8,344	-0,085	-0,042
-715,991	-200,000	-0,046	-0,186
-714,977	271,613	-0,024	0,031
-713,962	-15,621	-0,042	0,020
-712,948	191,497	-0,069	-0,076
-711,933	-112,094	-0,065	0,010
-710,918	134,004	-0,101	-0,096
-709,904	-59,022	-0,140	0,044
-708,889	293,469	-0,055	-0,075
-707,875	130,512	-0,115	-0,109
-706,860	800,000	0,084	0,172
-705,845	-96,561	-0,091	0,018
-704,831	17,035	0,008	0,004
-703,816	-200,000	0,011	0,159
-702,802	340,675	-0,060	-0,086
-701,787	-138,242	-0,090	-0,007
-700,772	-87,579	-0,102	-0,023
-699,758	182,110	0,038	-0,042
-698,743	-200,000	-0,019	0,075
-697,729	-182,114	-0,146	-0,002
-696,714	-9,819	0,136	0,067
-695,699	271,872	0,017	-0,022
-694,685	22,127	-0,070	-0,042
-693,670	-12,469	-0,126	-0,060
-692,656	168,735	-0,051	0,054
-691,641	509,189	-0,037	-0,064
-690,627	-34,449	0,121	0,048
-689,612	732,947	0,027	0,054
-688,597	-25,262	-0,153	-0,066
-687,583	-31,191	-0,114	-0,047
-686,568	173,702	-0,062	-0,066
-685,554	713,145	0,078	-0,154
-684,539	-140,508	-0,093	-0,007
-683,524	-157,159	0,076	0,003
-682,510	543,307	-0,035	-0,063
-681,495	385,119	0,063	-0,097
-680,481	-79,978	-0,027	0,007
-679,466	-200,000	-0,030	-0,163
-678,451	-101,519	-0,093	0,016
-677,437	501,002	0,067	-0,115
-676,422	558,931	-0,044	0,078
-675,408	277,609	-0,091	-0,119
-674,393	-84,062	0,160	0,037
-673,378	83,113	0,020	-0,016
-672,364	-76,264	-0,126	-0,032
-671,349	-200,000	-0,002	-0,042
-670,335	-197,447	0,167	-0,001
-669,320	330,171	0,040	-0,056
-668,305	-200,000	-0,015	0,049
-667,291	524,559	-0,057	0,100
-666,276	185,011	-0,069	0,075
-665,262	262,306	0,039	-0,050
-664,247	53,985	0,082	0,058
-663,232	166,231	0,007	-0,007
-662,218	-200,000	0,007	-0,082
-661,203	-61,392	-0,116	-0,036
-660,189	575,421	0,072	0,129
-659,174	-125,499	-0,060	-0,007
-658,159	537,425	0,139	-0,244
-657,145	32,956	-0,042	-0,027
-656,130	-62,102	0,097	-0,030
-655,116	-182,906	-0,074	0,001
-654,101	-200,000	-0,013	-0,056
-653,086	787,569	0,031	0,062
-652,072	-122,638	-0,123	0,014
-651,057	-200,000	-0,046	-0,189
-650,043	28,824	0,059	-0,037
-649,028	-200,000	-0,011	0,039
-648,014	-124,465	0,060	0,007
-646,999	81,661	-0,056	0,045
-645,984	399,583	0,027	0,041
-644,970	-200,000	-0,016	-0,100
-643,955	-200,000	-0,031	-0,118
-642,941	-200,000	0,021	-0,125
-641,926	800,000	-0,050	0,103
-640,911	351,856	-0,052	-0,076
-639,897	297,315	0,056	-0,075
-638,882	37,324	-0,011	-0,007
-637,868	102,233	-0,033	0,028
-636,853	-200,000	0,016	0,062
-635,838	27,046	-0,093	-0,057
-634,824	-200,000	0,032	-0,125
-633,809	267,772	0,011	0,014
-632,795	225,478	-0,064	0,077
-631,780	-200,000	0,002	0,059
-630,765	261,273	-0,088	-0,112
-629,751	110,928	-0,143	-0,126
-628,736	-200,000	-0,021	-0,103
-627,722	36,881	-0,016	0,010
-626,707	800,000	0,040	0,128
-625,692	65,903	-0,020	-0,015
-624,678	800,000	0,062	-0,183
-623,663	235,149	-0,053	0,064
-622,649	37,466	-0,053	0,034
-621,634	10,943	-0,084	-0,047
-620,619	-56,469	-0,094	0,031
-619,605	23,587	0,131	-0,079
-618,590	-116,912	0,095	0,013
-617,576	82,587	-0,089	-0,071
-616,561	-7,737	0,019	-0,009
-615,546	800,000	0,055	-0,152
-614,532	-200,000	0,029	-0,133
-613,517	475,969	-0,063	0,105
-612,503	-178,412	-0,163	-0,003
-611,488	254,370	0,081	0,102
-610,474	84,530	-0,035	0,028
-609,459	-76,729	-0,043	0,011
-608,444	-200,000	0,036	-0,158
-607,430	91,516	0,061	-0,050
-606,415	455,055	0,026	-0,043
-605,401	-155,340	0,081	0,004
-604,386	343,697	0,081	0,117
-603,371	-75,819	0,076	-0,020
-602,357	211,497	-0,057	0,066
-601,342	-200,000	0,003	-0,037
-600,328	-200,000	-0,009	0,148
-599,313	269,155	-0,089	0,115
-598,298	-200,000	-0,007	-0,141
-597,284	-137,055	0,193	-0,016
-596,269	267,982	-0,051	0,066
-595,255	103,619	0,073	0,062
-594,240	800,000	0,050	-0,143
-593,225	-97,523	-0,055	0,010
-592,211	-142,055	0,147	0,011
-591,196	-115,935	-0,127	-0,017
-590,182	800,000	0,049	0,145
-589,167	40,323	-0,108	0,071
-588,152	457,181	-0,004	-0,007
-587,138	186,722	-0,022	0,024
-586,123	-200,000	-0,014	-0,167
-585,109	-200,000	-0,023	-0,162
-584,094	527,117	-0,008	-0,013
-583,079	-200,000	-0,027	0,111
-582,065	-168,862	-0,085	-0,002
-581,050	-54,576	-0,080	0,026
-580,036	800,000	-0,032	-0,087
-579,021	533,120	0,035	-0,062
-578,006	-11,089	-0,044	0,021
-576,992	22,133	-0,089	0,053
-575,977	-3,515	0,053	-0,027
-574,963	-2,916	0,030	0,015
-573,948	195,350	0,097	0,108
-572,934	-197,349	0,045	-0,000
-571,919	-200,000	-0,020	-0,107
-570,904	-67,315	-0,081	-0,023
-569,890	432,037	-0,054	-0,086
-568,875	93,657	-0,042	0,035
-567,861	-35,034	0,106	0,042
-566,846	390,405	0,083	0,126
-565,831	-200,000	0,010	-0,048
-564,817	-68,133	-0,103	0,029
-563,802	800,000	0,048	-0,133
-562,788	408,375	0,057	-0,089
-561,773	-40,478	0,117	0,044
-560,758	285,815	0,081	0,107
-559,744	-165,500	0,039	-0,001
-558,729	-200,000	0,017	0,110
-557,715	-200,000	-0,014	0,168
-556,700	-152,960	0,100	-0,005
-555,685	243,937	0,007	-0,008
-554,671	-55,527	-0,080	0,026
-553,656	34,070	-0,072	0,046
-552,642	-200,000	-0,001	-0,064
-551,627	635,793	-0,032	-0,060
-550,612	800,000	-0,024	-0,049
-549,598	281,502	-0,081	-0,106
-548,583	342,862	-0,054	-0,077
-547,569	114,637	0,077	0,069
-546,554	-129,596	0,148	0,015
-545,539	-148,690	0,081	0,005
-544,525	-80,392	-0,154	-0,037
-543,510	-104,236	0,089	-0,015
-542,496	120,977	0,059	-0,054
-541,481	628,018	-0,041	-0,075
-540,466	-33,653	0,038	0,015
-539,452	101,927	0,095	0,081
-538,437	294,140	0,036	0,048
-537,423	-30,018	0,106	0,044
-536,408	-44,194	-0,109	-0,040
-535,393	800,000	0,029	-0,071
-534,379	509,435	0,065	0,111
-533,364	-200,000	0,001	-0,166
-532,350	800,000	-0,005	0,011
-531,335	51,066	0,095	-0,066
-530,321	317,616	-0,009	-0,012
-529,306	-50,121	-0,119	0,041
-528,291	-200,000	-0,003	0,090
-527,277	-14,974	-0,151	-0,071
-526,262	-76,713	-0,032	0,008
-525,248	-193,962	0,197	0,001
-524,233	800,000	0,038	-0,085
-523,218	119,873	0,069	-0,062
-522,204	-178,003	0,056	-0,001
-521,189	-92,929	-0,089	-0,018
-520,175	89,016	-0,027	-0,022
-519,160	-161,650	-0,121	-0,004
-518,145	192,449	-0,037	-0,040
-517,131	-106,577	-0,086	0,014
-516,116	-47,226	-0,074	-0,026
-515,102	70,167	-0,062	-0,047
-514,087	-134,805	0,043	0,004
-513,072	-24,423	-0,086	-0,037
-512,058	-110,207	-0,065	0,010
-511,043	800,000	0,027	0,064
-510,029	-76,972	-0,106	0,027
-509,014	348,330	-0,087	0,126
-507,999	289,590	-0,051	0,068
-506,985	-60,762	-0,129	-0,040
-505,970	-26,696	0,129	-0,055
-504,956	-134,301	-0,097	0,009
-503,941	103,934	-0,123	-0,106
-502,926	5,934	-0,069	-0,037
-501,912	800,000	0,020	-0,045
-500,897	272,220	0,087	-0,112
-499,883	194,823	-0,058	0,064
-498,868	273,275	-0,061	0,079
-497,853	104,497	0,042	-0,036
-496,839	-140,586	-0,120	-0,009
-495,824	101,708	0,106	-0,090
-494,810	-107,678	0,016	0,003
-493,795	-14,512	-0,158	0,074
-492,781	-111,758	-0,175	-0,026
-491,766	-200,000	-0,003	-0,150
-490,751	-10,765	0,169	-0,081
-489,737	-150,271	-0,150	-0,008
-488,722	144,215	0,034	0,033
-487,708	-200,000	0,040	0,167
-486,693	-198,603	-0,060	-0,000
-485,678	-200,000	0,014	0,049
-484,664	-150,093	-0,083	0,005
-483,649	777,026	-0,055	-0,110
-482,635	800,000	-0,012	-0,024
-481,620	-200,000	-0,010	0,124
-480,605	-161,072	-0,136	-0,005
-479,591	-200,000	0,036	0,241
-478,576	448,252	-0,077	0,124
-477,562	105,159	0,014	0,012
-476,547	800,000	-0,012	0,028
-475,532	-93,683	0,140	-0,028
-474,518	-200,000	-0,031	-0,130
-473,503	800,000	0,041	-0,104
-472,489	-200,000	-0,028	0,097
-471,474	95,040	0,172	0,143
-470,459	-75,108	-0,078	-0,020
-469,445	-200,000	-0,025	0,129
-468,430	-200,000	0,030	0,112
-467,416	-16,552	0,050	0,023
-466,401	-67,293	0,089	0,025
-465,386	549,802	-0,067	0,117
-464,372	800,000	0,011	-0,031
-463,357	-200,000	0,022	-0,138
-462,343	12,209	-0,083	0,046
-461,328	331,211	-0,072	0,102
-460,313	77,493	-0,049	0,038
-459,299	-200,000	0,024	0,156
-458,284	-24,529	-0,063	0,027
-457,270	800,000	0,039	0,105
-456,255	318,640	0,074	-0,102
-455,241	375,127	0,050	-0,074
-454,226	-111,701	-0,032	0,005
-453,211	32,776	-0,070	-0,044
-452,197	-136,663	0,148	0,012
-451,182	344,348	-0,027	-0,038
-450,168	-53,306	-0,188	-0,063
-449,153	800,000	0,054	0,154
-448,138	-200,000	0,011	0,102
-447,124	-200,000	-0,047	0,000
-446,109	140,025	-0,056	0,053
-445,095	-77,167	0,089	-0,022
-444,080	326,169	-0,005	-0,007
-443,065	-200,000	-0,001	-0,083
-442,051	-136,523	0,108	-0,009
-441,036	107,393	-0,012	0,011
-440,022	-200,000	0,015	0,091
-439,007	-200,000	0,022	0,144
-437,992	43,912	-0,104	-0,070
-436,978	-81,629	0,059	-0,014
-435,963	-8,438	0,078	-0,038
-434,949	-200,000	-0,048	-0,208
-433,934	-11,570	0,057	0,027
-432,919	800,000	-0,042	-0,102
-431,905	16,166	0,130	-0,075
-430,890	-200,000	0,024	0,090
-429,876	-155,016	0,158	0,007
-428,861	-46,256	0,140	-0,050
-427,846	-89,072	-0,112	-0,024
-426,832	-8,314	0,091	0,044
-425,817	1,058	-0,163	0,085
-424,803	800,000	-0,053	-0,164
-423,788	272,884	0,050	0,065
-422,773	-15,421	0,082	0,038
-421,759	68,833	0,082	-0,061
-420,744	31,240	0,062	0,039
-419,730	62,304	0,033	0,024
-418,715	48,729	-0,030	-0,021
-417,701	49,452	0,024	-0,016
-416,686	317,335	-0,010	0,014
-415,671	481,566	0,067	0,112
-414,657	-200,000	-0,033	0,172
-413,642	-14,838	0,119	0,055
-412,628	325,193	-0,032	-0,045
-411,613	7,027	-0,131	0,071
-410,598	800,000	0,014	0,029
-409,584	-200,000	-0,008	0,088
-408,569	800,000	-0,053	0,139
-407,555	154,632	-0,046	0,046
-406,540	-200,000	-0,012	-0,047
-405,525	356,373	0,005	0,007
-404,511	800,000	-0,021	0,060
-403,496	40,700	-0,063	-0,041
-402,482	11,709	0,091	0,051
-401,467	800,000	-0,038	-0,090
-400,452	4,736	-0,028	0,015
-399,438	8,339	0,081	0,044
-398,423	51,192	-0,041	-0,028
-397,409	-108,665	-0,143	0,022
-396,394	-200,000	-0,013	-0,134
-395,379	-64,662	0,132	-0,039
-394,365	188,478	0,016	-0,017
-393,350	-40,817	0,127	0,047
-392,336	800,000	0,015	0,035
-391,321	-200,000	-0,009	-0,064
-390,306	-87,746	-0,084	-0,018
-389,292	293,735	0,049	-0,066
-388,277	8,241	0,081	0,044
-387,263	279,595	0,059	0,077
-386,248	-125,924	0,113	0,012
-385,233	-113,748	-0,029	0,004
-384,219	78,019	0,131	0,101
-383,204	143,357	0,082	0,079
-382,190	79,691	-0,057	0,044
-381,175	800,000	-0,044	-0,107
-380,160	654,982	-0,048	0,090
-379,146	137,779	-0,127	-0,121
-378,131	-22,731	0,039	-0,017
-377,117	132,797	0,063	0,059
-376,102	-52,680	-0,034	-0,011
-375,088	-200,000	0,005	-0,046
-374,073	-200,000	0,011	0,090
-373,058	66,035	0,097	0,072
-372,044	20,356	-0,073	0,043
-371,029	104,251	0,091	0,078
-370,015	11,275	-0,075	-0,042
-369,000	34,272	0,107	0,068
-367,985	227,872	0,028	0,033
-366,971	-200,000	-0,009	0,086
-365,956	48,364	0,143	-0,097
-364,942	641,565	0,004	-0,008
-363,927	301,198	-0,080	0,107
-362,912	761,693	0,041	0,081
-361,898	800,000	-0,019	-0,038
-360,883	-56,211	0,108	-0,035
-359,869	800,000	0,038	-0,082
-358,854	-156,427	0,162	0,007
-357,839	-200,000	0,018	-0,077
-356,825	116,231	-0,098	-0,087
-355,810	-200,000	-0,001	-0,115
-354,796	-200,000	0,016	-0,061
-353,781	301,548	-0,006	-0,009
-352,766	-108,060	-0,155	-0,024
-351,752	40,291	0,107	-0,070
-350,737	-161,087	0,069	0,003
-349,723	800,000	-0,012	0,030
-348,708	-64,634	-0,099	-0,029
-347,693	109,594	0,073	0,063
-346,679	-28,269	-0,058	0,024
-345,664	364,289	-0,075	-0,110
-344,650	-52,250	0,075	0,025
-343,635	-51,686	0,188	-0,063
-342,620	61,759	0,077	0,056
-341,606	800,000	-0,003	-0,008
-340,591	315,184	-0,058	-0,079
-339,577	800,000	-0,077	-0,174
-338,562	452,453	-0,029	0,047
-337,548	150,852	0,057	0,056
-336,533	800,000	-0,041	0,101
-335,518	-93,475	0,107	0,021
-334,504	800,000	0,035	0,094
-333,489	-92,851	0,171	-0,034
-332,475	-200,000	-0,008	-0,102
-331,460	-3,537	-0,007	-0,003
-330,445	-10,775	-0,103	-0,049
-329,431	-141,057	0,109	0,008
-328,416	195,475	-0,102	0,112
-327,402	114,984	0,060	0,053
-326,387	-200,000	-0,019	0,067
-325,372	307,468	0,052	0,070
-324,358	-84,664	-0,136	0,031
-323,343	-177,386	0,043	-0,001
-322,329	-200,000	-0,006	0,118
-321,314	-200,000	-0,054	-0,178
-320,299	-41,590	0,028	0,011
-319,285	141,448	0,040	0,039
-318,270	0,094	-0,137	0,070
-317,256	-200,000	-0,007	-0,043
-316,241	145,755	0,106	0,103
-315,226	30,915	-0,047	-0,029
-314,212	95,958	0,044	-0,036
-313,197	-34,010	0,082	-0,033
-312,183	159,688	-0,048	-0,049
-311,168	-91,617	-0,020	0,004
-310,153	-200,000	-0,045	-0,168
-309,139	-73,486	0,076	0,020
-308,124	444,833	0,057	0,091
-307,110	309,573	0,073	0,099
-306,095	145,075	-0,142	0,138
-305,080	-111,909	-0,077	-0,011
-304,066	409,930	-0,074	0,114
-303,051	-69,957	-0,162	-0,044
-302,037	111,254	0,104	0,091
-301,022	-52,056	0,075	-0,025
-300,008	74,325	-0,068	-0,052
-298,993	602,622	0,070	0,127
-297,978	145,142	-0,026	-0,026
-296,964	-200,000	0,013	0,053
-295,949	707,841	-0,021	-0,040
-294,935	-200,000	-0,007	-0,155
-293,920	117,698	-0,026	0,023
-292,905	-41,313	0,024	-0,009
-291,891	-85,677	0,059	0,013
-290,876	800,000	0,012	0,027
-289,862	800,000	0,036	-0,093
-288,847	800,000	0,004	0,009
-287,832	398,737	0,059	-0,089
-286,818	-36,102	0,144	-0,056
-285,803	126,848	0,102	-0,094
-284,789	-130,422	0,051	-0,005
-283,774	-146,474	0,045	0,003
-282,759	800,000	-0,007	-0,021
-281,745	-29,130	0,062	0,026
-280,730	289,727	-0,087	-0,114
-279,716	324,455	-0,049	-0,068
-278,701	-200,000	0,041	-0,151
-277,686	800,000	0,038	0,097
-276,672	-200,000	-0,039	0,147
-275,657	-67,080	0,079	-0,022
-274,643	248,817	0,074	-0,091
-273,628	83,225	-0,094	-0,074
-272,613	78,463	0,065	0,050
-271,599	727,800	-0,050	0,098
-270,584	650,188	-0,007	0,014
-269,570	800,000	-0,023	0,069
-268,555	-200,000	-0,004	-0,032
-267,540	-156,683	-0,058	0,003
-266,526	320,593	0,060	-0,083
-265,511	284,745	-0,073	-0,095
-264,497	-200,000	-0,020	-0,108
-263,482	-102,852	0,070	-0,012
-262,467	800,000	-0,128	0,262
-261,453	698,476	-0,033	-0,063
-260,438	-154,841	-0,198	0,009
-259,424	-85,776	0,121	-0,027
-258,409	-18,082	-0,064	-0,029
-257,395	158,568	-0,074	-0,074
-256,380	-200,000	-0,013	-0,067
-255,365	720,906	-0,070	-0,135
-254,351	11,855	-0,027	0,015
-253,336	-200,000	-0,002	-0,051
-252,322	130,331	0,066	-0,062
-251,307	-200,000	0,003	0,028
-250,292	63,139	0,063	0,045
-249,278	-56,965	0,072	-0,023
-248,263	-104,466	0,068	0,011
-247,249	17,296	0,050	0,029
-246,234	-107,714	-0,048	0,007
-245,219	800,000	0,065	-0,136
-244,205	351,244	-0,063	-0,090
-243,190	800,000	-0,070	-0,182
-242,176	-200,000	0,032	-0,212
-241,161	39,615	0,051	-0,033
-240,146	103,437	-0,047	-0,040
-239,132	-59,974	-0,026	-0,008
-238,117	-77,358	-0,183	-0,046
-237,103	-36,229	-0,033	0,013
-236,088	410,122	0,008	-0,013
-235,073	800,000	0,084	0,212
-234,059	381,051	0,058	-0,086
-233,044	800,000	0,021	-0,061
-232,030	800,000	-0,026	0,079
-231,015	800,000	-0,015	-0,039
-230,000	205,126	-0,075	0,084
-228,986	287,995	-0,018	-0,024
-227,971	406,122	0,046	0,071
-226,957	537,789	-0,034	-0,059
-225,942	206,038	0,061	-0,069
-224,927	779,887	-0,026	0,051
-223,913	182,734	0,056	-0,060
-222,898	-9,461	-0,036	-0,017
-221,884	-95,499	0,133	-0,025
-220,869	-200,000	-0,015	0,191
-219,855	-200,000	0,012	0,079
-218,840	800,000	-0,042	-0,087
-217,825	-200,000	-0,009	0,184
-216,811	-200,000	0,013	0,043
-215,796	-62,117	-0,063	-0,019
-214,782	-90,572	0,053	-0,011
-213,767	65,731	0,122	0,089
-212,752	122,653	-0,046	-0,042
-211,738	360,967	-0,035	-0,051
-210,723	164,491	0,129	0,131
-209,709	-150,155	-0,169	0,009
-208,694	-200,000	0,002	-0,026
-207,679	23,176	-0,124	-0,073
-206,665	-138,775	0,103	-0,008
-205,650	-200,000	-0,009	0,042
-204,636	-200,000	0,008	0,042
-203,621	50,470	-0,104	-0,071
-202,606	-35,585	-0,097	0,038
-201,592	-42,552	-0,030	-0,011
-200,577	-80,255	-0,030	-0,007
-199,563	-200,000	0,021	0,119
-198,548	433,447	0,054	0,085
-197,533	-89,434	-0,008	-0,002
-196,519	254,115	-0,052	0,064
-195,504	-200,000	-0,045	-0,172
-194,490	-200,000	0,011	-0,085
-193,475	251,337	-0,106	-0,131
-192,460	234,841	0,082	0,098
-191,446	-200,000	0,009	0,144
-190,431	416,430	-0,034	0,052
-189,417	409,262	-0,028	0,042
-188,402	72,292	0,097	0,073
-187,387	-72,234	-0,074	0,020
-186,373	-53,501	-0,066	0,022
-185,358	616,571	0,073	-0,132
-184,344	465,280	0,015	0,025
-183,329	-200,000	0,013	-0,107
-182,315	-14,958	0,092	0,043
-181,300	-11,914	-0,112	-0,053
-180,285	-21,933	0,158	-0,069
-179,271	-33,425	-0,106	-0,042
-178,256	-40,688	0,186	-0,069
-177,242	-68,118	-0,128	-0,036
-176,227	82,015	0,099	0,077
-175,212	85,286	0,102	-0,081
-174,198	32,248	0,014	-0,009
-173,183	-1,160	-0,022	-0,011
-172,169	-87,210	-0,216	-0,047
-171,154	-200,000	0,021	-0,106
-170,139	138,084	-0,023	0,022
-169,125	800,000	0,076	0,165
-168,110	241,123	0,029	0,035
-167,096	-200,000	0,026	0,116
-166,081	-166,340	-0,086	0,003
-165,066	-24,080	-0,089	-0,038
-164,052	-200,000	0,005	0,117
-163,037	118,176	0,062	0,055
-162,023	-200,000	0,013	0,046
-161,008	48,216	0,085	0,058
-159,993	-200,000	-0,015	0,132
-158,979	-200,000	0,016	0,117
-157,964	295,292	0,097	-0,128
-156,950	-81,473	-0,120	0,028
-155,935	-32,641	-0,039	0,016
-154,920	-200,000	0,023	-0,075
-153,906	-64,001	0,064	0,019
-152,891	155,555	-0,132	0,131
-151,877	332,758	-0,041	-0,057
-150,862	-101,231	0,072	0,013
-149,847	-200,000	-0,018	-0,069
-148,833	141,053	0,136	-0,130
-147,818	363,411	0,019	0,028
-146,804	57,473	-0,079	0,056
-145,789	416,031	0,081	0,125
-144,775	-48,525	-0,092	-0,032
-143,760	146,810	0,010	0,009
-142,745	-108,848	0,057	0,009
-141,731	800,000	0,047	0,147
-140,716	576,888	-0,042	0,074
-139,702	410,596	-0,040	0,061
-138,687	472,462	-0,033	-0,054
-137,672	-200,000	-0,001	0,029
-136,658	55,860	0,032	0,022
-135,643	30,720	-0,137	-0,084
-134,629	-67,719	-0,064	0,018
-133,614	-200,000	-0,036	0,134
-132,599	40,878	0,054	0,035
-131,585	445,892	0,045	0,071
-130,570	515,455	-0,054	-0,092
-129,556	-34,391	0,157	0,062
-128,541	159,544	-0,160	-0,161
-127,526	650,605	-0,041	-0,075
-126,512	4,001	0,183	0,096
-125,497	4,238	0,084	-0,044
-124,483	-200,000	0,026	0,093
-123,468	33,313	0,133	0,083
-122,453	-100,315	-0,187	-0,033
-121,439	-200,000	0,043	0,166
-120,424	250,300	0,052	0,064
-119,410	8,297	-0,033	-0,018
-118,395	-104,675	-0,077	0,013
-117,380	800,000	-0,012	0,033
-116,366	-89,195	-0,077	0,016
-115,351	463,427	-0,041	0,067
-114,337	59,736	-0,080	-0,057
-113,322	-200,000	0,011	-0,045
-112,307	-200,000	0,000	0,059
-111,293	-200,000	-0,009	-0,068
-110,278	72,307	0,174	0,130
-109,264	-4,419	-0,127	0,063
-108,249	-200,000	0,017	-0,057
-107,234	75,118	-0,048	0,036
-106,220	-49,845	0,066	0,022
-105,205	800,000	-0,030	-0,067
-104,191	-200,000	0,003	-0,072
-103,176	-72,174	0,075	0,020
-102,162	-200,000	0,001	0,076
-101,147	-73,337	-0,074	-0,019
-100,132	-30,492	0,045	0,018
-99,118	800,000	-0,015	0,041
-98,103	-136,890	0,077	-0,006
-97,089	-24,610	0,071	0,030
-96,074	222,798	-0,046	0,054
-95,059	-44,648	0,081	-0,029
-94,045	800,000	0,041	0,115
-93,030	-200,000	0,012	0,057
-92,016	-55,637	-0,104	-0,033
-91,001	559,596	-0,049	0,086
-89,986	194,631	-0,036	0,039
-88,972	800,000	0,053	0,144
-87,957	-200,000	-0,045	0,165
-86,943	-200,000	-0,007	0,062
-85,928	-200,000	-0,005	-0,099
-84,913	111,643	-0,034	-0,030
-83,899	213,137	-0,031	-0,035
-82,884	-121,214	-0,034	-0,004
-81,870	-200,000	0,017	0,173
-80,855	-37,630	-0,103	-0,039
-79,840	-152,086	-0,040	0,002
-78,826	336,450	-0,011	0,015
-77,811	-36,081	0,043	-0,017
-76,797	27,417	0,033	0,020
-75,782	246,347	-0,079	0,096
-74,767	-87,088	0,014	-0,003
-73,753	103,583	0,030	0,025
-72,738	-136,484	0,093	0,008
-71,724	100,646	-0,119	-0,099
-70,709	32,220	0,112	-0,069
-69,694	-200,000	-0,002	-0,077
-68,680	-200,000	0,027	0,089
-67,665	800,000	0,069	0,191
-66,651	-200,000	0,048	0,210
-65,636	439,058	-0,043	0,068
-64,622	-200,000	-0,000	0,016
-63,607	-200,000	-0,006	0,090
-62,592	34,375	-0,061	-0,038
-61,578	-200,000	0,016	-0,057
-60,563	157,298	0,083	-0,082
-59,549	-200,000	-0,044	0,179
-58,534	75,192	-2,532	-1,916
-57,519	-21,859	0,359	-0,156
-56,505	-200,000	-1,683	-5,577
-55,490	426,332	1,283	1,993
-54,476	800,000	5,240	11,282
-53,461	-200,000	22,032	346,711
-52,446	800,000	759,033	2302,407
-51,432	517,780	1645,594	2775,025
-50,417	98,794	1609,620	1333,152
-49,403	66,605	1266,897	923,970
-48,388	23,537	1018,039	599,840
-47,373	19,413	985,111	566,811
-46,359	13,153	972,272	538,916
-45,344	8,826	969,021	522,914
-44,330	9,297	966,942	523,313
-43,315	8,353	964,945	519,128
-42,300	8,258	964,020	518,297
-41,286	8,285	962,974	517,804
-40,271	8,266	961,976	517,186
-39,257	8,203	961,109	516,494
-38,242	8,197	960,208	515,967
-37,227	8,140	959,646	515,459
-36,213	8,163	958,625	514,965
-35,198	8,241	957,562	514,628
-34,184	8,253	957,138	514,417
-33,169	8,232	955,940	513,687
-32,154	8,233	955,292	513,321
-31,140	8,281	954,093	512,812
-30,125	8,281	953,555	512,501
-29,111	8,287	952,615	511,995
-28,096	8,216	952,179	511,512
-27,082	8,237	951,264	511,069
-26,067	8,186	950,658	510,558
-25,052	8,221	949,847	510,216
-24,038	8,209	949,189	509,801
-23,023	8,179	948,317	509,216
-22,009	8,183	948,024	509,054
-20,994	8,223	947,359	508,805
-19,979	8,228	946,702	508,447
-18,965	8,224	946,076	508,079
-17,950	8,203	945,521	507,692
-16,936	8,179	944,854	507,236
-15,921	8,167	944,201	506,827
-14,906	8,132	943,331	506,229
-13,892	8,116	942,580	505,755
-12,877	8,083	942,201	505,428
-11,863	8,075	941,673	505,098
-10,848	8,126	941,081	504,923
-9,833	8,165	940,573	504,755
-8,819	8,094	939,831	504,110
-7,804	8,095	939,224	503,767
-6,790	8,109	938,577	503,446
-5,775	8,137	938,158	503,290
-4,760	8,139	937,451	502,895
-3,746	8,141	936,808	502,536
-2,731	7,984	936,002	501,589
-1,717	7,976	935,590	501,321
-0,702	8,006	934,747	500,945
0,313	7,801	934,266	500,796
1,327	11,230	932,008	510,358
2,342	19,955	780,294	450,161
3,356	15,041	448,123	251,106
4,371	-11,461	312,438	146,892
5,386	-15,349	294,974	134,737
6,400	-17,524	288,979	129,830
7,415	-17,392	286,141	128,674
8,429	-18,247	284,561	127,117
9,444	-18,079	283,471	126,782
10,459	-18,177	283,042	126,484
11,473	-17,998	282,342	126,332
12,488	-17,943	281,914	126,183
13,502	-17,996	281,411	125,896
14,517	-17,894	281,045	125,819
15,531	-17,973	280,720	125,586
16,546	-17,789	280,187	125,513
17,561	-17,774	279,865	125,372
18,575	-17,895	279,559	125,108
19,590	-17,875	279,163	124,939
20,604	-17,766	278,942	124,933
21,619	-17,743	278,478	124,736
22,634	-17,665	277,996	124,583
23,648	-17,650	277,861	124,526
24,663	-17,662	277,500	124,342
25,677	-17,549	277,209	124,308
26,692	-17,671	277,006	124,089
27,707	-17,705	276,727	123,922
28,721	-17,754	276,492	123,759
29,736	-17,983	276,278	123,435
30,750	-17,674	275,965	123,576
31,765	-17,645	275,631	123,443
32,780	-17,858	275,581	123,209
33,794	-17,831	275,325	123,109
34,809	-17,679	275,048	123,117
35,823	-17,813	274,618	122,787
36,838	-17,842	274,488	122,691
37,853	-17,782	274,182	122,600
38,867	-17,612	274,022	122,676
39,882	-17,788	273,753	122,380
40,896	-17,686	273,474	122,340
41,911	-17,597	273,131	122,259
42,926	-17,559	272,936	122,197
43,940	-17,613	272,684	122,023
44,955	-17,765	272,669	121,862
45,969	-17,868	272,441	121,654
46,984	-17,719	272,192	121,671
47,999	-17,531	271,969	121,735
49,013	-17,544	271,708	121,595
50,028	-17,553	271,496	121,482
51,042	-17,586	271,225	121,319
52,057	-17,396	270,944	121,358
53,071	-17,536	270,694	121,106
54,086	-17,471	270,642	121,132
55,101	-17,455	270,375	121,016
56,115	-17,409	270,179	120,961
57,130	-17,726	269,854	120,512
58,144	-17,540	269,533	120,529
59,159	-17,808	269,504	120,259
60,174	-17,785	269,147	120,109
61,188	-17,736	268,833	120,004
62,203	-17,701	268,633	119,936
63,217	-17,588	268,349	119,902
64,232	-17,541	268,119	119,831
65,247	-17,670	267,888	119,600
66,261	-17,734	267,701	119,447
67,276	-17,655	267,380	119,365
68,290	-17,717	267,297	119,261
69,305	-17,354	267,139	119,511
70,320	-17,542	266,855	119,202
71,334	-17,561	266,696	119,103
72,349	-17,596	266,324	118,895
73,363	-17,844	266,250	118,626
74,378	-17,846	266,025	118,512
75,393	-17,891	265,759	118,343
76,407	-17,546	265,427	118,497
77,422	-17,492	265,180	118,425
78,436	-17,456	264,946	118,343
79,451	-17,805	264,921	118,006
80,466	-17,602	264,501	117,991
81,480	-17,552	264,240	117,909
82,495	-17,542	264,146	117,865
83,509	-17,599	264,003	117,740
84,524	-17,426	263,613	117,711
85,539	-17,545	263,562	117,571
86,553	-17,464	263,344	117,536
87,568	-17,787	263,138	117,143
88,582	-17,597	262,803	117,154
89,597	-17,403	262,595	117,224
90,611	-17,509	262,379	117,023
91,626	-17,652	262,269	116,835
92,641	-17,420	261,917	116,875
93,655	-17,575	261,882	116,711
94,670	-17,745	261,666	116,453
95,684	-17,620	261,460	116,462
96,699	-17,687	261,174	116,265
97,714	-17,536	261,036	116,327
98,728	-17,546	260,733	116,173
99,743	-17,425	260,617	116,219
100,757	-17,542	260,397	116,007
101,772	-17,519	260,240	115,946
102,787	-17,487	259,865	115,797
103,801	-17,516	259,656	115,668
104,816	-17,648	259,567	115,502
105,830	-17,682	259,377	115,377
106,845	-17,697	259,154	115,254
107,860	-17,651	258,860	115,153
108,874	-17,721	258,875	115,088
109,889	-17,487	258,433	115,087
110,903	-17,719	258,276	114,803
111,918	-17,593	258,138	114,842
112,933	-17,727	258,041	114,672
113,947	-17,589	257,925	114,730
114,962	-17,809	257,699	114,427
115,976	-17,596	257,437	114,487
116,991	-17,756	257,331	114,289
118,006	-17,508	256,949	114,326
119,020	-17,804	256,789	113,987
120,035	-17,514	256,623	114,156
121,049	-17,525	256,348	114,014
122,064	-17,679	256,302	113,849
123,079	-17,597	256,027	113,787
124,093	-17,662	255,972	113,697
125,108	-17,602	255,702	113,619
126,122	-17,431	255,480	113,658
127,137	-17,580	255,316	113,446
128,151	-17,422	255,055	113,457
129,166	-17,405	254,869	113,378
130,181	-17,574	254,628	113,115
131,195	-17,697	254,377	112,887
132,210	-17,570	254,248	112,930
133,224	-17,570	254,085	112,848
134,239	-17,548	253,807	112,732
135,254	-17,424	253,483	112,685
136,268	-17,369	253,519	112,738
137,283	-17,392	253,248	112,588
138,297	-17,373	253,088	112,523
139,312	-17,547	252,933	112,295
140,327	-17,346	252,579	112,300
141,341	-17,579	252,379	112,002
142,356	-17,665	252,303	111,884
143,370	-17,668	252,130	111,795
144,385	-17,760	251,967	111,634
145,400	-17,738	251,523	111,446
146,414	-17,518	251,448	111,590
147,429	-17,481	251,244	111,522
148,443	-17,464	251,132	111,477
149,458	-17,673	251,081	111,266
150,473	-17,522	250,673	111,204
151,487	-17,569	250,487	111,072
152,502	-17,741	250,434	110,892
153,516	-17,609	250,083	110,839
154,531	-17,737	249,918	110,648
155,546	-17,425	249,700	110,805
156,560	-17,610	249,543	110,569
157,575	-17,488	249,345	110,574
158,589	-17,555	249,089	110,394
159,604	-17,446	248,937	110,410
160,619	-17,571	248,731	110,203
161,633	-17,545	248,525	110,123
162,648	-17,590	248,530	110,078
163,662	-17,601	248,290	109,952
164,677	-17,732	248,273	109,825
165,692	-17,492	248,059	109,922
166,706	-17,464	247,892	109,862
167,721	-17,672	247,635	109,564
168,735	-17,667	247,605	109,545
169,750	-17,529	247,417	109,567
170,764	-17,424	247,208	109,553
171,779	-17,634	246,970	109,262
172,794	-17,630	246,843	109,200
173,808	-17,553	246,562	109,130
174,823	-17,440	246,531	109,201
175,837	-17,267	246,166	109,173
176,852	-17,665	246,067	108,789
177,867	-17,571	246,017	108,835
178,881	-17,453	245,693	108,780
179,896	-17,567	245,500	108,590
180,910	-17,603	245,590	108,590
181,925	-17,544	245,199	108,457
182,940	-17,515	245,056	108,408
183,954	-17,466	244,878	108,360
184,969	-17,485	244,836	108,316
185,983	-17,450	244,495	108,185
186,998	-17,470	244,464	108,144
188,013	-17,487	244,210	108,008
189,027	-17,624	243,962	107,776
190,042	-17,536	243,864	107,796
191,056	-17,623	243,511	107,559
192,071	-17,639	243,451	107,509
193,086	-17,431	243,187	107,554
194,100	-17,622	243,195	107,391
195,115	-17,466	242,795	107,333
196,129	-17,400	242,691	107,331
197,144	-17,525	242,449	107,113
198,159	-17,627	242,223	106,920
199,173	-17,524	242,112	106,945
200,188	-17,808	241,988	106,649
201,202	-17,602	241,944	106,788
202,217	-17,442	241,720	106,811
203,232	-17,297	241,592	106,862
204,246	-17,454	241,172	106,539
205,261	-17,951	240,931	106,019
206,275	-16,548	241,348	107,336
207,290	-11,620	243,009	112,099
208,304	-5,318	245,136	118,264
209,319	-2,231	245,944	121,190
210,334	-1,125	246,228	122,232
211,348	-0,013	246,241	123,144
212,363	0,351	246,440	123,532
213,377	0,815	246,369	123,869
214,392	1,124	246,194	124,024
215,407	1,314	246,207	124,175
216,421	1,364	245,985	124,094
217,436	1,364	246,006	124,093
218,450	1,335	245,813	123,961
219,465	1,515	245,684	124,033
220,480	1,443	245,456	123,847
221,494	1,372	245,387	123,743
222,509	1,070	244,959	123,269
223,523	0,806	244,696	122,910
224,538	0,571	244,504	122,610
225,553	0,577	244,351	122,528
226,567	0,730	244,096	122,513
227,582	0,579	244,097	122,380
228,596	0,584	243,908	122,279
229,611	0,591	243,802	122,220
230,626	0,715	243,664	122,241
231,640	0,697	243,387	122,077
232,655	0,652	243,295	121,983
233,669	0,620	243,120	121,859
234,684	0,648	242,937	121,779
235,699	0,509	242,828	121,600
236,713	0,727	242,620	121,662
237,728	0,817	242,425	121,626
238,742	0,712	242,199	121,417
239,757	0,696	242,018	121,303
240,772	0,846	241,766	121,286
241,786	0,513	241,911	121,080
242,801	0,599	241,670	121,018
243,815	0,608	241,463	120,910
244,830	0,779	241,465	121,039
245,844	0,783	241,161	120,878
246,859	0,748	240,946	120,732
247,874	0,788	240,823	120,692
248,888	0,639	240,799	120,549
249,903	0,736	240,633	120,533
250,917	0,744	240,451	120,437
251,932	0,881	240,321	120,471
252,947	0,818	240,062	120,281
253,961	0,738	239,905	120,127
254,976	0,661	239,883	120,044
255,990	0,757	239,741	120,038
257,005	0,670	239,422	119,798
258,020	0,649	239,374	119,747
259,034	0,831	239,178	119,783
260,049	0,849	238,981	119,689
261,063	0,771	238,804	119,527
262,078	0,796	238,731	119,500
263,093	0,870	238,474	119,420
264,107	0,740	238,389	119,263
265,122	0,751	238,263	119,198
266,136	0,773	238,073	119,110
267,151	0,606	238,014	118,937
268,166	0,615	237,832	118,843
269,180	0,562	237,612	118,681
270,195	0,534	237,532	118,607
271,209	0,732	237,333	118,654
272,224	0,604	237,272	118,512
273,239	0,694	236,972	118,423
274,253	0,574	236,907	118,285
275,268	0,736	236,758	118,328
276,282	0,694	236,514	118,162
277,297	0,556	236,383	117,977
278,312	0,792	236,257	118,090
279,326	0,791	236,144	118,022
280,341	0,492	236,084	117,747
281,355	0,569	235,891	117,701
282,370	0,812	235,681	117,776
283,384	1,002	235,497	117,821
284,399	0,860	235,257	117,580
285,414	0,524	235,241	117,299
286,428	0,569	235,119	117,262
287,443	0,581	234,867	117,136
288,457	0,776	234,647	117,168
289,472	0,815	234,560	117,145
290,487	0,819	234,496	117,105
291,501	0,880	234,253	117,021
292,516	0,952	234,129	117,004
293,530	0,769	234,101	116,837
294,545	0,724	233,959	116,722
295,560	0,788	233,784	116,673
296,574	0,823	233,521	116,559
297,589	0,880	233,368	116,516
298,603	0,880	233,340	116,491
299,618	0,768	233,193	116,321
300,633	0,854	233,065	116,313
301,647	1,088	232,901	116,402
302,662	1,001	232,736	116,242
303,676	0,935	232,663	116,144
304,691	0,850	232,446	115,960
305,706	1,040	232,143	115,944
306,720	1,083	232,062	115,927
307,735	1,064	232,004	115,873
308,749	0,841	231,839	115,609
309,764	0,986	231,607	115,594
310,779	0,923	231,449	115,457
311,793	0,940	231,283	115,377
312,808	0,971	231,118	115,308
313,822	0,793	231,216	115,211
314,837	0,857	230,988	115,136
315,852	1,059	230,863	115,217
316,866	1,073	230,570	115,072
317,881	1,164	230,420	115,056
318,895	0,890	230,319	114,786
319,910	1,043	230,095	114,780
320,925	1,085	229,931	114,721
321,939	0,992	229,931	114,639
322,954	0,991	229,801	114,564
323,968	0,869	229,593	114,358
324,983	1,025	229,526	114,432
325,997	1,113	229,369	114,410
327,012	0,882	229,247	114,164
328,027	0,836	228,920	113,957
329,041	0,975	228,905	114,044
330,056	1,031	228,543	113,896
331,070	1,071	228,614	113,951
332,085	1,085	228,266	113,778
333,100	0,986	228,260	113,690
334,114	1,037	228,163	113,670
335,129	0,834	228,004	113,428
336,143	0,957	227,824	113,421
337,158	1,081	227,778	113,481
338,173	1,276	227,452	113,455
339,187	1,201	227,431	113,378
340,202	1,149	227,222	113,225
341,216	1,197	227,069	113,175
342,231	1,316	226,997	113,218
343,246	1,128	226,871	113,004
344,260	1,235	226,725	113,001
345,275	1,387	226,609	113,048
346,289	1,187	226,367	112,767
347,304	1,188	226,222	112,686
348,319	1,022	226,158	112,520
349,333	1,152	225,879	112,468
350,348	1,253	225,625	112,406
351,362	0,996	225,801	112,293
352,377	1,203	225,502	112,288
353,392	1,061	225,441	112,142
354,406	1,033	225,324	112,053
355,421	192,724	1310,654	1378,509
356,435	154,404	1442,740	1378,361
