DTS Sentinel unit serial number:	SN410029Multiplexer serial number:	ORYXHardware model number:	OX2-SRSoftware version number:	ORYX F/W v4,00 Oryx Data Collector v3.7.2.0data status	okinstallation	B5 Nyhavnadifferential loss correction	single-endedforward channel	channel 2reverse channel	N/Adate	2023/12/14time	19:37:13forward acquisition time	300,00reverse acquisition time	0,00gamma	499,1914k internal	0,3157k external	0,3157temperature offset calibration	1,0000default loss term (dB/km)	0,3820temperature slope calibration	1,0000multiplexer offset coefficient	1,0000multiplexer slope coefficient	1,0000fibre end	0,00T internal ref (°C)	9,02T ext. ref 1 (°C)	-5,69T ext. ref 2 (°C)	-5,74length (m)	temperature (°C)	Stokes	anti-Stokes-744,400	640,071	0,099	0,187
-743,385	-169,931	-0,416	-0,011
-742,371	-70,255	0,290	0,081
-741,356	-135,753	-0,496	0,043
-740,342	10,217	0,304	0,170
-739,327	-102,926	-0,405	-0,070
-738,312	46,756	0,225	0,154
-737,298	-45,904	-0,239	-0,086
-736,283	37,405	0,196	0,128
-735,269	-84,080	-0,442	-0,103
-734,254	-35,306	0,120	0,048
-733,239	-81,782	-0,511	-0,122
-732,225	-34,028	0,266	0,107
-731,210	-200,000	0,003	0,234
-730,196	-200,000	0,017	-0,088
-729,181	-200,000	-0,008	-0,119
-728,167	129,926	-0,095	0,090
-727,152	-200,000	-0,205	0,000
-726,137	194,912	-0,089	-0,100
-725,123	-0,424	0,078	-0,040
-724,108	503,207	0,023	-0,040
-723,094	19,529	-0,112	-0,066
-722,079	540,108	0,032	-0,056
-721,064	-0,017	-0,090	0,047
-720,050	800,000	0,030	0,082
-719,035	69,327	-0,108	0,081
-718,021	621,320	0,041	-0,076
-717,006	800,000	-0,023	-0,064
-715,991	-200,000	-0,049	0,222
-714,977	144,187	0,128	0,126
-713,962	207,073	-0,066	0,076
-712,948	800,000	-0,063	0,161
-711,933	-136,520	0,083	-0,007
-710,918	800,000	-0,050	-0,134
-709,904	95,732	-0,128	-0,107
-708,889	31,802	0,119	-0,075
-707,875	-11,294	-0,176	-0,085
-706,860	-104,169	-0,059	0,010
-705,845	-200,000	-0,007	0,061
-704,831	-82,460	-0,007	0,002
-703,816	-200,000	-0,001	-0,032
-702,802	768,877	0,014	-0,028
-701,787	-152,649	-0,075	0,004
-700,772	-77,482	-0,019	0,005
-699,758	-56,631	-0,103	-0,033
-698,743	11,428	0,111	0,063
-697,729	63,546	-0,079	0,058
-696,714	800,000	0,024	-0,072
-695,699	-200,000	-0,013	-0,072
-694,685	-97,747	0,056	0,011
-693,670	89,427	-0,057	-0,047
-692,656	-42,074	-0,102	-0,038
-691,641	268,167	-0,044	-0,056
-690,627	529,657	0,048	0,084
-689,612	333,504	-0,020	0,029
-688,597	800,000	-0,023	0,071
-687,583	-200,000	-0,006	-0,065
-686,568	-35,760	-0,061	-0,024
-685,554	-24,831	-0,055	0,024
-684,539	-200,000	-0,030	0,105
-683,524	0,978	0,031	-0,017
-682,510	-200,000	-0,011	0,087
-681,495	800,000	-0,017	0,050
-680,481	-200,000	-0,021	0,090
-679,466	-200,000	0,018	-0,101
-678,451	-200,000	-0,162	0,000
-677,437	-25,914	0,014	0,006
-676,422	270,595	-0,020	-0,026
-675,408	-200,000	-0,013	-0,045
-674,393	-200,000	-0,020	0,101
-673,378	690,200	-0,055	0,107
-672,364	800,000	-0,017	0,038
-671,349	190,481	-0,054	0,060
-670,335	800,000	0,020	-0,051
-669,320	-166,149	-0,089	-0,003
-668,305	-188,575	0,129	-0,001
-667,291	-200,000	0,003	0,011
-666,276	-56,818	-0,140	0,045
-665,262	-111,444	-0,129	0,019
-664,247	247,998	0,031	0,039
-663,232	-13,967	-0,053	-0,025
-662,218	-78,509	-0,061	0,015
-661,203	-58,153	-0,071	-0,023
-660,189	121,029	-0,112	0,103
-659,174	-18,915	0,110	0,050
-658,159	-200,000	-0,012	-0,074
-657,145	-79,943	-0,153	-0,037
-656,130	800,000	-0,076	0,189
-655,116	719,754	0,036	0,071
-654,101	-55,751	0,176	-0,058
-653,086	-200,000	0,000	0,028
-652,072	-200,000	-0,009	-0,032
-651,057	-72,645	-0,043	-0,012
-650,043	194,415	0,033	-0,037
-649,028	-95,534	-0,106	0,021
-648,014	-94,473	-0,029	-0,006
-646,999	-71,050	-0,170	-0,047
-645,984	-164,614	0,104	0,003
-644,970	-200,000	-0,021	-0,113
-643,955	-147,404	0,080	-0,005
-642,941	62,592	-0,029	-0,021
-641,926	800,000	0,043	-0,110
-640,911	706,894	-0,014	-0,027
-639,897	-87,980	0,195	0,043
-638,882	-89,710	0,099	-0,021
-637,868	-30,520	-0,094	0,039
-636,853	273,905	-0,080	0,104
-635,838	44,387	-0,071	0,048
-634,824	-200,000	0,026	0,094
-633,809	128,068	0,054	0,050
-632,795	-65,849	-0,093	0,027
-631,780	12,364	0,115	0,065
-630,765	-200,000	0,002	0,083
-629,751	-50,536	0,131	-0,045
-628,736	459,075	-0,044	0,073
-627,722	405,214	0,083	0,130
-626,707	800,000	-0,006	-0,015
-625,692	-122,766	0,071	-0,008
-624,678	143,175	-0,038	0,037
-623,663	-62,312	0,105	0,032
-622,649	-78,504	-0,058	-0,014
-621,634	174,679	-0,064	-0,068
-620,619	-193,558	0,086	0,001
-619,605	-40,110	0,080	0,030
-618,590	-64,875	-0,041	-0,012
-617,576	-114,784	-0,085	-0,012
-616,561	-200,000	0,001	0,009
-615,546	19,296	-0,174	-0,102
-614,532	-200,000	-0,022	0,116
-613,517	-40,531	-0,030	-0,011
-612,503	-200,000	-0,001	0,022
-611,488	800,000	-0,023	-0,062
-610,474	-200,000	-0,005	0,103
-609,459	333,571	0,015	0,021
-608,444	239,924	-0,058	-0,072
-607,430	-160,761	-0,081	-0,003
-606,415	417,261	-0,042	-0,066
-605,401	-47,545	0,175	-0,062
-604,386	-44,252	0,039	-0,014
-603,371	151,997	-0,144	0,144
-602,357	-200,000	0,002	-0,013
-601,342	241,943	-0,033	-0,040
-600,328	-42,885	0,047	0,017
-599,313	116,948	0,067	-0,060
-598,298	800,000	-0,027	-0,062
-597,284	7,475	0,055	0,030
-596,269	-118,042	-0,030	-0,004
-595,255	-44,527	-0,104	-0,038
-594,240	-200,000	0,021	-0,069
-593,225	800,000	-0,046	0,108
-592,211	-200,000	0,021	-0,134
-591,196	-200,000	0,017	-0,121
-590,182	-124,200	0,124	0,014
-589,167	354,499	-0,010	0,015
-588,152	-126,416	-0,123	0,013
-587,138	390,358	-0,063	0,096
-586,123	-98,883	0,103	0,019
-585,109	-200,000	-0,002	0,034
-584,094	269,581	-0,010	0,013
-583,079	226,931	0,066	0,079
-582,065	-90,043	0,112	0,024
-581,050	-200,000	-0,019	-0,088
-580,036	195,317	0,056	-0,063
-579,021	-200,000	-0,024	-0,115
-578,006	-200,000	-0,012	-0,091
-576,992	131,898	-0,117	-0,111
-575,977	-200,000	-0,017	0,110
-574,963	-6,193	0,124	0,062
-573,948	800,000	0,006	0,017
-572,934	-3,569	-0,141	-0,071
-571,919	-200,000	-0,005	-0,091
-570,904	679,752	0,048	-0,091
-569,890	155,361	-0,061	0,062
-568,875	137,262	0,066	-0,063
-567,861	-194,005	0,112	-0,001
-566,846	256,113	0,044	0,055
-565,831	-200,000	0,012	0,089
-564,817	388,841	0,054	-0,083
-563,802	-200,000	-0,001	0,086
-562,788	800,000	0,040	-0,085
-561,773	-200,000	-0,020	0,218
-560,758	-25,396	0,060	0,026
-559,744	-200,000	-0,029	-0,101
-558,729	800,000	0,026	0,067
-557,715	-65,042	-0,067	-0,020
-556,700	-200,000	0,001	-0,102
-555,685	619,662	-0,074	-0,137
-554,671	73,569	0,055	0,042
-553,656	-50,257	0,081	0,028
-552,642	511,572	0,063	-0,108
-551,627	-113,240	0,053	-0,008
-550,612	340,485	-0,081	0,117
-549,598	-182,067	-0,127	0,002
-548,583	-95,789	0,064	-0,012
-547,569	-42,672	0,056	0,021
-546,554	-200,000	0,010	0,148
-545,539	377,582	-0,041	0,062
-544,525	147,889	0,096	-0,095
-543,510	-200,000	-0,001	0,089
-542,496	89,830	0,086	0,070
-541,481	-131,612	-0,076	-0,007
-540,466	-52,531	-0,101	0,034
-539,452	65,772	0,136	0,101
-538,437	800,000	0,035	-0,078
-537,423	415,877	-0,058	-0,090
-536,408	-128,522	-0,159	-0,016
-535,393	-113,250	-0,183	-0,026
-534,379	-155,617	0,162	0,007
-533,364	433,827	-0,058	-0,092
-532,350	-130,655	0,208	-0,020
-531,335	-14,364	-0,076	-0,036
-530,321	800,000	0,016	0,037
-529,306	-200,000	0,026	0,125
-528,291	407,474	-0,009	0,014
-527,277	-200,000	0,011	0,138
-526,262	65,338	-0,075	-0,055
-525,248	-120,716	-0,027	0,003
-524,233	-200,000	0,004	-0,018
-523,218	184,994	0,098	-0,106
-522,204	10,995	-0,104	0,058
-521,189	-200,000	0,021	0,082
-520,175	-31,085	0,025	0,010
-519,160	-58,356	-0,059	-0,019
-518,145	-200,000	0,004	0,076
-517,131	213,762	-0,026	-0,030
-516,116	-146,500	0,049	0,003
-515,102	29,855	0,135	0,084
-514,087	800,000	-0,048	0,127
-513,072	19,480	-0,068	-0,040
-512,058	-174,441	-0,156	-0,003
-511,043	17,328	0,101	0,058
-510,029	-200,000	-0,001	0,050
-509,014	-12,230	0,078	0,037
-507,999	-145,811	-0,117	0,007
-506,985	-200,000	-0,005	-0,065
-505,970	50,236	-0,133	0,092
-504,956	-200,000	0,001	-0,012
-503,941	-200,000	0,001	0,110
-502,926	-72,795	0,081	0,022
-501,912	-200,000	-0,003	0,061
-500,897	-196,669	-0,003	0,000
-499,883	-200,000	-0,016	-0,110
-498,868	-200,000	0,012	-0,073
-497,853	508,388	-0,045	-0,077
-496,839	159,194	-0,079	0,080
-495,824	800,000	0,084	0,176
-494,810	-63,534	0,177	-0,053
-493,795	-58,123	-0,053	0,017
-492,781	58,598	-0,033	-0,023
-491,766	-114,239	-0,035	-0,005
-490,751	-133,552	-0,006	-0,001
-489,737	53,427	0,034	0,023
-488,722	-200,000	0,027	0,170
-487,708	800,000	0,066	0,189
-486,693	-67,102	-0,125	0,036
-485,678	-26,300	0,041	0,018
-484,664	-200,000	-0,029	-0,094
-483,649	-72,453	0,044	0,012
-482,635	562,417	0,060	-0,106
-481,620	197,477	0,110	0,123
-480,605	800,000	0,045	0,100
-479,591	-200,000	0,025	0,169
-478,576	164,369	-0,055	0,056
-477,562	47,837	-0,135	-0,092
-476,547	33,267	0,047	-0,029
-475,532	-200,000	0,030	-0,103
-474,518	33,060	-0,107	0,067
-473,503	206,863	-0,087	0,099
-472,489	64,791	0,116	-0,085
-471,474	252,355	-0,077	-0,095
-470,459	-146,033	-0,022	0,001
-469,445	175,693	0,061	-0,065
-468,430	-34,735	-0,066	0,026
-467,416	-200,000	-0,035	0,129
-466,401	175,748	0,034	0,036
-465,386	85,685	0,099	-0,079
-464,372	-200,000	0,015	0,052
-463,357	479,539	0,022	0,037
-462,343	52,141	0,095	-0,066
-461,328	621,130	-0,052	-0,096
-460,313	-200,000	-0,014	0,071
-459,299	800,000	0,025	0,055
-458,284	32,891	0,101	0,063
-457,270	161,592	0,064	-0,065
-456,255	-200,000	0,016	-0,145
-455,241	347,984	-0,042	-0,061
-454,226	769,479	-0,031	-0,061
-453,211	4,560	0,095	0,051
-452,197	-200,000	0,004	-0,024
-451,182	-102,656	0,096	-0,016
-450,168	-51,990	-0,107	-0,036
-449,153	52,337	0,113	-0,078
-448,138	23,243	-0,067	0,040
-447,124	800,000	-0,027	0,077
-446,109	117,979	-0,006	-0,005
-445,095	-64,767	0,069	0,020
-444,080	-200,000	0,012	-0,074
-443,065	492,756	-0,068	0,114
-442,051	-200,000	0,008	-0,035
-441,036	800,000	-0,035	-0,097
-440,022	-29,468	-0,013	0,005
-439,007	125,835	0,090	-0,083
-437,992	-200,000	-0,010	-0,045
-436,978	800,000	0,037	0,093
-435,963	-77,948	-0,058	0,015
-434,949	-152,486	-0,020	-0,001
-433,934	800,000	0,011	-0,030
-432,919	278,440	-0,054	-0,070
-431,905	99,894	-0,122	-0,103
-430,890	-200,000	-0,016	0,063
-429,876	-98,361	0,060	0,011
-428,861	-200,000	-0,004	0,064
-427,846	0,353	0,072	0,037
-426,832	-200,000	-0,015	-0,127
-425,817	776,260	-0,041	-0,081
-424,803	44,248	-0,064	0,042
-423,788	-49,065	-0,010	-0,003
-422,773	365,833	0,060	-0,088
-421,759	-200,000	0,022	0,162
-420,744	-15,049	-0,042	0,019
-419,730	800,000	-0,022	-0,045
-418,715	219,501	0,027	0,032
-417,701	-200,000	0,007	0,054
-416,686	84,969	0,034	0,027
-415,671	-200,000	-0,000	0,027
-414,657	-123,547	-0,092	-0,011
-413,642	-86,206	0,097	-0,022
-412,628	-94,937	-0,137	0,027
-411,613	11,633	0,069	-0,039
-410,598	800,000	-0,051	-0,113
-409,584	-200,000	0,001	0,062
-408,569	-200,000	0,047	0,209
-407,555	19,375	-0,092	-0,053
-406,540	-115,895	0,040	0,005
-405,525	-22,204	-0,081	0,035
-404,511	800,000	0,020	-0,045
-403,496	91,938	-0,039	-0,032
-402,482	79,443	0,120	-0,094
-401,467	223,187	-0,043	0,051
-400,452	-32,564	0,107	0,043
-399,438	386,519	-0,089	0,134
-398,423	105,539	0,057	-0,049
-397,409	-51,669	-0,098	0,033
-396,394	-107,355	-0,099	-0,016
-395,379	-200,000	0,012	0,106
-394,365	-118,547	0,091	-0,012
-393,350	-13,401	0,021	0,010
-392,336	232,765	0,039	0,046
-391,321	393,117	-0,073	-0,111
-390,306	-200,000	0,012	-0,085
-389,292	-200,000	0,007	-0,059
-388,277	323,593	-0,043	0,060
-387,263	800,000	0,048	-0,143
-386,248	334,500	0,035	-0,049
-385,233	-27,303	-0,051	0,021
-384,219	3,019	-0,123	-0,065
-383,204	-128,243	-0,055	-0,006
-382,190	39,446	-0,053	-0,035
-381,175	197,637	0,103	-0,115
-380,160	-136,098	0,029	-0,002
-379,146	-156,242	0,056	-0,002
-378,131	800,000	0,059	0,122
-377,117	-66,632	0,078	0,022
-376,102	-83,130	-0,057	-0,013
-375,088	800,000	-0,077	-0,172
-374,073	768,606	0,046	-0,091
-373,058	-200,000	0,153	0,001
-372,044	-26,152	-0,028	-0,012
-371,029	-151,869	0,051	0,003
-370,015	-17,312	-0,055	-0,025
-369,000	-34,408	-0,100	-0,040
-367,985	24,771	0,098	0,059
-366,971	-200,000	0,024	-0,128
-365,956	57,699	0,061	-0,043
-364,942	753,098	0,057	0,113
-363,927	800,000	-0,029	0,069
-362,912	800,000	-0,030	0,079
-361,898	66,696	-0,086	-0,064
-360,883	-185,905	-0,091	0,001
-359,869	-123,281	-0,051	0,006
-358,854	82,340	0,081	-0,064
-357,839	129,075	-0,038	0,035
-356,825	6,011	0,135	0,073
-355,810	800,000	0,067	0,199
-354,796	100,518	0,107	-0,090
-353,781	-200,000	0,043	-0,160
-352,766	-64,778	-0,139	0,041
-351,752	179,574	0,014	0,015
-350,737	30,656	0,096	0,060
-349,723	800,000	0,103	0,208
-348,708	-114,936	0,106	-0,014
-347,693	-200,000	0,004	-0,070
-346,679	-200,000	0,001	0,034
-345,664	-160,413	-0,140	-0,005
-344,650	414,099	0,056	0,086
-343,635	422,873	0,037	-0,058
-342,620	207,270	0,043	0,049
-341,606	290,938	0,119	-0,157
-340,591	585,340	0,039	-0,069
-339,577	106,259	-0,142	-0,122
-338,562	800,000	-0,046	0,102
-337,548	800,000	0,049	-0,102
-336,533	77,061	0,100	0,077
-335,518	-8,174	0,151	0,074
-334,504	-200,000	0,016	0,063
-333,489	-54,032	-0,038	-0,012
-332,475	155,468	0,066	-0,066
-331,460	217,502	-0,059	-0,068
-330,445	-200,000	0,030	0,118
-329,431	22,203	0,058	0,034
-328,416	431,537	-0,050	0,078
-327,402	234,685	-0,064	-0,077
-326,387	167,648	0,070	-0,072
-325,372	-200,000	0,001	-0,078
-324,358	545,833	0,031	-0,054
-323,343	150,137	-0,018	-0,017
-322,329	490,591	0,099	0,165
-321,314	733,039	0,068	0,133
-320,299	730,617	0,056	-0,110
-319,285	564,372	-0,051	-0,090
-318,270	566,276	0,033	-0,059
-317,256	-108,953	-0,148	-0,023
-316,241	-42,881	-0,054	0,020
-315,226	-200,000	-0,023	0,128
-314,212	212,233	0,163	-0,187
-313,197	800,000	0,029	0,083
-312,183	-36,383	-0,133	-0,052
-311,168	800,000	0,037	-0,078
-310,153	-200,000	0,007	-0,169
-309,139	-144,649	-0,127	0,008
-308,124	-77,881	-0,055	0,014
-307,110	153,505	0,093	0,092
-306,095	194,945	0,109	0,120
-305,080	800,000	-0,042	0,119
-304,066	-200,000	0,026	-0,095
-303,051	397,481	-0,066	-0,100
-302,037	116,170	-0,041	-0,037
-301,022	31,657	-0,037	-0,023
-300,008	-200,000	0,026	0,095
-298,993	-51,652	0,091	-0,031
-297,978	-124,557	0,076	0,008
-296,964	-42,841	-0,059	0,022
-295,949	-99,764	-0,122	-0,022
-294,935	12,827	-0,086	-0,048
-293,920	115,557	0,053	-0,047
-292,905	527,572	-0,085	-0,145
-291,891	-67,657	0,017	0,005
-290,876	-125,443	-0,098	0,011
-289,862	-151,271	-0,043	-0,002
-288,847	56,516	0,080	0,056
-287,832	-67,499	-0,118	-0,033
-286,818	-200,000	0,032	-0,113
-285,803	178,926	-0,074	0,078
-284,789	146,961	-0,084	0,082
-283,774	444,059	-0,044	0,070
-282,759	93,840	0,083	0,068
-281,745	47,622	0,027	-0,018
-280,730	800,000	-0,019	-0,042
-279,716	71,819	0,069	0,052
-278,701	-200,000	0,011	-0,058
-277,686	-51,532	-0,032	-0,011
-276,672	564,755	0,044	0,078
-275,657	22,751	-0,011	0,006
-274,643	-6,217	-0,058	-0,029
-273,628	800,000	0,056	-0,139
-272,613	567,313	-0,028	-0,050
-271,599	-200,000	-0,003	-0,025
-270,584	144,977	0,071	0,069
-269,570	-5,126	-0,075	0,037
-268,555	2,954	-0,091	0,048
-267,540	398,211	0,057	-0,087
-266,526	-40,590	-0,120	-0,045
-265,511	98,458	0,066	-0,055
-264,497	81,260	-0,089	-0,069
-263,482	40,506	-0,083	0,054
-262,467	-34,658	-0,062	0,025
-261,453	800,000	-0,023	-0,073
-260,438	-200,000	-0,007	-0,105
-259,424	187,837	-0,080	0,087
-258,409	307,551	-0,023	-0,032
-257,395	800,000	-0,042	-0,126
-256,380	-98,669	0,065	0,012
-255,365	77,454	-0,042	0,032
-254,351	91,424	-0,149	-0,121
-253,336	-200,000	0,002	-0,039
-252,322	33,834	-0,124	-0,078
-251,307	79,199	0,078	0,060
-250,292	522,966	-0,006	0,011
-249,278	-200,000	0,029	0,118
-248,263	118,572	-0,135	0,121
-247,249	15,481	0,050	-0,028
-246,234	460,104	-0,028	-0,045
-245,219	-200,000	0,004	-0,103
-244,205	-21,824	-0,103	-0,045
-243,190	46,259	-0,056	-0,037
-242,176	-200,000	0,015	-0,077
-241,161	188,108	0,126	-0,137
-240,146	211,756	-0,065	0,074
-239,132	-18,449	-0,087	0,039
-238,117	800,000	-0,071	-0,195
-237,103	-110,570	0,104	-0,015
-236,088	80,488	-0,093	-0,073
-235,073	-85,650	-0,099	-0,022
-234,059	-48,175	0,186	-0,064
-233,044	82,610	0,043	0,034
-232,030	800,000	-0,028	0,070
-231,015	-62,929	-0,092	0,027
-230,000	-200,000	0,036	-0,181
-228,986	680,568	0,040	-0,075
-227,971	-37,658	0,117	0,045
-226,957	-89,354	0,059	-0,013
-225,942	245,610	0,048	-0,059
-224,927	224,680	-0,052	0,061
-223,913	-90,144	-0,098	-0,020
-222,898	800,000	-0,045	-0,137
-221,884	19,126	-0,037	0,021
-220,869	38,195	-0,099	0,064
-219,855	-34,210	0,059	0,023
-218,840	123,143	-0,047	-0,043
-217,825	-200,000	-0,013	0,066
-216,811	-198,740	0,087	-0,000
-215,796	-200,000	0,009	-0,100
-214,782	800,000	-0,033	-0,090
-213,767	294,798	0,006	0,008
-212,752	-70,853	0,052	-0,014
-211,738	302,285	-0,098	0,131
-210,723	-200,000	-0,018	-0,080
-209,709	382,554	-0,026	-0,038
-208,694	-39,843	-0,104	0,039
-207,679	65,350	-0,108	-0,079
-206,665	-65,161	0,055	-0,016
-205,650	2,531	0,048	0,025
-204,636	3,973	-0,104	0,055
-203,621	-90,862	0,067	-0,014
-202,606	-67,630	-0,090	-0,025
-201,592	-200,000	0,005	0,059
-200,577	800,000	0,029	-0,066
-199,563	173,690	-0,058	0,061
-198,548	25,434	0,082	-0,049
-197,533	800,000	-0,032	0,075
-196,519	121,761	0,069	0,062
-195,504	194,839	0,063	-0,069
-194,490	-1,246	0,036	0,018
-193,475	269,758	-0,047	-0,060
-192,460	800,000	0,038	0,115
-191,446	487,498	0,025	0,042
-190,431	231,502	0,058	0,068
-189,417	136,538	0,029	-0,027
-188,402	-158,891	-0,150	-0,006
-187,387	-200,000	-0,001	-0,069
-186,373	-73,211	0,251	-0,066
-185,358	-74,126	0,091	0,024
-184,344	2,321	0,072	-0,037
-183,329	-54,533	0,080	-0,026
-182,315	800,000	0,025	0,070
-181,300	532,744	0,029	0,050
-180,285	-46,458	-0,026	0,009
-179,271	-166,392	-0,188	-0,006
-178,256	251,204	0,063	0,078
-177,242	800,000	-0,039	0,082
-176,227	-200,000	0,012	-0,101
-175,212	186,711	0,116	0,125
-174,198	800,000	-0,022	0,046
-173,183	152,713	0,036	0,035
-172,169	63,111	0,028	0,020
-171,154	-200,000	0,029	-0,151
-170,139	134,473	-0,106	0,099
-169,125	-200,000	0,003	0,115
-168,110	416,636	-0,029	0,044
-167,096	800,000	0,076	0,172
-166,081	-0,886	-0,124	-0,063
-165,066	-71,183	0,121	-0,033
-164,052	-200,000	-0,003	-0,134
-163,037	-200,000	0,010	0,062
-162,023	57,300	-0,119	0,083
-161,008	-200,000	0,014	0,109
-159,993	-200,000	0,048	0,000
-158,979	-200,000	0,027	0,119
-157,964	-62,600	-0,134	-0,040
-156,950	18,998	-0,031	-0,018
-155,935	-200,000	0,028	0,118
-154,920	230,179	-0,062	-0,073
-153,906	800,000	0,056	0,133
-152,891	800,000	0,034	0,072
-151,877	46,969	-0,103	-0,069
-150,862	-200,000	-0,012	-0,123
-149,847	800,000	-0,039	0,080
-148,833	800,000	0,049	-0,148
-147,818	-127,273	0,154	-0,016
-146,804	-148,140	0,093	0,005
-145,789	-58,411	-0,082	0,025
-144,775	-81,352	0,033	-0,008
-143,760	800,000	-0,019	0,042
-142,745	458,325	-0,038	0,062
-141,731	223,633	0,133	-0,155
-140,716	65,678	0,137	-0,100
-139,702	93,756	-0,133	-0,108
-138,687	-200,000	0,011	0,059
-137,672	-200,000	-0,013	0,066
-136,658	-200,000	0,086	-0,000
-135,643	-35,815	-0,171	-0,066
-134,629	-99,351	0,087	-0,016
-133,614	25,587	-0,137	0,082
-132,599	-34,310	0,131	0,051
-131,585	-9,001	0,070	0,034
-130,570	-200,000	0,038	0,176
-129,556	119,068	-0,072	-0,064
-128,541	-200,000	0,010	-0,034
-127,526	-62,679	-0,134	0,040
-126,512	-44,990	0,050	0,018
-125,497	278,131	0,051	0,066
-124,483	162,692	0,102	0,103
-123,468	436,873	0,022	0,035
-122,453	6,544	-0,017	0,009
-121,439	-200,000	-0,023	-0,129
-120,424	95,777	-0,088	-0,072
-119,410	80,895	0,148	0,115
-118,395	-167,665	0,060	-0,002
-117,380	-200,000	0,010	0,071
-116,366	-30,897	-0,077	0,031
-115,351	-92,322	0,208	-0,042
-114,337	4,498	-0,059	0,031
-113,322	-200,000	-0,002	-0,018
-112,307	-163,478	0,147	-0,005
-111,293	-52,681	-0,094	-0,031
-110,278	800,000	0,062	0,128
-109,264	236,165	-0,037	0,044
-108,249	-171,481	-0,117	0,003
-107,234	76,481	0,109	0,083
-106,220	-22,265	0,070	0,030
-105,205	116,829	0,122	0,108
-104,191	127,572	-0,033	-0,030
-103,176	84,640	0,023	-0,018
-102,162	30,509	0,091	-0,056
-101,147	-7,623	-0,091	0,044
-100,132	-75,308	-0,037	-0,009
-99,118	441,239	0,014	-0,022
-98,103	-15,606	0,105	-0,048
-97,089	338,084	0,043	0,060
-96,074	314,281	-0,053	-0,072
-95,059	57,133	-0,033	0,023
-94,045	-18,966	-0,086	0,038
-93,030	201,401	-0,042	0,046
-92,016	262,238	-0,044	0,055
-91,001	381,281	-0,035	0,052
-89,986	97,805	0,061	0,050
-88,972	800,000	-0,057	0,147
-87,957	205,371	-0,053	0,060
-86,943	-200,000	0,024	0,117
-85,928	-92,817	0,081	-0,016
-84,913	90,037	-0,072	-0,058
-83,899	800,000	0,035	-0,078
-82,884	78,463	0,064	-0,049
-81,870	-154,392	0,131	-0,006
-80,855	231,651	-0,059	0,069
-79,840	150,064	-0,059	-0,058
-78,826	-200,000	0,028	0,094
-77,811	241,920	-0,055	0,067
-76,797	74,278	0,013	-0,010
-75,782	-49,650	-0,028	0,009
-74,767	-56,366	0,131	-0,042
-73,753	448,349	0,057	0,091
-72,738	-132,597	-0,135	0,012
-71,724	49,544	0,071	-0,048
-70,709	-58,017	-0,118	0,037
-69,694	-86,387	-0,051	-0,011
-68,680	800,000	0,030	0,079
-67,665	800,000	-0,050	0,131
-66,651	800,000	0,021	0,067
-65,636	-200,000	0,010	0,047
-64,622	800,000	-0,027	-0,077
-63,607	-74,216	-0,081	0,021
-62,592	-43,815	0,191	0,069
-61,578	-200,000	-0,009	0,111
-60,563	456,160	-0,095	0,152
-59,549	-184,188	-0,015	-0,000
-58,534	79,165	-2,401	-1,846
-57,519	385,235	0,324	-0,481
-56,505	-200,000	-1,685	-5,432
-55,490	392,722	1,193	1,787
-54,476	800,000	5,179	11,227
-53,461	-200,000	21,473	335,649
-52,446	800,000	762,633	2289,069
-51,432	509,242	1658,785	2777,613
-50,417	104,688	1624,009	1373,302
-49,403	75,298	1277,454	966,296
-48,388	26,156	1023,844	612,109
-47,373	18,969	989,532	567,790
-46,359	13,592	976,725	542,743
-45,344	9,724	973,342	528,120
-44,330	10,202	971,195	528,507
-43,315	9,101	969,504	523,950
-42,300	9,095	968,187	523,198
-41,286	9,032	967,266	522,475
-40,271	9,061	966,435	522,098
-39,257	9,034	965,362	521,412
-38,242	9,018	964,645	520,949
-37,227	8,996	963,979	520,497
-36,213	9,007	962,923	519,943
-35,198	9,034	962,132	519,584
-34,184	9,156	961,224	519,470
-33,169	9,052	960,435	518,684
-32,154	9,046	959,623	518,205
-31,140	9,089	958,659	517,802
-30,125	9,120	957,891	517,468
-29,111	9,064	957,226	516,907
-28,096	9,083	956,512	516,563
-27,082	9,129	955,853	516,335
-26,067	9,108	955,059	515,817
-25,052	9,032	954,259	515,120
-24,038	9,025	953,430	514,629
-23,023	9,016	952,825	514,253
-22,009	9,066	952,377	514,151
-20,994	9,005	951,797	513,621
-19,979	9,047	951,077	513,351
-18,965	9,032	950,534	512,987
-17,950	9,036	950,138	512,767
-16,936	8,980	949,257	512,090
-15,921	8,976	948,505	511,653
-14,906	8,999	947,700	511,270
-13,892	8,885	947,197	510,615
-12,877	8,920	946,417	510,285
-11,863	8,911	945,843	509,926
-10,848	8,940	945,394	509,758
-9,833	9,057	944,713	509,743
-8,819	8,974	944,163	509,161
-7,804	8,933	943,404	508,600
-6,790	8,942	942,842	508,306
-5,775	8,970	942,472	508,177
-4,760	8,967	941,667	507,713
-3,746	8,972	941,080	507,393
-2,731	8,850	940,174	506,496
-1,717	8,704	939,926	505,876
-0,702	8,823	939,064	505,772
0,313	8,660	938,305	505,609
1,327	12,305	936,240	515,990
2,342	21,262	785,548	456,557
3,356	16,741	452,341	256,016
4,371	-9,642	314,785	149,934
5,386	-13,304	297,305	137,864
6,400	-15,414	291,220	132,924
7,415	-16,060	288,399	130,985
8,429	-16,966	286,353	129,154
9,444	-17,104	285,426	128,589
10,459	-17,222	284,958	128,253
11,473	-17,166	284,197	127,953
12,488	-16,983	283,874	127,974
13,502	-17,181	283,270	127,498
14,517	-17,357	282,811	127,110
15,531	-17,245	282,411	127,027
16,546	-17,136	281,850	126,869
17,561	-17,342	281,613	126,551
18,575	-17,209	281,271	126,515
19,590	-17,417	280,928	126,149
20,604	-17,314	280,563	126,073
21,619	-17,308	279,950	125,792
22,634	-17,261	279,834	125,773
23,648	-17,393	279,536	125,502
24,663	-17,354	279,253	125,402
25,677	-17,354	279,117	125,329
26,692	-17,213	278,739	125,283
27,707	-17,240	278,445	125,114
28,721	-17,232	278,174	124,988
29,736	-17,228	277,807	124,816
30,750	-17,356	277,761	124,662
31,765	-17,282	277,310	124,519
32,780	-17,435	277,388	124,398
33,794	-17,348	277,002	124,297
34,809	-17,314	276,796	124,225
35,823	-17,417	276,381	123,930
36,838	-17,278	276,123	123,935
37,853	-17,440	275,854	123,650
38,867	-17,371	275,575	123,579
39,882	-17,100	275,366	123,730
40,896	-17,479	275,218	123,296
41,911	-17,414	274,855	123,183
42,926	-17,304	274,677	123,195
43,940	-17,303	274,273	123,005
44,955	-17,455	274,340	122,880
45,969	-17,344	273,928	122,788
46,984	-17,194	273,653	122,796
47,999	-17,174	273,511	122,739
49,013	-17,113	273,204	122,647
50,028	-17,429	273,310	122,389
51,042	-17,228	272,879	122,372
52,057	-17,211	272,630	122,265
53,071	-17,250	272,381	122,107
54,086	-17,225	272,143	122,012
55,101	-17,269	271,796	121,805
56,115	-17,178	271,777	121,870
57,130	-17,220	271,524	121,707
58,144	-17,091	271,104	121,627
59,159	-17,300	270,993	121,374
60,174	-17,290	270,762	121,268
61,188	-17,222	270,561	121,231
62,203	-17,125	270,226	121,159
63,217	-17,086	270,008	121,086
64,232	-17,280	269,796	120,802
65,247	-17,257	269,568	120,710
66,261	-17,128	269,211	120,658
67,276	-17,246	269,115	120,496
68,290	-17,508	268,976	120,182
69,305	-17,144	268,683	120,375
70,320	-17,105	268,521	120,326
71,334	-17,170	268,254	120,137
72,349	-17,198	267,953	119,966
73,363	-17,090	267,761	119,967
74,378	-17,178	267,545	119,780
75,393	-17,182	267,242	119,630
76,407	-17,142	267,237	119,654
77,422	-17,203	266,984	119,474
78,436	-17,101	266,620	119,393
79,451	-17,183	266,341	119,184
80,466	-17,112	266,053	119,109
81,480	-17,111	265,836	119,002
82,495	-17,287	265,647	118,747
83,509	-17,188	265,590	118,800
84,524	-17,251	265,392	118,644
85,539	-17,161	265,211	118,634
86,553	-17,286	265,016	118,424
87,568	-17,224	264,613	118,288
88,582	-17,214	264,523	118,247
89,597	-17,047	264,281	118,278
90,611	-17,104	264,056	118,116
91,626	-17,194	263,841	117,928
92,641	-17,268	263,739	117,806
93,655	-17,228	263,428	117,692
94,670	-17,192	263,163	117,596
95,684	-17,139	262,938	117,532
96,699	-17,220	262,773	117,375
97,714	-17,171	262,640	117,349
98,728	-17,236	262,459	117,200
99,743	-17,168	262,299	117,179
100,757	-17,199	262,040	117,025
101,772	-17,158	261,812	116,949
102,787	-17,378	261,589	116,644
103,801	-17,342	261,400	116,581
104,816	-17,175	261,161	116,612
105,830	-17,494	261,109	116,295
106,845	-17,104	260,823	116,503
107,860	-17,082	260,618	116,420
108,874	-17,110	260,467	116,318
109,889	-17,086	260,137	116,182
110,903	-17,287	259,943	115,907
111,918	-17,145	259,712	115,919
112,933	-17,246	259,629	115,783
113,947	-17,174	259,425	115,745
114,962	-17,140	259,074	115,608
115,976	-17,250	258,977	115,457
116,991	-17,156	258,739	115,423
118,006	-17,275	258,808	115,339
119,020	-17,321	258,561	115,179
120,035	-17,252	258,298	115,112
121,049	-17,100	258,135	115,162
122,064	-17,116	257,909	115,037
123,079	-17,243	257,720	114,832
124,093	-17,117	257,327	114,756
125,108	-17,240	257,271	114,613
126,122	-17,210	257,062	114,536
127,137	-17,061	256,852	114,562
128,151	-17,134	256,836	114,481
129,166	-17,068	256,403	114,335
130,181	-17,211	256,299	114,155
131,195	-17,112	256,028	114,110
132,210	-17,167	255,802	113,951
133,224	-17,114	255,697	113,940
134,239	-17,045	255,421	113,866
135,254	-16,993	255,313	113,854
136,268	-17,101	255,154	113,680
137,283	-17,057	254,833	113,564
138,297	-17,312	254,843	113,338
139,312	-17,166	254,421	113,266
140,327	-16,917	254,285	113,410
141,341	-17,142	254,134	113,139
142,356	-17,104	254,019	113,110
143,370	-16,991	253,665	113,039
144,385	-17,275	253,646	112,777
145,400	-17,049	253,389	112,847
146,414	-16,992	253,167	112,786
147,429	-17,015	252,921	112,647
148,443	-17,009	252,794	112,586
149,458	-17,136	252,575	112,369
150,473	-16,898	252,371	112,472
151,487	-17,139	252,196	112,179
152,502	-16,877	251,946	112,281
153,516	-16,972	251,759	112,107
154,531	-17,031	251,547	111,952
155,546	-17,113	251,506	111,854
156,560	-16,987	251,227	111,826
157,575	-16,835	250,995	111,843
158,589	-17,000	250,897	111,649
159,604	-17,062	250,643	111,473
160,619	-16,813	250,473	111,599
161,633	-16,965	250,340	111,401
162,648	-17,099	250,226	111,227
163,662	-16,940	249,946	111,227
164,677	-17,003	249,907	111,146
165,692	-16,947	249,459	110,985
166,706	-16,990	249,455	110,937
167,721	-16,972	249,195	110,826
168,735	-17,003	249,203	110,794
169,750	-17,129	249,176	110,666
170,764	-16,965	248,952	110,695
171,779	-16,991	248,741	110,569
172,794	-16,926	248,488	110,501
173,808	-17,078	248,257	110,261
174,823	-17,052	248,175	110,236
175,837	-17,142	247,918	110,037
176,852	-16,822	247,845	110,263
177,867	-17,012	247,683	110,022
178,881	-16,758	247,464	110,127
179,896	-16,954	247,437	109,942
180,910	-17,127	247,163	109,666
181,925	-17,059	246,916	109,603
182,940	-17,063	246,912	109,588
183,954	-16,858	246,407	109,525
184,969	-16,756	246,455	109,621
185,983	-16,942	246,374	109,420
186,998	-16,789	246,082	109,409
188,013	-16,787	245,778	109,265
189,027	-16,874	245,694	109,146
190,042	-16,928	245,626	109,061
191,056	-16,807	245,418	109,059
192,071	-16,856	245,295	108,955
193,086	-16,691	245,024	108,961
194,100	-16,662	244,639	108,804
195,115	-16,796	244,593	108,663
196,129	-16,718	244,509	108,680
197,144	-16,821	244,243	108,467
198,159	-16,833	244,085	108,378
199,173	-16,827	243,974	108,324
200,188	-16,696	243,619	108,264
201,202	-16,841	243,739	108,189
202,217	-16,752	243,384	108,094
203,232	-16,835	243,185	107,928
204,246	-16,786	242,976	107,866
205,261	-16,647	242,956	107,961
206,275	-14,969	243,424	109,537
207,290	-11,230	244,822	113,239
208,304	-5,846	246,430	118,432
209,319	-2,962	247,168	121,168
210,334	-2,360	247,165	121,654
211,348	-1,577	247,329	122,372
212,363	-1,157	247,191	122,641
213,377	-0,489	247,304	123,239
214,392	-0,155	247,504	123,604
215,407	0,287	247,325	123,870
216,421	0,408	247,331	123,962
217,436	0,416	247,041	123,812
218,450	0,425	246,953	123,764
219,465	0,403	246,859	123,688
220,480	0,522	246,706	123,698
221,494	0,391	246,605	123,529
222,509	0,316	246,134	123,220
223,523	0,264	245,991	123,095
224,538	-0,059	245,836	122,741
225,553	0,172	245,764	122,884
226,567	-0,010	245,499	122,591
227,582	0,110	245,495	122,677
228,596	0,079	245,308	122,547
229,611	0,079	245,063	122,413
230,626	-0,036	244,916	122,235
231,640	-0,024	244,648	122,100
232,655	-0,043	244,432	121,966
233,669	-0,197	244,412	121,819
234,684	0,058	244,114	121,867
235,699	-0,037	244,085	121,765
236,713	-0,006	243,907	121,691
237,728	0,114	243,659	121,653
238,742	-0,137	243,699	121,458
239,757	0,040	243,317	121,401
240,772	-0,039	243,232	121,284
241,786	0,125	242,917	121,249
242,801	-0,130	242,959	121,052
243,815	-0,045	242,817	121,040
244,830	-0,004	242,499	120,903
245,844	-0,054	242,498	120,852
246,859	0,014	242,289	120,792
247,874	-0,046	242,174	120,676
248,888	-0,207	242,048	120,472
249,903	-0,163	241,945	120,446
250,917	0,098	241,638	120,492
251,932	0,056	241,561	120,409
252,947	-0,137	241,524	120,225
253,961	-0,038	241,211	120,138
254,976	0,134	241,037	120,178
255,990	-0,012	241,019	120,041
257,005	0,064	240,744	119,955
258,020	0,047	240,656	119,886
259,034	-0,065	240,495	119,705
260,049	0,095	240,424	119,787
261,063	0,243	240,141	119,755
262,078	-0,020	239,907	119,417
263,093	0,067	239,633	119,339
264,107	-0,017	239,756	119,323
265,122	0,056	239,447	119,216
266,136	0,189	239,381	119,279
267,151	0,098	239,150	119,081
268,166	-0,018	239,022	118,915
269,180	0,034	238,734	118,802
270,195	-0,057	238,707	118,705
271,209	0,065	238,535	118,706
272,224	0,147	238,341	118,664
273,239	-0,039	238,263	118,467
274,253	0,126	238,015	118,464
275,268	0,077	237,797	118,307
276,282	0,035	237,790	118,259
277,297	-0,023	237,640	118,128
278,312	-0,057	237,530	118,036
279,326	0,148	237,368	118,107
280,341	-0,067	237,372	117,929
281,355	0,096	236,954	117,839
282,370	0,125	236,926	117,837
283,384	0,039	236,777	117,685
284,399	0,074	236,638	117,633
285,414	-0,001	236,442	117,466
286,428	0,099	236,406	117,516
287,443	0,146	236,216	117,448
288,457	0,085	236,125	117,344
289,472	0,119	235,885	117,242
290,487	-0,036	235,856	117,095
291,501	-0,001	235,605	116,987
292,516	0,153	235,398	116,995
293,530	0,270	235,263	117,008
294,545	0,261	235,250	116,984
295,560	0,279	235,069	116,898
296,574	0,167	234,898	116,715
297,589	0,179	234,818	116,675
298,603	0,162	234,560	116,522
299,618	0,149	234,443	116,444
300,633	0,301	234,386	116,523
301,647	0,205	234,191	116,341
302,662	0,584	233,974	116,517
303,676	0,187	233,854	116,139
304,691	0,388	233,757	116,237
305,706	0,303	233,493	116,029
306,720	0,319	233,339	115,955
307,735	0,444	233,185	115,965
308,749	0,262	233,103	115,773
309,764	0,183	233,020	115,660
310,779	0,269	232,838	115,626
311,793	0,113	232,718	115,436
312,808	0,381	232,401	115,475
313,822	0,277	232,258	115,314
314,837	0,228	232,205	115,239
315,852	0,172	232,119	115,143
316,866	0,302	231,924	115,135
317,881	0,465	231,768	115,173
318,895	0,245	231,631	114,926
319,910	0,438	231,350	114,924
320,925	0,451	231,306	114,903
321,939	0,206	231,307	114,705
322,954	0,317	231,054	114,654
323,968	0,376	230,879	114,602
324,983	0,521	230,668	114,598
325,997	0,158	230,579	114,266
327,012	0,362	230,479	114,362
328,027	0,554	230,164	114,342
329,041	0,472	230,251	114,312
330,056	0,336	230,031	114,090
331,070	0,228	229,945	113,955
332,085	0,459	229,653	113,975
333,100	0,403	229,575	113,884
334,114	0,400	229,300	113,735
335,129	0,443	229,122	113,669
336,143	0,451	228,954	113,582
337,158	0,489	228,948	113,597
338,173	0,687	228,773	113,650
339,187	0,666	228,723	113,599
340,202	0,613	228,525	113,451
341,216	0,469	228,281	113,211
342,231	0,707	228,306	113,393
343,246	0,460	228,129	113,109
344,260	0,485	228,025	113,066
345,275	0,440	227,912	112,966
346,289	0,507	227,740	112,921
347,304	0,635	227,554	112,915
348,319	0,473	227,435	112,724
349,333	0,571	227,239	112,690
350,348	0,645	226,943	112,589
351,362	0,728	226,866	112,603
352,377	0,487	226,795	112,377
353,392	0,730	226,578	112,442
354,406	0,808	226,567	112,484
355,421	194,747	1311,286	1385,353
356,435	156,143	1443,315	1385,222
