DTS Sentinel unit serial number:	SN410029Multiplexer serial number:	ORYXHardware model number:	OX2-SRSoftware version number:	ORYX F/W v4,00 Oryx Data Collector v3.7.2.0data status	okinstallation	B5 Nyhavnadifferential loss correction	single-endedforward channel	channel 2reverse channel	N/Adate	2023/12/12time	07:42:13forward acquisition time	300,00reverse acquisition time	0,00gamma	499,1914k internal	0,3157k external	0,3157temperature offset calibration	1,0000default loss term (dB/km)	0,3820temperature slope calibration	1,0000multiplexer offset coefficient	1,0000multiplexer slope coefficient	1,0000fibre end	0,00T internal ref (°C)	15,12T ext. ref 1 (°C)	-1,18T ext. ref 2 (°C)	-1,44length (m)	temperature (°C)	Stokes	anti-Stokes-744,400	505,289	0,018	0,031
-743,385	-181,644	-0,397	-0,006
-742,371	-52,148	0,174	0,059
-741,356	-137,880	-0,234	0,019
-740,342	-200,000	0,154	0,000
-739,327	-162,165	-0,373	-0,014
-738,312	-156,576	-0,060	-0,003
-737,298	-36,594	-0,225	-0,089
-736,283	26,775	0,055	0,034
-735,269	-123,917	-0,309	0,035
-734,254	179,109	0,108	0,117
-733,239	42,511	-0,475	-0,318
-732,225	-107,469	0,085	0,014
-731,210	746,229	-0,109	0,217
-730,196	12,185	-0,034	-0,019
-729,181	5,235	-0,093	-0,051
-728,167	40,187	-0,022	-0,014
-727,152	46,058	0,118	-0,080
-726,137	263,852	0,070	-0,090
-725,123	-54,933	-0,141	-0,046
-724,108	599,838	0,052	-0,095
-723,094	-31,099	-0,102	0,042
-722,079	-150,729	-0,088	0,005
-721,064	800,000	-0,015	-0,035
-720,050	188,688	0,094	0,104
-719,035	-152,867	-0,189	0,010
-718,021	-200,000	0,026	0,114
-717,006	66,809	-0,048	-0,036
-715,991	800,000	-0,010	-0,031
-714,977	-200,000	0,006	-0,145
-713,962	-200,000	-0,007	-0,101
-712,948	-151,479	-0,157	0,008
-711,933	-16,002	-0,084	-0,039
-710,918	-200,000	0,006	-0,058
-709,904	-200,000	0,011	-0,043
-708,889	145,570	0,070	-0,069
-707,875	352,233	-0,082	-0,120
-706,860	-150,737	0,045	-0,002
-705,845	-106,608	0,060	0,010
-704,831	800,000	0,038	0,102
-703,816	75,660	-0,092	0,071
-702,802	405,454	0,074	-0,116
-701,787	52,094	-0,128	-0,089
-700,772	-142,726	-0,032	-0,002
-699,758	312,841	0,079	-0,110
-698,743	168,033	0,007	0,008
-697,729	48,501	0,068	-0,047
-696,714	-47,191	-0,155	-0,055
-695,699	-200,000	-0,018	-0,068
-694,685	91,932	0,048	0,040
-693,670	-71,945	-0,024	0,006
-692,656	752,073	0,009	0,017
-691,641	-96,320	0,104	-0,020
-690,627	800,000	-0,029	0,078
-689,612	467,409	0,120	0,199
-688,597	-46,121	-0,189	-0,068
-687,583	115,274	0,041	-0,037
-686,568	-86,753	-0,028	-0,006
-685,554	-200,000	0,010	-0,080
-684,539	83,483	0,023	-0,018
-683,524	-200,000	0,018	0,079
-682,510	70,582	0,063	-0,048
-681,495	-200,000	0,017	-0,080
-680,481	171,219	-0,012	0,013
-679,466	-200,000	-0,009	-0,060
-678,451	16,954	-0,076	0,044
-677,437	-73,980	-0,111	-0,029
-676,422	800,000	0,020	0,057
-675,408	-200,000	0,005	-0,041
-674,393	30,661	0,086	0,054
-673,378	668,311	-0,040	-0,076
-672,364	36,163	-0,150	-0,097
-671,349	107,496	0,100	0,087
-670,335	9,175	0,128	0,071
-669,320	680,004	-0,113	-0,217
-668,305	144,501	0,095	-0,093
-667,291	27,178	-0,074	-0,045
-666,276	-67,200	-0,072	0,021
-665,262	-200,000	-0,009	-0,061
-664,247	191,188	-0,025	-0,027
-663,232	800,000	0,017	0,052
-662,218	-3,824	0,008	0,004
-661,203	-123,200	0,226	-0,026
-660,189	219,263	-0,010	-0,011
-659,174	-76,280	0,049	-0,013
-658,159	39,664	-0,111	0,073
-657,145	97,976	-0,149	0,126
-656,130	105,567	0,136	0,118
-655,116	-200,000	-0,001	-0,093
-654,101	-200,000	0,010	-0,123
-653,086	-19,457	-0,035	0,016
-652,072	46,797	0,037	-0,025
-651,057	-89,646	-0,077	0,016
-650,043	-200,000	-0,019	0,109
-649,028	97,156	-0,024	0,020
-648,014	85,840	0,108	0,087
-646,999	28,078	0,082	0,051
-645,984	-127,681	-0,199	-0,021
-644,970	282,639	-0,043	-0,057
-643,955	224,980	-0,149	-0,178
-642,941	81,747	-0,074	-0,059
-641,926	-72,205	0,091	-0,025
-640,911	45,533	-0,055	-0,037
-639,897	125,682	0,027	-0,025
-638,882	-139,900	-0,068	0,005
-637,868	117,485	-0,082	-0,074
-636,853	83,401	0,018	-0,014
-635,838	24,623	0,060	0,036
-634,824	-51,349	-0,103	0,035
-633,809	40,310	0,148	-0,097
-632,795	451,117	0,037	0,060
-631,780	-23,250	0,044	-0,019
-630,765	-200,000	0,005	-0,032
-629,751	132,909	-0,119	-0,113
-628,736	115,735	-0,134	-0,120
-627,722	-112,488	-0,054	-0,008
-626,707	-36,582	0,177	0,069
-625,692	-107,772	0,048	0,008
-624,678	-200,000	0,020	0,083
-623,663	97,991	0,077	0,065
-622,649	479,290	-0,059	0,098
-621,634	-3,892	0,023	0,012
-620,619	-59,978	-0,015	0,005
-619,605	-50,550	0,098	0,034
-618,590	-200,000	0,028	-0,132
-617,576	32,824	-0,010	-0,007
-616,561	-200,000	0,007	0,037
-615,546	800,000	0,039	0,105
-614,532	-200,000	0,037	0,000
-613,517	-200,000	-0,033	-0,118
-612,503	116,047	0,075	-0,067
-611,488	-200,000	0,012	0,051
-610,474	-141,523	0,059	-0,004
-609,459	56,822	0,090	-0,064
-608,444	-200,000	-0,023	-0,116
-607,430	-80,744	-0,046	0,011
-606,415	523,439	0,065	-0,113
-605,401	650,879	-0,092	-0,174
-604,386	800,000	0,012	-0,034
-603,371	147,616	0,073	0,072
-602,357	-200,000	0,006	0,085
-601,342	800,000	0,034	-0,087
-600,328	-50,081	-0,024	-0,008
-599,313	800,000	0,014	-0,037
-598,298	203,777	-0,093	-0,106
-597,284	-17,743	0,062	0,028
-596,269	-142,787	-0,091	0,006
-595,255	86,127	0,036	0,029
-594,240	-48,708	0,079	-0,028
-593,225	277,840	-0,008	-0,010
-592,211	-198,443	-0,075	-0,000
-591,196	303,522	-0,044	0,060
-590,182	-40,060	0,054	-0,021
-589,167	197,267	0,035	-0,039
-588,152	255,983	0,082	0,103
-587,138	-200,000	-0,033	-0,129
-586,123	-158,638	0,041	-0,002
-585,109	-55,375	0,145	0,048
-584,094	263,605	-0,130	0,166
-583,079	210,098	0,040	0,046
-582,065	-88,442	-0,112	0,024
-581,050	49,891	-0,045	0,031
-580,036	-200,000	0,025	-0,102
-579,021	69,477	-0,017	-0,013
-578,006	693,587	-0,066	-0,128
-576,992	-78,278	-0,071	-0,018
-575,977	28,917	0,113	-0,070
-574,963	172,426	0,046	-0,049
-573,948	180,721	-0,056	0,060
-572,934	800,000	-0,052	-0,156
-571,919	224,677	0,005	0,006
-570,904	-182,486	0,065	0,001
-569,890	-30,427	0,109	0,045
-568,875	78,176	-0,163	0,127
-567,861	-77,748	-0,049	0,012
-566,846	171,805	-0,030	0,031
-565,831	-45,104	-0,090	-0,033
-564,817	344,932	-0,081	-0,117
-563,802	-200,000	0,030	-0,149
-562,788	800,000	-0,040	0,090
-561,773	-6,040	-0,133	0,066
-560,758	795,063	0,033	-0,068
-559,744	51,110	0,103	0,071
-558,729	-200,000	0,019	0,166
-557,715	800,000	-0,035	0,077
-556,700	-175,348	0,109	0,002
-555,685	-120,207	-0,133	0,016
-554,671	223,605	0,062	-0,074
-553,656	26,975	-0,074	0,046
-552,642	-200,000	-0,004	0,040
-551,627	-15,136	-0,065	-0,030
-550,612	-146,223	0,062	-0,004
-549,598	-29,044	-0,094	-0,039
-548,583	405,621	0,014	-0,022
-547,569	800,000	-0,063	-0,147
-546,554	-143,401	0,096	-0,007
-545,539	513,577	0,078	0,134
-544,525	-200,000	0,011	0,154
-543,510	-63,050	-0,150	-0,045
-542,496	218,360	-0,038	-0,044
-541,481	372,314	-0,061	0,090
-540,466	800,000	0,017	0,046
-539,452	149,474	-0,043	-0,043
-538,437	-200,000	0,001	0,067
-537,423	2,247	0,011	0,006
-536,408	-200,000	-0,021	0,098
-535,393	800,000	0,044	-0,139
-534,379	34,010	-0,110	0,070
-533,364	800,000	-0,012	-0,031
-532,350	651,418	0,045	0,085
-531,335	800,000	-0,030	0,071
-530,321	-109,502	0,064	-0,010
-529,306	96,620	0,044	-0,036
-528,291	130,048	-0,134	-0,125
-527,277	800,000	-0,032	-0,085
-526,262	-48,101	0,066	-0,023
-525,248	-1,792	0,142	0,073
-524,233	289,364	0,049	-0,065
-523,218	-7,581	-0,078	-0,039
-522,204	-200,000	-0,002	0,026
-521,189	182,416	0,045	-0,049
-520,175	84,259	-0,044	-0,035
-519,160	188,723	0,043	0,047
-518,145	-200,000	-0,028	-0,153
-517,131	-88,622	0,105	-0,023
-516,116	17,502	0,088	-0,051
-515,102	32,085	-0,154	-0,097
-514,087	800,000	0,013	-0,035
-513,072	8,320	-0,032	-0,018
-512,058	-142,522	0,128	0,009
-511,043	-200,000	-0,013	0,087
-510,029	800,000	0,017	-0,051
-509,014	-200,000	0,017	-0,101
-507,999	84,862	-0,085	-0,068
-506,985	-104,233	-0,136	-0,023
-505,970	-200,000	-0,043	-0,167
-504,956	59,957	-0,076	0,055
-503,941	126,737	0,075	0,069
-502,926	800,000	-0,016	0,046
-501,912	-200,000	0,007	0,082
-500,897	-200,000	0,022	0,088
-499,883	800,000	0,016	-0,042
-498,868	-200,000	-0,025	0,091
-497,853	222,146	-0,079	-0,092
-496,839	-200,000	-0,034	0,145
-495,824	-200,000	0,022	0,188
-494,810	9,368	0,147	0,081
-493,795	714,763	-0,031	0,061
-492,781	75,043	0,123	0,094
-491,766	800,000	-0,021	0,061
-490,751	25,924	0,112	-0,068
-489,737	-86,914	0,111	-0,025
-488,722	-66,950	-0,075	-0,021
-487,708	800,000	0,017	0,036
-486,693	-200,000	0,002	0,118
-485,678	-155,667	0,131	0,006
-484,664	800,000	0,034	0,087
-483,649	-132,148	-0,130	-0,012
-482,635	800,000	-0,050	-0,116
-481,620	37,794	0,139	-0,090
-480,605	-200,000	-0,000	0,004
-479,591	-200,000	-0,017	0,209
-478,576	-117,920	-0,098	0,013
-477,562	-200,000	0,041	0,137
-476,547	259,390	-0,086	-0,109
-475,532	112,488	-0,059	0,052
-474,518	-168,772	0,029	0,001
-473,503	-200,000	-0,006	0,122
-472,489	60,598	0,024	0,018
-471,474	-200,000	0,004	-0,083
-470,459	273,581	0,043	-0,055
-469,445	-200,000	-0,015	0,075
-468,430	326,789	-0,054	-0,076
-467,416	-200,000	0,015	0,104
-466,401	-71,011	0,203	0,055
-465,386	-127,002	-0,148	0,016
-464,372	-22,025	0,131	0,058
-463,357	-11,125	-0,120	-0,057
-462,343	-58,738	0,144	-0,045
-461,328	58,809	-0,065	0,047
-460,313	586,953	-0,051	0,092
-459,299	25,505	0,020	0,012
-458,284	-31,622	0,064	0,026
-457,270	-129,836	0,128	-0,013
-456,255	401,251	-0,056	-0,085
-455,241	-94,992	0,052	0,010
-454,226	47,459	-0,054	0,037
-453,211	-134,568	0,060	-0,005
-452,197	-200,000	0,014	-0,045
-451,182	-102,478	0,044	0,008
-450,168	207,123	-0,062	0,071
-449,153	7,613	0,038	-0,021
-448,138	137,104	-0,116	-0,111
-447,124	283,561	0,084	-0,110
-446,109	114,137	0,027	-0,024
-445,095	-140,065	-0,139	-0,010
-444,080	-176,685	0,106	-0,002
-443,065	49,996	0,064	-0,044
-442,051	507,681	-0,033	0,057
-441,036	42,116	-0,043	-0,029
-440,022	63,958	0,063	0,046
-439,007	43,952	0,085	0,057
-437,992	-200,000	0,024	0,118
-436,978	-120,836	-0,083	0,010
-435,963	144,123	-0,147	-0,143
-434,949	800,000	-0,032	-0,087
-433,934	-200,000	0,027	-0,228
-432,919	240,321	0,050	0,060
-431,905	-200,000	-0,040	0,145
-430,890	214,101	-0,085	0,098
-429,876	-2,643	0,079	0,040
-428,861	-14,673	0,077	-0,036
-427,846	220,448	0,063	-0,074
-426,832	-200,000	0,014	-0,069
-425,817	-21,175	0,038	0,017
-424,803	30,984	-0,081	0,051
-423,788	125,388	0,058	-0,054
-422,773	580,550	0,061	0,109
-421,759	-200,000	0,005	0,112
-420,744	304,551	-0,077	-0,104
-419,730	-200,000	0,024	-0,146
-418,715	148,725	-0,018	0,017
-417,701	137,861	-0,083	0,079
-416,686	-200,000	-0,006	-0,080
-415,671	800,000	0,031	0,066
-414,657	106,252	0,075	0,065
-413,642	-200,000	-0,009	-0,097
-412,628	-107,230	-0,053	-0,008
-411,613	-36,164	0,032	0,013
-410,598	8,336	0,083	0,045
-409,584	-200,000	0,028	0,124
-408,569	-10,966	0,045	0,022
-407,555	-63,100	0,076	0,023
-406,540	211,050	0,031	-0,035
-405,525	-32,325	-0,195	-0,079
-404,511	270,684	0,042	-0,054
-403,496	86,350	-0,073	0,059
-402,482	-200,000	0,020	-0,070
-401,467	38,672	0,011	0,007
-400,452	587,900	0,057	0,102
-399,438	800,000	-0,036	0,109
-398,423	-80,328	0,071	-0,017
-397,409	-8,823	0,104	-0,050
-396,394	69,016	-0,054	0,041
-395,379	-200,000	-0,015	0,072
-394,365	379,389	0,063	-0,094
-393,350	-200,000	0,001	-0,018
-392,336	89,707	0,062	-0,050
-391,321	-200,000	0,011	-0,036
-390,306	-37,779	-0,135	0,052
-389,292	-35,817	-0,098	0,038
-388,277	24,116	-0,033	0,020
-387,263	-68,717	0,049	-0,014
-386,248	-200,000	-0,018	-0,169
-385,233	5,085	-0,078	0,042
-384,219	102,376	-0,065	-0,055
-383,204	800,000	-0,011	-0,026
-382,190	-49,709	-0,027	-0,009
-381,175	-160,733	-0,080	0,003
-380,160	27,093	-0,085	0,052
-379,146	-200,000	0,066	-0,245
-378,131	373,358	-0,055	0,081
-377,117	7,047	-0,025	0,014
-376,102	-200,000	-0,007	-0,084
-375,088	-171,161	0,064	0,002
-374,073	-200,000	-0,016	0,103
-373,058	-28,359	0,100	0,042
-372,044	-200,000	0,008	0,172
-371,029	-146,619	0,047	0,003
-370,015	214,344	-0,031	0,036
-369,000	97,889	0,038	0,032
-367,985	800,000	0,022	-0,070
-366,971	243,070	0,004	-0,004
-365,956	35,816	0,030	0,019
-364,942	-200,000	0,028	0,118
-363,927	90,640	-0,063	-0,051
-362,912	-66,859	-0,118	0,034
-361,898	600,393	-0,023	-0,041
-360,883	300,181	0,053	0,071
-359,869	506,120	0,079	-0,134
-358,854	86,961	0,030	-0,024
-357,839	800,000	0,021	-0,064
-356,825	-200,000	0,015	0,074
-355,810	90,726	0,062	-0,051
-354,796	85,777	0,049	-0,039
-353,781	-52,065	-0,147	-0,049
-352,766	-136,894	-0,090	-0,007
-351,752	-17,959	0,111	-0,051
-350,737	-21,560	0,057	-0,025
-349,723	-200,000	0,012	0,074
-348,708	141,016	-0,020	0,019
-347,693	-12,873	0,023	-0,011
-346,679	137,626	-0,075	0,071
-345,664	229,592	-0,107	0,128
-344,650	-200,000	0,003	-0,068
-343,635	800,000	0,029	-0,070
-342,620	-11,954	0,088	0,042
-341,606	23,306	-0,072	0,043
-340,591	-163,122	-0,032	0,001
-339,577	-187,395	-0,160	-0,002
-338,562	-200,000	-0,008	-0,082
-337,548	131,118	0,092	0,086
-336,533	800,000	-0,054	0,142
-335,518	40,991	0,095	0,062
-334,504	301,538	-0,071	0,095
-333,489	-200,000	0,006	0,095
-332,475	93,361	-0,017	-0,014
-331,460	74,768	-0,086	-0,065
-330,445	-44,580	0,108	-0,039
-329,431	800,000	-0,051	-0,136
-328,416	196,910	0,088	0,097
-327,402	100,475	-0,040	0,034
-326,387	-132,776	-0,015	-0,001
-325,372	-148,912	-0,040	-0,002
-324,358	-118,397	-0,075	-0,009
-323,343	602,026	-0,062	-0,112
-322,329	15,511	0,035	0,020
-321,314	106,691	0,025	-0,022
-320,299	-48,357	0,040	0,014
-319,285	-200,000	0,007	-0,042
-318,270	-43,121	-0,066	-0,024
-317,256	800,000	-0,029	-0,088
-316,241	-130,085	0,052	0,005
-315,226	-95,623	0,015	0,003
-314,212	88,445	0,066	0,053
-313,197	199,139	0,073	0,082
-312,183	-11,311	0,093	-0,044
-311,168	122,406	-0,057	-0,051
-310,153	-200,000	-0,001	0,069
-309,139	-200,000	-0,016	0,059
-308,124	57,353	0,103	-0,073
-307,110	36,407	0,096	0,061
-306,095	172,766	-0,050	0,052
-305,080	100,286	-0,059	0,050
-304,066	16,024	-0,017	0,010
-303,051	313,438	-0,095	-0,129
-302,037	-67,175	0,158	-0,045
-301,022	800,000	0,039	0,109
-300,008	341,408	0,088	0,125
-298,993	-200,000	0,006	0,042
-297,978	147,519	-0,042	0,041
-296,964	800,000	-0,003	-0,009
-295,949	220,785	0,021	0,024
-294,935	32,920	-0,114	-0,071
-293,920	800,000	0,025	0,077
-292,905	516,153	-0,042	0,072
-291,891	285,087	0,051	-0,067
-290,876	-200,000	0,001	-0,036
-289,862	800,000	0,010	0,026
-288,847	-200,000	-0,009	-0,030
-287,832	-200,000	0,013	-0,111
-286,818	90,841	-0,062	-0,050
-285,803	-200,000	-0,008	0,072
-284,789	-127,713	0,027	0,003
-283,774	533,848	-0,044	-0,076
-282,759	167,638	0,020	-0,020
-281,745	249,095	0,089	-0,109
-280,730	-152,345	-0,101	0,005
-279,716	163,410	-0,107	0,109
-278,701	-97,571	0,067	-0,013
-277,686	-200,000	0,011	0,046
-276,672	190,569	0,052	0,057
-275,657	-113,028	-0,051	-0,007
-274,643	79,131	-0,050	-0,039
-273,628	479,023	-0,037	-0,061
-272,613	11,960	-0,115	0,064
-271,599	129,672	0,104	0,096
-270,584	345,505	-0,015	-0,022
-269,570	-200,000	0,025	0,087
-268,555	57,398	-0,015	-0,011
-267,540	-200,000	0,006	-0,075
-266,526	-63,311	-0,104	-0,031
-265,511	-200,000	0,003	0,079
-264,497	209,777	-0,035	-0,040
-263,482	800,000	-0,037	-0,116
-262,467	80,487	0,145	0,113
-261,453	-66,170	-0,141	0,040
-260,438	219,344	-0,080	0,093
-259,424	800,000	-0,014	0,036
-258,409	-24,032	0,045	-0,019
-257,395	-106,979	-0,044	-0,007
-256,380	-159,002	-0,120	0,005
-255,365	84,496	0,093	0,073
-254,351	39,120	0,030	0,019
-253,336	118,400	-0,042	0,038
-252,322	-109,195	-0,150	-0,023
-251,307	401,989	0,050	-0,076
-250,292	33,191	0,140	-0,087
-249,278	470,375	0,066	0,107
-248,263	596,132	-0,038	0,068
-247,249	7,222	-0,019	-0,010
-246,234	229,866	-0,030	0,036
-245,219	-200,000	0,011	-0,136
-244,205	304,510	0,022	0,030
-243,190	46,787	0,047	0,031
-242,176	-51,819	0,030	0,010
-241,161	229,191	-0,034	-0,040
-240,146	-200,000	-0,040	0,133
-239,132	-200,000	-0,008	-0,090
-238,117	-200,000	0,027	-0,125
-237,103	800,000	-0,055	-0,113
-236,088	11,278	-0,004	0,002
-235,073	-22,500	0,106	-0,046
-234,059	-106,851	0,067	-0,011
-233,044	-140,781	-0,068	0,005
-232,030	-129,597	0,050	0,005
-231,015	713,903	-0,028	-0,055
-230,000	-81,360	-0,089	0,021
-228,986	-129,515	0,141	-0,014
-227,971	184,085	0,068	0,072
-226,957	-200,000	-0,016	-0,119
-225,942	-200,000	-0,016	0,078
-224,927	800,000	0,047	0,112
-223,913	-74,387	0,051	-0,013
-222,898	55,712	-0,013	-0,009
-221,884	800,000	0,049	-0,104
-220,869	-200,000	-0,006	-0,113
-219,855	800,000	0,030	0,083
-218,840	800,000	-0,034	-0,087
-217,825	-92,761	0,048	0,010
-216,811	19,498	-0,082	0,048
-215,796	-2,953	-0,047	0,024
-214,782	438,968	-0,057	-0,090
-213,767	-200,000	0,017	0,147
-212,752	112,187	0,134	0,117
-211,738	23,183	-0,099	-0,059
-210,723	-32,620	0,066	0,026
-209,709	-81,975	-0,027	-0,006
-208,694	15,702	-0,114	-0,065
-207,679	126,805	0,058	-0,053
-206,665	-33,969	0,073	0,029
-205,650	44,030	0,021	0,014
-204,636	800,000	0,020	0,061
-203,621	-200,000	-0,036	0,152
-202,606	-29,497	-0,097	-0,040
-201,592	89,850	-0,052	0,042
-200,577	153,881	0,064	-0,063
-199,563	460,180	0,096	0,155
-198,548	-75,338	0,137	0,035
-197,533	160,975	0,077	-0,078
-196,519	-24,914	0,078	-0,033
-195,504	168,990	-0,031	-0,032
-194,490	-200,000	0,011	-0,070
-193,475	671,123	-0,031	0,058
-192,460	-62,005	-0,160	0,048
-191,446	29,191	0,104	-0,063
-190,431	23,869	0,062	0,037
-189,417	-200,000	-0,011	-0,054
-188,402	88,030	-0,129	0,103
-187,387	-200,000	0,016	0,068
-186,373	216,890	-0,028	-0,032
-185,358	639,624	0,050	-0,093
-184,344	-88,885	0,091	0,019
-183,329	-70,590	0,079	-0,021
-182,315	-119,053	-0,134	0,017
-181,300	-2,242	0,063	0,032
-180,285	-139,959	-0,036	0,003
-179,271	-200,000	-0,004	-0,160
-178,256	-200,000	0,032	0,120
-177,242	-200,000	-0,023	0,118
-176,227	-200,000	0,022	0,069
-175,212	800,000	-0,014	-0,043
-174,198	-95,611	-0,118	-0,023
-173,183	-119,247	-0,099	-0,012
-172,169	-200,000	0,010	-0,119
-171,154	-200,000	0,016	-0,078
-170,139	800,000	-0,028	-0,059
-169,125	800,000	-0,013	0,038
-168,110	-200,000	-0,002	-0,036
-167,096	800,000	-0,033	-0,094
-166,081	-191,170	-0,032	0,000
-165,066	-109,727	-0,077	0,012
-164,052	-41,893	-0,107	-0,040
-163,037	-200,000	-0,005	0,026
-162,023	-109,385	0,158	-0,024
-161,008	-80,024	0,218	0,052
-159,993	730,459	-0,044	0,085
-158,979	0,100	-0,100	0,051
-157,964	800,000	0,032	-0,068
-156,950	219,344	-0,021	-0,025
-155,935	-200,000	0,011	-0,066
-154,920	91,608	-0,038	0,031
-153,906	-79,216	0,091	-0,022
-152,891	657,776	-0,035	-0,065
-151,877	23,562	-0,073	-0,043
-150,862	-200,000	-0,015	0,000
-149,847	89,183	-0,103	-0,082
-148,833	-21,471	-0,107	0,047
-147,818	594,950	-0,017	0,031
-146,804	-200,000	0,010	0,041
-145,789	800,000	0,033	0,095
-144,775	-65,648	-0,032	0,009
-143,760	800,000	0,053	-0,142
-142,745	48,734	-0,021	-0,014
-141,731	520,745	0,060	0,102
-140,716	-50,993	-0,080	0,027
-139,702	-200,000	0,015	-0,059
-138,687	-200,000	0,002	0,079
-137,672	800,000	0,005	0,013
-136,658	264,288	-0,057	-0,072
-135,643	800,000	-0,009	-0,024
-134,629	-200,000	0,031	-0,106
-133,614	-127,538	0,140	-0,014
-132,599	70,127	-0,079	-0,058
-131,585	-35,292	0,101	-0,040
-130,570	-51,302	-0,176	-0,059
-129,556	194,712	-0,048	0,053
-128,541	-200,000	0,004	0,027
-127,526	-114,318	0,157	-0,021
-126,512	101,517	-0,057	0,047
-125,497	-63,439	-0,131	-0,038
-124,483	110,844	0,032	-0,028
-123,468	-131,043	-0,104	0,010
-122,453	763,686	-0,050	0,098
-121,439	267,481	-0,031	-0,039
-120,424	-139,313	0,037	0,003
-119,410	-50,521	0,068	-0,023
-118,395	-40,304	-0,053	-0,020
-117,380	-200,000	0,043	0,143
-116,366	84,711	0,148	0,117
-115,351	-200,000	-0,012	0,083
-114,337	800,000	-0,069	-0,171
-113,322	110,500	0,138	-0,119
-112,307	300,285	0,042	-0,056
-111,293	125,981	0,102	0,093
-110,278	800,000	-0,028	0,083
-109,264	46,886	-0,081	0,054
-108,249	800,000	-0,028	-0,056
-107,234	-200,000	0,016	-0,086
-106,220	29,284	-0,057	0,035
-105,205	-200,000	-0,006	0,163
-104,191	-17,263	-0,103	0,046
-103,176	138,619	0,153	0,144
-102,162	-200,000	0,002	-0,059
-101,147	-200,000	0,000	0,050
-100,132	711,678	0,045	0,085
-99,118	-200,000	-0,003	0,032
-98,103	-200,000	-0,007	-0,040
-97,089	404,194	0,109	0,165
-96,074	-200,000	0,002	0,130
-95,059	96,196	-0,026	0,021
-94,045	137,582	-0,078	0,074
-93,030	379,965	0,025	-0,037
-92,016	-124,908	-0,074	-0,008
-91,001	800,000	0,045	-0,104
-89,986	800,000	-0,015	-0,031
-88,972	231,426	-0,059	0,070
-87,957	-123,669	-0,031	-0,003
-86,943	157,776	-0,044	-0,043
-85,928	31,373	-0,107	-0,066
-84,913	-200,000	0,000	-0,127
-83,899	307,496	0,038	-0,051
-82,884	800,000	0,031	0,076
-81,870	800,000	0,040	-0,114
-80,855	246,129	-0,064	0,078
-79,840	333,856	-0,019	0,027
-78,826	-24,647	0,065	0,028
-77,811	-200,000	-0,009	0,035
-76,797	62,289	-0,009	-0,007
-75,782	18,559	0,072	0,041
-74,767	-124,033	0,138	-0,015
-73,753	382,230	-0,018	0,027
-72,738	800,000	0,012	0,034
-71,724	-200,000	-0,010	-0,138
-70,709	-149,594	0,060	0,003
-69,694	32,487	-0,063	0,039
-68,680	117,550	-0,099	0,087
-67,665	800,000	0,038	0,088
-66,651	-200,000	0,035	0,111
-65,636	-104,260	0,096	-0,016
-64,622	302,763	-0,035	0,047
-63,607	-182,776	-0,033	0,000
-62,592	168,790	0,042	0,043
-61,578	87,133	0,099	0,078
-60,563	128,040	0,169	0,154
-59,549	-88,149	-0,074	0,016
-58,534	-12,384	-2,041	-0,954
-57,519	800,000	-0,428	-0,894
-56,505	-200,000	-1,310	-4,851
-55,490	-36,312	0,844	0,325
-54,476	800,000	5,297	12,164
-53,461	-200,000	17,742	286,509
-52,446	800,000	728,552	2223,567
-51,432	536,601	1644,475	2812,940
-50,417	109,912	1634,978	1407,359
-49,403	75,789	1286,997	975,232
-48,388	31,918	1027,357	633,704
-47,373	20,104	989,261	571,253
-46,359	18,325	977,152	558,406
-45,344	15,506	972,868	546,717
-44,330	15,673	971,443	546,439
-43,315	15,207	969,661	543,893
-42,300	15,090	968,644	542,922
-41,286	15,091	967,561	542,295
-40,271	15,163	966,505	541,917
-39,257	15,133	965,576	541,275
-38,242	15,177	964,695	540,903
-37,227	15,165	964,024	540,467
-36,213	15,177	962,907	539,858
-35,198	15,132	962,156	539,271
-34,184	15,183	961,425	539,003
-33,169	15,090	960,612	538,225
-32,154	15,205	959,380	537,885
-31,140	15,141	958,685	537,269
-30,125	15,122	958,061	536,837
-29,111	15,129	957,126	536,315
-28,096	15,225	956,434	536,215
-27,082	15,120	955,793	535,495
-26,067	15,174	954,945	535,173
-25,052	15,157	954,275	534,721
-24,038	15,227	953,427	534,450
-23,023	15,203	952,781	533,988
-22,009	15,139	952,471	533,588
-20,994	15,176	951,570	533,182
-19,979	15,174	951,020	532,847
-18,965	15,183	950,329	532,466
-17,950	15,149	949,662	531,963
-16,936	15,107	949,026	531,451
-15,921	15,077	948,373	530,969
-14,906	15,053	947,796	530,548
-13,892	15,031	947,128	530,085
-12,877	15,042	946,291	529,630
-11,863	15,056	945,769	529,359
-10,848	15,018	945,549	529,095
-9,833	15,115	944,837	528,984
-8,819	15,127	944,296	528,698
-7,804	15,071	943,432	528,015
-6,790	15,040	943,117	527,721
-5,775	15,095	942,488	527,521
-4,760	15,134	941,632	527,144
-3,746	15,064	941,176	526,648
-2,731	14,903	940,498	525,739
-1,717	14,878	939,834	525,268
-0,702	14,923	939,111	524,985
0,313	14,662	938,645	524,692
1,327	18,013	936,406	533,947
2,342	27,178	793,412	476,667
3,356	23,904	458,579	270,481
4,371	-3,445	314,536	156,440
5,386	-7,471	296,186	143,226
6,400	-9,412	289,929	138,262
7,415	-9,808	287,548	136,725
8,429	-10,057	286,141	135,800
9,444	-10,016	285,123	135,345
10,459	-10,145	284,545	134,933
11,473	-10,271	284,217	134,643
12,488	-10,212	283,482	134,339
13,502	-10,047	283,082	134,299
14,517	-10,080	282,449	133,954
15,531	-10,184	282,122	133,687
16,546	-9,898	281,704	133,752
17,561	-10,147	281,349	133,332
18,575	-9,985	281,010	133,315
19,590	-10,105	280,485	132,939
20,604	-10,128	280,383	132,858
21,619	-10,152	279,982	132,633
22,634	-10,087	279,633	132,517
23,648	-10,103	279,334	132,348
24,663	-10,104	279,079	132,215
25,677	-10,031	278,765	132,124
26,692	-10,120	278,517	131,909
27,707	-10,128	278,199	131,740
28,721	-10,093	277,976	131,655
29,736	-10,293	277,770	131,357
30,750	-10,232	277,447	131,250
31,765	-10,151	277,286	131,239
32,780	-10,236	276,948	130,987
33,794	-10,151	276,645	130,913
34,809	-10,074	276,455	130,883
35,823	-10,244	276,281	130,629
36,838	-10,068	275,945	130,624
37,853	-10,337	275,664	130,227
38,867	-10,185	275,468	130,265
39,882	-10,014	275,012	130,198
40,896	-10,136	274,946	130,041
41,911	-10,245	274,840	129,877
42,926	-9,996	274,310	129,848
43,940	-10,092	274,118	129,656
44,955	-10,217	274,083	129,511
45,969	-10,314	273,730	129,242
46,984	-10,328	273,500	129,109
47,999	-10,427	273,149	128,839
49,013	-10,662	272,974	128,526
50,028	-10,938	272,794	128,173
51,042	-10,713	272,324	128,150
52,057	-11,037	272,127	127,745
53,071	-10,981	272,042	127,746
54,086	-10,743	271,889	127,883
55,101	-10,511	271,579	127,941
56,115	-10,313	271,411	128,033
57,130	-10,127	271,329	128,155
58,144	-10,059	271,095	128,096
59,159	-10,086	270,910	127,972
60,174	-10,044	270,730	127,914
61,188	-10,111	270,515	127,740
62,203	-10,104	270,340	127,652
63,217	-10,102	269,981	127,474
64,232	-9,988	269,934	127,544
65,247	-10,008	269,585	127,350
66,261	-10,184	269,345	127,063
67,276	-10,154	269,030	126,931
68,290	-10,408	268,737	126,549
69,305	-10,410	268,512	126,430
70,320	-10,481	268,441	126,321
71,334	-10,167	268,283	126,522
72,349	-9,981	267,949	126,523
73,363	-9,984	267,827	126,451
74,378	-10,069	267,579	126,246
75,393	-10,088	267,307	126,088
76,407	-10,136	267,148	125,959
77,422	-9,854	266,878	126,076
78,436	-10,061	266,673	125,780
79,451	-9,997	266,386	125,692
80,466	-9,979	266,151	125,586
81,480	-9,938	265,854	125,471
82,495	-10,303	265,827	125,118
83,509	-10,173	265,554	125,095
84,524	-10,258	265,348	124,911
85,539	-10,307	265,229	124,799
86,553	-10,320	264,951	124,645
87,568	-10,378	264,674	124,452
88,582	-10,299	264,574	124,465
89,597	-10,245	264,276	124,363
90,611	-10,330	264,173	124,226
91,626	-9,962	264,123	124,522
92,641	-10,111	263,773	124,212
93,655	-10,199	263,649	124,064
94,670	-10,185	263,462	123,977
95,684	-10,132	263,320	123,947
96,699	-10,225	262,882	123,647
97,714	-10,190	262,767	123,612
98,728	-10,177	262,524	123,499
99,743	-10,249	262,362	123,348
100,757	-10,540	262,264	123,032
101,772	-10,194	261,907	123,160
102,787	-10,089	261,711	123,151
103,801	-10,129	261,579	123,043
104,816	-10,221	261,380	122,856
105,830	-10,048	261,211	122,919
106,845	-10,118	261,099	122,793
107,860	-10,063	260,856	122,717
108,874	-10,042	260,583	122,596
109,889	-10,123	260,577	122,511
110,903	-10,003	260,169	122,413
111,918	-10,148	259,971	122,182
112,933	-10,190	259,911	122,106
113,947	-10,051	259,623	122,082
114,962	-10,116	259,547	121,978
115,976	-9,996	259,369	121,989
116,991	-10,240	259,073	121,625
118,006	-10,063	259,019	121,744
119,020	-10,144	258,865	121,590
120,035	-9,967	258,718	121,664
121,049	-10,194	258,468	121,338
122,064	-10,139	258,261	121,278
123,079	-10,157	258,087	121,170
124,093	-10,292	257,911	120,958
125,108	-10,348	257,788	120,841
126,122	-10,387	257,284	120,559
127,137	-10,519	257,150	120,371
128,151	-10,465	256,993	120,334
129,166	-10,347	256,771	120,322
130,181	-10,262	256,519	120,267
131,195	-10,421	256,481	120,101
132,210	-10,004	256,236	120,336
133,224	-10,136	256,109	120,151
134,239	-10,151	255,940	120,049
135,254	-10,124	255,783	119,988
136,268	-10,111	255,475	119,844
137,283	-10,497	255,037	119,295
138,297	-10,287	254,842	119,374
139,312	-10,628	254,815	119,056
140,327	-10,078	254,636	119,436
141,341	-9,981	254,643	119,512
142,356	-10,092	254,364	119,275
143,370	-10,053	254,297	119,266
144,385	-9,935	254,052	119,242
145,400	-9,855	253,883	119,222
146,414	-9,902	253,681	119,075
147,429	-9,936	253,600	118,997
148,443	-9,989	253,330	118,815
149,458	-9,695	253,189	118,990
150,473	-9,884	252,974	118,716
151,487	-9,887	252,781	118,613
152,502	-10,001	252,584	118,413
153,516	-9,977	252,448	118,359
154,531	-9,808	252,276	118,411
155,546	-9,937	252,114	118,216
156,560	-9,954	251,875	118,078
157,575	-9,885	251,672	118,031
158,589	-9,909	251,405	117,875
159,604	-9,973	251,195	117,711
160,619	-10,042	251,184	117,637
161,633	-10,090	250,849	117,429
162,648	-10,110	250,879	117,416
163,662	-9,943	250,606	117,419
164,677	-10,040	250,528	117,290
165,692	-9,982	250,510	117,320
166,706	-9,806	250,144	117,287
167,721	-9,826	249,877	117,135
168,735	-9,898	249,896	117,073
169,750	-10,178	249,713	116,741
170,764	-9,682	249,506	117,050
171,779	-9,792	249,339	116,869
172,794	-9,756	249,250	116,847
173,808	-9,991	249,034	116,539
174,823	-10,413	248,893	116,108
175,837	-10,391	248,435	115,902
176,852	-10,017	248,297	116,140
177,867	-9,753	248,250	116,329
178,881	-9,825	248,240	116,254
179,896	-9,885	247,939	116,052
180,910	-9,930	247,860	115,967
181,925	-9,789	247,649	115,976
182,940	-9,842	247,527	115,864
183,954	-9,819	247,273	115,754
184,969	-9,931	247,125	115,582
185,983	-9,755	246,935	115,628
186,998	-9,955	246,870	115,421
188,013	-9,919	246,553	115,293
189,027	-9,757	246,356	115,325
190,042	-9,738	246,319	115,313
191,056	-9,890	246,017	115,035
192,071	-9,742	245,830	115,061
193,086	-9,900	245,769	114,891
194,100	-9,751	245,526	114,890
195,115	-9,622	245,310	114,886
196,129	-9,491	245,211	114,937
197,144	-9,719	244,992	114,636
198,159	-9,740	244,764	114,502
199,173	-9,768	244,616	114,399
200,188	-9,804	244,407	114,262
201,202	-10,062	244,199	113,942
202,217	-10,243	243,779	113,588
203,232	-10,239	243,682	113,535
204,246	-9,840	243,598	113,813
205,261	-9,695	243,546	113,897
206,275	-10,517	243,323	113,110
207,290	-6,982	244,765	116,679
208,304	-0,079	246,855	123,377
209,319	3,298	247,845	126,659
210,334	3,754	247,743	126,972
211,348	3,893	247,637	127,022
212,363	4,318	247,461	127,270
213,377	4,270	247,450	127,214
214,392	4,405	247,209	127,190
215,407	4,156	246,918	126,824
216,421	4,049	246,795	126,662
217,436	4,244	246,790	126,808
218,450	4,324	246,479	126,702
219,465	3,958	246,289	126,293
220,480	3,776	246,209	126,091
221,494	3,720	246,064	125,961
222,509	3,709	245,821	125,815
223,523	3,729	245,689	125,753
224,538	3,475	245,277	125,323
225,553	3,476	245,333	125,341
226,567	3,775	244,982	125,395
227,582	3,778	245,007	125,399
228,596	3,931	244,741	125,376
229,611	3,415	244,627	124,887
230,626	3,537	244,182	124,747
231,640	3,695	244,305	124,928
232,655	3,740	244,092	124,844
233,669	3,483	243,978	124,565
234,684	3,573	243,681	124,476
235,699	3,685	243,868	124,652
236,713	3,913	243,604	124,691
237,728	3,760	243,168	124,333
238,742	3,559	243,005	124,075
239,757	3,720	242,871	124,126
240,772	3,781	242,653	124,052
241,786	3,444	242,730	123,809
242,801	3,521	242,419	123,701
243,815	3,304	242,292	123,451
244,830	3,541	242,252	123,610
245,844	3,744	242,194	123,733
246,859	3,471	241,888	123,346
247,874	3,287	241,672	123,077
248,888	3,771	241,530	123,382
249,903	3,685	241,497	123,286
250,917	3,801	241,379	123,307
251,932	3,843	241,196	123,236
252,947	3,762	240,943	123,031
253,961	3,578	240,726	122,763
254,976	3,559	240,682	122,714
255,990	3,806	240,610	122,864
257,005	3,546	240,290	122,482
258,020	3,425	240,003	122,228
259,034	3,403	239,995	122,196
260,049	3,618	239,936	122,326
261,063	3,609	239,669	122,172
262,078	3,431	239,600	121,984
263,093	3,691	239,405	122,081
264,107	3,807	239,178	122,046
265,122	3,649	239,198	121,920
266,136	3,834	239,050	121,980
267,151	3,843	238,942	121,922
268,166	3,664	238,749	121,670
269,180	3,428	238,454	121,323
270,195	3,961	238,631	121,824
271,209	4,170	238,306	121,812
272,224	3,659	238,053	121,268
273,239	3,151	237,828	120,742
274,253	3,409	237,661	120,850
275,268	3,632	237,552	120,959
276,282	3,668	237,405	120,902
277,297	3,560	237,171	120,687
278,312	3,379	237,136	120,516
279,326	3,735	237,031	120,732
280,341	3,486	237,005	120,513
281,355	3,617	236,770	120,485
282,370	3,825	236,617	120,560
283,384	3,684	236,325	120,290
284,399	3,379	236,155	119,954
285,414	3,375	236,085	119,904
286,428	3,294	236,005	119,790
287,443	3,718	235,736	119,974
288,457	3,805	235,562	119,942
289,472	3,756	235,577	119,901
290,487	3,561	235,356	119,626
291,501	3,709	235,043	119,571
292,516	3,381	234,844	119,205
293,530	3,305	234,692	119,057
294,545	3,491	234,790	119,241
295,560	3,656	234,685	119,305
296,574	3,563	234,280	119,017
297,589	3,566	234,215	118,975
298,603	3,856	234,157	119,160
299,618	3,860	233,918	119,031
300,633	3,629	233,941	118,853
301,647	3,836	233,758	118,909
302,662	4,246	233,634	119,153
303,676	4,076	233,556	118,971
304,691	4,074	233,242	118,799
305,706	3,972	233,290	118,734
306,720	3,935	233,173	118,635
307,735	3,799	233,003	118,433
308,749	3,812	232,648	118,252
309,764	3,728	232,335	118,019
310,779	3,523	232,258	117,811
311,793	3,236	232,109	117,505
312,808	3,328	231,981	117,500
313,822	3,403	231,775	117,442
314,837	3,526	231,658	117,467
315,852	3,378	231,508	117,268
316,866	3,615	231,486	117,427
317,881	3,814	231,391	117,521
318,895	4,030	231,362	117,661
319,910	3,953	231,122	117,469
320,925	3,676	230,806	117,087
321,939	3,285	230,701	116,725
322,954	3,616	230,465	116,848
323,968	3,419	230,439	116,674
324,983	3,747	230,340	116,863
325,997	3,881	230,242	116,905
327,012	3,573	230,069	116,572
328,027	3,439	229,725	116,286
329,041	3,518	229,643	116,294
330,056	3,996	229,808	116,730
331,070	4,503	229,752	117,076
332,085	3,990	229,454	116,525
333,100	3,853	229,103	116,233
334,114	3,823	229,090	116,193
335,129	4,012	228,858	116,208
336,143	4,260	228,729	116,319
337,158	4,182	228,480	116,123
338,173	3,913	228,401	115,870
339,187	3,580	228,228	115,521
340,202	3,934	228,268	115,798
341,216	3,867	228,035	115,619
342,231	3,582	227,912	115,332
343,246	3,812	227,657	115,365
344,260	4,051	227,468	115,438
345,275	4,029	227,697	115,528
346,289	4,231	227,406	115,521
347,304	4,043	227,317	115,325
348,319	4,107	227,110	115,257
349,333	3,760	226,963	114,913
350,348	3,874	226,577	114,792
351,362	3,865	226,588	114,781
352,377	3,611	226,393	114,482
353,392	3,458	226,162	114,241
354,406	3,491	226,052	114,201
355,421	193,968	1323,517	1395,434
356,435	155,408	1457,213	1395,419
