DTS Sentinel unit serial number:	SN410029Multiplexer serial number:	ORYXHardware model number:	OX2-SRSoftware version number:	ORYX F/W v4,00 Oryx Data Collector v3.7.2.0data status	okinstallation	B5 Nyhavnadifferential loss correction	single-endedforward channel	channel 2reverse channel	N/Adate	2023/12/14time	01:52:13forward acquisition time	300,00reverse acquisition time	0,00gamma	499,1914k internal	0,3155k external	0,3155temperature offset calibration	1,0000default loss term (dB/km)	0,3820temperature slope calibration	1,0000multiplexer offset coefficient	1,0000multiplexer slope coefficient	1,0000fibre end	0,00T internal ref (°C)	8,67T ext. ref 1 (°C)	-7,48T ext. ref 2 (°C)	-7,51length (m)	temperature (°C)	Stokes	anti-Stokes-744,400	65,671	0,182	0,136
-743,385	-17,878	-0,456	-0,210
-742,371	-67,660	0,261	0,075
-741,356	35,475	-0,296	-0,191
-740,342	-144,313	0,229	-0,016
-739,327	-188,994	-0,389	-0,003
-738,312	-106,048	0,238	0,039
-737,298	-116,052	-0,322	-0,044
-736,283	-200,000	0,028	0,127
-735,269	-145,997	-0,331	-0,021
-734,254	33,577	0,124	0,079
-733,239	-69,171	-0,509	-0,143
-732,225	227,357	0,132	0,159
-731,210	800,000	-0,048	0,137
-730,196	800,000	-0,014	-0,032
-729,181	-126,130	-0,072	0,008
-728,167	100,116	-0,079	-0,067
-727,152	-50,299	0,051	-0,018
-726,137	800,000	-0,043	-0,121
-725,123	131,868	0,023	-0,021
-724,108	660,680	-0,064	0,121
-723,094	360,930	0,041	-0,061
-722,079	800,000	-0,050	0,157
-721,064	-82,367	-0,151	0,036
-720,050	-156,920	0,020	0,001
-719,035	-200,000	-0,001	-0,070
-718,021	371,280	-0,090	-0,135
-717,006	382,747	-0,085	-0,129
-715,991	244,028	-0,058	-0,072
-714,977	-96,161	-0,121	0,023
-713,962	-80,512	0,040	-0,010
-712,948	269,123	0,116	0,150
-711,933	52,143	0,068	0,048
-710,918	-68,470	-0,067	0,019
-709,904	667,217	-0,069	-0,132
-708,889	37,903	-0,065	-0,042
-707,875	-200,000	0,012	0,057
-706,860	16,407	-0,034	-0,020
-705,845	706,460	-0,014	-0,028
-704,831	-200,000	-0,006	0,081
-703,816	64,291	0,042	0,031
-702,802	177,579	-0,033	-0,035
-701,787	800,000	-0,005	0,015
-700,772	800,000	-0,024	-0,076
-699,758	-134,943	0,077	0,007
-698,743	165,825	0,110	0,115
-697,729	-200,000	-0,009	0,065
-696,714	515,158	0,016	0,027
-695,699	103,747	-0,075	-0,065
-694,685	72,404	-0,045	-0,035
-693,670	540,789	-0,051	0,090
-692,656	-200,000	0,006	-0,113
-691,641	-200,000	0,041	-0,135
-690,627	185,313	0,040	0,044
-689,612	800,000	-0,017	0,034
-688,597	164,187	0,038	-0,039
-687,583	-200,000	-0,165	0,000
-686,568	483,405	-0,013	-0,021
-685,554	251,318	-0,054	-0,068
-684,539	-57,875	0,065	-0,021
-683,524	-58,111	0,067	-0,021
-682,510	44,306	-0,122	0,082
-681,495	-132,941	0,063	-0,006
-680,481	155,936	-0,048	-0,048
-679,466	176,387	0,096	0,102
-678,451	109,162	-0,075	-0,066
-677,437	-49,884	0,169	0,059
-676,422	5,221	-0,056	0,030
-675,408	430,661	0,049	-0,078
-674,393	114,926	-0,055	0,050
-673,378	-24,529	-0,074	0,032
-672,364	115,365	-0,059	0,053
-671,349	54,576	-0,073	-0,052
-670,335	-85,863	-0,148	0,033
-669,320	-95,950	-0,137	0,027
-668,305	800,000	-0,039	-0,123
-667,291	452,769	-0,057	0,092
-666,276	-134,613	0,061	-0,005
-665,262	-16,971	0,060	-0,028
-664,247	0,453	-0,090	-0,047
-663,232	-131,605	-0,067	0,006
-662,218	311,377	-0,092	-0,127
-661,203	-16,128	0,046	0,021
-660,189	-200,000	0,006	-0,238
-659,174	-200,000	0,036	-0,164
-658,159	-200,000	0,004	0,045
-657,145	51,679	-0,058	-0,041
-656,130	61,540	0,134	-0,098
-655,116	179,079	0,020	-0,021
-654,101	137,967	-0,038	0,036
-653,086	156,147	-0,072	0,073
-652,072	-200,000	0,005	-0,096
-651,057	-119,190	-0,182	-0,023
-650,043	667,760	0,042	-0,081
-649,028	-141,150	-0,056	0,004
-648,014	51,062	0,145	-0,101
-646,999	-200,000	0,001	-0,013
-645,984	497,781	0,068	0,116
-644,970	-153,865	-0,102	-0,005
-643,955	-200,000	-0,025	-0,129
-642,941	244,014	-0,074	-0,092
-641,926	-44,138	-0,042	0,015
-640,911	247,105	0,076	-0,094
-639,897	16,401	-0,033	0,019
-638,882	-9,251	-0,133	-0,065
-637,868	-200,000	0,007	-0,105
-636,853	-200,000	-0,028	-0,108
-635,838	96,046	-0,042	-0,036
-634,824	-200,000	-0,018	-0,077
-633,809	-200,000	0,010	0,163
-632,795	54,583	0,107	-0,075
-631,780	14,068	-0,039	0,022
-630,765	-200,000	-0,008	0,068
-629,751	-30,476	-0,060	0,025
-628,736	800,000	-0,016	-0,036
-627,722	248,536	-0,079	0,099
-626,707	-200,000	0,004	0,016
-625,692	554,338	0,064	0,113
-624,678	-63,936	-0,076	0,023
-623,663	221,346	0,082	-0,096
-622,649	538,612	0,067	-0,118
-621,634	14,193	-0,123	-0,070
-620,619	-131,387	0,030	0,003
-619,605	280,347	-0,084	0,110
-618,590	96,428	0,058	0,048
-617,576	-200,000	-0,019	-0,110
-616,561	117,848	-0,044	-0,039
-615,546	-85,018	0,147	0,034
-614,532	-110,388	-0,078	0,012
-613,517	21,932	-0,078	-0,047
-612,503	-200,000	-0,011	-0,057
-611,488	71,935	0,100	0,076
-610,474	86,239	-0,070	0,056
-609,459	262,158	-0,021	0,027
-608,444	-102,095	-0,057	0,010
-607,430	304,604	-0,037	0,050
-606,415	42,000	-0,033	0,022
-605,401	-92,691	0,143	0,029
-604,386	-200,000	-0,020	0,077
-603,371	-200,000	0,012	-0,040
-602,357	-200,000	0,011	0,093
-601,342	-200,000	-0,002	0,031
-600,328	247,908	-0,048	0,059
-599,313	800,000	0,054	-0,143
-598,298	-28,543	-0,043	-0,018
-597,284	-200,000	0,014	0,054
-596,269	-47,415	-0,170	-0,060
-595,255	47,181	0,024	0,016
-594,240	94,432	0,120	-0,100
-593,225	419,208	-0,101	-0,159
-592,211	-57,827	0,024	0,008
-591,196	32,871	-0,022	0,014
-590,182	-98,575	0,063	0,012
-589,167	17,267	-0,208	-0,121
-588,152	800,000	-0,013	0,037
-587,138	29,391	-0,025	0,016
-586,123	-167,623	-0,018	-0,001
-585,109	-200,000	-0,002	-0,110
-584,094	-200,000	-0,004	0,026
-583,079	88,676	0,090	0,074
-582,065	-200,000	0,000	-0,122
-581,050	-85,270	0,076	0,017
-580,036	-138,512	-0,063	0,005
-579,021	193,402	-0,015	-0,017
-578,006	-172,893	0,108	0,002
-576,992	105,050	-0,100	-0,087
-575,977	-7,898	0,103	-0,051
-574,963	800,000	0,019	-0,058
-573,948	-99,099	0,072	0,013
-572,934	-200,000	-0,005	-0,118
-571,919	-155,423	0,045	0,002
-570,904	-200,000	-0,001	-0,045
-569,890	63,221	0,053	0,039
-568,875	-137,635	-0,198	0,016
-567,861	152,748	-0,018	-0,018
-566,846	-200,000	0,011	0,148
-565,831	800,000	-0,016	-0,036
-564,817	-95,614	0,138	0,027
-563,802	198,874	0,034	-0,038
-562,788	387,801	0,033	0,051
-561,773	441,781	-0,068	-0,110
-560,758	-200,000	0,020	0,151
-559,744	540,594	-0,025	-0,044
-558,729	-200,000	0,036	0,116
-557,715	800,000	-0,023	0,072
-556,700	16,851	0,075	0,043
-555,685	65,542	-0,045	-0,033
-554,671	-200,000	0,004	0,044
-553,656	-177,107	0,068	0,001
-552,642	126,865	0,057	0,053
-551,627	141,230	-0,105	-0,102
-550,612	-85,575	0,053	0,012
-549,598	800,000	-0,028	-0,082
-548,583	215,881	0,098	-0,114
-547,569	285,008	0,061	-0,080
-546,554	-74,644	0,095	0,025
-545,539	-67,125	-0,045	0,013
-544,525	75,482	-0,070	-0,054
-543,510	124,614	-0,148	-0,137
-542,496	14,286	-0,104	0,059
-541,481	-200,000	0,022	-0,134
-540,466	-200,000	-0,006	0,035
-539,452	186,302	-0,073	0,079
-538,437	598,330	-0,057	0,104
-537,423	-68,827	-0,095	-0,027
-536,408	126,620	0,042	-0,039
-535,393	-99,871	0,111	-0,020
-534,379	-76,533	-0,079	0,020
-533,364	-142,934	-0,030	-0,002
-532,350	39,051	0,093	-0,061
-531,335	-89,810	-0,056	-0,012
-530,321	233,880	-0,052	0,063
-529,306	465,448	0,031	-0,051
-528,291	-93,782	-0,139	0,028
-527,277	-200,000	0,010	-0,175
-526,262	-72,402	-0,068	-0,018
-525,248	-97,319	0,043	0,008
-524,233	16,418	0,055	-0,032
-523,218	-124,120	-0,046	0,005
-522,204	457,725	-0,073	0,119
-521,189	800,000	-0,031	-0,080
-520,175	16,271	0,143	-0,082
-519,160	-200,000	0,025	-0,113
-518,145	-29,241	-0,031	0,013
-517,131	14,982	0,086	0,049
-516,116	800,000	-0,060	0,148
-515,102	-200,000	0,009	-0,059
-514,087	158,735	-0,129	-0,131
-513,072	-200,000	-0,034	-0,112
-512,058	800,000	-0,022	-0,057
-511,043	514,103	-0,040	0,069
-510,029	800,000	0,037	0,092
-509,014	-200,000	-0,033	0,194
-507,999	416,681	-0,056	0,087
-506,985	-200,000	-0,022	0,135
-505,970	-145,792	-0,042	-0,003
-504,956	346,258	-0,038	-0,054
-503,941	-49,977	-0,054	-0,019
-502,926	47,147	0,073	-0,049
-501,912	-200,000	-0,002	-0,050
-500,897	-200,000	-0,012	0,084
-499,883	-159,787	-0,151	-0,006
-498,868	340,566	-0,104	-0,149
-497,853	-200,000	-0,025	-0,162
-496,839	57,870	-0,094	-0,067
-495,824	347,135	-0,010	0,014
-494,810	-200,000	-0,004	0,015
-493,795	-97,993	-0,138	0,026
-492,781	303,387	-0,103	0,139
-491,766	3,033	-0,064	-0,034
-490,751	-73,554	-0,152	0,040
-489,737	-200,000	-0,003	-0,086
-488,722	621,445	-0,035	0,065
-487,708	111,898	-0,026	-0,023
-486,693	-200,000	0,044	0,147
-485,678	60,943	0,069	0,050
-484,664	-85,635	-0,125	0,028
-483,649	-200,000	0,037	0,125
-482,635	246,763	0,031	0,038
-481,620	-136,467	0,142	-0,012
-480,605	-47,264	0,122	-0,043
-479,591	-40,995	-0,166	0,062
-478,576	163,772	-0,028	-0,028
-477,562	5,058	-0,015	-0,008
-476,547	-13,479	0,071	-0,034
-475,532	-82,883	0,020	-0,005
-474,518	150,567	0,020	0,020
-473,503	-98,926	0,147	0,027
-472,489	-95,792	0,169	0,033
-471,474	176,826	0,093	-0,099
-470,459	242,984	-0,049	-0,061
-469,445	-200,000	-0,011	-0,041
-468,430	-135,475	0,030	-0,003
-467,416	-200,000	0,014	0,070
-466,401	286,278	-0,043	-0,057
-465,386	41,894	-0,107	0,070
-464,372	356,657	0,062	0,091
-463,357	234,448	0,067	0,081
-462,343	-200,000	-0,033	-0,124
-461,328	-65,824	0,073	0,021
-460,313	102,326	-0,078	0,067
-459,299	119,500	0,049	-0,044
-458,284	-43,241	-0,122	0,045
-457,270	-100,654	-0,126	0,022
-456,255	-200,000	-0,006	0,028
-455,241	78,513	-0,027	-0,021
-454,226	-161,659	-0,087	0,003
-453,211	800,000	0,034	0,109
-452,197	503,314	0,048	0,082
-451,182	151,567	0,075	0,075
-450,168	172,901	0,031	-0,033
-449,153	137,139	0,060	-0,057
-448,138	-200,000	-0,033	0,122
-447,124	346,794	-0,049	0,070
-446,109	800,000	0,073	-0,187
-445,095	800,000	-0,010	-0,027
-444,080	140,976	0,032	0,031
-443,065	128,810	0,013	-0,012
-442,051	-75,012	-0,126	-0,033
-441,036	-200,000	0,013	0,061
-440,022	63,435	-0,122	-0,089
-439,007	800,000	-0,021	0,050
-437,992	170,066	-0,057	0,059
-436,978	82,035	0,120	0,095
-435,963	509,805	-0,048	-0,081
-434,949	326,764	0,043	-0,061
-433,934	176,361	0,046	-0,049
-432,919	3,399	0,095	0,051
-431,905	26,641	-0,086	-0,052
-430,890	-200,000	-0,019	-0,099
-429,876	-133,424	0,139	-0,013
-428,861	388,873	0,025	0,038
-427,846	19,132	0,056	0,033
-426,832	117,478	-0,089	-0,080
-425,817	-200,000	0,009	-0,069
-424,803	800,000	-0,023	0,056
-423,788	-200,000	0,005	0,079
-422,773	240,189	0,081	0,098
-421,759	-200,000	0,010	0,043
-420,744	-123,583	0,072	0,008
-419,730	51,810	0,066	0,046
-418,715	800,000	0,057	0,147
-417,701	-11,466	-0,118	-0,056
-416,686	-52,385	-0,078	0,026
-415,671	-200,000	0,036	0,145
-414,657	-36,380	-0,097	-0,038
-413,642	800,000	0,015	0,040
-412,628	328,821	-0,022	-0,030
-411,613	-1,526	-0,047	0,024
-410,598	-26,128	0,069	-0,029
-409,584	243,849	0,065	0,080
-408,569	800,000	0,046	-0,119
-407,555	355,137	0,079	0,114
-406,540	31,108	-0,063	0,039
-405,525	-113,539	0,067	0,009
-404,511	800,000	-0,013	0,041
-403,496	800,000	0,012	-0,032
-402,482	-166,736	0,066	-0,002
-401,467	61,390	-0,192	0,139
-400,452	-200,000	-0,013	0,176
-399,438	-35,445	0,064	0,025
-398,423	-17,230	-0,076	0,035
-397,409	33,616	-0,076	0,048
-396,394	-19,714	-0,079	-0,035
-395,379	356,483	0,047	-0,069
-394,365	59,799	0,016	-0,011
-393,350	-200,000	-0,012	-0,067
-392,336	36,188	-0,073	0,047
-391,321	18,622	-0,035	0,020
-390,306	800,000	0,038	-0,110
-389,292	-200,000	0,002	-0,026
-388,277	297,538	0,036	-0,048
-387,263	-200,000	-0,005	0,207
-386,248	-12,017	-0,117	-0,056
-385,233	800,000	0,049	-0,107
-384,219	139,798	-0,025	0,024
-383,204	-200,000	-0,019	-0,167
-382,190	87,163	-0,006	0,005
-381,175	220,808	0,112	-0,130
-380,160	39,161	0,152	0,099
-379,146	800,000	-0,041	0,110
-378,131	21,527	0,132	0,078
-377,117	-200,000	-0,022	0,148
-376,102	633,448	-0,075	-0,138
-375,088	-144,661	-0,077	0,005
-374,073	98,598	-0,142	0,119
-373,058	-3,272	0,189	0,095
-372,044	24,845	0,114	-0,068
-371,029	-200,000	0,024	0,101
-370,015	184,467	0,054	-0,058
-369,000	800,000	-0,019	0,047
-367,985	-18,992	-0,177	0,080
-366,971	-101,431	0,033	0,006
-365,956	-42,503	0,116	0,043
-364,942	-200,000	0,020	0,082
-363,927	90,541	0,109	0,089
-362,912	-200,000	0,003	0,117
-361,898	43,767	-0,100	-0,066
-360,883	-200,000	0,004	-0,024
-359,869	-61,568	-0,084	-0,025
-358,854	-179,671	0,248	0,004
-357,839	-200,000	0,003	0,155
-356,825	-144,657	0,017	-0,001
-355,810	607,706	-0,072	0,130
-354,796	680,448	-0,065	-0,123
-353,781	800,000	0,048	-0,103
-352,766	187,815	0,134	0,146
-351,752	-61,082	0,124	0,038
-350,737	583,343	0,022	0,040
-349,723	-69,578	-0,101	0,028
-348,708	227,068	0,075	0,088
-347,693	-200,000	-0,001	-0,189
-346,679	336,765	-0,005	0,007
-345,664	-200,000	0,000	0,045
-344,650	13,301	0,057	-0,032
-343,635	-19,005	0,193	0,087
-342,620	97,719	-0,097	0,081
-341,606	-15,442	0,038	-0,018
-340,591	-198,790	0,176	0,001
-339,577	-200,000	0,015	-0,181
-338,562	-200,000	0,001	0,021
-337,548	378,337	0,042	0,063
-336,533	43,433	-0,050	0,033
-335,518	-200,000	-0,002	0,111
-334,504	34,740	0,044	-0,028
-333,489	-113,124	-0,121	0,017
-332,475	202,317	-0,098	-0,109
-331,460	-200,000	0,002	-0,035
-330,445	-200,000	0,001	0,073
-329,431	365,648	0,028	-0,041
-328,416	681,174	0,049	0,093
-327,402	800,000	0,039	-0,112
-326,387	7,757	0,116	0,063
-325,372	8,897	0,051	-0,028
-324,358	161,468	-0,101	-0,103
-323,343	-36,991	0,063	-0,025
-322,329	-200,000	-0,013	-0,126
-321,314	-58,185	0,142	-0,045
-320,299	148,174	0,062	0,061
-319,285	96,132	-0,057	-0,047
-318,270	-163,633	-0,053	0,002
-317,256	324,936	0,039	-0,054
-316,241	436,625	-0,042	-0,066
-315,226	126,345	0,064	-0,059
-314,212	-165,777	0,193	-0,006
-313,197	-200,000	-0,015	0,115
-312,183	427,970	-0,028	0,045
-311,168	-14,370	-0,122	-0,057
-310,153	-53,479	0,031	-0,010
-309,139	-37,764	0,039	-0,015
-308,124	800,000	-0,031	-0,083
-307,110	48,436	-0,062	0,042
-306,095	439,801	-0,053	0,084
-305,080	-23,896	-0,087	0,038
-304,066	800,000	0,018	0,046
-303,051	-200,000	0,014	-0,090
-302,037	-51,574	-0,097	0,033
-301,022	268,895	0,078	-0,099
-300,008	-200,000	-0,001	0,051
-298,993	106,104	0,048	-0,041
-297,978	800,000	0,006	0,019
-296,964	-55,356	0,023	0,007
-295,949	-92,643	-0,084	-0,017
-294,935	278,095	-0,018	0,024
-293,920	-14,124	-0,113	-0,053
-292,905	104,282	-0,063	0,054
-291,891	-69,761	0,081	-0,022
-290,876	-0,335	0,172	-0,089
-289,862	-200,000	0,018	-0,095
-288,847	174,571	-0,102	-0,107
-287,832	800,000	-0,009	-0,024
-286,818	-200,000	0,001	0,064
-285,803	-25,000	0,101	0,043
-284,789	412,915	0,090	0,139
-283,774	-15,273	-0,016	0,008
-282,759	-63,111	-0,131	0,039
-281,745	129,886	0,164	-0,152
-280,730	550,729	-0,062	-0,109
-279,716	-65,602	-0,066	-0,019
-278,701	454,443	0,001	0,002
-277,686	199,013	0,045	-0,051
-276,672	800,000	0,026	0,064
-275,657	-200,000	0,051	-0,170
-274,643	800,000	0,014	0,032
-273,628	40,987	0,041	0,026
-272,613	800,000	-0,070	-0,169
-271,599	249,348	0,052	-0,065
-270,584	-92,605	0,097	0,020
-269,570	69,512	0,106	0,079
-268,555	-200,000	-0,002	-0,027
-267,540	75,920	-0,183	-0,140
-266,526	-200,000	-0,036	-0,124
-265,511	65,114	0,068	-0,050
-264,497	5,822	0,058	-0,031
-263,482	-200,000	-0,002	0,112
-262,467	450,820	0,019	-0,030
-261,453	-97,638	0,049	-0,009
-260,438	302,901	-0,114	0,153
-259,424	-35,069	-0,084	0,033
-258,409	-95,719	0,069	-0,013
-257,395	2,778	-0,042	0,022
-256,380	46,911	0,055	0,037
-255,365	800,000	0,007	-0,017
-254,351	-200,000	-0,008	0,038
-253,336	62,327	-0,028	0,020
-252,322	659,942	-0,071	-0,133
-251,307	-31,483	0,120	0,048
-250,292	-33,470	0,025	0,010
-249,278	800,000	0,040	0,114
-248,263	680,197	0,052	0,099
-247,249	224,505	0,063	-0,074
-246,234	369,441	-0,069	-0,101
-245,219	94,347	-0,030	0,024
-244,205	-200,000	0,000	-0,045
-243,190	498,613	-0,051	0,085
-242,176	-166,370	0,066	-0,002
-241,161	275,226	0,093	0,119
-240,146	-200,000	0,001	-0,021
-239,132	19,443	-0,056	0,032
-238,117	800,000	0,037	-0,078
-237,103	-77,102	0,118	0,030
-236,088	-57,133	-0,121	0,038
-235,073	-200,000	0,033	0,136
-234,059	-66,810	0,120	-0,034
-233,044	55,315	-0,066	0,046
-232,030	800,000	0,021	-0,056
-231,015	166,899	-0,053	-0,055
-230,000	-84,696	-0,151	0,034
-228,986	-146,264	-0,152	-0,009
-227,971	614,848	-0,047	-0,086
-226,957	800,000	-0,024	0,059
-225,942	-200,000	-0,001	0,066
-224,927	-169,067	-0,044	-0,001
-223,913	-53,182	-0,208	-0,069
-222,898	604,807	-0,034	-0,061
-221,884	-200,000	0,013	-0,094
-220,869	-116,816	0,067	0,009
-219,855	-200,000	-0,001	0,085
-218,840	243,920	-0,087	0,105
-217,825	-127,709	0,064	-0,007
-216,811	-136,816	0,039	-0,003
-215,796	176,851	0,093	0,098
-214,782	54,286	0,135	-0,093
-213,767	98,884	-0,048	-0,040
-212,752	-200,000	0,039	0,246
-211,738	54,229	-0,128	-0,089
-210,723	-75,026	0,065	0,017
-209,709	-166,955	-0,070	0,002
-208,694	-200,000	-0,011	-0,145
-207,679	-200,000	-0,004	-0,084
-206,665	-35,971	-0,021	0,008
-205,650	-85,189	0,088	-0,020
-204,636	417,498	0,051	0,078
-203,621	-41,125	-0,197	0,073
-202,606	132,994	0,058	-0,055
-201,592	-171,056	-0,116	0,003
-200,577	-44,404	-0,062	0,022
-199,563	-200,000	0,005	0,094
-198,548	19,756	0,136	-0,079
-197,533	166,939	0,085	-0,087
-196,519	48,285	0,077	0,052
-195,504	800,000	0,032	-0,078
-194,490	-200,000	0,017	-0,138
-193,475	1,298	0,028	0,015
-192,460	-200,000	-0,002	-0,109
-191,446	-103,774	0,166	0,028
-190,431	800,000	0,041	0,127
-189,417	800,000	-0,070	-0,144
-188,402	-200,000	0,002	0,011
-187,387	-200,000	-0,031	-0,179
-186,373	208,365	-0,050	-0,056
-185,358	-200,000	0,016	-0,127
-184,344	-63,080	0,122	-0,036
-183,329	800,000	0,006	-0,018
-182,315	143,287	0,049	0,047
-181,300	20,182	0,121	0,070
-180,285	-5,737	-0,088	0,043
-179,271	-200,000	0,034	0,126
-178,256	-110,987	-0,096	0,014
-177,242	-6,946	0,047	0,023
-176,227	-200,000	0,007	0,024
-175,212	-200,000	0,021	0,078
-174,198	228,425	-0,086	-0,102
-173,183	179,214	-0,037	0,039
-172,169	800,000	-0,022	0,047
-171,154	-200,000	0,005	-0,097
-170,139	362,527	0,086	0,126
-169,125	-200,000	-0,014	0,106
-168,110	26,827	0,056	0,034
-167,096	544,020	0,014	-0,024
-166,081	-200,000	-0,160	-0,001
-165,066	-92,287	-0,121	0,024
-164,052	-30,257	-0,014	0,006
-163,037	79,572	-0,078	0,061
-162,023	800,000	0,057	0,126
-161,008	800,000	0,015	-0,046
-159,993	512,362	0,047	-0,079
-158,979	-132,344	-0,080	-0,007
-157,964	88,740	-0,118	-0,095
-156,950	-84,454	0,056	-0,013
-155,935	-200,000	0,007	0,114
-154,920	-69,824	0,156	0,043
-153,906	-200,000	0,038	-0,134
-152,891	-128,939	0,151	0,015
-151,877	-200,000	-0,041	-0,132
-150,862	125,426	-0,063	0,057
-149,847	800,000	0,034	-0,083
-148,833	-190,216	-0,114	-0,001
-147,818	-101,715	0,088	0,015
-146,804	-67,322	-0,010	0,003
-145,789	-118,345	0,144	0,018
-144,775	800,000	-0,098	0,224
-143,760	-174,809	-0,069	-0,001
-142,745	-200,000	0,021	-0,117
-141,731	35,032	0,021	-0,013
-140,716	121,310	-0,034	0,031
-139,702	-99,675	0,154	-0,028
-138,687	11,957	-0,135	-0,074
-137,672	-144,778	0,060	0,004
-136,658	-200,000	-0,037	-0,142
-135,643	-200,000	-0,031	0,165
-134,629	227,028	0,073	-0,085
-133,614	-200,000	0,002	0,084
-132,599	1,786	0,026	-0,014
-131,585	800,000	-0,027	-0,071
-130,570	26,650	0,026	0,016
-129,556	55,036	0,053	-0,037
-128,541	23,234	0,095	-0,056
-127,526	32,920	-0,095	0,059
-126,512	-120,811	-0,111	0,013
-125,497	61,446	0,120	-0,086
-124,483	-137,007	0,037	0,003
-123,468	-159,185	-0,091	-0,004
-122,453	318,646	-0,059	-0,081
-121,439	800,000	0,061	-0,175
-120,424	94,235	-0,022	0,018
-119,410	-161,762	-0,073	0,003
-118,395	520,885	0,073	-0,124
-117,380	-200,000	-0,007	-0,042
-116,366	-88,507	0,165	0,035
-115,351	800,000	-0,057	-0,146
-114,337	800,000	-0,005	0,014
-113,322	308,239	0,045	0,060
-112,307	12,605	0,061	-0,034
-111,293	-141,423	0,089	0,006
-110,278	800,000	0,062	0,193
-109,264	298,271	-0,018	-0,023
-108,249	-200,000	0,006	-0,071
-107,234	-200,000	-0,053	-0,181
-106,220	-200,000	0,007	-0,057
-105,205	241,187	-0,047	0,057
-104,191	-200,000	0,040	0,189
-103,176	-200,000	-0,008	0,224
-102,162	-65,226	-0,089	-0,026
-101,147	800,000	0,022	-0,049
-100,132	266,596	-0,139	-0,175
-99,118	221,215	-0,041	-0,048
-98,103	37,322	0,157	0,100
-97,089	308,028	0,064	0,086
-96,074	-8,427	0,049	-0,024
-95,059	800,000	0,040	0,110
-94,045	-114,212	0,081	-0,011
-93,030	140,767	-0,041	-0,039
-92,016	-200,000	-0,007	0,093
-91,001	-155,667	0,052	-0,002
-89,986	68,275	0,071	-0,052
-88,972	87,784	0,067	-0,053
-87,957	345,658	0,087	0,123
-86,943	-37,595	-0,203	0,077
-85,928	137,004	-0,030	0,028
-84,913	-200,000	0,028	-0,136
-83,899	-100,409	-0,117	0,021
-82,884	-200,000	-0,049	0,190
-81,870	-6,029	-0,059	-0,029
-80,855	-159,058	0,033	0,001
-79,840	165,522	-0,073	-0,074
-78,826	73,144	0,081	0,061
-77,811	-74,686	-0,017	-0,004
-76,797	38,149	0,031	-0,020
-75,782	79,346	0,098	0,075
-74,767	-200,000	-0,038	0,124
-73,753	-113,542	0,077	-0,011
-72,738	-33,613	-0,068	0,027
-71,724	800,000	0,078	0,181
-70,709	-144,436	-0,137	0,009
-69,694	-113,750	-0,044	0,006
-68,680	-115,329	0,188	-0,025
-67,665	493,624	0,058	0,097
-66,651	-200,000	0,000	-0,048
-65,636	126,245	-0,035	-0,032
-64,622	-200,000	0,023	0,085
-63,607	-151,130	0,116	0,006
-62,592	-95,758	-0,093	-0,018
-61,578	-50,058	0,115	-0,039
-60,563	-200,000	-0,053	-0,000
-59,549	143,715	-0,078	0,075
-58,534	74,583	-2,495	-1,883
-57,519	50,089	0,314	-0,212
-56,505	-200,000	-1,575	-5,367
-55,490	425,533	1,193	1,851
-54,476	800,000	5,297	11,422
-53,461	-200,000	21,848	344,509
-52,446	800,000	761,335	2311,427
-51,432	518,407	1652,872	2790,039
-50,417	103,745	1617,670	1364,308
-49,403	73,497	1272,889	956,321
-48,388	25,384	1021,782	608,639
-47,373	19,214	988,155	568,179
-46,359	13,418	975,383	541,776
-45,344	9,394	972,065	526,682
-44,330	9,798	970,103	526,924
-43,315	8,810	968,038	522,541
-42,300	8,704	966,888	521,552
-41,286	8,756	965,959	521,203
-40,271	8,715	965,081	520,573
-39,257	8,688	964,056	519,912
-38,242	8,723	963,074	519,475
-37,227	8,690	962,471	519,023
-36,213	8,678	961,638	518,514
-35,198	8,721	960,466	518,001
-34,184	8,789	959,979	517,938
-33,169	8,721	959,117	517,232
-32,154	8,751	958,210	516,821
-31,140	8,726	957,274	516,213
-30,125	8,744	956,509	515,839
-29,111	8,782	955,470	515,381
-28,096	8,691	954,947	514,784
-27,082	8,708	954,388	514,516
-26,067	8,632	953,839	513,956
-25,052	8,688	952,832	513,571
-24,038	8,662	952,057	513,052
-23,023	8,620	951,573	512,636
-22,009	8,748	950,807	512,613
-20,994	8,696	950,346	512,177
-19,979	8,771	949,547	511,967
-18,965	8,719	949,082	511,528
-17,950	8,665	948,450	510,995
-16,936	8,636	947,914	510,592
-15,921	8,680	947,003	510,222
-14,906	8,630	946,318	509,673
-13,892	8,578	945,742	509,176
-12,877	8,601	945,131	508,901
-11,863	8,589	944,474	508,490
-10,848	8,553	943,993	508,094
-9,833	8,672	943,567	508,225
-8,819	8,638	942,816	507,692
-7,804	8,642	942,072	507,285
-6,790	8,608	941,685	506,946
-5,775	8,648	941,016	506,695
-4,760	8,644	940,273	506,262
-3,746	8,591	939,704	505,768
-2,731	8,469	938,986	504,972
-1,717	8,467	938,384	504,622
-0,702	8,478	937,662	504,250
0,313	8,272	937,020	504,010
1,327	11,701	934,945	513,702
2,342	20,401	783,099	453,169
3,356	15,533	449,832	252,931
4,371	-11,026	313,020	147,704
5,386	-14,669	295,372	135,674
6,400	-16,746	289,301	130,810
7,415	-16,854	286,712	129,522
8,429	-17,427	284,942	128,150
9,444	-17,513	284,035	127,647
10,459	-17,443	283,343	127,393
11,473	-17,401	282,748	127,155
12,488	-17,496	282,296	126,848
13,502	-17,420	281,704	126,645
14,517	-17,399	281,353	126,496
15,531	-17,174	280,830	126,465
16,546	-17,306	280,592	126,221
17,561	-17,330	280,171	125,997
18,575	-17,135	279,806	126,008
19,590	-17,264	279,477	125,725
20,604	-17,141	279,196	125,706
21,619	-17,225	278,826	125,448
22,634	-17,318	278,615	125,253
23,648	-17,360	278,306	125,062
24,663	-17,310	277,906	124,919
25,677	-17,230	277,605	124,849
26,692	-17,146	277,402	124,826
27,707	-17,349	277,121	124,496
28,721	-17,156	276,764	124,508
29,736	-17,168	276,481	124,358
30,750	-17,212	276,249	124,201
31,765	-17,199	276,080	124,126
32,780	-17,096	275,820	124,095
33,794	-17,251	275,565	123,823
34,809	-17,011	275,173	123,862
35,823	-17,266	275,086	123,572
36,838	-17,252	274,797	123,444
37,853	-17,358	274,483	123,193
38,867	-17,154	274,391	123,331
39,882	-17,077	273,969	123,203
40,896	-17,184	273,836	123,032
41,911	-17,178	273,536	122,892
42,926	-17,107	273,308	122,845
43,940	-17,270	273,160	122,615
44,955	-17,270	272,788	122,438
45,969	-17,203	272,737	122,466
46,984	-17,064	272,419	122,441
47,999	-17,362	272,414	122,151
49,013	-17,022	272,094	122,313
50,028	-17,232	271,925	122,030
51,042	-17,172	271,662	121,957
52,057	-17,144	271,477	121,890
53,071	-17,072	271,041	121,750
54,086	-17,209	270,829	121,517
55,101	-17,173	270,804	121,528
56,115	-17,144	270,536	121,424
57,130	-17,189	270,109	121,180
58,144	-17,195	269,793	121,022
59,159	-17,175	269,648	120,964
60,174	-17,225	269,467	120,826
61,188	-17,113	269,278	120,834
62,203	-17,215	268,928	120,573
63,217	-17,149	268,766	120,550
64,232	-16,965	268,313	120,504
65,247	-17,262	268,283	120,208
66,261	-17,189	267,882	120,084
67,276	-17,402	267,682	119,789
68,290	-17,137	267,521	119,948
69,305	-17,117	267,405	119,904
70,320	-17,215	267,120	119,676
71,334	-17,118	266,922	119,665
72,349	-17,232	266,576	119,395
73,363	-17,152	266,294	119,331
74,378	-17,256	266,374	119,262
75,393	-17,049	265,991	119,268
76,407	-17,170	265,647	118,993
77,422	-17,147	265,585	118,976
78,436	-17,030	265,205	118,901
79,451	-17,231	265,183	118,698
80,466	-16,970	264,783	118,744
81,480	-17,165	264,660	118,503
82,495	-17,154	264,421	118,396
83,509	-16,918	264,247	118,520
84,524	-17,187	264,175	118,234
85,539	-16,992	263,840	118,249
86,553	-17,174	263,695	118,010
87,568	-17,149	263,423	117,900
88,582	-17,240	263,184	117,701
89,597	-17,381	263,090	117,522
90,611	-17,269	262,886	117,521
91,626	-17,098	262,660	117,562
92,641	-17,081	262,335	117,421
93,655	-17,180	262,143	117,237
94,670	-17,164	261,934	117,147
95,684	-17,193	261,896	117,094
96,699	-17,319	261,567	116,824
97,714	-17,142	261,446	116,917
98,728	-17,223	261,259	116,751
99,743	-17,087	261,001	116,746
100,757	-17,102	260,773	116,620
101,772	-16,902	260,451	116,643
102,787	-17,156	260,308	116,344
103,801	-17,044	260,111	116,344
104,816	-17,196	259,930	116,119
105,830	-17,144	259,882	116,133
106,845	-17,112	259,627	116,037
107,860	-16,890	259,248	116,053
108,874	-17,251	259,135	115,674
109,889	-17,258	258,800	115,508
110,903	-17,216	258,713	115,496
111,918	-17,217	258,565	115,418
112,933	-17,077	258,328	115,426
113,947	-17,310	258,081	115,100
114,962	-17,220	257,864	115,073
115,976	-17,074	257,680	115,107
116,991	-17,116	257,471	114,968
118,006	-17,035	257,400	114,996
119,020	-17,154	257,163	114,776
120,035	-17,036	257,085	114,834
121,049	-17,234	256,875	114,557
122,064	-17,022	256,501	114,564
123,079	-17,105	256,328	114,405
124,093	-17,214	256,186	114,236
125,108	-17,089	255,886	114,201
126,122	-16,947	255,762	114,259
127,137	-17,094	255,659	114,076
128,151	-17,096	255,431	113,962
129,166	-17,035	255,150	113,879
130,181	-17,073	254,826	113,691
131,195	-16,996	254,774	113,724
132,210	-17,008	254,613	113,633
133,224	-17,124	254,254	113,362
134,239	-17,171	254,166	113,272
135,254	-17,113	253,931	113,207
136,268	-17,055	253,809	113,193
137,283	-17,163	253,568	112,982
138,297	-17,103	253,394	112,946
139,312	-17,205	253,182	112,754
140,327	-17,239	252,978	112,624
141,341	-17,001	252,677	112,684
142,356	-17,069	252,527	112,549
143,370	-17,137	252,381	112,415
144,385	-16,971	252,146	112,442
145,400	-17,023	251,921	112,288
146,414	-16,921	251,799	112,310
147,429	-16,998	251,611	112,151
148,443	-17,039	251,421	112,021
149,458	-17,043	251,183	111,902
150,473	-17,191	251,048	111,706
151,487	-17,140	250,799	111,629
152,502	-17,204	250,689	111,515
153,516	-17,034	250,589	111,606
154,531	-17,178	250,284	111,337
155,546	-17,191	250,280	111,315
156,560	-16,954	249,994	111,378
157,575	-17,305	249,826	110,996
158,589	-16,940	249,475	111,139
159,604	-17,092	249,462	110,995
160,619	-17,040	249,190	110,908
161,633	-16,872	248,882	110,902
162,648	-17,029	248,768	110,709
163,662	-16,943	248,688	110,736
164,677	-16,893	248,473	110,673
165,692	-17,014	248,443	110,547
166,706	-17,244	248,137	110,208
167,721	-16,966	248,050	110,394
168,735	-16,986	247,849	110,277
169,750	-16,840	247,558	110,260
170,764	-17,076	247,394	109,980
171,779	-17,139	247,315	109,883
172,794	-16,979	247,243	109,975
173,808	-17,201	247,028	109,683
174,823	-16,853	246,846	109,884
175,837	-17,072	246,632	109,596
176,852	-17,069	246,534	109,545
177,867	-17,094	246,410	109,459
178,881	-16,992	246,143	109,416
179,896	-16,971	245,889	109,310
180,910	-17,140	245,962	109,193
181,925	-17,005	245,490	109,085
182,940	-17,098	245,388	108,953
183,954	-17,089	245,107	108,826
184,969	-17,056	245,062	108,824
185,983	-16,745	244,928	109,012
186,998	-16,931	244,755	108,771
188,013	-16,949	244,429	108,602
189,027	-17,096	244,274	108,402
190,042	-16,971	244,262	108,490
191,056	-17,191	244,013	108,189
192,071	-17,198	243,845	108,098
193,086	-17,003	243,593	108,138
194,100	-17,122	243,413	107,950
195,115	-17,114	243,253	107,877
196,129	-17,152	243,013	107,729
197,144	-16,933	242,810	107,809
198,159	-17,123	242,662	107,578
199,173	-16,987	242,379	107,555
200,188	-16,923	242,291	107,558
201,202	-16,855	242,112	107,525
202,217	-16,779	241,907	107,486
203,232	-16,939	241,683	107,247
204,246	-16,832	241,517	107,251
205,261	-17,141	241,206	106,851
206,275	-15,912	241,771	108,094
207,290	-11,110	243,498	112,797
208,304	-4,643	245,458	119,033
209,319	-1,801	246,255	121,757
210,334	-0,760	246,537	122,746
211,348	0,075	246,697	123,504
212,363	0,445	246,592	123,746
213,377	0,750	246,650	124,016
214,392	1,077	246,555	124,226
215,407	1,535	246,473	124,551
216,421	1,692	246,273	124,569
217,436	1,583	246,143	124,403
218,450	1,744	245,961	124,431
219,465	1,471	246,010	124,221
220,480	1,674	245,934	124,338
221,494	1,511	245,491	123,970
222,509	1,230	245,272	123,617
223,523	1,083	244,989	123,343
224,538	1,066	244,762	123,204
225,553	0,592	244,588	122,718
226,567	0,665	244,411	122,678
227,582	0,705	244,315	122,652
228,596	0,577	244,252	122,504
229,611	0,704	243,995	122,468
230,626	0,737	243,666	122,319
231,640	0,766	243,760	122,378
232,655	0,570	243,561	122,108
233,669	0,860	243,326	122,215
234,684	0,791	243,118	122,044
235,699	0,779	242,993	121,961
236,713	0,807	242,757	121,855
237,728	0,546	242,704	121,605
238,742	0,833	242,391	121,670
239,757	0,644	242,377	121,499
240,772	0,784	242,188	121,506
241,786	0,971	241,971	121,538
242,801	0,733	241,805	121,252
243,815	0,612	241,642	121,061
244,830	0,648	241,732	121,125
245,844	0,897	241,363	121,130
246,859	0,866	241,188	121,006
247,874	0,852	241,038	120,909
248,888	0,709	240,759	120,644
249,903	0,792	240,871	120,756
250,917	0,888	240,615	120,694
251,932	0,916	240,502	120,648
252,947	0,983	240,394	120,637
253,961	0,962	240,126	120,475
254,976	0,636	240,023	120,152
255,990	0,801	239,923	120,223
257,005	0,887	239,716	120,177
258,020	0,975	239,505	120,131
259,034	0,875	239,400	119,988
260,049	0,899	239,150	119,870
261,063	0,756	239,019	119,681
262,078	0,809	238,908	119,656
263,093	0,827	238,724	119,568
264,107	0,713	238,566	119,387
265,122	0,791	238,300	119,306
266,136	0,847	238,333	119,356
267,151	0,923	238,160	119,319
268,166	0,773	237,924	119,072
269,180	0,799	237,727	118,983
270,195	0,933	237,624	119,027
271,209	0,879	237,469	118,896
272,224	0,866	237,316	118,798
273,239	0,860	237,191	118,720
274,253	0,816	236,983	118,571
275,268	0,596	236,911	118,351
276,282	0,819	236,700	118,410
277,297	0,910	236,430	118,337
278,312	0,893	236,477	118,336
279,326	0,966	236,337	118,313
280,341	0,879	236,139	118,135
281,355	0,883	235,989	118,052
282,370	0,910	235,779	117,958
283,384	0,907	235,716	117,914
284,399	0,815	235,528	117,737
285,414	0,791	235,363	117,625
286,428	1,018	235,214	117,717
287,443	0,812	235,046	117,462
288,457	0,832	234,913	117,401
289,472	0,809	234,861	117,347
290,487	0,913	234,708	117,341
291,501	0,760	234,480	117,097
292,516	0,935	234,312	117,140
293,530	1,001	234,122	117,085
294,545	0,867	234,363	117,091
295,560	0,890	233,939	116,886
296,574	1,036	233,688	116,863
297,589	0,954	233,489	116,690
298,603	1,262	233,339	116,844
299,618	0,976	233,277	116,580
300,633	0,953	233,212	116,520
301,647	0,881	233,100	116,398
302,662	1,081	232,939	116,461
303,676	1,149	232,781	116,425
304,691	0,943	232,685	116,207
305,706	0,989	232,536	116,158
306,720	1,022	232,239	116,024
307,735	1,020	232,173	115,980
308,749	1,215	231,854	115,960
309,764	1,214	231,749	115,897
310,779	1,062	231,761	115,775
311,793	1,042	231,581	115,660
312,808	1,103	231,428	115,620
313,822	1,065	231,238	115,485
314,837	1,139	231,101	115,463
315,852	0,996	230,918	115,252
316,866	1,135	230,883	115,331
317,881	1,047	230,836	115,230
318,895	1,159	230,466	115,120
319,910	1,296	230,328	115,145
320,925	1,215	230,157	114,989
321,939	0,936	230,049	114,711
322,954	1,198	229,779	114,766
323,968	1,172	229,778	114,735
324,983	1,141	229,641	114,633
325,997	1,055	229,574	114,524
327,012	1,155	229,299	114,453
328,027	0,976	229,282	114,298
329,041	1,027	229,062	114,217
330,056	0,999	228,928	114,119
331,070	1,090	228,841	114,134
332,085	0,956	228,713	113,958
333,100	1,159	228,474	113,983
334,114	1,152	228,345	113,903
335,129	1,258	228,032	113,817
336,143	1,130	228,004	113,696
337,158	1,223	227,816	113,662
338,173	1,344	227,710	113,690
339,187	1,276	227,623	113,586
340,202	0,970	227,607	113,337
341,216	1,277	227,377	113,443
342,231	1,205	227,184	113,283
343,246	1,398	226,995	113,323
344,260	1,291	226,905	113,188
345,275	1,103	226,792	112,981
346,289	1,170	226,627	112,939
347,304	1,432	226,331	112,977
348,319	1,129	226,303	112,726
349,333	1,279	226,073	112,713
350,348	1,231	225,887	112,574
351,362	1,044	225,876	112,420
352,377	1,169	225,655	112,393
353,392	1,410	225,510	112,491
354,406	1,159	225,499	112,288
355,421	192,398	1312,180	1379,747
356,435	154,125	1444,447	1379,607
