DTS Sentinel unit serial number:	SN410029Multiplexer serial number:	ORYXHardware model number:	OX2-SRSoftware version number:	ORYX F/W v4,00 Oryx Data Collector v3.7.2.0data status	okinstallation	B5 Nyhavnadifferential loss correction	single-endedforward channel	channel 2reverse channel	N/Adate	2023/12/14time	00:47:13forward acquisition time	300,00reverse acquisition time	0,00gamma	499,1914k internal	0,3155k external	0,3155temperature offset calibration	1,0000default loss term (dB/km)	0,3820temperature slope calibration	1,0000multiplexer offset coefficient	1,0000multiplexer slope coefficient	1,0000fibre end	0,00T internal ref (°C)	8,67T ext. ref 1 (°C)	-7,21T ext. ref 2 (°C)	-7,22length (m)	temperature (°C)	Stokes	anti-Stokes-744,400	800,000	-0,062	0,127
-743,385	-80,922	-0,335	-0,081
-742,371	-71,948	0,132	0,036
-741,356	-90,011	-0,295	-0,063
-740,342	116,353	0,162	0,146
-739,327	-78,100	-0,312	-0,079
-738,312	36,275	0,104	0,068
-737,298	-33,257	-0,410	-0,167
-736,283	-26,638	0,032	-0,014
-735,269	-14,850	-0,309	-0,146
-734,254	20,945	0,169	0,101
-733,239	40,757	-0,459	-0,305
-732,225	140,017	0,188	0,183
-731,210	-200,000	0,007	0,107
-730,196	2,910	0,089	-0,048
-729,181	179,623	-0,070	-0,076
-728,167	453,039	0,004	0,007
-727,152	358,527	-0,070	-0,103
-726,137	-91,095	-0,101	-0,021
-725,123	125,685	-0,066	-0,062
-724,108	-171,181	-0,108	0,003
-723,094	-200,000	-0,015	-0,165
-722,079	38,750	-0,096	-0,063
-721,064	2,618	0,124	0,066
-720,050	-200,000	-0,001	0,043
-719,035	-58,283	-0,130	-0,041
-718,021	-3,902	-0,077	-0,039
-717,006	415,855	-0,093	-0,147
-715,991	68,115	-0,101	-0,076
-714,977	-190,844	-0,250	-0,002
-713,962	24,743	0,095	-0,058
-712,948	-200,000	0,013	0,101
-711,933	-132,717	-0,140	-0,013
-710,918	-80,282	-0,107	0,026
-709,904	112,507	-0,037	-0,033
-708,889	-165,999	0,072	0,002
-707,875	-11,511	-0,138	0,067
-706,860	30,892	0,072	-0,045
-705,845	19,818	0,138	0,082
-704,831	120,274	-0,086	-0,079
-703,816	-129,870	0,103	0,010
-702,802	-200,000	-0,002	-0,009
-701,787	800,000	-0,022	-0,058
-700,772	289,157	-0,090	-0,121
-699,758	800,000	-0,021	0,049
-698,743	301,521	0,056	-0,076
-697,729	53,371	0,076	0,053
-696,714	-200,000	0,012	0,054
-695,699	-100,899	-0,137	-0,024
-694,685	33,579	0,070	-0,045
-693,670	-200,000	0,019	-0,075
-692,656	-19,986	0,126	-0,057
-691,641	242,253	-0,034	0,042
-690,627	747,298	0,068	0,137
-689,612	387,176	0,077	0,118
-688,597	294,016	-0,047	-0,063
-687,583	-73,133	-0,041	-0,011
-686,568	104,628	-0,038	-0,033
-685,554	800,000	-0,069	0,175
-684,539	800,000	0,011	0,027
-683,524	-124,942	0,043	-0,005
-682,510	183,885	-0,034	0,038
-681,495	-200,000	0,036	0,139
-680,481	550,489	-0,024	0,042
-679,466	800,000	-0,055	-0,144
-678,451	731,960	0,015	-0,030
-677,437	-200,000	-0,004	0,025
-676,422	767,005	-0,031	0,061
-675,408	-200,000	-0,027	-0,190
-674,393	-200,000	0,011	0,040
-673,378	531,894	0,035	0,061
-672,364	55,489	-0,073	0,052
-671,349	245,527	0,070	-0,086
-670,335	-200,000	-0,013	0,065
-669,320	-59,240	-0,090	0,028
-668,305	79,888	-0,037	0,029
-667,291	800,000	-0,021	0,064
-666,276	154,477	-0,097	-0,098
-665,262	-133,746	-0,147	0,013
-664,247	646,209	0,032	0,060
-663,232	-200,000	-0,007	-0,042
-662,218	191,816	0,030	-0,033
-661,203	800,000	0,008	-0,021
-660,189	-115,824	-0,092	0,013
-659,174	-75,569	-0,038	0,010
-658,159	-200,000	-0,003	-0,129
-657,145	-10,701	-0,127	-0,062
-656,130	309,655	0,084	0,116
-655,116	800,000	0,030	0,074
-654,101	-200,000	0,003	-0,121
-653,086	66,175	0,095	-0,071
-652,072	-63,938	-0,107	-0,032
-651,057	1,558	-0,096	-0,051
-650,043	800,000	-0,021	0,053
-649,028	120,180	0,049	0,045
-648,014	-200,000	0,001	0,027
-646,999	-175,367	0,139	0,003
-645,984	260,685	0,039	0,049
-644,970	481,220	-0,073	-0,123
-643,955	-94,193	-0,091	-0,018
-642,941	-200,000	0,014	-0,053
-641,926	23,145	-0,070	-0,042
-640,911	-200,000	0,043	-0,156
-639,897	-200,000	0,030	0,107
-638,882	-133,150	0,064	0,006
-637,868	148,448	-0,111	0,111
-636,853	278,511	-0,039	-0,051
-635,838	800,000	-0,041	-0,131
-634,824	6,978	-0,144	0,079
-633,809	800,000	0,019	0,050
-632,795	-200,000	0,025	0,107
-631,780	800,000	-0,044	0,121
-630,765	100,791	-0,039	0,033
-629,751	562,536	-0,089	-0,159
-628,736	-156,861	-0,138	-0,006
-627,722	800,000	0,007	0,016
-626,707	-1,811	0,103	0,053
-625,692	-12,507	-0,138	0,066
-624,678	-163,209	-0,073	0,003
-623,663	250,747	-0,066	0,083
-622,649	-13,399	-0,108	0,051
-621,634	181,271	0,030	0,032
-620,619	655,018	0,063	-0,119
-619,605	-84,154	0,073	0,017
-618,590	-49,265	-0,011	-0,004
-617,576	245,721	-0,086	0,106
-616,561	-68,794	0,091	0,026
-615,546	-200,000	-0,005	-0,096
-614,532	316,325	-0,117	-0,163
-613,517	-94,895	-0,061	-0,012
-612,503	369,592	0,106	-0,158
-611,488	-66,235	0,069	0,020
-610,474	107,441	-0,060	-0,053
-609,459	-138,700	0,154	0,012
-608,444	69,228	-0,072	-0,054
-607,430	51,910	-0,035	-0,024
-606,415	-118,224	-0,123	-0,016
-605,401	28,502	-0,063	0,039
-604,386	4,761	0,100	-0,054
-603,371	13,019	-0,048	0,027
-602,357	-200,000	0,002	-0,063
-601,342	-200,000	-0,005	-0,055
-600,328	170,893	-0,070	-0,074
-599,313	-200,000	-0,012	-0,240
-598,298	150,078	-0,077	-0,077
-597,284	464,095	0,031	-0,052
-596,269	136,160	0,035	0,034
-595,255	-200,000	0,001	0,111
-594,240	132,905	-0,053	-0,050
-593,225	60,472	-0,104	-0,075
-592,211	800,000	-0,008	0,026
-591,196	108,691	-0,086	-0,075
-590,182	-53,262	-0,097	0,032
-589,167	62,886	-0,040	0,029
-588,152	-200,000	-0,009	0,102
-587,138	115,944	0,061	-0,055
-586,123	-9,768	-0,130	-0,063
-585,109	184,355	-0,058	-0,063
-584,094	-200,000	0,007	0,103
-583,079	-106,227	0,079	0,013
-582,065	330,605	0,072	0,102
-581,050	557,595	-0,051	-0,091
-580,036	800,000	-0,024	0,066
-579,021	-78,538	-0,263	-0,066
-578,006	-200,000	0,023	-0,091
-576,992	92,115	-0,124	0,103
-575,977	-106,798	0,076	0,012
-574,963	800,000	-0,039	0,085
-573,948	255,687	0,081	0,102
-572,934	140,712	-0,080	0,078
-571,919	13,236	-0,101	0,057
-570,904	-200,000	-0,012	0,066
-569,890	111,998	-0,056	0,049
-568,875	-7,516	-0,044	-0,022
-567,861	-200,000	0,001	-0,077
-566,846	-200,000	-0,000	0,080
-565,831	800,000	-0,072	0,150
-564,817	207,083	0,026	0,029
-563,802	800,000	-0,045	0,132
-562,788	-166,112	0,090	0,003
-561,773	800,000	0,037	-0,075
-560,758	-200,000	0,022	0,135
-559,744	71,882	0,062	0,047
-558,729	800,000	0,033	-0,090
-557,715	-200,000	0,022	-0,099
-556,700	295,734	-0,110	-0,148
-555,685	-93,009	-0,186	-0,038
-554,671	-50,227	0,203	0,070
-553,656	218,708	-0,024	-0,028
-552,642	-28,303	-0,081	-0,034
-551,627	-200,000	0,001	0,055
-550,612	138,996	-0,065	0,063
-549,598	-11,644	-0,089	0,043
-548,583	-200,000	-0,004	-0,122
-547,569	326,820	0,067	-0,094
-546,554	83,582	0,085	0,068
-545,539	197,938	0,035	0,039
-544,525	1,897	0,097	0,051
-543,510	107,148	0,032	0,028
-542,496	392,967	-0,094	-0,144
-541,481	322,345	0,024	-0,033
-540,466	-91,567	-0,063	0,013
-539,452	-47,972	0,121	0,043
-538,437	343,722	0,066	0,095
-537,423	-37,826	-0,142	0,055
-536,408	39,708	-0,108	0,071
-535,393	-4,564	0,030	0,015
-534,379	-200,000	0,003	-0,017
-533,364	-200,000	-0,011	-0,042
-532,350	54,533	0,051	-0,036
-531,335	-12,268	-0,063	0,030
-530,321	-34,427	0,138	0,055
-529,306	-101,212	-0,051	0,009
-528,291	-200,000	-0,010	-0,050
-527,277	800,000	0,016	0,033
-526,262	-116,495	0,085	-0,011
-525,248	-82,493	0,040	0,009
-524,233	74,408	0,129	-0,099
-523,218	145,902	-0,084	0,082
-522,204	800,000	0,033	0,100
-521,189	-76,871	-0,092	-0,023
-520,175	-25,448	0,052	-0,023
-519,160	51,580	0,036	0,025
-518,145	-108,286	0,055	-0,009
-517,131	800,000	-0,043	0,101
-516,116	-89,695	0,083	-0,018
-515,102	71,337	-0,067	0,051
-514,087	-35,694	0,115	-0,046
-513,072	92,785	-0,136	-0,112
-512,058	-200,000	0,011	-0,079
-511,043	-143,145	0,167	0,012
-510,029	-131,222	-0,100	0,010
-509,014	-105,785	0,081	-0,013
-507,999	423,316	-0,023	-0,037
-506,985	523,385	-0,026	-0,045
-505,970	262,098	0,018	0,023
-504,956	86,223	-0,029	-0,023
-503,941	-200,000	0,005	0,040
-502,926	702,185	-0,016	0,032
-501,912	-7,594	0,170	0,084
-500,897	556,845	0,049	-0,087
-499,883	-51,274	0,022	-0,007
-498,868	298,510	-0,089	0,120
-497,853	-200,000	-0,002	-0,062
-496,839	535,182	0,047	-0,081
-495,824	136,026	-0,058	-0,055
-494,810	-43,442	-0,040	-0,015
-493,795	800,000	0,022	-0,046
-492,781	800,000	0,031	-0,076
-491,766	-200,000	-0,006	0,036
-490,751	786,619	-0,012	-0,024
-489,737	164,538	0,022	0,022
-488,722	124,623	0,074	0,068
-487,708	80,570	-0,060	0,047
-486,693	224,776	0,084	-0,100
-485,678	-200,000	0,001	0,081
-484,664	-166,335	0,024	-0,001
-483,649	800,000	0,031	0,081
-482,635	-10,886	-0,135	-0,065
-481,620	23,756	0,041	-0,025
-480,605	-121,947	-0,030	-0,004
-479,591	-48,763	0,076	0,027
-478,576	75,943	-0,063	0,048
-477,562	-104,432	0,051	0,009
-476,547	-121,620	-0,027	-0,003
-475,532	3,470	0,030	0,016
-474,518	-200,000	0,034	0,132
-473,503	369,008	-0,089	0,132
-472,489	-146,758	0,053	0,003
-471,474	-142,698	-0,108	-0,008
-470,459	187,564	-0,013	0,014
-469,445	59,615	-0,085	-0,061
-468,430	-9,329	0,088	-0,043
-467,416	-49,937	0,017	-0,006
-466,401	-125,845	0,076	-0,008
-465,386	-76,458	0,136	0,035
-464,372	266,381	-0,014	-0,017
-463,357	405,229	-0,011	-0,017
-462,343	-75,967	-0,031	-0,008
-461,328	-200,000	-0,020	0,072
-460,313	278,950	-0,020	-0,026
-459,299	84,647	0,118	0,094
-458,284	133,293	0,043	-0,041
-457,270	154,854	-0,024	0,024
-456,255	-200,000	0,015	-0,069
-455,241	44,400	-0,097	-0,065
-454,226	151,709	-0,039	-0,039
-453,211	-200,000	-0,003	-0,012
-452,197	20,479	0,040	-0,024
-451,182	209,208	0,044	0,050
-450,168	-200,000	0,015	-0,101
-449,153	227,131	-0,030	0,036
-448,138	128,178	-0,096	-0,089
-447,124	-200,000	-0,023	-0,089
-446,109	210,006	0,079	0,091
-445,095	800,000	0,051	-0,137
-444,080	-200,000	-0,039	0,136
-443,065	4,145	0,020	-0,010
-442,051	800,000	0,034	-0,085
-441,036	-71,257	-0,090	-0,024
-440,022	-33,872	0,124	0,050
-439,007	800,000	0,035	-0,075
-437,992	-200,000	0,032	0,193
-436,978	-200,000	-0,003	0,014
-435,963	-48,127	-0,095	-0,033
-434,949	2,040	0,054	0,028
-433,934	69,692	-0,059	-0,044
-432,919	617,900	-0,001	-0,001
-431,905	-30,249	-0,046	0,019
-430,890	-89,991	0,060	0,013
-429,876	-93,587	0,068	0,014
-428,861	-83,503	-0,187	0,043
-427,846	800,000	0,084	-0,183
-426,832	-200,000	0,020	0,072
-425,817	-130,440	-0,032	0,003
-424,803	-5,413	-0,027	0,014
-423,788	588,337	-0,012	-0,021
-422,773	-50,883	0,137	0,046
-421,759	-54,163	0,111	0,037
-420,744	12,433	-0,080	0,045
-419,730	80,106	0,038	-0,030
-418,715	460,915	0,026	0,043
-417,701	-200,000	0,009	-0,043
-416,686	-58,542	0,064	-0,020
-415,671	-200,000	-0,039	0,000
-414,657	692,671	0,027	-0,051
-413,642	-200,000	0,003	-0,068
-412,628	66,394	0,076	-0,056
-411,613	-117,398	-0,073	-0,009
-410,598	-200,000	-0,007	-0,061
-409,584	-106,280	0,011	-0,002
-408,569	800,000	0,048	0,115
-407,555	-200,000	0,005	-0,020
-406,540	-200,000	0,013	0,043
-405,525	-117,237	0,092	0,012
-404,511	-200,000	-0,009	0,076
-403,496	430,833	0,024	-0,038
-402,482	-116,042	0,107	-0,014
-401,467	-200,000	0,001	-0,008
-400,452	176,090	-0,100	0,106
-399,438	161,445	-0,122	0,124
-398,423	349,942	0,080	-0,115
-397,409	-200,000	0,009	-0,094
-396,394	-145,639	0,063	0,004
-395,379	718,980	-0,030	0,059
-394,365	-200,000	-0,022	0,145
-393,350	403,205	-0,056	0,086
-392,336	800,000	-0,008	-0,017
-391,321	47,073	-0,035	-0,023
-390,306	737,207	-0,049	-0,096
-389,292	-167,882	0,028	0,001
-388,277	-135,290	-0,116	-0,010
-387,263	-109,079	0,160	0,025
-386,248	-117,114	0,066	0,009
-385,233	-21,492	-0,063	0,028
-384,219	670,988	0,024	-0,046
-383,204	-200,000	-0,007	-0,124
-382,190	-200,000	-0,027	0,118
-381,175	-34,216	-0,014	-0,005
-380,160	-10,526	0,082	0,039
-379,146	211,397	0,100	0,115
-378,131	204,322	0,044	-0,049
-377,117	-102,996	0,065	0,011
-376,102	291,250	-0,103	-0,137
-375,088	47,982	-0,044	0,030
-374,073	256,735	0,066	0,082
-373,058	-102,341	-0,088	-0,015
-372,044	-200,000	-0,001	0,019
-371,029	-200,000	0,008	0,035
-370,015	800,000	-0,047	-0,149
-369,000	41,374	-0,136	-0,090
-367,985	800,000	-0,054	-0,131
-366,971	-200,000	-0,001	0,061
-365,956	-25,514	0,055	0,024
-364,942	214,812	0,064	-0,074
-363,927	234,579	-0,026	-0,031
-362,912	57,961	-0,111	0,079
-361,898	-59,506	0,139	-0,043
-360,883	-65,249	-0,071	0,021
-359,869	-79,806	0,065	-0,016
-358,854	74,442	0,042	0,032
-357,839	800,000	0,031	0,063
-356,825	-200,000	0,006	0,084
-355,810	2,878	-0,050	-0,027
-354,796	-200,000	-0,001	-0,215
-353,781	800,000	-0,037	-0,087
-352,766	708,180	0,009	-0,018
-351,752	800,000	0,019	-0,039
-350,737	800,000	0,028	-0,075
-349,723	-16,075	-0,123	0,057
-348,708	-123,742	0,142	0,016
-347,693	38,688	-0,022	-0,014
-346,679	-200,000	-0,021	-0,177
-345,664	791,031	-0,033	-0,066
-344,650	27,913	-0,060	-0,037
-343,635	-60,191	-0,106	-0,033
-342,620	-1,544	-0,098	0,050
-341,606	338,757	-0,013	-0,019
-340,591	-71,641	-0,043	0,011
-339,577	-21,378	-0,095	-0,042
-338,562	-200,000	0,033	-0,146
-337,548	168,149	0,156	-0,162
-336,533	223,670	0,045	-0,053
-335,518	136,595	-0,032	0,030
-334,504	-200,000	-0,015	-0,064
-333,489	800,000	-0,041	0,108
-332,475	-200,000	-0,001	-0,139
-331,460	-200,000	0,010	-0,086
-330,445	60,316	-0,063	-0,045
-329,431	800,000	0,025	-0,073
-328,416	-51,457	0,058	0,020
-327,402	-169,578	0,073	0,002
-326,387	800,000	-0,027	-0,060
-325,372	-11,837	-0,097	-0,046
-324,358	191,664	0,059	0,064
-323,343	-200,000	-0,000	-0,041
-322,329	800,000	-0,014	0,043
-321,314	62,114	0,062	0,045
-320,299	633,850	0,065	0,120
-319,285	186,556	-0,070	-0,075
-318,270	-200,000	-0,004	0,110
-317,256	-78,404	-0,076	-0,019
-316,241	-200,000	0,012	-0,091
-315,226	101,108	0,107	0,091
-314,212	-200,000	-0,006	0,098
-313,197	-200,000	0,017	0,121
-312,183	-20,082	0,060	-0,027
-311,168	-200,000	0,002	0,035
-310,153	-87,304	0,103	0,022
-309,139	-48,786	-0,108	-0,038
-308,124	-70,163	-0,080	-0,022
-307,110	-161,839	0,103	-0,004
-306,095	-95,676	0,055	-0,011
-305,080	-154,224	-0,111	-0,005
-304,066	318,951	0,053	-0,073
-303,051	133,955	-0,067	-0,063
-302,037	-200,000	-0,007	-0,082
-301,022	47,923	-0,081	0,055
-300,008	800,000	0,048	-0,108
-298,993	36,307	0,059	-0,038
-297,978	800,000	0,102	0,211
-296,964	72,996	0,067	0,050
-295,949	-200,000	-0,012	-0,087
-294,935	800,000	0,043	-0,092
-293,920	144,888	-0,021	-0,020
-292,905	-200,000	0,006	0,021
-291,891	800,000	0,041	0,111
-290,876	244,772	-0,095	0,116
-289,862	-50,648	0,057	-0,019
-288,847	-200,000	-0,044	-0,145
-287,832	-70,565	0,128	-0,035
-286,818	521,628	-0,047	0,081
-285,803	-200,000	0,020	0,121
-284,789	53,083	0,062	0,043
-283,774	-62,941	0,109	-0,033
-282,759	-200,000	-0,003	-0,090
-281,745	16,421	-0,143	-0,082
-280,730	109,540	-0,105	-0,091
-279,716	21,431	0,042	0,025
-278,701	-22,591	0,069	0,030
-277,686	800,000	-0,056	0,125
-276,672	339,298	0,065	0,093
-275,657	-5,890	-0,083	0,041
-274,643	-10,019	-0,096	-0,046
-273,628	800,000	-0,027	-0,082
-272,613	167,709	0,053	-0,055
-271,599	523,996	0,028	-0,048
-270,584	800,000	-0,029	-0,060
-269,570	-68,948	0,152	0,042
-268,555	800,000	-0,035	0,091
-267,540	106,906	-0,074	0,064
-266,526	-37,896	-0,143	0,055
-265,511	-152,250	-0,073	-0,004
-264,497	-39,685	0,056	-0,021
-263,482	31,222	-0,043	-0,026
-262,467	-200,000	-0,019	-0,112
-261,453	800,000	-0,021	0,064
-260,438	336,719	-0,046	0,065
-259,424	375,782	-0,004	0,005
-258,409	73,019	0,046	-0,035
-257,395	137,625	-0,040	0,038
-256,380	-107,614	0,109	0,017
-255,365	-140,595	-0,068	-0,005
-254,351	-103,096	-0,024	-0,004
-253,336	240,875	0,040	-0,049
-252,322	800,000	0,067	-0,139
-251,307	-92,925	0,087	-0,017
-250,292	104,410	0,074	0,063
-249,278	800,000	0,035	-0,107
-248,263	433,197	-0,022	0,034
-247,249	127,535	0,079	0,073
-246,234	-0,227	-0,150	-0,077
-245,219	-200,000	-0,017	-0,058
-244,205	-123,285	0,116	0,013
-243,190	2,231	-0,030	0,016
-242,176	-77,097	-0,024	0,006
-241,161	334,861	0,040	0,056
-240,146	9,520	0,087	0,048
-239,132	330,158	-0,036	0,050
-238,117	-200,000	0,025	-0,092
-237,103	225,516	0,129	0,152
-236,088	-92,936	0,041	0,008
-235,073	800,000	-0,040	0,087
-234,059	154,080	-0,093	0,092
-233,044	-34,547	0,113	0,045
-232,030	800,000	0,021	-0,048
-231,015	800,000	0,031	0,095
-230,000	268,876	-0,008	0,011
-228,986	800,000	-0,012	-0,037
-227,971	469,812	0,035	0,057
-226,957	723,712	0,043	0,082
-225,942	800,000	0,039	-0,088
-224,927	800,000	0,038	-0,090
-223,913	4,630	0,044	0,023
-222,898	-101,778	-0,023	-0,004
-221,884	-119,059	-0,077	0,010
-220,869	127,797	0,073	-0,067
-219,855	-6,782	-0,101	-0,050
-218,840	91,173	-0,049	0,040
-217,825	81,245	0,113	0,088
-216,811	28,558	-0,154	0,094
-215,796	63,292	0,074	-0,054
-214,782	-13,456	-0,072	-0,034
-213,767	16,464	0,102	0,058
-212,752	-81,377	-0,027	0,006
-211,738	219,805	0,051	-0,059
-210,723	-200,000	-0,029	-0,110
-209,709	-85,422	-0,123	-0,027
-208,694	800,000	0,010	-0,031
-207,679	-200,000	-0,000	0,057
-206,665	16,935	0,020	0,011
-205,650	-57,154	0,046	-0,015
-204,636	-112,268	-0,112	0,016
-203,621	-200,000	0,006	0,059
-202,606	-41,167	0,046	0,017
-201,592	170,439	-0,079	-0,082
-200,577	-145,817	-0,033	0,002
-199,563	-113,434	0,087	0,012
-198,548	-112,376	-0,039	0,006
-197,533	177,829	0,016	0,017
-196,519	-100,338	0,151	-0,027
-195,504	800,000	-0,064	0,174
-194,490	-48,899	-0,073	0,025
-193,475	800,000	0,015	-0,032
-192,460	-155,441	0,195	-0,009
-191,446	9,692	0,155	0,085
-190,431	-64,630	0,070	0,020
-189,417	-200,000	0,061	0,211
-188,402	22,050	0,052	0,031
-187,387	2,308	0,104	0,054
-186,373	252,861	-0,102	0,126
-185,358	-100,532	-0,089	-0,016
-184,344	98,398	0,086	-0,072
-183,329	-126,355	0,142	0,015
-182,315	284,852	0,025	-0,033
-181,300	800,000	-0,024	-0,071
-180,285	653,663	0,030	0,057
-179,271	2,576	-0,064	0,033
-178,256	-114,984	-0,069	0,009
-177,242	-72,936	0,157	0,041
-176,227	177,929	0,062	0,065
-175,212	82,617	-0,081	-0,063
-174,198	-200,000	0,005	0,071
-173,183	148,270	-0,069	-0,067
-172,169	14,423	0,043	-0,024
-171,154	800,000	-0,044	-0,109
-170,139	800,000	-0,058	0,143
-169,125	-200,000	0,024	0,103
-168,110	-200,000	-0,013	0,101
-167,096	150,451	-0,067	0,066
-166,081	-200,000	0,017	0,069
-165,066	-200,000	-0,029	-0,179
-164,052	-200,000	0,009	-0,118
-163,037	800,000	-0,011	0,035
-162,023	800,000	0,052	0,157
-161,008	-172,722	0,012	-0,000
-159,993	-200,000	0,026	-0,176
-158,979	-200,000	0,009	-0,039
-157,964	51,965	-0,055	-0,037
-156,950	-76,863	0,130	-0,032
-155,935	78,945	-0,069	0,053
-154,920	-99,408	-0,072	0,013
-153,906	-200,000	0,006	0,060
-152,891	439,189	-0,046	0,073
-151,877	541,550	0,045	0,078
-150,862	-200,000	-0,002	0,073
-149,847	-200,000	0,027	-0,131
-148,833	800,000	0,025	0,062
-147,818	719,181	-0,029	0,055
-146,804	70,481	-0,086	-0,064
-145,789	362,971	0,023	0,034
-144,775	102,392	0,086	-0,073
-143,760	-200,000	0,005	0,037
-142,745	608,425	-0,089	-0,161
-141,731	35,728	-0,114	-0,072
-140,716	-200,000	-0,012	-0,061
-139,702	-200,000	0,025	0,133
-138,687	523,604	0,074	0,126
-137,672	13,726	-0,056	0,031
-136,658	800,000	-0,029	0,070
-135,643	208,899	0,084	0,095
-134,629	199,717	0,061	-0,067
-133,614	-82,961	0,127	-0,029
-132,599	350,327	-0,071	0,101
-131,585	800,000	0,022	0,049
-130,570	13,903	0,058	0,033
-129,556	-79,433	-0,058	-0,014
-128,541	138,810	-0,061	0,058
-127,526	-17,758	-0,079	-0,035
-126,512	-200,000	0,024	0,079
-125,497	485,599	0,039	0,065
-124,483	781,576	-0,057	-0,112
-123,468	33,404	-0,074	-0,046
-122,453	54,391	-0,021	-0,014
-121,439	178,195	0,040	-0,042
-120,424	-200,000	0,014	0,089
-119,410	800,000	0,047	0,117
-118,395	82,462	0,096	0,075
-117,380	-12,029	-0,119	-0,056
-116,366	-200,000	0,003	0,054
-115,351	33,463	-0,070	0,043
-114,337	652,746	0,079	-0,147
-113,322	-200,000	0,000	0,055
-112,307	712,480	-0,008	0,014
-111,293	-17,599	0,067	0,030
-110,278	-200,000	-0,006	0,106
-109,264	60,990	-0,035	-0,025
-108,249	-200,000	0,023	-0,096
-107,234	424,500	0,108	-0,169
-106,220	-81,100	-0,083	0,020
-105,205	166,895	-0,121	0,124
-104,191	-200,000	0,029	0,158
-103,176	771,501	0,026	-0,051
-102,162	-20,628	0,193	-0,085
-101,147	-200,000	-0,002	0,101
-100,132	558,809	-0,021	0,036
-99,118	800,000	-0,011	0,034
-98,103	-200,000	0,021	0,109
-97,089	-200,000	-0,006	0,109
-96,074	633,838	0,060	0,111
-95,059	20,795	0,066	0,038
-94,045	-200,000	0,004	-0,098
-93,030	79,509	-0,078	0,060
-92,016	-200,000	-0,010	-0,069
-91,001	156,685	0,022	0,022
-89,986	464,508	-0,048	-0,078
-88,972	800,000	0,053	-0,112
-87,957	-78,676	-0,112	0,027
-86,943	-18,426	0,059	0,027
-85,928	230,274	-0,122	-0,143
-84,913	438,879	0,039	0,061
-83,899	-200,000	-0,038	-0,128
-82,884	166,761	0,207	0,211
-81,870	182,971	0,033	0,035
-80,855	-200,000	-0,022	0,097
-79,840	-86,595	-0,025	0,006
-78,826	562,684	-0,073	0,128
-77,811	496,529	-0,051	-0,085
-76,797	-200,000	0,006	-0,053
-75,782	-200,000	-0,009	-0,036
-74,767	637,938	0,021	0,038
-73,753	-0,129	0,025	-0,013
-72,738	800,000	-0,033	0,087
-71,724	267,295	-0,041	0,052
-70,709	-200,000	0,001	-0,106
-69,694	-69,594	-0,107	-0,029
-68,680	-200,000	-0,015	-0,049
-67,665	19,743	-0,050	-0,029
-66,651	-200,000	0,030	-0,168
-65,636	-200,000	-0,001	0,079
-64,622	800,000	0,059	-0,121
-63,607	-200,000	-0,011	-0,050
-62,592	-103,369	-0,089	0,015
-61,578	59,405	0,071	-0,050
-60,563	-200,000	0,009	0,143
-59,549	-200,000	0,010	0,076
-58,534	84,937	-2,548	-2,005
-57,519	69,979	0,336	-0,249
-56,505	800,000	-1,726	-5,363
-55,490	350,698	1,252	1,784
-54,476	800,000	5,296	11,487
-53,461	-200,000	21,920	343,749
-52,446	800,000	760,555	2310,677
-51,432	519,219	1652,122	2790,325
-50,417	103,767	1617,478	1364,131
-49,403	73,383	1272,830	955,737
-48,388	25,412	1021,518	608,525
-47,373	19,208	988,248	568,159
-46,359	13,476	975,265	541,853
-45,344	9,389	971,848	526,501
-44,330	9,849	969,850	526,908
-43,315	8,760	968,138	522,386
-42,300	8,705	966,876	521,504
-41,286	8,746	965,734	521,000
-40,271	8,726	964,868	520,446
-39,257	8,677	964,032	519,816
-38,242	8,719	963,090	519,424
-37,227	8,686	962,486	518,971
-36,213	8,657	961,487	518,315
-35,198	8,659	960,769	517,917
-34,184	8,748	959,975	517,758
-33,169	8,668	958,935	516,916
-32,154	8,772	958,112	516,789
-31,140	8,678	957,432	516,096
-30,125	8,795	956,234	515,810
-29,111	8,668	955,666	515,073
-28,096	8,778	954,783	514,930
-27,082	8,730	954,267	514,478
-26,067	8,663	953,617	513,891
-25,052	8,700	952,670	513,478
-24,038	8,687	952,009	513,058
-23,023	8,649	951,446	512,612
-22,009	8,719	950,825	512,485
-20,994	8,735	950,265	512,213
-19,979	8,719	949,616	511,790
-18,965	8,739	948,875	511,436
-17,950	8,672	948,484	510,989
-16,936	8,714	947,545	510,598
-15,921	8,687	946,985	510,191
-14,906	8,621	946,161	509,513
-13,892	8,590	945,664	509,128
-12,877	8,630	944,984	508,870
-11,863	8,528	944,466	508,244
-10,848	8,664	943,700	508,247
-9,833	8,710	943,225	508,116
-8,819	8,585	942,613	507,369
-7,804	8,538	942,070	506,904
-6,790	8,639	941,336	506,812
-5,775	8,664	940,767	506,566
-4,760	8,640	940,090	506,103
-3,746	8,594	939,636	505,694
-2,731	8,489	938,864	504,924
-1,717	8,462	938,175	504,447
-0,702	8,489	937,661	504,238
0,313	8,325	936,948	504,096
1,327	11,609	934,790	513,282
2,342	20,454	783,199	453,325
3,356	15,701	450,195	253,367
4,371	-10,503	313,329	148,399
5,386	-14,313	295,654	136,152
6,400	-16,325	289,439	131,279
7,415	-16,481	286,751	129,895
8,429	-17,278	284,991	128,307
9,444	-17,305	284,131	127,882
10,459	-17,369	283,554	127,548
11,473	-17,366	282,952	127,269
12,488	-17,373	282,574	127,081
13,502	-17,443	282,000	126,744
14,517	-17,366	281,581	126,618
15,531	-17,401	281,031	126,326
16,546	-17,284	280,822	126,334
17,561	-17,331	280,390	126,083
18,575	-17,216	280,071	126,039
19,590	-17,323	279,519	125,676
20,604	-17,407	279,289	125,481
21,619	-17,072	279,077	125,695
22,634	-17,236	278,567	125,298
23,648	-17,339	278,341	125,087
24,663	-17,275	278,079	125,019
25,677	-17,034	277,708	125,070
26,692	-17,160	277,546	124,866
27,707	-17,190	277,224	124,681
28,721	-17,145	276,882	124,560
29,736	-17,184	276,634	124,400
30,750	-17,112	276,398	124,350
31,765	-17,038	276,132	124,290
32,780	-17,106	275,902	124,112
33,794	-17,089	275,659	124,007
34,809	-17,099	275,359	123,851
35,823	-17,121	275,170	123,734
36,838	-17,184	275,003	123,590
37,853	-17,232	274,679	123,388
38,867	-17,260	274,457	123,251
39,882	-17,246	274,172	123,124
40,896	-17,235	273,990	123,043
41,911	-16,964	273,527	123,077
42,926	-17,046	273,481	122,969
43,940	-17,205	273,217	122,690
44,955	-17,117	272,955	122,644
45,969	-17,011	272,680	122,608
46,984	-17,185	272,496	122,353
47,999	-17,165	272,527	122,374
49,013	-17,248	272,202	122,140
50,028	-17,030	271,822	122,162
51,042	-16,988	271,529	122,058
52,057	-16,922	271,428	122,063
53,071	-16,871	271,158	121,977
54,086	-16,898	270,881	121,817
55,101	-17,290	270,915	121,458
56,115	-17,305	270,514	121,254
57,130	-17,270	270,270	121,166
58,144	-17,341	270,069	121,000
59,159	-17,240	269,753	120,941
60,174	-17,178	269,368	120,814
61,188	-16,983	269,155	120,887
62,203	-17,273	269,166	120,615
63,217	-16,943	268,848	120,764
64,232	-17,037	268,571	120,544
65,247	-17,027	268,428	120,478
66,261	-17,065	268,077	120,274
67,276	-17,094	267,885	120,151
68,290	-17,104	267,690	120,044
69,305	-17,144	267,448	119,888
70,320	-17,051	267,212	119,856
71,334	-17,087	267,058	119,743
72,349	-16,991	266,746	119,681
73,363	-17,101	266,543	119,479
74,378	-17,135	266,336	119,344
75,393	-16,948	266,140	119,416
76,407	-17,074	265,958	119,209
77,422	-17,163	265,722	119,012
78,436	-16,975	265,352	119,006
79,451	-16,905	265,085	118,939
80,466	-17,026	264,886	118,729
81,480	-16,975	264,667	118,666
82,495	-17,158	264,555	118,441
83,509	-17,076	264,298	118,389
84,524	-16,981	264,173	118,408
85,539	-17,003	263,889	118,251
86,553	-17,017	263,627	118,110
87,568	-16,976	263,395	118,033
88,582	-17,131	263,340	117,858
89,597	-17,084	263,109	117,786
90,611	-16,919	262,762	117,768
91,626	-17,116	262,662	117,536
92,641	-17,077	262,457	117,469
93,655	-16,884	262,264	117,544
94,670	-17,175	262,113	117,207
95,684	-17,046	261,952	117,240
96,699	-17,205	261,563	116,913
97,714	-17,093	261,558	117,001
98,728	-16,868	261,173	117,018
99,743	-17,174	261,260	116,774
100,757	-16,948	260,646	116,690
101,772	-16,802	260,567	116,774
102,787	-16,959	260,324	116,516
103,801	-17,054	260,126	116,332
104,816	-17,011	259,989	116,299
105,830	-16,819	259,769	116,360
106,845	-17,055	259,639	116,082
107,860	-17,013	259,323	115,968
108,874	-17,076	259,067	115,788
109,889	-16,975	258,992	115,832
110,903	-17,060	258,794	115,659
111,918	-17,119	258,679	115,545
112,933	-17,090	258,360	115,418
113,947	-17,013	258,066	115,344
114,962	-16,915	257,957	115,371
115,976	-17,237	257,919	115,061
116,991	-17,047	257,522	115,040
118,006	-17,012	257,514	115,057
119,020	-17,114	257,240	114,835
120,035	-17,028	257,132	114,851
121,049	-17,168	256,919	114,624
122,064	-17,020	256,724	114,656
123,079	-16,919	256,325	114,556
124,093	-16,827	256,290	114,610
125,108	-16,984	256,062	114,361
126,122	-17,011	255,891	114,251
127,137	-16,992	255,691	114,168
128,151	-16,875	255,391	114,126
129,166	-16,980	255,390	114,024
130,181	-17,054	255,152	113,843
131,195	-17,051	254,813	113,684
132,210	-16,999	254,737	113,685
133,224	-16,945	254,567	113,646
134,239	-16,889	254,208	113,524
135,254	-16,874	254,017	113,441
136,268	-16,929	254,011	113,381
137,283	-16,981	253,549	113,120
138,297	-16,869	253,466	113,169
139,312	-16,938	253,216	112,989
140,327	-17,040	253,122	112,849
141,341	-17,165	252,873	112,620
142,356	-17,034	252,761	112,673
143,370	-17,113	252,625	112,535
144,385	-17,015	252,290	112,459
145,400	-16,845	251,953	112,444
146,414	-16,968	251,969	112,336
147,429	-16,955	251,697	112,216
148,443	-16,807	251,501	112,245
149,458	-16,860	251,370	112,131
150,473	-17,032	251,197	111,898
151,487	-16,942	251,020	111,885
152,502	-17,009	250,800	111,720
153,516	-16,956	250,573	111,654
154,531	-16,925	250,384	111,586
155,546	-17,068	250,146	111,349
156,560	-16,614	249,983	111,651
157,575	-16,902	249,872	111,348
158,589	-16,903	249,605	111,218
159,604	-16,796	249,414	111,214
160,619	-16,978	249,303	111,000
161,633	-17,058	249,051	110,810
162,648	-16,972	249,015	110,858
163,662	-16,969	248,783	110,747
164,677	-16,952	248,649	110,691
165,692	-16,871	248,388	110,633
166,706	-17,006	248,237	110,443
167,721	-17,084	248,156	110,331
168,735	-16,876	247,880	110,374
169,750	-16,798	247,862	110,421
170,764	-16,767	247,607	110,324
171,779	-17,083	247,632	110,060
172,794	-17,029	247,239	109,921
173,808	-16,958	247,011	109,869
174,823	-17,015	246,934	109,777
175,837	-16,681	246,776	109,976
176,852	-17,061	246,742	109,634
177,867	-17,071	246,532	109,523
178,881	-16,851	246,283	109,585
179,896	-16,925	246,028	109,401
180,910	-16,797	245,880	109,432
181,925	-16,978	245,629	109,160
182,940	-16,915	245,437	109,117
183,954	-16,920	245,285	109,036
184,969	-17,086	245,236	108,867
185,983	-16,923	244,970	108,874
186,998	-16,966	244,827	108,765
188,013	-16,930	244,619	108,692
189,027	-17,079	244,523	108,517
190,042	-17,066	244,294	108,416
191,056	-17,143	244,196	108,299
192,071	-16,927	243,878	108,327
193,086	-16,890	243,856	108,337
194,100	-16,898	243,503	108,165
195,115	-17,082	243,418	107,966
196,129	-16,903	243,107	107,966
197,144	-16,845	242,975	107,945
198,159	-16,922	242,782	107,786
199,173	-16,933	242,678	107,721
200,188	-16,963	242,500	107,608
201,202	-16,929	242,364	107,566
202,217	-16,824	242,164	107,554
203,232	-16,790	241,894	107,452
204,246	-16,984	241,755	107,223
205,261	-16,947	241,597	107,173
206,275	-15,715	242,056	108,373
207,290	-10,691	243,877	113,307
208,304	-4,464	245,606	119,242
209,319	-1,653	246,213	121,848
210,334	-0,920	246,524	122,596
211,348	0,241	246,799	123,681
212,363	0,845	246,717	124,128
213,377	1,283	246,933	124,587
214,392	1,537	246,751	124,693
215,407	1,719	246,714	124,814
216,421	1,912	246,632	124,920
217,436	2,006	246,358	124,848
218,450	1,803	246,242	124,611
219,465	1,820	246,032	124,508
220,480	1,757	245,887	124,371
221,494	1,497	245,712	124,058
222,509	1,145	245,474	123,638
223,523	1,210	245,059	123,471
224,538	1,009	244,865	123,198
225,553	0,994	244,766	123,125
226,567	0,844	244,549	122,883
227,582	0,933	244,423	122,881
228,596	0,912	244,192	122,737
229,611	0,937	244,209	122,755
230,626	1,020	243,775	122,594
231,640	0,918	243,689	122,456
232,655	0,790	243,595	122,294
233,669	0,932	243,401	122,301
234,684	0,758	243,418	122,157
235,699	0,989	243,232	122,241
236,713	0,976	243,086	122,146
237,728	0,901	242,734	121,897
238,742	0,846	242,661	121,805
239,757	0,832	242,548	121,726
240,772	0,848	242,354	121,631
241,786	0,637	242,197	121,370
242,801	0,664	242,102	121,334
243,815	0,797	241,765	121,261
244,830	0,979	241,625	121,327
245,844	1,043	241,585	121,348
246,859	0,705	241,387	120,965
247,874	1,050	241,189	121,133
248,888	0,799	241,140	120,896
249,903	0,655	240,975	120,686
250,917	0,916	240,857	120,826
251,932	1,003	240,697	120,805
252,947	1,106	240,501	120,779
253,961	0,843	240,399	120,505
254,976	0,939	240,145	120,444
255,990	0,931	239,980	120,344
257,005	1,050	239,868	120,372
258,020	1,081	239,770	120,338
259,034	1,124	239,520	120,235
260,049	1,052	239,317	120,066
261,063	0,973	239,192	119,929
262,078	0,932	238,897	119,738
263,093	0,823	238,894	119,639
264,107	1,027	238,733	119,710
265,122	1,037	238,525	119,603
266,136	1,006	238,483	119,547
267,151	0,852	238,293	119,319
268,166	0,875	238,057	119,209
269,180	0,916	237,833	119,118
270,195	1,259	237,798	119,361
271,209	0,873	237,704	118,998
272,224	0,986	237,509	118,979
273,239	0,882	237,283	118,773
274,253	1,081	237,164	118,860
275,268	0,931	236,973	118,636
276,282	0,840	236,921	118,527
277,297	0,856	236,766	118,452
278,312	0,888	236,637	118,401
279,326	0,933	236,443	118,330
280,341	0,874	236,410	118,256
281,355	0,704	236,343	118,078
282,370	1,018	235,997	118,142
283,384	0,814	235,828	117,886
284,399	0,781	235,764	117,818
285,414	0,907	235,576	117,812
286,428	1,008	235,345	117,765
287,443	1,060	235,300	117,772
288,457	0,850	235,080	117,488
289,472	0,903	234,993	117,475
290,487	0,855	234,892	117,377
291,501	1,145	234,537	117,415
292,516	0,827	234,597	117,187
293,530	0,982	234,354	117,176
294,545	0,897	234,350	117,097
295,560	0,605	234,131	116,750
296,574	1,157	233,715	116,961
297,589	0,975	233,695	116,799
298,603	1,086	233,645	116,850
299,618	0,892	233,511	116,622
300,633	0,884	233,493	116,596
301,647	0,935	233,208	116,483
302,662	1,007	233,234	116,542
303,676	1,428	232,744	116,611
304,691	1,112	232,755	116,362
305,706	1,075	232,571	116,231
306,720	1,357	232,345	116,325
307,735	0,953	232,400	116,031
308,749	1,135	232,161	116,042
309,764	1,000	232,002	115,848
310,779	0,996	231,911	115,789
311,793	1,095	231,666	115,733
312,808	1,233	231,534	115,762
313,822	1,166	231,382	115,625
314,837	1,074	231,296	115,501
315,852	1,228	231,086	115,503
316,866	1,148	231,110	115,444
317,881	1,256	230,709	115,315
318,895	1,125	230,692	115,197
319,910	1,241	230,426	115,142
320,925	1,049	230,442	114,994
321,939	1,069	230,122	114,839
322,954	1,236	230,086	114,938
323,968	1,308	229,868	114,874
324,983	1,144	229,766	114,688
325,997	1,183	229,619	114,633
327,012	1,025	229,507	114,448
328,027	1,036	229,296	114,341
329,041	1,020	229,285	114,312
330,056	1,171	228,880	114,215
331,070	1,280	228,848	114,272
332,085	1,143	228,707	114,087
333,100	1,237	228,519	114,054
334,114	1,097	228,448	113,903
335,129	1,474	228,226	114,067
336,143	1,114	228,108	113,725
337,158	1,234	228,093	113,799
338,173	1,297	227,893	113,736
339,187	1,349	227,787	113,712
340,202	1,058	227,650	113,415
341,216	1,299	227,486	113,503
342,231	1,254	227,249	113,341
343,246	1,202	227,155	113,246
344,260	1,048	227,047	113,067
345,275	1,159	227,077	113,154
346,289	1,263	226,625	112,997
347,304	1,476	226,518	113,093
348,319	1,226	226,433	112,854
349,333	1,089	226,244	112,647
350,348	1,293	226,107	112,721
351,362	1,282	225,970	112,634
352,377	1,242	225,962	112,591
353,392	1,337	225,657	112,499
354,406	1,343	225,606	112,468
355,421	191,447	1311,946	1376,353
356,435	153,328	1444,159	1376,202
