DTS Sentinel unit serial number:	SN410029Multiplexer serial number:	ORYXHardware model number:	OX2-SRSoftware version number:	ORYX F/W v4,00 Oryx Data Collector v3.7.2.0data status	okinstallation	B5 Nyhavnadifferential loss correction	single-endedforward channel	channel 2reverse channel	N/Adate	2023/12/14time	14:17:13forward acquisition time	300,00reverse acquisition time	0,00gamma	499,1914k internal	0,3156k external	0,3156temperature offset calibration	1,0000default loss term (dB/km)	0,3820temperature slope calibration	1,0000multiplexer offset coefficient	1,0000multiplexer slope coefficient	1,0000fibre end	0,00T internal ref (°C)	8,04T ext. ref 1 (°C)	-8,02T ext. ref 2 (°C)	-8,08length (m)	temperature (°C)	Stokes	anti-Stokes-744,400	-116,117	0,088	-0,012
-743,385	-4,516	-0,429	-0,218
-742,371	130,090	0,108	0,102
-741,356	-163,407	-0,367	-0,013
-740,342	-103,604	0,109	0,019
-739,327	-95,822	-0,323	0,063
-738,312	800,000	0,055	0,162
-737,298	-101,311	-0,421	-0,075
-736,283	-9,358	0,160	0,079
-735,269	-79,214	-0,443	0,110
-734,254	-200,000	0,012	0,238
-733,239	12,476	-0,524	-0,297
-732,225	-94,017	0,204	0,041
-731,210	15,369	0,092	0,053
-730,196	143,583	0,042	0,041
-729,181	-35,079	-0,032	-0,013
-728,167	-18,463	-0,112	-0,051
-727,152	800,000	-0,052	-0,110
-726,137	27,444	-0,100	-0,062
-725,123	800,000	0,018	0,059
-724,108	34,859	-0,180	-0,116
-723,094	184,812	-0,106	-0,116
-722,079	-200,000	-0,003	0,068
-721,064	-185,425	-0,067	0,001
-720,050	623,027	-0,076	-0,143
-719,035	411,518	-0,045	0,071
-718,021	-200,000	-0,016	0,096
-717,006	-24,269	-0,062	-0,027
-715,991	3,110	-0,115	-0,062
-714,977	187,486	-0,090	0,099
-713,962	-200,000	0,008	-0,039
-712,948	800,000	0,044	0,118
-711,933	-200,000	-0,012	-0,123
-710,918	-82,001	-0,020	-0,005
-709,904	82,046	0,114	0,091
-708,889	233,260	-0,064	0,077
-707,875	33,196	-0,159	-0,101
-706,860	-27,627	0,082	-0,035
-705,845	170,506	0,045	-0,047
-704,831	489,017	-0,038	-0,065
-703,816	189,519	-0,056	-0,062
-702,802	-164,849	-0,146	0,005
-701,787	186,667	-0,130	-0,143
-700,772	-53,651	-0,079	-0,026
-699,758	-200,000	0,015	-0,112
-698,743	480,461	-0,056	-0,094
-697,729	89,965	0,027	0,022
-696,714	-104,710	0,099	-0,017
-695,699	272,903	0,074	0,096
-694,685	800,000	-0,034	0,078
-693,670	12,242	-0,091	-0,051
-692,656	77,043	0,051	-0,040
-691,641	610,583	0,037	-0,069
-690,627	-120,157	-0,032	-0,004
-689,612	800,000	-0,015	-0,031
-688,597	-26,990	-0,138	-0,059
-687,583	-200,000	-0,015	-0,177
-686,568	-200,000	0,009	-0,046
-685,554	-200,000	-0,013	-0,073
-684,539	-200,000	0,022	-0,077
-683,524	214,318	0,110	-0,128
-682,510	166,028	-0,053	-0,056
-681,495	-140,914	0,039	-0,003
-680,481	645,302	-0,033	-0,063
-679,466	-152,494	-0,075	-0,004
-678,451	-200,000	-0,044	-0,177
-677,437	127,180	-0,122	-0,114
-676,422	371,817	0,028	-0,042
-675,408	800,000	-0,037	-0,117
-674,393	-200,000	-0,003	-0,035
-673,378	-141,713	0,065	-0,005
-672,364	800,000	-0,025	-0,053
-671,349	800,000	-0,044	-0,125
-670,335	123,449	-0,089	-0,082
-669,320	-200,000	0,023	-0,184
-668,305	293,267	-0,123	-0,165
-667,291	53,925	-0,050	0,035
-666,276	101,211	-0,060	-0,051
-665,262	150,641	-0,070	-0,070
-664,247	-200,000	0,028	-0,167
-663,232	216,863	-0,073	0,085
-662,218	-1,139	0,116	0,060
-661,203	-104,524	-0,112	-0,019
-660,189	-200,000	-0,012	0,104
-659,174	800,000	-0,067	-0,142
-658,159	800,000	0,066	0,138
-657,145	-93,511	-0,128	-0,026
-656,130	275,418	0,022	-0,029
-655,116	257,676	0,095	0,121
-654,101	272,857	0,043	0,056
-653,086	-200,000	0,008	0,049
-652,072	-200,000	0,006	-0,130
-651,057	205,492	-0,058	-0,066
-650,043	-44,778	0,147	-0,054
-649,028	26,674	-0,072	-0,044
-648,014	366,249	0,023	0,035
-646,999	-200,000	-0,008	-0,079
-645,984	255,646	-0,104	-0,132
-644,970	-159,419	-0,059	0,002
-643,955	163,837	-0,027	0,028
-642,941	99,452	-0,151	0,128
-641,926	399,801	0,030	-0,046
-640,911	25,783	0,079	0,048
-639,897	677,268	-0,051	0,098
-638,882	-31,551	0,017	0,007
-637,868	-94,187	0,056	-0,011
-636,853	-8,084	-0,122	-0,060
-635,838	481,394	-0,058	-0,096
-634,824	-82,560	-0,064	-0,015
-633,809	3,048	0,134	-0,071
-632,795	58,024	0,066	-0,047
-631,780	-200,000	-0,018	-0,086
-630,765	-200,000	0,012	-0,044
-629,751	-200,000	-0,014	-0,070
-628,736	343,510	0,039	0,057
-627,722	417,976	0,038	0,059
-626,707	-200,000	0,027	-0,097
-625,692	258,420	-0,055	0,069
-624,678	-200,000	0,014	-0,110
-623,663	65,683	0,077	0,057
-622,649	-110,071	-0,077	0,012
-621,634	-200,000	-0,029	-0,102
-620,619	33,732	-0,157	-0,100
-619,605	56,126	0,091	-0,065
-618,590	800,000	-0,022	0,049
-617,576	-31,693	0,126	0,052
-616,561	-200,000	0,026	0,160
-615,546	800,000	-0,044	0,104
-614,532	154,908	-0,111	-0,113
-613,517	-200,000	0,030	-0,099
-612,503	800,000	-0,048	0,152
-611,488	313,926	-0,020	0,027
-610,474	508,235	-0,033	-0,057
-609,459	586,259	0,027	-0,049
-608,444	-145,153	0,094	0,006
-607,430	-84,330	-0,199	0,046
-606,415	-200,000	-0,021	-0,129
-605,401	487,260	0,039	-0,065
-604,386	-200,000	0,022	0,077
-603,371	-200,000	0,010	0,197
-602,357	154,218	-0,046	0,046
-601,342	269,425	0,016	-0,020
-600,328	800,000	0,020	-0,045
-599,313	-200,000	0,019	-0,108
-598,298	800,000	-0,040	-0,113
-597,284	-200,000	-0,018	0,169
-596,269	-116,561	-0,035	-0,005
-595,255	-9,596	-0,045	-0,022
-594,240	259,494	0,015	0,018
-593,225	-127,131	-0,100	-0,011
-592,211	-200,000	0,010	-0,060
-591,196	-50,192	0,162	0,056
-590,182	-45,737	-0,037	0,014
-589,167	33,944	-0,106	0,067
-588,152	162,971	-0,014	0,015
-587,138	474,989	0,011	0,019
-586,123	-188,002	-0,083	0,001
-585,109	-200,000	0,001	0,093
-584,094	-118,762	0,119	0,015
-583,079	299,550	0,020	0,026
-582,065	137,740	0,059	0,057
-581,050	-60,504	-0,072	0,022
-580,036	-200,000	0,001	0,057
-579,021	-91,958	0,023	-0,005
-578,006	-163,333	-0,056	-0,002
-576,992	-200,000	-0,005	0,042
-575,977	170,316	-0,126	-0,132
-574,963	-90,174	0,105	-0,022
-573,948	800,000	-0,035	0,111
-572,934	-200,000	0,011	0,050
-571,919	-180,173	-0,244	0,004
-570,904	-200,000	-0,006	-0,034
-569,890	800,000	0,060	-0,147
-568,875	800,000	-0,033	0,092
-567,861	-43,585	-0,083	-0,030
-566,846	-77,254	0,055	-0,014
-565,831	49,756	-0,049	-0,034
-564,817	-105,047	-0,102	-0,017
-563,802	145,702	0,047	0,046
-562,788	101,580	-0,088	-0,075
-561,773	-200,000	-0,022	-0,107
-560,758	131,536	0,063	0,059
-559,744	776,881	-0,030	-0,060
-558,729	800,000	0,020	-0,043
-557,715	-200,000	0,036	-0,119
-556,700	353,290	0,063	-0,092
-555,685	337,605	-0,041	-0,059
-554,671	42,322	0,020	0,013
-553,656	-173,258	-0,090	0,002
-552,642	800,000	0,054	-0,136
-551,627	-58,287	-0,102	-0,032
-550,612	-80,766	-0,146	0,035
-549,598	113,191	-0,051	-0,045
-548,583	-142,315	-0,037	-0,003
-547,569	-200,000	-0,023	-0,076
-546,554	-141,369	0,121	0,009
-545,539	800,000	-0,040	-0,100
-544,525	800,000	-0,037	-0,084
-543,510	82,900	-0,071	-0,057
-542,496	-200,000	0,018	0,110
-541,481	-127,875	-0,100	-0,010
-540,466	800,000	0,060	-0,183
-539,452	-200,000	-0,005	-0,043
-538,437	75,614	-0,114	-0,088
-537,423	155,188	-0,135	0,136
-536,408	-200,000	0,017	0,111
-535,393	-161,435	0,070	0,003
-534,379	800,000	-0,058	-0,124
-533,364	366,897	-0,045	0,067
-532,350	100,540	-0,063	0,054
-531,335	248,164	-0,094	0,116
-530,321	-15,616	0,094	-0,044
-529,306	-26,423	-0,094	0,040
-528,291	-200,000	0,005	0,068
-527,277	172,859	-0,097	-0,102
-526,262	-57,778	0,020	0,006
-525,248	67,396	0,097	-0,072
-524,233	-115,909	0,120	-0,016
-523,218	-200,000	-0,025	-0,098
-522,204	800,000	0,062	-0,171
-521,189	-200,000	0,047	-0,185
-520,175	800,000	0,016	-0,034
-519,160	-140,116	-0,122	-0,009
-518,145	-148,925	0,123	-0,007
-517,131	800,000	-0,036	-0,112
-516,116	-35,911	-0,052	0,020
-515,102	-104,747	-0,206	0,034
-514,087	149,313	-0,098	-0,097
-513,072	117,970	0,012	-0,011
-512,058	-200,000	-0,010	-0,032
-511,043	170,851	-0,060	0,063
-510,029	800,000	-0,021	0,054
-509,014	450,221	-0,057	0,093
-507,999	-42,519	-0,053	-0,020
-506,985	800,000	-0,020	0,060
-505,970	628,306	-0,074	0,137
-504,956	472,339	-0,046	0,075
-503,941	-200,000	-0,005	-0,020
-502,926	-200,000	-0,002	0,024
-501,912	405,458	-0,084	0,129
-500,897	800,000	0,035	0,105
-499,883	103,411	-0,123	0,106
-498,868	132,324	-0,043	-0,040
-497,853	-31,962	-0,081	-0,033
-496,839	800,000	0,033	0,076
-495,824	-80,948	0,069	-0,017
-494,810	-185,171	0,116	-0,001
-493,795	-200,000	0,013	0,052
-492,781	-200,000	0,007	-0,037
-491,766	800,000	0,024	-0,053
-490,751	800,000	-0,032	0,067
-489,737	74,742	0,076	-0,058
-488,722	-127,068	0,070	0,007
-487,708	-200,000	0,044	0,163
-486,693	-200,000	0,001	0,145
-485,678	800,000	-0,014	0,043
-484,664	-38,409	-0,045	0,017
-483,649	68,750	-0,051	-0,038
-482,635	-200,000	-0,007	0,058
-481,620	-200,000	0,005	0,062
-480,605	-121,886	0,044	-0,005
-479,591	-15,436	-0,039	0,018
-478,576	-44,849	-0,178	-0,064
-477,562	84,104	-0,053	-0,042
-476,547	-200,000	0,025	-0,148
-475,532	-200,000	0,008	-0,032
-474,518	-8,292	0,080	0,039
-473,503	-200,000	0,005	0,167
-472,489	-200,000	0,017	0,127
-471,474	52,003	-0,054	-0,038
-470,459	-78,043	0,023	0,006
-469,445	196,166	-0,062	-0,069
-468,430	557,536	-0,082	-0,145
-467,416	382,824	-0,075	0,112
-466,401	-100,505	0,100	-0,018
-465,386	-176,106	-0,047	-0,001
-464,372	-200,000	-0,018	0,168
-463,357	102,393	-0,079	0,067
-462,343	40,155	0,069	-0,045
-461,328	-200,000	0,070	-0,262
-460,313	511,938	0,054	0,092
-459,299	-43,173	0,110	0,040
-458,284	-200,000	-0,031	0,160
-457,270	398,966	-0,017	-0,026
-456,255	29,539	0,005	-0,003
-455,241	225,694	-0,073	0,087
-454,226	-61,660	0,053	-0,016
-453,211	406,473	0,074	-0,114
-452,197	377,224	-0,043	-0,065
-451,182	800,000	-0,041	0,126
-450,168	-200,000	-0,009	0,048
-449,153	8,986	-0,052	-0,029
-448,138	-200,000	-0,001	-0,096
-447,124	-11,059	-0,059	-0,028
-446,109	-200,000	-0,033	-0,113
-445,095	-127,023	0,042	0,004
-444,080	-9,428	-0,079	-0,039
-443,065	502,609	0,055	0,092
-442,051	-200,000	0,009	0,050
-441,036	-49,757	-0,072	0,025
-440,022	673,265	-0,030	-0,057
-439,007	5,241	-0,111	-0,060
-437,992	206,440	0,104	0,118
-436,978	-185,150	-0,070	-0,001
-435,963	-90,999	-0,086	-0,018
-434,949	-99,344	0,215	0,039
-433,934	441,721	0,011	0,018
-432,919	-52,119	0,010	-0,003
-431,905	-200,000	0,005	0,029
-430,890	800,000	-0,009	0,021
-429,876	-200,000	-0,050	0,167
-428,861	-200,000	0,003	0,028
-427,846	63,813	0,088	0,064
-426,832	137,661	0,038	0,036
-425,817	576,525	0,078	-0,140
-424,803	-200,000	-0,009	-0,070
-423,788	-98,294	0,104	-0,019
-422,773	-200,000	-0,026	0,090
-421,759	-200,000	-0,026	0,142
-420,744	197,822	0,045	0,051
-419,730	-50,943	-0,038	0,013
-418,715	198,332	0,030	0,033
-417,701	186,457	0,075	-0,081
-416,686	-70,745	0,035	-0,010
-415,671	61,494	0,091	-0,066
-414,657	11,277	0,077	0,043
-413,642	-200,000	-0,039	0,126
-412,628	-200,000	0,013	-0,101
-411,613	207,690	0,102	-0,116
-410,598	562,293	0,017	-0,031
-409,584	-200,000	0,002	0,132
-408,569	99,721	0,057	0,048
-407,555	800,000	-0,032	-0,093
-406,540	-29,485	-0,096	0,040
-405,525	361,412	-0,038	0,056
-404,511	19,683	-0,094	-0,055
-403,496	48,016	0,101	-0,068
-402,482	-167,685	0,085	-0,002
-401,467	-200,000	0,003	0,009
-400,452	63,524	0,071	-0,051
-399,438	800,000	-0,047	-0,145
-398,423	-51,694	0,164	-0,055
-397,409	-88,390	-0,045	0,010
-396,394	-0,899	0,027	0,014
-395,379	-200,000	-0,023	-0,114
-394,365	-200,000	-0,015	-0,143
-393,350	-23,759	0,091	0,039
-392,336	23,941	-0,107	-0,064
-391,321	350,031	0,053	-0,076
-390,306	-62,118	-0,103	0,031
-389,292	800,000	-0,021	-0,046
-388,277	-200,000	0,005	0,104
-387,263	-200,000	0,010	0,182
-386,248	-144,709	0,033	-0,002
-385,233	55,725	0,024	-0,017
-384,219	17,965	0,038	-0,022
-383,204	-200,000	0,002	-0,077
-382,190	527,678	0,018	-0,031
-381,175	-115,635	0,156	-0,021
-380,160	-176,691	-0,082	0,001
-379,146	123,360	0,061	-0,056
-378,131	-200,000	-0,021	0,110
-377,117	170,589	-0,135	-0,141
-376,102	229,995	0,100	-0,119
-375,088	-200,000	0,010	0,106
-374,073	30,256	-0,058	-0,036
-373,058	-200,000	-0,006	0,072
-372,044	59,938	-0,075	0,054
-371,029	-57,311	-0,091	0,029
-370,015	33,161	0,073	-0,046
-369,000	-8,148	-0,037	-0,018
-367,985	576,040	0,064	-0,115
-366,971	800,000	-0,027	0,070
-365,956	362,717	0,064	0,093
-364,942	103,313	0,066	0,056
-363,927	-200,000	0,012	-0,050
-362,912	354,391	-0,064	0,092
-361,898	63,427	-0,244	-0,178
-360,883	-200,000	-0,030	-0,192
-359,869	-66,010	0,132	-0,038
-358,854	-86,785	-0,020	0,004
-357,839	153,506	0,075	0,074
-356,825	-147,185	0,177	0,011
-355,810	800,000	-0,027	0,056
-354,796	-54,271	-0,103	0,034
-353,781	800,000	-0,016	-0,043
-352,766	-200,000	0,009	-0,112
-351,752	424,381	-0,053	0,082
-350,737	-60,801	-0,019	-0,006
-349,723	800,000	-0,047	0,138
-348,708	-133,787	0,041	-0,004
-347,693	458,453	-0,047	0,075
-346,679	-121,325	-0,056	-0,007
-345,664	-200,000	0,007	-0,058
-344,650	45,933	0,087	-0,059
-343,635	34,858	0,082	-0,052
-342,620	-162,396	0,064	-0,002
-341,606	45,762	0,049	0,033
-340,591	91,356	-0,006	-0,005
-339,577	252,459	-0,081	-0,100
-338,562	-200,000	-0,021	-0,140
-337,548	41,307	-0,117	0,077
-336,533	142,642	0,113	0,109
-335,518	-44,082	-0,158	0,057
-334,504	55,290	-0,025	-0,017
-333,489	153,414	0,155	0,154
-332,475	169,491	-0,078	0,081
-331,460	-28,813	-0,052	-0,021
-330,445	26,376	0,048	0,029
-329,431	114,114	-0,027	-0,024
-328,416	-113,287	0,165	-0,023
-327,402	234,748	0,049	0,059
-326,387	16,442	0,082	-0,047
-325,372	800,000	0,082	-0,187
-324,358	800,000	0,031	-0,097
-323,343	-200,000	-0,009	-0,036
-322,329	116,460	-0,044	-0,039
-321,314	171,491	0,125	0,130
-320,299	45,789	0,067	0,045
-319,285	112,327	-0,027	-0,024
-318,270	800,000	0,025	0,063
-317,256	800,000	0,068	-0,203
-316,241	558,316	-0,066	-0,116
-315,226	-120,759	-0,093	-0,011
-314,212	-93,963	0,168	-0,033
-313,197	192,453	0,047	-0,051
-312,183	800,000	0,028	0,079
-311,168	-200,000	0,040	-0,166
-310,153	-140,853	0,150	0,011
-309,139	683,255	-0,041	-0,078
-308,124	76,350	-0,067	-0,051
-307,110	-56,559	0,063	0,020
-306,095	40,677	-0,026	-0,017
-305,080	409,084	0,054	0,083
-304,066	-80,809	-0,133	0,032
-303,051	-2,936	-0,052	0,026
-302,037	139,874	0,125	-0,119
-301,022	336,366	0,024	-0,034
-300,008	115,578	0,090	0,080
-298,993	-200,000	-0,019	0,090
-297,978	115,076	0,054	-0,048
-296,964	56,168	-0,041	0,029
-295,949	-200,000	-0,010	-0,038
-294,935	21,596	-0,099	-0,058
-293,920	-200,000	0,005	-0,069
-292,905	189,488	0,053	0,058
-291,891	112,878	0,052	0,046
-290,876	4,470	0,168	0,089
-289,862	-160,078	-0,081	0,003
-288,847	-186,860	0,042	0,000
-287,832	147,470	0,072	0,070
-286,818	-42,480	0,055	-0,020
-285,803	379,286	0,051	-0,075
-284,789	109,006	0,141	0,122
-283,774	205,761	0,037	-0,042
-282,759	-200,000	0,016	0,112
-281,745	-71,162	-0,164	0,044
-280,730	420,525	0,078	-0,122
-279,716	-200,000	0,026	0,168
-278,701	-41,021	0,092	0,034
-277,686	-26,023	0,120	0,051
-276,672	800,000	-0,037	0,103
-275,657	123,347	0,035	-0,032
-274,643	394,106	-0,024	-0,037
-273,628	4,588	0,115	-0,061
-272,613	-200,000	0,011	-0,190
-271,599	800,000	-0,042	0,122
-270,584	-104,759	0,166	0,027
-269,570	-200,000	0,042	0,136
-268,555	-132,024	-0,043	-0,004
-267,540	-200,000	0,004	-0,026
-266,526	-1,421	0,027	-0,014
-265,511	-200,000	-0,003	-0,118
-264,497	800,000	0,017	0,044
-263,482	-133,629	0,149	0,013
-262,467	324,320	0,072	0,100
-261,453	121,625	0,048	0,044
-260,438	-200,000	-0,027	-0,095
-259,424	-200,000	0,012	-0,047
-258,409	-200,000	-0,015	-0,094
-257,395	-200,000	-0,000	-0,022
-256,380	134,710	0,035	-0,033
-255,365	27,923	0,069	-0,042
-254,351	212,230	-0,083	-0,095
-253,336	-16,462	-0,043	-0,020
-252,322	-45,158	-0,210	0,075
-251,307	-93,311	0,120	-0,024
-250,292	98,055	-0,061	0,051
-249,278	-27,837	0,019	0,008
-248,263	-151,336	-0,024	0,001
-247,249	-83,913	-0,114	-0,026
-246,234	9,723	0,036	-0,020
-245,219	-200,000	0,016	-0,073
-244,205	-200,000	-0,012	-0,084
-243,190	-200,000	0,014	0,072
-242,176	800,000	-0,014	-0,033
-241,161	-120,124	-0,057	0,007
-240,146	-200,000	0,006	0,101
-239,132	800,000	0,036	0,094
-238,117	-21,586	0,103	-0,045
-237,103	-28,271	0,032	0,014
-236,088	255,257	0,053	-0,066
-235,073	-61,131	-0,076	0,023
-234,059	-121,695	0,078	-0,009
-233,044	800,000	0,050	0,151
-232,030	-200,000	0,014	0,103
-231,015	-200,000	0,008	-0,202
-230,000	61,563	-0,014	-0,010
-228,986	326,224	0,042	0,058
-227,971	-200,000	0,029	-0,159
-226,957	-200,000	-0,017	0,104
-225,942	109,370	0,074	0,064
-224,927	166,458	0,124	-0,128
-223,913	-200,000	-0,007	-0,025
-222,898	-10,954	0,026	0,012
-221,884	5,290	-0,132	0,070
-220,869	119,371	-0,113	0,101
-219,855	-69,594	0,055	-0,015
-218,840	-200,000	0,009	0,172
-217,825	-200,000	-0,004	-0,069
-216,811	34,592	-0,147	0,093
-215,796	-200,000	0,022	0,097
-214,782	734,434	-0,050	-0,098
-213,767	581,937	0,064	-0,114
-212,752	-122,579	0,018	0,002
-211,738	-200,000	-0,039	0,137
-210,723	-200,000	-0,017	0,151
-209,709	-51,133	-0,189	-0,064
-208,694	232,405	-0,102	-0,121
-207,679	-38,475	0,053	0,020
-206,665	-200,000	0,015	0,111
-205,650	800,000	-0,042	0,120
-204,636	-200,000	0,000	0,090
-203,621	506,437	-0,048	0,080
-202,606	-200,000	0,017	0,176
-201,592	-42,293	0,074	-0,027
-200,577	-101,985	0,059	-0,010
-199,563	6,382	-0,148	-0,079
-198,548	34,680	-0,013	-0,008
-197,533	800,000	-0,016	-0,048
-196,519	385,001	0,015	-0,023
-195,504	-42,328	-0,092	0,034
-194,490	108,652	0,088	-0,076
-193,475	800,000	-0,037	-0,116
-192,460	-43,801	0,007	0,002
-191,446	14,160	0,123	0,069
-190,431	-80,166	0,060	0,014
-189,417	-42,852	-0,144	0,052
-188,402	-57,305	0,123	-0,039
-187,387	38,161	-0,023	-0,015
-186,373	800,000	0,018	0,043
-185,358	-81,767	0,074	0,017
-184,344	389,543	0,031	-0,046
-183,329	-200,000	0,014	0,131
-182,315	-24,726	0,032	0,014
-181,300	800,000	0,011	-0,027
-180,285	103,110	-0,053	0,045
-179,271	-133,512	0,072	0,006
-178,256	800,000	0,009	-0,025
-177,242	205,586	-0,061	0,069
-176,227	32,203	0,146	0,091
-175,212	-200,000	0,004	0,048
-174,198	448,972	0,023	-0,036
-173,183	-200,000	-0,008	-0,108
-172,169	-200,000	-0,017	0,057
-171,154	-56,081	0,097	0,031
-170,139	86,875	0,027	0,021
-169,125	800,000	0,043	-0,091
-168,110	-136,554	0,025	0,002
-167,096	-200,000	0,004	0,078
-166,081	-200,000	-0,012	0,045
-165,066	-172,932	-0,130	-0,003
-164,052	93,687	-0,071	0,058
-163,037	800,000	0,022	-0,066
-162,023	-170,725	0,110	-0,003
-161,008	-30,346	-0,049	0,020
-159,993	71,030	0,068	-0,051
-158,979	-200,000	0,009	0,058
-157,964	539,363	-0,071	0,122
-156,950	720,886	-0,046	0,089
-155,935	273,998	0,046	-0,059
-154,920	0,590	-0,076	-0,039
-153,906	-14,346	0,054	0,025
-152,891	8,227	-0,013	0,007
-151,877	800,000	-0,051	0,136
-150,862	150,295	-0,033	0,032
-149,847	-43,901	-0,050	-0,018
-148,833	-200,000	-0,013	0,061
-147,818	-200,000	-0,003	0,049
-146,804	800,000	-0,038	-0,088
-145,789	117,413	0,063	0,056
-144,775	589,815	-0,050	0,090
-143,760	-200,000	-0,005	0,096
-142,745	284,625	-0,045	-0,059
-141,731	385,677	0,036	-0,053
-140,716	-73,704	0,192	0,050
-139,702	631,677	0,021	-0,039
-138,687	-200,000	-0,009	-0,110
-137,672	-200,000	-0,009	-0,054
-136,658	69,592	-0,038	0,028
-135,643	208,644	0,076	-0,085
-134,629	800,000	-0,045	-0,095
-133,614	236,711	0,023	0,028
-132,599	86,287	0,050	0,040
-131,585	800,000	0,021	-0,043
-130,570	-50,845	-0,057	0,019
-129,556	800,000	0,026	-0,075
-128,541	-200,000	-0,022	-0,111
-127,526	-200,000	-0,017	-0,096
-126,512	800,000	-0,048	-0,131
-125,497	800,000	0,063	0,145
-124,483	-200,000	-0,009	-0,062
-123,468	492,149	0,081	-0,133
-122,453	-200,000	0,008	0,059
-121,439	313,356	0,028	-0,037
-120,424	768,733	0,044	0,086
-119,410	450,040	0,026	0,042
-118,395	85,603	0,046	0,036
-117,380	800,000	-0,065	0,135
-116,366	800,000	-0,025	0,053
-115,351	800,000	-0,018	-0,053
-114,337	-72,186	-0,129	-0,034
-113,322	800,000	-0,036	0,092
-112,307	193,635	-0,030	-0,033
-111,293	-85,309	0,070	-0,016
-110,278	-200,000	-0,060	0,205
-109,264	-54,568	0,094	-0,031
-108,249	-68,386	0,101	-0,028
-107,234	71,938	-0,045	0,033
-106,220	-64,447	-0,036	0,010
-105,205	800,000	-0,029	0,077
-104,191	99,028	0,128	0,106
-103,176	-200,000	-0,005	-0,031
-102,162	-134,784	-0,118	0,010
-101,147	-29,667	-0,016	-0,006
-100,132	88,172	-0,134	-0,107
-99,118	133,931	0,070	-0,065
-98,103	203,156	-0,045	0,051
-97,089	800,000	0,024	-0,047
-96,074	49,314	-0,090	-0,061
-95,059	127,349	-0,111	-0,101
-94,045	-93,156	0,112	0,022
-93,030	-89,786	-0,184	0,038
-92,016	271,709	-0,064	-0,081
-91,001	83,929	0,103	0,080
-89,986	-200,000	0,049	0,159
-88,972	800,000	-0,017	0,055
-87,957	213,719	0,036	-0,041
-86,943	-200,000	-0,029	-0,103
-85,928	800,000	0,008	-0,020
-84,913	428,222	-0,016	-0,026
-83,899	353,726	-0,097	0,139
-82,884	-196,189	0,092	0,000
-81,870	291,055	-0,080	-0,105
-80,855	-57,854	0,174	0,054
-79,840	-136,374	0,112	0,009
-78,826	372,435	-0,023	-0,034
-77,811	172,464	-0,040	-0,042
-76,797	800,000	-0,054	-0,128
-75,782	728,179	0,014	-0,027
-74,767	275,176	0,018	-0,023
-73,753	211,771	-0,099	0,112
-72,738	800,000	-0,013	0,035
-71,724	240,594	0,048	-0,057
-70,709	23,454	-0,099	0,058
-69,694	-200,000	-0,036	-0,230
-68,680	-151,937	-0,067	0,003
-67,665	93,111	0,088	0,072
-66,651	-75,040	-0,106	-0,027
-65,636	-200,000	0,030	-0,098
-64,622	-54,104	-0,068	-0,022
-63,607	744,010	-0,045	0,087
-62,592	4,745	-0,045	-0,024
-61,578	-200,000	0,000	0,108
-60,563	139,451	0,063	0,060
-59,549	-200,000	-0,024	0,106
-58,534	67,760	-2,755	-2,020
-57,519	7,680	0,528	-0,283
-56,505	-200,000	-1,602	-5,471
-55,490	500,269	1,343	2,233
-54,476	800,000	5,149	10,979
-53,461	-200,000	22,230	347,742
-52,446	800,000	760,563	2299,623
-51,432	514,865	1646,304	2769,441
-50,417	98,219	1610,243	1330,755
-49,403	66,277	1266,860	922,530
-48,388	23,306	1018,054	598,997
-47,373	19,274	985,256	566,373
-46,359	12,948	972,114	538,097
-45,344	8,664	968,970	522,297
-44,330	9,142	966,906	522,730
-43,315	8,181	965,065	518,573
-42,300	8,113	963,932	517,719
-41,286	8,121	962,869	517,155
-40,271	8,153	961,922	516,730
-39,257	8,083	961,013	515,994
-38,242	8,087	960,250	515,576
-37,227	8,061	959,549	515,095
-36,213	8,068	958,404	514,482
-35,198	8,029	957,812	514,018
-34,184	8,077	957,007	513,722
-33,169	8,083	955,984	513,171
-32,154	8,093	955,082	512,699
-31,140	8,102	954,324	512,301
-30,125	8,138	953,407	511,905
-29,111	8,075	952,690	511,296
-28,096	8,097	952,149	511,057
-27,082	8,024	951,488	510,446
-26,067	8,039	950,582	509,988
-25,052	8,025	949,854	509,532
-24,038	8,064	949,061	509,210
-23,023	8,033	948,494	508,786
-22,009	8,050	947,894	508,500
-20,994	8,059	947,415	508,253
-19,979	8,076	946,718	507,912
-18,965	8,053	946,054	507,463
-17,950	8,056	945,489	507,150
-16,936	8,053	944,637	506,663
-15,921	8,016	944,080	506,224
-14,906	7,994	943,260	505,695
-13,892	8,006	942,780	505,454
-12,877	7,989	942,152	505,046
-11,863	7,952	941,416	504,512
-10,848	7,948	940,915	504,209
-9,833	8,056	940,514	504,318
-8,819	8,089	939,696	503,967
-7,804	7,955	939,288	503,300
-6,790	7,984	938,594	503,002
-5,775	8,005	938,181	502,827
-4,760	7,940	937,645	502,313
-3,746	7,954	936,874	501,924
-2,731	7,881	936,144	501,281
-1,717	7,784	935,545	500,635
-0,702	7,798	934,927	500,330
0,313	7,672	934,133	500,261
1,327	11,181	931,560	509,902
2,342	19,770	779,997	449,456
3,356	14,739	448,230	250,683
4,371	-11,429	312,869	147,114
5,386	-15,307	295,312	134,919
6,400	-17,304	289,232	130,148
7,415	-17,503	286,720	128,810
8,429	-18,166	284,940	127,351
9,444	-18,253	283,811	126,750
10,459	-18,353	283,203	126,371
11,473	-18,227	282,641	126,230
12,488	-18,219	282,266	126,060
13,502	-18,160	281,662	125,836
14,517	-18,204	281,338	125,637
15,531	-18,167	280,784	125,414
16,546	-18,079	280,548	125,382
17,561	-18,137	280,053	125,094
18,575	-18,208	279,687	124,852
19,590	-18,158	279,378	124,750
20,604	-18,131	279,137	124,657
21,619	-18,307	278,763	124,311
22,634	-18,161	278,466	124,307
23,648	-18,139	278,083	124,146
24,663	-18,150	277,895	124,040
25,677	-18,212	277,496	123,792
26,692	-18,061	277,307	123,840
27,707	-18,137	276,918	123,583
28,721	-18,088	276,630	123,490
29,736	-18,241	276,393	123,229
30,750	-18,109	276,038	123,184
31,765	-18,125	275,776	123,041
32,780	-18,155	275,790	123,008
33,794	-18,300	275,436	122,702
34,809	-18,022	275,158	122,830
35,823	-18,101	274,908	122,633
36,838	-18,031	274,531	122,519
37,853	-18,439	274,406	122,070
38,867	-17,991	274,043	122,317
39,882	-18,229	273,844	121,994
40,896	-18,101	273,648	122,016
41,911	-18,146	273,441	121,871
42,926	-18,115	273,130	121,750
43,940	-18,019	272,807	121,685
44,955	-18,112	272,645	121,515
45,969	-18,063	272,388	121,436
46,984	-17,853	272,174	121,524
47,999	-17,970	272,149	121,394
49,013	-17,956	271,703	121,197
50,028	-18,069	271,576	121,024
51,042	-17,907	271,343	121,060
52,057	-17,900	271,180	120,983
53,071	-18,003	270,786	120,701
54,086	-17,980	270,676	120,663
55,101	-17,889	270,393	120,610
56,115	-17,930	270,335	120,535
57,130	-18,254	270,005	120,078
58,144	-18,001	269,734	120,180
59,159	-18,049	269,393	119,974
60,174	-18,138	269,212	119,801
61,188	-18,319	269,015	119,536
62,203	-18,020	268,794	119,702
63,217	-18,006	268,516	119,580
64,232	-18,034	268,400	119,492
65,247	-18,113	267,921	119,196
66,261	-18,145	267,819	119,110
67,276	-18,060	267,562	119,064
68,290	-18,035	267,401	119,004
69,305	-18,030	267,224	118,919
70,320	-17,954	266,859	118,815
71,334	-18,024	266,710	118,675
72,349	-18,231	266,446	118,359
73,363	-18,041	266,391	118,496
74,378	-17,963	265,992	118,379
75,393	-18,015	265,748	118,212
76,407	-17,992	265,714	118,208
77,422	-17,962	265,327	118,053
78,436	-18,124	265,104	117,796
79,451	-17,968	264,866	117,820
80,466	-18,114	264,731	117,618
81,480	-18,270	264,499	117,364
82,495	-18,004	264,289	117,500
83,509	-17,877	264,129	117,533
84,524	-17,955	263,948	117,372
85,539	-18,056	263,638	117,133
86,553	-17,940	263,412	117,126
87,568	-17,851	263,061	117,039
88,582	-18,220	263,151	116,738
89,597	-17,946	262,670	116,760
90,611	-18,013	262,601	116,658
91,626	-17,990	262,355	116,559
92,641	-18,086	262,158	116,376
93,655	-18,049	261,925	116,295
94,670	-17,927	261,666	116,278
95,684	-18,164	261,556	116,008
96,699	-18,036	261,296	115,996
97,714	-17,888	261,129	116,043
98,728	-18,084	260,858	115,738
99,743	-17,808	260,866	115,976
100,757	-17,901	260,535	115,736
101,772	-17,755	260,280	115,743
102,787	-17,885	260,033	115,507
103,801	-18,026	259,881	115,304
104,816	-18,167	259,782	115,125
105,830	-17,954	259,423	115,144
106,845	-17,931	259,187	115,050
107,860	-18,100	259,153	114,875
108,874	-18,023	258,891	114,816
109,889	-17,874	258,603	114,810
110,903	-18,031	258,380	114,563
111,918	-17,827	258,176	114,641
112,933	-17,850	258,047	114,553
113,947	-17,868	257,836	114,434
114,962	-17,882	257,705	114,353
115,976	-17,922	257,438	114,190
116,991	-18,126	257,316	113,947
118,006	-17,912	257,047	114,004
119,020	-17,977	256,881	113,864
120,035	-17,949	256,723	113,807
121,049	-17,977	256,602	113,720
122,064	-18,171	256,500	113,495
123,079	-18,014	256,227	113,501
124,093	-18,095	255,998	113,319
125,108	-17,949	255,786	113,342
126,122	-18,138	255,757	113,155
127,137	-17,773	255,295	113,257
128,151	-17,810	255,250	113,195
129,166	-18,004	255,009	112,910
130,181	-17,720	254,777	113,043
131,195	-18,152	254,708	112,628
132,210	-17,876	254,328	112,689
133,224	-18,020	254,170	112,485
134,239	-18,041	253,852	112,316
135,254	-17,789	253,737	112,472
136,268	-17,897	253,485	112,257
137,283	-18,017	253,457	112,131
138,297	-17,886	253,313	112,170
139,312	-17,905	252,969	111,991
140,327	-17,910	252,626	111,826
141,341	-17,909	252,589	111,800
142,356	-17,789	252,395	111,807
143,370	-17,849	252,139	111,633
144,385	-18,071	252,026	111,383
145,400	-17,852	251,771	111,446
146,414	-17,735	251,596	111,459
147,429	-17,997	251,607	111,230
148,443	-18,107	251,124	110,913
149,458	-18,016	251,068	110,957
150,473	-17,928	250,867	110,933
151,487	-17,933	250,734	110,860
152,502	-17,842	250,494	110,821
153,516	-17,916	250,222	110,627
154,531	-18,043	250,176	110,490
155,546	-17,999	249,977	110,430
156,560	-17,937	249,920	110,447
157,575	-17,967	249,554	110,250
158,589	-17,862	249,336	110,233
159,604	-17,882	249,110	110,106
160,619	-17,783	248,969	110,118
161,633	-17,778	248,819	110,045
162,648	-17,758	248,594	109,952
163,662	-17,745	248,485	109,906
164,677	-17,782	248,422	109,836
165,692	-17,883	248,199	109,644
166,706	-17,788	247,971	109,613
167,721	-17,916	247,756	109,401
168,735	-17,805	247,614	109,422
169,750	-17,946	247,636	109,303
170,764	-17,908	247,369	109,207
171,779	-17,855	247,244	109,187
172,794	-17,773	247,095	109,180
173,808	-17,701	246,686	109,049
174,823	-17,871	246,806	108,951
175,837	-17,884	246,547	108,816
176,852	-17,822	246,337	108,765
177,867	-17,920	246,201	108,614
178,881	-17,819	245,929	108,568
179,896	-17,660	245,713	108,595
180,910	-17,918	245,601	108,322
181,925	-17,927	245,444	108,235
182,940	-17,859	245,118	108,138
183,954	-18,086	245,143	107,952
184,969	-18,038	245,033	107,933
185,983	-17,844	244,774	107,970
186,998	-17,832	244,395	107,803
188,013	-17,792	244,406	107,831
189,027	-17,990	244,358	107,637
190,042	-17,914	243,965	107,517
191,056	-17,737	243,888	107,619
192,071	-17,990	243,721	107,328
193,086	-17,981	243,568	107,258
194,100	-17,920	243,325	107,192
195,115	-17,746	243,061	107,208
196,129	-18,100	242,973	106,870
197,144	-17,831	242,622	106,927
198,159	-18,025	242,574	106,737
199,173	-17,751	242,311	106,836
200,188	-17,761	242,304	106,815
201,202	-17,738	242,135	106,750
202,217	-17,825	241,982	106,601
203,232	-17,756	241,676	106,514
204,246	-17,748	241,390	106,385
205,261	-17,847	241,460	106,326
206,275	-16,231	241,790	107,779
207,290	-11,247	243,715	112,719
208,304	-5,380	245,342	118,299
209,319	-3,124	245,875	120,407
210,334	-2,595	245,968	120,878
211,348	-1,804	246,227	121,647
212,363	-1,108	246,258	122,225
213,377	-0,662	246,259	122,582
214,392	-0,045	246,436	123,168
215,407	0,352	246,239	123,386
216,421	0,277	246,162	123,274
217,436	0,536	246,009	123,400
218,450	0,587	245,778	123,315
219,465	0,757	245,653	123,381
220,480	0,567	245,462	123,118
221,494	0,413	245,349	122,924
222,509	0,278	245,026	122,641
223,523	-0,037	244,875	122,297
224,538	0,055	244,735	122,291
225,553	0,120	244,373	122,152
226,567	-0,034	244,296	121,977
227,582	0,011	244,133	121,921
228,596	0,051	243,940	121,847
229,611	-0,107	243,867	121,671
230,626	-0,146	243,734	121,562
231,640	0,044	243,511	121,594
232,655	-0,045	243,394	121,452
233,669	-0,065	243,293	121,375
234,684	-0,234	243,190	121,176
235,699	-0,144	242,918	121,102
236,713	0,021	242,712	121,123
237,728	0,089	242,693	121,157
238,742	0,009	242,307	120,889
239,757	0,074	242,169	120,862
240,772	-0,108	242,067	120,654
241,786	-0,097	241,929	120,583
242,801	-0,038	241,777	120,544
243,815	0,217	241,672	120,686
244,830	0,068	241,495	120,468
245,844	0,025	241,375	120,362
246,859	0,053	241,062	120,218
247,874	-0,030	241,060	120,139
248,888	0,087	240,896	120,141
249,903	0,100	240,747	120,067
250,917	0,086	240,584	119,963
251,932	0,138	240,451	119,927
252,947	0,156	240,233	119,823
253,961	0,221	240,092	119,794
254,976	0,019	239,838	119,494
255,990	0,107	239,770	119,520
257,005	0,181	239,632	119,500
258,020	0,114	239,470	119,355
259,034	0,055	239,270	119,197
260,049	0,099	239,138	119,156
261,063	-0,044	238,912	118,920
262,078	-0,055	238,843	118,866
263,093	0,098	238,680	118,896
264,107	0,063	238,540	118,788
265,122	0,043	238,459	118,720
266,136	0,080	238,320	118,671
267,151	0,273	237,876	118,592
268,166	0,025	237,896	118,394
269,180	0,010	237,776	118,313
270,195	0,154	237,522	118,290
271,209	-0,071	237,278	117,980
272,224	0,043	237,267	118,053
273,239	0,209	237,145	118,113
274,253	0,194	236,837	117,938
275,268	0,168	236,772	117,874
276,282	0,078	236,638	117,726
277,297	-0,007	236,441	117,551
278,312	0,131	236,365	117,611
279,326	0,191	236,132	117,532
280,341	0,107	236,132	117,455
281,355	0,136	235,984	117,394
282,370	0,185	235,898	117,379
283,384	0,186	235,641	117,241
284,399	-0,024	235,498	116,996
285,414	0,161	235,225	116,994
286,428	-0,052	235,350	116,879
287,443	0,238	235,039	116,941
288,457	0,151	234,916	116,802
289,472	0,187	234,721	116,722
290,487	0,143	234,648	116,641
291,501	0,204	234,425	116,567
292,516	0,094	234,250	116,384
293,530	0,084	234,157	116,320
294,545	0,140	234,027	116,288
295,560	0,110	233,943	116,213
296,574	0,220	233,683	116,159
297,589	0,458	233,436	116,210
298,603	0,145	233,452	115,965
299,618	0,129	233,216	115,825
300,633	0,148	233,217	115,830
301,647	0,264	233,077	115,840
302,662	0,045	233,030	115,637
303,676	0,230	232,619	115,566
304,691	0,438	232,567	115,690
305,706	0,541	232,305	115,628
306,720	0,278	232,322	115,424
307,735	0,341	232,071	115,337
308,749	0,387	231,998	115,326
309,764	0,423	231,715	115,203
310,779	0,327	231,744	115,133
311,793	0,356	231,388	114,969
312,808	0,238	231,348	114,848
313,822	0,307	231,214	114,825
314,837	0,497	230,896	114,802
315,852	0,428	230,841	114,711
316,866	0,531	230,799	114,759
317,881	0,544	230,691	114,705
318,895	0,542	230,575	114,635
319,910	0,416	230,354	114,419
320,925	0,445	230,100	114,305
321,939	0,315	230,028	114,160
322,954	0,504	230,017	114,288
323,968	0,525	229,791	114,182
324,983	0,512	229,584	114,059
325,997	0,133	229,520	113,728
327,012	0,414	229,210	113,778
328,027	0,423	229,088	113,715
329,041	0,381	228,977	113,617
330,056	0,304	228,871	113,496
331,070	0,571	228,610	113,558
332,085	0,412	228,527	113,387
333,100	0,443	228,425	113,349
334,114	0,501	228,180	113,262
335,129	0,468	228,104	113,189
336,143	0,663	227,966	113,258
337,158	0,505	227,862	113,077
338,173	0,538	227,813	113,068
339,187	0,527	227,598	112,942
340,202	0,674	227,290	112,889
341,216	0,760	227,253	112,926
342,231	0,590	227,079	112,702
343,246	0,546	227,131	112,685
344,260	0,692	226,857	112,648
345,275	0,392	226,855	112,412
346,289	0,627	226,400	112,352
347,304	0,630	226,366	112,327
348,319	0,535	226,224	112,176
349,333	0,431	226,202	112,077
350,348	0,604	225,965	112,079
351,362	0,578	225,909	112,022
352,377	0,655	225,669	111,950
353,392	0,653	225,519	111,864
354,406	0,438	225,433	111,652
355,421	192,640	1311,823	1379,319
356,435	154,329	1444,032	1379,160
