DTS Sentinel unit serial number:	SN410029Multiplexer serial number:	ORYXHardware model number:	OX2-SRSoftware version number:	ORYX F/W v4,00 Oryx Data Collector v3.7.2.0data status	okinstallation	B5 Nyhavnadifferential loss correction	single-endedforward channel	channel 2reverse channel	N/Adate	2023/12/13time	16:42:13forward acquisition time	300,00reverse acquisition time	0,00gamma	499,1914k internal	0,3159k external	0,3159temperature offset calibration	1,0000default loss term (dB/km)	0,3820temperature slope calibration	1,0000multiplexer offset coefficient	1,0000multiplexer slope coefficient	1,0000fibre end	0,00T internal ref (°C)	14,57T ext. ref 1 (°C)	-2,56T ext. ref 2 (°C)	-2,64length (m)	temperature (°C)	Stokes	anti-Stokes-744,400	-200,000	0,005	0,192
-743,385	-93,623	-0,258	-0,052
-742,371	800,000	0,072	0,153
-741,356	-91,698	-0,167	-0,035
-740,342	-89,194	0,139	-0,030
-739,327	-22,943	-0,276	0,122
-738,312	-200,000	0,004	-0,014
-737,298	-199,216	-0,344	0,001
-736,283	-115,738	0,107	-0,015
-735,269	-105,539	-0,235	-0,039
-734,254	-94,946	0,147	-0,029
-733,239	-80,984	-0,543	-0,131
-732,225	17,120	0,137	0,080
-731,210	372,407	0,099	0,149
-730,196	-200,000	-0,009	0,045
-729,181	-82,564	-0,057	0,014
-728,167	-43,092	0,020	0,008
-727,152	673,143	-0,038	-0,073
-726,137	-101,170	-0,075	0,013
-725,123	-2,913	0,051	-0,026
-724,108	154,528	-0,064	-0,065
-723,094	249,107	-0,031	-0,039
-722,079	-200,000	-0,004	-0,182
-721,064	-145,474	-0,151	0,010
-720,050	364,609	-0,042	0,062
-719,035	800,000	0,031	-0,084
-718,021	-200,000	-0,011	-0,084
-717,006	168,771	0,077	-0,081
-715,991	-200,000	-0,003	-0,058
-714,977	-200,000	-0,006	0,033
-713,962	353,658	-0,038	-0,056
-712,948	-200,000	-0,028	0,149
-711,933	800,000	0,061	0,136
-710,918	-19,335	-0,062	0,028
-709,904	-81,235	-0,094	-0,023
-708,889	196,365	-0,121	-0,136
-707,875	-200,000	0,023	-0,085
-706,860	78,692	0,034	-0,027
-705,845	-97,916	0,115	-0,022
-704,831	-70,238	-0,141	0,039
-703,816	-108,164	-0,124	-0,019
-702,802	-200,000	0,012	0,108
-701,787	-103,872	-0,137	-0,023
-700,772	-200,000	0,005	-0,050
-699,758	593,642	0,074	-0,135
-698,743	52,919	0,059	0,041
-697,729	-49,421	-0,019	-0,007
-696,714	365,798	-0,071	-0,106
-695,699	-200,000	-0,004	-0,176
-694,685	147,663	0,048	0,047
-693,670	51,055	-0,144	-0,100
-692,656	32,337	0,028	-0,018
-691,641	-200,000	0,005	0,072
-690,627	249,807	-0,030	-0,038
-689,612	13,755	-0,098	0,056
-688,597	800,000	0,009	0,023
-687,583	30,824	-0,053	-0,033
-686,568	120,351	-0,080	0,073
-685,554	-81,746	-0,015	0,003
-684,539	-119,825	0,019	0,002
-683,524	800,000	-0,053	0,119
-682,510	-200,000	0,009	0,106
-681,495	26,424	-0,064	-0,039
-680,481	-28,903	0,089	0,037
-679,466	-79,461	-0,169	-0,042
-678,451	-130,125	-0,100	-0,010
-677,437	-87,018	0,190	-0,042
-676,422	61,478	-0,113	-0,083
-675,408	-43,130	0,073	0,027
-674,393	614,738	-0,031	-0,058
-673,378	79,132	-0,071	0,056
-672,364	-200,000	0,002	-0,071
-671,349	485,041	-0,091	-0,154
-670,335	-200,000	-0,005	-0,054
-669,320	548,207	-0,041	0,072
-668,305	67,313	-0,124	-0,093
-667,291	-83,130	-0,056	-0,013
-666,276	90,284	-0,090	-0,074
-665,262	-85,350	0,111	0,025
-664,247	786,563	-0,023	-0,046
-663,232	101,249	0,081	0,069
-662,218	191,338	0,057	-0,064
-661,203	-94,989	0,066	0,013
-660,189	800,000	-0,045	0,101
-659,174	110,736	-0,053	-0,047
-658,159	2,893	-0,039	0,021
-657,145	-44,471	-0,169	-0,062
-656,130	570,733	-0,063	0,113
-655,116	-64,683	0,053	0,016
-654,101	133,264	0,008	0,007
-653,086	41,791	0,050	0,033
-652,072	800,000	-0,052	0,158
-651,057	-28,414	-0,217	-0,091
-650,043	178,373	0,080	-0,086
-649,028	-150,252	0,082	0,005
-648,014	-200,000	0,027	0,117
-646,999	-15,198	-0,084	0,039
-645,984	79,771	0,081	0,064
-644,970	800,000	-0,022	-0,053
-643,955	-123,154	0,047	0,006
-642,941	-200,000	-0,019	0,119
-641,926	385,840	0,072	0,109
-640,911	0,578	-0,046	-0,024
-639,897	561,083	0,094	-0,168
-638,882	-123,565	-0,112	-0,013
-637,868	284,421	0,051	0,068
-636,853	6,151	-0,134	-0,073
-635,838	710,130	-0,021	-0,041
-634,824	-69,129	-0,163	-0,046
-633,809	-200,000	-0,014	0,081
-632,795	-150,179	0,109	0,006
-631,780	21,974	-0,045	-0,027
-630,765	104,736	-0,045	-0,039
-629,751	102,399	-0,115	-0,098
-628,736	-200,000	0,005	-0,069
-627,722	-200,000	-0,008	-0,105
-626,707	800,000	0,016	-0,042
-625,692	-83,356	0,119	0,028
-624,678	-1,902	-0,067	-0,035
-623,663	48,168	-0,081	-0,055
-622,649	800,000	-0,017	0,043
-621,634	227,212	0,101	0,120
-620,619	800,000	-0,021	0,048
-619,605	800,000	0,071	-0,163
-618,590	73,260	0,047	-0,036
-617,576	139,280	-0,038	0,036
-616,561	33,633	0,037	0,023
-615,546	312,213	-0,016	0,023
-614,532	-200,000	0,034	-0,147
-613,517	800,000	-0,064	-0,166
-612,503	-76,948	0,051	0,013
-611,488	230,281	-0,059	-0,071
-610,474	176,197	0,046	-0,049
-609,459	800,000	-0,096	0,239
-608,444	800,000	0,011	-0,035
-607,430	250,565	0,016	0,020
-606,415	162,219	-0,111	-0,114
-605,401	-114,463	0,043	0,006
-604,386	-200,000	0,006	-0,084
-603,371	87,541	0,038	-0,031
-602,357	-166,762	-0,027	0,001
-601,342	-96,682	-0,173	0,033
-600,328	-200,000	-0,002	-0,008
-599,313	140,503	0,057	-0,055
-598,298	800,000	0,035	-0,096
-597,284	70,499	0,105	-0,080
-596,269	8,251	-0,050	0,027
-595,255	800,000	0,018	-0,055
-594,240	-48,732	-0,037	0,013
-593,225	484,601	-0,069	-0,116
-592,211	800,000	-0,026	-0,072
-591,196	800,000	0,026	-0,078
-590,182	-159,503	0,134	-0,005
-589,167	121,785	-0,049	0,045
-588,152	-195,943	0,073	0,000
-587,138	-150,570	-0,186	0,010
-586,123	-200,000	-0,001	0,036
-585,109	-200,000	-0,030	-0,171
-584,094	800,000	0,017	0,035
-583,079	757,896	0,050	0,100
-582,065	-56,940	0,122	-0,039
-581,050	464,993	-0,019	-0,031
-580,036	-51,832	0,165	0,056
-579,021	589,963	0,029	-0,052
-578,006	-115,280	-0,101	-0,014
-576,992	67,628	-0,022	0,016
-575,977	66,394	0,077	-0,057
-574,963	-200,000	0,028	0,108
-573,948	-82,900	0,082	-0,019
-572,934	-154,378	0,020	0,001
-571,919	-54,544	-0,090	-0,030
-570,904	-68,083	-0,074	-0,021
-569,890	500,829	0,048	-0,082
-568,875	800,000	-0,033	0,077
-567,861	-90,411	0,206	-0,043
-566,846	-123,074	0,089	-0,010
-565,831	-33,371	-0,183	-0,074
-564,817	92,113	0,046	0,038
-563,802	-14,568	-0,013	0,006
-562,788	-30,553	-0,113	-0,047
-561,773	347,820	0,015	-0,021
-560,758	105,402	-0,031	0,027
-559,744	-200,000	0,009	0,111
-558,729	258,854	0,074	-0,094
-557,715	125,253	-0,017	-0,015
-556,700	45,331	-0,096	-0,065
-555,685	800,000	-0,045	-0,126
-554,671	16,798	0,038	0,022
-553,656	800,000	0,033	-0,072
-552,642	-96,391	0,134	0,026
-551,627	546,285	0,023	-0,041
-550,612	800,000	0,028	0,056
-549,598	-65,628	-0,042	-0,012
-548,583	-143,125	-0,118	-0,008
-547,569	-200,000	-0,022	-0,082
-546,554	191,075	0,043	0,047
-545,539	19,833	0,106	0,062
-544,525	800,000	-0,028	-0,081
-543,510	539,870	-0,057	0,099
-542,496	-13,390	-0,023	-0,011
-541,481	35,706	-0,013	-0,008
-540,466	800,000	0,059	0,129
-539,452	800,000	0,012	-0,029
-538,437	11,075	-0,087	-0,048
-537,423	94,876	0,031	-0,026
-536,408	262,291	0,032	-0,041
-535,393	-200,000	-0,012	-0,063
-534,379	-140,784	-0,123	-0,009
-533,364	-149,656	-0,136	-0,008
-532,350	429,009	-0,079	-0,124
-531,335	-200,000	0,023	-0,087
-530,321	-65,450	0,034	0,010
-529,306	-200,000	-0,001	-0,092
-528,291	-200,000	-0,000	0,078
-527,277	7,769	-0,056	-0,031
-526,262	-51,315	-0,038	0,013
-525,248	800,000	0,061	0,182
-524,233	65,679	-0,080	0,059
-523,218	-200,000	0,017	0,181
-522,204	800,000	-0,044	0,130
-521,189	67,650	-0,054	0,040
-520,175	800,000	0,019	-0,051
-519,160	-108,233	-0,040	-0,006
-518,145	204,724	-0,012	0,014
-517,131	800,000	-0,012	-0,025
-516,116	-139,674	-0,160	-0,012
-515,102	105,959	0,061	0,052
-514,087	193,293	0,043	0,048
-513,072	110,175	-0,036	0,032
-512,058	-50,353	-0,079	-0,027
-511,043	147,762	0,037	0,037
-510,029	-166,922	0,047	-0,001
-509,014	-200,000	0,013	0,115
-507,999	-200,000	0,011	-0,043
-506,985	40,594	-0,062	-0,041
-505,970	-73,999	-0,036	-0,009
-504,956	-94,096	-0,034	-0,007
-503,941	800,000	0,015	-0,038
-502,926	89,245	-0,068	0,055
-501,912	-200,000	0,028	0,118
-500,897	321,108	-0,113	0,157
-499,883	-130,649	-0,040	0,004
-498,868	253,706	0,016	0,020
-497,853	-23,904	0,169	-0,073
-496,839	-107,746	-0,052	0,008
-495,824	800,000	-0,067	0,155
-494,810	2,792	-0,115	0,061
-493,795	-200,000	0,016	0,172
-492,781	800,000	0,043	0,126
-491,766	389,080	-0,060	-0,090
-490,751	800,000	-0,017	0,050
-489,737	-23,791	0,039	-0,017
-488,722	800,000	-0,042	0,118
-487,708	143,879	-0,070	-0,068
-486,693	-107,542	0,125	0,020
-485,678	-200,000	0,031	0,106
-484,664	-43,696	0,125	0,046
-483,649	84,884	-0,048	0,039
-482,635	-66,706	0,129	0,037
-481,620	-64,581	0,071	-0,021
-480,605	800,000	-0,011	-0,026
-479,591	29,284	0,108	0,067
-478,576	-54,159	0,032	0,011
-477,562	-200,000	-0,004	-0,025
-476,547	800,000	-0,028	-0,068
-475,532	800,000	-0,038	0,082
-474,518	-200,000	0,008	0,060
-473,503	150,698	0,073	0,072
-472,489	167,851	-0,051	0,053
-471,474	4,643	0,018	-0,009
-470,459	-200,000	-0,013	-0,103
-469,445	-200,000	0,016	0,069
-468,430	800,000	-0,023	0,049
-467,416	-160,870	-0,169	0,006
-466,401	-200,000	0,004	-0,054
-465,386	103,413	-0,099	-0,084
-464,372	-128,393	-0,150	0,015
-463,357	-200,000	0,007	-0,057
-462,343	28,878	-0,158	-0,097
-461,328	353,456	-0,034	-0,050
-460,313	639,639	0,022	-0,042
-459,299	490,285	-0,007	-0,012
-458,284	-200,000	-0,017	0,078
-457,270	-200,000	0,004	0,058
-456,255	-46,162	-0,064	0,023
-455,241	800,000	-0,010	-0,027
-454,226	-86,899	-0,105	-0,023
-453,211	370,359	0,044	-0,066
-452,197	52,428	-0,102	-0,071
-451,182	60,215	0,064	-0,046
-450,168	800,000	0,069	-0,165
-449,153	-36,068	-0,084	-0,033
-448,138	-162,184	0,089	0,003
-447,124	528,022	-0,063	-0,109
-446,109	-51,340	0,211	-0,071
-445,095	-200,000	-0,014	-0,061
-444,080	-168,485	-0,037	0,001
-443,065	-44,739	0,117	0,042
-442,051	145,798	0,079	-0,077
-441,036	-200,000	-0,029	-0,100
-440,022	-200,000	-0,001	0,014
-439,007	-200,000	0,012	0,119
-437,992	53,648	0,070	-0,049
-436,978	800,000	0,021	-0,061
-435,963	39,525	0,075	0,049
-434,949	345,915	-0,036	0,052
-433,934	247,430	-0,059	0,073
-432,919	-200,000	0,000	-0,053
-431,905	800,000	-0,028	-0,083
-430,890	-61,132	0,195	0,060
-429,876	-200,000	-0,025	0,208
-428,861	342,112	0,044	0,063
-427,846	191,400	-0,008	-0,009
-426,832	-97,425	-0,106	-0,020
-425,817	69,760	-0,059	-0,045
-424,803	56,633	0,104	0,074
-423,788	-191,507	0,176	-0,001
-422,773	105,894	0,115	0,099
-421,759	14,039	0,068	-0,038
-420,744	-200,000	0,006	0,028
-419,730	55,833	0,038	-0,027
-418,715	153,966	-0,081	0,080
-417,701	-78,073	-0,017	0,004
-416,686	179,818	0,129	0,138
-415,671	201,973	-0,034	0,038
-414,657	-125,313	0,138	0,015
-413,642	-200,000	0,013	-0,130
-412,628	-200,000	-0,027	-0,164
-411,613	-200,000	-0,015	0,055
-410,598	-200,000	-0,018	-0,102
-409,584	268,391	-0,034	-0,044
-408,569	68,645	0,059	0,044
-407,555	310,326	0,040	0,054
-406,540	-113,803	-0,040	0,006
-405,525	258,539	-0,052	0,066
-404,511	260,511	0,031	-0,039
-403,496	150,333	0,080	-0,079
-402,482	65,905	0,066	-0,049
-401,467	147,714	0,083	-0,082
-400,452	125,694	0,042	0,038
-399,438	-200,000	0,029	0,126
-398,423	-200,000	-0,036	0,183
-397,409	315,797	0,076	-0,104
-396,394	-200,000	0,016	0,071
-395,379	145,968	-0,066	-0,064
-394,365	-142,035	-0,165	-0,012
-393,350	-88,023	0,052	-0,011
-392,336	-200,000	0,005	-0,048
-391,321	-200,000	0,013	0,134
-390,306	-200,000	-0,008	-0,051
-389,292	-58,678	-0,120	-0,038
-388,277	15,312	0,099	-0,056
-387,263	-52,803	0,169	0,056
-386,248	-0,238	-0,083	-0,043
-385,233	82,544	-0,098	-0,077
-384,219	-136,396	0,154	0,013
-383,204	12,702	-0,083	-0,046
-382,190	-19,125	0,120	-0,054
-381,175	-164,211	-0,124	-0,004
-380,160	800,000	-0,079	-0,204
-379,146	-200,000	-0,005	0,116
-378,131	28,618	0,121	0,074
-377,117	-200,000	0,031	0,151
-376,102	-200,000	-0,029	-0,149
-375,088	-177,956	-0,105	0,002
-374,073	-146,000	-0,113	0,007
-373,058	-200,000	0,037	0,133
-372,044	419,933	0,052	0,082
-371,029	800,000	-0,041	-0,082
-370,015	-200,000	-0,003	-0,047
-369,000	633,305	-0,016	-0,029
-367,985	-200,000	-0,018	0,060
-366,971	-200,000	-0,062	-0,202
-365,956	800,000	0,039	-0,106
-364,942	-42,390	0,064	0,024
-363,927	441,939	0,016	-0,026
-362,912	-135,659	0,140	0,012
-361,898	800,000	-0,028	-0,071
-360,883	231,375	0,089	0,106
-359,869	-200,000	-0,009	0,045
-358,854	585,917	-0,036	-0,065
-357,839	800,000	-0,066	0,145
-356,825	-200,000	0,009	-0,075
-355,810	-43,493	0,063	0,023
-354,796	-0,452	-0,069	-0,036
-353,781	118,009	-0,062	-0,055
-352,766	451,893	0,016	-0,027
-351,752	404,993	-0,022	0,034
-350,737	800,000	0,033	0,077
-349,723	65,128	0,014	0,010
-348,708	-108,820	-0,101	0,015
-347,693	800,000	-0,037	-0,107
-346,679	560,243	-0,035	-0,062
-345,664	-18,871	-0,031	-0,014
-344,650	-25,794	-0,059	0,025
-343,635	135,065	0,098	-0,093
-342,620	6,183	0,080	0,043
-341,606	-200,000	-0,014	0,193
-340,591	418,459	-0,047	0,074
-339,577	371,434	-0,056	0,083
-338,562	304,099	-0,066	0,088
-337,548	-200,000	0,014	0,051
-336,533	-195,452	0,179	-0,001
-335,518	-200,000	-0,000	-0,048
-334,504	-200,000	0,001	-0,045
-333,489	119,719	-0,109	-0,098
-332,475	-171,723	0,020	0,000
-331,460	-65,389	-0,118	-0,034
-330,445	-139,928	-0,055	0,004
-329,431	-200,000	0,009	0,062
-328,416	-155,198	0,119	0,006
-327,402	-111,386	-0,099	-0,014
-326,387	800,000	0,039	0,105
-325,372	737,406	-0,043	-0,084
-324,358	-70,954	0,120	-0,033
-323,343	-157,347	-0,196	-0,008
-322,329	-200,000	0,027	-0,095
-321,314	-11,283	-0,130	-0,062
-320,299	-123,765	0,095	-0,011
-319,285	617,992	-0,013	0,025
-318,270	102,957	-0,139	-0,118
-317,256	800,000	-0,045	-0,106
-316,241	-197,974	-0,139	0,001
-315,226	17,855	0,081	-0,046
-314,212	-90,518	0,044	0,009
-313,197	-118,478	0,144	-0,018
-312,183	71,527	-0,092	0,069
-311,168	29,195	-0,072	0,044
-310,153	-107,152	-0,069	-0,011
-309,139	-200,000	-0,025	-0,093
-308,124	185,692	0,030	0,033
-307,110	-200,000	0,001	0,134
-306,095	800,000	-0,046	-0,128
-305,080	-17,894	-0,068	0,031
-304,066	-40,572	-0,020	-0,007
-303,051	224,972	-0,025	-0,030
-302,037	800,000	-0,040	0,089
-301,022	28,843	0,093	0,057
-300,008	-50,468	-0,106	-0,036
-298,993	-34,795	0,144	0,057
-297,978	-163,675	0,041	-0,001
-296,964	800,000	0,041	-0,084
-295,949	-200,000	0,007	-0,151
-294,935	60,008	-0,082	-0,059
-293,920	800,000	0,010	-0,026
-292,905	-83,321	0,132	-0,030
-291,891	258,771	-0,046	0,058
-290,876	547,506	-0,102	-0,177
-289,862	-78,791	0,138	-0,034
-288,847	165,167	-0,054	0,056
-287,832	305,356	0,036	-0,049
-286,818	128,959	0,099	-0,091
-285,803	-84,450	0,133	0,030
-284,789	-200,000	-0,002	0,141
-283,774	800,000	0,025	-0,059
-282,759	-127,772	0,054	0,006
-281,745	800,000	-0,003	-0,007
-280,730	800,000	0,017	-0,039
-279,716	523,601	0,034	0,057
-278,701	326,194	0,105	0,146
-277,686	800,000	-0,006	0,016
-276,672	334,312	-0,058	0,081
-275,657	-2,665	0,089	-0,045
-274,643	615,026	0,046	-0,084
-273,628	306,179	-0,106	-0,143
-272,613	-29,907	0,154	0,063
-271,599	27,630	-0,112	-0,068
-270,584	800,000	0,060	-0,146
-269,570	230,153	-0,039	-0,046
-268,555	-200,000	-0,013	0,124
-267,540	-200,000	0,007	0,025
-266,526	800,000	-0,043	-0,094
-265,511	119,623	-0,050	-0,045
-264,497	-92,315	0,102	-0,021
-263,482	29,942	0,027	-0,017
-262,467	800,000	0,058	0,120
-261,453	34,870	0,026	0,016
-260,438	63,243	-0,063	0,045
-259,424	-118,897	0,031	-0,004
-258,409	299,257	-0,037	-0,049
-257,395	12,705	0,059	-0,033
-256,380	-71,924	0,012	0,003
-255,365	-84,588	0,086	-0,019
-254,351	800,000	0,002	0,005
-253,336	415,308	-0,052	0,081
-252,322	574,337	-0,056	-0,098
-251,307	-200,000	0,005	-0,059
-250,292	80,417	-0,024	-0,019
-249,278	-200,000	0,025	0,105
-248,263	51,403	-0,072	0,049
-247,249	91,480	0,075	0,061
-246,234	-200,000	-0,028	0,109
-245,219	-19,920	0,058	-0,026
-244,205	-34,674	-0,066	-0,026
-243,190	106,276	-0,077	0,066
-242,176	-75,124	0,102	0,026
-241,161	-158,919	0,170	0,007
-240,146	-80,606	-0,074	0,018
-239,132	-200,000	-0,006	-0,053
-238,117	-200,000	0,023	0,088
-237,103	334,614	0,068	-0,095
-236,088	371,394	0,048	-0,071
-235,073	170,083	-0,060	-0,062
-234,059	-15,172	0,068	0,031
-233,044	624,493	0,012	0,022
-232,030	-16,395	0,138	0,063
-231,015	-83,959	-0,125	-0,028
-230,000	-105,087	-0,021	0,003
-228,986	800,000	0,054	0,151
-227,971	207,493	0,082	-0,093
-226,957	-84,013	0,064	0,015
-225,942	256,906	0,063	0,079
-224,927	199,104	0,040	-0,044
-223,913	177,619	-0,068	0,072
-222,898	-200,000	-0,162	-0,000
-221,884	242,087	0,043	-0,052
-220,869	437,589	0,085	0,134
-219,855	-200,000	-0,018	-0,063
-218,840	183,529	0,053	0,057
-217,825	57,507	0,022	0,015
-216,811	-200,000	0,016	0,059
-215,796	-117,386	-0,187	-0,024
-214,782	259,650	-0,069	0,086
-213,767	800,000	0,052	0,113
-212,752	-71,644	0,095	0,025
-211,738	800,000	0,055	0,143
-210,723	-28,502	-0,116	0,048
-209,709	-49,590	-0,113	0,038
-208,694	-115,320	-0,059	0,008
-207,679	-38,342	0,082	-0,031
-206,665	124,037	0,067	-0,061
-205,650	-200,000	-0,007	-0,066
-204,636	-200,000	-0,015	-0,061
-203,621	280,571	-0,059	0,077
-202,606	-200,000	-0,004	-0,031
-201,592	85,672	-0,144	-0,114
-200,577	800,000	0,016	0,035
-199,563	800,000	0,034	-0,076
-198,548	308,548	0,034	0,045
-197,533	800,000	-0,037	0,103
-196,519	-58,210	-0,187	0,058
-195,504	-200,000	-0,011	-0,113
-194,490	-106,614	-0,074	-0,012
-193,475	-200,000	-0,004	0,052
-192,460	-91,789	-0,164	0,033
-191,446	-25,379	0,084	-0,036
-190,431	800,000	-0,030	0,074
-189,417	800,000	-0,020	0,056
-188,402	-27,324	-0,054	0,023
-187,387	74,199	0,141	-0,107
-186,373	-176,810	-0,064	-0,001
-185,358	-12,339	0,108	-0,051
-184,344	119,191	-0,069	-0,061
-183,329	800,000	0,034	0,073
-182,315	142,721	0,170	0,163
-181,300	148,914	-0,103	-0,101
-180,285	-36,373	-0,055	0,021
-179,271	-200,000	-0,013	0,047
-178,256	661,596	0,038	0,070
-177,242	-2,694	0,145	-0,073
-176,227	-64,093	0,065	0,019
-175,212	146,310	0,100	0,097
-174,198	-62,711	-0,101	0,030
-173,183	5,758	-0,109	-0,058
-172,169	-200,000	0,007	0,035
-171,154	-116,742	-0,044	-0,006
-170,139	-200,000	-0,017	0,111
-169,125	800,000	0,019	-0,045
-168,110	592,493	0,045	0,080
-167,096	185,498	-0,077	0,082
-166,081	281,656	0,030	0,039
-165,066	469,413	-0,024	0,038
-164,052	143,168	0,071	-0,068
-163,037	0,159	0,069	0,035
-162,023	134,430	0,132	0,124
-161,008	-200,000	-0,015	0,069
-159,993	-98,254	-0,102	0,019
-158,979	-113,537	-0,049	-0,007
-157,964	189,463	0,068	-0,073
-156,950	-60,416	-0,058	0,018
-155,935	224,574	0,032	-0,037
-154,920	-200,000	-0,006	0,058
-153,906	-13,674	0,076	-0,035
-152,891	170,871	0,013	-0,014
-151,877	-200,000	0,021	-0,223
-150,862	-165,593	-0,211	-0,006
-149,847	87,886	-0,094	-0,075
-148,833	237,982	0,093	0,112
-147,818	-80,549	0,233	0,055
-146,804	381,430	-0,024	0,035
-145,789	-79,900	-0,047	-0,011
-144,775	-200,000	-0,031	0,103
-143,760	410,401	-0,038	-0,058
-142,745	-200,000	-0,017	0,063
-141,731	51,492	0,083	-0,057
-140,716	-7,608	-0,036	0,018
-139,702	-200,000	0,014	0,086
-138,687	-70,621	0,057	-0,015
-137,672	474,104	0,085	-0,138
-136,658	-44,131	-0,067	-0,024
-135,643	624,488	-0,068	-0,124
-134,629	-84,314	0,220	0,050
-133,614	-23,592	0,048	0,021
-132,599	-150,320	-0,083	-0,005
-131,585	-105,970	0,070	0,011
-130,570	-200,000	0,012	0,097
-129,556	-200,000	-0,002	-0,095
-128,541	-19,821	0,014	0,006
-127,526	800,000	0,063	0,129
-126,512	700,692	0,043	0,081
-125,497	-57,823	0,022	0,007
-124,483	125,487	0,045	0,041
-123,468	-200,000	-0,015	-0,083
-122,453	101,150	-0,093	0,078
-121,439	152,946	0,075	-0,074
-120,424	800,000	-0,013	-0,036
-119,410	89,273	0,037	0,030
-118,395	-200,000	-0,021	-0,134
-117,380	7,070	-0,038	-0,021
-116,366	800,000	0,045	-0,114
-115,351	75,118	-0,045	0,034
-114,337	-200,000	0,013	-0,065
-113,322	118,152	-0,066	0,058
-112,307	800,000	0,034	0,085
-111,293	-49,056	0,173	0,059
-110,278	800,000	0,021	0,050
-109,264	189,150	-0,019	0,021
-108,249	-141,536	-0,121	0,009
-107,234	-59,901	-0,011	-0,003
-106,220	-53,319	-0,029	-0,010
-105,205	-200,000	0,000	-0,139
-104,191	453,516	0,103	-0,164
-103,176	358,242	0,126	0,182
-102,162	-200,000	-0,020	0,070
-101,147	407,956	0,019	-0,028
-100,132	-46,655	0,008	-0,003
-99,118	-107,986	-0,116	-0,018
-98,103	41,079	0,048	-0,031
-97,089	-63,507	0,095	0,028
-96,074	-100,222	0,082	-0,014
-95,059	-200,000	-0,032	0,140
-94,045	-200,000	-0,001	0,071
-93,030	305,615	-0,013	-0,017
-92,016	293,752	-0,044	-0,058
-91,001	-200,000	-0,023	0,108
-89,986	404,148	0,015	0,023
-88,972	-78,155	0,057	-0,014
-87,957	791,831	-0,069	-0,136
-86,943	269,216	0,042	0,053
-85,928	9,788	-0,046	0,025
-84,913	386,172	-0,022	-0,033
-83,899	598,578	0,036	0,065
-82,884	-200,000	0,008	0,093
-81,870	-94,911	0,048	0,009
-80,855	-190,718	-0,078	0,001
-79,840	800,000	-0,028	-0,057
-78,826	-131,496	0,156	0,015
-77,811	800,000	-0,038	0,111
-76,797	56,927	-0,060	0,042
-75,782	800,000	0,036	0,098
-74,767	-48,074	0,105	-0,036
-73,753	800,000	0,066	-0,175
-72,738	686,776	0,060	-0,114
-71,724	471,402	0,010	0,016
-70,709	-92,888	0,080	0,016
-69,694	57,313	0,137	0,096
-68,680	322,629	0,031	0,043
-67,665	-22,821	0,048	-0,021
-66,651	9,589	0,084	-0,046
-65,636	424,002	-0,068	0,106
-64,622	-200,000	-0,039	0,146
-63,607	800,000	0,014	-0,044
-62,592	137,028	0,044	0,041
-61,578	159,787	0,065	-0,065
-60,563	-85,666	-0,105	0,023
-59,549	77,669	-0,079	0,060
-58,534	26,250	-1,951	-1,167
-57,519	-200,000	-0,254	-0,844
-56,505	-200,000	-1,304	-4,980
-55,490	85,004	0,825	0,649
-54,476	800,000	5,296	12,051
-53,461	-200,000	18,130	299,235
-52,446	800,000	733,347	2261,374
-51,432	540,514	1649,921	2829,419
-50,417	109,171	1638,069	1405,857
-49,403	74,025	1288,522	968,899
-48,388	31,022	1028,469	631,070
-47,373	20,088	990,523	571,685
-46,359	18,032	978,264	557,840
-45,344	14,846	974,259	545,097
-44,330	15,170	972,733	545,283
-43,315	14,664	970,771	542,508
-42,300	14,552	969,775	541,565
-41,286	14,578	968,656	541,002
-40,271	14,602	967,665	540,506
-39,257	14,656	966,766	540,158
-38,242	14,553	966,200	539,485
-37,227	14,624	965,202	539,139
-36,213	14,582	964,378	538,519
-35,198	14,547	963,436	537,858
-34,184	14,638	962,633	537,684
-33,169	14,563	961,676	536,884
-32,154	14,625	960,850	536,602
-31,140	14,605	959,840	535,953
-30,125	14,673	959,124	535,754
-29,111	14,565	958,570	535,073
-28,096	14,651	957,527	534,747
-27,082	14,577	956,988	534,186
-26,067	14,700	956,151	534,092
-25,052	14,561	955,543	533,287
-24,038	14,583	954,863	532,957
-23,023	14,557	954,399	532,592
-22,009	14,608	953,557	532,266
-20,994	14,627	952,764	531,863
-19,979	14,634	952,214	531,555
-18,965	14,581	951,548	530,995
-17,950	14,592	950,980	530,692
-16,936	14,539	950,335	530,139
-15,921	14,549	949,639	529,763
-14,906	14,503	948,721	529,085
-13,892	14,426	948,446	528,664
-12,877	14,488	947,623	528,380
-11,863	14,427	947,007	527,822
-10,848	14,460	946,627	527,695
-9,833	14,525	946,272	527,683
-8,819	14,597	945,269	527,331
-7,804	14,520	944,771	526,789
-6,790	14,485	944,246	526,364
-5,775	14,553	943,466	526,124
-4,760	14,536	942,723	525,635
-3,746	14,480	942,203	525,147
-2,731	14,366	941,680	524,473
-1,717	14,314	940,939	523,874
-0,702	14,333	940,422	523,626
0,313	14,187	939,754	523,583
1,327	17,259	937,311	531,859
2,342	25,911	793,141	472,958
3,356	21,860	458,160	266,990
4,371	-5,174	314,588	154,542
5,386	-9,366	296,296	141,297
6,400	-11,608	290,279	136,188
7,415	-11,436	287,760	135,164
8,429	-11,539	286,541	134,478
9,444	-11,595	285,654	133,996
10,459	-11,308	284,836	133,879
11,473	-11,576	284,368	133,387
12,488	-11,410	283,798	133,269
13,502	-11,624	283,246	132,790
14,517	-11,354	282,982	132,916
15,531	-11,153	282,730	132,980
16,546	-10,900	282,276	132,999
17,561	-10,998	282,001	132,764
18,575	-10,909	281,689	132,690
19,590	-10,820	281,142	132,507
20,604	-10,683	280,935	132,528
21,619	-10,862	280,528	132,153
22,634	-10,789	280,275	132,092
23,648	-10,899	279,892	131,795
24,663	-11,042	279,779	131,593
25,677	-10,851	279,599	131,679
26,692	-10,580	279,103	131,692
27,707	-10,758	278,870	131,401
28,721	-11,035	278,696	131,043
29,736	-11,077	278,226	130,771
30,750	-10,919	277,968	130,788
31,765	-10,977	277,847	130,664
32,780	-11,078	277,654	130,466
33,794	-10,992	277,343	130,390
34,809	-10,868	277,163	130,411
35,823	-10,918	276,836	130,198
36,838	-11,007	276,622	130,002
37,853	-11,159	276,435	129,759
38,867	-10,941	276,164	129,825
39,882	-11,121	275,836	129,490
40,896	-11,077	275,551	129,387
41,911	-11,038	275,221	129,256
42,926	-10,956	275,089	129,260
43,940	-10,961	274,749	129,084
44,955	-11,107	274,685	128,905
45,969	-10,958	274,340	128,872
46,984	-11,209	274,182	128,551
47,999	-11,202	273,727	128,333
49,013	-11,254	273,591	128,210
50,028	-11,549	273,328	127,799
51,042	-11,541	273,075	127,677
52,057	-11,424	272,849	127,669
53,071	-11,536	272,663	127,466
54,086	-11,349	272,399	127,505
55,101	-11,306	272,227	127,453
56,115	-11,345	272,086	127,340
57,130	-11,043	271,962	127,550
58,144	-11,103	271,636	127,331
59,159	-10,949	271,452	127,376
60,174	-10,974	271,166	127,207
61,188	-11,074	270,947	127,000
62,203	-11,052	270,856	126,966
63,217	-10,808	270,493	127,011
64,232	-10,868	270,355	126,878
65,247	-11,145	270,182	126,532
66,261	-11,110	269,788	126,367
67,276	-11,063	269,634	126,327
68,290	-11,200	269,448	126,103
69,305	-11,397	269,093	125,746
70,320	-11,211	269,024	125,872
71,334	-11,231	268,885	125,778
72,349	-10,898	268,376	125,832
73,363	-10,953	268,222	125,699
74,378	-11,083	268,064	125,495
75,393	-10,830	267,827	125,603
76,407	-10,957	267,720	125,426
77,422	-10,957	267,427	125,278
78,436	-11,054	267,143	125,045
79,451	-11,139	267,199	124,984
80,466	-11,162	266,785	124,758
81,480	-10,951	266,474	124,792
82,495	-11,256	266,360	124,452
83,509	-11,233	266,280	124,425
84,524	-10,982	265,969	124,495
85,539	-11,184	265,761	124,204
86,553	-11,340	265,567	123,961
87,568	-11,142	265,294	124,002
88,582	-11,340	265,173	123,755
89,597	-11,198	264,781	123,689
90,611	-11,215	264,805	123,674
91,626	-10,902	264,528	123,814
92,641	-10,934	264,422	123,725
93,655	-10,950	264,129	123,563
94,670	-10,916	263,926	123,487
95,684	-11,113	263,760	123,222
96,699	-11,161	263,507	123,050
97,714	-11,184	263,260	122,903
98,728	-11,225	263,050	122,757
99,743	-11,219	262,900	122,682
100,757	-11,383	262,743	122,452
101,772	-11,010	262,451	122,637
102,787	-11,257	262,349	122,358
103,801	-11,328	262,049	122,145
104,816	-11,190	261,934	122,203
105,830	-11,217	261,906	122,155
106,845	-10,894	261,574	122,275
107,860	-11,142	261,423	121,974
108,874	-11,286	261,165	121,715
109,889	-11,214	260,789	121,593
110,903	-11,241	260,659	121,498
111,918	-11,324	260,510	121,344
112,933	-11,303	260,378	121,290
113,947	-11,234	260,092	121,207
114,962	-11,279	259,949	121,090
115,976	-11,326	259,828	120,981
116,991	-11,171	259,613	121,006
118,006	-11,142	259,340	120,894
119,020	-11,200	259,366	120,844
120,035	-11,037	259,060	120,834
121,049	-11,071	258,924	120,730
122,064	-11,183	258,653	120,494
123,079	-11,153	258,447	120,414
124,093	-11,218	258,397	120,323
125,108	-11,176	257,968	120,150
126,122	-11,146	257,848	120,109
127,137	-11,230	257,618	119,918
128,151	-11,459	257,551	119,677
129,166	-11,123	257,255	119,821
130,181	-11,269	257,199	119,657
131,195	-11,369	256,895	119,418
132,210	-11,209	256,570	119,396
133,224	-11,300	256,553	119,297
134,239	-11,392	256,418	119,145
135,254	-11,186	256,019	119,127
136,268	-11,299	255,912	118,969
137,283	-11,314	255,635	118,817
138,297	-11,452	255,396	118,575
139,312	-11,455	255,245	118,492
140,327	-11,242	255,087	118,592
141,341	-11,055	255,079	118,739
142,356	-11,271	254,910	118,463
143,370	-11,101	254,669	118,487
144,385	-10,754	254,493	118,693
145,400	-10,900	254,415	118,521
146,414	-10,807	254,268	118,522
147,429	-10,806	253,861	118,323
148,443	-10,804	253,776	118,275
149,458	-11,063	253,630	117,974
150,473	-11,041	253,459	117,902
151,487	-11,072	253,098	117,698
152,502	-11,082	253,080	117,670
153,516	-10,770	252,898	117,841
154,531	-10,830	252,605	117,643
155,546	-10,988	252,467	117,433
156,560	-10,959	252,242	117,343
157,575	-11,217	251,998	117,000
158,589	-11,054	251,711	116,994
159,604	-10,992	251,780	117,069
160,619	-10,816	251,644	117,145
161,633	-10,699	251,369	117,106
162,648	-10,819	251,303	116,963
163,662	-11,113	251,123	116,619
164,677	-11,113	250,900	116,505
165,692	-10,947	250,733	116,558
166,706	-10,689	250,674	116,738
167,721	-10,769	250,285	116,479
168,735	-10,874	250,371	116,420
169,750	-11,046	250,209	116,189
170,764	-11,118	250,109	116,071
171,779	-11,158	249,727	115,851
172,794	-11,040	249,707	115,930
173,808	-11,063	249,456	115,784
174,823	-11,184	249,159	115,534
175,837	-11,384	248,882	115,228
176,852	-11,320	248,873	115,266
177,867	-11,113	248,845	115,417
178,881	-11,119	248,570	115,274
179,896	-10,912	248,491	115,400
180,910	-10,908	248,280	115,296
181,925	-10,987	248,067	115,120
182,940	-10,949	247,890	115,060
183,954	-11,117	247,680	114,811
184,969	-10,868	247,550	114,949
185,983	-10,862	247,557	114,947
186,998	-10,835	247,200	114,793
188,013	-10,618	247,062	114,900
189,027	-10,633	246,782	114,746
190,042	-10,936	246,582	114,392
191,056	-10,940	246,341	114,267
192,071	-11,175	246,252	114,020
193,086	-11,537	246,169	113,671
194,100	-11,227	245,892	113,790
195,115	-10,991	245,828	113,946
196,129	-10,941	245,605	113,874
197,144	-11,269	245,447	113,519
198,159	-11,148	245,151	113,472
199,173	-11,260	244,891	113,249
200,188	-11,416	244,641	112,995
201,202	-11,749	244,409	112,604
202,217	-11,626	244,473	112,725
203,232	-11,575	244,194	112,628
204,246	-11,567	243,660	112,378
205,261	-12,856	243,158	111,082
206,275	-13,530	243,085	110,487
207,290	-9,104	244,606	114,810
208,304	-1,068	247,247	122,702
209,319	3,267	248,465	126,895
210,334	4,187	248,497	127,663
211,348	4,459	248,498	127,878
212,363	4,550	248,446	127,915
213,377	4,676	248,262	127,913
214,392	4,563	248,325	127,840
215,407	4,762	248,029	127,840
216,421	4,731	247,803	127,687
217,436	4,617	247,718	127,538
218,450	4,762	247,521	127,545
219,465	4,613	247,370	127,332
220,480	4,514	247,217	127,161
221,494	4,517	246,956	127,018
222,509	4,307	246,704	126,705
223,523	4,267	246,392	126,500
224,538	3,880	246,236	126,091
225,553	3,649	246,031	125,786
226,567	3,583	245,846	125,626
227,582	3,753	245,664	125,661
228,596	3,640	245,542	125,495
229,611	3,589	245,319	125,328
230,626	3,728	245,198	125,369
231,640	3,521	245,112	125,144
232,655	3,801	245,021	125,315
233,669	3,801	244,844	125,214
234,684	3,597	244,447	124,833
235,699	3,758	244,406	124,932
236,713	3,756	244,314	124,873
237,728	3,817	244,117	124,810
238,742	3,884	243,935	124,761
239,757	3,725	243,711	124,506
240,772	3,709	243,591	124,420
241,786	3,802	243,383	124,379
242,801	3,647	243,320	124,210
243,815	3,621	243,134	124,083
244,830	3,647	243,005	124,027
245,844	3,697	242,837	123,971
246,859	3,557	242,644	123,748
247,874	3,722	242,604	123,850
248,888	3,746	242,442	123,775
249,903	3,726	242,205	123,627
250,917	3,907	242,107	123,712
251,932	4,080	241,976	123,773
252,947	3,901	241,855	123,556
253,961	3,728	241,594	123,273
254,976	3,870	241,441	123,298
255,990	3,909	241,320	123,256
257,005	3,838	241,143	123,098
258,020	3,674	240,972	122,868
259,034	3,771	240,812	122,853
260,049	3,745	240,699	122,764
261,063	3,492	240,605	122,503
262,078	3,813	240,393	122,640
263,093	3,898	240,269	122,634
264,107	3,661	240,012	122,303
265,122	3,518	239,908	122,125
266,136	3,905	239,738	122,336
267,151	3,993	239,665	122,357
268,166	3,674	239,429	121,973
269,180	3,628	239,272	121,846
270,195	3,817	239,099	121,896
271,209	3,803	239,118	121,884
272,224	3,765	238,810	121,686
273,239	3,497	238,693	121,403
274,253	3,654	238,584	121,461
275,268	3,691	238,186	121,277
276,282	3,502	238,263	121,156
277,297	3,689	237,930	121,124
278,312	3,888	237,880	121,245
279,326	3,751	237,731	121,049
280,341	3,824	237,662	121,061
281,355	3,727	237,515	120,899
282,370	3,871	237,251	120,868
283,384	3,717	237,180	120,699
284,399	3,720	236,983	120,590
285,414	3,694	236,660	120,395
286,428	3,752	236,688	120,444
287,443	3,772	236,480	120,343
288,457	3,860	236,350	120,335
289,472	3,816	236,200	120,213
290,487	3,584	236,121	119,981
291,501	3,438	235,859	119,723
292,516	3,465	235,706	119,655
293,530	3,630	235,450	119,644
294,545	3,534	235,618	119,644
295,560	3,719	235,307	119,620
296,574	3,575	235,054	119,368
297,589	3,663	234,951	119,373
298,603	3,736	234,932	119,410
299,618	3,642	234,758	119,238
300,633	3,764	234,713	119,299
301,647	3,888	234,482	119,267
302,662	3,891	234,487	119,261
303,676	4,146	234,121	119,262
304,691	3,777	234,038	118,923
305,706	4,009	233,789	118,966
306,720	3,800	233,790	118,794
307,735	4,012	233,577	118,839
308,749	3,796	233,341	118,542
309,764	3,564	233,297	118,330
310,779	3,438	233,080	118,112
311,793	3,522	232,897	118,074
312,808	3,642	232,568	117,989
313,822	3,914	232,582	118,195
314,837	3,858	232,540	118,119
315,852	3,816	232,349	117,980
316,866	3,951	232,210	118,002
317,881	4,027	232,194	118,042
318,895	3,847	231,997	117,793
319,910	3,997	231,805	117,800
320,925	3,777	231,620	117,527
321,939	3,670	231,355	117,301
322,954	3,702	231,364	117,318
323,968	3,729	231,119	117,205
324,983	3,740	231,041	117,163
325,997	4,010	230,942	117,309
327,012	3,966	230,775	117,180
328,027	3,801	230,658	116,984
329,041	3,952	230,566	117,042
330,056	3,783	230,371	116,804
331,070	3,862	230,364	116,850
332,085	3,940	230,025	116,726
333,100	3,637	229,867	116,406
334,114	3,853	229,529	116,389
335,129	3,933	229,536	116,442
336,143	3,940	229,409	116,373
337,158	3,839	229,254	116,207
338,173	3,920	229,317	116,290
339,187	3,842	229,034	116,077
340,202	3,850	228,880	115,995
341,216	3,790	228,743	115,870
342,231	3,731	228,539	115,712
343,246	3,700	228,433	115,624
344,260	3,829	228,225	115,606
345,275	3,976	228,045	115,614
346,289	3,823	228,091	115,513
347,304	4,086	227,645	115,475
348,319	3,853	227,724	115,329
349,333	3,761	227,526	115,150
350,348	3,757	227,454	115,100
351,362	3,819	227,208	115,012
352,377	3,671	227,127	114,849
353,392	3,528	226,924	114,629
354,406	3,486	226,820	114,535
355,421	195,948	1316,719	1393,942
356,435	157,135	1449,478	1393,917
