DTS Sentinel unit serial number:	SN410029Multiplexer serial number:	ORYXHardware model number:	OX2-SRSoftware version number:	ORYX F/W v4,00 Oryx Data Collector v3.7.2.0data status	okinstallation	B5 Nyhavnadifferential loss correction	single-endedforward channel	channel 2reverse channel	N/Adate	2023/12/12time	10:02:13forward acquisition time	300,00reverse acquisition time	0,00gamma	499,1914k internal	0,3158k external	0,3158temperature offset calibration	1,0000default loss term (dB/km)	0,3820temperature slope calibration	1,0000multiplexer offset coefficient	1,0000multiplexer slope coefficient	1,0000fibre end	0,00T internal ref (°C)	15,00T ext. ref 1 (°C)	-1,30T ext. ref 2 (°C)	-1,60length (m)	temperature (°C)	Stokes	anti-Stokes-744,400	715,619	0,059	0,117
-743,385	-98,920	-0,247	0,046
-742,371	-114,841	0,200	0,028
-741,356	-93,737	-0,195	-0,039
-740,342	50,974	0,123	0,086
-739,327	-96,402	-0,423	-0,082
-738,312	800,000	0,063	0,139
-737,298	-155,496	-0,335	0,016
-736,283	58,602	0,052	-0,037
-735,269	-91,525	-0,414	0,086
-734,254	93,023	0,099	0,082
-733,239	2,642	-0,388	-0,207
-732,225	-104,968	0,301	-0,050
-731,210	-55,685	0,167	-0,055
-730,196	26,005	-0,047	0,029
-729,181	677,468	0,061	0,117
-728,167	-134,530	-0,141	-0,013
-727,152	-117,628	-0,187	-0,025
-726,137	74,090	-0,080	0,062
-725,123	505,261	-0,104	0,179
-724,108	77,189	-0,041	-0,032
-723,094	162,637	-0,025	0,026
-722,079	-29,027	-0,142	-0,060
-721,064	-200,000	0,032	-0,148
-720,050	-200,000	-0,011	0,038
-719,035	-24,441	-0,169	0,074
-718,021	800,000	-0,018	-0,045
-717,006	-200,000	0,032	-0,178
-715,991	169,118	-0,127	-0,133
-714,977	800,000	-0,012	0,026
-713,962	12,406	-0,090	-0,051
-712,948	-19,840	0,150	-0,068
-711,933	-194,769	-0,139	-0,001
-710,918	-66,775	-0,153	-0,044
-709,904	-200,000	-0,004	-0,186
-708,889	59,085	-0,045	0,032
-707,875	-21,344	-0,063	0,028
-706,860	65,321	-0,055	0,041
-705,845	-123,837	-0,189	0,022
-704,831	-200,000	-0,005	0,057
-703,816	800,000	-0,020	-0,048
-702,802	800,000	-0,014	0,029
-701,787	-95,730	-0,079	-0,015
-700,772	-200,000	-0,002	-0,089
-699,758	215,024	-0,029	-0,033
-698,743	-96,620	0,212	-0,041
-697,729	2,934	-0,043	0,023
-696,714	-26,885	-0,058	0,025
-695,699	126,001	-0,084	-0,078
-694,685	-122,149	-0,080	0,010
-693,670	329,189	0,066	-0,094
-692,656	800,000	-0,062	0,143
-691,641	800,000	0,024	0,051
-690,627	-147,247	0,135	-0,008
-689,612	-106,026	-0,073	-0,012
-688,597	307,289	-0,087	-0,119
-687,583	-142,492	-0,187	-0,013
-686,568	441,939	-0,099	-0,161
-685,554	123,650	-0,068	-0,062
-684,539	122,552	0,042	-0,038
-683,524	-200,000	-0,005	0,065
-682,510	457,681	-0,035	0,058
-681,495	-15,453	-0,076	-0,036
-680,481	576,049	-0,040	-0,072
-679,466	-23,372	-0,063	-0,028
-678,451	-167,045	-0,132	-0,004
-677,437	324,319	-0,030	-0,043
-676,422	-172,577	0,158	0,004
-675,408	414,326	0,046	-0,072
-674,393	546,628	0,074	-0,131
-673,378	-97,558	-0,023	-0,004
-672,364	431,950	-0,093	-0,149
-671,349	800,000	-0,022	0,067
-670,335	-88,384	0,019	0,004
-669,320	167,235	0,046	0,048
-668,305	-10,991	-0,031	-0,015
-667,291	-25,829	-0,110	0,047
-666,276	307,730	-0,062	0,085
-665,262	-27,499	0,065	-0,027
-664,247	278,764	-0,101	-0,133
-663,232	-200,000	-0,025	-0,098
-662,218	-200,000	-0,008	-0,072
-661,203	-81,711	-0,079	-0,019
-660,189	70,561	-0,077	0,058
-659,174	-200,000	-0,004	-0,077
-658,159	26,888	-0,173	0,106
-657,145	-200,000	0,007	0,050
-656,130	383,736	0,031	0,046
-655,116	-21,566	0,047	0,021
-654,101	-200,000	0,011	0,135
-653,086	-143,992	-0,163	0,011
-652,072	-154,821	0,027	-0,001
-651,057	-200,000	-0,018	0,067
-650,043	800,000	-0,078	-0,209
-649,028	327,175	-0,054	-0,077
-648,014	-65,629	0,158	-0,046
-646,999	319,609	-0,032	0,044
-645,984	-24,643	-0,052	0,023
-644,970	800,000	0,033	0,098
-643,955	800,000	0,059	-0,133
-642,941	800,000	-0,008	0,023
-641,926	-200,000	0,002	-0,147
-640,911	-200,000	0,014	0,127
-639,897	-30,867	-0,046	-0,019
-638,882	-71,765	0,049	0,013
-637,868	-200,000	0,017	-0,122
-636,853	-96,787	-0,220	-0,042
-635,838	607,619	0,065	0,119
-634,824	800,000	-0,053	-0,129
-633,809	39,426	-0,051	-0,034
-632,795	102,104	0,110	-0,094
-631,780	800,000	0,031	-0,067
-630,765	123,819	0,039	-0,036
-629,751	-54,135	-0,102	0,034
-628,736	146,413	-0,125	-0,124
-627,722	-123,070	-0,111	0,013
-626,707	242,220	-0,011	-0,014
-625,692	-145,676	0,140	-0,009
-624,678	-200,000	0,034	0,147
-623,663	800,000	0,053	0,161
-622,649	465,503	-0,104	-0,171
-621,634	223,805	0,064	-0,076
-620,619	456,477	-0,048	-0,079
-619,605	-200,000	0,011	-0,052
-618,590	800,000	0,011	0,029
-617,576	-200,000	-0,012	-0,132
-616,561	574,079	-0,077	0,138
-615,546	95,543	-0,038	-0,032
-614,532	323,882	-0,061	-0,086
-613,517	800,000	-0,068	0,160
-612,503	-200,000	0,011	0,064
-611,488	-200,000	0,029	-0,167
-610,474	-10,968	0,050	-0,024
-609,459	-92,355	-0,225	-0,046
-608,444	35,986	-0,042	-0,027
-607,430	299,256	0,044	0,060
-606,415	-77,587	-0,117	-0,029
-605,401	6,783	-0,020	-0,011
-604,386	-165,026	0,021	-0,001
-603,371	800,000	0,022	0,053
-602,357	-153,710	0,125	-0,006
-601,342	70,404	-0,136	0,103
-600,328	-200,000	0,014	0,084
-599,313	-6,086	0,088	-0,044
-598,298	32,778	0,061	-0,038
-597,284	113,808	-0,064	-0,057
-596,269	50,934	-0,016	0,011
-595,255	451,363	0,052	-0,085
-594,240	-62,837	-0,079	-0,024
-593,225	23,822	0,005	-0,003
-592,211	800,000	-0,056	-0,169
-591,196	148,647	-0,082	0,081
-590,182	-158,470	0,088	0,004
-589,167	-200,000	0,009	0,191
-588,152	-200,000	0,019	0,070
-587,138	369,267	-0,064	0,096
-586,123	-1,778	-0,093	0,048
-585,109	-200,000	0,001	-0,054
-584,094	-200,000	-0,009	-0,067
-583,079	200,420	0,091	0,103
-582,065	-200,000	-0,010	-0,104
-581,050	-200,000	0,005	0,157
-580,036	-200,000	0,003	-0,073
-579,021	-200,000	-0,029	0,121
-578,006	-200,000	0,009	-0,137
-576,992	246,427	-0,126	-0,156
-575,977	-44,010	0,115	0,042
-574,963	-200,000	-0,002	0,032
-573,948	-110,104	-0,032	-0,005
-572,934	-104,887	0,140	-0,023
-571,919	285,864	0,034	-0,045
-570,904	-200,000	-0,006	0,022
-569,890	26,283	0,102	-0,062
-568,875	800,000	-0,015	0,040
-567,861	517,989	-0,041	0,070
-566,846	-57,085	-0,139	0,045
-565,831	31,484	0,059	0,037
-564,817	244,793	-0,016	0,019
-563,802	-71,791	-0,208	-0,056
-562,788	-200,000	-0,003	-0,013
-561,773	91,408	0,069	0,057
-560,758	45,441	0,082	0,055
-559,744	5,783	0,101	-0,055
-558,729	-177,162	-0,072	-0,001
-557,715	128,104	0,065	-0,061
-556,700	195,937	-0,023	-0,026
-555,685	-14,992	-0,115	0,054
-554,671	-86,237	0,085	0,019
-553,656	305,598	-0,040	0,055
-552,642	572,291	0,031	0,055
-551,627	303,623	0,034	0,047
-550,612	800,000	0,051	-0,145
-549,598	26,694	-0,033	0,020
-548,583	-7,882	-0,100	0,049
-547,569	800,000	-0,037	-0,078
-546,554	-200,000	0,026	0,132
-545,539	800,000	-0,030	0,075
-544,525	171,155	0,057	0,060
-543,510	-61,055	0,079	0,024
-542,496	800,000	0,036	0,088
-541,481	-200,000	0,032	-0,128
-540,466	165,901	-0,092	-0,096
-539,452	-72,841	0,087	-0,023
-538,437	88,984	-0,099	0,081
-537,423	-174,795	0,101	0,002
-536,408	-15,242	-0,111	0,052
-535,393	53,585	-0,045	0,032
-534,379	-200,000	-0,027	-0,092
-533,364	71,343	-0,046	-0,035
-532,350	250,715	-0,058	0,072
-531,335	73,450	0,022	-0,017
-530,321	800,000	-0,042	0,112
-529,306	415,789	-0,067	0,105
-528,291	289,116	0,036	0,048
-527,277	57,781	-0,071	-0,051
-526,262	800,000	-0,009	-0,022
-525,248	135,589	0,057	-0,054
-524,233	29,521	0,061	-0,038
-523,218	-90,995	0,158	0,033
-522,204	-148,419	-0,030	0,002
-521,189	39,819	0,138	-0,090
-520,175	214,004	-0,046	0,053
-519,160	102,261	-0,089	0,076
-518,145	157,552	0,026	-0,026
-517,131	-200,000	0,005	0,065
-516,116	775,974	0,025	-0,050
-515,102	800,000	-0,018	-0,040
-514,087	-92,908	-0,123	0,025
-513,072	800,000	0,046	-0,119
-512,058	-200,000	0,005	-0,079
-511,043	-4,112	0,131	-0,066
-510,029	323,737	-0,081	0,113
-509,014	-200,000	0,010	0,146
-507,999	-200,000	-0,017	0,095
-506,985	351,919	0,094	-0,137
-505,970	203,111	-0,076	-0,086
-504,956	-200,000	-0,002	0,026
-503,941	13,440	0,040	-0,022
-502,926	157,113	0,023	0,023
-501,912	800,000	-0,021	0,062
-500,897	227,430	-0,060	-0,072
-499,883	800,000	-0,027	-0,086
-498,868	-84,074	-0,113	-0,026
-497,853	144,051	-0,124	-0,120
-496,839	75,952	0,082	0,063
-495,824	800,000	-0,034	0,089
-494,810	-132,103	-0,054	0,005
-493,795	-200,000	0,001	-0,039
-492,781	-200,000	-0,011	0,224
-491,766	-7,221	-0,086	0,042
-490,751	53,224	0,043	0,030
-489,737	-105,317	0,017	0,003
-488,722	-200,000	-0,014	-0,057
-487,708	-200,000	0,011	-0,076
-486,693	556,130	-0,064	0,113
-485,678	-200,000	0,032	0,114
-484,664	126,927	0,037	-0,034
-483,649	-55,105	0,039	0,013
-482,635	800,000	0,070	-0,153
-481,620	-200,000	-0,000	-0,099
-480,605	-69,927	-0,050	0,014
-479,591	-134,548	-0,010	-0,001
-478,576	-9,882	-0,075	0,036
-477,562	-200,000	0,007	0,022
-476,547	468,441	0,054	-0,090
-475,532	56,749	0,023	-0,017
-474,518	112,217	0,102	-0,090
-473,503	-200,000	0,024	-0,110
-472,489	-200,000	-0,006	0,042
-471,474	449,272	0,058	-0,094
-470,459	108,586	-0,058	-0,050
-469,445	-91,061	-0,036	0,007
-468,430	-200,000	0,000	-0,116
-467,416	234,471	-0,088	0,106
-466,401	-200,000	0,000	0,061
-465,386	-78,852	-0,046	-0,011
-464,372	800,000	0,052	0,114
-463,357	62,070	0,085	0,062
-462,343	68,401	-0,012	-0,009
-461,328	800,000	0,032	-0,098
-460,313	59,272	0,098	0,070
-459,299	516,172	0,124	0,212
-458,284	29,866	-0,073	0,045
-457,270	-101,341	-0,213	-0,037
-456,255	271,542	-0,078	-0,101
-455,241	295,860	-0,014	-0,018
-454,226	-200,000	-0,001	-0,025
-453,211	-200,000	0,016	0,061
-452,197	-1,166	0,043	-0,022
-451,182	800,000	0,005	0,014
-450,168	800,000	-0,022	0,045
-449,153	31,386	-0,128	-0,080
-448,138	12,682	0,044	-0,025
-447,124	800,000	0,027	0,070
-446,109	57,331	-0,076	0,054
-445,095	-24,522	-0,038	-0,016
-444,080	-200,000	0,011	-0,095
-443,065	-200,000	0,003	-0,040
-442,051	103,976	-0,099	-0,085
-441,036	-141,367	0,014	0,001
-440,022	228,254	-0,078	0,092
-439,007	612,331	0,040	0,074
-437,992	-125,139	0,077	-0,009
-436,978	-200,000	-0,002	-0,048
-435,963	130,828	0,120	0,113
-434,949	55,280	0,099	-0,069
-433,934	134,204	-0,080	-0,075
-432,919	614,758	0,020	0,036
-431,905	41,355	0,078	-0,051
-430,890	-200,000	-0,014	0,216
-429,876	21,291	-0,137	0,081
-428,861	-127,081	-0,018	-0,002
-427,846	5,379	-0,187	-0,100
-426,832	324,062	-0,004	0,005
-425,817	800,000	-0,034	0,088
-424,803	373,818	0,124	-0,184
-423,788	409,340	-0,025	0,038
-422,773	800,000	-0,061	0,182
-421,759	-200,000	-0,035	0,176
-420,744	-19,305	-0,040	-0,018
-419,730	-16,339	-0,038	0,017
-418,715	-85,778	-0,118	0,026
-417,701	-178,201	-0,070	0,001
-416,686	-60,051	0,064	-0,020
-415,671	-200,000	-0,010	0,057
-414,657	-200,000	-0,017	-0,118
-413,642	-41,259	-0,185	0,069
-412,628	-200,000	-0,017	-0,076
-411,613	350,275	-0,057	-0,083
-410,598	-10,832	0,040	0,019
-409,584	474,287	-0,029	-0,048
-408,569	-16,022	-0,073	0,034
-407,555	-135,063	0,110	-0,010
-406,540	512,095	-0,049	-0,083
-405,525	-48,728	-0,203	0,070
-404,511	106,610	0,065	0,056
-403,496	-43,269	-0,128	-0,047
-402,482	775,303	-0,024	0,049
-401,467	-55,955	-0,060	-0,019
-400,452	-24,184	0,128	-0,055
-399,438	800,000	-0,037	0,104
-398,423	-41,801	-0,075	0,028
-397,409	-200,000	-0,020	-0,121
-396,394	-200,000	-0,012	0,072
-395,379	-110,102	-0,088	-0,013
-394,365	-200,000	-0,003	0,070
-393,350	362,939	0,077	0,113
-392,336	-141,706	-0,128	0,009
-391,321	-200,000	-0,018	-0,071
-390,306	-200,000	-0,013	-0,066
-389,292	542,444	-0,046	-0,081
-388,277	-200,000	0,035	-0,165
-387,263	-83,956	-0,043	-0,010
-386,248	483,528	0,024	-0,040
-385,233	67,653	-0,053	0,039
-384,219	800,000	0,065	0,161
-383,204	484,828	-0,022	0,037
-382,190	800,000	0,049	-0,120
-381,175	-200,000	-0,005	0,141
-380,160	437,561	0,026	0,041
-379,146	160,470	-0,069	0,070
-378,131	-31,013	0,052	0,021
-377,117	-11,515	-0,142	0,067
-376,102	-23,386	0,055	-0,024
-375,088	-200,000	-0,008	0,041
-374,073	-162,813	0,052	-0,002
-373,058	-200,000	0,001	0,062
-372,044	-100,882	0,137	-0,024
-371,029	-95,936	0,181	-0,035
-370,015	-52,083	0,082	-0,027
-369,000	-13,565	-0,056	-0,026
-367,985	61,166	0,087	-0,062
-366,971	13,201	0,094	0,053
-365,956	-48,804	-0,072	0,025
-364,942	122,637	0,056	0,051
-363,927	75,949	-0,055	-0,043
-362,912	334,528	-0,049	0,069
-361,898	800,000	-0,007	-0,020
-360,883	399,049	0,055	-0,084
-359,869	800,000	-0,034	-0,079
-358,854	58,103	0,068	-0,049
-357,839	-200,000	-0,033	0,126
-356,825	-200,000	0,021	0,073
-355,810	158,765	-0,047	0,047
-354,796	-123,347	-0,096	-0,011
-353,781	491,289	-0,017	0,028
-352,766	-200,000	-0,004	-0,015
-351,752	450,097	0,040	0,064
-350,737	-200,000	-0,003	0,061
-349,723	-200,000	-0,033	-0,127
-348,708	-21,927	0,050	-0,022
-347,693	-200,000	0,002	0,026
-346,679	195,159	-0,023	0,026
-345,664	-114,897	0,023	-0,003
-344,650	-33,861	-0,037	0,015
-343,635	-200,000	-0,021	0,074
-342,620	-200,000	0,001	-0,036
-341,606	-10,132	0,048	0,023
-340,591	-10,192	-0,124	-0,060
-339,577	30,450	-0,095	-0,059
-338,562	-200,000	0,004	0,086
-337,548	800,000	0,019	-0,043
-336,533	-200,000	0,004	0,104
-335,518	-200,000	0,005	0,104
-334,504	-136,106	0,139	0,012
-333,489	-86,053	-0,088	-0,020
-332,475	-99,011	0,062	-0,011
-331,460	-74,203	-0,078	0,020
-330,445	52,928	-0,172	0,120
-329,431	-200,000	0,013	0,129
-328,416	-127,749	0,070	-0,007
-327,402	408,384	0,021	0,033
-326,387	-200,000	-0,031	0,144
-325,372	-83,146	0,019	0,004
-324,358	800,000	0,040	-0,119
-323,343	-58,509	-0,019	0,006
-322,329	-103,364	0,066	0,011
-321,314	508,037	0,070	-0,118
-320,299	-200,000	-0,046	0,167
-319,285	159,983	0,051	0,052
-318,270	-200,000	-0,002	0,091
-317,256	564,796	0,074	-0,130
-316,241	35,451	-0,057	-0,036
-315,226	301,307	-0,060	-0,080
-314,212	30,774	0,109	-0,068
-313,197	128,529	0,089	-0,082
-312,183	-200,000	0,033	0,190
-311,168	800,000	-0,046	0,132
-310,153	-180,252	-0,064	0,001
-309,139	800,000	0,014	0,040
-308,124	19,196	-0,071	0,041
-307,110	384,136	-0,060	0,090
-306,095	105,389	0,130	0,111
-305,080	133,396	0,034	0,032
-304,066	-200,000	0,004	-0,068
-303,051	-105,636	0,064	-0,010
-302,037	197,770	-0,015	-0,016
-301,022	-200,000	0,000	0,074
-300,008	-200,000	0,008	-0,053
-298,993	-100,463	-0,067	0,012
-297,978	95,468	-0,050	-0,041
-296,964	-84,585	-0,075	-0,017
-295,949	-131,961	0,035	-0,003
-294,935	249,486	-0,109	-0,134
-293,920	-200,000	-0,011	-0,109
-292,905	-190,766	0,070	-0,001
-291,891	662,483	0,057	-0,108
-290,876	-46,520	0,037	0,013
-289,862	-51,509	-0,111	-0,037
-288,847	577,877	0,022	-0,039
-287,832	584,795	-0,066	-0,117
-286,818	379,686	-0,082	-0,122
-285,803	-200,000	0,006	-0,045
-284,789	51,062	0,104	-0,071
-283,774	180,821	0,025	0,027
-282,759	140,575	0,109	-0,105
-281,745	-33,557	-0,070	0,028
-280,730	800,000	0,032	0,072
-279,716	-36,948	-0,062	0,024
-278,701	-57,011	0,123	0,039
-277,686	155,471	0,153	0,152
-276,672	800,000	0,026	0,065
-275,657	-0,975	0,192	-0,098
-274,643	-200,000	-0,004	-0,018
-273,628	-96,432	-0,154	-0,029
-272,613	2,695	-0,068	0,036
-271,599	-46,753	-0,042	0,015
-270,584	73,354	-0,083	0,063
-269,570	15,823	0,212	0,121
-268,555	87,206	-0,018	-0,014
-267,540	171,765	-0,013	-0,013
-266,526	-200,000	0,024	-0,140
-265,511	128,178	0,036	-0,033
-264,497	-57,358	-0,074	0,023
-263,482	-17,089	0,066	0,030
-262,467	47,442	0,065	-0,044
-261,453	451,028	0,080	-0,128
-260,438	48,155	0,101	-0,068
-259,424	800,000	0,074	-0,165
-258,409	134,499	0,019	-0,018
-257,395	-200,000	0,038	0,140
-256,380	187,097	0,067	0,072
-255,365	377,328	-0,030	-0,045
-254,351	567,444	-0,032	0,056
-253,336	-96,220	0,049	0,009
-252,322	140,723	-0,086	-0,082
-251,307	-23,984	-0,028	0,012
-250,292	120,633	-0,071	0,064
-249,278	-135,643	0,093	0,008
-248,263	235,263	0,072	0,086
-247,249	195,889	-0,095	-0,104
-246,234	-200,000	0,026	-0,209
-245,219	10,016	-0,173	0,095
-244,205	-200,000	-0,002	-0,036
-243,190	331,748	0,030	0,042
-242,176	673,202	0,067	-0,125
-241,161	800,000	-0,026	0,080
-240,146	-200,000	-0,001	-0,054
-239,132	-135,433	0,111	-0,009
-238,117	-17,707	-0,064	0,029
-237,103	-200,000	-0,016	-0,129
-236,088	-200,000	-0,004	-0,080
-235,073	-200,000	0,003	-0,043
-234,059	-200,000	0,002	0,112
-233,044	800,000	0,019	0,053
-232,030	-16,223	-0,089	-0,041
-231,015	-14,462	0,106	-0,049
-230,000	-119,339	-0,082	-0,010
-228,986	-3,668	-0,128	-0,064
-227,971	160,797	0,037	0,037
-226,957	-200,000	0,004	0,151
-225,942	161,182	-0,048	-0,048
-224,927	-200,000	0,023	0,084
-223,913	-4,170	0,020	0,010
-222,898	658,689	-0,033	-0,061
-221,884	81,529	0,023	-0,018
-220,869	-200,000	-0,011	-0,044
-219,855	329,552	0,078	0,108
-218,840	38,321	0,008	0,005
-217,825	-34,125	-0,048	-0,019
-216,811	-200,000	-0,042	-0,141
-215,796	-122,447	-0,056	-0,006
-214,782	-127,617	0,193	-0,020
-213,767	-200,000	-0,001	0,035
-212,752	-200,000	-0,002	0,031
-211,738	368,038	0,018	-0,026
-210,723	-200,000	0,025	-0,176
-209,709	-107,212	-0,093	0,015
-208,694	-163,457	0,126	-0,004
-207,679	35,121	0,037	0,023
-206,665	-200,000	0,022	0,120
-205,650	-82,989	-0,073	0,017
-204,636	-129,453	0,180	0,018
-203,621	26,430	-0,048	-0,029
-202,606	9,970	0,046	-0,025
-201,592	16,898	0,139	-0,079
-200,577	-65,640	0,076	0,022
-199,563	800,000	-0,022	0,066
-198,548	119,973	0,119	0,107
-197,533	-200,000	0,001	0,028
-196,519	147,802	0,044	0,042
-195,504	-103,166	0,141	0,024
-194,490	-130,233	-0,083	0,008
-193,475	-77,633	-0,129	-0,032
-192,460	269,273	-0,103	-0,130
-191,446	-200,000	0,014	-0,084
-190,431	57,402	0,079	0,056
-189,417	-200,000	0,011	-0,037
-188,402	362,249	0,075	0,109
-187,387	-200,000	0,002	-0,040
-186,373	57,712	0,049	0,034
-185,358	-36,618	0,087	0,034
-184,344	800,000	-0,010	0,029
-183,329	346,472	0,047	0,067
-182,315	-59,455	-0,071	0,022
-181,300	65,821	0,037	0,027
-180,285	-3,322	-0,110	0,055
-179,271	334,205	0,055	-0,078
-178,256	147,410	-0,054	-0,052
-177,242	-82,004	0,183	0,043
-176,227	-78,166	0,064	0,016
-175,212	8,350	-0,079	-0,043
-174,198	-151,281	-0,061	0,003
-173,183	-48,886	0,051	-0,017
-172,169	147,201	-0,071	-0,069
-171,154	-184,737	0,075	-0,001
-170,139	800,000	-0,020	-0,062
-169,125	25,093	0,114	-0,068
-168,110	-200,000	0,028	-0,090
-167,096	136,480	0,033	-0,031
-166,081	295,645	-0,042	0,056
-165,066	374,888	0,054	0,080
-164,052	-200,000	0,014	0,067
-163,037	90,618	0,156	0,126
-162,023	314,238	0,087	0,119
-161,008	-200,000	0,024	0,100
-159,993	373,676	0,050	-0,074
-158,979	-200,000	-0,018	-0,078
-157,964	-168,115	0,127	-0,003
-156,950	61,951	-0,076	-0,054
-155,935	800,000	0,021	-0,053
-154,920	-200,000	0,020	0,103
-153,906	321,638	0,105	-0,144
-152,891	-200,000	0,001	-0,146
-151,877	-90,728	0,076	0,016
-150,862	207,260	-0,049	-0,055
-149,847	270,593	-0,084	-0,107
-148,833	210,138	0,030	0,034
-147,818	-200,000	0,002	0,011
-146,804	800,000	-0,001	0,002
-145,789	-48,528	-0,103	-0,036
-144,775	224,769	-0,028	-0,032
-143,760	197,635	0,135	-0,149
-142,745	-200,000	-0,016	0,119
-141,731	125,783	-0,090	0,082
-140,716	89,054	0,082	-0,065
-139,702	548,066	-0,045	0,077
-138,687	-13,829	0,158	-0,073
-137,672	-200,000	0,011	-0,057
-136,658	-200,000	-0,005	-0,112
-135,643	-102,777	0,144	0,024
-134,629	-200,000	-0,001	-0,029
-133,614	224,507	0,142	0,165
-132,599	153,985	-0,035	0,034
-131,585	-41,094	0,088	0,032
-130,570	76,613	0,092	0,070
-129,556	-77,672	-0,203	0,050
-128,541	-200,000	-0,018	0,165
-127,526	62,769	0,116	-0,083
-126,512	800,000	0,012	0,034
-125,497	123,337	0,107	0,096
-124,483	-200,000	-0,020	0,072
-123,468	-155,244	0,089	-0,004
-122,453	-1,830	-0,178	0,090
-121,439	337,610	-0,106	-0,149
-120,424	630,953	-0,097	-0,178
-119,410	-200,000	-0,019	0,139
-118,395	44,136	0,140	0,092
-117,380	-32,511	-0,101	0,040
-116,366	273,878	-0,065	-0,083
-115,351	-200,000	0,012	-0,063
-114,337	646,861	0,079	-0,146
-113,322	230,247	-0,042	0,049
-112,307	-200,000	-0,007	0,107
-111,293	77,260	0,078	-0,060
-110,278	-200,000	0,033	0,154
-109,264	800,000	-0,076	-0,165
-108,249	-153,485	0,044	-0,002
-107,234	257,519	-0,034	-0,042
-106,220	14,706	0,039	-0,022
-105,205	-99,521	0,106	-0,019
-104,191	126,239	-0,100	0,091
-103,176	800,000	-0,039	0,097
-102,162	210,439	-0,081	0,092
-101,147	111,598	-0,111	-0,096
-100,132	644,237	-0,055	-0,101
-99,118	552,914	0,062	-0,107
-98,103	227,421	-0,027	0,031
-97,089	800,000	-0,025	0,069
-96,074	-80,194	-0,172	0,041
-95,059	45,608	0,110	0,073
-94,045	-200,000	-0,001	-0,014
-93,030	-130,133	-0,023	0,002
-92,016	-84,335	-0,076	-0,017
-91,001	430,715	0,040	-0,063
-89,986	-133,437	-0,026	-0,002
-88,972	-11,239	0,027	-0,013
-87,957	34,382	-0,082	-0,051
-86,943	380,735	-0,070	-0,104
-85,928	348,557	0,069	-0,098
-84,913	235,580	-0,096	-0,114
-83,899	-200,000	-0,006	-0,076
-82,884	99,749	0,140	0,117
-81,870	-23,133	0,088	-0,038
-80,855	-200,000	0,018	0,116
-79,840	-200,000	-0,026	0,092
-78,826	-116,784	-0,050	0,006
-77,811	800,000	0,040	-0,116
-76,797	800,000	0,010	-0,027
-75,782	-200,000	-0,003	-0,062
-74,767	334,046	0,048	0,067
-73,753	800,000	0,056	0,124
-72,738	-200,000	-0,023	0,080
-71,724	-105,669	-0,035	0,006
-70,709	232,530	0,066	0,078
-69,694	-8,017	0,096	-0,046
-68,680	800,000	0,018	-0,054
-67,665	-11,536	-0,049	0,023
-66,651	394,997	0,091	0,137
-65,636	-100,300	-0,102	-0,018
-64,622	-77,561	0,097	-0,024
-63,607	-200,000	-0,018	0,132
-62,592	-26,343	0,050	0,021
-61,578	-64,529	-0,082	-0,024
-60,563	-200,000	0,007	0,082
-59,549	-200,000	-0,017	0,070
-58,534	16,488	-1,907	-1,078
-57,519	-200,000	-0,228	-0,979
-56,505	-200,000	-1,204	-4,857
-55,490	58,407	0,749	0,526
-54,476	800,000	5,271	12,092
-53,461	-200,000	17,657	290,213
-52,446	800,000	729,165	2234,507
-51,432	538,285	1645,749	2818,242
-50,417	109,611	1636,242	1406,761
-49,403	75,436	1287,527	974,055
-48,388	31,740	1027,754	633,236
-47,373	20,212	989,236	571,499
-46,359	18,331	977,216	558,367
-45,344	15,372	973,121	546,325
-44,330	15,597	971,608	546,192
-43,315	15,042	969,794	543,338
-42,300	15,037	968,639	542,652
-41,286	15,009	967,626	541,973
-40,271	15,000	966,851	541,488
-39,257	14,991	965,835	540,867
-38,242	15,040	964,885	540,474
-37,227	15,044	964,044	539,995
-36,213	15,032	963,222	539,473
-35,198	15,045	962,288	538,971
-34,184	14,995	961,619	538,414
-33,169	14,994	960,538	537,783
-32,154	15,087	959,838	537,668
-31,140	15,067	958,670	536,931
-30,125	15,049	958,064	536,509
-29,111	15,047	957,259	536,032
-28,096	15,052	956,653	535,689
-27,082	15,034	955,981	535,232
-26,067	15,003	955,273	534,715
-25,052	15,035	954,403	534,309
-24,038	15,033	953,783	533,935
-23,023	15,012	953,145	533,489
-22,009	15,081	952,495	533,325
-20,994	15,016	951,870	532,748
-19,979	15,063	951,105	532,448
-18,965	15,007	950,589	531,957
-17,950	14,986	949,977	531,528
-16,936	15,000	949,278	531,161
-15,921	14,959	948,665	530,665
-14,906	14,940	947,938	530,178
-13,892	14,924	947,247	529,720
-12,877	14,947	946,595	529,407
-11,863	14,902	946,051	528,937
-10,848	14,919	945,379	528,594
-9,833	15,038	944,927	528,700
-8,819	15,027	944,258	528,270
-7,804	14,956	943,568	527,636
-6,790	14,899	943,371	527,326
-5,775	14,935	942,650	527,014
-4,760	14,982	941,798	526,667
-3,746	14,957	941,228	526,247
-2,731	14,831	940,608	525,484
-1,717	14,759	940,043	524,917
-0,702	14,756	939,303	524,474
0,313	14,609	938,586	524,403
1,327	17,833	936,307	533,232
2,342	26,739	792,688	474,993
3,356	23,395	457,663	269,117
4,371	-3,868	313,859	155,624
5,386	-7,675	295,556	142,691
6,400	-9,681	289,512	137,773
7,415	-10,100	286,938	136,125
8,429	-10,302	285,439	135,204
9,444	-10,242	284,513	134,812
10,459	-10,179	283,905	134,574
11,473	-10,230	283,336	134,243
12,488	-10,134	282,809	134,073
13,502	-10,273	282,292	133,683
14,517	-10,198	281,868	133,542
15,531	-10,193	281,511	133,366
16,546	-10,159	280,995	133,142
17,561	-10,188	280,519	132,877
18,575	-10,145	280,306	132,806
19,590	-10,299	279,933	132,470
20,604	-10,168	279,661	132,454
21,619	-10,276	279,243	132,141
22,634	-10,222	278,734	131,940
23,648	-10,320	278,573	131,759
24,663	-10,342	278,439	131,662
25,677	-10,326	278,072	131,493
26,692	-10,288	277,923	131,447
27,707	-10,138	277,525	131,388
28,721	-10,238	277,285	131,169
29,736	-10,410	276,995	130,857
30,750	-10,151	276,685	130,944
31,765	-10,198	276,487	130,794
32,780	-10,194	276,133	130,619
33,794	-10,404	275,919	130,308
34,809	-10,316	275,862	130,353
35,823	-10,387	275,414	130,062
36,838	-10,501	275,229	129,856
37,853	-10,521	275,020	129,727
38,867	-10,308	274,820	129,821
39,882	-10,406	274,658	129,641
40,896	-10,274	274,293	129,581
41,911	-10,354	273,916	129,317
42,926	-10,317	273,884	129,324
43,940	-10,365	273,496	129,084
44,955	-10,481	273,314	128,880
45,969	-10,491	273,080	128,748
46,984	-10,597	272,967	128,584
47,999	-10,759	272,584	128,242
49,013	-10,680	272,295	128,168
50,028	-10,886	272,128	127,887
51,042	-11,029	271,676	127,531
52,057	-10,984	271,506	127,481
53,071	-10,920	271,322	127,442
54,086	-11,015	271,362	127,362
55,101	-10,648	271,067	127,551
56,115	-10,536	270,923	127,575
57,130	-10,200	270,703	127,771
58,144	-10,167	270,490	127,689
59,159	-10,028	270,215	127,676
60,174	-10,118	270,057	127,507
61,188	-10,076	270,006	127,510
62,203	-10,254	269,543	127,117
63,217	-10,019	269,317	127,215
64,232	-10,213	269,243	126,990
65,247	-10,228	268,985	126,844
66,261	-10,144	268,607	126,731
67,276	-10,213	268,382	126,550
68,290	-10,320	268,132	126,324
69,305	-10,511	267,921	126,039
70,320	-10,543	267,874	125,976
71,334	-10,259	267,748	126,164
72,349	-10,109	267,305	126,081
73,363	-10,065	267,121	126,022
74,378	-10,124	266,958	125,881
75,393	-10,167	266,817	125,764
76,407	-10,177	266,566	125,625
77,422	-10,247	266,406	125,475
78,436	-10,223	266,082	125,333
79,451	-10,243	265,882	125,210
80,466	-10,132	265,528	125,133
81,480	-10,144	265,401	125,050
82,495	-10,347	265,031	124,682
83,509	-10,120	264,906	124,817
84,524	-10,493	264,817	124,428
85,539	-10,385	264,449	124,341
86,553	-10,324	264,206	124,270
87,568	-10,146	263,990	124,318
88,582	-10,517	263,948	123,954
89,597	-10,396	263,767	123,966
90,611	-10,162	263,504	124,041
91,626	-10,123	263,402	124,017
92,641	-10,080	263,143	123,922
93,655	-10,344	263,006	123,611
94,670	-10,255	262,722	123,546
95,684	-10,175	262,522	123,512
96,699	-10,126	262,321	123,450
97,714	-10,509	262,184	123,033
98,728	-10,455	261,836	122,907
99,743	-10,416	261,617	122,829
100,757	-10,361	261,520	122,820
101,772	-10,333	261,297	122,730
102,787	-10,290	261,157	122,691
103,801	-10,311	260,838	122,511
104,816	-10,250	260,707	122,493
105,830	-10,121	260,621	122,556
106,845	-10,159	260,471	122,441
107,860	-10,131	259,989	122,228
108,874	-9,994	259,863	122,278
109,889	-10,183	259,827	122,084
110,903	-10,116	259,511	121,983
111,918	-10,120	259,382	121,909
112,933	-10,252	259,177	121,686
113,947	-10,207	259,066	121,662
114,962	-10,064	258,883	121,691
115,976	-10,195	258,658	121,460
116,991	-10,247	258,401	121,282
118,006	-10,279	258,395	121,241
119,020	-10,010	258,119	121,335
120,035	-10,198	258,138	121,169
121,049	-10,187	257,768	120,995
122,064	-10,133	257,803	121,048
123,079	-10,075	257,241	120,823
124,093	-10,365	257,240	120,559
125,108	-10,374	256,915	120,389
126,122	-10,534	256,671	120,125
127,137	-10,697	256,602	119,939
128,151	-10,590	256,305	119,883
129,166	-10,292	256,084	120,028
130,181	-10,302	255,984	119,961
131,195	-10,541	255,782	119,648
132,210	-10,230	255,513	119,781
133,224	-10,172	255,414	119,774
134,239	-10,088	255,215	119,743
135,254	-9,990	254,940	119,687
136,268	-10,410	254,744	119,223
137,283	-10,312	254,462	119,165
138,297	-10,566	254,314	118,866
139,312	-10,622	254,057	118,687
140,327	-10,311	253,985	118,911
141,341	-10,025	253,879	119,095
142,356	-9,997	253,762	119,054
143,370	-10,287	253,530	118,686
144,385	-10,087	253,365	118,769
145,400	-9,910	253,281	118,871
146,414	-10,142	253,110	118,582
147,429	-10,001	252,906	118,596
148,443	-9,931	252,638	118,520
149,458	-9,951	252,608	118,478
150,473	-10,084	252,441	118,276
151,487	-10,191	252,066	117,998
152,502	-9,889	251,940	118,186
153,516	-9,966	251,721	118,007
154,531	-10,087	251,494	117,788
155,546	-10,067	251,421	117,759
156,560	-9,964	251,068	117,672
157,575	-10,083	250,925	117,493
158,589	-10,148	250,922	117,426
159,604	-9,949	250,568	117,418
160,619	-10,085	250,566	117,292
161,633	-9,966	250,263	117,240
162,648	-9,845	250,035	117,225
163,662	-9,964	249,937	117,068
164,677	-9,946	249,815	117,016
165,692	-10,013	249,727	116,907
166,706	-10,040	249,468	116,753
167,721	-9,970	249,345	116,744
168,735	-9,976	249,275	116,696
169,750	-9,872	248,958	116,624
170,764	-9,952	248,864	116,503
171,779	-9,979	248,745	116,414
172,794	-9,974	248,535	116,309
173,808	-9,980	248,352	116,209
174,823	-10,413	247,946	115,646
175,837	-10,435	247,839	115,567
176,852	-10,037	247,734	115,841
177,867	-9,760	247,613	116,005
178,881	-9,932	247,481	115,789
179,896	-9,911	247,285	115,705
180,910	-9,907	247,159	115,639
181,925	-9,728	246,860	115,637
182,940	-9,954	246,847	115,434
183,954	-9,975	246,729	115,350
184,969	-9,866	246,469	115,309
185,983	-9,948	246,333	115,167
186,998	-9,875	246,171	115,141
188,013	-9,991	245,953	114,933
189,027	-9,930	245,705	114,857
190,042	-9,908	245,678	114,852
191,056	-9,792	245,390	114,804
192,071	-9,960	245,280	114,603
193,086	-9,874	245,097	114,579
194,100	-9,953	244,862	114,393
195,115	-10,035	244,781	114,277
196,129	-9,927	244,579	114,262
197,144	-9,869	244,357	114,196
198,159	-10,042	244,092	113,920
199,173	-10,024	243,975	113,869
200,188	-10,041	243,779	113,754
201,202	-10,229	243,561	113,488
202,217	-10,377	243,254	113,214
203,232	-10,507	243,248	113,094
204,246	-10,141	243,165	113,345
205,261	-9,644	242,930	113,632
206,275	-10,281	242,827	113,054
207,290	-5,280	244,841	118,095
208,304	1,798	246,728	124,841
209,319	3,583	247,358	126,624
210,334	4,113	247,080	126,907
211,348	4,180	247,058	126,939
212,363	3,984	246,921	126,696
213,377	3,995	246,789	126,626
214,392	4,263	246,593	126,735
215,407	4,247	246,430	126,627
216,421	4,004	246,322	126,360
217,436	4,095	246,325	126,425
218,450	4,316	245,888	126,371
219,465	4,191	245,693	126,157
220,480	3,767	245,533	125,716
221,494	3,726	245,408	125,608
222,509	3,793	245,211	125,551
223,523	3,916	245,094	125,579
224,538	3,812	244,764	125,315
225,553	3,722	244,624	125,158
226,567	3,927	244,448	125,225
227,582	3,968	244,334	125,188
228,596	3,856	244,361	125,099
229,611	3,642	244,085	124,773
230,626	3,699	243,900	124,713
231,640	3,629	243,768	124,579
232,655	3,905	243,641	124,726
233,669	3,541	243,465	124,330
234,684	3,521	243,325	124,231
235,699	3,749	243,200	124,341
236,713	3,924	242,978	124,357
237,728	3,895	242,787	124,225
238,742	3,598	242,533	123,844
239,757	3,870	242,382	123,976
240,772	3,754	242,356	123,858
241,786	3,714	242,160	123,714
242,801	3,642	241,949	123,538
243,815	3,540	241,909	123,424
244,830	3,833	241,631	123,507
245,844	3,804	241,515	123,413
246,859	3,752	241,421	123,313
247,874	3,826	241,202	123,249
248,888	3,640	241,071	123,022
249,903	3,775	240,933	123,049
250,917	3,790	240,817	122,990
251,932	3,768	240,682	122,893
252,947	3,991	240,398	122,915
253,961	3,567	240,377	122,554
254,976	3,937	240,097	122,696
255,990	3,796	239,980	122,513
257,005	3,779	239,693	122,342
258,020	3,697	239,720	122,280
259,034	3,692	239,480	122,142
260,049	3,832	239,339	122,171
261,063	3,837	239,135	122,060
262,078	3,730	238,994	121,892
263,093	3,794	238,869	121,868
264,107	3,749	238,856	121,815
265,122	3,866	238,494	121,713
266,136	3,796	238,558	121,679
267,151	3,883	238,368	121,640
268,166	3,835	238,175	121,492
269,180	3,742	238,033	121,336
270,195	4,075	237,749	121,443
271,209	3,917	237,718	121,292
272,224	3,898	237,524	121,166
273,239	3,570	237,366	120,817
274,253	3,675	237,231	120,820
275,268	3,671	237,064	120,721
276,282	3,817	236,886	120,734
277,297	3,593	236,760	120,484
278,312	3,666	236,552	120,424
279,326	3,525	236,529	120,291
280,341	3,636	236,343	120,273
281,355	3,767	236,052	120,217
282,370	3,525	235,989	119,984
283,384	3,739	235,774	120,032
284,399	3,555	235,726	119,853
285,414	3,495	235,561	119,711
286,428	3,783	235,399	119,843
287,443	3,507	235,303	119,569
288,457	3,830	235,083	119,698
289,472	3,734	235,047	119,594
290,487	3,524	234,810	119,300
291,501	3,451	234,613	119,132
292,516	3,468	234,547	119,100
293,530	3,556	234,342	119,054
294,545	3,991	234,320	119,370
295,560	3,825	234,070	119,103
296,574	3,915	233,875	119,063
297,589	3,940	233,868	119,068
298,603	3,946	233,682	118,968
299,618	3,916	233,527	118,855
300,633	3,968	233,419	118,830
301,647	4,009	233,150	118,714
302,662	4,174	233,265	118,889
303,676	4,125	232,928	118,669
304,691	3,850	232,892	118,428
305,706	3,959	232,636	118,371
306,720	3,810	232,577	118,216
307,735	3,948	232,370	118,206
308,749	3,903	232,105	118,026
309,764	3,676	231,921	117,748
310,779	3,676	231,824	117,689
311,793	3,566	231,748	117,555
312,808	3,514	231,553	117,406
313,822	3,774	231,239	117,436
314,837	3,605	231,239	117,296
315,852	3,740	231,138	117,337
316,866	3,888	230,946	117,342
317,881	3,754	230,911	117,211
318,895	3,953	230,680	117,236
319,910	3,970	230,447	117,119
320,925	3,831	230,354	116,956
321,939	3,834	230,193	116,866
322,954	3,871	230,240	116,907
323,968	3,913	230,026	116,821
324,983	3,870	229,803	116,664
325,997	3,989	229,625	116,654
327,012	3,962	229,462	116,540
328,027	3,976	229,359	116,488
329,041	4,301	229,264	116,675
330,056	4,260	229,271	116,637
331,070	4,151	229,122	116,468
332,085	4,063	228,692	116,173
333,100	3,902	228,650	116,020
334,114	4,079	228,397	116,015
335,129	3,938	228,388	115,894
336,143	4,130	228,162	115,913
337,158	3,936	228,110	115,730
338,173	3,950	227,924	115,636
339,187	3,775	227,920	115,492
340,202	3,930	227,729	115,501
341,216	3,683	227,536	115,208
342,231	3,825	227,326	115,198
343,246	3,731	227,241	115,074
344,260	3,805	227,070	115,033
345,275	3,762	226,865	114,887
346,289	3,868	226,784	114,915
347,304	3,690	226,603	114,680
348,319	3,653	226,256	114,466
349,333	3,607	226,139	114,362
350,348	3,242	225,901	113,960
351,362	3,280	225,758	113,906
352,377	3,046	225,559	113,621
353,392	3,038	225,499	113,575
354,406	2,870	225,218	113,299
355,421	194,818	1321,559	1395,837
356,435	156,107	1455,118	1395,818
