DTS Sentinel unit serial number:	SN410029Multiplexer serial number:	ORYXHardware model number:	OX2-SRSoftware version number:	ORYX F/W v4,00 Oryx Data Collector v3.7.2.0data status	okinstallation	B5 Nyhavnadifferential loss correction	single-endedforward channel	channel 2reverse channel	N/Adate	2023/12/13time	23:22:13forward acquisition time	300,00reverse acquisition time	0,00gamma	499,1914k internal	0,3154k external	0,3154temperature offset calibration	1,0000default loss term (dB/km)	0,3820temperature slope calibration	1,0000multiplexer offset coefficient	1,0000multiplexer slope coefficient	1,0000fibre end	0,00T internal ref (°C)	8,93T ext. ref 1 (°C)	-7,53T ext. ref 2 (°C)	-7,54length (m)	temperature (°C)	Stokes	anti-Stokes-744,400	199,323	0,084	-0,095
-743,385	-2,395	-0,307	-0,158
-742,371	33,203	0,263	0,168
-741,356	-73,806	-0,278	-0,074
-740,342	41,793	0,169	0,113
-739,327	-113,248	-0,487	-0,070
-738,312	98,630	-0,013	0,011
-737,298	-142,883	-0,284	-0,020
-736,283	800,000	0,024	0,074
-735,269	-58,264	-0,351	-0,112
-734,254	-94,643	0,234	0,046
-733,239	-44,141	-0,560	-0,206
-732,225	-134,324	0,157	0,014
-731,210	-200,000	-0,013	0,218
-730,196	-200,000	-0,011	0,060
-729,181	-96,958	-0,119	0,023
-728,167	-200,000	-0,009	0,107
-727,152	146,901	-0,060	0,059
-726,137	-200,000	-0,029	-0,130
-725,123	20,119	-0,048	0,028
-724,108	474,882	-0,017	0,029
-723,094	-147,908	-0,179	0,011
-722,079	699,339	-0,010	0,020
-721,064	-200,000	-0,000	-0,126
-720,050	461,016	0,027	-0,045
-719,035	-200,000	0,010	0,109
-718,021	-200,000	0,005	-0,062
-717,006	800,000	0,033	-0,097
-715,991	-200,000	-0,013	-0,100
-714,977	-173,725	-0,132	0,003
-713,962	43,822	-0,059	-0,040
-712,948	-200,000	-0,025	-0,140
-711,933	-76,592	0,016	-0,004
-710,918	67,868	0,077	-0,058
-709,904	-200,000	0,001	-0,110
-708,889	23,193	-0,090	0,054
-707,875	-101,404	0,063	0,011
-706,860	-159,671	-0,013	-0,001
-705,845	-106,874	-0,014	0,002
-704,831	-200,000	-0,022	0,082
-703,816	-24,875	-0,043	-0,019
-702,802	-83,758	0,058	0,014
-701,787	367,802	-0,044	-0,066
-700,772	362,040	0,043	0,064
-699,758	-200,000	0,030	-0,106
-698,743	18,678	0,112	0,066
-697,729	148,973	0,123	0,123
-696,714	32,279	0,025	0,016
-695,699	10,227	-0,087	-0,048
-694,685	381,227	0,022	-0,034
-693,670	-36,097	-0,082	-0,033
-692,656	-9,180	0,088	0,043
-691,641	800,000	-0,022	-0,063
-690,627	-60,833	-0,085	0,026
-689,612	86,678	-0,012	0,010
-688,597	-95,112	-0,049	-0,010
-687,583	-26,202	-0,179	-0,077
-686,568	165,630	0,033	0,034
-685,554	265,288	0,029	-0,037
-684,539	393,482	-0,040	-0,062
-683,524	800,000	0,023	-0,060
-682,510	-37,226	-0,105	0,041
-681,495	-200,000	-0,003	0,053
-680,481	-200,000	0,031	0,130
-679,466	221,232	-0,036	0,043
-678,451	-200,000	-0,006	0,033
-677,437	-109,549	-0,057	0,009
-676,422	-16,115	-0,056	0,026
-675,408	129,344	-0,057	0,053
-674,393	686,274	0,035	-0,068
-673,378	100,819	-0,027	0,023
-672,364	78,415	-0,157	-0,124
-671,349	558,748	0,021	-0,037
-670,335	-122,588	-0,117	-0,014
-669,320	235,392	-0,134	0,163
-668,305	286,796	-0,095	-0,127
-667,291	32,567	0,023	-0,015
-666,276	-95,616	-0,037	0,007
-665,262	-97,967	0,119	-0,022
-664,247	22,199	-0,058	-0,035
-663,232	22,967	0,054	0,032
-662,218	61,323	-0,023	0,016
-661,203	-140,602	-0,035	0,003
-660,189	-33,042	-0,106	0,043
-659,174	-155,075	-0,116	0,006
-658,159	120,504	-0,109	0,100
-657,145	205,243	0,090	0,103
-656,130	78,140	0,148	-0,116
-655,116	-200,000	0,038	0,127
-654,101	-19,495	0,060	0,027
-653,086	157,568	-0,031	-0,032
-652,072	-200,000	0,008	-0,155
-651,057	312,954	0,036	0,050
-650,043	3,074	-0,028	-0,015
-649,028	-1,723	-0,159	-0,082
-648,014	741,080	0,030	-0,059
-646,999	-31,735	0,044	0,018
-645,984	-50,624	-0,014	0,005
-644,970	-200,000	0,006	-0,056
-643,955	343,895	-0,060	-0,087
-642,941	177,456	-0,119	-0,128
-641,926	-67,784	0,074	-0,021
-640,911	-200,000	-0,006	0,019
-639,897	-200,000	0,021	0,165
-638,882	65,008	-0,189	0,140
-637,868	201,381	-0,057	-0,064
-636,853	-134,724	-0,121	0,011
-635,838	29,420	-0,035	0,022
-634,824	306,212	-0,024	0,033
-633,809	71,354	-0,092	0,070
-632,795	-200,000	0,010	-0,150
-631,780	92,670	-0,032	0,027
-630,765	-15,147	0,065	-0,030
-629,751	532,132	-0,002	0,004
-628,736	-45,980	-0,096	-0,035
-627,722	-200,000	0,004	0,062
-626,707	800,000	0,042	0,113
-625,692	-36,073	0,070	-0,028
-624,678	800,000	0,038	0,105
-623,663	800,000	-0,016	0,051
-622,649	128,926	-0,008	-0,007
-621,634	489,321	0,040	-0,068
-620,619	800,000	-0,024	-0,063
-619,605	-200,000	-0,147	0,000
-618,590	163,825	0,033	0,034
-617,576	126,330	-0,020	0,019
-616,561	-200,000	-0,017	0,116
-615,546	52,866	-0,170	0,119
-614,532	-22,260	-0,056	0,025
-613,517	-200,000	0,004	-0,128
-612,503	-52,706	-0,065	-0,022
-611,488	-200,000	0,009	0,132
-610,474	-200,000	0,003	-0,140
-609,459	32,915	0,124	-0,079
-608,444	-25,320	0,054	-0,023
-607,430	497,987	0,033	-0,056
-606,415	-134,279	-0,160	0,014
-605,401	-99,647	0,063	-0,011
-604,386	-200,000	-0,041	-0,140
-603,371	800,000	-0,006	0,020
-602,357	-141,736	0,094	-0,007
-601,342	229,621	-0,054	-0,065
-600,328	286,934	0,062	-0,083
-599,313	-35,783	-0,048	0,019
-598,298	472,564	-0,055	-0,091
-597,284	-168,462	0,060	0,002
-596,269	65,043	-0,057	0,042
-595,255	-50,917	-0,093	0,032
-594,240	-50,383	-0,066	0,023
-593,225	143,740	-0,083	-0,081
-592,211	-200,000	0,001	0,043
-591,196	-200,000	-0,027	-0,117
-590,182	-200,000	0,013	0,048
-589,167	143,958	0,070	-0,068
-588,152	-3,014	0,092	0,047
-587,138	800,000	-0,011	0,033
-586,123	-62,060	-0,046	0,014
-585,109	-25,666	-0,165	-0,071
-584,094	50,804	-0,038	0,026
-583,079	800,000	0,039	-0,086
-582,065	-30,207	0,119	0,050
-581,050	62,564	0,019	-0,014
-580,036	-77,662	-0,143	-0,036
-579,021	269,640	-0,082	-0,106
-578,006	-200,000	0,007	-0,029
-576,992	-5,065	0,091	-0,046
-575,977	9,851	-0,024	0,014
-574,963	25,988	-0,192	-0,117
-573,948	37,318	0,048	-0,031
-572,934	-67,718	-0,125	-0,035
-571,919	76,841	0,067	-0,052
-570,904	-133,275	-0,078	-0,007
-569,890	34,519	0,058	0,037
-568,875	-89,603	-0,153	-0,033
-567,861	-73,661	0,126	-0,033
-566,846	-90,928	0,122	-0,025
-565,831	224,017	-0,061	0,072
-564,817	404,581	0,014	-0,022
-563,802	629,424	-0,043	-0,080
-562,788	-72,648	-0,034	-0,009
-561,773	-91,348	-0,067	0,014
-560,758	-144,859	0,116	-0,008
-559,744	74,648	0,087	0,067
-558,729	-63,314	0,037	0,011
-557,715	1,077	-0,251	0,132
-556,700	-18,838	-0,119	-0,054
-555,685	-106,198	0,135	-0,022
-554,671	155,987	-0,178	0,180
-553,656	83,629	0,047	0,038
-552,642	88,941	-0,181	0,147
-551,627	-71,181	-0,063	-0,017
-550,612	495,423	0,067	0,114
-549,598	96,958	-0,039	-0,032
-548,583	-67,751	-0,044	0,013
-547,569	228,367	0,053	0,063
-546,554	-200,000	-0,042	0,220
-545,539	6,814	0,110	0,060
-544,525	-52,697	0,156	0,052
-543,510	-200,000	-0,050	0,000
-542,496	800,000	-0,003	0,010
-541,481	-200,000	0,016	-0,065
-540,466	41,986	-0,081	-0,054
-539,452	412,462	0,062	-0,097
-538,437	98,368	0,057	0,048
-537,423	-24,124	-0,063	0,027
-536,408	-102,963	-0,050	0,009
-535,393	800,000	-0,038	-0,108
-534,379	168,389	-0,023	-0,024
-533,364	-200,000	-0,006	-0,110
-532,350	470,264	-0,050	-0,082
-531,335	-200,000	0,004	-0,031
-530,321	-200,000	0,029	0,150
-529,306	-200,000	-0,025	-0,124
-528,291	-54,920	-0,019	0,006
-527,277	110,276	0,057	-0,050
-526,262	-200,000	-0,021	0,099
-525,248	54,870	-0,014	-0,010
-524,233	-200,000	-0,029	-0,165
-523,218	275,086	0,083	-0,108
-522,204	-200,000	0,004	0,070
-521,189	708,476	0,036	0,070
-520,175	-62,216	-0,104	-0,031
-519,160	-152,756	0,188	-0,010
-518,145	-125,446	0,097	-0,011
-517,131	-156,855	0,051	-0,002
-516,116	-170,761	-0,069	-0,002
-515,102	259,860	-0,087	-0,110
-514,087	-200,000	0,004	0,118
-513,072	-78,019	-0,049	-0,012
-512,058	-200,000	0,000	-0,072
-511,043	-37,034	0,101	-0,040
-510,029	-200,000	0,003	-0,086
-509,014	-27,858	0,091	-0,038
-507,999	-200,000	-0,000	-0,012
-506,985	106,267	-0,029	0,025
-505,970	432,991	0,029	-0,046
-504,956	-3,776	0,131	0,066
-503,941	-87,247	0,209	-0,046
-502,926	800,000	0,009	0,019
-501,912	-159,224	0,084	0,003
-500,897	800,000	0,053	-0,143
-499,883	800,000	0,032	-0,071
-498,868	165,893	-0,081	-0,084
-497,853	-200,000	-0,040	-0,198
-496,839	258,753	0,128	0,161
-495,824	436,984	0,039	0,062
-494,810	445,036	-0,047	0,075
-493,795	-189,797	0,077	-0,001
-492,781	-15,818	0,080	-0,037
-491,766	487,247	0,060	-0,101
-490,751	159,522	-0,100	0,102
-489,737	529,621	-0,059	-0,103
-488,722	195,476	0,061	0,068
-487,708	800,000	0,028	0,089
-486,693	-15,073	0,075	-0,035
-485,678	-200,000	-0,002	0,077
-484,664	-200,000	0,010	0,060
-483,649	402,979	-0,019	0,030
-482,635	-200,000	-0,001	-0,031
-481,620	83,863	0,093	0,074
-480,605	132,427	0,094	0,088
-479,591	-200,000	-0,000	0,014
-478,576	101,202	0,062	-0,053
-477,562	-5,644	-0,108	-0,054
-476,547	574,825	-0,021	0,038
-475,532	580,389	-0,032	-0,058
-474,518	-123,636	-0,024	-0,003
-473,503	800,000	-0,050	0,106
-472,489	93,066	0,108	0,089
-471,474	-59,229	-0,233	-0,073
-470,459	800,000	-0,047	-0,119
-469,445	246,023	-0,011	0,014
-468,430	800,000	-0,021	-0,043
-467,416	-134,339	0,132	-0,012
-466,401	-59,742	0,040	0,013
-465,386	-43,145	0,165	0,061
-464,372	528,295	-0,035	0,060
-463,357	-193,168	0,108	0,001
-462,343	-200,000	0,003	-0,026
-461,328	-61,260	-0,083	-0,025
-460,313	85,289	0,053	-0,042
-459,299	-200,000	-0,025	0,092
-458,284	-200,000	-0,007	0,143
-457,270	56,732	0,032	0,022
-456,255	351,931	-0,071	-0,102
-455,241	-200,000	-0,014	0,063
-454,226	-200,000	-0,010	-0,043
-453,211	-200,000	-0,002	0,059
-452,197	211,793	0,105	-0,121
-451,182	209,294	-0,089	0,101
-450,168	-200,000	0,006	-0,156
-449,153	8,672	-0,085	-0,047
-448,138	-4,488	-0,119	-0,060
-447,124	604,311	-0,007	0,013
-446,109	-111,433	-0,030	0,004
-445,095	527,890	0,069	0,119
-444,080	-200,000	0,029	-0,095
-443,065	-200,000	-0,005	0,020
-442,051	10,392	0,064	-0,035
-441,036	-200,000	-0,009	0,111
-440,022	-200,000	-0,024	-0,109
-439,007	-200,000	-0,011	0,070
-437,992	-200,000	-0,003	-0,106
-436,978	-23,790	0,117	0,051
-435,963	109,920	-0,050	-0,044
-434,949	158,698	-0,038	0,039
-433,934	191,745	-0,067	-0,074
-432,919	-200,000	-0,017	-0,065
-431,905	654,234	0,065	-0,121
-430,890	19,643	0,168	0,098
-429,876	151,972	-0,096	-0,095
-428,861	200,466	0,107	-0,120
-427,846	130,041	-0,138	0,129
-426,832	86,063	-0,053	-0,042
-425,817	-170,589	0,022	0,001
-424,803	50,757	-0,077	0,053
-423,788	548,132	0,021	-0,037
-422,773	800,000	-0,010	-0,030
-421,759	85,547	0,039	0,031
-420,744	38,153	-0,085	-0,055
-419,730	444,118	-0,039	-0,063
-418,715	-6,189	0,054	-0,027
-417,701	-25,539	0,057	-0,025
-416,686	-200,000	-0,011	0,057
-415,671	-71,175	0,054	-0,015
-414,657	-5,781	0,119	0,059
-413,642	-200,000	-0,027	-0,233
-412,628	192,001	0,018	-0,019
-411,613	168,131	-0,141	-0,147
-410,598	-200,000	-0,038	-0,146
-409,584	-92,913	-0,053	0,011
-408,569	-51,846	-0,036	-0,012
-407,555	-29,210	0,062	-0,026
-406,540	25,585	0,028	-0,017
-405,525	-33,285	-0,091	0,037
-404,511	-101,172	0,053	-0,009
-403,496	48,321	0,064	-0,043
-402,482	-200,000	0,009	-0,179
-401,467	-122,192	-0,070	-0,008
-400,452	-7,275	0,053	0,026
-399,438	304,159	-0,056	0,076
-398,423	-78,773	0,027	0,007
-397,409	-200,000	-0,026	0,094
-396,394	135,883	-0,013	0,012
-395,379	-115,522	-0,088	-0,012
-394,365	-200,000	0,033	0,112
-393,350	248,982	-0,091	-0,113
-392,336	-200,000	0,010	0,045
-391,321	-9,650	0,080	-0,039
-390,306	418,560	-0,034	-0,053
-389,292	-195,336	-0,063	0,000
-388,277	292,878	-0,027	0,036
-387,263	800,000	0,030	-0,083
-386,248	-200,000	0,006	0,044
-385,233	-200,000	0,017	-0,073
-384,219	-49,668	0,123	0,042
-383,204	-200,000	-0,008	0,049
-382,190	800,000	-0,009	-0,028
-381,175	-77,628	0,035	-0,009
-380,160	-200,000	0,023	0,074
-379,146	-200,000	0,012	0,169
-378,131	800,000	0,068	0,149
-377,117	-41,862	-0,038	-0,014
-376,102	192,868	-0,046	0,051
-375,088	800,000	0,030	-0,089
-374,073	800,000	-0,042	0,111
-373,058	55,239	0,087	0,061
-372,044	-200,000	-0,062	0,223
-371,029	800,000	0,045	0,095
-370,015	-89,881	0,076	0,016
-369,000	-200,000	-0,027	-0,092
-367,985	22,847	-0,093	0,055
-366,971	-58,140	-0,108	-0,034
-365,956	649,474	0,023	-0,042
-364,942	20,201	0,169	-0,099
-363,927	8,607	-0,082	-0,045
-362,912	161,171	0,060	0,061
-361,898	-200,000	-0,013	0,065
-360,883	22,336	0,057	0,034
-359,869	-156,022	-0,113	0,005
-358,854	8,293	0,160	0,087
-357,839	-200,000	-0,002	-0,039
-356,825	800,000	0,042	0,108
-355,810	-200,000	-0,012	-0,086
-354,796	-111,161	-0,056	-0,008
-353,781	-200,000	-0,017	-0,070
-352,766	800,000	-0,012	-0,030
-351,752	8,463	-0,070	-0,038
-350,737	-117,695	0,012	-0,002
-349,723	-59,309	0,172	0,054
-348,708	263,659	-0,087	0,110
-347,693	-200,000	0,055	0,000
-346,679	-156,639	-0,125	0,006
-345,664	-200,000	0,000	0,033
-344,650	-147,434	-0,061	-0,004
-343,635	238,775	0,054	-0,065
-342,620	-123,440	0,234	-0,027
-341,606	800,000	0,073	0,198
-340,591	-18,872	-0,100	0,045
-339,577	22,005	0,017	-0,010
-338,562	-34,038	-0,096	0,038
-337,548	-75,193	-0,048	-0,012
-336,533	1,853	-0,029	0,015
-335,518	-200,000	-0,004	0,073
-334,504	323,122	0,045	0,063
-333,489	-13,514	-0,005	-0,002
-332,475	84,403	0,027	0,021
-331,460	130,572	0,075	-0,070
-330,445	31,789	0,040	-0,025
-329,431	36,560	-0,042	0,027
-328,416	800,000	0,057	0,144
-327,402	800,000	-0,048	0,133
-326,387	-200,000	-0,003	0,023
-325,372	-11,960	0,142	-0,067
-324,358	-106,143	-0,092	-0,015
-323,343	-200,000	0,016	0,070
-322,329	-108,771	0,076	-0,012
-321,314	73,279	-0,033	0,025
-320,299	-200,000	0,022	0,086
-319,285	-86,690	0,067	-0,015
-318,270	-155,721	-0,057	0,003
-317,256	-200,000	0,024	-0,102
-316,241	196,158	0,054	-0,060
-315,226	545,993	-0,071	-0,124
-314,212	800,000	0,017	0,039
-313,197	800,000	0,036	0,076
-312,183	189,155	0,055	-0,060
-311,168	-200,000	-0,004	-0,130
-310,153	-136,042	0,058	0,005
-309,139	-77,013	-0,048	-0,012
-308,124	-200,000	-0,016	0,139
-307,110	153,651	0,056	-0,056
-306,095	-145,541	0,089	0,006
-305,080	47,712	0,107	0,073
-304,066	-20,345	-0,113	0,050
-303,051	-60,167	-0,035	-0,011
-302,037	626,108	-0,061	0,112
-301,022	6,226	0,016	-0,009
-300,008	96,355	0,195	0,162
-298,993	-118,373	-0,020	-0,003
-297,978	-83,414	0,086	-0,020
-296,964	715,945	0,037	0,071
-295,949	-128,182	-0,142	0,014
-294,935	-138,191	0,113	0,009
-293,920	-119,524	-0,031	0,004
-292,905	-34,724	-0,086	0,034
-291,891	800,000	0,035	0,080
-290,876	71,003	0,064	-0,048
-289,862	-44,718	-0,088	-0,032
-288,847	543,304	-0,038	-0,066
-287,832	-98,560	-0,149	0,027
-286,818	-31,686	0,161	0,065
-285,803	664,573	0,053	-0,100
-284,789	83,180	-0,065	0,052
-283,774	-22,787	-0,088	0,038
-282,759	800,000	-0,040	-0,082
-281,745	-200,000	0,009	-0,101
-280,730	-200,000	-0,023	-0,099
-279,716	-125,168	0,082	0,009
-278,701	-200,000	0,004	-0,091
-277,686	-47,425	0,033	0,012
-276,672	429,880	-0,074	-0,116
-275,657	-200,000	0,015	-0,060
-274,643	-200,000	-0,004	-0,037
-273,628	-200,000	0,008	-0,191
-272,613	800,000	0,034	0,092
-271,599	-60,236	-0,033	0,010
-270,584	-16,559	0,120	0,055
-269,570	340,176	-0,046	0,065
-268,555	97,971	-0,042	-0,035
-267,540	800,000	0,050	-0,112
-266,526	-153,471	-0,118	-0,006
-265,511	-200,000	0,007	0,111
-264,497	-78,175	0,120	-0,030
-263,482	561,393	0,090	-0,158
-262,467	-17,136	-0,066	0,030
-261,453	-12,565	0,027	-0,013
-260,438	210,131	-0,067	-0,076
-259,424	-200,000	-0,059	-0,255
-258,409	297,306	0,054	-0,072
-257,395	43,678	0,023	-0,015
-256,380	-23,325	0,098	0,043
-255,365	-82,369	0,123	-0,029
-254,351	-30,212	-0,172	0,070
-253,336	86,495	0,046	-0,036
-252,322	800,000	0,028	-0,069
-251,307	269,601	-0,056	0,071
-250,292	-91,574	0,061	0,013
-249,278	-49,138	0,126	-0,043
-248,263	22,735	-0,056	0,033
-247,249	41,311	-0,113	0,074
-246,234	-189,470	-0,096	0,001
-245,219	439,169	-0,106	0,169
-244,205	800,000	-0,022	0,050
-243,190	54,874	0,228	0,159
-242,176	65,314	-0,084	0,061
-241,161	-22,080	-0,026	0,011
-240,146	-11,080	0,066	-0,032
-239,132	348,609	0,070	0,100
-238,117	-200,000	0,026	-0,114
-237,103	-128,336	0,048	-0,005
-236,088	-20,293	0,051	-0,023
-235,073	800,000	0,032	-0,082
-234,059	145,102	0,057	-0,055
-233,044	-179,175	0,042	0,001
-232,030	-101,631	0,233	-0,040
-231,015	-5,691	-0,148	0,073
-230,000	-156,747	0,124	0,005
-228,986	800,000	-0,002	0,006
-227,971	-40,773	-0,021	-0,008
-226,957	-200,000	0,027	0,098
-225,942	-200,000	-0,018	-0,162
-224,927	16,075	-0,047	0,027
-223,913	358,050	-0,104	-0,150
-222,898	565,685	0,043	0,076
-221,884	736,151	0,074	-0,144
-220,869	-200,000	0,020	0,091
-219,855	42,811	0,081	0,053
-218,840	357,874	0,087	0,125
-217,825	684,555	0,005	-0,010
-216,811	-40,111	0,059	0,022
-215,796	-200,000	-0,023	-0,125
-214,782	-27,031	-0,109	0,046
-213,767	-200,000	-0,028	-0,144
-212,752	507,654	0,080	0,134
-211,738	800,000	0,100	0,247
-210,723	-41,699	-0,086	0,032
-209,709	-62,009	-0,244	0,073
-208,694	-200,000	-0,015	0,100
-207,679	-157,827	-0,085	0,004
-206,665	800,000	-0,075	0,181
-205,650	-7,167	-0,079	0,039
-204,636	228,489	-0,052	0,061
-203,621	41,055	0,063	-0,041
-202,606	-200,000	-0,008	0,105
-201,592	-122,409	0,050	0,006
-200,577	-81,884	0,070	0,017
-199,563	-128,753	0,118	0,012
-198,548	-200,000	0,068	-0,000
-197,533	-200,000	-0,041	0,146
-196,519	54,058	-0,035	0,024
-195,504	10,657	0,078	0,043
-194,490	-86,857	-0,136	0,030
-193,475	-200,000	0,016	-0,086
-192,460	237,336	0,032	0,039
-191,446	-140,912	-0,165	-0,012
-190,431	800,000	0,047	0,107
-189,417	-158,080	0,058	0,002
-188,402	-6,841	-0,194	-0,095
-187,387	-164,189	-0,092	-0,003
-186,373	-15,324	-0,115	-0,053
-185,358	106,801	0,116	0,100
-184,344	800,000	-0,070	0,194
-183,329	249,366	-0,038	-0,047
-182,315	-200,000	-0,014	-0,096
-181,300	-57,237	-0,099	-0,031
-180,285	495,107	-0,043	-0,072
-179,271	-48,216	0,051	-0,018
-178,256	-49,992	0,055	0,019
-177,242	430,617	0,013	0,020
-176,227	110,725	0,092	0,080
-175,212	-200,000	-0,010	0,118
-174,198	573,069	0,035	-0,062
-173,183	36,042	-0,047	0,030
-172,169	800,000	0,029	-0,082
-171,154	-121,736	0,165	-0,019
-170,139	96,793	-0,109	-0,090
-169,125	-200,000	0,011	-0,067
-168,110	-57,069	0,029	-0,009
-167,096	650,966	-0,023	-0,044
-166,081	122,060	-0,119	-0,108
-165,066	-161,160	-0,165	0,006
-164,052	-200,000	-0,025	0,120
-163,037	800,000	0,072	0,170
-162,023	277,309	0,114	0,146
-161,008	11,748	0,122	-0,067
-159,993	-200,000	-0,000	-0,031
-158,979	800,000	-0,061	-0,168
-157,964	61,950	-0,018	0,013
-156,950	45,475	0,080	0,053
-155,935	-35,526	0,020	-0,008
-154,920	-181,508	0,029	-0,000
-153,906	-6,145	0,040	-0,020
-152,891	52,544	0,057	-0,039
-151,877	305,309	-0,121	-0,162
-150,862	150,713	-0,038	-0,037
-149,847	-116,091	0,038	0,005
-148,833	-13,921	0,053	0,024
-147,818	-200,000	0,016	0,052
-146,804	41,756	0,046	0,030
-145,789	800,000	0,045	0,115
-144,775	138,949	-0,020	-0,019
-143,760	-200,000	-0,001	-0,080
-142,745	800,000	0,051	0,138
-141,731	129,855	0,070	-0,065
-140,716	22,139	-0,073	-0,043
-139,702	760,943	0,024	-0,048
-138,687	-19,028	0,042	-0,019
-137,672	-52,804	0,050	0,017
-136,658	-107,768	-0,134	0,021
-135,643	23,715	-0,091	0,054
-134,629	-164,000	0,121	-0,004
-133,614	-14,528	-0,015	0,007
-132,599	-63,183	0,104	0,031
-131,585	196,141	-0,030	-0,033
-130,570	-100,833	0,022	0,004
-129,556	63,387	-0,109	-0,079
-128,541	-200,000	0,006	-0,057
-127,526	-200,000	0,002	0,084
-126,512	-200,000	0,032	0,106
-125,497	-49,109	-0,126	0,043
-124,483	-157,805	0,120	-0,005
-123,468	800,000	-0,058	0,125
-122,453	-79,451	0,132	-0,032
-121,439	800,000	0,014	0,028
-120,424	-200,000	-0,007	-0,034
-119,410	-200,000	-0,019	-0,108
-118,395	426,994	0,046	0,072
-117,380	396,463	-0,051	-0,078
-116,366	-200,000	-0,005	0,039
-115,351	23,914	-0,096	-0,057
-114,337	800,000	-0,005	0,014
-113,322	-200,000	-0,005	-0,034
-112,307	18,256	0,111	-0,063
-111,293	4,002	-0,084	0,044
-110,278	-149,942	-0,133	0,007
-109,264	239,071	0,037	0,044
-108,249	-191,241	-0,117	-0,001
-107,234	800,000	-0,009	0,027
-106,220	46,012	0,055	0,036
-105,205	343,477	-0,037	0,053
-104,191	-175,044	0,123	0,002
-103,176	-200,000	-0,030	-0,125
-102,162	142,758	-0,034	-0,033
-101,147	-200,000	-0,023	0,115
-100,132	123,049	0,022	-0,020
-99,118	-15,374	-0,152	0,069
-98,103	-200,000	0,005	-0,027
-97,089	328,159	0,016	-0,023
-96,074	358,232	0,022	0,032
-95,059	800,000	-0,016	0,051
-94,045	439,850	0,045	-0,071
-93,030	-7,292	-0,125	-0,061
-92,016	186,246	-0,127	-0,136
-91,001	37,402	0,055	-0,035
-89,986	-200,000	-0,017	0,124
-88,972	-111,858	-0,128	-0,018
-87,957	62,533	0,074	0,053
-86,943	718,537	0,016	0,031
-85,928	-146,957	0,128	0,008
-84,913	110,566	0,083	0,071
-83,899	4,922	0,049	-0,026
-82,884	800,000	0,053	0,112
-81,870	206,491	-0,033	-0,037
-80,855	239,597	0,028	0,034
-79,840	104,326	-0,014	0,012
-78,826	-200,000	-0,041	-0,184
-77,811	161,040	-0,101	-0,102
-76,797	379,910	0,038	0,057
-75,782	-200,000	-0,007	0,031
-74,767	19,421	-0,040	0,023
-73,753	162,874	-0,092	0,093
-72,738	208,538	0,093	-0,105
-71,724	455,820	0,034	-0,055
-70,709	-200,000	-0,019	0,125
-69,694	-200,000	0,012	0,064
-68,680	98,900	0,097	0,081
-67,665	-200,000	0,027	0,179
-66,651	199,881	0,038	-0,041
-65,636	800,000	0,021	-0,057
-64,622	63,573	0,071	-0,051
-63,607	37,795	-0,184	-0,117
-62,592	-200,000	-0,028	-0,125
-61,578	99,562	-0,055	-0,046
-60,563	144,647	0,018	0,017
-59,549	422,040	-0,056	0,087
-58,534	59,806	-2,622	-1,858
-57,519	63,234	0,413	-0,297
-56,505	-200,000	-1,701	-5,483
-55,490	353,007	1,190	1,700
-54,476	800,000	5,314	11,570
-53,461	-200,000	21,715	341,636
-52,446	800,000	760,477	2305,465
-51,432	516,908	1654,205	2789,135
-50,417	104,668	1620,212	1370,972
-49,403	74,493	1275,346	962,192
-48,388	25,863	1023,220	611,173
-47,373	19,314	989,302	569,210
-46,359	13,657	976,519	543,230
-45,344	9,541	973,293	527,868
-44,330	10,152	971,177	528,710
-43,315	9,062	969,282	524,075
-42,300	9,006	968,193	523,281
-41,286	8,991	967,136	522,642
-40,271	8,973	966,310	522,115
-39,257	8,872	965,496	521,323
-38,242	8,994	964,492	521,161
-37,227	8,918	963,572	520,395
-36,213	8,936	962,909	520,074
-35,198	8,897	961,977	519,425
-34,184	9,009	961,229	519,365
-33,169	8,983	960,340	518,780
-32,154	8,983	959,251	518,170
-31,140	8,970	958,260	517,571
-30,125	8,968	957,720	517,253
-29,111	9,015	956,967	516,979
-28,096	9,043	956,205	516,638
-27,082	8,979	955,490	516,023
-26,067	8,913	954,904	515,472
-25,052	8,948	954,024	515,089
-24,038	8,918	953,434	514,655
-23,023	8,979	952,598	514,379
-22,009	8,986	951,930	514,020
-20,994	8,955	951,504	513,671
-19,979	8,956	950,893	513,322
-18,965	8,927	950,300	512,888
-17,950	9,020	949,559	512,770
-16,936	8,943	949,026	512,213
-15,921	8,905	948,362	511,713
-14,906	8,922	947,345	511,197
-13,892	8,884	946,827	510,774
-12,877	8,823	946,354	510,306
-11,863	8,827	945,651	509,919
-10,848	8,889	944,920	509,701
-9,833	8,946	944,626	509,707
-8,819	8,903	944,026	509,223
-7,804	8,830	943,297	508,578
-6,790	8,829	942,768	508,271
-5,775	8,930	942,156	508,240
-4,760	8,881	941,369	507,641
-3,746	8,846	940,990	507,305
-2,731	8,696	940,199	506,382
-1,717	8,714	939,517	506,049
-0,702	8,667	938,858	505,527
0,313	8,559	938,273	505,631
1,327	11,931	936,006	515,047
2,342	20,349	784,428	453,830
3,356	15,432	451,065	253,487
4,371	-10,826	313,949	148,368
5,386	-14,659	296,441	136,184
6,400	-16,730	290,307	131,290
7,415	-16,812	287,662	130,001
8,429	-17,247	285,900	128,766
9,444	-17,321	284,990	128,272
10,459	-17,359	284,464	127,988
11,473	-17,238	283,952	127,863
12,488	-17,188	283,312	127,612
13,502	-17,298	282,835	127,279
14,517	-17,238	282,571	127,208
15,531	-17,002	282,103	127,214
16,546	-16,969	281,669	127,039
17,561	-17,216	281,318	126,631
18,575	-17,068	280,966	126,603
19,590	-16,948	280,567	126,528
20,604	-17,062	280,437	126,349
21,619	-16,970	279,884	126,176
22,634	-17,088	279,705	125,971
23,648	-17,104	279,296	125,761
24,663	-17,071	279,025	125,659
25,677	-17,003	278,838	125,628
26,692	-16,919	278,513	125,551
27,707	-16,898	278,221	125,428
28,721	-16,928	277,941	125,262
29,736	-17,014	277,767	125,091
30,750	-16,939	277,416	124,993
31,765	-16,929	277,119	124,858
32,780	-16,807	277,017	124,916
33,794	-16,947	276,646	124,605
34,809	-16,964	276,451	124,490
35,823	-16,956	276,183	124,366
36,838	-17,023	275,903	124,165
37,853	-16,955	275,679	124,118
38,867	-17,003	275,326	123,902
39,882	-17,122	275,419	123,821
40,896	-17,062	275,097	123,722
41,911	-16,916	274,760	123,697
42,926	-17,042	274,360	123,387
43,940	-17,079	274,340	123,333
44,955	-17,107	273,933	123,112
45,969	-17,092	273,697	123,009
46,984	-16,939	273,646	123,119
47,999	-17,027	273,490	122,955
49,013	-16,804	273,107	122,980
50,028	-16,911	273,055	122,846
51,042	-16,845	272,665	122,721
52,057	-16,875	272,408	122,567
53,071	-16,648	272,262	122,701
54,086	-16,792	271,988	122,433
55,101	-16,640	271,658	122,414
56,115	-16,996	271,601	122,047
57,130	-16,854	271,260	122,015
58,144	-17,280	270,963	121,476
59,159	-16,959	270,729	121,657
60,174	-16,961	270,484	121,534
61,188	-16,904	270,100	121,404
62,203	-16,987	270,011	121,277
63,217	-17,041	269,869	121,152
64,232	-17,020	269,601	121,040
65,247	-16,967	269,210	120,903
66,261	-17,057	269,104	120,762
67,276	-16,733	268,733	120,881
68,290	-16,810	268,584	120,733
69,305	-16,761	268,572	120,761
70,320	-17,121	268,400	120,344
71,334	-16,880	267,956	120,355
72,349	-16,965	267,676	120,140
73,363	-16,944	267,471	120,057
74,378	-16,984	267,270	119,919
75,393	-17,053	267,042	119,743
76,407	-16,918	266,765	119,731
77,422	-16,818	266,600	119,738
78,436	-16,930	266,420	119,544
79,451	-16,977	266,189	119,388
80,466	-17,119	265,975	119,152
81,480	-16,910	265,764	119,236
82,495	-17,003	265,555	119,048
83,509	-16,917	265,293	118,997
84,524	-16,705	265,007	119,050
85,539	-16,901	265,129	118,917
86,553	-16,794	264,730	118,824
87,568	-16,914	264,538	118,619
88,582	-16,839	264,189	118,520
89,597	-16,834	264,008	118,432
90,611	-16,983	263,839	118,212
91,626	-16,983	263,721	118,149
92,641	-17,054	263,503	117,977
93,655	-17,024	263,273	117,890
94,670	-16,893	262,935	117,845
95,684	-17,091	262,881	117,633
96,699	-17,105	262,581	117,476
97,714	-17,036	262,518	117,499
98,728	-16,847	262,192	117,512
99,743	-16,751	261,928	117,468
100,757	-16,734	261,750	117,393
101,772	-16,785	261,550	117,248
102,787	-16,855	261,426	117,119
103,801	-16,827	261,145	117,008
104,816	-17,024	260,925	116,724
105,830	-16,614	260,659	116,958
106,845	-16,946	260,646	116,647
107,860	-16,916	260,405	116,556
108,874	-16,712	260,043	116,564
109,889	-17,344	260,141	116,038
110,903	-16,945	259,856	116,253
111,918	-16,793	259,461	116,201
112,933	-16,879	259,413	116,093
113,947	-16,951	259,138	115,896
114,962	-17,055	259,015	115,739
115,976	-16,883	258,683	115,731
116,991	-17,017	258,421	115,486
118,006	-16,897	258,320	115,536
119,020	-16,835	258,117	115,490
120,035	-17,033	258,046	115,274
121,049	-16,867	257,836	115,315
122,064	-16,930	257,726	115,200
123,079	-17,101	257,424	114,905
124,093	-16,925	257,190	114,944
125,108	-16,753	257,137	115,062
126,122	-16,701	256,980	115,027
127,137	-16,731	256,697	114,863
128,151	-16,714	256,446	114,755
129,166	-16,731	256,209	114,624
130,181	-16,772	255,965	114,469
131,195	-16,892	255,923	114,335
132,210	-16,891	255,653	114,206
133,224	-16,864	255,552	114,173
134,239	-16,934	255,306	113,993
135,254	-16,950	255,045	113,853
136,268	-16,757	254,756	113,880
137,283	-16,717	254,649	113,857
138,297	-16,519	254,378	113,896
139,312	-16,807	254,254	113,582
140,327	-16,808	253,989	113,453
141,341	-16,792	253,822	113,382
142,356	-16,901	253,533	113,149
143,370	-16,827	253,339	113,116
144,385	-16,857	253,240	113,036
145,400	-16,961	252,997	112,828
146,414	-16,755	252,864	112,935
147,429	-16,907	252,748	112,743
148,443	-16,763	252,412	112,706
149,458	-16,797	252,425	112,673
150,473	-16,671	251,942	112,555
151,487	-16,911	251,990	112,362
152,502	-16,794	251,708	112,325
153,516	-16,793	251,586	112,262
154,531	-16,857	251,360	112,097
155,546	-17,163	251,144	111,730
156,560	-16,847	250,957	111,905
157,575	-16,775	250,811	111,892
158,589	-16,790	250,494	111,727
159,604	-16,892	250,400	111,589
160,619	-16,818	250,154	111,532
161,633	-16,853	250,091	111,464
162,648	-16,869	249,866	111,341
163,662	-16,798	249,715	111,323
164,677	-16,682	249,520	111,325
165,692	-16,752	249,444	111,222
166,706	-16,863	249,278	111,044
167,721	-16,979	249,013	110,819
168,735	-16,808	248,926	110,914
169,750	-16,685	248,725	110,918
170,764	-16,720	248,712	110,873
171,779	-16,898	248,498	110,618
172,794	-16,884	248,337	110,548
173,808	-16,806	248,029	110,466
174,823	-16,740	247,918	110,462
175,837	-16,678	247,647	110,384
176,852	-16,843	247,459	110,152
177,867	-16,753	247,289	110,142
178,881	-16,996	247,155	109,869
179,896	-16,728	247,105	110,061
180,910	-16,834	246,824	109,838
181,925	-16,743	246,546	109,780
182,940	-16,953	246,525	109,586
183,954	-17,016	246,313	109,429
184,969	-16,593	246,079	109,668
185,983	-16,943	245,948	109,309
186,998	-16,710	245,663	109,365
188,013	-16,815	245,600	109,240
189,027	-16,835	245,531	109,184
190,042	-16,897	245,209	108,979
191,056	-16,902	244,997	108,871
192,071	-16,989	244,953	108,770
193,086	-16,927	244,713	108,705
194,100	-16,997	244,424	108,510
195,115	-16,845	244,342	108,589
196,129	-16,706	244,030	108,555
197,144	-17,045	243,880	108,199
198,159	-16,785	243,569	108,266
199,173	-17,035	243,532	108,034
200,188	-16,707	243,309	108,195
201,202	-16,811	243,253	108,075
202,217	-16,777	243,122	108,035
203,232	-16,979	242,910	107,765
204,246	-16,824	242,606	107,748
205,261	-17,189	242,347	107,325
206,275	-15,904	242,829	108,581
207,290	-10,686	244,766	113,742
208,304	-4,364	246,596	119,824
209,319	-1,770	247,363	122,339
210,334	-0,585	247,619	123,437
211,348	0,508	247,877	124,463
212,363	0,986	247,841	124,830
213,377	1,226	247,853	125,023
214,392	1,675	247,766	125,341
215,407	1,651	247,767	125,310
216,421	1,958	247,436	125,385
217,436	2,143	247,369	125,493
218,450	2,043	247,097	125,262
219,465	1,942	246,897	125,066
220,480	1,787	246,819	124,888
221,494	1,806	246,603	124,782
222,509	1,310	246,289	124,205
223,523	1,025	246,120	123,873
224,538	1,173	245,823	123,835
225,553	0,892	245,787	123,575
226,567	0,926	245,411	123,403
227,582	0,843	245,424	123,330
228,596	1,100	245,142	123,388
229,611	0,982	244,954	123,185
230,626	0,890	244,838	123,041
231,640	1,019	244,869	123,151
232,655	0,834	244,524	122,816
233,669	0,936	244,268	122,759
234,684	0,683	244,306	122,561
235,699	0,677	244,151	122,468
236,713	0,953	243,945	122,577
237,728	0,936	243,711	122,435
238,742	0,767	243,735	122,299
239,757	1,105	243,297	122,343
240,772	0,838	243,220	122,076
241,786	1,055	243,116	122,190
242,801	1,080	242,973	122,127
243,815	0,869	242,776	121,846
244,830	0,901	242,656	121,801
245,844	0,973	242,438	121,739
246,859	1,151	242,278	121,792
247,874	0,818	242,049	121,396
248,888	0,999	242,042	121,529
249,903	0,876	241,841	121,317
250,917	1,067	241,746	121,413
251,932	0,959	241,628	121,255
252,947	0,899	241,520	121,143
253,961	1,199	241,130	121,177
254,976	1,150	241,084	121,104
255,990	1,087	240,788	120,893
257,005	0,873	240,935	120,785
258,020	0,989	240,692	120,746
259,034	0,800	240,492	120,483
260,049	1,143	240,342	120,672
261,063	1,193	239,982	120,520
262,078	0,955	240,021	120,339
263,093	1,186	239,637	120,320
264,107	1,058	239,626	120,201
265,122	1,009	239,430	120,053
266,136	1,171	239,332	120,123
267,151	1,032	239,134	119,902
268,166	1,040	239,008	119,834
269,180	0,843	238,876	119,601
270,195	1,020	238,669	119,627
271,209	1,046	238,638	119,621
272,224	1,137	238,374	119,550
273,239	1,061	238,247	119,416
274,253	1,115	238,053	119,351
275,268	1,045	237,977	119,247
276,282	0,857	237,821	119,009
277,297	0,907	237,579	118,917
278,312	1,013	237,429	118,916
279,326	0,884	237,406	118,792
280,341	1,010	237,285	118,819
281,355	1,060	236,818	118,615
282,370	1,104	236,934	118,696
283,384	0,972	236,779	118,505
284,399	1,042	236,654	118,486
285,414	0,982	236,476	118,340
286,428	0,849	236,229	118,101
287,443	0,926	236,101	118,087
288,457	1,093	235,877	118,095
289,472	0,974	235,789	117,947
290,487	0,818	235,660	117,750
291,501	0,865	235,466	117,679
292,516	1,034	235,460	117,798
293,530	0,992	235,275	117,662
294,545	0,924	235,105	117,513
295,560	0,985	234,961	117,479
296,574	1,080	234,772	117,448
297,589	0,926	234,675	117,269
298,603	1,059	234,524	117,287
299,618	1,090	234,351	117,214
300,633	1,191	234,170	117,191
301,647	1,213	234,193	117,209
302,662	1,120	233,925	116,993
303,676	1,178	233,848	116,989
304,691	1,272	233,741	116,998
305,706	1,155	233,553	116,803
306,720	1,250	233,362	116,770
307,735	1,138	233,251	116,617
308,749	1,141	233,168	116,568
309,764	1,206	232,885	116,466
310,779	1,127	232,697	116,301
311,793	1,044	232,511	116,134
312,808	1,202	232,336	116,157
313,822	1,187	232,188	116,061
314,837	1,330	232,120	116,127
315,852	1,318	231,971	116,033
316,866	1,342	231,823	115,967
317,881	1,046	231,817	115,726
318,895	1,385	231,529	115,833
319,910	1,211	231,368	115,608
320,925	1,252	231,226	115,558
321,939	1,164	231,022	115,379
322,954	1,101	230,911	115,265
323,968	1,125	230,858	115,246
324,983	1,329	230,689	115,308
325,997	1,103	230,538	115,050
327,012	1,013	230,424	114,913
328,027	1,035	230,202	114,809
329,041	1,174	230,101	114,854
330,056	1,151	229,939	114,746
331,070	1,468	229,768	114,892
332,085	1,299	229,487	114,612
333,100	1,323	229,440	114,597
334,114	1,018	229,343	114,307
335,129	1,426	229,054	114,462
336,143	1,185	228,978	114,230
337,158	1,430	228,998	114,417
338,173	1,559	228,726	114,368
339,187	1,346	228,517	114,092
340,202	1,127	228,469	113,893
341,216	1,231	228,286	113,870
342,231	1,250	228,150	113,806
343,246	1,372	228,001	113,814
344,260	1,233	227,826	113,611
345,275	1,520	227,838	113,824
346,289	1,381	227,604	113,592
347,304	1,429	227,460	113,545
348,319	1,488	227,283	113,492
349,333	1,231	227,101	113,198
350,348	1,284	227,089	113,221
351,362	1,375	226,805	113,137
352,377	1,121	226,659	112,865
353,392	1,065	226,693	112,830
354,406	1,313	226,332	112,826
355,421	191,834	1312,945	1378,848
356,435	153,666	1445,215	1378,700
