DTS Sentinel unit serial number:	SN410029Multiplexer serial number:	ORYXHardware model number:	OX2-SRSoftware version number:	ORYX F/W v4,00 Oryx Data Collector v3.7.2.0data status	okinstallation	B5 Nyhavnadifferential loss correction	single-endedforward channel	channel 2reverse channel	N/Adate	2023/12/14time	11:22:13forward acquisition time	300,00reverse acquisition time	0,00gamma	499,1914k internal	0,3159k external	0,3159temperature offset calibration	1,0000default loss term (dB/km)	0,3820temperature slope calibration	1,0000multiplexer offset coefficient	1,0000multiplexer slope coefficient	1,0000fibre end	0,00T internal ref (°C)	7,36T ext. ref 1 (°C)	-8,04T ext. ref 2 (°C)	-8,05length (m)	temperature (°C)	Stokes	anti-Stokes-744,400	-23,852	0,169	0,074
-743,385	-137,877	-0,303	-0,025
-742,371	-159,966	0,207	0,008
-741,356	-165,804	-0,267	0,008
-740,342	160,935	0,119	0,123
-739,327	-78,213	-0,456	-0,115
-738,312	-15,749	0,240	0,112
-737,298	-82,850	-0,394	-0,093
-736,283	92,458	0,158	0,131
-735,269	-86,384	-0,363	-0,082
-734,254	-17,943	0,146	0,067
-733,239	-5,106	-0,628	-0,317
-732,225	39,986	0,293	0,194
-731,210	-45,310	0,141	-0,051
-730,196	-137,517	-0,044	-0,004
-729,181	-121,552	-0,041	0,005
-728,167	-66,452	0,098	0,028
-727,152	64,164	0,059	-0,044
-726,137	-46,815	-0,193	0,069
-725,123	495,340	-0,002	-0,004
-724,108	2,163	-0,128	-0,068
-723,094	-75,711	-0,118	0,031
-722,079	-69,444	-0,038	0,011
-721,064	800,000	0,039	0,105
-720,050	-142,209	-0,096	0,007
-719,035	800,000	-0,016	0,036
-718,021	33,159	0,064	-0,041
-717,006	11,771	0,088	-0,050
-715,991	800,000	-0,057	-0,132
-714,977	600,973	-0,033	-0,061
-713,962	246,354	-0,027	0,034
-712,948	131,378	0,101	-0,096
-711,933	417,790	0,063	-0,100
-710,918	419,001	0,045	0,071
-709,904	547,140	0,023	0,041
-708,889	202,179	-0,084	-0,095
-707,875	60,706	-0,057	-0,041
-706,860	800,000	0,058	0,134
-705,845	68,962	-0,027	0,021
-704,831	-200,000	-0,023	0,133
-703,816	45,616	0,024	0,017
-702,802	319,346	0,069	-0,097
-701,787	-200,000	-0,022	-0,091
-700,772	14,889	0,056	-0,032
-699,758	-200,000	0,008	0,064
-698,743	0,640	0,026	0,014
-697,729	362,679	-0,127	0,188
-696,714	-200,000	0,005	-0,046
-695,699	-35,554	-0,121	-0,048
-694,685	800,000	-0,043	0,097
-693,670	-82,754	-0,081	-0,019
-692,656	209,899	0,031	0,036
-691,641	-131,170	-0,021	0,002
-690,627	302,992	-0,064	0,087
-689,612	-200,000	0,011	0,099
-688,597	462,637	-0,013	-0,021
-687,583	-42,054	-0,081	-0,030
-686,568	-200,000	-0,021	-0,107
-685,554	-200,000	0,011	0,102
-684,539	800,000	0,023	-0,047
-683,524	800,000	0,024	0,051
-682,510	74,609	0,103	0,080
-681,495	-200,000	-0,023	0,236
-680,481	467,327	-0,087	0,144
-679,466	22,052	-0,038	0,023
-678,451	25,903	-0,046	-0,028
-677,437	136,860	-0,005	0,005
-676,422	-200,000	-0,005	0,069
-675,408	-162,002	0,051	-0,002
-674,393	47,021	0,014	-0,010
-673,378	345,259	-0,054	-0,079
-672,364	-200,000	-0,021	0,154
-671,349	75,525	-0,034	0,026
-670,335	800,000	-0,025	0,057
-669,320	-200,000	0,023	-0,097
-668,305	272,298	0,040	0,052
-667,291	-200,000	-0,030	0,102
-666,276	-21,292	-0,074	-0,033
-665,262	60,367	-0,045	-0,033
-664,247	36,393	-0,086	0,056
-663,232	-22,605	-0,138	-0,061
-662,218	-200,000	0,020	0,122
-661,203	800,000	-0,025	-0,057
-660,189	-115,845	-0,039	-0,005
-659,174	786,679	-0,038	0,077
-658,159	-200,000	-0,002	-0,234
-657,145	-72,924	-0,211	-0,057
-656,130	101,926	-0,100	-0,086
-655,116	-63,780	0,132	0,039
-654,101	-200,000	0,003	0,034
-653,086	-200,000	-0,020	0,115
-652,072	-47,730	-0,112	-0,040
-651,057	196,043	0,044	-0,050
-650,043	1,671	-0,010	-0,005
-649,028	-160,055	-0,090	0,004
-648,014	-200,000	-0,001	0,091
-646,999	-0,676	0,028	0,015
-645,984	800,000	-0,020	-0,041
-644,970	6,038	-0,088	-0,048
-643,955	116,933	-0,109	0,098
-642,941	569,343	0,021	-0,037
-641,926	-176,477	0,024	-0,000
-640,911	619,663	0,031	-0,057
-639,897	800,000	0,037	0,120
-638,882	27,171	-0,100	-0,061
-637,868	800,000	-0,028	-0,072
-636,853	-200,000	-0,017	-0,123
-635,838	-200,000	-0,032	-0,284
-634,824	800,000	-0,007	-0,020
-633,809	42,789	-0,052	0,035
-632,795	119,006	0,073	-0,067
-631,780	126,182	-0,076	0,070
-630,765	-93,599	0,069	0,014
-629,751	-200,000	0,002	0,053
-628,736	-22,172	-0,057	0,025
-627,722	134,773	-0,022	0,021
-626,707	-200,000	0,006	-0,025
-625,692	75,804	0,114	0,089
-624,678	-200,000	-0,004	-0,025
-623,663	-200,000	-0,021	-0,068
-622,649	-19,621	0,074	0,034
-621,634	800,000	0,069	-0,148
-620,619	-200,000	-0,005	-0,045
-619,605	-200,000	-0,013	0,067
-618,590	28,450	0,046	0,029
-617,576	51,449	0,086	0,060
-616,561	-200,000	0,002	-0,014
-615,546	800,000	-0,029	-0,081
-614,532	-12,069	-0,150	0,072
-613,517	426,075	0,052	0,082
-612,503	-200,000	-0,009	-0,075
-611,488	-200,000	0,029	0,113
-610,474	2,602	0,127	-0,067
-609,459	-200,000	0,035	0,144
-608,444	-87,319	-0,029	-0,006
-607,430	-200,000	0,002	-0,028
-606,415	800,000	0,008	0,022
-605,401	-200,000	0,010	-0,033
-604,386	505,256	-0,045	-0,076
-603,371	721,869	-0,021	0,040
-602,357	800,000	-0,047	0,097
-601,342	13,376	-0,135	-0,076
-600,328	800,000	-0,022	-0,072
-599,313	-200,000	-0,001	0,037
-598,298	-133,046	0,013	-0,001
-597,284	99,903	0,128	0,108
-596,269	237,941	0,058	0,071
-595,255	800,000	0,016	-0,039
-594,240	4,436	-0,061	-0,033
-593,225	-70,207	-0,153	-0,042
-592,211	-125,367	0,086	0,009
-591,196	599,269	-0,024	-0,044
-590,182	-91,090	0,089	0,019
-589,167	-200,000	0,056	0,181
-588,152	-2,134	0,158	0,081
-587,138	-7,796	0,062	-0,031
-586,123	278,075	-0,031	-0,040
-585,109	78,062	0,118	-0,092
-584,094	-200,000	0,001	-0,046
-583,079	66,021	0,066	-0,049
-582,065	-74,500	0,075	0,020
-581,050	-148,285	-0,133	-0,008
-580,036	-31,625	0,057	0,023
-579,021	800,000	0,087	-0,197
-578,006	-200,000	0,001	-0,068
-576,992	512,328	-0,034	0,058
-575,977	-200,000	-0,001	0,027
-574,963	-200,000	-0,003	0,151
-573,948	251,514	-0,055	0,069
-572,934	202,789	0,032	-0,037
-571,919	45,644	0,068	0,046
-570,904	-13,277	-0,103	0,049
-569,890	280,103	-0,074	-0,096
-568,875	-140,939	0,119	0,009
-567,861	800,000	-0,027	-0,082
-566,846	-200,000	0,010	0,038
-565,831	161,357	-0,050	0,051
-564,817	-24,242	-0,175	0,076
-563,802	97,907	0,017	0,014
-562,788	800,000	0,043	-0,091
-561,773	-200,000	0,004	-0,201
-560,758	800,000	-0,011	-0,030
-559,744	-118,168	-0,006	0,001
-558,729	800,000	-0,025	-0,068
-557,715	117,423	0,085	-0,077
-556,700	-200,000	-0,005	-0,097
-555,685	175,378	0,039	0,042
-554,671	-108,169	0,093	-0,015
-553,656	163,107	0,083	-0,085
-552,642	134,577	-0,009	-0,008
-551,627	-200,000	-0,034	-0,118
-550,612	-200,000	-0,001	0,132
-549,598	55,683	-0,188	0,133
-548,583	800,000	-0,065	0,160
-547,569	-200,000	0,014	-0,105
-546,554	4,045	-0,039	-0,021
-545,539	80,434	0,112	0,088
-544,525	68,514	0,083	-0,062
-543,510	-101,577	-0,036	-0,006
-542,496	-157,726	0,080	0,003
-541,481	-185,438	0,073	-0,001
-540,466	-181,803	-0,080	-0,001
-539,452	-200,000	-0,028	-0,091
-538,437	-118,735	0,145	0,018
-537,423	-76,310	-0,089	0,023
-536,408	-200,000	0,008	-0,176
-535,393	-56,626	-0,148	0,048
-534,379	426,905	-0,019	-0,031
-533,364	-93,054	0,037	-0,007
-532,350	800,000	-0,080	-0,166
-531,335	-43,945	-0,124	0,045
-530,321	800,000	0,054	0,123
-529,306	-200,000	-0,112	-0,000
-528,291	191,360	-0,055	-0,061
-527,277	-109,303	0,018	0,003
-526,262	-200,000	-0,001	0,040
-525,248	-92,134	0,057	-0,012
-524,233	2,627	0,168	-0,089
-523,218	4,155	0,030	-0,016
-522,204	-17,277	-0,076	0,035
-521,189	-200,000	0,007	-0,030
-520,175	800,000	-0,074	-0,161
-519,160	-200,000	0,008	-0,037
-518,145	84,024	0,051	0,040
-517,131	53,820	0,092	-0,065
-516,116	74,120	-0,077	0,059
-515,102	187,763	0,022	-0,024
-514,087	-85,454	-0,070	-0,016
-513,072	287,604	0,030	-0,040
-512,058	220,303	0,066	0,078
-511,043	-109,514	-0,121	0,018
-510,029	-6,976	0,028	0,014
-509,014	-51,363	0,096	0,033
-507,999	-22,372	-0,098	0,043
-506,985	197,073	-0,058	-0,065
-505,970	-40,550	-0,095	-0,036
-504,956	800,000	-0,050	-0,118
-503,941	146,047	0,085	0,083
-502,926	-138,700	-0,042	-0,003
-501,912	-103,437	0,028	-0,005
-500,897	21,694	0,057	0,034
-499,883	509,378	-0,135	-0,229
-498,868	-38,576	-0,137	-0,053
-497,853	85,007	-0,016	-0,013
-496,839	800,000	-0,039	-0,109
-495,824	-200,000	-0,010	0,130
-494,810	-200,000	-0,033	0,184
-493,795	-38,513	-0,065	-0,025
-492,781	162,564	0,043	-0,044
-491,766	800,000	-0,044	-0,122
-490,751	-130,377	-0,051	-0,005
-489,737	773,321	-0,061	-0,121
-488,722	-82,306	0,210	0,050
-487,708	-70,928	0,074	-0,020
-486,693	-200,000	-0,037	0,140
-485,678	-5,923	-0,081	-0,040
-484,664	38,371	0,120	-0,078
-483,649	-200,000	-0,032	0,117
-482,635	193,276	-0,050	0,055
-481,620	44,609	0,055	0,037
-480,605	-166,016	0,063	0,002
-479,591	155,872	0,021	0,021
-478,576	800,000	0,022	0,056
-477,562	-7,744	0,048	0,023
-476,547	800,000	0,007	0,017
-475,532	-72,512	-0,123	-0,033
-474,518	402,594	0,082	0,127
-473,503	155,146	0,063	0,064
-472,489	-200,000	0,027	0,145
-471,474	-200,000	-0,011	-0,151
-470,459	-120,266	-0,151	0,019
-469,445	-200,000	-0,048	-0,250
-468,430	-103,765	0,067	-0,011
-467,416	391,940	-0,048	-0,074
-466,401	800,000	-0,015	-0,042
-465,386	-200,000	0,012	0,066
-464,372	33,473	-0,094	-0,059
-463,357	-200,000	0,013	-0,149
-462,343	125,656	-0,091	-0,084
-461,328	149,656	-0,101	-0,100
-460,313	167,192	0,033	-0,034
-459,299	241,504	0,035	0,043
-458,284	-145,783	-0,038	-0,002
-457,270	293,927	0,084	0,113
-456,255	21,325	-0,064	0,038
-455,241	-200,000	0,008	-0,102
-454,226	800,000	-0,032	-0,074
-453,211	-43,704	0,151	0,055
-452,197	12,333	0,062	-0,034
-451,182	202,731	0,050	-0,056
-450,168	-200,000	-0,008	0,040
-449,153	-200,000	-0,025	-0,163
-448,138	90,405	0,067	-0,055
-447,124	55,540	-0,074	0,052
-446,109	300,114	0,045	0,061
-445,095	-186,688	0,020	0,000
-444,080	196,446	0,050	0,055
-443,065	800,000	-0,052	-0,125
-442,051	675,528	0,041	-0,077
-441,036	-72,321	-0,051	-0,014
-440,022	-37,022	-0,076	-0,029
-439,007	-3,771	-0,056	-0,028
-437,992	800,000	0,020	-0,049
-436,978	-17,785	-0,150	0,068
-435,963	-200,000	0,001	-0,071
-434,949	75,175	-0,071	0,055
-433,934	96,344	-0,030	0,025
-432,919	-123,711	-0,098	-0,011
-431,905	225,713	-0,055	0,065
-430,890	100,747	0,103	0,087
-429,876	800,000	0,012	-0,028
-428,861	-200,000	-0,001	-0,170
-427,846	255,336	0,045	0,056
-426,832	800,000	-0,010	0,031
-425,817	106,216	0,046	-0,040
-424,803	-200,000	-0,002	0,063
-423,788	-200,000	0,009	-0,099
-422,773	-25,441	0,017	0,007
-421,759	216,155	0,080	0,093
-420,744	338,480	0,076	0,107
-419,730	800,000	-0,013	0,041
-418,715	28,663	0,103	-0,063
-417,701	100,265	-0,080	0,068
-416,686	490,253	0,080	-0,133
-415,671	528,303	0,058	-0,100
-414,657	-200,000	-0,027	0,096
-413,642	-86,396	0,126	0,028
-412,628	-140,825	-0,118	0,009
-411,613	435,509	-0,080	-0,127
-410,598	-200,000	0,014	0,120
-409,584	49,610	0,042	0,029
-408,569	-88,312	0,115	0,025
-407,555	-142,436	0,171	-0,012
-406,540	-37,997	0,104	0,040
-405,525	92,063	-0,109	0,089
-404,511	155,957	-0,065	-0,065
-403,496	110,721	0,091	-0,079
-402,482	211,405	0,016	0,019
-401,467	439,973	0,053	0,085
-400,452	287,990	0,025	0,034
-399,438	-78,886	0,116	-0,028
-398,423	385,987	-0,029	0,043
-397,409	-88,656	-0,082	-0,018
-396,394	-200,000	-0,005	-0,124
-395,379	-200,000	-0,048	-0,157
-394,365	-96,184	0,089	0,017
-393,350	-82,268	0,172	-0,040
-392,336	-200,000	-0,011	0,058
-391,321	-200,000	-0,004	-0,099
-390,306	413,031	0,031	-0,049
-389,292	-100,300	-0,149	0,027
-388,277	328,112	-0,053	0,074
-387,263	346,317	-0,032	0,045
-386,248	-200,000	-0,009	0,076
-385,233	-146,313	-0,197	-0,012
-384,219	-36,472	-0,122	0,047
-383,204	53,475	0,100	-0,070
-382,190	15,962	-0,093	-0,053
-381,175	-200,000	0,000	-0,007
-380,160	-151,494	0,192	-0,010
-379,146	363,228	-0,041	0,059
-378,131	611,767	0,062	0,114
-377,117	-152,580	-0,082	0,004
-376,102	-24,978	-0,073	-0,031
-375,088	94,418	0,061	-0,050
-374,073	93,999	-0,107	-0,088
-373,058	-200,000	0,007	0,083
-372,044	800,000	-0,065	0,147
-371,029	532,377	0,050	0,086
-370,015	157,299	0,062	0,063
-369,000	143,970	-0,108	-0,105
-367,985	43,239	-0,127	-0,084
-366,971	-73,611	0,107	0,028
-365,956	-200,000	0,019	-0,108
-364,942	-200,000	-0,010	-0,130
-363,927	220,939	0,084	0,098
-362,912	654,126	-0,004	0,008
-361,898	-119,826	0,077	-0,010
-360,883	89,763	0,067	-0,054
-359,869	-61,457	-0,058	0,018
-358,854	-93,105	-0,081	-0,016
-357,839	800,000	-0,005	-0,010
-356,825	800,000	0,009	-0,021
-355,810	61,026	-0,057	0,041
-354,796	-200,000	-0,006	0,076
-353,781	90,851	0,108	0,088
-352,766	-200,000	-0,002	0,032
-351,752	-102,185	0,089	-0,015
-350,737	-113,389	0,066	0,009
-349,723	436,640	-0,046	0,073
-348,708	-200,000	0,016	0,058
-347,693	62,904	0,056	-0,041
-346,679	-200,000	-0,011	-0,145
-345,664	-200,000	-0,009	-0,057
-344,650	30,692	-0,069	-0,043
-343,635	-200,000	0,012	0,117
-342,620	-67,968	0,120	-0,034
-341,606	800,000	0,044	-0,134
-340,591	161,695	0,019	-0,019
-339,577	-171,831	-0,085	-0,002
-338,562	169,254	-0,056	-0,058
-337,548	478,745	-0,030	0,050
-336,533	-50,680	-0,061	0,021
-335,518	284,200	-0,033	-0,043
-334,504	-162,619	0,153	0,005
-333,489	32,466	0,085	0,053
-332,475	465,662	-0,046	0,076
-331,460	-38,259	-0,092	0,035
-330,445	-117,117	-0,061	-0,008
-329,431	466,030	-0,051	-0,083
-328,416	800,000	-0,031	0,067
-327,402	542,903	0,039	-0,068
-326,387	800,000	-0,019	-0,052
-325,372	-99,791	-0,122	0,022
-324,358	430,268	-0,018	0,028
-323,343	150,154	0,065	-0,064
-322,329	800,000	-0,020	-0,054
-321,314	-162,795	0,031	0,001
-320,299	24,449	-0,073	-0,044
-319,285	105,554	0,037	-0,032
-318,270	-200,000	0,009	0,143
-317,256	-200,000	0,113	-0,000
-316,241	-187,361	-0,185	-0,002
-315,226	-200,000	0,029	0,162
-314,212	-200,000	0,024	0,172
-313,197	-200,000	0,016	0,076
-312,183	-200,000	-0,015	-0,170
-311,168	-200,000	-0,008	0,050
-310,153	800,000	-0,065	-0,162
-309,139	-143,768	0,048	0,003
-308,124	-9,175	0,119	0,057
-307,110	-41,990	0,081	-0,030
-306,095	800,000	-0,067	0,139
-305,080	-200,000	-0,008	0,053
-304,066	201,436	-0,136	0,152
-303,051	451,342	-0,033	-0,053
-302,037	-130,869	-0,059	-0,006
-301,022	-200,000	0,025	0,119
-300,008	-200,000	0,004	-0,012
-298,993	-200,000	-0,010	0,165
-297,978	32,631	0,097	0,061
-296,964	-129,688	-0,107	-0,010
-295,949	-164,771	0,151	0,005
-294,935	-200,000	-0,007	-0,042
-293,920	-200,000	0,015	-0,048
-292,905	175,836	0,038	0,040
-291,891	146,087	0,011	0,010
-290,876	159,827	-0,018	0,018
-289,862	-37,860	0,040	0,015
-288,847	-31,319	0,049	0,020
-287,832	-179,609	-0,087	-0,001
-286,818	800,000	-0,027	-0,075
-285,803	-13,374	0,131	0,061
-284,789	-175,573	0,123	0,002
-283,774	10,399	-0,074	0,041
-282,759	202,453	0,033	-0,037
-281,745	-158,763	-0,145	0,006
-280,730	-169,120	-0,111	-0,003
-279,716	-48,559	0,097	-0,034
-278,701	240,059	0,104	0,126
-277,686	-200,000	0,026	0,085
-276,672	-80,696	0,157	0,037
-275,657	69,152	-0,081	0,061
-274,643	146,080	-0,034	-0,033
-273,628	-200,000	-0,012	-0,098
-272,613	-200,000	0,050	-0,163
-271,599	-113,840	0,091	0,013
-270,584	1,326	0,092	0,048
-269,570	180,465	0,093	-0,099
-268,555	266,314	0,068	-0,087
-267,540	-170,459	0,063	-0,002
-266,526	-15,726	-0,111	-0,051
-265,511	-104,032	0,049	-0,008
-264,497	404,369	0,035	0,054
-263,482	564,842	-0,022	0,039
-262,467	-162,337	0,110	0,004
-261,453	63,303	-0,097	-0,070
-260,438	157,328	0,045	-0,045
-259,424	800,000	-0,039	-0,080
-258,409	182,529	-0,094	-0,101
-257,395	-200,000	0,000	0,009
-256,380	800,000	-0,056	0,130
-255,365	800,000	-0,036	-0,077
-254,351	321,918	0,045	-0,062
-253,336	80,775	-0,071	0,055
-252,322	-200,000	-0,024	-0,100
-251,307	-200,000	0,010	0,061
-250,292	-151,572	-0,080	-0,004
-249,278	-200,000	0,036	-0,122
-248,263	-103,140	0,091	-0,015
-247,249	134,190	-0,065	0,061
-246,234	289,898	-0,147	-0,193
-245,219	-200,000	-0,006	-0,090
-244,205	-21,479	0,043	0,019
-243,190	-200,000	-0,025	-0,195
-242,176	-171,877	0,052	-0,001
-241,161	-81,883	0,096	0,023
-240,146	-200,000	-0,012	0,087
-239,132	-200,000	-0,024	-0,109
-238,117	99,943	-0,017	0,014
-237,103	184,542	-0,058	-0,063
-236,088	-130,475	-0,158	0,015
-235,073	51,159	0,129	-0,088
-234,059	240,737	-0,066	0,080
-233,044	136,911	-0,025	-0,024
-232,030	-78,415	-0,069	0,017
-231,015	145,236	-0,118	0,114
-230,000	80,302	-0,075	0,058
-228,986	264,852	-0,060	-0,075
-227,971	315,627	0,069	0,094
-226,957	104,230	0,089	0,076
-225,942	-158,127	0,049	0,002
-224,927	-86,137	-0,048	-0,011
-223,913	63,665	-0,071	-0,052
-222,898	-62,036	-0,066	-0,020
-221,884	-200,000	0,005	0,119
-220,869	-74,324	0,104	0,027
-219,855	300,181	0,054	0,072
-218,840	-200,000	0,004	0,013
-217,825	3,528	-0,022	-0,012
-216,811	-200,000	-0,018	-0,058
-215,796	198,951	-0,090	0,100
-214,782	-200,000	0,054	0,184
-213,767	-200,000	-0,002	0,109
-212,752	800,000	0,061	-0,162
-211,738	-27,747	-0,070	-0,029
-210,723	759,192	-0,050	0,098
-209,709	-200,000	0,006	0,150
-208,694	-200,000	0,006	0,107
-207,679	683,426	0,035	-0,066
-206,665	216,582	0,033	-0,038
-205,650	-48,927	0,133	0,046
-204,636	-200,000	0,007	0,066
-203,621	-139,251	-0,045	-0,003
-202,606	123,627	-0,037	0,034
-201,592	-64,762	0,027	-0,008
-200,577	800,000	0,021	0,051
-199,563	76,572	-0,022	-0,017
-198,548	349,687	0,087	0,125
-197,533	-14,929	0,062	-0,029
-196,519	-41,170	-0,137	0,051
-195,504	364,227	0,018	-0,026
-194,490	114,099	-0,113	0,100
-193,475	-200,000	0,010	-0,077
-192,460	265,567	0,060	0,075
-191,446	800,000	0,033	0,094
-190,431	51,641	0,118	0,081
-189,417	-83,095	-0,091	-0,021
-188,402	-200,000	0,009	-0,082
-187,387	647,400	-0,061	-0,113
-186,373	77,947	-0,042	-0,032
-185,358	-67,222	0,184	0,052
-184,344	508,116	-0,039	0,065
-183,329	-200,000	0,014	0,062
-182,315	122,163	0,157	0,141
-181,300	-200,000	-0,015	-0,059
-180,285	-153,910	-0,113	0,005
-179,271	642,465	-0,026	0,047
-178,256	-87,927	-0,145	0,031
-177,242	-93,927	0,093	0,018
-176,227	-200,000	-0,016	0,179
-175,212	221,286	-0,030	0,035
-174,198	408,713	0,045	0,068
-173,183	-18,699	0,065	0,029
-172,169	-32,398	0,120	0,048
-171,154	44,557	-0,084	-0,055
-170,139	800,000	-0,027	0,060
-169,125	-200,000	-0,026	-0,096
-168,110	-200,000	-0,024	0,113
-167,096	-37,181	0,130	-0,050
-166,081	-42,143	-0,054	-0,020
-165,066	598,977	-0,069	0,123
-164,052	350,391	0,107	0,153
-163,037	36,350	-0,084	-0,053
-162,023	800,000	0,040	0,083
-161,008	-200,000	0,029	0,097
-159,993	268,672	0,028	0,036
-158,979	52,288	-0,060	-0,041
-157,964	488,445	-0,038	-0,063
-156,950	87,230	0,132	-0,105
-155,935	800,000	0,030	0,094
-154,920	-200,000	0,014	-0,044
-153,906	7,944	-0,062	0,033
-152,891	-17,409	-0,106	-0,048
-151,877	800,000	-0,020	-0,052
-150,862	289,347	-0,057	-0,074
-149,847	-82,886	-0,033	0,008
-148,833	167,968	-0,073	-0,074
-147,818	52,739	0,087	-0,060
-146,804	-15,372	0,032	0,015
-145,789	800,000	-0,049	0,111
-144,775	104,868	-0,165	-0,140
-143,760	-37,525	-0,025	0,009
-142,745	47,605	0,052	-0,035
-141,731	93,464	0,135	0,110
-140,716	-97,900	0,068	-0,012
-139,702	-200,000	-0,017	0,135
-138,687	-200,000	0,003	0,167
-137,672	408,120	0,034	0,052
-136,658	800,000	0,031	-0,062
-135,643	100,223	-0,076	0,064
-134,629	800,000	0,038	0,095
-133,614	-43,579	0,125	-0,045
-132,599	800,000	0,020	-0,059
-131,585	9,281	-0,170	0,092
-130,570	-135,939	-0,168	-0,014
-129,556	-200,000	-0,018	0,108
-128,541	-57,294	0,078	-0,025
-127,526	172,808	-0,036	0,037
-126,512	147,253	-0,097	-0,094
-125,497	659,734	0,063	0,116
-124,483	228,065	-0,105	0,123
-123,468	72,144	0,086	-0,065
-122,453	-200,000	0,011	0,043
-121,439	-200,000	0,012	0,062
-120,424	81,310	0,020	-0,016
-119,410	70,901	0,010	-0,007
-118,395	-35,792	-0,126	-0,049
-117,380	53,966	-0,046	0,032
-116,366	-145,357	-0,058	-0,004
-115,351	800,000	0,036	-0,085
-114,337	98,800	-0,091	0,075
-113,322	-200,000	-0,004	-0,049
-112,307	102,622	0,011	0,009
-111,293	458,171	0,025	0,041
-110,278	363,077	0,059	0,085
-109,264	118,934	-0,055	0,049
-108,249	-200,000	-0,036	-0,138
-107,234	115,835	0,064	0,057
-106,220	105,895	0,119	-0,101
-105,205	586,000	-0,009	0,016
-104,191	123,575	0,128	0,116
-103,176	730,638	0,080	0,155
-102,162	800,000	-0,029	0,070
-101,147	-200,000	-0,024	0,137
-100,132	-200,000	-0,017	0,060
-99,118	-91,326	-0,082	-0,017
-98,103	411,354	0,070	0,107
-97,089	120,802	0,091	0,081
-96,074	300,645	0,109	0,145
-95,059	-143,536	0,113	0,008
-94,045	-78,612	-0,123	-0,030
-93,030	187,464	-0,090	-0,096
-92,016	113,463	0,109	-0,095
-91,001	-200,000	0,006	0,148
-89,986	250,336	-0,059	-0,072
-88,972	-196,338	0,098	-0,000
-87,957	-200,000	-0,009	0,061
-86,943	152,017	0,050	-0,049
-85,928	800,000	-0,021	-0,052
-84,913	-158,105	-0,163	-0,007
-83,899	-124,902	-0,074	0,008
-82,884	-42,695	0,056	-0,020
-81,870	-115,514	0,078	0,010
-80,855	474,928	0,045	-0,074
-79,840	211,694	-0,041	-0,046
-78,826	800,000	-0,030	0,075
-77,811	435,357	0,051	0,079
-76,797	-14,534	0,127	0,058
-75,782	-200,000	0,001	-0,071
-74,767	-139,352	-0,168	-0,013
-73,753	112,593	-0,061	0,053
-72,738	146,645	0,081	-0,078
-71,724	800,000	-0,015	-0,034
-70,709	800,000	-0,056	-0,142
-69,694	267,519	0,037	0,046
-68,680	-41,078	0,073	-0,027
-67,665	-200,000	-0,015	0,055
-66,651	800,000	0,046	0,129
-65,636	800,000	-0,101	-0,228
-64,622	157,294	0,102	-0,101
-63,607	-200,000	-0,015	-0,064
-62,592	-45,943	-0,145	0,051
-61,578	-47,616	0,083	-0,029
-60,563	342,612	0,098	0,138
-59,549	-48,730	-0,130	0,044
-58,534	91,967	-2,605	-2,103
-57,519	-78,981	0,491	-0,119
-56,505	-200,000	-1,660	-5,465
-55,490	800,000	1,102	2,283
-54,476	800,000	5,329	11,324
-53,461	-200,000	22,798	347,864
-52,446	800,000	763,754	2273,678
-51,432	501,771	1645,619	2736,168
-50,417	94,203	1604,408	1305,328
-49,403	62,389	1261,196	902,017
-48,388	21,813	1012,871	590,319
-47,373	18,795	980,369	561,446
-46,359	12,201	967,328	532,493
-45,344	8,042	964,249	517,221
-44,330	8,443	962,021	517,309
-43,315	7,508	960,309	513,329
-42,300	7,434	959,177	512,462
-41,286	7,333	958,251	511,619
-40,271	7,392	957,121	511,188
-39,257	7,449	956,277	510,902
-38,242	7,385	955,504	510,261
-37,227	7,392	954,760	509,866
-36,213	7,348	954,001	509,297
-35,198	7,380	953,074	508,885
-34,184	7,479	952,278	508,759
-33,169	7,297	951,486	507,732
-32,154	7,488	950,384	507,736
-31,140	7,403	949,905	507,187
-30,125	7,382	949,087	506,662
-29,111	7,406	948,293	506,296
-28,096	7,470	947,518	506,066
-27,082	7,391	946,913	505,471
-26,067	7,391	946,148	505,043
-25,052	7,371	945,244	504,477
-24,038	7,360	944,670	504,113
-23,023	7,367	943,849	503,679
-22,009	7,393	943,521	503,568
-20,994	7,446	942,607	503,227
-19,979	7,404	941,896	502,694
-18,965	7,356	941,463	502,290
-17,950	7,402	940,714	502,018
-16,936	7,338	940,336	501,593
-15,921	7,325	939,663	501,171
-14,906	7,278	938,893	500,594
-13,892	7,322	938,221	500,355
-12,877	7,279	937,659	499,898
-11,863	7,227	937,150	499,443
-10,848	7,267	936,523	499,215
-9,833	7,381	936,052	499,305
-8,819	7,305	935,397	498,695
-7,804	7,268	934,777	498,228
-6,790	7,274	934,220	497,929
-5,775	7,341	933,525	497,751
-4,760	7,369	932,816	497,441
-3,746	7,298	932,343	496,946
-2,731	7,173	931,651	496,162
-1,717	7,111	931,245	495,732
-0,702	7,152	930,355	495,369
0,313	6,977	929,962	495,354
1,327	10,399	927,509	504,745
2,342	19,105	775,323	444,603
3,356	14,285	444,552	247,705
4,371	-11,449	310,225	145,708
5,386	-14,844	292,596	134,013
6,400	-17,048	286,727	129,148
7,415	-17,268	283,978	127,683
8,429	-18,129	282,112	126,001
9,444	-18,322	281,240	125,414
10,459	-18,274	280,630	125,177
11,473	-18,298	279,927	124,829
12,488	-18,223	279,388	124,650
13,502	-18,309	278,987	124,378
14,517	-18,340	278,485	124,113
15,531	-18,454	278,019	123,785
16,546	-18,407	277,660	123,660
17,561	-18,575	277,234	123,299
18,575	-18,379	276,922	123,335
19,590	-18,407	276,423	123,075
20,604	-18,390	276,323	123,036
21,619	-18,389	275,836	122,809
22,634	-18,444	275,501	122,597
23,648	-18,458	275,206	122,442
24,663	-18,455	274,991	122,338
25,677	-18,384	274,725	122,276
26,692	-18,491	274,435	122,035
27,707	-18,255	274,017	122,060
28,721	-18,542	273,915	121,734
29,736	-18,363	273,557	121,732
30,750	-18,409	273,332	121,578
31,765	-18,560	273,126	121,335
32,780	-18,308	272,812	121,419
33,794	-18,397	272,545	121,207
34,809	-18,401	272,243	121,059
35,823	-18,356	271,987	120,975
36,838	-18,390	271,771	120,836
37,853	-18,540	271,500	120,566
38,867	-18,467	271,361	120,561
39,882	-18,386	271,018	120,473
40,896	-18,402	270,865	120,379
41,911	-18,392	270,641	120,279
42,926	-18,295	270,300	120,206
43,940	-18,475	269,963	119,879
44,955	-18,411	269,868	119,885
45,969	-18,380	269,669	119,815
46,984	-18,402	269,409	119,669
47,999	-18,437	269,249	119,555
49,013	-18,407	269,003	119,463
50,028	-18,574	268,838	119,225
51,042	-18,444	268,533	119,198
52,057	-18,459	268,339	119,088
53,071	-18,393	268,085	119,025
54,086	-18,433	267,903	118,896
55,101	-18,419	267,739	118,826
56,115	-18,440	267,632	118,749
57,130	-18,315	267,347	118,726
58,144	-18,416	266,901	118,426
59,159	-18,362	266,732	118,389
60,174	-18,280	266,425	118,317
61,188	-18,348	266,250	118,167
62,203	-18,226	265,916	118,119
63,217	-18,228	265,714	118,017
64,232	-18,348	265,505	117,804
65,247	-18,490	265,409	117,623
66,261	-18,354	265,128	117,611
67,276	-18,410	264,875	117,438
68,290	-18,446	264,682	117,309
69,305	-18,338	264,475	117,304
70,320	-18,466	264,305	117,103
71,334	-18,495	263,988	116,926
72,349	-18,261	263,781	117,034
73,363	-18,339	263,553	116,852
74,378	-18,305	263,284	116,754
75,393	-18,416	263,068	116,548
76,407	-18,213	262,737	116,572
77,422	-18,225	262,562	116,474
78,436	-18,248	262,352	116,350
79,451	-18,362	262,255	116,195
80,466	-18,334	261,821	116,017
81,480	-18,501	261,849	115,870
82,495	-18,340	261,551	115,871
83,509	-18,361	261,271	115,718
84,524	-18,318	261,092	115,667
85,539	-18,349	260,807	115,502
86,553	-18,327	260,718	115,472
87,568	-18,431	260,451	115,252
88,582	-18,327	260,129	115,191
89,597	-18,315	260,104	115,180
90,611	-18,511	259,843	114,881
91,626	-18,259	259,640	115,004
92,641	-18,297	259,421	114,863
93,655	-18,268	259,166	114,765
94,670	-18,227	258,925	114,684
95,684	-18,391	258,766	114,459
96,699	-18,394	258,646	114,394
97,714	-18,137	258,313	114,462
98,728	-18,174	258,106	114,328
99,743	-18,208	257,857	114,178
100,757	-18,345	257,883	114,058
101,772	-18,404	257,644	113,891
102,787	-18,233	257,368	113,908
103,801	-18,345	257,243	113,744
104,816	-18,412	256,957	113,550
105,830	-18,204	256,896	113,694
106,845	-18,044	256,532	113,663
107,860	-18,273	256,556	113,464
108,874	-18,352	256,210	113,232
109,889	-18,247	256,019	113,228
110,903	-18,343	255,840	113,055
111,918	-18,257	255,688	113,053
112,933	-18,147	255,507	113,058
113,947	-18,150	255,216	112,917
114,962	-18,071	255,137	112,940
115,976	-18,419	254,916	112,531
116,991	-18,246	254,634	112,546
118,006	-18,394	254,518	112,357
119,020	-18,331	254,333	112,320
120,035	-18,295	254,246	112,302
121,049	-18,312	253,826	112,093
122,064	-18,193	253,803	112,175
123,079	-18,335	253,555	111,933
124,093	-18,194	253,314	111,938
125,108	-18,351	252,989	111,650
126,122	-18,124	252,926	111,807
127,137	-18,254	252,670	111,571
128,151	-18,233	252,528	111,517
129,166	-18,170	252,295	111,458
130,181	-18,187	252,092	111,344
131,195	-18,347	251,957	111,138
132,210	-18,224	251,635	111,090
133,224	-18,244	251,652	111,072
134,239	-18,146	251,260	110,971
135,254	-18,195	251,175	110,882
136,268	-18,332	250,905	110,637
137,283	-18,146	250,692	110,691
138,297	-18,277	250,492	110,482
139,312	-18,312	250,266	110,343
140,327	-18,335	250,118	110,248
141,341	-18,200	249,888	110,251
142,356	-18,196	249,862	110,233
143,370	-18,200	249,635	110,120
144,385	-18,106	249,465	110,115
145,400	-18,110	249,139	109,958
146,414	-18,179	249,078	109,862
147,429	-18,268	248,950	109,721
148,443	-18,148	248,620	109,667
149,458	-18,139	248,552	109,635
150,473	-18,009	248,298	109,622
151,487	-18,292	248,125	109,298
152,502	-18,224	247,962	109,274
153,516	-18,115	247,612	109,201
154,531	-18,314	247,663	109,047
155,546	-18,116	247,350	109,066
156,560	-18,246	247,321	108,934
157,575	-18,079	246,927	108,890
158,589	-18,283	246,709	108,614
159,604	-18,104	246,457	108,643
160,619	-18,052	246,568	108,726
161,633	-18,309	246,303	108,385
162,648	-18,059	246,165	108,523
163,662	-18,056	245,709	108,315
164,677	-18,094	245,716	108,277
165,692	-18,012	245,571	108,271
166,706	-18,096	245,388	108,111
167,721	-18,011	245,171	108,076
168,735	-18,265	245,066	107,810
169,750	-18,228	245,016	107,809
170,764	-18,146	244,743	107,747
171,779	-18,086	244,772	107,799
172,794	-17,992	244,365	107,688
173,808	-18,158	244,255	107,493
174,823	-18,251	244,151	107,362
175,837	-18,163	243,862	107,297
176,852	-18,171	243,745	107,230
177,867	-18,104	243,637	107,227
178,881	-18,063	243,332	107,117
179,896	-18,133	243,152	106,971
180,910	-18,131	243,052	106,919
181,925	-18,083	242,759	106,820
182,940	-17,810	242,553	106,943
183,954	-18,088	242,579	106,718
184,969	-18,115	242,396	106,605
185,983	-17,819	242,216	106,759
186,998	-17,989	242,051	106,537
188,013	-17,901	241,782	106,482
189,027	-17,899	241,580	106,384
190,042	-18,026	241,483	106,230
191,056	-17,935	241,344	106,233
192,071	-18,067	241,117	106,016
193,086	-18,070	240,945	105,928
194,100	-18,042	240,785	105,872
195,115	-17,813	240,569	105,953
196,129	-18,034	240,218	105,610
197,144	-17,821	240,156	105,746
198,159	-17,801	240,011	105,688
199,173	-18,109	239,946	105,401
200,188	-18,228	239,740	105,205
201,202	-18,093	239,463	105,183
202,217	-18,009	239,279	105,161
203,232	-17,997	239,138	105,099
204,246	-17,894	238,975	105,101
205,261	-17,758	238,944	105,187
206,275	-16,029	239,447	106,794
207,290	-10,676	241,236	111,927
208,304	-4,677	243,091	117,674
209,319	-2,886	243,554	119,349
210,334	-2,343	243,705	119,856
211,348	-1,267	243,708	120,725
212,363	-0,816	243,819	121,136
213,377	-0,246	243,735	121,548
214,392	0,202	243,917	121,993
215,407	0,613	243,761	122,239
216,421	0,809	243,675	122,344
217,436	0,980	243,481	122,375
218,450	0,856	243,516	122,281
219,465	0,973	243,232	122,222
220,480	1,058	243,069	122,198
221,494	0,772	242,982	121,912
222,509	0,552	242,562	121,512
223,523	0,659	242,473	121,543
224,538	0,515	242,290	121,324
225,553	0,281	242,120	121,039
226,567	0,390	241,916	121,015
227,582	0,354	241,808	120,920
228,596	0,417	241,737	120,925
229,611	0,432	241,426	120,771
230,626	0,374	241,269	120,635
231,640	0,179	241,027	120,346
232,655	0,357	241,005	120,468
233,669	0,171	240,890	120,250
234,684	0,261	240,698	120,216
235,699	0,588	240,401	120,319
236,713	0,399	240,319	120,115
237,728	0,360	240,357	120,092
238,742	0,391	239,980	119,918
239,757	0,343	239,902	119,830
240,772	0,309	239,694	119,688
241,786	0,309	239,547	119,605
242,801	0,303	239,388	119,510
243,815	0,252	239,171	119,350
244,830	0,066	239,156	119,183
245,844	0,278	238,922	119,225
246,859	0,409	238,648	119,182
247,874	0,294	238,536	119,024
248,888	0,374	238,504	119,061
249,903	0,576	238,323	119,120
250,917	0,355	238,141	118,844
251,932	0,453	237,980	118,830
252,947	0,463	237,878	118,777
253,961	0,255	237,727	118,526
254,976	0,122	237,596	118,345
255,990	0,461	237,417	118,513
257,005	0,405	237,291	118,396
258,020	0,343	237,068	118,225
259,034	0,351	236,791	118,082
260,049	0,399	236,734	118,081
261,063	0,337	236,560	117,934
262,078	0,352	236,553	117,933
263,093	0,421	236,272	117,836
264,107	0,286	236,171	117,669
265,122	0,270	236,025	117,574
266,136	0,492	235,743	117,597
267,151	0,370	235,725	117,482
268,166	0,482	235,630	117,511
269,180	0,456	235,246	117,289
270,195	0,391	235,266	117,238
271,209	0,374	235,077	117,120
272,224	0,200	234,971	116,920
273,239	0,241	234,799	116,857
274,253	0,344	234,741	116,898
275,268	0,275	234,502	116,714
276,282	0,416	234,241	116,684
277,297	0,340	234,180	116,584
278,312	0,189	234,143	116,438
279,326	0,374	233,986	116,493
280,341	0,508	233,858	116,524
281,355	0,437	233,661	116,360
282,370	0,380	233,365	116,158
283,384	0,520	233,277	116,212
284,399	0,278	233,304	116,027
285,414	0,512	233,078	116,085
286,428	0,292	232,924	115,828
287,443	0,429	232,728	115,827
288,457	0,510	232,486	115,759
289,472	0,382	232,395	115,604
290,487	0,495	232,202	115,585
291,501	0,357	232,203	115,468
292,516	0,518	232,060	115,511
293,530	0,363	231,886	115,295
294,545	0,652	231,742	115,435
295,560	0,558	231,601	115,282
296,574	0,458	231,578	115,184
297,589	0,528	231,262	115,070
298,603	0,624	231,096	115,051
299,618	0,557	231,017	114,950
300,633	0,572	230,820	114,853
301,647	0,676	230,700	114,863
302,662	0,674	230,529	114,766
303,676	0,513	230,237	114,488
304,691	0,610	230,129	114,497
305,706	0,751	230,054	114,558
306,720	0,775	229,877	114,478
307,735	0,641	229,938	114,396
308,749	0,572	229,555	114,143
309,764	0,490	229,562	114,073
310,779	0,595	229,360	114,042
311,793	0,836	228,925	113,998
312,808	0,456	229,107	113,791
313,822	0,635	228,900	113,814
314,837	0,707	228,722	113,769
315,852	0,456	228,687	113,551
316,866	0,714	228,539	113,663
317,881	0,702	228,367	113,559
318,895	0,850	228,068	113,512
319,910	0,699	228,009	113,358
320,925	0,685	227,855	113,260
321,939	0,460	227,772	113,040
322,954	0,612	227,763	113,140
323,968	0,634	227,502	113,017
324,983	0,564	227,347	112,877
325,997	0,625	227,244	112,862
327,012	0,460	227,042	112,627
328,027	0,685	226,951	112,741
329,041	1,002	226,719	112,854
330,056	0,687	226,665	112,580
331,070	0,570	226,442	112,372
332,085	0,879	226,202	112,474
333,100	0,668	226,315	112,362
334,114	0,437	226,007	112,027
335,129	0,694	225,781	112,097
336,143	0,564	225,610	111,905
337,158	0,768	225,668	112,076
338,173	0,612	225,627	111,929
339,187	1,021	225,383	112,102
340,202	1,018	225,223	112,011
341,216	0,816	225,126	111,803
342,231	0,850	224,816	111,664
343,246	0,944	224,735	111,683
344,260	0,885	224,652	111,588
345,275	0,962	224,466	111,543
346,289	0,828	224,364	111,383
347,304	1,007	224,156	111,402
348,319	0,949	223,919	111,232
349,333	0,895	223,807	111,126
350,348	0,797	223,697	110,989
351,362	0,975	223,508	111,017
352,377	0,925	223,374	110,904
353,392	0,910	223,467	110,929
354,406	0,783	223,201	110,694
355,421	190,915	1311,435	1372,103
356,435	152,810	1443,856	1371,936
