DTS Sentinel unit serial number:	SN410029Multiplexer serial number:	ORYXHardware model number:	OX2-SRSoftware version number:	ORYX F/W v4,00 Oryx Data Collector v3.7.2.0data status	okinstallation	B5 Nyhavnadifferential loss correction	single-endedforward channel	channel 2reverse channel	N/Adate	2023/12/13time	03:57:13forward acquisition time	300,00reverse acquisition time	0,00gamma	499,1914k internal	0,3159k external	0,3159temperature offset calibration	1,0000default loss term (dB/km)	0,3820temperature slope calibration	1,0000multiplexer offset coefficient	1,0000multiplexer slope coefficient	1,0000fibre end	0,00T internal ref (°C)	13,94T ext. ref 1 (°C)	-2,47T ext. ref 2 (°C)	-2,81length (m)	temperature (°C)	Stokes	anti-Stokes-744,400	-138,765	0,161	0,013
-743,385	-61,650	-0,237	-0,073
-742,371	464,920	0,062	0,103
-741,356	-146,224	-0,308	0,020
-740,342	222,835	0,065	-0,077
-739,327	-122,097	-0,358	-0,043
-738,312	7,487	0,120	-0,066
-737,298	-149,456	-0,375	-0,022
-736,283	113,313	0,165	0,148
-735,269	-73,273	-0,357	-0,096
-734,254	-145,297	0,247	0,016
-733,239	14,534	-0,559	-0,320
-732,225	22,670	0,075	0,045
-731,210	-60,147	0,032	0,010
-730,196	-200,000	-0,030	-0,114
-729,181	267,852	-0,066	-0,085
-728,167	-72,513	-0,025	0,007
-727,152	30,249	-0,044	-0,028
-726,137	363,475	-0,071	-0,105
-725,123	76,821	-0,099	0,077
-724,108	-133,182	-0,170	-0,016
-723,094	800,000	-0,026	-0,060
-722,079	800,000	-0,072	-0,204
-721,064	-99,276	-0,037	-0,007
-720,050	-200,000	-0,009	-0,117
-719,035	800,000	-0,008	-0,026
-718,021	159,810	0,015	0,015
-717,006	-26,791	-0,114	0,049
-715,991	114,603	-0,123	-0,110
-714,977	-24,493	0,122	-0,053
-713,962	-67,134	-0,058	-0,017
-712,948	-130,857	0,043	0,004
-711,933	-62,812	0,123	-0,037
-710,918	800,000	-0,022	-0,046
-709,904	52,321	-0,120	-0,084
-708,889	-101,259	-0,118	-0,021
-707,875	-46,061	-0,105	-0,038
-706,860	-60,174	-0,047	-0,015
-705,845	-60,240	0,070	-0,022
-704,831	-23,031	0,027	0,012
-703,816	800,000	0,049	-0,137
-702,802	608,747	0,048	-0,088
-701,787	-87,099	-0,119	-0,026
-700,772	10,625	0,082	-0,046
-699,758	-55,474	0,049	0,016
-698,743	800,000	-0,110	0,234
-697,729	800,000	0,030	0,064
-696,714	449,851	-0,073	-0,118
-695,699	800,000	-0,009	-0,024
-694,685	-200,000	0,014	-0,171
-693,670	-187,058	-0,022	-0,000
-692,656	-200,000	-0,006	0,031
-691,641	385,314	-0,037	0,056
-690,627	-200,000	-0,001	-0,062
-689,612	231,591	0,037	0,045
-688,597	-200,000	-0,037	0,188
-687,583	-74,478	0,081	-0,021
-686,568	297,921	0,038	0,052
-685,554	91,661	0,057	0,047
-684,539	221,142	-0,028	0,034
-683,524	0,585	0,120	-0,063
-682,510	377,600	-0,042	-0,064
-681,495	800,000	-0,004	0,008
-680,481	-76,229	-0,073	-0,019
-679,466	362,497	0,060	-0,089
-678,451	560,926	-0,013	-0,023
-677,437	-177,338	0,024	0,000
-676,422	678,453	0,035	0,067
-675,408	160,511	0,019	0,019
-674,393	5,813	-0,087	-0,047
-673,378	-200,000	-0,034	0,126
-672,364	173,862	-0,075	0,080
-671,349	356,359	-0,014	-0,021
-670,335	-22,460	-0,026	0,011
-669,320	-40,498	-0,123	0,047
-668,305	-200,000	0,023	0,121
-667,291	304,165	-0,035	-0,048
-666,276	-200,000	0,004	0,079
-665,262	-200,000	0,002	0,155
-664,247	-145,836	-0,070	0,004
-663,232	442,560	-0,032	0,052
-662,218	-114,340	0,136	-0,019
-661,203	796,902	-0,009	-0,019
-660,189	-23,733	0,046	0,020
-659,174	-123,397	-0,077	0,009
-658,159	55,894	0,058	0,041
-657,145	-170,199	-0,093	0,002
-656,130	82,574	0,033	0,026
-655,116	-137,042	-0,008	-0,001
-654,101	-200,000	0,006	0,074
-653,086	-81,787	-0,085	-0,020
-652,072	-86,885	0,093	0,021
-651,057	-200,000	-0,001	-0,026
-650,043	254,252	-0,046	-0,058
-649,028	570,306	-0,103	-0,184
-648,014	271,866	0,019	-0,024
-646,999	-200,000	-0,007	0,086
-645,984	407,797	0,045	0,070
-644,970	-63,002	-0,191	-0,057
-643,955	420,291	-0,046	-0,072
-642,941	-200,000	0,009	-0,140
-641,926	310,583	0,037	0,050
-640,911	800,000	0,023	-0,051
-639,897	-200,000	0,026	-0,132
-638,882	52,364	-0,083	0,058
-637,868	115,965	-0,019	-0,017
-636,853	-84,769	-0,052	-0,012
-635,838	249,453	0,036	0,045
-634,824	-200,000	0,016	-0,139
-633,809	-200,000	-0,003	0,117
-632,795	7,864	-0,083	0,046
-631,780	-46,616	0,161	-0,058
-630,765	-16,472	-0,062	0,029
-629,751	-200,000	0,002	-0,023
-628,736	17,232	0,043	-0,025
-627,722	-200,000	0,023	-0,134
-626,707	-72,634	0,059	-0,016
-625,692	367,908	0,087	-0,129
-624,678	-159,316	-0,094	-0,004
-623,663	-174,334	0,029	-0,001
-622,649	340,201	-0,031	-0,045
-621,634	510,262	-0,058	-0,099
-620,619	223,566	0,042	-0,050
-619,605	-200,000	0,014	0,078
-618,590	800,000	-0,022	0,053
-617,576	109,374	0,074	0,065
-616,561	-4,750	0,047	-0,024
-615,546	-93,851	-0,118	0,024
-614,532	-53,914	-0,163	-0,054
-613,517	-18,162	-0,129	-0,059
-612,503	800,000	0,033	-0,088
-611,488	-11,970	0,072	0,035
-610,474	-112,372	0,161	0,023
-609,459	277,998	-0,074	0,097
-608,444	800,000	-0,024	-0,058
-607,430	800,000	-0,010	-0,028
-606,415	-41,440	-0,062	0,023
-605,401	800,000	0,033	-0,105
-604,386	-79,721	0,241	-0,059
-603,371	75,036	-0,011	0,008
-602,357	194,056	-0,025	-0,027
-601,342	-67,628	0,154	-0,044
-600,328	-122,862	-0,227	-0,027
-599,313	423,392	0,066	-0,104
-598,298	-200,000	0,006	-0,193
-597,284	-25,088	0,052	-0,022
-596,269	800,000	0,046	0,118
-595,255	-200,000	-0,021	0,129
-594,240	393,419	0,052	-0,080
-593,225	-77,715	-0,101	0,025
-592,211	-50,854	-0,133	-0,046
-591,196	326,582	-0,057	-0,080
-590,182	188,068	-0,012	0,013
-589,167	69,688	0,070	0,053
-588,152	800,000	-0,012	0,031
-587,138	800,000	-0,041	-0,085
-586,123	-172,046	-0,070	0,002
-585,109	90,169	-0,023	-0,019
-584,094	-68,833	-0,077	0,022
-583,079	101,245	0,119	-0,102
-582,065	38,292	0,052	0,034
-581,050	800,000	0,006	-0,017
-580,036	-146,320	-0,027	-0,002
-579,021	-200,000	-0,004	-0,095
-578,006	495,522	-0,014	0,023
-576,992	-200,000	-0,015	-0,094
-575,977	471,285	-0,046	-0,077
-574,963	111,651	-0,081	0,072
-573,948	-200,000	-0,026	-0,164
-572,934	800,000	0,067	-0,168
-571,919	397,949	-0,055	-0,084
-570,904	-200,000	0,015	0,089
-569,890	20,267	0,100	0,059
-568,875	-200,000	0,016	-0,063
-567,861	-72,403	0,088	-0,024
-566,846	-200,000	0,032	0,107
-565,831	622,867	-0,024	0,044
-564,817	497,016	0,025	0,042
-563,802	-200,000	-0,008	-0,114
-562,788	-35,597	0,051	0,020
-561,773	-64,685	0,128	-0,038
-560,758	762,688	-0,009	-0,018
-559,744	172,375	0,035	0,037
-558,729	-200,000	-0,024	0,166
-557,715	77,279	-0,013	0,010
-556,700	-200,000	0,022	-0,156
-555,685	-17,756	0,050	0,023
-554,671	-159,649	0,031	-0,001
-553,656	104,250	-0,076	0,066
-552,642	-200,000	0,019	0,108
-551,627	146,291	0,143	0,140
-550,612	66,799	-0,069	-0,051
-549,598	-166,055	0,081	-0,002
-548,583	-200,000	0,000	-0,013
-547,569	-77,728	0,069	-0,017
-546,554	-200,000	-0,014	0,103
-545,539	-140,458	0,059	0,004
-544,525	66,654	0,010	-0,008
-543,510	-54,771	-0,131	-0,043
-542,496	169,268	-0,044	0,046
-541,481	-130,736	0,098	0,010
-540,466	-200,000	-0,091	0,000
-539,452	465,017	0,040	-0,066
-538,437	-200,000	-0,000	0,074
-537,423	-200,000	0,001	0,087
-536,408	302,333	-0,037	0,050
-535,393	-98,200	-0,077	-0,014
-534,379	21,417	-0,064	-0,038
-533,364	-200,000	0,003	-0,092
-532,350	800,000	-0,010	0,023
-531,335	51,897	0,090	0,063
-530,321	128,975	0,078	-0,073
-529,306	800,000	-0,069	0,156
-528,291	800,000	-0,013	-0,034
-527,277	-111,810	-0,080	0,012
-526,262	229,418	-0,050	0,060
-525,248	743,528	0,042	0,083
-524,233	11,115	-0,047	0,026
-523,218	-200,000	-0,003	-0,084
-522,204	-145,389	-0,156	0,010
-521,189	-200,000	0,018	-0,063
-520,175	800,000	-0,053	-0,111
-519,160	-38,866	0,018	0,007
-518,145	-160,883	0,010	0,000
-517,131	360,402	-0,045	0,065
-516,116	248,387	0,048	0,059
-515,102	-154,638	-0,088	-0,004
-514,087	800,000	0,032	0,072
-513,072	-68,894	-0,040	0,011
-512,058	-3,107	0,165	-0,084
-511,043	-36,581	-0,104	-0,040
-510,029	800,000	0,056	-0,152
-509,014	204,758	0,057	-0,065
-507,999	-66,438	0,144	-0,042
-506,985	251,286	-0,146	-0,182
-505,970	-200,000	0,006	-0,070
-504,956	274,311	0,042	-0,055
-503,941	-43,606	-0,028	0,010
-502,926	380,823	0,059	0,089
-501,912	-90,251	0,079	-0,017
-500,897	146,248	-0,035	-0,035
-499,883	-200,000	-0,006	-0,070
-498,868	130,364	-0,199	-0,186
-497,853	-200,000	0,001	0,039
-496,839	664,174	-0,043	-0,081
-495,824	-156,638	0,152	-0,007
-494,810	800,000	0,037	-0,116
-493,795	-200,000	0,009	-0,096
-492,781	-82,108	0,099	-0,023
-491,766	-200,000	0,010	0,083
-490,751	115,060	0,055	0,049
-489,737	201,627	0,101	0,114
-488,722	34,782	-0,059	-0,038
-487,708	-200,000	0,016	-0,100
-486,693	-87,502	-0,039	-0,009
-485,678	278,541	0,064	0,084
-484,664	36,418	-0,082	-0,053
-483,649	-200,000	0,013	-0,125
-482,635	127,454	-0,036	-0,033
-481,620	-0,667	0,026	0,013
-480,605	800,000	0,026	0,064
-479,591	-63,532	0,043	0,013
-478,576	569,842	0,063	0,112
-477,562	-92,547	-0,117	-0,024
-476,547	-200,000	0,008	-0,132
-475,532	3,643	0,209	0,111
-474,518	61,445	-0,102	0,074
-473,503	-200,000	0,002	0,059
-472,489	43,413	0,093	0,062
-471,474	-96,585	0,086	0,016
-470,459	427,850	-0,074	-0,117
-469,445	-200,000	0,004	-0,068
-468,430	-8,882	0,145	-0,070
-467,416	-31,505	-0,051	-0,021
-466,401	-29,193	-0,018	-0,007
-465,386	-200,000	0,019	0,115
-464,372	242,611	0,059	0,073
-463,357	-18,437	-0,115	0,052
-462,343	-200,000	0,002	-0,042
-461,328	-200,000	0,015	-0,081
-460,313	-200,000	-0,014	0,069
-459,299	59,303	-0,074	0,053
-458,284	-18,755	-0,056	-0,025
-457,270	338,924	0,017	-0,025
-456,255	265,651	0,074	0,095
-455,241	51,909	0,064	-0,045
-454,226	9,662	0,030	0,017
-453,211	-5,520	-0,013	0,007
-452,197	800,000	0,039	-0,092
-451,182	-163,705	-0,188	-0,006
-450,168	79,854	0,070	-0,054
-449,153	456,006	-0,056	-0,091
-448,138	-200,000	-0,016	0,093
-447,124	800,000	0,030	-0,067
-446,109	-38,866	0,077	-0,030
-445,095	-200,000	0,012	-0,114
-444,080	44,357	0,129	0,086
-443,065	133,042	-0,071	-0,067
-442,051	-200,000	-0,001	-0,071
-441,036	-48,467	-0,123	-0,043
-440,022	-73,023	0,045	-0,012
-439,007	800,000	0,011	0,024
-437,992	-200,000	0,013	0,081
-436,978	28,987	0,130	0,080
-435,963	-41,987	0,117	0,044
-434,949	-200,000	0,015	0,095
-433,934	63,740	-0,115	0,084
-432,919	-93,382	-0,042	-0,008
-431,905	360,588	0,043	0,063
-430,890	-137,018	0,116	0,010
-429,876	-200,000	-0,023	0,087
-428,861	-85,464	-0,116	0,026
-427,846	253,211	-0,019	0,023
-426,832	-82,825	-0,017	0,004
-425,817	-200,000	-0,002	0,048
-424,803	69,436	-0,055	-0,041
-423,788	-200,000	0,017	0,079
-422,773	-8,892	-0,082	0,040
-421,759	2,902	0,145	0,076
-420,744	728,034	0,023	-0,046
-419,730	-200,000	-0,005	0,025
-418,715	-200,000	-0,003	-0,093
-417,701	-62,471	-0,057	0,017
-416,686	800,000	-0,022	0,069
-415,671	523,339	-0,068	0,116
-414,657	11,729	-0,112	0,062
-413,642	-124,075	-0,066	-0,007
-412,628	-200,000	-0,069	-0,284
-411,613	513,241	0,023	-0,039
-410,598	-200,000	-0,004	0,089
-409,584	107,650	0,069	0,059
-408,569	4,805	0,074	0,040
-407,555	-200,000	0,019	0,070
-406,540	-124,325	-0,068	0,008
-405,525	370,611	-0,039	-0,058
-404,511	5,865	0,095	-0,051
-403,496	-173,201	0,060	0,001
-402,482	-91,446	-0,112	0,023
-401,467	-200,000	-0,004	0,203
-400,452	-20,140	0,091	0,041
-399,438	-200,000	0,000	0,043
-398,423	-200,000	-0,004	-0,050
-397,409	-84,234	-0,090	-0,021
-396,394	14,245	-0,107	-0,061
-395,379	-200,000	0,004	-0,060
-394,365	4,942	0,136	-0,072
-393,350	52,273	0,131	0,091
-392,336	-200,000	-0,028	0,102
-391,321	800,000	-0,045	0,122
-390,306	800,000	-0,020	0,061
-389,292	-28,635	0,048	0,020
-388,277	203,934	0,042	0,048
-387,263	-200,000	0,009	0,174
-386,248	350,335	0,018	0,026
-385,233	-134,879	-0,077	0,007
-384,219	253,986	0,023	-0,029
-383,204	203,373	-0,060	-0,067
-382,190	-97,467	0,128	-0,024
-381,175	45,593	-0,033	0,022
-380,160	-109,376	-0,058	0,009
-379,146	54,283	0,073	-0,051
-378,131	-172,392	0,084	0,002
-377,117	-200,000	0,023	0,130
-376,102	-34,692	-0,108	0,043
-375,088	800,000	0,060	-0,121
-374,073	-98,039	-0,118	-0,022
-373,058	12,072	0,050	0,028
-372,044	-55,759	0,068	0,022
-371,029	195,155	-0,064	0,070
-370,015	649,513	0,047	0,087
-369,000	800,000	0,016	-0,032
-367,985	159,862	-0,088	-0,089
-366,971	-123,898	0,143	-0,016
-365,956	800,000	0,039	-0,093
-364,942	27,228	0,043	0,026
-363,927	-11,880	-0,085	0,040
-362,912	800,000	-0,038	-0,103
-361,898	220,749	-0,042	0,049
-360,883	-200,000	0,014	-0,088
-359,869	-200,000	-0,031	-0,115
-358,854	-200,000	0,015	-0,051
-357,839	-200,000	0,035	0,143
-356,825	396,382	0,096	0,147
-355,810	-69,282	-0,162	0,045
-354,796	-5,325	0,026	0,013
-353,781	800,000	0,008	0,024
-352,766	266,405	0,035	-0,045
-351,752	-200,000	0,007	-0,080
-350,737	-122,314	0,160	0,019
-349,723	-200,000	-0,023	0,075
-348,708	33,187	-0,093	-0,058
-347,693	-21,379	-0,120	-0,053
-346,679	-200,000	0,010	-0,034
-345,664	-92,976	-0,110	0,022
-344,650	-103,573	0,137	0,023
-343,635	-62,467	0,126	0,038
-342,620	39,115	0,073	0,048
-341,606	-200,000	-0,010	0,058
-340,591	-106,738	0,051	0,008
-339,577	220,486	-0,085	-0,099
-338,562	237,496	0,086	0,103
-337,548	800,000	0,037	0,097
-336,533	-200,000	-0,012	0,111
-335,518	-97,016	0,064	-0,012
-334,504	123,847	-0,019	0,017
-333,489	204,715	-0,074	0,084
-332,475	-200,000	0,040	-0,169
-331,460	-200,000	-0,009	-0,070
-330,445	221,243	-0,031	-0,036
-329,431	800,000	0,009	-0,027
-328,416	-16,823	0,104	0,047
-327,402	800,000	0,042	0,129
-326,387	525,068	-0,067	0,115
-325,372	210,132	0,070	0,079
-324,358	-30,938	-0,178	-0,072
-323,343	-103,960	0,081	0,014
-322,329	16,949	-0,050	0,029
-321,314	-155,626	0,088	-0,004
-320,299	-139,021	-0,159	0,012
-319,285	37,845	0,060	-0,038
-318,270	800,000	-0,062	-0,191
-317,256	-79,626	-0,020	-0,005
-316,241	199,359	-0,026	-0,029
-315,226	-38,840	0,033	0,013
-314,212	-163,990	0,020	0,001
-313,197	-200,000	0,051	0,164
-312,183	160,888	0,080	0,081
-311,168	684,269	0,032	0,060
-310,153	800,000	-0,018	-0,053
-309,139	-22,206	-0,079	0,035
-308,124	438,958	0,065	0,103
-307,110	-200,000	-0,011	0,116
-306,095	-120,195	0,114	0,014
-305,080	33,916	-0,161	0,102
-304,066	247,611	-0,067	0,082
-303,051	56,191	-0,053	-0,037
-302,037	-57,810	-0,131	-0,041
-301,022	124,201	0,136	-0,124
-300,008	185,365	0,015	0,016
-298,993	-125,061	0,164	0,018
-297,978	19,982	0,096	-0,056
-296,964	-200,000	0,026	-0,106
-295,949	-200,000	0,011	-0,059
-294,935	-33,343	-0,058	0,023
-293,920	-200,000	-0,007	-0,066
-292,905	-38,857	-0,095	0,036
-291,891	-150,277	-0,047	-0,003
-290,876	486,216	0,071	0,117
-289,862	159,742	-0,055	0,055
-288,847	800,000	0,025	-0,075
-287,832	-200,000	-0,003	0,052
-286,818	800,000	-0,032	0,073
-285,803	117,766	0,052	-0,046
-284,789	-89,112	0,062	-0,013
-283,774	-200,000	-0,031	0,266
-282,759	363,304	0,077	-0,113
-281,745	-33,317	-0,048	0,019
-280,730	159,587	-0,041	0,041
-279,716	1,224	0,098	0,051
-278,701	-200,000	0,001	0,033
-277,686	654,869	-0,017	0,032
-276,672	414,246	-0,023	0,036
-275,657	23,809	0,089	0,053
-274,643	-200,000	0,002	-0,025
-273,628	344,692	0,042	-0,060
-272,613	-200,000	-0,037	-0,217
-271,599	629,760	-0,066	0,122
-270,584	128,737	0,128	0,118
-269,570	-98,098	0,113	-0,021
-268,555	457,565	-0,059	0,095
-267,540	96,225	-0,058	-0,048
-266,526	445,824	-0,092	-0,147
-265,511	-25,315	-0,052	-0,022
-264,497	-200,000	0,002	-0,069
-263,482	3,296	-0,088	-0,046
-262,467	-200,000	-0,006	-0,021
-261,453	608,456	-0,053	0,096
-260,438	800,000	-0,032	-0,091
-259,424	-107,225	0,029	0,005
-258,409	800,000	-0,060	-0,134
-257,395	180,016	0,082	-0,087
-256,380	388,298	-0,046	-0,068
-255,365	-200,000	0,008	-0,091
-254,351	-132,871	0,040	-0,004
-253,336	-200,000	0,025	-0,116
-252,322	-103,142	-0,077	-0,013
-251,307	-41,145	0,016	0,006
-250,292	7,743	-0,016	-0,008
-249,278	-200,000	0,030	0,124
-248,263	-200,000	-0,034	0,182
-247,249	491,779	0,072	-0,120
-246,234	27,075	-0,056	-0,034
-245,219	24,795	-0,087	0,052
-244,205	800,000	-0,038	-0,077
-243,190	117,140	0,122	-0,108
-242,176	-89,330	0,117	0,025
-241,161	-200,000	0,002	-0,011
-240,146	-65,890	-0,083	0,024
-239,132	81,248	-0,075	-0,059
-238,117	188,916	0,078	-0,085
-237,103	63,088	-0,099	-0,072
-236,088	578,985	-0,040	-0,071
-235,073	-200,000	-0,006	-0,051
-234,059	94,039	-0,128	0,105
-233,044	262,317	-0,056	0,071
-232,030	152,181	-0,031	-0,030
-231,015	-200,000	-0,004	-0,135
-230,000	800,000	-0,068	-0,144
-228,986	-200,000	-0,013	0,052
-227,971	88,188	-0,038	0,030
-226,957	-56,964	0,110	0,035
-225,942	107,892	-0,039	-0,034
-224,927	800,000	0,024	-0,073
-223,913	-61,215	-0,088	-0,027
-222,898	-22,018	-0,167	0,073
-221,884	-73,042	0,094	0,025
-220,869	800,000	-0,008	0,024
-219,855	285,063	0,044	0,057
-218,840	-120,916	0,064	-0,008
-217,825	211,495	-0,074	0,085
-216,811	181,324	-0,075	0,080
-215,796	800,000	0,042	0,105
-214,782	800,000	-0,006	-0,018
-213,767	-200,000	0,018	0,137
-212,752	0,440	0,072	0,037
-211,738	357,367	0,090	0,130
-210,723	-200,000	0,014	0,073
-209,709	-200,000	0,014	0,054
-208,694	-200,000	0,010	0,116
-207,679	-29,568	-0,022	0,009
-206,665	210,945	-0,014	0,016
-205,650	170,063	-0,085	-0,088
-204,636	-200,000	0,028	0,154
-203,621	-200,000	0,035	-0,134
-202,606	-22,177	-0,109	0,048
-201,592	65,941	0,103	-0,076
-200,577	-36,490	0,025	0,010
-199,563	800,000	0,050	0,117
-198,548	800,000	0,010	0,019
-197,533	3,523	-0,075	-0,039
-196,519	-65,090	-0,059	-0,017
-195,504	256,354	0,062	0,077
-194,490	800,000	0,081	-0,206
-193,475	290,649	0,074	-0,098
-192,460	170,857	0,080	-0,083
-191,446	-40,177	0,083	-0,031
-190,431	225,964	-0,038	0,045
-189,417	-126,177	0,131	-0,014
-188,402	-200,000	0,030	0,120
-187,387	-200,000	0,025	0,086
-186,373	-200,000	-0,009	-0,072
-185,358	-200,000	-0,003	0,027
-184,344	-200,000	-0,013	0,107
-183,329	-161,446	-0,099	-0,004
-182,315	13,136	0,042	-0,023
-181,300	-200,000	0,005	0,141
-180,285	262,922	-0,067	-0,084
-179,271	246,756	-0,063	-0,077
-178,256	212,455	0,007	0,008
-177,242	119,278	-0,106	0,094
-176,227	800,000	-0,026	-0,062
-175,212	250,613	0,111	0,137
-174,198	-200,000	-0,004	0,076
-173,183	226,034	-0,089	-0,105
-172,169	-200,000	0,005	-0,058
-171,154	-107,274	-0,091	-0,014
-170,139	-200,000	0,007	0,098
-169,125	789,027	0,033	0,066
-168,110	100,474	-0,052	0,044
-167,096	456,257	-0,096	0,154
-166,081	67,546	-0,049	-0,036
-165,066	278,733	-0,052	-0,067
-164,052	10,467	-0,156	-0,086
-163,037	144,715	0,073	-0,071
-162,023	-45,070	0,066	-0,024
-161,008	32,805	0,059	0,037
-159,993	333,167	-0,025	0,034
-158,979	91,649	-0,085	-0,069
-157,964	76,852	-0,097	-0,074
-156,950	800,000	-0,019	0,059
-155,935	539,075	-0,017	0,029
-154,920	-200,000	-0,008	0,157
-153,906	351,458	0,043	0,062
-152,891	-72,705	0,049	0,013
-151,877	-91,651	-0,003	0,001
-150,862	-97,933	-0,085	0,016
-149,847	-109,857	-0,111	-0,017
-148,833	8,021	0,110	-0,059
-147,818	-150,780	-0,106	0,006
-146,804	284,113	0,061	-0,080
-145,789	459,064	0,024	-0,038
-144,775	-65,385	-0,097	0,028
-143,760	156,007	-0,055	0,055
-142,745	-200,000	0,005	-0,125
-141,731	-200,000	0,006	0,076
-140,716	46,174	-0,078	0,052
-139,702	664,418	0,053	0,099
-138,687	182,365	-0,052	-0,056
-137,672	800,000	-0,041	-0,097
-136,658	211,179	-0,084	0,095
-135,643	-63,197	0,058	-0,017
-134,629	201,151	-0,061	-0,068
-133,614	800,000	-0,028	0,082
-132,599	-200,000	0,003	0,040
-131,585	-200,000	0,007	0,111
-130,570	199,073	-0,085	0,094
-129,556	-65,530	-0,065	-0,019
-128,541	-106,575	0,053	-0,008
-127,526	64,453	-0,042	0,030
-126,512	800,000	0,041	0,082
-125,497	800,000	-0,060	0,171
-124,483	-200,000	0,004	0,112
-123,468	-200,000	0,001	0,059
-122,453	-87,435	0,115	-0,025
-121,439	40,309	-0,106	-0,068
-120,424	-200,000	0,016	-0,055
-119,410	800,000	-0,013	-0,032
-118,395	48,969	-0,047	0,031
-117,380	599,273	-0,047	-0,084
-116,366	-200,000	-0,022	-0,103
-115,351	800,000	0,044	-0,098
-114,337	-3,445	0,064	0,032
-113,322	800,000	-0,026	0,069
-112,307	106,686	0,078	-0,066
-111,293	800,000	0,004	-0,011
-110,278	-32,429	-0,074	0,030
-109,264	-59,255	0,108	0,033
-108,249	65,316	-0,054	-0,039
-107,234	523,660	-0,060	-0,102
-106,220	-200,000	-0,016	-0,120
-105,205	-134,723	0,167	-0,014
-104,191	-115,052	-0,131	0,018
-103,176	-200,000	0,028	-0,099
-102,162	171,703	-0,124	-0,129
-101,147	83,783	0,079	0,062
-100,132	373,302	0,050	-0,073
-99,118	221,939	-0,042	-0,049
-98,103	-39,736	0,136	0,051
-97,089	-166,567	0,129	-0,004
-96,074	-200,000	0,010	0,120
-95,059	800,000	-0,060	0,132
-94,045	-106,912	-0,063	-0,010
-93,030	-141,064	-0,179	0,013
-92,016	-66,173	-0,027	0,008
-91,001	185,986	0,001	-0,001
-89,986	-123,808	-0,099	-0,011
-88,972	101,876	-0,102	0,086
-87,957	23,881	-0,131	-0,078
-86,943	67,176	0,095	-0,070
-85,928	-115,756	-0,087	-0,012
-84,913	-200,000	0,006	-0,077
-83,899	356,388	-0,030	-0,043
-82,884	284,778	0,130	0,169
-81,870	-82,730	0,110	-0,025
-80,855	-200,000	-0,007	0,085
-79,840	-27,677	-0,095	-0,040
-78,826	204,932	-0,061	0,068
-77,811	240,540	0,034	0,041
-76,797	49,653	0,042	0,029
-75,782	-71,087	-0,086	0,023
-74,767	333,831	0,091	0,127
-73,753	800,000	0,040	0,093
-72,738	-200,000	-0,006	-0,058
-71,724	80,984	0,030	-0,023
-70,709	222,142	-0,015	0,018
-69,694	-85,659	0,092	-0,020
-68,680	-47,076	0,073	0,026
-67,665	709,002	-0,038	-0,073
-66,651	800,000	0,046	-0,094
-65,636	-45,889	0,074	0,026
-64,622	-200,000	0,014	0,045
-63,607	118,474	-0,065	-0,058
-62,592	-200,000	0,007	0,082
-61,578	-93,979	-0,125	0,024
-60,563	-200,000	-0,014	0,078
-59,549	800,000	-0,044	0,095
-58,534	-12,599	-2,294	-1,070
-57,519	-200,000	-0,141	-0,740
-56,505	-200,000	-1,308	-5,032
-55,490	145,357	0,818	0,786
-54,476	800,000	5,324	11,997
-53,461	-200,000	18,614	311,547
-52,446	800,000	739,919	2318,618
-51,432	556,744	1655,994	2873,516
-50,417	110,689	1640,460	1414,903
-49,403	74,991	1290,024	973,703
-48,388	30,426	1030,814	630,342
-47,373	20,033	993,178	572,914
-46,359	17,606	981,002	557,882
-45,344	14,296	977,047	544,735
-44,330	14,627	975,503	544,939
-43,315	14,028	973,491	541,832
-42,300	13,907	972,713	540,979
-41,286	13,961	971,699	540,571
-40,271	14,000	970,704	540,122
-39,257	13,896	970,031	539,386
-38,242	13,962	969,002	539,010
-37,227	14,030	968,078	538,695
-36,213	13,906	967,244	537,806
-35,198	13,930	966,252	537,313
-34,184	13,979	965,577	537,073
-33,169	13,916	964,584	536,295
-32,154	13,964	963,723	535,951
-31,140	14,003	962,678	535,476
-30,125	13,992	962,083	535,087
-29,111	14,005	961,162	534,598
-28,096	13,982	960,684	534,234
-27,082	14,010	959,824	533,827
-26,067	13,993	959,214	533,409
-25,052	13,980	958,473	532,935
-24,038	13,972	957,526	532,363
-23,023	13,904	957,100	531,885
-22,009	13,960	956,313	531,607
-20,994	13,968	955,699	531,268
-19,979	14,042	955,080	531,142
-18,965	13,918	954,670	530,496
-17,950	14,060	953,786	530,437
-16,936	13,978	953,335	529,905
-15,921	13,916	952,653	529,304
-14,906	13,908	951,684	528,719
-13,892	13,888	951,252	528,396
-12,877	13,879	950,532	527,946
-11,863	13,832	949,838	527,388
-10,848	13,861	949,335	527,181
-9,833	13,940	948,914	527,180
-8,819	13,951	948,075	526,728
-7,804	13,833	947,590	526,061
-6,790	13,885	946,904	525,822
-5,775	13,882	946,518	525,580
-4,760	13,892	945,842	525,213
-3,746	13,886	945,075	524,748
-2,731	13,699	944,651	523,897
-1,717	13,736	943,930	523,595
-0,702	13,770	943,203	523,278
0,313	13,513	942,436	522,829
1,327	16,752	940,132	531,748
2,342	25,530	795,745	473,403
3,356	22,267	460,094	268,688
4,371	-4,629	317,214	156,390
5,386	-8,620	299,047	143,343
6,400	-10,619	292,822	138,344
7,415	-10,777	290,329	136,997
8,429	-11,082	288,789	135,957
9,444	-11,137	287,812	135,430
10,459	-11,049	287,132	135,185
11,473	-11,340	286,788	134,725
12,488	-11,348	286,324	134,488
13,502	-11,189	285,804	134,387
14,517	-11,118	285,291	134,203
15,531	-11,157	284,820	133,932
16,546	-11,108	284,496	133,815
17,561	-11,148	283,832	133,452
18,575	-11,123	283,650	133,379
19,590	-11,126	283,271	133,186
20,604	-11,167	283,002	133,008
21,619	-11,292	282,700	132,733
22,634	-11,200	282,212	132,580
23,648	-11,175	281,937	132,464
24,663	-11,178	281,654	132,316
25,677	-11,261	281,379	132,095
26,692	-11,053	281,173	132,187
27,707	-11,068	280,737	131,956
28,721	-11,307	280,602	131,651
29,736	-11,254	280,431	131,610
30,750	-11,227	280,099	131,469
31,765	-11,218	279,854	131,350
32,780	-11,151	279,502	131,238
33,794	-11,264	279,389	131,064
34,809	-11,167	279,097	131,009
35,823	-11,151	278,806	130,875
36,838	-11,187	278,509	130,690
37,853	-11,169	278,262	130,580
38,867	-11,161	277,966	130,437
39,882	-11,429	277,931	130,155
40,896	-11,301	277,510	130,067
41,911	-11,131	277,305	130,120
42,926	-11,095	277,009	130,003
43,940	-11,108	276,767	129,867
44,955	-11,463	276,615	129,448
45,969	-11,308	276,230	129,402
46,984	-11,442	276,021	129,167
47,999	-11,565	275,666	128,874
49,013	-11,682	275,520	128,684
50,028	-11,731	275,266	128,508
51,042	-11,703	274,835	128,322
52,057	-11,943	274,543	127,949
53,071	-11,692	274,442	128,125
54,086	-11,835	274,297	127,913
55,101	-11,760	274,232	127,941
56,115	-11,463	274,024	128,110
57,130	-11,329	273,895	128,164
58,144	-11,134	273,628	128,209
59,159	-11,151	273,450	128,097
60,174	-11,233	273,131	127,861
61,188	-11,220	272,940	127,772
62,203	-11,147	272,752	127,741
63,217	-11,153	272,531	127,620
64,232	-11,204	272,318	127,462
65,247	-11,225	272,158	127,357
66,261	-11,310	271,730	127,066
67,276	-11,352	271,410	126,866
68,290	-11,549	271,329	126,635
69,305	-11,569	271,034	126,467
70,320	-11,188	270,727	126,664
71,334	-11,249	270,811	126,636
72,349	-11,082	270,411	126,591
73,363	-11,115	270,240	126,469
74,378	-10,961	270,000	126,487
75,393	-11,117	269,783	126,232
76,407	-11,137	269,735	126,179
77,422	-11,136	269,475	126,047
78,436	-11,186	269,193	125,858
79,451	-11,127	268,975	125,799
80,466	-11,247	268,600	125,503
81,480	-11,460	268,523	125,262
82,495	-11,359	268,291	125,234
83,509	-11,381	268,228	125,173
84,524	-11,444	267,897	124,950
85,539	-11,507	267,637	124,761
86,553	-11,471	267,532	124,733
87,568	-11,360	267,306	124,717
88,582	-11,445	266,988	124,481
89,597	-11,386	266,948	124,505
90,611	-11,140	266,692	124,597
91,626	-10,891	266,395	124,672
92,641	-11,128	266,296	124,401
93,655	-11,188	266,118	124,253
94,670	-11,347	265,909	124,000
95,684	-11,190	265,501	123,940
96,699	-11,168	265,474	123,937
97,714	-11,236	265,321	123,793
98,728	-11,602	264,991	123,298
99,743	-11,525	264,684	123,214
100,757	-11,602	264,649	123,117
101,772	-11,378	264,245	123,119
102,787	-11,282	264,282	123,211
103,801	-11,309	263,989	123,039
104,816	-11,294	263,888	122,996
105,830	-11,016	263,614	123,106
106,845	-11,036	263,458	123,004
107,860	-11,286	263,204	122,651
108,874	-11,319	263,124	122,573
109,889	-11,203	262,856	122,541
110,903	-11,211	262,631	122,418
111,918	-11,151	262,414	122,359
112,933	-11,069	262,176	122,310
113,947	-11,012	262,113	122,320
114,962	-11,179	261,923	122,073
115,976	-11,236	261,633	121,876
116,991	-10,878	261,318	122,036
118,006	-11,385	261,342	121,587
119,020	-11,140	261,134	121,696
120,035	-11,245	261,027	121,543
121,049	-11,017	260,717	121,589
122,064	-10,824	260,466	121,630
123,079	-11,058	260,350	121,360
124,093	-11,076	260,083	121,209
125,108	-11,319	259,762	120,834
126,122	-11,507	259,547	120,558
127,137	-11,700	259,478	120,346
128,151	-11,525	259,173	120,348
129,166	-11,140	259,029	120,607
130,181	-11,472	258,978	120,282
131,195	-11,655	258,683	119,974
132,210	-11,413	258,499	120,089
133,224	-10,995	258,298	120,351
134,239	-11,165	258,259	120,173
135,254	-11,066	258,074	120,163
136,268	-11,219	257,782	119,883
137,283	-11,375	257,610	119,656
138,297	-11,226	257,175	119,573
139,312	-11,542	257,073	119,240
140,327	-11,198	256,812	119,408
141,341	-11,005	256,835	119,575
142,356	-11,105	256,790	119,457
143,370	-11,112	256,557	119,331
144,385	-11,043	256,412	119,313
145,400	-11,118	256,074	119,080
146,414	-10,781	255,920	119,290
147,429	-10,970	255,612	118,972
148,443	-10,790	255,491	119,061
149,458	-10,932	255,408	118,889
150,473	-11,032	255,439	118,806
151,487	-11,096	255,016	118,544
152,502	-10,780	254,769	118,690
153,516	-11,038	254,592	118,375
154,531	-10,981	254,548	118,394
155,546	-10,727	254,173	118,426
156,560	-10,940	254,028	118,166
157,575	-11,017	253,941	118,049
158,589	-11,096	253,658	117,838
159,604	-10,932	253,397	117,847
160,619	-10,991	253,332	117,756
161,633	-10,905	253,206	117,761
162,648	-10,969	253,097	117,645
163,662	-11,076	252,932	117,466
164,677	-11,027	252,726	117,402
165,692	-10,725	252,552	117,569
166,706	-10,984	252,395	117,264
167,721	-11,012	252,230	117,153
168,735	-10,829	251,970	117,178
169,750	-10,931	251,873	117,035
170,764	-10,768	251,845	117,150
171,779	-10,871	251,609	116,942
172,794	-10,643	251,323	116,992
173,808	-11,060	251,141	116,544
174,823	-11,358	250,862	116,152
175,837	-11,524	250,757	115,952
176,852	-11,213	250,681	116,170
177,867	-10,758	250,390	116,409
178,881	-10,795	250,330	116,340
179,896	-10,839	250,204	116,234
180,910	-10,858	249,959	116,093
181,925	-10,970	249,895	115,959
182,940	-10,985	249,656	115,825
183,954	-10,937	249,494	115,780
184,969	-10,990	249,355	115,661
185,983	-10,872	249,163	115,660
186,998	-10,756	248,914	115,631
188,013	-10,703	248,891	115,655
189,027	-10,749	248,600	115,471
190,042	-10,946	248,450	115,226
191,056	-10,940	248,188	115,099
192,071	-11,007	248,104	114,994
193,086	-10,876	247,897	114,998
194,100	-10,789	247,611	114,927
195,115	-10,917	247,520	114,768
196,129	-10,845	247,198	114,668
197,144	-10,826	247,085	114,621
198,159	-10,921	246,884	114,439
199,173	-10,807	246,782	114,476
200,188	-10,977	246,656	114,266
201,202	-11,123	246,327	113,983
202,217	-11,475	246,081	113,568
203,232	-11,531	245,960	113,455
204,246	-11,155	245,991	113,770
205,261	-10,700	245,680	113,992
206,275	-11,612	245,322	113,064
207,290	-7,868	246,864	116,870
208,304	0,235	249,677	124,971
209,319	4,311	250,638	128,851
210,334	4,705	250,526	129,111
211,348	4,849	250,508	129,210
212,363	4,894	250,333	129,146
213,377	5,159	250,309	129,343
214,392	5,025	250,176	129,151
215,407	4,820	250,056	128,907
216,421	4,949	249,688	128,813
217,436	5,051	249,586	128,833
218,450	5,238	249,527	128,947
219,465	4,894	249,225	128,494
220,480	4,677	249,026	128,200
221,494	4,517	248,899	127,991
222,509	4,704	248,757	128,061
223,523	4,625	248,427	127,814
224,538	4,251	248,235	127,395
225,553	4,330	248,134	127,398
226,567	4,645	247,945	127,549
227,582	4,777	247,804	127,574
228,596	4,517	247,604	127,245
229,611	4,270	247,344	126,897
230,626	4,156	247,287	126,763
231,640	4,259	247,025	126,702
232,655	4,407	246,834	126,714
233,669	4,433	246,722	126,666
234,684	4,101	246,545	126,292
235,699	4,368	246,578	126,517
236,713	4,654	246,362	126,629
237,728	4,395	246,168	126,306
238,742	4,270	245,952	126,082
239,757	4,263	245,701	125,936
240,772	4,128	245,654	125,791
241,786	4,360	245,472	125,875
242,801	4,260	245,212	125,650
243,815	4,218	245,220	125,608
244,830	4,351	245,106	125,647
245,844	4,625	244,887	125,746
246,859	4,472	244,720	125,525
247,874	4,179	244,526	125,176
248,888	4,273	244,244	125,097
249,903	4,524	244,169	125,251
250,917	4,512	244,071	125,180
251,932	4,665	244,140	125,328
252,947	4,530	243,818	125,042
253,961	4,398	243,531	124,777
254,976	4,432	243,441	124,748
255,990	4,486	243,373	124,745
257,005	4,464	243,090	124,571
258,020	4,165	242,868	124,205
259,034	4,215	242,728	124,163
260,049	4,354	242,808	124,305
261,063	4,476	242,368	124,167
262,078	4,177	242,352	123,907
263,093	4,128	242,316	123,838
264,107	4,555	242,112	124,066
265,122	4,297	241,890	123,734
266,136	4,571	241,867	123,930
267,151	4,695	241,655	123,911
268,166	4,193	241,424	123,379
269,180	4,140	241,241	123,232
270,195	4,888	241,211	123,804
271,209	4,894	241,191	123,787
272,224	4,411	240,882	123,232
273,239	3,981	240,616	122,743
274,253	4,137	240,443	122,768
275,268	4,566	240,233	122,990
276,282	4,625	240,128	122,973
277,297	4,191	239,983	122,542
278,312	4,112	239,984	122,469
279,326	4,433	239,723	122,580
280,341	4,366	239,588	122,447
281,355	4,320	239,511	122,360
282,370	4,386	239,374	122,332
283,384	4,387	239,099	122,181
284,399	4,221	238,754	121,863
285,414	4,033	238,717	121,684
286,428	4,107	238,558	121,651
287,443	4,379	238,443	121,796
288,457	4,320	238,469	121,752
289,472	4,504	238,188	121,742
290,487	4,497	238,012	121,636
291,501	4,181	237,968	121,354
292,516	4,181	237,648	121,180
293,530	4,094	237,462	121,006
294,545	4,121	237,563	121,068
295,560	4,528	237,250	121,217
296,574	4,111	237,003	120,753
297,589	4,268	236,963	120,845
298,603	4,468	236,939	120,978
299,618	4,456	236,629	120,800
300,633	4,533	236,662	120,866
301,647	4,463	236,687	120,814
302,662	4,861	236,469	121,003
303,676	4,780	236,272	120,828
304,691	4,501	236,081	120,502
305,706	4,975	235,869	120,752
306,720	4,691	235,861	120,516
307,735	4,754	235,634	120,439
308,749	4,579	235,508	120,227
309,764	4,257	235,227	119,823
310,779	4,232	234,857	119,604
311,793	4,014	234,658	119,323
312,808	4,012	234,744	119,354
313,822	4,145	234,438	119,291
314,837	4,263	234,391	119,348
315,852	3,847	234,179	118,908
316,866	4,380	234,114	119,276
317,881	4,450	233,948	119,236
318,895	4,020	233,846	118,841
319,910	4,309	233,726	118,992
320,925	4,451	233,607	119,030
321,939	4,431	233,401	118,899
322,954	4,560	233,302	118,937
323,968	4,759	233,137	118,996
324,983	4,538	232,991	118,741
325,997	4,541	233,072	118,774
327,012	4,616	232,811	118,688
328,027	4,387	232,607	118,398
329,041	4,442	232,575	118,413
330,056	4,813	232,501	118,649
331,070	5,069	232,298	118,731
332,085	4,724	232,031	118,320
333,100	4,569	231,859	118,103
334,114	4,546	231,659	117,974
335,129	4,854	231,613	118,175
336,143	4,807	231,474	118,057
337,158	4,719	231,354	117,919
338,173	4,454	231,143	117,599
339,187	4,450	230,893	117,458
340,202	4,612	230,860	117,554
341,216	4,506	230,650	117,356
342,231	4,524	230,528	117,297
343,246	4,463	230,484	117,218
344,260	4,745	230,301	117,328
345,275	4,715	230,170	117,228
346,289	4,704	230,089	117,168
347,304	4,873	229,826	117,151
348,319	5,038	229,753	117,229
349,333	4,639	229,413	116,744
350,348	4,570	229,195	116,570
351,362	4,613	229,180	116,585
352,377	4,211	229,057	116,208
353,392	4,215	228,694	116,017
354,406	4,253	228,686	116,031
355,421	195,630	1318,943	1395,000
356,435	156,915	1451,736	1394,969
