DTS Sentinel unit serial number:	SN410029Multiplexer serial number:	ORYXHardware model number:	OX2-SRSoftware version number:	ORYX F/W v4,00 Oryx Data Collector v3.7.2.0data status	okinstallation	B5 Nyhavnadifferential loss correction	single-endedforward channel	channel 2reverse channel	N/Adate	2023/12/14time	15:32:13forward acquisition time	300,00reverse acquisition time	0,00gamma	499,1914k internal	0,3157k external	0,3157temperature offset calibration	1,0000default loss term (dB/km)	0,3820temperature slope calibration	1,0000multiplexer offset coefficient	1,0000multiplexer slope coefficient	1,0000fibre end	0,00T internal ref (°C)	7,88T ext. ref 1 (°C)	-8,22T ext. ref 2 (°C)	-8,25length (m)	temperature (°C)	Stokes	anti-Stokes-744,400	104,060	0,053	0,046
-743,385	-74,592	-0,454	-0,120
-742,371	102,579	0,106	-0,092
-741,356	-116,056	-0,468	-0,064
-740,342	346,816	0,103	0,150
-739,327	-70,589	-0,389	-0,108
-738,312	-13,537	0,244	0,116
-737,298	-129,869	-0,291	-0,029
-736,283	-63,334	0,279	-0,084
-735,269	-92,958	-0,200	0,041
-734,254	780,591	0,108	0,220
-733,239	-34,093	-0,545	-0,220
-732,225	33,198	0,183	0,117
-731,210	-44,384	0,086	0,032
-730,196	558,907	0,022	-0,039
-729,181	-45,865	-0,127	-0,046
-728,167	800,000	-0,026	-0,054
-727,152	-200,000	-0,005	-0,046
-726,137	85,067	-0,217	-0,175
-725,123	800,000	0,026	0,074
-724,108	800,000	-0,100	-0,210
-723,094	95,413	-0,043	-0,036
-722,079	93,216	0,059	-0,049
-721,064	104,648	-0,088	-0,076
-720,050	-91,594	-0,055	-0,011
-719,035	420,381	-0,031	-0,049
-718,021	691,919	0,011	0,021
-717,006	-92,295	-0,078	-0,016
-715,991	95,132	0,073	-0,061
-714,977	800,000	0,030	0,067
-713,962	-27,159	0,011	0,005
-712,948	451,163	-0,063	-0,102
-711,933	10,499	0,041	0,023
-710,918	-165,022	-0,023	0,001
-709,904	40,525	-0,206	-0,136
-708,889	-200,000	-0,004	0,084
-707,875	641,491	-0,012	-0,023
-706,860	800,000	0,038	0,093
-705,845	-200,000	-0,021	0,105
-704,831	-200,000	-0,011	-0,069
-703,816	-200,000	-0,004	-0,026
-702,802	246,793	0,051	0,063
-701,787	20,578	-0,034	0,020
-700,772	-80,545	-0,043	0,011
-699,758	153,324	0,075	0,076
-698,743	800,000	-0,041	0,084
-697,729	-200,000	-0,027	0,102
-696,714	800,000	0,064	0,141
-695,699	-35,755	-0,076	0,030
-694,685	48,635	-0,151	-0,104
-693,670	24,238	0,102	-0,062
-692,656	37,193	0,083	-0,054
-691,641	-80,620	0,122	0,030
-690,627	-37,269	0,103	0,040
-689,612	-97,782	-0,117	0,022
-688,597	-28,877	-0,049	-0,021
-687,583	-200,000	0,016	-0,088
-686,568	-200,000	0,001	-0,056
-685,554	-24,615	0,060	-0,026
-684,539	-111,307	0,046	0,007
-683,524	-135,375	0,170	-0,015
-682,510	800,000	-0,023	0,050
-681,495	-200,000	-0,031	-0,160
-680,481	-51,388	0,026	-0,009
-679,466	-141,455	-0,081	-0,006
-678,451	497,195	0,010	0,017
-677,437	-9,959	0,032	0,016
-676,422	-200,000	0,004	-0,014
-675,408	800,000	0,011	0,029
-674,393	800,000	-0,060	0,133
-673,378	-6,085	0,031	0,015
-672,364	16,425	0,015	0,009
-671,349	-200,000	0,006	0,027
-670,335	68,697	0,070	-0,053
-669,320	-200,000	-0,004	0,045
-668,305	216,132	-0,036	0,042
-667,291	-152,308	-0,110	-0,006
-666,276	100,995	0,044	-0,038
-665,262	-125,211	-0,170	-0,019
-664,247	226,455	-0,048	0,057
-663,232	-144,833	-0,075	-0,005
-662,218	647,797	0,039	0,074
-661,203	-75,356	-0,037	-0,010
-660,189	100,425	-0,083	0,071
-659,174	800,000	0,020	0,062
-658,159	-200,000	-0,001	-0,039
-657,145	-144,717	0,072	-0,005
-656,130	-88,358	0,074	0,016
-655,116	313,779	-0,056	-0,078
-654,101	-200,000	0,018	-0,098
-653,086	-200,000	-0,003	0,160
-652,072	-200,000	-0,016	-0,095
-651,057	-200,000	0,024	-0,096
-650,043	244,402	-0,107	-0,133
-649,028	213,001	-0,099	0,115
-648,014	641,550	-0,032	-0,060
-646,999	658,910	-0,036	-0,069
-645,984	-107,602	0,109	-0,017
-644,970	-48,865	0,030	0,011
-643,955	-139,656	-0,035	-0,003
-642,941	396,452	0,101	0,155
-641,926	800,000	-0,049	-0,105
-640,911	-200,000	0,012	-0,106
-639,897	271,477	-0,034	0,044
-638,882	-106,052	0,078	0,013
-637,868	-31,912	-0,083	0,034
-636,853	-80,524	-0,143	0,035
-635,838	-27,923	0,106	0,045
-634,824	800,000	0,025	0,082
-633,809	151,293	-0,024	0,024
-632,795	31,300	-0,009	-0,006
-631,780	-181,969	0,165	0,002
-630,765	-28,301	-0,215	0,091
-629,751	683,680	-0,029	-0,056
-628,736	-108,525	-0,295	-0,046
-627,722	800,000	0,046	-0,127
-626,707	256,990	0,006	-0,007
-625,692	800,000	-0,065	0,163
-624,678	186,376	-0,091	-0,100
-623,663	408,941	-0,066	-0,103
-622,649	-192,019	-0,146	-0,001
-621,634	255,777	-0,094	-0,119
-620,619	-118,149	-0,077	0,010
-619,605	442,083	0,028	-0,045
-618,590	96,401	-0,066	0,056
-617,576	-200,000	0,045	-0,151
-616,561	800,000	-0,037	-0,097
-615,546	304,600	-0,033	0,045
-614,532	-16,751	-0,107	0,050
-613,517	-108,423	-0,032	0,005
-612,503	-108,740	0,142	0,022
-611,488	800,000	-0,027	-0,074
-610,474	-106,039	0,048	-0,008
-609,459	-200,000	-0,023	0,113
-608,444	453,199	-0,086	-0,140
-607,430	-200,000	0,001	-0,011
-606,415	-124,873	-0,106	-0,012
-605,401	-200,000	-0,005	-0,040
-604,386	20,317	0,147	-0,087
-603,371	-149,295	-0,151	-0,009
-602,357	201,298	-0,079	-0,090
-601,342	74,767	-0,062	-0,048
-600,328	132,886	0,099	-0,094
-599,313	-200,000	0,011	0,068
-598,298	220,641	-0,126	0,149
-597,284	246,464	0,019	0,024
-596,269	215,455	-0,049	0,057
-595,255	98,810	-0,141	-0,120
-594,240	-200,000	-0,002	-0,081
-593,225	-145,027	-0,054	0,004
-592,211	639,629	-0,069	-0,130
-591,196	800,000	0,009	-0,022
-590,182	531,481	0,056	-0,097
-589,167	-17,916	0,063	-0,029
-588,152	-106,375	-0,041	0,007
-587,138	-112,978	-0,073	-0,010
-586,123	86,477	-0,064	0,052
-585,109	-49,143	-0,085	0,029
-584,094	105,557	-0,101	-0,087
-583,079	-93,919	0,167	0,033
-582,065	-200,000	-0,003	0,038
-581,050	800,000	-0,040	-0,116
-580,036	290,068	0,083	-0,111
-579,021	-25,177	-0,049	0,021
-578,006	-200,000	0,006	0,073
-576,992	-42,226	0,134	-0,050
-575,977	223,577	0,035	0,042
-574,963	-188,482	0,119	0,001
-573,948	467,345	-0,073	-0,120
-572,934	-66,348	-0,045	-0,013
-571,919	89,634	0,009	0,007
-570,904	14,755	-0,112	-0,064
-569,890	-50,613	-0,112	-0,038
-568,875	247,025	0,108	0,134
-567,861	-12,417	-0,095	0,045
-566,846	-159,507	0,059	0,002
-565,831	-59,205	0,084	0,026
-564,817	54,463	0,043	-0,030
-563,802	12,130	-0,192	-0,108
-562,788	-142,076	0,038	-0,003
-561,773	76,944	-0,018	-0,014
-560,758	81,356	0,085	-0,067
-559,744	-25,958	0,093	0,040
-558,729	472,089	-0,042	-0,070
-557,715	322,159	-0,115	-0,161
-556,700	726,835	0,064	-0,125
-555,685	539,090	0,051	0,089
-554,671	-96,600	0,055	-0,010
-553,656	214,495	0,089	0,103
-552,642	-75,160	0,142	0,037
-551,627	15,436	-0,135	-0,077
-550,612	-200,000	0,009	-0,033
-549,598	800,000	-0,053	-0,123
-548,583	-120,633	-0,102	0,013
-547,569	-132,333	-0,068	-0,006
-546,554	-200,000	0,027	0,136
-545,539	122,012	-0,145	-0,132
-544,525	-46,123	-0,063	0,022
-543,510	-200,000	-0,199	0,001
-542,496	49,878	-0,040	0,028
-541,481	-16,095	-0,038	-0,017
-540,466	-21,026	0,062	0,028
-539,452	800,000	-0,029	-0,089
-538,437	-20,417	-0,012	-0,005
-537,423	-200,000	-0,032	0,124
-536,408	-200,000	0,014	0,079
-535,393	269,313	-0,017	0,022
-534,379	639,512	-0,034	-0,064
-533,364	-96,985	-0,061	-0,012
-532,350	-200,000	0,001	0,045
-531,335	187,460	0,079	0,086
-530,321	-67,878	-0,023	0,006
-529,306	-50,885	-0,119	0,041
-528,291	31,031	-0,114	-0,071
-527,277	800,000	-0,026	-0,084
-526,262	-30,329	0,099	0,041
-525,248	800,000	-0,042	0,085
-524,233	118,853	0,015	0,014
-523,218	-200,000	0,084	-0,000
-522,204	78,523	0,037	-0,029
-521,189	-128,012	-0,099	0,010
-520,175	103,624	-0,050	0,043
-519,160	-79,849	-0,065	0,016
-518,145	800,000	0,029	-0,084
-517,131	-200,000	-0,054	-0,213
-516,116	-123,317	0,055	-0,006
-515,102	-7,448	-0,137	-0,067
-514,087	-200,000	0,006	-0,201
-513,072	-83,489	0,193	-0,045
-512,058	-54,445	-0,021	0,007
-511,043	307,954	-0,078	0,106
-510,029	800,000	-0,037	0,102
-509,014	-143,340	-0,062	-0,004
-507,999	198,671	-0,036	-0,041
-506,985	292,976	-0,019	-0,025
-505,970	1,663	-0,065	-0,034
-504,956	285,501	0,118	-0,156
-503,941	800,000	0,061	-0,129
-502,926	800,000	0,037	-0,093
-501,912	-24,333	0,064	-0,028
-500,897	800,000	0,065	-0,134
-499,883	-10,475	-0,113	0,054
-498,868	-29,895	-0,068	0,028
-497,853	-46,584	-0,170	-0,060
-496,839	-28,838	0,046	-0,019
-495,824	176,246	0,050	0,053
-494,810	394,543	0,036	0,055
-493,795	-200,000	-0,008	0,083
-492,781	77,838	-0,112	0,087
-491,766	-49,309	-0,113	-0,039
-490,751	-200,000	0,003	0,054
-489,737	526,920	0,041	0,072
-488,722	-41,160	0,121	0,046
-487,708	506,066	0,075	0,128
-486,693	14,735	-0,116	-0,066
-485,678	194,718	-0,089	-0,099
-484,664	71,710	0,161	-0,122
-483,649	78,033	0,086	0,067
-482,635	800,000	-0,022	0,069
-481,620	-44,367	-0,122	-0,044
-480,605	-0,696	0,073	0,038
-479,591	190,001	-0,042	0,047
-478,576	-102,860	-0,021	0,004
-477,562	-71,044	0,121	-0,033
-476,547	-199,099	0,133	0,001
-475,532	-121,740	0,074	0,009
-474,518	-200,000	0,001	0,119
-473,503	374,259	0,134	0,200
-472,489	-35,602	0,033	0,013
-471,474	-72,561	0,054	0,014
-470,459	800,000	-0,026	0,058
-469,445	-143,335	-0,115	-0,008
-468,430	800,000	0,052	-0,107
-467,416	-73,859	-0,092	-0,024
-466,401	355,225	0,096	-0,139
-465,386	-200,000	-0,001	-0,065
-464,372	800,000	0,033	0,104
-463,357	-200,000	0,000	-0,063
-462,343	-200,000	-0,017	-0,075
-461,328	-55,937	0,072	-0,023
-460,313	379,052	-0,076	-0,114
-459,299	-173,775	0,154	-0,003
-458,284	-200,000	0,004	-0,018
-457,270	-50,185	-0,159	0,055
-456,255	29,023	0,125	-0,077
-455,241	-200,000	0,003	0,083
-454,226	-15,191	0,127	0,059
-453,211	-200,000	-0,001	-0,026
-452,197	83,459	0,098	0,077
-451,182	-200,000	-0,010	0,102
-450,168	349,961	-0,086	-0,124
-449,153	190,406	0,040	-0,044
-448,138	-118,275	-0,149	-0,019
-447,124	-200,000	0,000	0,039
-446,109	33,749	0,111	0,070
-445,095	43,828	-0,012	0,008
-444,080	-86,640	0,147	0,032
-443,065	131,472	-0,053	0,050
-442,051	308,031	-0,075	-0,102
-441,036	142,473	-0,060	-0,058
-440,022	-63,450	-0,128	0,038
-439,007	800,000	-0,033	0,068
-437,992	800,000	0,010	0,030
-436,978	170,724	-0,073	-0,076
-435,963	277,569	0,093	-0,122
-434,949	-9,112	-0,089	-0,043
-433,934	-152,819	-0,016	-0,001
-432,919	231,174	-0,032	-0,039
-431,905	138,167	0,050	-0,048
-430,890	-143,742	0,124	0,008
-429,876	30,932	0,064	0,040
-428,861	318,046	0,063	0,086
-427,846	-68,677	0,084	-0,024
-426,832	481,658	0,031	-0,051
-425,817	-200,000	0,008	-0,064
-424,803	800,000	0,014	-0,031
-423,788	-200,000	-0,003	-0,062
-422,773	283,927	0,021	-0,028
-421,759	-200,000	0,011	-0,144
-420,744	252,194	0,018	-0,022
-419,730	552,670	0,038	-0,067
-418,715	-200,000	0,014	0,108
-417,701	-156,340	0,102	-0,005
-416,686	-48,636	0,109	-0,038
-415,671	-106,210	0,092	0,015
-414,657	131,885	0,059	0,056
-413,642	521,160	0,027	0,046
-412,628	800,000	0,049	0,133
-411,613	513,392	-0,047	0,079
-410,598	365,824	0,054	-0,079
-409,584	126,245	0,094	-0,086
-408,569	-33,801	0,044	-0,018
-407,555	-12,348	0,032	-0,015
-406,540	-200,000	0,053	-0,174
-405,525	-118,429	0,025	-0,003
-404,511	193,284	-0,053	0,058
-403,496	-3,700	-0,113	0,057
-402,482	800,000	-0,033	0,076
-401,467	-59,838	0,045	0,014
-400,452	115,613	-0,032	0,029
-399,438	-184,315	-0,077	-0,001
-398,423	800,000	0,039	-0,109
-397,409	-0,794	0,136	-0,070
-396,394	18,603	0,114	0,066
-395,379	-200,000	-0,006	0,058
-394,365	58,468	-0,036	0,025
-393,350	136,744	0,096	0,091
-392,336	130,488	-0,040	0,037
-391,321	-77,040	0,097	0,024
-390,306	256,810	-0,082	0,102
-389,292	-93,656	0,032	0,006
-388,277	-57,614	-0,020	0,006
-387,263	3,191	-0,079	0,042
-386,248	-137,534	0,050	0,004
-385,233	274,618	0,055	0,071
-384,219	-25,222	-0,099	-0,042
-383,204	-52,378	0,059	0,020
-382,190	222,688	-0,038	-0,045
-381,175	-200,000	-0,039	0,226
-380,160	-135,813	0,035	0,003
-379,146	-143,866	-0,155	0,010
-378,131	-86,038	-0,081	0,018
-377,117	348,189	0,116	0,166
-376,102	287,795	0,061	0,080
-375,088	-3,734	-0,125	-0,063
-374,073	282,843	-0,082	-0,108
-373,058	32,202	-0,110	0,069
-372,044	244,440	0,074	-0,091
-371,029	-200,000	0,034	0,147
-370,015	-200,000	0,005	0,068
-369,000	-200,000	0,021	-0,099
-367,985	-20,240	0,104	-0,047
-366,971	204,788	-0,116	-0,131
-365,956	31,938	0,095	0,059
-364,942	182,135	0,101	0,108
-363,927	-127,602	0,106	-0,011
-362,912	157,444	0,031	0,031
-361,898	-136,373	-0,111	0,009
-360,883	109,538	-0,063	-0,055
-359,869	530,574	0,049	0,084
-358,854	67,775	0,131	0,097
-357,839	31,235	0,028	0,017
-356,825	800,000	0,027	0,059
-355,810	474,413	0,038	0,062
-354,796	-200,000	0,015	0,050
-353,781	515,006	-0,065	-0,111
-352,766	-200,000	0,020	-0,083
-351,752	668,763	0,048	-0,091
-350,737	314,755	0,117	-0,160
-349,723	190,349	-0,036	0,040
-348,708	-59,571	0,064	0,020
-347,693	206,995	0,088	-0,100
-346,679	238,834	0,062	-0,075
-345,664	479,319	-0,027	0,044
-344,650	-10,218	0,132	0,063
-343,635	-200,000	-0,009	-0,078
-342,620	800,000	0,013	0,039
-341,606	-200,000	0,022	0,070
-340,591	57,553	-0,119	0,085
-339,577	-96,970	-0,146	-0,028
-338,562	39,522	0,020	-0,013
-337,548	408,504	0,019	-0,030
-336,533	38,727	-0,101	-0,066
-335,518	-43,852	0,069	0,025
-334,504	-42,893	0,063	-0,023
-333,489	-200,000	-0,004	0,093
-332,475	-72,894	-0,116	-0,031
-331,460	800,000	0,048	0,124
-330,445	50,144	-0,068	0,046
-329,431	-7,057	-0,073	-0,036
-328,416	-200,000	0,026	0,110
-327,402	-38,931	0,077	-0,029
-326,387	-81,353	0,045	0,011
-325,372	-200,000	0,008	-0,034
-324,358	38,893	0,070	-0,046
-323,343	-95,637	0,058	-0,011
-322,329	-68,922	-0,153	0,043
-321,314	74,967	-0,072	0,055
-320,299	-200,000	-0,012	0,061
-319,285	800,000	0,017	-0,049
-318,270	-200,000	0,009	0,156
-317,256	-200,000	0,001	-0,065
-316,241	-126,163	0,125	-0,013
-315,226	393,426	0,067	-0,101
-314,212	-200,000	0,009	0,055
-313,197	-70,076	0,040	-0,011
-312,183	-35,456	0,085	0,033
-311,168	-102,141	-0,067	0,012
-310,153	800,000	0,026	-0,075
-309,139	-84,118	-0,019	0,004
-308,124	81,766	-0,057	0,045
-307,110	310,469	-0,006	0,008
-306,095	435,525	-0,025	0,039
-305,080	726,489	0,067	0,131
-304,066	-200,000	-0,003	0,011
-303,051	38,104	0,071	0,046
-302,037	73,036	0,031	-0,023
-301,022	800,000	0,038	0,117
-300,008	800,000	-0,014	0,041
-298,993	800,000	-0,041	-0,086
-297,978	152,158	0,074	0,073
-296,964	-90,963	-0,108	-0,022
-295,949	-200,000	0,006	0,039
-294,935	17,917	0,013	0,008
-293,920	800,000	-0,020	-0,059
-292,905	-55,028	0,048	0,016
-291,891	274,464	0,074	0,096
-290,876	665,074	0,123	0,231
-289,862	-200,000	0,000	0,095
-288,847	800,000	0,063	-0,144
-287,832	645,565	-0,071	-0,131
-286,818	-143,986	0,124	0,008
-285,803	-177,778	0,021	-0,000
-284,789	-200,000	0,013	0,098
-283,774	-200,000	-0,022	0,096
-282,759	516,558	-0,031	0,053
-281,745	-93,748	-0,070	0,014
-280,730	347,061	-0,092	0,132
-279,716	-16,102	0,042	-0,019
-278,701	7,225	-0,018	0,010
-277,686	46,419	-0,015	-0,010
-276,672	-177,155	0,017	0,000
-275,657	-200,000	0,026	0,187
-274,643	83,425	0,108	-0,085
-273,628	-200,000	-0,003	-0,045
-272,613	800,000	0,032	-0,076
-271,599	-33,852	0,037	0,015
-270,584	8,001	0,137	-0,074
-269,570	80,715	-0,138	0,107
-268,555	-200,000	-0,010	0,075
-267,540	-146,884	-0,100	0,006
-266,526	23,782	-0,139	0,082
-265,511	-200,000	-0,020	-0,085
-264,497	-200,000	0,024	0,092
-263,482	403,074	0,092	0,141
-262,467	-200,000	-0,005	0,063
-261,453	-200,000	-0,011	-0,195
-260,438	62,098	-0,058	0,042
-259,424	221,787	-0,017	-0,020
-258,409	763,958	0,045	0,089
-257,395	-34,238	0,033	-0,013
-256,380	123,304	0,045	0,040
-255,365	800,000	-0,018	0,044
-254,351	14,029	-0,215	-0,121
-253,336	-200,000	0,021	-0,089
-252,322	-200,000	0,012	-0,104
-251,307	-50,264	-0,099	-0,034
-250,292	-200,000	0,024	-0,214
-249,278	800,000	-0,055	-0,159
-248,263	-80,168	0,076	0,018
-247,249	290,474	-0,057	-0,075
-246,234	-200,000	0,002	-0,074
-245,219	800,000	-0,008	-0,016
-244,205	-200,000	-0,035	0,000
-243,190	50,462	-0,017	0,012
-242,176	-200,000	0,005	0,016
-241,161	-83,560	0,193	0,044
-240,146	78,944	0,041	-0,032
-239,132	-200,000	0,002	-0,147
-238,117	-200,000	0,011	0,050
-237,103	41,376	-0,079	0,052
-236,088	166,715	0,064	0,066
-235,073	-200,000	0,038	0,158
-234,059	-200,000	-0,010	0,101
-233,044	175,333	0,075	0,079
-232,030	640,522	0,060	0,110
-231,015	-139,737	0,159	-0,012
-230,000	-200,000	0,004	-0,064
-228,986	27,224	-0,064	0,039
-227,971	73,609	0,091	0,069
-226,957	800,000	0,041	-0,091
-225,942	-57,544	0,151	0,048
-224,927	800,000	-0,032	0,064
-223,913	800,000	-0,056	-0,171
-222,898	-117,270	0,062	-0,008
-221,884	-74,807	-0,079	-0,020
-220,869	141,650	0,069	0,066
-219,855	-200,000	-0,014	0,104
-218,840	-200,000	0,045	0,190
-217,825	131,615	0,120	0,111
-216,811	-127,614	0,031	-0,003
-215,796	48,272	0,035	-0,024
-214,782	-42,328	-0,136	0,050
-213,767	163,785	-0,058	-0,059
-212,752	274,029	0,056	0,072
-211,738	-154,495	0,127	0,006
-210,723	124,495	-0,041	0,037
-209,709	-66,991	-0,086	-0,024
-208,694	-200,000	0,006	-0,067
-207,679	632,800	0,052	0,096
-206,665	-71,120	0,030	0,008
-205,650	-112,591	-0,152	0,022
-204,636	217,442	0,166	0,191
-203,621	-200,000	-0,001	0,071
-202,606	-79,581	0,070	0,017
-201,592	-49,885	0,045	-0,015
-200,577	-200,000	0,018	-0,084
-199,563	-117,118	-0,031	0,004
-198,548	-200,000	0,052	0,267
-197,533	61,539	-0,121	-0,087
-196,519	59,643	0,114	-0,081
-195,504	-200,000	-0,022	-0,164
-194,490	-200,000	-0,030	-0,146
-193,475	190,125	-0,063	-0,068
-192,460	-200,000	0,013	0,058
-191,446	357,476	-0,097	0,140
-190,431	-118,035	-0,065	0,008
-189,417	800,000	0,117	0,242
-188,402	800,000	0,059	-0,129
-187,387	-200,000	0,002	0,072
-186,373	-200,000	0,022	-0,095
-185,358	337,019	-0,102	0,144
-184,344	800,000	0,037	0,115
-183,329	-200,000	-0,033	0,131
-182,315	469,753	-0,024	-0,040
-181,300	-200,000	0,033	-0,125
-180,285	515,240	-0,037	-0,063
-179,271	-134,254	0,048	0,004
-178,256	-200,000	-0,015	-0,087
-177,242	800,000	0,071	0,169
-176,227	-176,557	0,123	0,002
-175,212	-79,314	-0,213	0,052
-174,198	268,071	0,042	-0,053
-173,183	-29,168	-0,109	-0,045
-172,169	-54,949	-0,054	0,017
-171,154	-200,000	0,003	-0,070
-170,139	586,212	0,045	0,080
-169,125	-200,000	-0,020	-0,108
-168,110	800,000	-0,042	0,109
-167,096	207,564	-0,051	-0,057
-166,081	-200,000	-0,017	-0,083
-165,066	-200,000	0,002	-0,079
-164,052	-200,000	-0,003	0,015
-163,037	153,486	-0,014	-0,014
-162,023	-200,000	0,009	0,051
-161,008	72,634	-0,108	-0,081
-159,993	247,972	0,075	-0,091
-158,979	-42,144	-0,174	-0,064
-157,964	800,000	0,031	0,078
-156,950	334,166	-0,046	-0,065
-155,935	800,000	0,042	-0,118
-154,920	-48,235	-0,068	0,024
-153,906	263,846	0,056	0,071
-152,891	-200,000	0,010	-0,128
-151,877	91,345	-0,024	-0,020
-150,862	-200,000	-0,028	-0,138
-149,847	-50,441	0,142	0,048
-148,833	67,249	0,102	-0,075
-147,818	-36,757	-0,125	-0,048
-146,804	67,928	0,155	0,114
-145,789	800,000	0,017	0,039
-144,775	285,391	-0,087	0,114
-143,760	-200,000	0,021	-0,111
-142,745	-200,000	-0,007	-0,034
-141,731	-90,143	-0,064	-0,013
-140,716	133,713	0,060	0,056
-139,702	-200,000	-0,007	0,098
-138,687	-200,000	-0,013	0,128
-137,672	800,000	0,011	0,025
-136,658	26,591	0,037	0,022
-135,643	364,827	-0,080	-0,116
-134,629	-200,000	0,023	0,133
-133,614	-167,794	0,131	0,004
-132,599	299,567	-0,110	0,146
-131,585	800,000	0,002	-0,007
-130,570	-200,000	-0,003	0,142
-129,556	-200,000	-0,008	0,104
-128,541	623,442	-0,036	-0,065
-127,526	528,749	0,064	-0,110
-126,512	297,724	-0,088	-0,117
-125,497	620,630	-0,018	0,032
-124,483	-28,767	-0,036	0,015
-123,468	-200,000	0,012	0,155
-122,453	236,956	-0,026	-0,031
-121,439	167,855	-0,088	-0,091
-120,424	-9,882	0,110	0,053
-119,410	-200,000	0,015	0,076
-118,395	51,582	-0,022	-0,015
-117,380	-49,749	0,075	0,026
-116,366	-112,955	0,050	0,007
-115,351	466,560	-0,131	-0,213
-114,337	-200,000	-0,014	-0,119
-113,322	-200,000	0,012	0,149
-112,307	313,683	0,033	-0,045
-111,293	142,587	0,046	-0,044
-110,278	-200,000	-0,018	0,110
-109,264	800,000	0,043	0,104
-108,249	800,000	-0,008	-0,019
-107,234	359,332	-0,052	0,075
-106,220	343,275	0,043	-0,061
-105,205	-3,927	0,089	0,044
-104,191	55,263	0,103	-0,072
-103,176	-140,102	0,160	0,012
-102,162	-200,000	0,020	0,070
-101,147	-134,935	-0,089	0,008
-100,132	40,576	-0,094	-0,061
-99,118	-200,000	0,012	0,087
-98,103	441,069	0,069	0,109
-97,089	81,000	0,130	0,101
-96,074	800,000	0,021	0,050
-95,059	446,014	-0,073	0,116
-94,045	-200,000	-0,003	-0,069
-93,030	81,198	-0,074	0,057
-92,016	300,436	-0,109	0,145
-91,001	-200,000	0,001	-0,118
-89,986	-200,000	0,014	0,077
-88,972	-60,320	0,038	0,012
-87,957	-21,028	0,133	0,058
-86,943	419,260	-0,062	0,096
-85,928	12,683	-0,143	-0,079
-84,913	800,000	0,026	0,057
-83,899	2,893	0,105	0,055
-82,884	758,309	-0,085	-0,167
-81,870	520,374	0,018	0,030
-80,855	137,138	0,145	-0,136
-79,840	364,335	0,034	-0,049
-78,826	800,000	-0,056	-0,148
-77,811	-45,580	-0,139	-0,049
-76,797	-12,917	0,036	0,017
-75,782	-96,354	0,017	-0,003
-74,767	-89,297	0,190	-0,040
-73,753	-55,256	-0,091	0,029
-72,738	633,778	-0,074	0,136
-71,724	-100,132	-0,039	-0,007
-70,709	-126,181	-0,077	-0,008
-69,694	-138,106	-0,126	0,010
-68,680	-94,935	0,066	0,013
-67,665	-200,000	-0,031	0,137
-66,651	-3,924	0,023	0,012
-65,636	83,015	-0,068	0,053
-64,622	-200,000	0,003	0,104
-63,607	448,630	-0,030	0,048
-62,592	-200,000	0,009	0,200
-61,578	800,000	-0,046	-0,129
-60,563	4,057	0,099	0,052
-59,549	-200,000	0,023	0,159
-58,534	77,064	-2,624	-2,000
-57,519	61,859	0,336	-0,240
-56,505	-200,000	-1,709	-5,447
-55,490	548,327	1,230	2,123
-54,476	800,000	5,094	11,105
-53,461	-200,000	22,223	347,511
-52,446	800,000	760,351	2291,944
-51,432	512,539	1645,204	2762,184
-50,417	96,937	1608,107	1322,707
-49,403	64,701	1265,352	915,060
-48,388	22,840	1017,251	596,893
-47,373	19,398	984,739	566,440
-46,359	12,840	971,515	537,368
-45,344	8,557	968,446	521,621
-44,330	9,017	966,232	521,914
-43,315	8,017	964,511	517,698
-42,300	7,972	963,395	516,929
-41,286	7,977	962,428	516,406
-40,271	7,892	961,552	515,641
-39,257	7,975	960,417	515,282
-38,242	7,927	959,671	514,702
-37,227	7,924	958,839	514,226
-36,213	7,859	958,059	513,578
-35,198	7,909	957,140	513,225
-34,184	7,973	956,199	512,910
-33,169	7,880	955,483	512,203
-32,154	7,949	954,617	511,941
-31,140	7,976	953,722	511,528
-30,125	8,004	952,953	511,188
-29,111	7,898	952,317	510,485
-28,096	7,883	951,593	510,027
-27,082	7,908	950,924	509,727
-26,067	7,895	950,280	509,320
-25,052	7,889	949,495	508,860
-24,038	7,846	948,675	508,264
-23,023	7,900	947,816	507,957
-22,009	7,885	947,411	507,669
-20,994	7,923	946,797	507,444
-19,979	7,923	946,162	507,083
-18,965	7,918	945,184	506,522
-17,950	7,933	944,904	506,399
-16,936	7,908	944,112	505,874
-15,921	7,930	943,384	505,535
-14,906	7,846	942,700	504,880
-13,892	7,831	942,144	504,515
-12,877	7,797	941,609	504,101
-11,863	7,724	941,011	503,527
-10,848	7,810	940,399	503,453
-9,833	7,899	940,005	503,505
-8,819	7,852	939,357	502,990
-7,804	7,834	938,424	502,414
-6,790	7,801	938,219	502,178
-5,775	7,812	937,632	501,879
-4,760	7,850	937,046	501,668
-3,746	7,808	936,262	501,094
-2,731	7,734	935,592	500,482
-1,717	7,668	935,037	499,955
-0,702	7,678	934,527	499,693
0,313	7,511	933,722	499,491
1,327	10,954	931,437	509,079
2,342	19,779	779,444	449,124
3,356	14,743	447,985	250,530
4,371	-11,654	312,887	146,869
5,386	-15,238	295,177	134,917
6,400	-17,117	289,059	130,245
7,415	-17,498	286,413	128,667
8,429	-18,305	284,431	126,978
9,444	-18,452	283,708	126,500
10,459	-18,249	282,975	126,359
11,473	-18,253	282,375	126,076
12,488	-18,295	282,026	125,868
13,502	-18,242	281,412	125,635
14,517	-18,116	280,947	125,537
15,531	-18,182	280,603	125,309
16,546	-18,050	280,082	125,191
17,561	-18,042	279,863	125,090
18,575	-18,035	279,382	124,871
19,590	-18,286	279,191	124,534
20,604	-18,181	278,960	124,521
21,619	-18,281	278,607	124,256
22,634	-18,239	278,128	124,071
23,648	-18,212	277,788	123,935
24,663	-18,277	277,695	123,820
25,677	-18,094	277,205	123,764
26,692	-18,021	276,989	123,726
27,707	-18,044	276,732	123,579
28,721	-18,146	276,633	123,427
29,736	-18,117	276,214	123,256
30,750	-18,049	275,978	123,204
31,765	-18,291	275,759	122,867
32,780	-18,167	275,477	122,847
33,794	-17,958	274,930	122,789
34,809	-18,183	274,895	122,551
35,823	-18,072	274,653	122,537
36,838	-18,019	274,364	122,446
37,853	-18,029	274,183	122,346
38,867	-18,131	273,738	122,041
39,882	-17,981	273,729	122,166
40,896	-18,071	273,356	121,904
41,911	-17,914	273,160	121,953
42,926	-17,968	272,841	121,749
43,940	-18,128	272,665	121,511
44,955	-18,214	272,556	121,370
45,969	-18,215	272,321	121,254
46,984	-18,108	272,031	121,214
47,999	-17,901	271,907	121,340
49,013	-17,875	271,615	121,223
50,028	-18,052	271,454	120,976
51,042	-17,809	271,122	121,043
52,057	-17,925	271,020	120,879
53,071	-17,948	270,672	120,691
54,086	-17,875	270,486	120,665
55,101	-17,947	270,324	120,516
56,115	-17,935	269,935	120,343
57,130	-18,105	269,796	120,113
58,144	-17,973	269,343	120,023
59,159	-18,134	269,240	119,818
60,174	-18,104	268,873	119,672
61,188	-18,049	268,775	119,668
62,203	-18,145	268,575	119,480
63,217	-18,026	268,375	119,489
64,232	-18,133	268,082	119,251
65,247	-17,981	267,910	119,302
66,261	-18,098	267,544	119,022
67,276	-18,148	267,382	118,894
68,290	-17,929	267,115	118,964
69,305	-17,946	266,949	118,864
70,320	-17,954	266,850	118,801
71,334	-17,888	266,547	118,716
72,349	-18,041	266,281	118,448
73,363	-18,081	266,061	118,304
74,378	-18,129	265,834	118,149
75,393	-18,047	265,560	118,091
76,407	-17,968	265,227	118,004
77,422	-18,031	265,236	117,940
78,436	-17,969	264,940	117,854
79,451	-17,996	264,690	117,707
80,466	-17,903	264,320	117,617
81,480	-17,977	264,222	117,496
82,495	-17,919	263,941	117,412
83,509	-17,995	263,830	117,284
84,524	-18,099	263,747	117,144
85,539	-17,812	263,486	117,275
86,553	-18,072	263,264	116,932
87,568	-17,931	262,985	116,924
88,582	-18,112	262,823	116,679
89,597	-17,902	262,454	116,693
90,611	-18,235	262,405	116,363
91,626	-17,929	262,169	116,522
92,641	-18,089	261,954	116,273
93,655	-17,884	261,769	116,364
94,670	-17,927	261,362	116,134
95,684	-17,978	261,389	116,090
96,699	-18,197	261,289	115,841
97,714	-17,944	260,947	115,903
98,728	-17,989	260,833	115,803
99,743	-17,913	260,505	115,713
100,757	-17,918	260,264	115,592
101,772	-18,079	260,073	115,354
102,787	-17,988	259,791	115,299
103,801	-17,974	259,678	115,251
104,816	-18,110	259,441	115,015
105,830	-18,038	259,365	115,035
106,845	-18,058	259,006	114,848
107,860	-17,731	258,819	115,043
108,874	-17,893	258,550	114,770
109,889	-18,047	258,409	114,562
110,903	-18,110	258,369	114,479
111,918	-17,954	258,009	114,446
112,933	-17,915	257,791	114,373
113,947	-18,038	257,715	114,222
114,962	-18,122	257,499	114,042
115,976	-17,991	257,233	114,029
116,991	-18,065	257,147	113,916
118,006	-17,918	256,948	113,946
119,020	-18,172	256,796	113,646
120,035	-17,843	256,554	113,816
121,049	-17,987	256,365	113,597
122,064	-17,950	256,143	113,521
123,079	-17,799	255,806	113,492
124,093	-18,104	255,796	113,213
125,108	-17,938	255,490	113,211
126,122	-17,886	255,412	113,212
127,137	-17,866	255,228	113,138
128,151	-17,873	255,077	113,055
129,166	-17,882	254,801	112,914
130,181	-17,909	254,595	112,789
131,195	-17,793	254,351	112,771
132,210	-18,020	254,144	112,474
133,224	-17,904	253,800	112,411
134,239	-17,786	253,822	112,513
135,254	-17,826	253,535	112,341
136,268	-17,862	253,499	112,284
137,283	-17,855	253,222	112,158
138,297	-17,878	252,987	112,024
139,312	-17,931	252,782	111,878
140,327	-17,931	252,603	111,789
141,341	-17,843	252,407	111,767
142,356	-18,137	252,333	111,473
143,370	-17,732	251,888	111,612
144,385	-17,940	251,729	111,354
145,400	-17,937	251,456	111,226
146,414	-18,117	251,450	111,060
147,429	-18,056	251,161	110,974
148,443	-17,858	250,869	111,004
149,458	-17,908	250,824	110,932
150,473	-18,086	250,831	110,773
151,487	-18,100	250,484	110,598
152,502	-17,848	250,139	110,650
153,516	-17,843	249,971	110,570
154,531	-17,773	249,900	110,588
155,546	-17,752	249,751	110,530
156,560	-17,892	249,489	110,286
157,575	-18,067	249,384	110,082
158,589	-17,931	249,103	110,062
159,604	-18,102	248,899	109,819
160,619	-17,913	248,754	109,903
161,633	-17,943	248,577	109,791
162,648	-17,974	248,445	109,696
163,662	-17,829	248,305	109,747
164,677	-17,853	248,129	109,639
165,692	-17,702	247,910	109,659
166,706	-17,849	247,744	109,453
167,721	-18,075	247,557	109,171
168,735	-17,932	247,467	109,242
169,750	-17,946	247,311	109,151
170,764	-18,017	247,167	109,018
171,779	-17,956	247,099	109,029
172,794	-17,900	246,889	108,974
173,808	-17,850	246,523	108,844
174,823	-17,986	246,472	108,699
175,837	-17,894	246,261	108,673
176,852	-17,945	246,200	108,594
177,867	-17,802	245,881	108,562
178,881	-17,865	245,798	108,464
179,896	-17,812	245,536	108,382
180,910	-17,794	245,284	108,277
181,925	-17,852	245,262	108,208
182,940	-17,931	244,949	107,995
183,954	-17,992	244,764	107,854
184,969	-18,068	244,915	107,848
185,983	-17,750	244,429	107,886
186,998	-17,707	244,292	107,852
188,013	-17,897	244,139	107,618
189,027	-17,797	243,787	107,536
190,042	-18,084	243,830	107,309
191,056	-17,886	243,690	107,401
192,071	-17,811	243,535	107,385
193,086	-17,932	243,266	107,157
194,100	-17,903	243,026	107,066
195,115	-17,699	242,759	107,105
196,129	-18,033	242,759	106,822
197,144	-17,927	242,421	106,751
198,159	-17,756	242,291	106,824
199,173	-17,885	242,143	106,643
200,188	-17,879	241,939	106,549
201,202	-17,844	241,930	106,564
202,217	-17,708	241,700	106,565
203,232	-17,634	241,516	106,534
204,246	-17,770	241,361	106,345
205,261	-17,642	241,102	106,326
206,275	-16,206	241,443	107,636
207,290	-11,368	243,338	112,436
208,304	-5,371	245,256	118,256
209,319	-3,349	245,757	120,154
210,334	-2,730	245,731	120,641
211,348	-1,903	245,873	121,381
212,363	-1,447	245,927	121,772
213,377	-0,897	245,952	122,227
214,392	-0,162	246,070	122,879
215,407	0,475	246,051	123,383
216,421	0,442	245,950	123,295
217,436	0,365	245,790	123,140
218,450	0,488	245,548	123,109
219,465	0,625	245,518	123,195
220,480	0,576	245,299	123,034
221,494	0,540	245,174	122,931
222,509	0,412	244,903	122,679
223,523	0,125	244,635	122,299
224,538	0,024	244,440	122,109
225,553	0,060	244,374	122,094
226,567	0,074	244,120	121,967
227,582	-0,031	244,019	121,821
228,596	0,104	243,844	121,833
229,611	0,231	243,737	121,872
230,626	0,235	243,357	121,674
231,640	-0,003	243,394	121,488
232,655	0,007	243,133	121,355
233,669	-0,137	243,153	121,237
234,684	-0,152	242,965	121,121
235,699	0,168	242,807	121,290
236,713	0,224	242,604	121,224
237,728	-0,042	242,445	120,918
238,742	0,141	242,228	120,947
239,757	0,128	242,115	120,869
240,772	0,220	241,847	120,799
241,786	0,115	241,843	120,701
242,801	0,003	241,611	120,484
243,815	0,018	241,429	120,395
244,830	0,124	241,335	120,423
245,844	0,006	241,184	120,242
246,859	0,086	240,828	120,118
247,874	0,086	240,799	120,093
248,888	0,062	240,586	119,957
249,903	-0,082	240,678	119,876
250,917	0,064	240,469	119,878
251,932	0,390	240,127	119,958
252,947	0,051	240,136	119,681
253,961	0,103	239,902	119,595
254,976	0,027	239,592	119,369
255,990	0,190	239,514	119,449
257,005	0,264	239,362	119,422
258,020	0,281	239,243	119,365
259,034	0,140	239,147	119,195
260,049	0,188	238,923	119,110
261,063	0,188	238,836	119,057
262,078	0,073	238,592	118,833
263,093	0,167	238,313	118,758
264,107	0,374	238,345	118,928
265,122	0,039	238,158	118,558
266,136	0,177	238,014	118,585
267,151	0,063	237,882	118,419
268,166	0,173	237,676	118,393
269,180	0,126	237,555	118,285
270,195	0,042	237,415	118,138
271,209	0,153	237,210	118,113
272,224	0,091	237,066	117,982
273,239	-0,012	236,935	117,825
274,253	0,210	236,861	117,953
275,268	0,061	236,687	117,738
276,282	0,252	236,429	117,749
277,297	0,162	236,258	117,583
278,312	0,203	236,209	117,580
279,326	0,113	236,036	117,413
280,341	0,176	235,889	117,379
281,355	0,021	235,862	117,234
282,370	0,052	235,574	117,104
283,384	0,245	235,411	117,164
284,399	0,103	235,275	116,974
285,414	-0,027	235,021	116,737
286,428	0,373	235,004	117,030
287,443	0,291	234,822	116,864
288,457	0,083	234,848	116,705
289,472	0,220	234,622	116,689
290,487	0,219	234,449	116,592
291,501	0,108	234,320	116,431
292,516	0,198	234,065	116,364
293,530	0,054	233,999	116,209
294,545	0,028	233,858	116,108
295,560	0,052	233,725	116,051
296,574	0,377	233,514	116,187
297,589	0,340	233,410	116,096
298,603	0,162	233,302	115,895
299,618	0,030	233,074	115,669
300,633	0,167	233,003	115,729
301,647	0,403	232,908	115,854
302,662	0,185	232,738	115,591
303,676	0,347	232,488	115,581
304,691	0,383	232,375	115,543
305,706	0,351	232,262	115,452
306,720	0,404	232,042	115,373
307,735	0,324	231,861	115,211
308,749	0,497	231,842	115,324
309,764	0,342	231,697	115,123
310,779	0,260	231,617	115,010
311,793	0,283	231,288	114,853
312,808	0,377	231,080	114,812
313,822	0,469	231,023	114,844
314,837	0,364	230,934	114,709
315,852	0,437	230,665	114,622
316,866	0,478	230,520	114,570
317,881	0,516	230,438	114,548
318,895	0,587	230,293	114,520
319,910	0,517	230,125	114,373
320,925	0,471	229,936	114,234
321,939	0,626	229,777	114,262
322,954	0,457	229,917	114,194
323,968	0,618	229,646	114,171
324,983	0,463	229,545	113,993
325,997	0,442	229,340	113,865
327,012	0,535	229,254	113,882
328,027	0,507	228,966	113,708
329,041	0,527	228,924	113,693
330,056	0,507	228,629	113,521
331,070	0,567	228,616	113,549
332,085	0,482	228,333	113,335
333,100	0,285	228,264	113,141
334,114	0,447	228,037	113,141
335,129	0,577	227,811	113,117
336,143	0,462	227,658	112,944
337,158	0,441	227,721	112,949
338,173	0,646	227,525	112,996
339,187	0,552	227,327	112,817
340,202	0,600	227,208	112,784
341,216	0,724	227,051	112,789
342,231	0,764	226,910	112,739
343,246	0,731	226,774	112,637
344,260	0,557	226,814	112,516
345,275	0,665	226,658	112,510
346,289	0,884	226,253	112,462
347,304	0,804	226,290	112,411
348,319	0,674	226,149	112,234
349,333	0,690	225,897	112,111
350,348	0,795	225,712	112,087
351,362	0,658	225,730	111,984
352,377	0,635	225,655	111,919
353,392	0,950	225,359	111,997
354,406	0,725	225,226	111,754
355,421	192,239	1313,308	1379,498
356,435	153,977	1445,725	1379,341
