DTS Sentinel unit serial number:	SN410029Multiplexer serial number:	ORYXHardware model number:	OX2-SRSoftware version number:	ORYX F/W v4,00 Oryx Data Collector v3.7.2.0data status	okinstallation	B5 Nyhavnadifferential loss correction	single-endedforward channel	channel 2reverse channel	N/Adate	2023/12/12time	17:42:13forward acquisition time	300,00reverse acquisition time	0,00gamma	499,1914k internal	0,3157k external	0,3157temperature offset calibration	1,0000default loss term (dB/km)	0,3820temperature slope calibration	1,0000multiplexer offset coefficient	1,0000multiplexer slope coefficient	1,0000fibre end	0,00T internal ref (°C)	15,69T ext. ref 1 (°C)	-0,79T ext. ref 2 (°C)	-1,09length (m)	temperature (°C)	Stokes	anti-Stokes-744,400	800,000	0,026	0,068
-743,385	-5,261	-0,258	0,130
-742,371	143,976	0,057	0,056
-741,356	111,456	-0,210	0,187
-740,342	-200,000	0,017	0,064
-739,327	-100,498	-0,314	-0,057
-738,312	-200,000	0,027	0,104
-737,298	-46,364	-0,204	0,073
-736,283	364,812	0,055	-0,082
-735,269	29,130	-0,143	-0,089
-734,254	24,627	0,128	-0,078
-733,239	-46,982	-0,507	-0,182
-732,225	-23,878	0,267	0,117
-731,210	-154,202	-0,132	0,006
-730,196	544,011	-0,087	-0,154
-729,181	-200,000	-0,005	-0,053
-728,167	73,663	0,065	0,050
-727,152	536,559	-0,042	-0,074
-726,137	46,368	-0,130	0,089
-725,123	800,000	-0,043	0,112
-724,108	-60,308	-0,145	-0,045
-723,094	-200,000	-0,003	-0,035
-722,079	-53,579	-0,178	-0,060
-721,064	-60,824	-0,013	-0,004
-720,050	244,008	-0,095	-0,117
-719,035	-155,427	-0,009	0,000
-718,021	87,650	-0,020	0,016
-717,006	-200,000	-0,009	-0,140
-715,991	131,049	-0,095	-0,090
-714,977	173,123	-0,180	-0,191
-713,962	-178,142	-0,081	-0,001
-712,948	-119,683	-0,082	-0,010
-711,933	-200,000	0,014	-0,080
-710,918	800,000	-0,097	-0,258
-709,904	2,821	0,103	-0,055
-708,889	-200,000	-0,031	-0,127
-707,875	800,000	-0,054	-0,115
-706,860	-200,000	0,007	-0,119
-705,845	133,226	-0,064	-0,061
-704,831	800,000	0,031	0,068
-703,816	-200,000	0,010	0,172
-702,802	-94,670	-0,069	-0,014
-701,787	-200,000	0,002	-0,118
-700,772	-2,820	-0,124	-0,064
-699,758	-8,317	-0,115	-0,057
-698,743	11,745	-0,052	0,029
-697,729	-200,000	-0,003	0,150
-696,714	-188,169	-0,142	-0,001
-695,699	125,050	-0,078	0,072
-694,685	496,921	-0,068	-0,115
-693,670	-179,192	-0,103	0,002
-692,656	32,860	0,069	-0,044
-691,641	-103,785	0,055	-0,009
-690,627	-200,000	-0,012	-0,105
-689,612	800,000	-0,025	0,076
-688,597	160,931	0,073	-0,075
-687,583	-200,000	-0,018	-0,085
-686,568	-14,336	-0,113	-0,053
-685,554	-128,378	-0,124	-0,013
-684,539	4,072	-0,039	-0,021
-683,524	127,145	-0,097	-0,090
-682,510	-200,000	0,044	-0,162
-681,495	309,860	-0,032	-0,044
-680,481	800,000	-0,033	0,074
-679,466	-2,850	-0,097	-0,050
-678,451	800,000	-0,053	-0,128
-677,437	800,000	0,022	-0,053
-676,422	666,323	0,003	-0,005
-675,408	-200,000	0,006	-0,111
-674,393	-200,000	-0,021	-0,087
-673,378	-70,602	-0,088	0,024
-672,364	-112,465	-0,042	0,006
-671,349	341,709	0,079	-0,115
-670,335	-104,583	-0,062	-0,010
-669,320	36,853	0,017	-0,011
-668,305	-124,071	0,022	0,002
-667,291	-174,930	-0,079	-0,002
-666,276	413,645	-0,130	-0,204
-665,262	-136,183	-0,089	-0,008
-664,247	177,409	-0,046	-0,049
-663,232	-148,351	-0,187	-0,011
-662,218	39,622	0,038	0,025
-661,203	105,974	-0,058	-0,050
-660,189	106,511	0,074	-0,065
-659,174	242,599	-0,022	-0,028
-658,159	-200,000	0,004	0,032
-657,145	104,448	-0,048	-0,041
-656,130	428,079	-0,051	-0,082
-655,116	55,855	-0,160	0,114
-654,101	11,618	-0,094	0,053
-653,086	39,616	-0,115	0,076
-652,072	59,792	-0,038	-0,028
-651,057	19,575	-0,122	-0,072
-650,043	101,122	-0,127	-0,109
-649,028	-69,273	-0,093	-0,026
-648,014	59,086	-0,056	0,040
-646,999	711,684	0,063	-0,123
-645,984	1,347	-0,124	0,065
-644,970	-200,000	0,003	-0,138
-643,955	306,753	-0,027	-0,037
-642,941	-65,219	0,146	0,043
-641,926	23,027	0,021	-0,013
-640,911	6,085	0,031	0,017
-639,897	-200,000	0,001	0,079
-638,882	104,542	-0,148	-0,128
-637,868	12,344	-0,090	0,051
-636,853	470,523	-0,038	-0,063
-635,838	248,768	0,060	-0,075
-634,824	4,060	-0,085	-0,046
-633,809	-200,000	0,007	-0,106
-632,795	-9,942	-0,067	-0,033
-631,780	800,000	-0,032	-0,077
-630,765	161,626	-0,139	-0,143
-629,751	-124,335	-0,066	-0,007
-628,736	11,828	-0,104	0,059
-627,722	-80,074	0,069	0,017
-626,707	-21,964	-0,078	-0,035
-625,692	391,514	-0,044	-0,067
-624,678	-129,288	0,035	0,003
-623,663	30,709	-0,179	-0,112
-622,649	800,000	-0,098	-0,244
-621,634	-200,000	0,007	-0,043
-620,619	101,493	0,030	-0,025
-619,605	-200,000	0,007	-0,036
-618,590	504,211	0,028	0,048
-617,576	681,709	0,010	0,019
-616,561	350,740	0,007	0,010
-615,546	800,000	-0,043	-0,110
-614,532	611,700	-0,052	-0,096
-613,517	394,979	-0,012	-0,019
-612,503	226,069	-0,079	-0,094
-611,488	-200,000	-0,032	0,123
-610,474	136,441	-0,065	-0,062
-609,459	352,380	-0,042	-0,061
-608,444	-200,000	0,023	0,076
-607,430	-64,060	-0,158	-0,047
-606,415	161,919	-0,144	-0,148
-605,401	650,697	0,030	0,056
-604,386	-36,624	0,038	0,015
-603,371	170,753	-0,080	0,085
-602,357	-200,000	-0,023	-0,085
-601,342	84,563	0,016	-0,013
-600,328	141,445	0,134	0,130
-599,313	-70,261	-0,184	0,051
-598,298	-138,743	-0,058	0,005
-597,284	28,585	0,093	-0,058
-596,269	-104,843	-0,047	-0,008
-595,255	-200,000	0,014	-0,051
-594,240	-200,000	-0,012	-0,111
-593,225	-90,391	-0,243	0,051
-592,211	-97,867	0,040	-0,008
-591,196	-6,080	-0,106	-0,053
-590,182	-200,000	0,023	-0,183
-589,167	-200,000	-0,028	0,126
-588,152	58,223	-0,021	0,015
-587,138	366,739	-0,017	-0,025
-586,123	-200,000	0,007	-0,036
-585,109	338,350	0,039	0,055
-584,094	175,563	-0,068	0,072
-583,079	800,000	-0,028	-0,071
-582,065	59,397	-0,136	0,098
-581,050	403,553	0,066	-0,103
-580,036	-45,532	-0,091	-0,033
-579,021	800,000	0,029	-0,060
-578,006	539,795	-0,047	0,082
-576,992	699,510	0,031	-0,060
-575,977	6,336	-0,081	0,044
-574,963	42,712	0,013	-0,009
-573,948	800,000	-0,023	-0,056
-572,934	425,338	-0,038	-0,060
-571,919	-200,000	0,010	0,039
-570,904	-200,000	-0,023	0,128
-569,890	-49,061	-0,011	0,004
-568,875	-200,000	-0,014	0,127
-567,861	-200,000	0,090	0,000
-566,846	135,445	0,082	0,078
-565,831	-98,531	-0,035	-0,006
-564,817	298,376	0,068	0,092
-563,802	176,135	-0,041	-0,044
-562,788	345,288	0,099	-0,143
-561,773	610,219	0,050	-0,092
-560,758	64,084	0,093	0,068
-559,744	800,000	-0,017	0,048
-558,729	800,000	0,021	0,066
-557,715	-115,712	-0,139	0,019
-556,700	-105,700	0,105	-0,017
-555,685	-130,988	0,019	0,002
-554,671	372,304	-0,014	-0,020
-553,656	800,000	-0,034	0,102
-552,642	-103,469	0,081	0,014
-551,627	-47,170	0,038	0,014
-550,612	698,458	-0,001	0,002
-549,598	-200,000	0,032	-0,106
-548,583	-200,000	-0,009	-0,037
-547,569	800,000	-0,014	0,034
-546,554	800,000	-0,017	0,049
-545,539	39,658	0,030	0,020
-544,525	177,620	0,068	0,072
-543,510	-82,206	-0,065	-0,015
-542,496	28,565	-0,026	-0,016
-541,481	800,000	0,038	-0,107
-540,466	51,584	-0,161	0,112
-539,452	-91,178	0,113	0,024
-538,437	92,548	0,034	0,028
-537,423	-77,478	-0,081	0,020
-536,408	169,858	-0,089	0,094
-535,393	800,000	-0,024	-0,075
-534,379	-200,000	0,005	-0,051
-533,364	-117,082	0,087	-0,012
-532,350	334,636	0,025	0,036
-531,335	454,476	-0,057	0,093
-530,321	4,272	-0,094	0,050
-529,306	800,000	-0,039	0,118
-528,291	322,191	-0,042	-0,058
-527,277	241,183	-0,080	-0,098
-526,262	-200,000	0,008	-0,066
-525,248	-200,000	0,001	0,014
-524,233	-40,078	0,066	0,025
-523,218	286,125	0,011	0,014
-522,204	-6,368	0,170	-0,085
-521,189	800,000	-0,039	-0,113
-520,175	-6,891	-0,059	0,029
-519,160	12,821	0,018	0,010
-518,145	800,000	0,060	0,122
-517,131	-56,586	0,098	0,032
-516,116	164,961	-0,055	-0,057
-515,102	179,344	-0,028	-0,030
-514,087	800,000	-0,056	0,134
-513,072	800,000	-0,067	-0,179
-512,058	800,000	-0,037	-0,106
-511,043	-27,595	0,052	0,022
-510,029	800,000	-0,011	-0,029
-509,014	800,000	0,046	0,144
-507,999	397,149	0,024	0,037
-506,985	-60,829	-0,098	-0,030
-505,970	350,153	0,059	-0,086
-504,956	-200,000	-0,024	-0,107
-503,941	-17,207	0,086	-0,039
-502,926	-53,401	-0,114	-0,038
-501,912	92,233	0,038	0,031
-500,897	-200,000	-0,005	0,095
-499,883	-37,254	0,168	0,065
-498,868	800,000	0,015	-0,037
-497,853	268,568	-0,073	-0,094
-496,839	-200,000	-0,009	-0,058
-495,824	33,920	0,068	-0,043
-494,810	-94,957	0,126	0,025
-493,795	318,301	-0,130	0,181
-492,781	530,175	-0,022	0,039
-491,766	800,000	-0,025	-0,075
-490,751	-200,000	-0,001	-0,060
-489,737	557,064	0,052	-0,091
-488,722	73,713	0,065	0,050
-487,708	-2,183	0,087	-0,044
-486,693	-200,000	0,008	-0,035
-485,678	10,020	0,071	-0,039
-484,664	28,505	-0,121	-0,075
-483,649	800,000	0,019	-0,061
-482,635	-93,312	0,054	-0,011
-481,620	103,718	0,099	0,085
-480,605	-117,963	-0,115	-0,015
-479,591	-200,000	0,018	-0,093
-478,576	-99,212	0,078	0,014
-477,562	-200,000	0,002	0,029
-476,547	75,269	-0,093	0,071
-475,532	639,008	0,035	0,066
-474,518	-103,039	0,097	0,017
-473,503	800,000	0,018	0,056
-472,489	-200,000	0,008	0,043
-471,474	241,490	0,063	0,077
-470,459	-115,768	0,151	0,020
-469,445	238,724	0,021	0,025
-468,430	800,000	0,041	0,104
-467,416	51,337	0,085	-0,059
-466,401	800,000	-0,012	-0,030
-465,386	-160,717	0,068	-0,003
-464,372	800,000	0,007	0,019
-463,357	107,196	-0,079	0,068
-462,343	87,068	-0,030	-0,024
-461,328	167,751	0,007	0,007
-460,313	800,000	0,017	0,049
-459,299	-200,000	0,007	0,101
-458,284	800,000	0,045	0,131
-457,270	800,000	-0,048	0,134
-456,255	-33,037	0,092	-0,037
-455,241	-74,267	-0,076	-0,020
-454,226	-200,000	0,011	0,115
-453,211	339,203	-0,088	0,125
-452,197	144,086	0,096	-0,094
-451,182	-104,449	-0,095	0,016
-450,168	458,143	-0,050	-0,082
-449,153	69,848	0,004	-0,003
-448,138	88,147	-0,081	-0,066
-447,124	61,542	-0,023	-0,017
-446,109	16,296	0,089	0,051
-445,095	67,989	0,037	0,027
-444,080	-200,000	-0,025	0,109
-443,065	800,000	-0,018	0,050
-442,051	-200,000	0,011	-0,052
-441,036	-40,706	-0,016	-0,006
-440,022	-63,001	-0,133	0,040
-439,007	-200,000	0,008	-0,052
-437,992	-200,000	-0,023	0,097
-436,978	800,000	-0,011	0,025
-435,963	296,745	-0,026	0,035
-434,949	-200,000	0,002	0,131
-433,934	-200,000	-0,004	-0,051
-432,919	-200,000	0,015	0,083
-431,905	72,928	-0,053	0,040
-430,890	-200,000	-0,004	0,037
-429,876	-98,547	-0,095	-0,017
-428,861	125,924	0,036	0,033
-427,846	32,636	0,091	0,057
-426,832	-8,831	0,047	-0,023
-425,817	27,072	-0,056	0,034
-424,803	-23,607	-0,062	-0,027
-423,788	-200,000	-0,034	-0,113
-422,773	304,884	0,079	0,108
-421,759	-200,000	-0,010	0,072
-420,744	-32,463	-0,017	-0,007
-419,730	800,000	-0,005	-0,014
-418,715	-95,514	-0,175	0,034
-417,701	-70,112	-0,129	-0,036
-416,686	-168,138	-0,152	-0,004
-415,671	-112,717	0,103	0,015
-414,657	53,170	0,115	0,080
-413,642	-113,025	-0,041	0,006
-412,628	-34,088	-0,035	-0,014
-411,613	27,716	0,038	-0,023
-410,598	4,720	-0,112	0,060
-409,584	10,561	-0,021	0,011
-408,569	306,046	0,067	0,090
-407,555	-131,112	0,167	-0,016
-406,540	-103,709	-0,088	0,015
-405,525	-200,000	0,008	0,039
-404,511	71,112	-0,079	-0,060
-403,496	55,307	0,039	-0,027
-402,482	419,343	0,040	0,062
-401,467	9,485	0,059	0,032
-400,452	-71,631	0,097	-0,026
-399,438	675,936	0,013	0,025
-398,423	180,409	0,057	-0,061
-397,409	793,469	0,044	0,088
-396,394	-93,882	0,114	0,023
-395,379	-95,920	-0,057	0,011
-394,365	473,975	0,006	0,009
-393,350	380,808	0,032	0,048
-392,336	-29,891	0,051	-0,021
-391,321	-200,000	-0,033	0,134
-390,306	800,000	-0,022	0,047
-389,292	-200,000	-0,013	-0,074
-388,277	800,000	-0,032	0,074
-387,263	395,329	-0,081	0,124
-386,248	-86,037	0,189	0,042
-385,233	-177,110	-0,096	-0,002
-384,219	-75,554	-0,087	0,022
-383,204	381,391	0,059	0,088
-382,190	-15,559	-0,029	-0,013
-381,175	-71,169	0,096	0,026
-380,160	333,470	0,057	-0,080
-379,146	-72,390	0,119	0,032
-378,131	42,508	0,124	-0,082
-377,117	655,447	-0,059	0,111
-376,102	559,235	-0,046	-0,081
-375,088	257,751	-0,157	0,197
-374,073	115,266	0,051	-0,045
-373,058	-102,971	0,230	-0,039
-372,044	116,093	-0,050	0,045
-371,029	-200,000	-0,004	-0,257
-370,015	2,455	0,069	0,036
-369,000	126,866	0,037	-0,034
-367,985	1,504	0,103	0,054
-366,971	-106,303	-0,134	0,022
-365,956	-200,000	0,000	0,008
-364,942	47,439	-0,068	-0,046
-363,927	548,351	0,042	-0,074
-362,912	800,000	-0,040	0,107
-361,898	800,000	-0,012	0,030
-360,883	-200,000	-0,009	-0,071
-359,869	800,000	-0,032	-0,069
-358,854	-200,000	0,006	0,161
-357,839	-200,000	-0,025	-0,102
-356,825	59,456	0,084	0,060
-355,810	764,725	0,119	0,237
-354,796	37,400	-0,123	0,079
-353,781	309,141	-0,049	-0,067
-352,766	-127,890	0,098	0,010
-351,752	109,057	-0,067	-0,058
-350,737	-110,497	0,225	-0,034
-349,723	-84,344	-0,070	0,016
-348,708	176,883	0,070	0,075
-347,693	800,000	-0,017	-0,038
-346,679	-77,897	0,117	-0,029
-345,664	79,946	0,089	-0,069
-344,650	161,682	-0,082	0,084
-343,635	-22,165	0,045	0,020
-342,620	488,024	-0,018	0,031
-341,606	8,782	0,120	0,065
-340,591	-33,221	0,082	0,033
-339,577	75,297	-0,066	-0,051
-338,562	800,000	-0,033	-0,070
-337,548	800,000	-0,004	-0,011
-336,533	-200,000	0,027	0,201
-335,518	-200,000	0,007	0,102
-334,504	185,709	0,100	0,108
-333,489	559,108	-0,122	-0,215
-332,475	-200,000	0,008	0,055
-331,460	57,033	-0,150	-0,106
-330,445	-200,000	-0,043	-0,166
-329,431	196,197	0,038	0,042
-328,416	-111,106	-0,111	-0,016
-327,402	-38,240	0,128	0,049
-326,387	211,014	-0,050	0,057
-325,372	-200,000	0,017	0,173
-324,358	624,833	0,057	0,105
-323,343	0,406	0,070	-0,036
-322,329	-51,019	0,181	0,061
-321,314	481,912	-0,016	-0,027
-320,299	-94,430	0,127	-0,025
-319,285	28,327	0,134	-0,082
-318,270	125,658	-0,109	-0,099
-317,256	800,000	-0,001	-0,003
-316,241	289,529	-0,076	-0,100
-315,226	602,920	0,051	0,092
-314,212	-60,663	0,082	0,025
-313,197	800,000	-0,047	-0,107
-312,183	70,431	0,098	-0,073
-311,168	130,738	-0,028	0,026
-310,153	317,421	0,088	-0,121
-309,139	136,376	0,005	-0,005
-308,124	417,102	0,054	-0,084
-307,110	55,593	0,118	0,083
-306,095	-62,105	0,144	-0,043
-305,080	-200,000	0,001	-0,009
-304,066	-200,000	0,009	-0,038
-303,051	-17,795	0,021	-0,010
-302,037	-70,493	0,052	-0,014
-301,022	800,000	0,019	0,041
-300,008	-200,000	0,024	-0,152
-298,993	-200,000	-0,012	-0,116
-297,978	-85,330	0,030	-0,007
-296,964	-200,000	0,013	-0,054
-295,949	800,000	-0,020	-0,058
-294,935	-200,000	0,028	-0,122
-293,920	-200,000	-0,003	0,042
-292,905	107,198	0,048	0,041
-291,891	800,000	0,013	-0,028
-290,876	11,682	0,111	0,062
-289,862	157,870	0,047	-0,047
-288,847	-177,454	-0,137	0,002
-287,832	676,806	-0,043	-0,082
-286,818	800,000	0,082	-0,172
-285,803	-100,275	-0,043	0,008
-284,789	-130,383	-0,124	0,012
-283,774	-200,000	-0,018	0,089
-282,759	250,321	-0,053	-0,066
-281,745	112,372	0,077	-0,067
-280,730	-53,418	0,147	-0,049
-279,716	120,187	0,055	0,049
-278,701	-200,000	-0,005	0,036
-277,686	477,711	0,082	0,134
-276,672	-172,538	-0,082	-0,002
-275,657	130,531	0,137	-0,127
-274,643	800,000	-0,059	-0,143
-273,628	19,572	-0,080	-0,047
-272,613	120,072	-0,050	-0,045
-271,599	53,557	0,059	-0,041
-270,584	-45,809	0,105	-0,037
-269,570	632,687	0,060	-0,111
-268,555	-200,000	0,030	0,104
-267,540	-200,000	0,006	0,035
-266,526	-200,000	-0,018	0,094
-265,511	400,742	-0,034	-0,051
-264,497	-139,931	0,089	-0,007
-263,482	121,375	-0,113	0,102
-262,467	515,297	-0,017	-0,029
-261,453	94,017	0,108	0,089
-260,438	-55,750	0,176	-0,057
-259,424	800,000	0,054	-0,159
-258,409	-169,841	0,025	0,001
-257,395	259,112	-0,073	-0,092
-256,380	154,844	0,036	-0,036
-255,365	79,839	0,048	-0,038
-254,351	132,912	0,083	-0,078
-253,336	-200,000	-0,018	-0,083
-252,322	-75,418	-0,170	0,043
-251,307	784,368	0,017	0,034
-250,292	-200,000	-0,025	0,144
-249,278	-190,617	0,047	0,000
-248,263	-200,000	-0,010	0,118
-247,249	177,467	-0,026	0,027
-246,234	271,405	0,091	-0,117
-245,219	-200,000	-0,010	0,069
-244,205	-200,000	0,004	-0,065
-243,190	-200,000	0,019	0,115
-242,176	-200,000	-0,007	-0,051
-241,161	109,231	0,122	0,106
-240,146	249,111	-0,031	0,038
-239,132	65,928	0,146	0,107
-238,117	-200,000	-0,003	-0,151
-237,103	800,000	0,014	0,038
-236,088	-200,000	-0,000	0,071
-235,073	-200,000	-0,007	0,025
-234,059	800,000	0,026	-0,064
-233,044	-152,322	0,095	0,005
-232,030	145,631	-0,029	-0,028
-231,015	800,000	-0,022	0,050
-230,000	26,044	-0,024	-0,014
-228,986	75,939	0,114	-0,087
-227,971	15,245	0,033	0,019
-226,957	-78,243	-0,077	-0,019
-225,942	465,736	0,021	0,034
-224,927	538,588	0,038	0,066
-223,913	41,663	0,050	-0,033
-222,898	-200,000	0,014	-0,053
-221,884	-200,000	0,010	-0,061
-220,869	-90,962	0,117	0,024
-219,855	374,605	0,013	-0,020
-218,840	492,853	-0,030	0,051
-217,825	88,599	0,047	0,038
-216,811	-200,000	0,021	-0,071
-215,796	703,867	-0,077	0,148
-214,782	-89,072	-0,132	-0,028
-213,767	379,267	0,060	-0,089
-212,752	-172,437	0,109	-0,002
-211,738	-200,000	-0,008	0,127
-210,723	-51,747	-0,044	0,015
-209,709	122,836	-0,116	0,105
-208,694	-200,000	0,015	0,128
-207,679	-74,538	-0,074	-0,019
-206,665	23,004	-0,032	0,019
-205,650	-200,000	0,001	0,140
-204,636	-72,648	-0,138	0,037
-203,621	800,000	0,059	-0,121
-202,606	-200,000	-0,034	-0,125
-201,592	69,903	-0,259	-0,192
-200,577	-46,910	0,103	-0,036
-199,563	800,000	-0,031	0,078
-198,548	-200,000	-0,004	0,159
-197,533	353,887	-0,066	-0,095
-196,519	-77,442	0,057	0,014
-195,504	-200,000	0,003	-0,119
-194,490	-200,000	0,039	-0,148
-193,475	-200,000	0,025	-0,082
-192,460	88,677	-0,089	0,072
-191,446	-200,000	-0,003	-0,016
-190,431	800,000	0,042	0,086
-189,417	9,477	0,125	0,068
-188,402	-200,000	-0,029	-0,094
-187,387	-108,675	-0,082	-0,013
-186,373	358,063	-0,094	0,136
-185,358	-56,538	-0,036	-0,011
-184,344	800,000	-0,038	0,099
-183,329	142,408	0,017	0,016
-182,315	-53,691	-0,119	-0,039
-181,300	215,244	-0,079	0,090
-180,285	-44,542	-0,011	0,004
-179,271	-1,991	0,064	0,033
-178,256	-200,000	0,002	-0,093
-177,242	16,552	-0,071	0,041
-176,227	308,234	0,074	-0,100
-175,212	-86,127	-0,038	-0,008
-174,198	-200,000	0,000	0,048
-173,183	190,986	-0,028	-0,031
-172,169	-200,000	0,007	-0,075
-171,154	-10,115	-0,172	0,082
-170,139	522,288	0,086	0,146
-169,125	159,079	0,013	0,013
-168,110	-129,213	-0,069	0,007
-167,096	800,000	-0,044	-0,126
-166,081	50,624	-0,045	0,031
-165,066	176,002	-0,083	-0,087
-164,052	-127,937	-0,057	0,006
-163,037	-183,844	0,064	-0,001
-162,023	-200,000	-0,016	0,077
-161,008	800,000	-0,026	0,067
-159,993	-91,251	-0,204	-0,042
-158,979	800,000	0,058	-0,150
-157,964	489,099	0,046	0,075
-156,950	518,538	0,022	0,038
-155,935	-70,021	-0,161	0,044
-154,920	9,225	0,051	-0,027
-153,906	-200,000	-0,008	0,041
-152,891	119,100	0,047	0,042
-151,877	-63,354	-0,049	0,014
-150,862	-10,721	-0,129	-0,061
-149,847	-200,000	-0,006	0,061
-148,833	800,000	-0,042	-0,091
-147,818	800,000	-0,019	-0,048
-146,804	800,000	-0,063	-0,172
-145,789	454,572	0,014	0,023
-144,775	20,705	-0,132	0,077
-143,760	-30,972	-0,145	0,059
-142,745	78,218	-0,114	-0,087
-141,731	-16,604	0,059	0,027
-140,716	800,000	-0,043	0,131
-139,702	296,545	-0,078	0,104
-138,687	-200,000	-0,057	0,217
-137,672	-80,961	-0,107	0,025
-136,658	-82,720	-0,079	-0,018
-135,643	-91,411	-0,033	0,007
-134,629	800,000	-0,065	-0,131
-133,614	-70,322	0,048	-0,013
-132,599	42,907	-0,078	-0,051
-131,585	-200,000	0,047	0,000
-130,570	800,000	0,038	-0,104
-129,556	488,467	-0,018	-0,029
-128,541	82,079	-0,100	-0,078
-127,526	-200,000	-0,007	-0,032
-126,512	-200,000	0,022	0,077
-125,497	-80,402	0,138	-0,033
-124,483	800,000	0,054	-0,135
-123,468	-200,000	-0,001	0,167
-122,453	60,644	-0,069	0,049
-121,439	-101,052	-0,210	-0,037
-120,424	-119,849	-0,081	-0,010
-119,410	-200,000	0,001	0,031
-118,395	239,825	-0,049	0,059
-117,380	594,862	0,061	0,108
-116,366	-155,358	-0,101	-0,005
-115,351	800,000	0,056	0,141
-114,337	-114,960	-0,124	-0,017
-113,322	800,000	-0,093	0,187
-112,307	-7,263	0,091	0,044
-111,293	-200,000	0,000	-0,008
-110,278	-200,000	0,013	0,135
-109,264	-74,660	-0,011	-0,003
-108,249	-47,450	-0,031	0,011
-107,234	-41,499	-0,112	-0,041
-106,220	-37,130	0,050	-0,019
-105,205	358,688	0,101	-0,145
-104,191	-31,266	0,092	-0,037
-103,176	-200,000	-0,001	-0,028
-102,162	709,600	0,041	-0,079
-101,147	139,397	-0,085	0,081
-100,132	119,253	0,067	0,060
-99,118	-86,260	-0,113	0,025
-98,103	-200,000	0,009	-0,056
-97,089	21,027	0,117	0,068
-96,074	-102,237	0,062	-0,011
-95,059	-88,594	-0,154	0,033
-94,045	-200,000	0,009	-0,068
-93,030	-200,000	-0,003	0,065
-92,016	-7,905	-0,076	-0,037
-91,001	-200,000	0,014	-0,054
-89,986	-130,421	0,096	0,009
-88,972	-200,000	0,004	0,063
-87,957	-129,588	-0,024	0,002
-86,943	117,949	-0,073	-0,065
-85,928	-200,000	0,018	-0,059
-84,913	-21,886	-0,076	-0,033
-83,899	-50,230	0,018	0,006
-82,884	-126,465	0,062	0,007
-81,870	800,000	-0,011	-0,035
-80,855	437,791	-0,020	0,031
-79,840	-59,534	0,100	-0,031
-78,826	149,683	-0,120	-0,117
-77,811	800,000	-0,023	0,068
-76,797	531,431	-0,006	0,010
-75,782	-21,831	-0,085	-0,037
-74,767	800,000	0,052	0,145
-73,753	-117,991	-0,108	-0,014
-72,738	-79,066	0,055	0,013
-71,724	-200,000	0,008	-0,025
-70,709	800,000	-0,095	-0,224
-69,694	-200,000	-0,003	-0,052
-68,680	-40,337	0,162	0,060
-67,665	800,000	0,022	-0,044
-66,651	-200,000	0,010	0,077
-65,636	164,403	-0,054	0,055
-64,622	-200,000	-0,073	0,000
-63,607	402,137	-0,061	-0,093
-62,592	-4,237	0,061	0,030
-61,578	121,413	-0,031	-0,028
-60,563	112,995	-0,077	0,067
-59,549	313,820	-0,028	0,038
-58,534	-19,388	-1,922	-0,852
-57,519	800,000	-0,302	-0,940
-56,505	-200,000	-1,252	-4,986
-55,490	-23,085	0,717	0,309
-54,476	800,000	5,351	12,096
-53,461	-200,000	17,462	284,645
-52,446	800,000	724,610	2224,551
-51,432	540,821	1640,422	2815,485
-50,417	111,177	1631,811	1410,918
-49,403	75,522	1286,322	973,822
-48,388	32,436	1028,212	636,106
-47,373	20,224	989,987	572,171
-46,359	18,632	978,127	560,070
-45,344	15,981	974,233	549,137
-44,330	16,169	972,741	548,890
-43,315	15,804	970,849	546,610
-42,300	15,719	969,764	545,698
-41,286	15,691	968,673	544,973
-40,271	15,778	967,659	544,662
-39,257	15,716	966,762	543,933
-38,242	15,706	966,107	543,513
-37,227	15,731	965,267	543,097
-36,213	15,678	964,523	542,486
-35,198	15,708	963,417	541,941
-34,184	15,708	962,956	541,658
-33,169	15,694	961,796	540,941
-32,154	15,777	960,666	540,552
-31,140	15,736	959,934	539,986
-30,125	15,751	959,409	539,719
-29,111	15,808	958,319	539,266
-28,096	15,719	957,788	538,660
-27,082	15,707	957,232	538,286
-26,067	15,775	956,363	537,994
-25,052	15,699	955,581	537,291
-24,038	15,756	954,817	537,023
-23,023	15,652	954,140	536,286
-22,009	15,699	953,699	536,167
-20,994	15,777	952,968	535,986
-19,979	15,746	952,373	535,529
-18,965	15,760	951,671	535,159
-17,950	15,709	951,149	534,681
-16,936	15,666	950,632	534,231
-15,921	15,704	949,828	533,882
-14,906	15,612	949,193	533,208
-13,892	15,586	948,396	532,657
-12,877	15,607	947,985	532,471
-11,863	15,575	947,232	531,927
-10,848	15,578	946,721	531,628
-9,833	15,681	946,130	531,603
-8,819	15,638	945,675	531,187
-7,804	15,615	944,937	530,681
-6,790	15,611	944,333	530,307
-5,775	15,633	943,828	530,072
-4,760	15,637	942,940	529,563
-3,746	15,683	942,526	529,458
-2,731	15,477	941,831	528,394
-1,717	15,474	941,012	527,905
-0,702	15,499	940,491	527,671
0,313	15,287	939,752	527,382
1,327	18,400	937,691	535,993
2,342	27,483	794,686	478,323
3,356	24,178	459,024	271,210
4,371	-3,113	314,038	156,575
5,386	-7,231	295,637	143,228
6,400	-9,250	289,651	138,315
7,415	-9,806	287,410	136,685
8,429	-9,766	285,701	135,900
9,444	-9,857	284,767	135,355
10,459	-9,774	284,248	135,176
11,473	-9,894	283,576	134,729
12,488	-9,661	283,012	134,674
13,502	-9,832	282,552	134,278
14,517	-9,802	282,176	134,116
15,531	-9,779	281,660	133,881
16,546	-9,806	281,292	133,668
17,561	-9,771	281,012	133,557
18,575	-9,699	280,572	133,406
19,590	-9,695	280,267	133,252
20,604	-9,775	279,905	132,992
21,619	-9,831	279,694	132,826
22,634	-9,951	279,267	132,497
23,648	-9,829	279,014	132,481
24,663	-9,961	278,794	132,239
25,677	-9,940	278,543	132,128
26,692	-9,766	278,166	132,103
27,707	-9,883	277,940	131,873
28,721	-9,803	277,687	131,817
29,736	-9,760	277,394	131,707
30,750	-9,697	277,099	131,615
31,765	-9,600	276,681	131,496
32,780	-9,775	276,656	131,307
33,794	-9,877	276,363	131,060
34,809	-9,795	276,036	130,971
35,823	-9,842	275,871	130,836
36,838	-9,842	275,655	130,723
37,853	-9,872	275,313	130,520
38,867	-9,735	274,990	130,484
39,882	-9,814	274,770	130,294
40,896	-9,909	274,753	130,185
41,911	-9,882	274,341	130,004
42,926	-9,748	274,089	129,998
43,940	-10,140	273,925	129,543
44,955	-9,955	273,673	129,585
45,969	-9,992	273,339	129,380
46,984	-10,118	273,192	129,182
47,999	-10,291	272,901	128,871
49,013	-10,396	272,774	128,702
50,028	-10,340	272,269	128,504
51,042	-10,575	272,267	128,274
52,057	-10,497	271,858	128,142
53,071	-10,540	271,829	128,077
54,086	-10,293	271,268	128,030
55,101	-10,110	271,386	128,243
56,115	-10,107	271,193	128,144
57,130	-9,737	271,020	128,392
58,144	-9,683	270,752	128,303
59,159	-9,864	270,724	128,112
60,174	-9,832	270,364	127,960
61,188	-9,745	270,205	127,953
62,203	-9,790	269,915	127,763
63,217	-9,671	269,630	127,726
64,232	-9,521	269,518	127,800
65,247	-9,665	269,337	127,569
66,261	-9,823	269,076	127,290
67,276	-9,981	268,793	127,000
68,290	-10,042	268,627	126,855
69,305	-9,940	268,330	126,796
70,320	-10,107	268,187	126,565
71,334	-9,751	268,045	126,811
72,349	-9,754	267,812	126,687
73,363	-9,803	267,540	126,503
74,378	-9,618	267,385	126,587
75,393	-9,687	266,964	126,313
76,407	-9,965	266,937	126,036
77,422	-9,631	266,753	126,242
78,436	-9,567	266,338	126,092
79,451	-9,703	266,305	125,941
80,466	-9,865	266,071	125,673
81,480	-9,691	265,751	125,669
82,495	-9,835	265,571	125,442
83,509	-9,757	265,391	125,416
84,524	-9,895	265,146	125,164
85,539	-9,916	264,780	124,962
86,553	-9,920	264,558	124,842
87,568	-9,911	264,478	124,802
88,582	-9,904	264,286	124,706
89,597	-9,893	264,100	124,617
90,611	-9,720	263,970	124,699
91,626	-9,789	263,929	124,607
92,641	-9,774	263,738	124,520
93,655	-9,733	263,419	124,394
94,670	-9,745	263,233	124,285
95,684	-9,906	263,027	124,033
96,699	-9,821	262,763	123,973
97,714	-9,783	262,620	123,929
98,728	-9,965	262,229	123,570
99,743	-9,924	262,043	123,508
100,757	-10,129	261,823	123,212
101,772	-9,854	261,759	123,415
102,787	-9,873	261,625	123,323
103,801	-9,727	261,441	123,356
104,816	-9,663	261,104	123,242
105,830	-9,558	261,056	123,302
106,845	-9,791	260,828	122,977
107,860	-9,677	260,637	122,977
108,874	-9,821	260,467	122,758
109,889	-9,785	260,117	122,615
110,903	-9,815	259,973	122,509
111,918	-9,733	259,866	122,520
112,933	-9,786	259,791	122,427
113,947	-9,688	259,433	122,334
114,962	-9,782	259,337	122,194
115,976	-9,804	259,118	122,061
116,991	-9,817	258,794	121,886
118,006	-9,777	258,612	121,825
119,020	-9,558	258,625	122,012
120,035	-9,695	258,525	121,834
121,049	-9,675	258,184	121,680
122,064	-9,697	257,946	121,537
123,079	-9,808	257,848	121,383
124,093	-9,716	257,690	121,378
125,108	-9,843	257,269	121,059
126,122	-10,030	257,045	120,780
127,137	-10,087	256,852	120,629
128,151	-9,957	256,631	120,627
129,166	-9,874	256,618	120,682
130,181	-9,933	256,345	120,492
131,195	-9,924	256,050	120,350
132,210	-9,833	255,889	120,343
133,224	-9,782	256,008	120,433
134,239	-9,653	255,678	120,378
135,254	-9,582	255,536	120,362
136,268	-10,050	255,339	119,854
137,283	-10,147	254,995	119,598
138,297	-10,242	254,803	119,415
139,312	-10,094	254,426	119,356
140,327	-10,014	254,551	119,473
141,341	-9,799	254,512	119,629
142,356	-9,681	254,150	119,549
143,370	-9,701	254,031	119,465
144,385	-9,379	253,747	119,597
145,400	-9,689	253,664	119,282
146,414	-9,732	253,460	119,138
147,429	-9,782	253,409	119,061
148,443	-9,652	253,204	119,065
149,458	-9,425	252,970	119,139
150,473	-9,673	252,867	118,868
151,487	-9,714	252,561	118,678
152,502	-9,685	252,510	118,668
153,516	-9,311	252,243	118,851
154,531	-9,707	252,096	118,434
155,546	-9,527	251,956	118,511
156,560	-9,653	251,751	118,297
157,575	-9,861	251,692	118,081
158,589	-9,728	251,291	117,995
159,604	-9,330	251,056	118,212
160,619	-9,673	250,944	117,858
161,633	-9,510	250,786	117,911
162,648	-9,576	250,630	117,772
163,662	-9,546	250,537	117,743
164,677	-9,494	250,403	117,714
165,692	-9,552	250,217	117,567
166,706	-9,509	249,925	117,455
167,721	-9,530	249,641	117,294
168,735	-9,575	249,656	117,253
169,750	-9,620	249,404	117,086
170,764	-9,510	249,362	117,148
171,779	-9,244	249,117	117,246
172,794	-9,520	248,971	116,935
173,808	-9,730	248,912	116,721
174,823	-9,871	248,440	116,371
175,837	-10,164	248,280	116,040
176,852	-9,703	248,225	116,390
177,867	-9,475	248,330	116,620
178,881	-9,523	248,022	116,424
179,896	-9,458	247,809	116,369
180,910	-9,498	247,597	116,225
181,925	-9,521	247,454	116,128
182,940	-9,574	247,272	115,989
183,954	-9,677	247,151	115,836
184,969	-9,411	246,971	115,962
185,983	-9,448	246,856	115,868
186,998	-9,584	246,571	115,610
188,013	-9,421	246,405	115,657
189,027	-9,448	246,293	115,572
190,042	-9,322	245,952	115,506
191,056	-9,626	245,929	115,233
192,071	-9,589	245,852	115,217
193,086	-9,526	245,601	115,141
194,100	-9,623	245,524	115,015
195,115	-9,482	245,274	115,004
196,129	-9,314	244,951	114,981
197,144	-9,318	244,831	114,911
198,159	-9,623	244,719	114,597
199,173	-9,477	244,480	114,595
200,188	-9,755	244,521	114,376
201,202	-9,841	244,181	114,136
202,217	-9,875	243,637	113,843
203,232	-9,990	243,588	113,716
204,246	-9,761	243,607	113,902
205,261	-9,396	243,551	114,165
206,275	-10,118	243,076	113,342
207,290	-6,875	244,534	116,677
208,304	-0,039	246,790	123,400
209,319	3,813	247,552	126,956
210,334	4,405	247,612	127,465
211,348	4,529	247,508	127,502
212,363	4,690	247,318	127,526
213,377	4,726	247,295	127,533
214,392	4,865	247,208	127,591
215,407	4,577	246,949	127,209
216,421	4,573	246,673	127,053
217,436	4,793	246,688	127,229
218,450	4,927	246,459	127,209
219,465	4,473	246,333	126,761
220,480	4,533	246,181	126,721
221,494	4,308	245,916	126,388
222,509	4,190	245,752	126,196
223,523	4,004	245,717	126,015
224,538	3,849	245,347	125,687
225,553	4,232	245,111	125,868
226,567	4,169	245,018	125,758
227,582	4,165	244,854	125,659
228,596	4,326	244,745	125,723
229,611	4,106	244,497	125,405
230,626	3,909	244,291	125,128
231,640	3,773	244,251	124,985
232,655	4,175	243,963	125,154
233,669	4,156	243,681	124,983
234,684	3,795	243,624	124,649
235,699	4,112	243,795	124,982
236,713	4,273	243,611	125,008
237,728	3,958	243,177	124,519
238,742	3,862	243,113	124,398
239,757	3,872	242,824	124,246
240,772	3,783	242,821	124,161
241,786	4,115	242,526	124,268
242,801	3,888	242,443	124,032
243,815	4,177	242,246	124,153
244,830	4,267	242,056	124,116
245,844	4,158	242,044	124,012
246,859	3,944	241,865	123,737
247,874	3,899	241,679	123,594
248,888	4,038	241,463	123,584
249,903	4,187	241,413	123,667
250,917	4,230	241,421	123,695
251,932	4,093	241,320	123,522
252,947	4,213	240,969	123,428
253,961	3,852	240,833	123,058
254,976	3,923	240,742	123,057
255,990	4,535	240,503	123,413
257,005	4,050	240,144	122,831
258,020	3,915	240,060	122,670
259,034	3,833	240,001	122,563
260,049	3,949	239,975	122,631
261,063	3,890	239,711	122,439
262,078	3,994	239,472	122,388
263,093	4,391	239,346	122,628
264,107	4,180	239,338	122,446
265,122	3,896	239,124	122,100
266,136	4,103	238,833	122,105
267,151	4,432	238,900	122,389
268,166	3,998	238,614	121,888
269,180	3,855	238,302	121,604
270,195	4,490	238,328	122,109
271,209	4,581	238,309	122,161
272,224	4,274	237,998	121,747
273,239	3,679	237,833	121,183
274,253	3,773	237,693	121,175
275,268	3,995	237,501	121,241
276,282	4,402	237,175	121,384
277,297	3,861	237,152	120,936
278,312	3,921	237,106	120,949
279,326	4,091	237,083	121,060
280,341	3,963	236,905	120,858
281,355	3,940	236,650	120,699
282,370	4,216	236,489	120,822
283,384	4,030	236,378	120,609
284,399	3,952	236,176	120,435
285,414	3,736	235,869	120,098
286,428	3,881	235,955	120,245
287,443	3,642	235,917	120,027
288,457	4,059	235,549	120,155
289,472	4,322	235,452	120,300
290,487	4,046	235,201	119,946
291,501	3,860	235,092	119,735
292,516	3,684	234,806	119,441
293,530	3,687	234,867	119,464
294,545	4,048	234,791	119,696
295,560	4,019	234,657	119,594
296,574	3,931	234,234	119,299
297,589	3,855	234,113	119,168
298,603	4,389	234,094	119,562
299,618	4,286	233,970	119,409
300,633	4,086	233,882	119,198
301,647	4,229	233,696	119,203
302,662	4,597	233,546	119,401
303,676	4,417	233,484	119,219
304,691	4,461	233,224	119,109
305,706	4,537	233,085	119,086
306,720	4,468	233,098	119,029
307,735	4,341	232,814	118,776
308,749	4,076	232,542	118,423
309,764	3,995	232,397	118,276
310,779	3,998	232,258	118,197
311,793	3,771	232,051	117,907
312,808	3,766	231,843	117,787
313,822	3,743	231,637	117,654
314,837	3,878	231,571	117,713
315,852	3,616	231,582	117,508
316,866	3,898	231,417	117,629
317,881	3,881	231,220	117,506
318,895	3,980	231,210	117,566
319,910	4,435	231,147	117,871
320,925	4,124	230,868	117,481
321,939	3,856	230,679	117,170
322,954	4,163	230,421	117,262
323,968	4,025	230,344	117,107
324,983	3,890	230,090	116,865
325,997	4,215	230,223	117,169
327,012	4,218	230,204	117,152
328,027	4,079	229,803	116,832
329,041	4,371	229,846	117,065
330,056	4,838	229,845	117,408
331,070	4,873	229,674	117,337
332,085	4,574	229,243	116,880
333,100	4,258	229,271	116,645
334,114	4,216	229,016	116,473
335,129	4,468	228,956	116,622
336,143	4,542	228,777	116,577
337,158	4,594	228,607	116,519
338,173	4,440	228,424	116,300
339,187	4,167	228,273	116,006
340,202	4,325	228,097	116,025
341,216	4,271	228,040	115,945
342,231	4,046	227,778	115,633
343,246	4,138	227,685	115,644
344,260	4,256	227,382	115,569
345,275	4,372	227,485	115,698
346,289	4,318	227,414	115,611
347,304	4,364	227,244	115,549
348,319	4,579	227,097	115,625
349,333	4,343	226,734	115,253
350,348	4,090	226,584	114,977
351,362	4,115	226,654	115,021
352,377	3,908	226,427	114,742
353,392	3,800	226,332	114,603
354,406	4,052	226,066	114,646
355,421	195,992	1322,842	1401,414
356,435	157,113	1456,470	1401,407
