DTS Sentinel unit serial number:	SN410029Multiplexer serial number:	ORYXHardware model number:	OX2-SRSoftware version number:	ORYX F/W v4,00 Oryx Data Collector v3.7.2.0data status	okinstallation	B5 Nyhavnadifferential loss correction	single-endedforward channel	channel 2reverse channel	N/Adate	2023/12/13time	23:17:13forward acquisition time	300,00reverse acquisition time	0,00gamma	499,1914k internal	0,3154k external	0,3154temperature offset calibration	1,0000default loss term (dB/km)	0,3820temperature slope calibration	1,0000multiplexer offset coefficient	1,0000multiplexer slope coefficient	1,0000fibre end	0,00T internal ref (°C)	8,96T ext. ref 1 (°C)	-7,56T ext. ref 2 (°C)	-7,55length (m)	temperature (°C)	Stokes	anti-Stokes-744,400	86,548	0,115	0,094
-743,385	-41,204	-0,275	0,104
-742,371	14,049	0,206	0,118
-741,356	-79,107	-0,306	-0,076
-740,342	67,072	0,152	0,114
-739,327	-42,544	-0,432	-0,162
-738,312	-22,979	0,171	0,076
-737,298	-134,975	-0,429	-0,038
-736,283	-51,837	0,119	-0,041
-735,269	-37,205	-0,396	-0,155
-734,254	93,274	0,089	0,074
-733,239	-103,993	-0,633	-0,108
-732,225	-120,502	0,223	0,028
-731,210	-200,000	0,012	-0,043
-730,196	-200,000	-0,016	0,065
-729,181	-51,107	-0,040	-0,014
-728,167	-2,473	0,033	0,017
-727,152	128,324	-0,046	-0,043
-726,137	-47,232	-0,161	-0,057
-725,123	98,430	0,014	-0,012
-724,108	-200,000	0,008	0,139
-723,094	-200,000	-0,006	-0,056
-722,079	417,949	-0,112	-0,178
-721,064	617,993	-0,031	-0,058
-720,050	119,893	-0,026	0,024
-719,035	-200,000	0,017	0,102
-718,021	-11,782	0,084	-0,041
-717,006	-200,000	0,013	-0,173
-715,991	444,223	-0,086	-0,140
-714,977	-133,078	-0,040	-0,004
-713,962	-102,982	0,012	0,002
-712,948	-82,444	-0,100	-0,024
-711,933	-122,075	-0,145	0,017
-710,918	800,000	0,051	0,140
-709,904	-117,972	-0,051	0,007
-708,889	-200,000	0,002	-0,011
-707,875	-82,259	-0,047	0,011
-706,860	-60,171	0,022	0,007
-705,845	-200,000	-0,012	-0,097
-704,831	48,869	0,092	-0,063
-703,816	-168,967	0,059	-0,002
-702,802	228,003	0,035	-0,042
-701,787	316,535	0,060	0,084
-700,772	95,518	-0,033	-0,028
-699,758	800,000	-0,047	-0,110
-698,743	-159,419	0,113	-0,005
-697,729	73,798	-0,072	0,056
-696,714	800,000	0,042	0,135
-695,699	9,386	0,092	-0,051
-694,685	-18,039	-0,025	-0,011
-693,670	-131,743	-0,065	-0,006
-692,656	-200,000	-0,031	0,126
-691,641	-57,597	-0,097	-0,031
-690,627	-0,040	0,077	0,040
-689,612	58,455	0,146	-0,105
-688,597	100,038	-0,020	-0,017
-687,583	478,968	0,018	-0,029
-686,568	800,000	0,087	-0,198
-685,554	-139,273	-0,166	0,013
-684,539	-133,888	-0,038	-0,003
-683,524	800,000	0,062	0,160
-682,510	94,951	-0,084	-0,070
-681,495	246,498	0,038	-0,048
-680,481	-200,000	0,009	-0,054
-679,466	120,331	-0,174	-0,159
-678,451	25,461	-0,071	-0,043
-677,437	-109,132	-0,046	0,007
-676,422	131,861	0,012	0,012
-675,408	-200,000	-0,023	-0,075
-674,393	-53,994	-0,081	0,027
-673,378	-147,876	-0,106	0,006
-672,364	-84,228	-0,103	0,024
-671,349	-200,000	0,002	0,025
-670,335	-24,719	0,161	-0,070
-669,320	-200,000	-0,009	0,108
-668,305	-200,000	0,009	0,104
-667,291	-200,000	-0,037	0,253
-666,276	257,080	-0,057	0,073
-665,262	180,550	-0,105	-0,114
-664,247	355,556	0,006	-0,008
-663,232	-181,079	0,186	-0,003
-662,218	101,541	-0,097	0,083
-661,203	-10,822	-0,021	0,010
-660,189	-181,485	0,190	0,003
-659,174	51,278	-0,087	-0,060
-658,159	125,617	-0,056	-0,052
-657,145	634,112	0,066	-0,124
-656,130	-200,000	-0,019	-0,075
-655,116	-200,000	0,014	0,066
-654,101	-200,000	-0,021	0,075
-653,086	-200,000	0,019	0,129
-652,072	-200,000	-0,016	-0,067
-651,057	-200,000	0,000	0,022
-650,043	-28,851	0,019	-0,008
-649,028	90,925	0,070	0,058
-648,014	-153,012	0,200	-0,010
-646,999	800,000	0,034	0,073
-645,984	-62,547	0,049	-0,015
-644,970	-49,352	-0,125	0,044
-643,955	84,692	-0,133	0,107
-642,941	800,000	-0,035	-0,071
-641,926	292,549	0,097	-0,130
-640,911	800,000	-0,049	0,107
-639,897	-200,000	0,004	0,138
-638,882	104,094	0,101	0,087
-637,868	-27,969	-0,156	0,066
-636,853	67,227	-0,180	-0,135
-635,838	10,699	-0,025	-0,014
-634,824	-39,674	-0,073	-0,028
-633,809	-18,004	0,045	0,021
-632,795	-17,094	-0,078	0,036
-631,780	29,077	0,088	0,055
-630,765	-33,533	-0,065	-0,026
-629,751	800,000	-0,015	-0,032
-628,736	741,178	-0,024	-0,048
-627,722	286,440	-0,041	-0,054
-626,707	114,338	-0,048	-0,043
-625,692	-200,000	0,025	-0,097
-624,678	-118,837	-0,066	-0,008
-623,663	-26,535	0,147	-0,063
-622,649	-95,897	-0,143	0,028
-621,634	800,000	-0,036	-0,075
-620,619	200,239	-0,096	0,109
-619,605	-200,000	0,045	0,179
-618,590	-148,547	0,074	0,004
-617,576	800,000	0,028	0,076
-616,561	473,005	-0,069	0,114
-615,546	-200,000	0,034	-0,135
-614,532	64,632	-0,043	-0,032
-613,517	745,061	-0,087	-0,172
-612,503	371,257	0,021	0,032
-611,488	-14,039	0,146	-0,069
-610,474	422,321	-0,055	0,086
-609,459	800,000	-0,038	0,083
-608,444	-200,000	-0,003	0,048
-607,430	55,317	-0,060	0,043
-606,415	736,244	-0,083	-0,163
-605,401	33,091	-0,106	0,067
-604,386	-16,421	-0,164	0,076
-603,371	-200,000	0,009	-0,119
-602,357	77,468	-0,087	-0,068
-601,342	61,849	-0,076	0,055
-600,328	163,892	-0,082	-0,085
-599,313	575,272	-0,042	-0,075
-598,298	66,913	-0,034	-0,025
-597,284	-89,508	-0,038	-0,008
-596,269	800,000	0,030	-0,076
-595,255	-135,032	0,085	0,007
-594,240	170,398	0,011	0,011
-593,225	-200,000	0,019	-0,110
-592,211	470,251	-0,078	-0,128
-591,196	390,942	-0,097	-0,148
-590,182	190,949	0,119	0,132
-589,167	-129,386	-0,096	-0,010
-588,152	171,007	0,070	0,073
-587,138	168,156	0,010	0,010
-586,123	105,476	-0,040	0,035
-585,109	104,251	-0,031	0,027
-584,094	149,855	-0,054	0,054
-583,079	-140,742	0,073	0,005
-582,065	-7,570	0,112	0,055
-581,050	-45,754	-0,160	-0,058
-580,036	-90,597	0,078	0,016
-579,021	118,174	-0,100	-0,091
-578,006	-87,020	-0,074	0,016
-576,992	-43,814	-0,065	0,024
-575,977	800,000	-0,013	0,026
-574,963	184,714	0,115	-0,125
-573,948	-118,259	-0,027	-0,004
-572,934	-200,000	0,015	-0,078
-571,919	800,000	0,041	-0,125
-570,904	-119,749	-0,077	0,010
-569,890	-106,898	-0,013	-0,002
-568,875	130,278	0,080	-0,076
-567,861	186,351	-0,033	0,037
-566,846	87,675	0,075	0,061
-565,831	-166,145	-0,042	-0,001
-564,817	-32,538	-0,106	0,043
-563,802	248,346	-0,035	-0,044
-562,788	-9,758	-0,079	0,038
-561,773	278,765	0,076	-0,100
-560,758	598,781	0,028	0,050
-559,744	-200,000	0,035	0,165
-558,729	-200,000	0,003	0,030
-557,715	122,332	-0,093	-0,086
-556,700	187,853	0,075	0,082
-555,685	51,509	0,105	-0,073
-554,671	-74,165	0,138	-0,036
-553,656	-151,401	0,056	-0,003
-552,642	-113,072	0,054	-0,008
-551,627	106,111	-0,070	0,061
-550,612	50,258	-0,200	0,139
-549,598	800,000	0,025	0,051
-548,583	-33,162	-0,065	-0,026
-547,569	88,767	0,043	0,035
-546,554	800,000	0,046	0,095
-545,539	80,465	0,093	0,073
-544,525	-200,000	0,027	-0,131
-543,510	8,444	0,132	0,072
-542,496	-86,024	-0,110	0,025
-541,481	169,512	-0,088	-0,092
-540,466	-115,141	0,127	0,017
-539,452	-200,000	-0,017	0,070
-538,437	213,637	0,026	0,031
-537,423	-29,637	0,134	0,056
-536,408	800,000	0,020	-0,064
-535,393	82,814	-0,115	-0,091
-534,379	-2,969	-0,105	-0,053
-533,364	557,442	0,063	-0,112
-532,350	291,609	0,075	0,100
-531,335	-16,189	0,098	-0,045
-530,321	-200,000	0,014	0,062
-529,306	23,000	-0,218	-0,130
-528,291	35,293	-0,158	-0,101
-527,277	800,000	-0,074	-0,163
-526,262	-96,839	0,118	0,023
-525,248	-55,604	0,071	-0,023
-524,233	-6,009	-0,082	0,041
-523,218	-200,000	-0,009	0,115
-522,204	296,332	-0,068	0,092
-521,189	-60,540	-0,090	-0,028
-520,175	-200,000	-0,037	-0,129
-519,160	-157,406	-0,056	0,002
-518,145	370,574	-0,066	-0,099
-517,131	380,156	-0,051	-0,077
-516,116	-41,991	0,054	-0,020
-515,102	488,272	-0,083	0,138
-514,087	-10,727	-0,057	0,028
-513,072	29,488	0,080	0,050
-512,058	-200,000	-0,002	-0,055
-511,043	246,044	0,049	-0,060
-510,029	-200,000	-0,003	-0,012
-509,014	800,000	0,053	-0,121
-507,999	280,966	0,079	-0,104
-506,985	-124,694	-0,122	0,014
-505,970	131,132	-0,078	0,073
-504,956	21,864	-0,031	0,018
-503,941	243,625	0,103	0,126
-502,926	225,099	-0,067	0,079
-501,912	7,935	0,107	-0,058
-500,897	-134,666	-0,147	-0,013
-499,883	-200,000	-0,003	0,046
-498,868	133,925	0,081	-0,076
-497,853	800,000	0,043	-0,128
-496,839	800,000	0,019	-0,045
-495,824	-200,000	0,013	0,055
-494,810	800,000	0,033	0,073
-493,795	-200,000	-0,010	0,042
-492,781	800,000	0,040	-0,099
-491,766	-200,000	-0,014	-0,051
-490,751	84,307	-0,037	0,030
-489,737	282,768	0,015	-0,019
-488,722	-113,596	-0,113	0,016
-487,708	-87,656	0,092	0,020
-486,693	338,884	0,021	0,030
-485,678	-200,000	0,005	-0,016
-484,664	567,837	0,110	-0,196
-483,649	102,506	0,019	-0,016
-482,635	156,486	-0,035	-0,035
-481,620	72,254	0,109	0,083
-480,605	85,300	-0,024	0,019
-479,591	183,181	-0,048	0,051
-478,576	559,005	0,010	0,017
-477,562	-200,000	-0,004	-0,042
-476,547	-38,886	-0,079	-0,030
-475,532	222,784	0,040	-0,047
-474,518	-200,000	-0,004	-0,040
-473,503	47,447	-0,026	-0,018
-472,489	37,060	0,155	0,100
-471,474	169,834	-0,126	0,132
-470,459	-24,379	-0,056	-0,024
-469,445	344,678	0,067	-0,097
-468,430	-37,141	-0,086	0,033
-467,416	800,000	0,019	-0,044
-466,401	46,238	0,194	0,131
-465,386	314,128	-0,098	0,134
-464,372	-49,958	-0,118	0,041
-463,357	-146,440	-0,130	-0,008
-462,343	-200,000	-0,024	-0,139
-461,328	-200,000	0,021	-0,152
-460,313	14,804	0,009	0,005
-459,299	-69,884	0,062	-0,017
-458,284	-30,855	0,030	0,012
-457,270	800,000	-0,036	0,093
-456,255	-33,890	-0,152	-0,061
-455,241	139,590	0,014	0,013
-454,226	-200,000	-0,010	-0,060
-453,211	130,679	0,058	-0,054
-452,197	65,313	0,059	-0,043
-451,182	628,685	-0,041	0,076
-450,168	-200,000	-0,008	0,038
-449,153	-200,000	-0,009	0,045
-448,138	99,215	-0,028	0,023
-447,124	800,000	-0,027	-0,071
-446,109	245,547	0,047	0,058
-445,095	-72,154	-0,067	0,018
-444,080	-76,954	0,144	-0,036
-443,065	215,014	0,062	-0,072
-442,051	-200,000	-0,043	0,197
-441,036	10,041	-0,051	0,028
-440,022	-15,395	0,065	-0,030
-439,007	-200,000	0,007	-0,065
-437,992	64,226	-0,057	-0,042
-436,978	143,054	0,037	0,035
-435,963	-108,723	0,031	0,005
-434,949	-200,000	0,003	0,152
-433,934	-34,536	-0,124	-0,049
-432,919	164,219	0,065	0,067
-431,905	452,679	-0,025	0,041
-430,890	752,414	0,024	0,047
-429,876	163,722	0,036	0,037
-428,861	-21,805	-0,100	-0,044
-427,846	-200,000	0,008	0,082
-426,832	-7,336	-0,110	0,054
-425,817	-97,397	0,052	-0,010
-424,803	119,690	0,086	0,078
-423,788	243,361	-0,059	-0,072
-422,773	-22,750	0,047	0,020
-421,759	-127,678	0,145	0,015
-420,744	204,927	0,097	0,110
-419,730	31,279	0,139	-0,087
-418,715	14,087	-0,139	-0,078
-417,701	-37,237	0,048	-0,018
-416,686	-9,417	0,092	-0,045
-415,671	484,118	0,053	0,088
-414,657	-77,660	0,166	0,041
-413,642	-200,000	0,040	0,187
-412,628	-61,611	0,086	-0,026
-411,613	-71,316	0,103	-0,028
-410,598	8,645	-0,113	0,062
-409,584	-157,321	0,128	0,006
-408,569	129,059	-0,044	0,041
-407,555	-40,413	0,071	0,027
-406,540	-100,810	-0,067	-0,012
-405,525	-200,000	0,005	-0,088
-404,511	58,718	0,103	-0,073
-403,496	6,107	-0,092	0,049
-402,482	-178,607	-0,161	-0,003
-401,467	-51,096	0,022	-0,008
-400,452	545,590	0,046	0,081
-399,438	70,259	0,038	-0,028
-398,423	763,152	-0,057	-0,114
-397,409	392,464	-0,030	-0,045
-396,394	83,408	-0,090	0,071
-395,379	157,534	0,025	0,025
-394,365	800,000	0,022	0,050
-393,350	-200,000	0,029	0,137
-392,336	-59,560	-0,083	0,026
-391,321	210,311	-0,046	-0,052
-390,306	52,900	-0,015	0,011
-389,292	201,387	-0,086	-0,097
-388,277	-200,000	-0,010	0,044
-387,263	-79,168	0,130	-0,032
-386,248	-200,000	-0,011	0,075
-385,233	-200,000	0,004	0,135
-384,219	-200,000	-0,050	-0,164
-383,204	28,360	0,085	-0,052
-382,190	800,000	0,028	-0,084
-381,175	35,000	-0,106	-0,067
-380,160	83,194	-0,054	0,043
-379,146	-31,701	0,030	-0,012
-378,131	-70,401	0,019	0,005
-377,117	-200,000	-0,003	-0,110
-376,102	-200,000	0,002	-0,083
-375,088	-160,967	-0,153	0,006
-374,073	-47,248	0,102	0,036
-373,058	-124,451	-0,134	-0,015
-372,044	84,201	0,106	-0,084
-371,029	-120,290	0,059	-0,007
-370,015	-139,716	-0,057	-0,004
-369,000	218,701	0,015	0,018
-367,985	-200,000	0,003	0,077
-366,971	31,818	0,182	-0,114
-365,956	-200,000	-0,007	0,082
-364,942	178,952	0,063	-0,067
-363,927	-200,000	-0,034	0,151
-362,912	115,173	0,087	0,077
-361,898	148,302	0,075	-0,073
-360,883	-200,000	0,010	-0,097
-359,869	421,642	-0,071	-0,111
-358,854	-41,207	0,122	-0,046
-357,839	497,565	0,018	0,031
-356,825	-84,721	0,086	0,019
-355,810	800,000	-0,022	-0,061
-354,796	569,040	0,085	0,151
-353,781	709,092	-0,031	0,060
-352,766	-5,370	-0,006	-0,003
-351,752	-200,000	0,010	-0,060
-350,737	73,092	0,096	0,073
-349,723	800,000	-0,056	0,119
-348,708	-166,767	-0,036	-0,001
-347,693	47,513	-0,082	-0,055
-346,679	-28,493	-0,090	-0,038
-345,664	800,000	-0,068	-0,144
-344,650	-200,000	-0,014	-0,049
-343,635	-119,208	0,027	0,003
-342,620	-200,000	0,027	-0,090
-341,606	-200,000	-0,007	-0,093
-340,591	213,477	0,087	0,100
-339,577	-200,000	-0,010	-0,085
-338,562	188,162	0,087	0,094
-337,548	-43,251	-0,023	0,008
-336,533	-159,461	-0,115	0,005
-335,518	-36,423	0,149	-0,058
-334,504	-50,639	0,091	0,031
-333,489	-200,000	-0,012	-0,099
-332,475	-200,000	0,010	-0,044
-331,460	-200,000	-0,003	-0,060
-330,445	-200,000	-0,003	0,053
-329,431	628,094	0,018	0,034
-328,416	-200,000	0,034	0,111
-327,402	191,156	-0,043	0,047
-326,387	800,000	-0,040	0,092
-325,372	114,190	0,046	0,041
-324,358	122,213	0,008	0,007
-323,343	-117,656	-0,131	0,017
-322,329	-109,118	-0,116	-0,018
-321,314	-200,000	0,025	0,106
-320,299	-200,000	-0,007	0,111
-319,285	34,988	-0,065	-0,041
-318,270	155,425	0,046	0,046
-317,256	800,000	-0,015	-0,035
-316,241	194,608	0,042	-0,046
-315,226	-200,000	0,015	-0,081
-314,212	87,966	0,097	-0,078
-313,197	-157,222	-0,129	0,006
-312,183	-65,148	-0,088	0,026
-311,168	468,416	0,066	0,109
-310,153	65,389	-0,018	0,013
-309,139	-145,146	-0,038	0,002
-308,124	-17,791	0,110	-0,050
-307,110	179,589	-0,028	0,029
-306,095	-8,114	-0,039	-0,019
-305,080	-120,809	0,044	0,005
-304,066	-22,425	0,087	0,038
-303,051	351,910	0,105	-0,152
-302,037	110,415	-0,038	-0,033
-301,022	61,882	0,084	0,061
-300,008	-79,289	0,103	0,025
-298,993	-178,775	-0,105	0,002
-297,978	492,894	-0,089	0,148
-296,964	800,000	0,020	-0,061
-295,949	-48,950	0,159	-0,055
-294,935	133,508	-0,088	-0,082
-293,920	-200,000	-0,017	0,082
-292,905	-200,000	-0,030	0,139
-291,891	91,786	0,126	-0,103
-290,876	800,000	0,023	0,052
-289,862	-13,979	-0,099	0,046
-288,847	-105,126	0,102	-0,017
-287,832	800,000	-0,025	0,075
-286,818	800,000	-0,024	0,051
-285,803	-117,634	0,114	-0,015
-284,789	-67,797	-0,053	-0,015
-283,774	-90,337	-0,029	0,006
-282,759	38,519	0,113	0,073
-281,745	-200,000	-0,011	-0,052
-280,730	-200,000	-0,043	-0,146
-279,716	-200,000	-0,051	-0,170
-278,701	148,312	0,043	-0,042
-277,686	-46,792	0,131	0,046
-276,672	184,284	0,037	-0,040
-275,657	283,891	-0,014	-0,018
-274,643	-200,000	-0,044	-0,238
-273,628	34,394	-0,023	0,015
-272,613	-200,000	0,003	0,072
-271,599	1,345	-0,042	0,022
-270,584	-200,000	0,003	0,026
-269,570	800,000	0,023	-0,057
-268,555	173,605	0,095	0,100
-267,540	235,722	0,035	-0,043
-266,526	800,000	0,018	-0,048
-265,511	800,000	0,060	-0,171
-264,497	-200,000	-0,007	0,034
-263,482	-200,000	-0,008	0,030
-262,467	-200,000	0,008	0,032
-261,453	67,308	-0,023	0,017
-260,438	-111,880	0,138	-0,020
-259,424	-200,000	0,000	-0,038
-258,409	800,000	0,035	0,087
-257,395	-200,000	0,006	0,051
-256,380	283,398	0,093	0,121
-255,365	-200,000	0,030	0,101
-254,351	231,018	-0,042	0,050
-253,336	-116,425	-0,078	-0,010
-252,322	-32,430	-0,023	-0,009
-251,307	-109,933	-0,016	-0,002
-250,292	-148,911	-0,104	-0,006
-249,278	10,749	-0,003	0,002
-248,263	643,646	-0,050	-0,093
-247,249	606,434	-0,010	0,019
-246,234	-84,830	-0,082	0,018
-245,219	-200,000	-0,004	-0,083
-244,205	800,000	0,085	-0,185
-243,190	-200,000	0,033	-0,106
-242,176	153,640	0,055	0,055
-241,161	-113,219	-0,022	0,003
-240,146	-121,875	0,112	0,013
-239,132	-200,000	-0,021	0,071
-238,117	72,304	-0,039	0,029
-237,103	84,682	0,081	0,064
-236,088	-89,401	-0,002	0,000
-235,073	-200,000	-0,005	0,029
-234,059	-200,000	-0,021	0,238
-233,044	514,894	0,030	-0,050
-232,030	-200,000	-0,006	0,058
-231,015	-152,098	0,100	-0,005
-230,000	-200,000	0,007	0,031
-228,986	-200,000	-0,012	-0,049
-227,971	800,000	-0,068	0,184
-226,957	120,871	0,125	0,112
-225,942	-167,351	0,107	-0,003
-224,927	-200,000	-0,006	0,142
-223,913	88,786	-0,097	0,078
-222,898	800,000	-0,040	-0,080
-221,884	-73,838	0,027	0,007
-220,869	-200,000	-0,002	-0,009
-219,855	-105,977	0,134	0,022
-218,840	800,000	-0,044	-0,118
-217,825	-53,338	-0,088	0,029
-216,811	-200,000	0,012	0,100
-215,796	800,000	-0,062	-0,137
-214,782	-200,000	0,011	-0,047
-213,767	-200,000	0,016	-0,089
-212,752	-200,000	-0,004	-0,055
-211,738	-13,124	0,110	0,052
-210,723	-100,528	-0,005	0,001
-209,709	397,979	0,031	-0,047
-208,694	-74,096	-0,098	-0,026
-207,679	-200,000	0,010	-0,063
-206,665	-200,000	-0,011	-0,041
-205,650	800,000	-0,018	0,051
-204,636	399,576	-0,043	-0,065
-203,621	-200,000	-0,009	0,036
-202,606	-200,000	0,001	0,054
-201,592	145,906	-0,103	-0,099
-200,577	718,581	-0,072	-0,139
-199,563	7,322	-0,139	-0,075
-198,548	-49,578	0,130	0,044
-197,533	98,143	0,117	0,097
-196,519	-94,034	-0,108	0,021
-195,504	357,401	-0,039	-0,056
-194,490	-200,000	0,049	-0,211
-193,475	-200,000	-0,041	0,173
-192,460	-200,000	0,009	0,031
-191,446	800,000	-0,035	0,077
-190,431	800,000	-0,005	0,012
-189,417	-200,000	-0,011	-0,153
-188,402	516,403	-0,031	0,053
-187,387	268,880	0,053	0,067
-186,373	161,271	-0,061	-0,062
-185,358	195,561	0,075	-0,082
-184,344	310,205	0,084	0,114
-183,329	337,330	0,057	0,080
-182,315	393,017	0,060	0,090
-181,300	-76,240	0,081	0,020
-180,285	-200,000	0,005	0,106
-179,271	622,255	-0,022	0,041
-178,256	-200,000	-0,048	0,175
-177,242	214,622	0,078	0,089
-176,227	800,000	-0,052	0,119
-175,212	-147,906	0,074	0,004
-174,198	-200,000	0,010	-0,078
-173,183	-180,391	-0,084	-0,001
-172,169	-200,000	-0,034	-0,128
-171,154	-200,000	-0,006	0,033
-170,139	332,090	-0,073	0,101
-169,125	-200,000	-0,014	-0,069
-168,110	-50,562	0,043	-0,014
-167,096	-200,000	-0,012	-0,092
-166,081	558,272	-0,038	0,067
-165,066	-200,000	-0,003	-0,100
-164,052	800,000	-0,084	-0,239
-163,037	28,759	0,170	0,103
-162,023	297,768	0,015	-0,020
-161,008	-200,000	-0,018	0,118
-159,993	800,000	0,014	-0,035
-158,979	-200,000	0,001	-0,108
-157,964	47,070	-0,015	0,010
-156,950	-200,000	0,002	0,024
-155,935	-103,949	-0,078	0,013
-154,920	77,443	0,060	-0,046
-153,906	-200,000	-0,010	0,048
-152,891	9,551	-0,089	0,049
-151,877	-99,930	-0,079	0,014
-150,862	-42,261	-0,143	-0,052
-149,847	-200,000	0,005	-0,049
-148,833	38,844	0,084	-0,054
-147,818	14,569	0,055	0,031
-146,804	-42,741	0,122	-0,044
-145,789	194,279	-0,060	-0,065
-144,775	-51,012	0,199	0,067
-143,760	-51,061	-0,042	-0,014
-142,745	-97,813	0,056	-0,010
-141,731	-200,000	0,028	0,170
-140,716	-200,000	-0,009	0,041
-139,702	-158,381	0,053	0,002
-138,687	-139,112	-0,052	0,004
-137,672	202,891	-0,114	0,127
-136,658	-102,971	0,116	-0,020
-135,643	-200,000	0,019	-0,133
-134,629	-5,194	0,071	-0,035
-133,614	800,000	0,065	0,171
-132,599	218,176	-0,020	0,023
-131,585	-104,571	0,115	0,019
-130,570	-39,170	-0,126	-0,047
-129,556	3,662	-0,064	-0,034
-128,541	18,991	0,022	-0,013
-127,526	-90,587	-0,075	-0,016
-126,512	800,000	0,045	-0,101
-125,497	-200,000	-0,005	0,051
-124,483	261,538	0,067	0,084
-123,468	800,000	-0,020	-0,043
-122,453	-200,000	0,032	-0,109
-121,439	191,121	-0,075	-0,081
-120,424	82,114	0,117	-0,091
-119,410	-11,466	0,069	-0,033
-118,395	-159,505	-0,018	0,001
-117,380	-79,637	-0,081	-0,020
-116,366	-200,000	0,016	0,085
-115,351	-200,000	-0,069	-0,227
-114,337	10,447	0,088	0,048
-113,322	419,253	-0,036	0,055
-112,307	-147,615	-0,039	0,002
-111,293	528,873	0,031	-0,053
-110,278	571,407	0,114	0,201
-109,264	-200,000	-0,001	0,057
-108,249	60,776	-0,024	0,017
-107,234	-158,823	-0,049	0,002
-106,220	-200,000	-0,007	-0,070
-105,205	800,000	-0,044	-0,114
-104,191	800,000	0,007	0,015
-103,176	113,282	0,127	0,111
-102,162	28,863	-0,088	0,054
-101,147	125,489	0,061	0,056
-100,132	-200,000	-0,006	-0,128
-99,118	237,003	-0,139	-0,166
-98,103	-83,646	0,014	0,003
-97,089	-200,000	-0,041	0,171
-96,074	196,554	0,028	0,030
-95,059	166,010	-0,047	0,048
-94,045	-72,708	-0,155	0,041
-93,030	-8,470	-0,153	-0,074
-92,016	-200,000	0,016	0,061
-91,001	-96,254	-0,087	0,016
-89,986	-36,292	0,114	-0,044
-88,972	525,087	-0,034	-0,059
-87,957	21,063	-0,066	-0,038
-86,943	534,929	-0,024	0,042
-85,928	-200,000	0,011	0,063
-84,913	-32,692	0,092	-0,037
-83,899	-175,083	-0,098	0,002
-82,884	-31,409	0,040	-0,016
-81,870	-17,783	0,174	-0,078
-80,855	-200,000	-0,013	0,074
-79,840	800,000	0,013	0,027
-78,826	83,829	-0,093	0,073
-77,811	543,033	-0,044	-0,076
-76,797	32,498	-0,160	0,099
-75,782	77,114	0,058	0,044
-74,767	-11,408	-0,095	0,045
-73,753	-170,291	-0,142	0,004
-72,738	-51,903	-0,039	0,013
-71,724	-129,912	-0,115	0,011
-70,709	1,422	-0,098	0,051
-69,694	800,000	-0,038	0,080
-68,680	15,857	0,088	0,050
-67,665	54,367	0,059	0,041
-66,651	527,773	0,016	-0,028
-65,636	800,000	0,042	-0,113
-64,622	-1,839	-0,078	0,039
-63,607	209,511	0,010	0,011
-62,592	800,000	0,011	-0,025
-61,578	13,506	-0,045	0,025
-60,563	410,076	-0,016	0,025
-59,549	-170,678	-0,074	0,002
-58,534	83,399	-2,351	-1,839
-57,519	316,793	0,300	-0,408
-56,505	800,000	-1,743	-5,436
-55,490	296,480	1,179	1,557
-54,476	800,000	5,333	11,595
-53,461	-200,000	21,716	339,985
-52,446	800,000	760,223	2303,131
-51,432	516,798	1654,072	2788,869
-50,417	104,762	1620,278	1371,583
-49,403	74,718	1275,288	963,113
-48,388	25,890	1023,271	611,340
-47,373	19,260	989,535	569,204
-46,359	13,669	976,623	543,368
-45,344	9,605	973,396	528,172
-44,330	10,173	971,060	528,753
-43,315	9,101	969,247	524,224
-42,300	9,030	968,124	523,362
-41,286	9,000	967,117	522,699
-40,271	8,989	966,266	522,184
-39,257	8,967	965,376	521,609
-38,242	8,934	964,599	521,062
-37,227	8,959	963,748	520,661
-36,213	8,924	963,095	520,176
-35,198	9,014	961,960	519,834
-34,184	9,033	961,272	519,505
-33,169	8,954	960,209	518,651
-32,154	9,000	959,499	518,397
-31,140	9,073	958,380	518,008
-30,125	9,031	957,523	517,389
-29,111	9,022	956,843	516,971
-28,096	9,055	956,410	516,824
-27,082	8,980	955,544	516,094
-26,067	9,002	954,703	515,690
-25,052	8,914	954,140	515,081
-24,038	8,958	953,446	514,826
-23,023	8,927	952,665	514,284
-22,009	9,005	952,219	514,277
-20,994	9,021	951,469	513,902
-19,979	9,017	950,932	513,577
-18,965	8,961	950,433	513,107
-17,950	8,989	949,666	512,764
-16,936	8,969	949,061	512,352
-15,921	8,971	948,324	511,942
-14,906	8,908	947,550	511,300
-13,892	8,894	946,842	510,853
-12,877	8,860	946,286	510,426
-11,863	8,844	945,702	510,037
-10,848	8,848	945,228	509,776
-9,833	8,958	944,690	509,816
-8,819	8,969	943,812	509,358
-7,804	8,906	943,160	508,786
-6,790	8,840	942,777	508,347
-5,775	8,946	942,042	508,267
-4,760	8,952	941,388	507,913
-3,746	8,883	940,794	507,354
-2,731	8,764	940,236	506,653
-1,717	8,724	939,553	506,137
-0,702	8,762	938,816	505,842
0,313	8,568	938,238	505,678
1,327	11,874	936,147	514,983
2,342	20,353	784,674	454,018
3,356	15,393	450,997	253,408
4,371	-10,895	313,718	148,195
5,386	-14,569	296,072	136,116
6,400	-16,664	290,224	131,327
7,415	-16,752	287,585	130,035
8,429	-17,244	285,693	128,686
9,444	-17,424	284,873	128,129
10,459	-17,274	284,284	127,999
11,473	-17,266	283,646	127,708
12,488	-17,143	283,138	127,588
13,502	-17,156	282,663	127,350
14,517	-17,135	282,310	127,199
15,531	-17,154	281,805	126,942
16,546	-16,824	281,507	127,115
17,561	-17,006	281,037	126,716
18,575	-16,821	280,682	126,723
19,590	-16,950	280,404	126,462
20,604	-16,839	280,219	126,474
21,619	-16,996	279,611	126,038
22,634	-16,987	279,476	125,974
23,648	-16,967	278,961	125,751
24,663	-16,975	278,783	125,651
25,677	-16,990	278,619	125,552
26,692	-16,887	278,259	125,476
27,707	-16,878	278,006	125,359
28,721	-16,954	277,698	125,137
29,736	-16,992	277,444	124,976
30,750	-16,605	277,137	125,194
31,765	-16,802	276,866	124,873
32,780	-16,917	276,778	124,713
33,794	-16,961	276,533	124,550
34,809	-16,901	276,219	124,454
35,823	-16,776	275,731	124,341
36,838	-16,902	275,739	124,215
37,853	-16,931	275,409	124,028
38,867	-16,921	275,226	123,945
39,882	-16,891	274,929	123,828
40,896	-17,047	274,747	123,588
41,911	-16,864	274,404	123,595
42,926	-16,755	274,187	123,588
43,940	-16,791	273,951	123,437
44,955	-16,675	273,709	123,425
45,969	-16,789	273,574	123,246
46,984	-16,866	273,350	123,063
47,999	-16,837	273,222	123,021
49,013	-16,797	272,988	122,942
50,028	-16,774	272,751	122,846
51,042	-16,787	272,523	122,720
52,057	-16,793	272,282	122,595
53,071	-16,975	272,106	122,335
54,086	-16,827	271,819	122,333
55,101	-16,843	271,676	122,243
56,115	-16,866	271,391	122,082
57,130	-16,889	270,947	121,851
58,144	-16,934	270,755	121,712
59,159	-16,761	270,416	121,708
60,174	-16,951	270,341	121,488
61,188	-16,979	270,026	121,310
62,203	-16,982	270,005	121,287
63,217	-16,941	269,704	121,179
64,232	-16,822	269,342	121,115
65,247	-16,966	269,225	120,919
66,261	-16,889	268,873	120,821
67,276	-16,823	268,695	120,791
68,290	-16,746	268,416	120,725
69,305	-17,010	268,278	120,410
70,320	-17,046	268,160	120,313
71,334	-16,931	267,842	120,265
72,349	-16,844	267,658	120,252
73,363	-16,900	267,356	120,054
74,378	-16,870	267,052	119,934
75,393	-16,999	266,889	119,733
76,407	-16,812	266,630	119,776
77,422	-16,960	266,494	119,570
78,436	-16,630	266,046	119,658
79,451	-16,726	265,920	119,503
80,466	-16,822	265,763	119,335
81,480	-16,905	265,657	119,201
82,495	-16,968	265,444	119,038
83,509	-16,903	265,195	118,975
84,524	-16,860	264,930	118,884
85,539	-16,681	264,534	118,857
86,553	-16,835	264,545	118,712
87,568	-16,751	264,310	118,673
88,582	-16,761	263,974	118,502
89,597	-16,964	263,908	118,279
90,611	-16,745	263,607	118,330
91,626	-16,774	263,596	118,289
92,641	-16,777	263,284	118,136
93,655	-17,005	263,100	117,838
94,670	-16,891	262,803	117,797
95,684	-16,955	262,614	117,645
96,699	-16,921	262,482	117,605
97,714	-17,042	262,411	117,455
98,728	-16,757	261,981	117,506
99,743	-16,937	262,098	117,387
100,757	-16,845	261,630	117,249
101,772	-16,889	261,424	117,107
102,787	-16,777	261,186	117,090
103,801	-16,837	260,927	116,910
104,816	-16,865	260,743	116,792
105,830	-16,718	260,693	116,890
106,845	-16,952	260,270	116,483
107,860	-16,905	260,217	116,490
108,874	-16,857	259,918	116,388
109,889	-16,900	259,744	116,262
110,903	-17,068	259,521	116,003
111,918	-17,003	259,318	115,960
112,933	-16,731	259,145	116,112
113,947	-16,821	258,927	115,924
114,962	-16,853	258,893	115,870
115,976	-16,969	258,598	115,626
116,991	-16,863	258,168	115,517
118,006	-16,848	258,055	115,469
119,020	-16,852	257,943	115,405
120,035	-16,855	257,859	115,354
121,049	-16,845	257,608	115,241
122,064	-16,772	257,414	115,208
123,079	-16,806	257,164	115,056
124,093	-16,783	257,044	115,012
125,108	-16,787	256,811	114,894
126,122	-16,815	256,746	114,830
127,137	-16,635	256,499	114,866
128,151	-16,589	256,240	114,780
129,166	-16,677	256,051	114,609
130,181	-16,776	255,859	114,426
131,195	-16,890	255,841	114,310
132,210	-16,721	255,441	114,267
133,224	-16,729	255,115	114,104
134,239	-16,770	255,077	114,041
135,254	-16,689	254,666	113,918
136,268	-17,072	254,730	113,605
137,283	-16,691	254,508	113,824
138,297	-16,824	254,269	113,593
139,312	-16,947	254,132	113,415
140,327	-16,780	253,817	113,408
141,341	-16,843	253,532	113,217
142,356	-16,853	253,392	113,136
143,370	-16,957	253,263	112,979
144,385	-16,688	252,923	113,048
145,400	-16,719	252,782	112,948
146,414	-16,614	252,512	112,907
147,429	-16,874	252,556	112,694
148,443	-16,740	252,252	112,663
149,458	-16,806	252,085	112,522
150,473	-16,721	251,912	112,507
151,487	-16,919	251,756	112,259
152,502	-16,827	251,390	112,164
153,516	-16,895	251,298	112,055
154,531	-16,738	251,093	112,087
155,546	-16,901	250,967	111,882
156,560	-16,792	250,812	111,895
157,575	-16,667	250,706	111,945
158,589	-16,772	250,471	111,741
159,604	-16,809	250,182	111,571
160,619	-16,780	249,993	111,501
161,633	-16,786	249,944	111,464
162,648	-16,787	249,630	111,314
163,662	-16,662	249,436	111,322
164,677	-16,836	249,470	111,180
165,692	-16,713	249,182	111,146
166,706	-16,910	249,114	110,940
167,721	-16,774	248,865	110,933
168,735	-16,693	248,701	110,918
169,750	-16,598	248,436	110,871
170,764	-16,936	248,429	110,573
171,779	-16,679	248,253	110,701
172,794	-16,798	248,011	110,484
173,808	-16,817	247,794	110,361
174,823	-16,819	247,800	110,352
175,837	-16,883	247,526	110,166
176,852	-16,719	247,356	110,218
177,867	-16,690	247,207	110,166
178,881	-16,780	247,003	109,990
179,896	-16,880	246,893	109,848
180,910	-16,986	246,830	109,721
181,925	-16,783	246,506	109,737
182,940	-16,788	246,303	109,633
183,954	-16,716	245,981	109,539
184,969	-16,933	246,033	109,373
185,983	-16,830	245,879	109,380
186,998	-16,671	245,600	109,378
188,013	-16,632	245,484	109,349
189,027	-16,957	245,281	108,979
190,042	-16,797	244,963	108,961
191,056	-16,933	244,810	108,771
192,071	-17,000	244,557	108,593
193,086	-16,848	244,570	108,715
194,100	-16,981	244,214	108,437
195,115	-16,620	244,023	108,640
196,129	-17,005	244,020	108,312
197,144	-16,722	243,757	108,418
198,159	-16,915	243,489	108,131
199,173	-16,853	243,400	108,132
200,188	-16,920	243,116	107,942
201,202	-16,819	243,121	108,017
202,217	-16,692	242,942	108,032
203,232	-16,796	242,732	107,844
204,246	-16,776	242,263	107,642
205,261	-17,132	242,147	107,290
206,275	-16,164	242,639	108,291
207,290	-10,947	244,564	113,441
208,304	-4,336	246,445	119,783
209,319	-1,548	247,179	122,441
210,334	-0,498	247,302	123,361
211,348	0,351	247,592	124,198
212,363	0,977	247,632	124,726
213,377	1,337	247,756	125,076
214,392	1,726	247,467	125,241
215,407	2,078	247,488	125,531
216,421	2,157	247,195	125,437
217,436	1,963	247,201	125,268
218,450	2,076	247,143	125,321
219,465	1,906	246,808	125,000
220,480	1,837	246,539	124,796
221,494	1,488	246,523	124,488
222,509	1,328	246,088	124,127
223,523	1,283	245,800	123,933
224,538	1,082	245,668	123,691
225,553	0,836	245,567	123,426
226,567	1,164	245,308	123,555
227,582	0,969	245,203	123,331
228,596	0,907	245,062	123,198
229,611	0,928	244,972	123,159
230,626	1,073	244,651	123,106
231,640	0,900	244,563	122,908
232,655	0,799	244,284	122,675
233,669	1,126	244,086	122,831
234,684	0,842	244,058	122,575
235,699	0,963	243,925	122,596
236,713	1,031	243,687	122,521
237,728	0,916	243,660	122,403
238,742	0,908	243,504	122,306
239,757	1,201	243,195	122,378
240,772	1,178	243,132	122,317
241,786	1,091	242,910	122,124
242,801	1,051	242,774	122,012
243,815	1,066	242,631	121,942
244,830	1,102	242,421	121,854
245,844	1,003	242,281	121,693
246,859	0,935	242,113	121,543
247,874	1,119	241,905	121,576
248,888	0,990	241,855	121,437
249,903	1,141	241,649	121,444
250,917	1,239	241,501	121,437
251,932	1,121	241,539	121,351
252,947	1,269	241,278	121,327
253,961	1,025	241,191	121,077
254,976	1,137	240,906	121,013
255,990	1,133	240,803	120,947
257,005	1,227	240,578	120,899
258,020	1,011	240,490	120,671
259,034	0,928	240,322	120,509
260,049	1,053	240,197	120,536
261,063	1,101	239,966	120,447
262,078	1,091	239,760	120,325
263,093	0,940	239,632	120,130
264,107	0,806	239,603	119,998
265,122	1,028	239,379	120,051
266,136	1,032	239,330	120,019
267,151	0,864	239,136	119,778
268,166	1,128	238,805	119,811
269,180	1,015	238,641	119,628
270,195	0,910	238,433	119,431
271,209	1,109	238,320	119,521
272,224	1,011	238,238	119,391
273,239	0,950	238,134	119,280
274,253	1,045	237,932	119,244
275,268	0,821	237,897	119,038
276,282	0,821	237,649	118,903
277,297	0,990	237,406	118,905
278,312	1,118	237,334	118,959
279,326	0,953	237,305	118,804
280,341	0,991	237,177	118,759
281,355	1,316	236,748	118,790
282,370	1,277	236,661	118,705
283,384	1,185	236,585	118,584
284,399	0,822	236,425	118,208
285,414	1,165	236,191	118,349
286,428	1,006	236,198	118,217
287,443	1,036	235,954	118,108
288,457	1,000	235,926	118,056
289,472	1,207	235,590	118,039
290,487	1,169	235,507	117,957
291,501	1,004	235,342	117,735
292,516	1,026	235,120	117,630
293,530	1,088	235,006	117,611
294,545	1,391	235,070	117,870
295,560	1,259	234,922	117,682
296,574	1,135	234,647	117,437
297,589	1,380	234,407	117,497
298,603	1,175	234,297	117,271
299,618	1,230	234,264	117,288
300,633	1,202	234,157	117,202
301,647	1,167	234,024	117,097
302,662	1,068	233,826	116,911
303,676	1,376	233,601	117,028
304,691	1,140	233,623	116,845
305,706	1,335	233,351	116,850
306,720	1,271	233,220	116,724
307,735	1,467	232,937	116,724
308,749	1,054	232,876	116,363
309,764	1,159	232,761	116,377
310,779	1,107	232,648	116,269
311,793	1,028	232,435	116,092
312,808	1,288	232,186	116,157
313,822	1,130	232,183	116,024
314,837	1,292	231,931	116,012
315,852	1,180	231,910	115,905
316,866	1,179	231,883	115,880
317,881	1,189	231,588	115,730
318,895	1,054	231,501	115,573
319,910	1,183	231,223	115,522
320,925	1,210	231,139	115,492
321,939	1,064	230,907	115,253
322,954	1,297	230,667	115,301
323,968	1,314	230,576	115,259
324,983	1,313	230,527	115,223
325,997	1,492	230,354	115,263
327,012	1,398	230,206	115,107
328,027	1,321	229,989	114,929
329,041	1,312	230,028	114,931
330,056	1,405	229,741	114,849
331,070	1,273	229,602	114,668
332,085	1,373	229,413	114,640
333,100	1,224	229,332	114,476
334,114	1,296	229,223	114,466
335,129	1,214	228,977	114,271
336,143	1,306	228,767	114,226
337,158	1,243	228,752	114,160
338,173	1,296	228,627	114,128
339,187	1,474	228,422	114,150
340,202	1,204	228,317	113,883
341,216	1,478	228,174	114,009
342,231	1,286	228,003	113,769
343,246	1,459	227,895	113,835
344,260	1,378	227,776	113,704
345,275	1,382	227,549	113,583
346,289	1,426	227,378	113,521
347,304	1,328	227,435	113,466
348,319	1,086	227,367	113,240
349,333	1,458	226,995	113,324
350,348	1,442	226,771	113,190
351,362	1,449	226,709	113,154
352,377	1,548	226,447	113,087
353,392	1,235	226,408	112,823
354,406	1,449	226,183	112,861
355,421	191,833	1313,046	1379,051
356,435	153,664	1445,337	1378,911
