DTS Sentinel unit serial number:	SN410029Multiplexer serial number:	ORYXHardware model number:	OX2-SRSoftware version number:	ORYX F/W v4,00 Oryx Data Collector v3.7.2.0data status	okinstallation	B5 Nyhavnadifferential loss correction	single-endedforward channel	channel 2reverse channel	N/Adate	2023/12/14time	14:47:13forward acquisition time	300,00reverse acquisition time	0,00gamma	499,1914k internal	0,3157k external	0,3157temperature offset calibration	1,0000default loss term (dB/km)	0,3820temperature slope calibration	1,0000multiplexer offset coefficient	1,0000multiplexer slope coefficient	1,0000fibre end	0,00T internal ref (°C)	7,99T ext. ref 1 (°C)	-8,12T ext. ref 2 (°C)	-8,16length (m)	temperature (°C)	Stokes	anti-Stokes-744,400	-52,445	0,086	0,029
-743,385	-92,974	-0,236	-0,048
-742,371	-24,418	0,166	0,073
-741,356	-138,891	-0,313	-0,025
-740,342	53,402	0,193	0,136
-739,327	-44,571	-0,467	-0,171
-738,312	381,621	0,171	0,260
-737,298	75,964	-0,311	-0,242
-736,283	56,508	0,215	0,154
-735,269	-140,691	-0,353	-0,026
-734,254	23,955	0,118	0,071
-733,239	-76,024	-0,566	-0,146
-732,225	-119,962	0,249	-0,031
-731,210	-19,508	-0,093	-0,042
-730,196	-200,000	-0,013	0,062
-729,181	800,000	-0,069	-0,174
-728,167	37,240	-0,093	-0,061
-727,152	458,229	0,017	-0,028
-726,137	-86,128	-0,172	-0,039
-725,123	51,357	-0,156	0,109
-724,108	487,592	-0,012	-0,020
-723,094	472,863	-0,058	-0,097
-722,079	415,802	-0,096	-0,151
-721,064	362,382	-0,022	0,032
-720,050	-140,240	0,062	0,005
-719,035	800,000	0,049	0,137
-718,021	-120,384	-0,053	-0,007
-717,006	234,510	-0,154	-0,188
-715,991	-89,177	-0,082	-0,018
-714,977	237,611	-0,055	-0,068
-713,962	349,076	0,016	0,024
-712,948	353,132	0,118	0,173
-711,933	800,000	-0,008	0,022
-710,918	106,943	-0,037	0,032
-709,904	-200,000	0,002	-0,055
-708,889	-200,000	0,007	-0,043
-707,875	165,251	-0,056	-0,058
-706,860	-200,000	0,006	0,077
-705,845	800,000	0,024	-0,058
-704,831	-200,000	-0,013	0,189
-703,816	800,000	0,039	0,084
-702,802	800,000	0,017	0,042
-701,787	590,066	-0,044	-0,081
-700,772	800,000	0,047	-0,098
-699,758	-200,000	0,009	-0,037
-698,743	-48,617	-0,172	0,060
-697,729	800,000	0,022	0,064
-696,714	-200,000	-0,008	-0,053
-695,699	-137,117	-0,068	-0,006
-694,685	800,000	-0,078	-0,200
-693,670	-200,000	0,003	-0,049
-692,656	-64,859	0,155	0,046
-691,641	-110,644	0,087	-0,013
-690,627	-200,000	0,007	-0,041
-689,612	-58,344	-0,066	0,021
-688,597	31,695	0,121	-0,077
-687,583	149,482	-0,063	-0,063
-686,568	-75,184	-0,141	0,037
-685,554	-200,000	-0,004	0,074
-684,539	-23,663	0,080	0,035
-683,524	-200,000	0,021	0,159
-682,510	-183,185	-0,057	0,001
-681,495	-45,056	0,072	-0,026
-680,481	170,944	-0,118	-0,125
-679,466	9,689	0,033	-0,019
-678,451	-81,573	-0,127	0,031
-677,437	-90,597	0,116	0,024
-676,422	800,000	0,038	0,100
-675,408	-132,813	-0,093	0,009
-674,393	-114,766	0,048	-0,007
-673,378	-58,521	-0,143	-0,045
-672,364	800,000	-0,077	-0,160
-671,349	112,955	-0,090	-0,080
-670,335	-200,000	-0,019	-0,074
-669,320	-127,873	-0,078	-0,008
-668,305	298,257	-0,069	-0,094
-667,291	-107,918	0,179	-0,028
-666,276	26,364	-0,088	-0,054
-665,262	13,650	-0,096	0,055
-664,247	800,000	-0,024	-0,050
-663,232	-200,000	0,021	-0,092
-662,218	5,460	-0,097	0,053
-661,203	-200,000	0,001	0,049
-660,189	11,259	0,055	0,031
-659,174	-200,000	0,011	-0,059
-658,159	122,760	-0,061	-0,056
-657,145	222,352	-0,085	-0,101
-656,130	-200,000	0,003	-0,027
-655,116	-107,803	0,176	0,028
-654,101	-85,651	-0,109	0,025
-653,086	-200,000	-0,016	-0,114
-652,072	-36,700	-0,067	-0,026
-651,057	-36,220	-0,062	0,025
-650,043	-200,000	0,003	-0,084
-649,028	800,000	0,025	-0,065
-648,014	162,228	0,007	-0,007
-646,999	47,557	0,098	0,067
-645,984	-200,000	-0,002	0,089
-644,970	217,422	-0,110	-0,129
-643,955	246,299	0,036	0,044
-642,941	-200,000	0,039	-0,128
-641,926	-16,737	-0,090	-0,042
-640,911	117,926	0,096	0,087
-639,897	800,000	0,047	-0,113
-638,882	115,366	0,093	0,083
-637,868	-84,563	-0,075	0,017
-636,853	-123,239	-0,024	0,003
-635,838	5,609	-0,092	0,050
-634,824	543,944	0,027	0,047
-633,809	-96,898	-0,103	-0,020
-632,795	67,096	0,060	-0,045
-631,780	182,588	0,072	-0,078
-630,765	-77,542	-0,099	0,025
-629,751	-157,262	0,056	0,002
-628,736	205,278	-0,025	-0,029
-627,722	137,150	0,084	-0,080
-626,707	-200,000	-0,044	-0,193
-625,692	-93,275	-0,137	0,028
-624,678	-142,997	-0,084	0,006
-623,663	-200,000	0,003	-0,073
-622,649	32,656	-0,044	-0,028
-621,634	-4,493	-0,017	0,008
-620,619	24,807	0,041	-0,025
-619,605	-76,437	0,060	0,015
-618,590	-68,664	-0,053	-0,015
-617,576	800,000	0,020	0,047
-616,561	12,651	0,036	0,020
-615,546	-200,000	-0,015	0,050
-614,532	-94,014	-0,106	0,021
-613,517	-200,000	0,026	-0,101
-612,503	-14,095	0,034	0,016
-611,488	800,000	0,056	0,149
-610,474	-200,000	0,012	0,102
-609,459	-143,186	-0,077	-0,005
-608,444	-137,363	-0,127	-0,010
-607,430	-200,000	-0,014	-0,072
-606,415	-4,737	-0,263	-0,133
-605,401	9,035	0,066	-0,036
-604,386	67,575	0,050	0,037
-603,371	7,992	-0,017	0,010
-602,357	-200,000	0,010	-0,040
-601,342	359,530	-0,050	0,073
-600,328	800,000	-0,028	-0,059
-599,313	72,244	-0,162	-0,123
-598,298	-200,000	-0,017	-0,078
-597,284	74,855	-0,082	-0,064
-596,269	-200,000	-0,021	-0,079
-595,255	476,238	0,061	-0,101
-594,240	567,724	-0,032	0,057
-593,225	-200,000	-0,013	-0,069
-592,211	-55,801	-0,083	-0,027
-591,196	521,274	0,108	-0,186
-590,182	201,531	0,051	0,058
-589,167	-200,000	0,010	0,091
-588,152	-106,318	-0,013	0,002
-587,138	-73,634	-0,108	-0,029
-586,123	-200,000	0,012	-0,043
-585,109	419,673	0,023	-0,036
-584,094	-200,000	0,003	-0,026
-583,079	800,000	-0,070	0,199
-582,065	-101,641	-0,059	0,010
-581,050	585,963	-0,036	0,065
-580,036	-200,000	-0,003	-0,111
-579,021	-200,000	-0,003	-0,012
-578,006	-200,000	0,015	-0,107
-576,992	137,959	0,048	0,046
-575,977	800,000	0,026	-0,078
-574,963	-166,809	-0,079	0,002
-573,948	180,717	0,113	-0,122
-572,934	-93,354	-0,106	-0,021
-571,919	-200,000	-0,026	-0,150
-570,904	580,293	-0,033	-0,060
-569,890	-192,102	-0,152	0,001
-568,875	-200,000	0,003	-0,086
-567,861	-24,730	0,134	0,058
-566,846	647,196	-0,038	0,072
-565,831	-50,055	0,123	-0,042
-564,817	-17,821	-0,008	-0,004
-563,802	800,000	0,054	0,129
-562,788	57,320	-0,021	-0,015
-561,773	-47,214	0,067	-0,024
-560,758	105,222	-0,072	0,062
-559,744	20,897	0,077	0,045
-558,729	-72,983	0,129	-0,034
-557,715	260,531	-0,061	0,077
-556,700	-39,025	-0,173	-0,066
-555,685	800,000	-0,028	-0,065
-554,671	-122,846	-0,023	0,003
-553,656	110,747	-0,079	0,070
-552,642	-200,000	0,006	0,066
-551,627	-200,000	-0,036	-0,143
-550,612	800,000	-0,043	0,097
-549,598	554,142	0,043	-0,076
-548,583	-140,332	0,045	-0,003
-547,569	82,662	-0,073	0,058
-546,554	127,243	-0,026	0,024
-545,539	-200,000	-0,001	-0,011
-544,525	352,887	-0,034	0,049
-543,510	-0,369	-0,140	0,073
-542,496	13,110	-0,035	-0,020
-541,481	38,117	0,076	-0,050
-540,466	5,635	-0,170	-0,092
-539,452	10,178	0,093	0,052
-538,437	-129,575	-0,049	-0,005
-537,423	-35,973	-0,086	-0,034
-536,408	54,666	0,069	-0,049
-535,393	316,922	-0,033	-0,045
-534,379	134,807	-0,107	-0,101
-533,364	-197,706	-0,116	0,001
-532,350	298,227	-0,035	0,047
-531,335	-50,182	0,140	-0,048
-530,321	-56,932	-0,071	0,023
-529,306	-132,821	-0,032	-0,003
-528,291	800,000	-0,017	-0,049
-527,277	-200,000	0,012	-0,094
-526,262	348,756	-0,058	0,083
-525,248	-200,000	-0,022	0,150
-524,233	800,000	0,013	-0,028
-523,218	800,000	0,025	0,074
-522,204	-200,000	0,027	0,093
-521,189	-200,000	-0,039	-0,144
-520,175	86,412	-0,097	-0,078
-519,160	-152,416	-0,039	0,002
-518,145	-82,749	0,101	-0,024
-517,131	272,867	0,118	0,153
-516,116	800,000	-0,014	0,041
-515,102	314,974	-0,058	-0,080
-514,087	800,000	-0,013	0,037
-513,072	-63,757	-0,141	0,042
-512,058	800,000	0,026	-0,059
-511,043	-15,455	-0,047	-0,022
-510,029	-90,358	0,178	-0,037
-509,014	226,436	-0,023	0,027
-507,999	-200,000	0,006	0,047
-506,985	800,000	-0,011	-0,031
-505,970	653,638	-0,076	0,143
-504,956	17,029	0,150	-0,087
-503,941	-115,084	-0,061	-0,008
-502,926	63,745	-0,137	0,100
-501,912	-65,480	0,122	-0,035
-500,897	800,000	0,016	0,039
-499,883	800,000	-0,021	-0,063
-498,868	-200,000	0,020	-0,116
-497,853	-200,000	-0,007	-0,024
-496,839	800,000	-0,021	-0,058
-495,824	52,503	0,045	0,031
-494,810	-40,205	0,051	0,019
-493,795	800,000	-0,016	0,052
-492,781	233,717	0,064	0,077
-491,766	164,254	0,065	-0,067
-490,751	219,953	-0,083	-0,097
-489,737	-200,000	-0,028	-0,089
-488,722	214,815	0,067	0,078
-487,708	11,025	-0,012	-0,007
-486,693	800,000	0,018	0,039
-485,678	593,336	0,069	0,124
-484,664	-200,000	-0,015	0,062
-483,649	-200,000	0,020	0,070
-482,635	800,000	-0,028	0,067
-481,620	-139,921	0,144	-0,011
-480,605	187,304	0,042	0,045
-479,591	-82,325	0,124	0,029
-478,576	-200,000	-0,020	0,099
-477,562	-66,375	0,084	-0,024
-476,547	-200,000	0,023	-0,112
-475,532	514,488	-0,112	-0,191
-474,518	800,000	-0,039	0,091
-473,503	-88,126	-0,121	0,026
-472,489	275,660	-0,031	0,040
-471,474	75,065	-0,129	-0,099
-470,459	762,839	0,055	0,109
-469,445	16,097	-0,077	-0,044
-468,430	-60,783	0,029	0,009
-467,416	-200,000	-0,019	0,076
-466,401	-108,715	0,072	0,011
-465,386	-200,000	-0,011	-0,043
-464,372	63,434	0,105	-0,077
-463,357	327,763	0,104	-0,147
-462,343	-106,068	-0,132	-0,021
-461,328	-71,776	-0,135	-0,036
-460,313	-97,552	-0,030	-0,006
-459,299	799,732	-0,053	-0,108
-458,284	-9,720	0,178	0,086
-457,270	-108,270	0,085	-0,013
-456,255	200,710	-0,074	-0,083
-455,241	87,989	-0,063	0,051
-454,226	-151,238	-0,104	0,006
-453,211	699,977	0,074	0,143
-452,197	-72,533	-0,075	-0,020
-451,182	305,125	0,071	0,097
-450,168	226,509	0,050	-0,059
-449,153	254,962	-0,083	0,103
-448,138	169,678	-0,075	0,078
-447,124	168,410	-0,090	-0,093
-446,109	57,599	0,089	-0,064
-445,095	-7,317	-0,090	-0,044
-444,080	219,075	0,039	0,046
-443,065	0,232	0,054	0,028
-442,051	17,046	0,042	-0,024
-441,036	104,215	-0,126	-0,108
-440,022	-59,129	-0,082	0,026
-439,007	-180,135	0,052	-0,001
-437,992	243,746	0,090	0,110
-436,978	-200,000	-0,019	0,138
-435,963	-62,513	0,095	-0,029
-434,949	684,473	0,029	-0,056
-433,934	-74,449	-0,014	0,004
-432,919	-32,940	0,067	0,027
-431,905	-200,000	-0,038	-0,223
-430,890	126,422	0,128	0,118
-429,876	-200,000	0,013	0,095
-428,861	-135,162	0,168	0,015
-427,846	-16,700	0,049	-0,023
-426,832	346,517	0,027	-0,038
-425,817	-200,000	0,001	-0,047
-424,803	-200,000	0,010	-0,127
-423,788	-200,000	-0,009	-0,132
-422,773	-200,000	0,014	-0,092
-421,759	432,409	-0,039	-0,061
-420,744	800,000	0,080	-0,224
-419,730	800,000	-0,019	-0,054
-418,715	48,340	0,069	0,047
-417,701	-146,396	0,079	0,005
-416,686	231,729	0,091	0,108
-415,671	69,567	0,066	0,049
-414,657	-58,727	0,049	0,015
-413,642	-200,000	-0,027	-0,089
-412,628	-78,945	0,042	0,010
-411,613	-200,000	0,014	-0,157
-410,598	106,852	-0,053	0,046
-409,584	37,347	0,064	-0,042
-408,569	731,071	-0,015	-0,029
-407,555	43,441	0,081	0,054
-406,540	225,401	-0,019	-0,022
-405,525	219,633	0,055	-0,064
-404,511	25,064	-0,029	0,018
-403,496	-200,000	0,018	0,065
-402,482	164,443	0,050	0,052
-401,467	800,000	-0,015	0,046
-400,452	-195,250	-0,076	0,000
-399,438	-200,000	0,009	0,065
-398,423	256,694	-0,032	-0,040
-397,409	-200,000	0,003	-0,102
-396,394	3,520	-0,184	-0,097
-395,379	364,658	0,024	-0,036
-394,365	-200,000	-0,028	0,168
-393,350	-67,503	0,113	-0,032
-392,336	-31,588	-0,026	0,011
-391,321	511,686	-0,054	0,091
-390,306	800,000	-0,069	-0,158
-389,292	800,000	-0,013	0,030
-388,277	-25,651	0,067	-0,029
-387,263	608,503	0,025	-0,045
-386,248	-200,000	-0,020	0,084
-385,233	-200,000	-0,004	0,121
-384,219	-200,000	0,001	0,038
-383,204	-38,325	-0,075	0,029
-382,190	-61,125	0,097	0,030
-381,175	800,000	-0,066	-0,181
-380,160	800,000	0,024	0,057
-379,146	-200,000	-0,000	-0,015
-378,131	800,000	0,012	0,027
-377,117	151,785	-0,042	0,042
-376,102	68,356	-0,038	0,028
-375,088	-135,669	-0,070	-0,006
-374,073	99,152	0,113	-0,095
-373,058	142,094	0,035	-0,034
-372,044	3,661	0,110	0,058
-371,029	228,850	-0,046	-0,054
-370,015	34,276	-0,004	0,002
-369,000	436,918	0,046	0,073
-367,985	102,338	0,094	0,080
-366,971	-57,364	0,212	0,067
-365,956	800,000	0,005	0,013
-364,942	117,578	0,017	-0,015
-363,927	589,092	-0,044	0,079
-362,912	3,096	-0,033	0,017
-361,898	46,650	0,025	0,017
-360,883	58,676	-0,158	-0,113
-359,869	71,787	0,057	-0,043
-358,854	55,331	-0,021	0,015
-357,839	-200,000	-0,019	0,099
-356,825	-200,000	0,027	0,000
-355,810	800,000	0,042	0,120
-354,796	-200,000	-0,003	-0,017
-353,781	800,000	0,084	-0,187
-352,766	-200,000	0,004	0,075
-351,752	-78,258	0,136	0,034
-350,737	476,511	0,017	0,027
-349,723	132,063	-0,091	-0,085
-348,708	-128,586	0,018	-0,002
-347,693	143,007	0,081	0,078
-346,679	-21,924	-0,139	-0,061
-345,664	-200,000	0,006	0,058
-344,650	29,467	-0,074	0,045
-343,635	131,581	0,074	0,069
-342,620	165,198	0,036	0,037
-341,606	309,135	0,008	0,011
-340,591	-89,031	-0,096	-0,020
-339,577	-108,860	-0,126	-0,019
-338,562	255,281	0,049	0,061
-337,548	-146,560	-0,107	-0,007
-336,533	-200,000	-0,009	-0,072
-335,518	446,164	0,010	-0,015
-334,504	407,807	0,082	-0,126
-333,489	800,000	-0,049	0,117
-332,475	-200,000	0,036	-0,122
-331,460	158,763	0,051	-0,051
-330,445	-200,000	0,022	-0,111
-329,431	-48,362	0,057	0,020
-328,416	-200,000	0,004	-0,036
-327,402	274,613	-0,034	0,043
-326,387	114,612	-0,118	0,104
-325,372	-200,000	0,031	-0,105
-324,358	-20,438	-0,018	0,008
-323,343	0,513	-0,099	-0,051
-322,329	-200,000	-0,025	-0,139
-321,314	800,000	0,044	0,106
-320,299	-200,000	-0,045	0,146
-319,285	-165,962	0,044	-0,001
-318,270	791,414	0,012	-0,025
-317,256	1,468	0,092	0,048
-316,241	74,609	0,066	0,051
-315,226	800,000	-0,004	-0,009
-314,212	800,000	0,040	0,099
-313,197	553,315	-0,068	-0,119
-312,183	-83,980	-0,083	-0,019
-311,168	652,001	0,080	-0,150
-310,153	-200,000	0,013	-0,068
-309,139	456,716	0,061	-0,099
-308,124	-200,000	0,010	0,059
-307,110	0,750	0,122	0,063
-306,095	-146,255	0,083	-0,005
-305,080	800,000	0,025	0,065
-304,066	800,000	0,056	-0,126
-303,051	-116,030	0,153	-0,020
-302,037	-17,827	-0,031	0,014
-301,022	-106,562	-0,038	0,006
-300,008	194,887	0,126	0,139
-298,993	-200,000	0,000	-0,034
-297,978	232,691	0,110	0,131
-296,964	757,233	-0,056	-0,111
-295,949	-117,550	-0,143	0,019
-294,935	315,000	0,097	-0,133
-293,920	800,000	-0,027	0,080
-292,905	40,092	0,083	0,054
-291,891	381,603	0,094	-0,140
-290,876	739,517	-0,038	-0,074
-289,862	154,380	0,058	-0,058
-288,847	800,000	-0,033	-0,069
-287,832	257,280	-0,037	-0,046
-286,818	800,000	-0,050	0,114
-285,803	-42,908	0,117	0,043
-284,789	739,169	-0,020	0,039
-283,774	380,684	0,081	0,121
-282,759	800,000	-0,040	0,126
-281,745	372,502	-0,062	0,092
-280,730	-47,781	0,080	0,028
-279,716	-200,000	0,013	0,057
-278,701	800,000	-0,022	0,047
-277,686	106,825	0,045	-0,039
-276,672	-200,000	-0,022	0,172
-275,657	-25,723	-0,190	0,081
-274,643	-200,000	0,003	0,182
-273,628	391,755	-0,090	-0,136
-272,613	-35,090	0,132	-0,052
-271,599	9,098	-0,013	-0,007
-270,584	-200,000	-0,001	-0,006
-269,570	-200,000	-0,023	0,181
-268,555	800,000	0,062	0,130
-267,540	327,008	-0,057	-0,079
-266,526	-57,761	-0,085	-0,027
-265,511	-73,120	0,065	0,017
-264,497	-200,000	-0,001	-0,052
-263,482	123,514	0,040	0,036
-262,467	800,000	-0,031	0,064
-261,453	-200,000	0,006	0,061
-260,438	523,627	0,060	-0,102
-259,424	800,000	-0,026	-0,052
-258,409	154,754	-0,085	0,085
-257,395	-51,680	0,035	0,012
-256,380	-200,000	-0,008	0,182
-255,365	-61,237	0,124	0,038
-254,351	800,000	-0,049	-0,110
-253,336	-200,000	-0,035	-0,223
-252,322	-200,000	0,009	-0,138
-251,307	95,527	0,076	-0,063
-250,292	-46,805	-0,080	-0,028
-249,278	224,442	-0,052	0,061
-248,263	800,000	-0,016	-0,043
-247,249	-99,775	0,061	-0,011
-246,234	-200,000	-0,017	0,090
-245,219	-181,784	-0,101	0,001
-244,205	6,163	-0,028	0,015
-243,190	146,275	-0,029	-0,028
-242,176	158,184	-0,060	0,061
-241,161	211,092	0,050	-0,057
-240,146	-200,000	0,005	0,092
-239,132	-200,000	0,009	0,095
-238,117	279,143	-0,051	-0,066
-237,103	-200,000	0,000	0,008
-236,088	800,000	-0,040	0,112
-235,073	-200,000	-0,002	0,102
-234,059	-200,000	0,022	0,085
-233,044	-200,000	-0,042	0,138
-232,030	109,516	0,136	0,117
-231,015	237,540	-0,047	-0,056
-230,000	-99,873	-0,215	-0,038
-228,986	-5,582	0,038	-0,019
-227,971	35,971	0,164	-0,104
-226,957	800,000	0,039	0,094
-225,942	-200,000	-0,017	0,077
-224,927	-200,000	0,020	0,076
-223,913	-200,000	0,001	0,017
-222,898	117,544	0,029	-0,026
-221,884	-67,333	-0,119	0,033
-220,869	241,669	-0,068	-0,082
-219,855	-200,000	0,014	0,050
-218,840	800,000	-0,054	0,129
-217,825	-200,000	0,015	-0,076
-216,811	77,012	-0,121	-0,092
-215,796	-200,000	-0,016	-0,113
-214,782	-200,000	-0,003	0,149
-213,767	-200,000	-0,013	0,165
-212,752	51,470	0,134	0,092
-211,738	-200,000	0,023	0,079
-210,723	-200,000	0,005	0,135
-209,709	-200,000	0,039	0,153
-208,694	800,000	0,025	-0,057
-207,679	24,298	0,079	-0,047
-206,665	273,327	-0,044	0,057
-205,650	668,678	0,035	0,065
-204,636	-97,850	-0,009	-0,002
-203,621	28,826	0,062	0,038
-202,606	-65,412	-0,091	-0,026
-201,592	-200,000	0,004	-0,105
-200,577	-200,000	0,019	0,119
-199,563	-200,000	-0,021	-0,114
-198,548	35,917	0,038	-0,024
-197,533	350,472	0,036	-0,051
-196,519	-39,946	0,036	0,013
-195,504	-20,479	-0,120	-0,053
-194,490	79,093	0,087	0,068
-193,475	151,809	-0,010	-0,010
-192,460	357,554	-0,066	0,096
-191,446	-131,534	0,069	0,006
-190,431	-200,000	-0,003	0,029
-189,417	41,587	-0,114	-0,074
-188,402	151,012	0,056	0,055
-187,387	77,221	0,085	-0,065
-186,373	-13,345	-0,126	-0,059
-185,358	209,087	0,101	-0,114
-184,344	-62,904	0,115	-0,034
-183,329	-26,127	0,082	0,035
-182,315	-80,454	0,042	0,010
-181,300	45,011	-0,121	0,080
-180,285	43,000	-0,072	0,048
-179,271	149,195	0,026	0,025
-178,256	27,298	0,179	0,108
-177,242	-28,321	0,074	0,031
-176,227	544,016	0,030	-0,051
-175,212	130,004	-0,069	0,064
-174,198	174,818	-0,086	0,090
-173,183	7,636	0,061	0,033
-172,169	205,445	-0,055	-0,062
-171,154	239,060	-0,094	-0,112
-170,139	800,000	0,027	-0,074
-169,125	102,818	0,020	0,017
-168,110	279,966	-0,015	0,020
-167,096	11,028	-0,094	-0,051
-166,081	-200,000	-0,038	-0,140
-165,066	109,634	0,079	-0,068
-164,052	248,118	0,120	-0,147
-163,037	-200,000	0,005	-0,087
-162,023	800,000	-0,049	0,148
-161,008	-200,000	-0,012	0,154
-159,993	-200,000	0,029	0,163
-158,979	-200,000	-0,018	-0,141
-157,964	-16,658	-0,091	0,041
-156,950	-87,614	0,064	-0,014
-155,935	-85,526	0,053	0,012
-154,920	-186,574	-0,057	-0,001
-153,906	722,098	-0,052	0,100
-152,891	46,930	0,089	-0,060
-151,877	-200,000	0,035	-0,143
-150,862	-95,371	-0,175	-0,034
-149,847	231,047	-0,067	0,079
-148,833	422,341	-0,013	0,020
-147,818	67,537	0,120	0,088
-146,804	394,241	0,055	0,083
-145,789	-200,000	-0,008	0,057
-144,775	-106,240	0,053	0,008
-143,760	-200,000	0,016	-0,103
-142,745	-4,235	-0,107	-0,053
-141,731	-108,271	0,176	-0,027
-140,716	189,608	-0,118	0,128
-139,702	-200,000	-0,013	-0,060
-138,687	375,400	-0,035	0,052
-137,672	800,000	0,025	-0,057
-136,658	527,493	0,007	0,011
-135,643	48,849	0,077	0,052
-134,629	-121,636	0,226	-0,027
-133,614	-200,000	-0,008	0,064
-132,599	14,185	0,040	0,022
-131,585	-200,000	0,015	0,060
-130,570	97,305	-0,088	0,073
-129,556	-163,059	-0,020	-0,001
-128,541	800,000	-0,023	0,049
-127,526	800,000	-0,029	-0,073
-126,512	800,000	0,016	0,047
-125,497	-36,032	0,173	-0,067
-124,483	266,917	-0,102	-0,128
-123,468	195,354	0,052	-0,057
-122,453	-106,892	-0,050	0,008
-121,439	-57,495	0,094	-0,030
-120,424	-82,496	-0,026	0,006
-119,410	-12,531	0,067	0,031
-118,395	-200,000	-0,042	0,235
-117,380	196,928	0,032	-0,035
-116,366	-200,000	-0,012	0,071
-115,351	800,000	-0,013	-0,041
-114,337	-200,000	-0,004	-0,044
-113,322	-200,000	-0,057	0,203
-112,307	-181,313	0,080	-0,001
-111,293	-143,869	-0,033	0,002
-110,278	301,354	0,064	-0,086
-109,264	116,173	-0,099	0,088
-108,249	-200,000	-0,002	-0,073
-107,234	-75,935	0,145	-0,037
-106,220	-149,736	0,054	0,003
-105,205	-17,239	0,126	-0,057
-104,191	800,000	-0,045	0,122
-103,176	207,590	-0,016	0,018
-102,162	-200,000	0,002	-0,008
-101,147	4,290	-0,004	-0,002
-100,132	-200,000	0,003	0,016
-99,118	-48,956	0,066	0,023
-98,103	62,124	0,021	0,015
-97,089	11,835	0,075	0,041
-96,074	-41,959	-0,121	0,044
-95,059	-74,300	-0,160	0,041
-94,045	15,509	-0,076	0,043
-93,030	37,728	0,079	0,050
-92,016	-43,577	0,035	0,013
-91,001	-200,000	-0,018	0,094
-89,986	-200,000	0,019	-0,088
-88,972	-62,614	0,134	0,040
-87,957	-123,294	0,089	-0,010
-86,943	800,000	-0,034	-0,083
-85,928	126,879	-0,044	-0,040
-84,913	-185,102	-0,016	0,000
-83,899	-83,836	0,097	0,022
-82,884	800,000	0,070	-0,195
-81,870	435,202	0,059	0,093
-80,855	71,976	0,123	0,092
-79,840	335,132	-0,045	-0,063
-78,826	-200,000	-0,004	0,159
-77,811	-200,000	0,022	-0,075
-76,797	800,000	-0,028	-0,079
-75,782	-30,206	0,091	-0,037
-74,767	-15,804	0,118	0,054
-73,753	92,394	-0,056	-0,045
-72,738	409,986	0,063	-0,096
-71,724	563,951	-0,078	-0,137
-70,709	-166,973	-0,069	-0,002
-69,694	52,638	-0,056	0,038
-68,680	-96,716	0,067	0,013
-67,665	6,008	-0,110	0,058
-66,651	52,394	0,125	0,085
-65,636	-200,000	-0,014	0,108
-64,622	-200,000	0,005	-0,125
-63,607	670,406	-0,018	0,033
-62,592	549,579	-0,069	-0,119
-61,578	-116,537	0,088	-0,011
-60,563	367,387	-0,029	0,042
-59,549	800,000	0,011	0,023
-58,534	85,278	-2,736	-2,154
-57,519	25,372	0,406	-0,242
-56,505	-200,000	-1,731	-5,556
-55,490	479,612	1,198	1,956
-54,476	800,000	5,092	11,248
-53,461	-200,000	22,222	347,383
-52,446	800,000	759,801	2295,543
-51,432	514,183	1645,461	2765,902
-50,417	97,635	1609,258	1326,835
-49,403	65,490	1266,225	918,724
-48,388	23,090	1017,577	597,852
-47,373	19,370	984,760	566,281
-46,359	12,906	972,093	537,833
-45,344	8,636	968,721	521,959
-44,330	9,111	966,614	522,355
-43,315	8,075	965,060	518,108
-42,300	8,009	963,670	517,127
-41,286	8,041	962,728	516,704
-40,271	7,997	961,734	516,009
-39,257	8,026	960,914	515,641
-38,242	8,054	959,827	515,131
-37,227	8,037	959,335	514,789
-36,213	8,036	958,340	514,233
-35,198	8,010	957,415	513,631
-34,184	8,090	956,553	513,407
-33,169	8,016	955,672	512,673
-32,154	8,035	955,069	512,394
-31,140	8,085	954,021	511,972
-30,125	8,076	953,156	511,459
-29,111	8,060	952,271	510,911
-28,096	8,096	951,802	510,754
-27,082	8,017	950,895	509,992
-26,067	7,969	950,428	509,569
-25,052	8,013	949,434	509,158
-24,038	8,002	948,867	508,797
-23,023	7,957	948,322	508,338
-22,009	8,024	947,557	508,126
-20,994	8,027	946,927	507,775
-19,979	8,008	946,412	507,420
-18,965	8,014	945,714	507,043
-17,950	8,027	945,187	506,783
-16,936	7,998	944,390	506,242
-15,921	7,967	943,733	505,772
-14,906	7,975	943,100	505,436
-13,892	7,928	942,316	504,848
-12,877	7,895	941,776	504,435
-11,863	7,842	941,455	504,073
-10,848	7,884	940,697	503,778
-9,833	7,953	940,159	503,691
-8,819	7,953	939,503	503,319
-7,804	7,966	938,807	502,970
-6,790	7,845	938,442	502,370
-5,775	7,943	937,795	502,313
-4,760	7,946	937,310	502,042
-3,746	7,931	936,745	501,672
-2,731	7,816	935,787	500,776
-1,717	7,724	935,364	500,240
-0,702	7,718	934,725	499,858
0,313	7,561	933,966	499,710
1,327	10,947	931,506	509,025
2,342	19,291	779,806	447,997
3,356	14,196	448,033	249,698
4,371	-11,766	312,408	146,504
5,386	-15,376	294,730	134,554
6,400	-17,457	288,649	129,706
7,415	-17,670	286,108	128,343
8,429	-18,224	284,155	126,915
9,444	-18,300	283,219	126,413
10,459	-18,239	282,558	126,166
11,473	-18,239	282,182	125,986
12,488	-18,241	281,643	125,733
13,502	-18,413	281,226	125,369
14,517	-18,324	280,659	125,191
15,531	-18,109	280,013	125,098
16,546	-18,132	279,862	124,997
17,561	-18,175	279,533	124,798
18,575	-18,101	279,169	124,696
19,590	-18,178	278,653	124,380
20,604	-18,025	278,441	124,421
21,619	-18,331	278,201	124,010
22,634	-17,913	277,644	124,149
23,648	-18,113	277,339	123,811
24,663	-18,041	277,090	123,757
25,677	-18,213	276,924	123,509
26,692	-17,937	276,552	123,594
27,707	-18,030	276,356	123,407
28,721	-17,949	275,996	123,312
29,736	-18,177	275,726	122,965
30,750	-18,279	275,611	122,806
31,765	-17,893	275,226	122,987
32,780	-18,268	275,129	122,581
33,794	-18,200	274,821	122,496
34,809	-18,008	274,537	122,538
35,823	-18,206	274,390	122,276
36,838	-18,074	273,973	122,204
37,853	-18,092	273,706	122,056
38,867	-18,140	273,509	121,912
39,882	-18,126	273,326	121,834
40,896	-17,990	272,992	121,801
41,911	-17,963	272,866	121,759
42,926	-18,067	272,494	121,485
43,940	-17,865	272,236	121,547
44,955	-18,029	272,112	121,328
45,969	-18,132	271,860	121,109
46,984	-17,992	271,753	121,181
47,999	-18,076	271,597	121,023
49,013	-17,877	271,317	121,072
50,028	-17,956	271,086	120,885
51,042	-17,872	270,784	120,817
52,057	-17,946	270,541	120,629
53,071	-17,976	270,376	120,518
54,086	-17,887	270,171	120,497
55,101	-17,877	269,788	120,325
56,115	-17,932	269,668	120,210
57,130	-17,890	269,306	120,076
58,144	-18,073	269,209	119,854
59,159	-18,140	268,850	119,622
60,174	-18,088	268,656	119,573
61,188	-18,245	268,415	119,311
62,203	-18,027	268,049	119,338
63,217	-18,250	268,041	119,119
64,232	-18,066	267,703	119,126
65,247	-18,207	267,603	118,943
66,261	-18,020	267,152	118,902
67,276	-18,094	267,065	118,785
68,290	-17,963	266,802	118,777
69,305	-17,979	266,745	118,727
70,320	-18,106	266,389	118,442
71,334	-17,783	265,969	118,538
72,349	-18,040	265,965	118,292
73,363	-18,110	265,642	118,075
74,378	-17,939	265,365	118,096
75,393	-18,084	265,344	117,945
76,407	-17,980	265,069	117,906
77,422	-17,921	264,669	117,771
78,436	-17,981	264,504	117,632
79,451	-18,031	264,370	117,517
80,466	-18,256	264,189	117,223
81,480	-17,870	263,828	117,401
82,495	-18,083	263,809	117,190
83,509	-17,920	263,528	117,202
84,524	-17,842	263,251	117,137
85,539	-17,985	263,129	116,944
86,553	-17,743	262,883	117,041
87,568	-17,996	262,624	116,689
88,582	-17,972	262,471	116,633
89,597	-18,021	262,123	116,424
90,611	-18,098	261,998	116,289
91,626	-17,925	261,765	116,329
92,641	-18,078	261,554	116,090
93,655	-18,027	261,358	116,037
94,670	-18,082	261,198	115,907
95,684	-18,226	260,938	115,653
96,699	-18,011	260,862	115,800
97,714	-17,928	260,608	115,750
98,728	-17,970	260,518	115,663
99,743	-17,983	260,194	115,497
100,757	-17,879	259,925	115,460
101,772	-17,793	259,839	115,487
102,787	-17,922	259,574	115,245
103,801	-17,944	259,445	115,159
104,816	-17,969	259,057	114,953
105,830	-18,052	259,028	114,857
106,845	-17,906	258,826	114,887
107,860	-18,016	258,608	114,683
108,874	-17,871	258,216	114,626
109,889	-17,942	258,006	114,460
110,903	-18,012	257,990	114,381
111,918	-17,884	257,550	114,288
112,933	-17,904	257,480	114,230
113,947	-17,899	257,427	114,200
114,962	-18,065	257,093	113,897
115,976	-18,000	257,062	113,930
116,991	-17,973	256,653	113,761
118,006	-17,808	256,379	113,774
119,020	-17,851	256,310	113,696
120,035	-17,951	256,324	113,605
121,049	-17,986	256,094	113,462
122,064	-17,895	255,815	113,407
123,079	-17,840	255,470	113,292
124,093	-17,934	255,468	113,200
125,108	-17,863	255,167	113,118
126,122	-17,754	254,928	113,096
127,137	-17,825	254,876	113,001
128,151	-17,936	254,739	112,835
129,166	-17,767	254,396	112,819
130,181	-17,807	254,350	112,754
131,195	-17,699	253,812	112,598
132,210	-17,944	253,913	112,421
133,224	-17,888	253,509	112,281
134,239	-17,778	253,393	112,314
135,254	-17,911	253,157	112,085
136,268	-18,017	253,139	111,977
137,283	-17,896	252,781	111,911
138,297	-17,731	252,686	112,000
139,312	-17,806	252,361	111,783
140,327	-17,800	252,219	111,715
141,341	-17,951	252,085	111,516
142,356	-18,141	251,916	111,270
143,370	-17,896	251,720	111,382
144,385	-17,964	251,407	111,176
145,400	-17,815	251,101	111,157
146,414	-17,951	251,045	111,007
147,429	-17,726	250,801	111,080
148,443	-17,819	250,566	110,887
149,458	-17,822	250,577	110,880
150,473	-17,733	250,250	110,801
151,487	-17,963	250,071	110,517
152,502	-17,920	250,053	110,535
153,516	-17,797	249,750	110,496
154,531	-17,893	249,564	110,322
155,546	-17,847	249,266	110,220
156,560	-17,685	249,136	110,289
157,575	-17,948	249,021	110,006
158,589	-17,740	248,762	110,057
159,604	-17,712	248,442	109,930
160,619	-17,806	248,410	109,827
161,633	-17,725	248,217	109,800
162,648	-17,969	248,103	109,535
163,662	-17,768	247,928	109,616
164,677	-17,849	247,809	109,486
165,692	-17,868	247,585	109,361
166,706	-17,877	247,412	109,268
167,721	-17,898	247,357	109,216
168,735	-17,926	247,097	109,068
169,750	-18,189	246,914	108,758
170,764	-17,961	246,855	108,912
171,779	-17,816	246,583	108,904
172,794	-17,813	246,498	108,859
173,808	-17,706	246,312	108,856
174,823	-17,980	246,242	108,587
175,837	-17,716	245,920	108,655
176,852	-17,889	245,901	108,493
177,867	-17,914	245,530	108,299
178,881	-17,945	245,487	108,245
179,896	-17,879	245,200	108,163
180,910	-17,732	245,025	108,198
181,925	-17,813	244,856	108,047
182,940	-17,827	244,504	107,871
183,954	-17,731	244,441	107,912
184,969	-17,749	244,492	107,910
185,983	-17,751	244,284	107,807
186,998	-17,589	243,910	107,766
188,013	-17,698	243,862	107,646
189,027	-18,000	243,588	107,266
190,042	-17,772	243,479	107,396
191,056	-17,784	243,255	107,278
192,071	-17,806	243,250	107,248
193,086	-17,942	243,004	107,018
194,100	-17,870	242,707	106,938
195,115	-17,681	242,553	107,015
196,129	-17,933	242,340	106,705
197,144	-17,884	242,281	106,709
198,159	-17,851	241,945	106,579
199,173	-17,849	241,846	106,527
200,188	-17,831	241,707	106,472
201,202	-17,539	241,558	106,634
202,217	-17,657	241,255	106,395
203,232	-17,475	241,114	106,471
204,246	-17,751	240,983	106,180
205,261	-17,852	240,828	106,020
206,275	-16,360	241,418	107,485
207,290	-11,579	243,330	112,244
208,304	-5,477	244,919	117,990
209,319	-3,235	245,450	120,081
210,334	-2,647	245,537	120,597
211,348	-1,635	245,597	121,448
212,363	-1,072	245,517	121,861
213,377	-0,715	245,764	122,266
214,392	0,055	245,797	122,905
215,407	0,491	245,845	123,276
216,421	0,531	245,563	123,156
217,436	0,609	245,513	123,184
218,450	0,669	245,261	123,096
219,465	0,753	245,158	123,102
220,480	0,584	245,115	122,931
221,494	0,589	244,803	122,768
222,509	0,356	244,513	122,421
223,523	0,098	244,352	122,119
224,538	0,181	244,249	122,124
225,553	-0,001	244,025	121,853
226,567	0,186	243,747	121,856
227,582	0,053	243,661	121,693
228,596	0,219	243,515	121,745
229,611	0,009	243,433	121,522
230,626	-0,091	243,365	121,396
231,640	0,024	243,114	121,353
232,655	0,040	242,713	121,155
233,669	-0,053	242,764	121,094
234,684	-0,096	242,512	120,924
235,699	0,034	242,370	120,947
236,713	0,054	242,283	120,909
237,728	0,246	242,045	120,935
238,742	0,351	241,873	120,923
239,757	0,042	241,756	120,604
240,772	0,126	241,631	120,598
241,786	-0,195	241,628	120,327
242,801	0,038	241,362	120,372
243,815	-0,029	241,043	120,148
244,830	-0,092	240,993	120,063
245,844	0,139	240,841	120,161
246,859	-0,005	240,677	119,953
247,874	0,159	240,463	119,968
248,888	0,119	240,330	119,858
249,903	0,238	240,149	119,852
250,917	0,123	240,092	119,721
251,932	0,213	239,933	119,703
252,947	0,360	239,680	119,684
253,961	0,187	239,590	119,490
254,976	0,128	239,529	119,402
255,990	0,027	239,308	119,200
257,005	0,061	239,110	119,118
258,020	0,199	238,903	119,114
259,034	0,086	238,822	118,973
260,049	0,223	238,689	119,005
261,063	0,057	238,383	118,711
262,078	0,138	238,266	118,706
263,093	0,043	238,137	118,556
264,107	0,296	237,882	118,619
265,122	0,186	237,777	118,469
266,136	0,297	237,563	118,439
267,151	0,119	237,563	118,288
268,166	0,309	237,347	118,320
269,180	0,246	237,121	118,147
270,195	0,012	237,138	117,960
271,209	0,165	236,904	117,953
272,224	0,201	236,575	117,808
273,239	0,111	236,591	117,734
274,253	0,060	236,541	117,659
275,268	0,147	236,318	117,606
276,282	0,191	236,091	117,517
277,297	0,270	235,853	117,450
278,312	0,113	235,840	117,310
279,326	0,071	235,794	117,243
280,341	0,116	235,668	117,206
281,355	0,202	235,336	117,098
282,370	0,292	235,254	117,117
283,384	0,075	235,101	116,861
284,399	-0,011	235,066	116,766
285,414	0,129	234,926	116,795
286,428	0,072	234,783	116,669
287,443	0,170	234,478	116,583
288,457	0,186	234,505	116,599
289,472	0,415	234,054	116,542
290,487	0,258	234,049	116,408
291,501	0,184	233,940	116,285
292,516	0,279	233,815	116,286
293,530	0,189	233,588	116,093
294,545	0,320	233,576	116,178
295,560	0,106	233,245	115,838
296,574	0,359	233,207	116,004
297,589	0,331	232,985	115,862
298,603	0,287	232,914	115,783
299,618	0,425	232,737	115,791
300,633	0,346	232,602	115,653
301,647	0,449	232,545	115,693
302,662	0,519	232,450	115,690
303,676	0,367	232,215	115,445
304,691	0,205	232,014	115,210
305,706	0,428	231,847	115,288
306,720	0,370	231,819	115,219
307,735	0,438	231,532	115,119
308,749	0,460	231,420	115,070
309,764	0,461	231,094	114,898
310,779	0,341	231,096	114,798
311,793	0,321	230,952	114,700
312,808	0,277	230,795	114,578
313,822	0,313	230,790	114,593
314,837	0,348	230,706	114,568
315,852	0,413	230,526	114,518
316,866	0,589	230,305	114,533
317,881	0,484	229,951	114,266
318,895	0,420	229,928	114,196
319,910	0,519	229,699	114,147
320,925	0,608	229,610	114,161
321,939	0,539	229,422	114,004
322,954	0,616	229,482	114,082
323,968	0,558	229,244	113,910
324,983	0,659	229,220	113,965
325,997	0,477	228,879	113,646
327,012	0,457	228,894	113,629
328,027	0,414	228,722	113,501
329,041	0,596	228,531	113,534
330,056	0,439	228,364	113,322
331,070	0,496	228,200	113,273
332,085	0,494	228,001	113,164
333,100	0,572	227,976	113,199
334,114	0,454	227,754	112,990
335,129	0,661	227,568	113,043
336,143	0,172	227,481	112,623
337,158	0,431	227,344	112,739
338,173	0,376	227,267	112,650
339,187	0,611	227,103	112,735
340,202	0,530	226,864	112,545
341,216	0,542	226,793	112,509
342,231	0,582	226,647	112,457
343,246	0,713	226,478	112,461
344,260	0,670	226,355	112,358
345,275	0,671	226,287	112,315
346,289	0,592	226,073	112,139
347,304	0,504	225,950	112,003
348,319	0,413	225,840	111,870
349,333	0,809	225,622	112,048
350,348	0,731	225,410	111,874
351,362	0,836	225,304	111,889
352,377	0,587	225,137	111,612
353,392	0,712	225,124	111,688
354,406	0,674	224,978	111,578
355,421	192,777	1311,569	1379,188
356,435	154,432	1443,799	1379,025
