DTS Sentinel unit serial number:	SN410029Multiplexer serial number:	ORYXHardware model number:	OX2-SRSoftware version number:	ORYX F/W v4,00 Oryx Data Collector v3.7.2.0data status	okinstallation	B5 Nyhavnadifferential loss correction	single-endedforward channel	channel 2reverse channel	N/Adate	2023/12/12time	06:17:13forward acquisition time	300,00reverse acquisition time	0,00gamma	499,1914k internal	0,3157k external	0,3157temperature offset calibration	1,0000default loss term (dB/km)	0,3820temperature slope calibration	1,0000multiplexer offset coefficient	1,0000multiplexer slope coefficient	1,0000fibre end	0,00T internal ref (°C)	15,25T ext. ref 1 (°C)	-1,15T ext. ref 2 (°C)	-1,44length (m)	temperature (°C)	Stokes	anti-Stokes-744,400	80,985	0,097	-0,077
-743,385	-179,144	-0,292	-0,005
-742,371	289,175	0,080	0,107
-741,356	19,315	-0,214	0,126
-740,342	120,814	-0,046	0,042
-739,327	-94,885	-0,239	-0,047
-738,312	307,412	-0,038	-0,052
-737,298	-88,503	-0,351	-0,077
-736,283	-44,000	0,050	0,019
-735,269	-143,885	-0,376	-0,026
-734,254	800,000	0,044	0,097
-733,239	-13,903	-0,524	-0,249
-732,225	51,225	0,148	0,104
-731,210	-200,000	-0,015	0,134
-730,196	-96,723	-0,151	0,029
-729,181	197,080	-0,063	0,071
-728,167	28,140	-0,103	0,064
-727,152	-200,000	-0,007	0,052
-726,137	800,000	-0,077	-0,186
-725,123	629,229	-0,024	-0,045
-724,108	399,079	-0,121	-0,187
-723,094	124,574	-0,129	-0,120
-722,079	-200,000	0,009	-0,045
-721,064	108,037	0,125	-0,110
-720,050	-32,016	0,105	0,043
-719,035	-91,138	0,070	-0,015
-718,021	800,000	-0,067	-0,176
-717,006	166,685	-0,116	-0,122
-715,991	-36,399	-0,083	0,033
-714,977	-69,870	-0,023	-0,006
-713,962	145,680	0,110	-0,109
-712,948	800,000	0,013	-0,036
-711,933	58,141	0,159	-0,114
-710,918	-118,644	0,111	-0,014
-709,904	-200,000	-0,008	0,030
-708,889	-66,249	-0,213	-0,062
-707,875	177,480	0,011	-0,011
-706,860	273,946	0,034	-0,044
-705,845	83,973	-0,067	-0,054
-704,831	-25,535	0,127	0,055
-703,816	-160,131	-0,054	-0,002
-702,802	245,683	0,071	-0,088
-701,787	-174,366	-0,097	-0,002
-700,772	-98,880	0,070	0,013
-699,758	-200,000	0,018	-0,081
-698,743	-34,124	0,195	0,078
-697,729	738,870	0,030	-0,060
-696,714	800,000	-0,021	0,047
-695,699	575,966	-0,072	-0,129
-694,685	261,711	0,042	-0,053
-693,670	-67,552	-0,050	0,014
-692,656	658,244	-0,022	0,042
-691,641	292,008	-0,021	0,029
-690,627	306,110	-0,048	-0,066
-689,612	-43,038	0,021	-0,008
-688,597	-200,000	0,022	-0,105
-687,583	-200,000	-0,032	-0,112
-686,568	-89,898	-0,167	-0,036
-685,554	209,058	0,048	0,056
-684,539	43,618	-0,038	-0,026
-683,524	72,272	-0,101	0,078
-682,510	409,546	0,068	0,106
-681,495	35,117	-0,112	0,072
-680,481	-200,000	0,007	0,081
-679,466	-10,535	0,037	-0,018
-678,451	93,681	0,043	-0,036
-677,437	-149,165	-0,120	0,007
-676,422	179,262	0,045	-0,048
-675,408	-46,370	-0,016	-0,006
-674,393	81,011	0,116	-0,092
-673,378	611,709	-0,028	-0,051
-672,364	-153,759	-0,143	0,007
-671,349	-7,453	-0,161	0,080
-670,335	-89,017	-0,123	-0,027
-669,320	-111,857	0,050	-0,007
-668,305	-181,828	-0,091	0,001
-667,291	-200,000	0,008	0,074
-666,276	20,158	-0,067	0,040
-665,262	151,344	-0,061	0,061
-664,247	800,000	-0,062	-0,134
-663,232	-200,000	0,005	0,022
-662,218	369,024	-0,072	0,108
-661,203	322,505	-0,046	0,064
-660,189	800,000	-0,016	-0,036
-659,174	-200,000	-0,033	-0,142
-658,159	384,438	-0,173	-0,263
-657,145	-200,000	0,053	-0,254
-656,130	-200,000	0,025	0,118
-655,116	-73,856	0,108	-0,029
-654,101	141,257	-0,059	-0,058
-653,086	459,553	0,088	-0,144
-652,072	-200,000	0,017	-0,109
-651,057	800,000	0,041	-0,084
-650,043	-200,000	-0,010	0,050
-649,028	-70,222	0,052	0,014
-648,014	-200,000	-0,006	-0,059
-646,999	336,013	-0,067	-0,096
-645,984	432,059	-0,078	-0,125
-644,970	-200,000	-0,003	-0,107
-643,955	-111,966	-0,073	0,011
-642,941	419,302	-0,032	0,050
-641,926	-178,618	-0,076	0,001
-640,911	-200,000	0,001	0,112
-639,897	-19,791	0,086	0,039
-638,882	49,697	-0,021	0,014
-637,868	-163,153	-0,107	-0,004
-636,853	345,687	-0,045	-0,065
-635,838	619,074	-0,074	-0,137
-634,824	-200,000	0,003	-0,021
-633,809	350,938	0,026	0,038
-632,795	189,378	0,072	0,079
-631,780	-86,978	-0,082	0,018
-630,765	63,481	-0,052	-0,038
-629,751	-47,573	-0,012	-0,004
-628,736	39,043	-0,124	0,081
-627,722	387,291	-0,048	-0,073
-626,707	244,266	0,059	-0,073
-625,692	-200,000	0,018	0,134
-624,678	153,457	-0,081	-0,081
-623,663	-3,724	-0,025	0,012
-622,649	795,847	-0,071	-0,145
-621,634	-200,000	0,005	0,108
-620,619	715,195	0,056	-0,110
-619,605	34,418	-0,075	0,048
-618,590	-200,000	0,020	-0,068
-617,576	264,094	-0,043	-0,055
-616,561	13,852	-0,076	-0,043
-615,546	-200,000	-0,003	0,095
-614,532	-200,000	-0,024	-0,112
-613,517	24,566	0,061	0,037
-612,503	-40,789	-0,047	-0,018
-611,488	-200,000	-0,006	-0,020
-610,474	800,000	-0,013	-0,030
-609,459	-139,288	-0,101	-0,008
-608,444	800,000	0,029	0,066
-607,430	800,000	-0,039	-0,080
-606,415	-85,384	-0,150	0,034
-605,401	-163,975	0,047	-0,002
-604,386	54,140	0,032	-0,023
-603,371	47,193	-0,054	-0,037
-602,357	-200,000	0,006	0,109
-601,342	800,000	0,044	-0,101
-600,328	-200,000	0,020	-0,085
-599,313	365,861	-0,062	-0,092
-598,298	19,515	-0,132	-0,077
-597,284	-200,000	0,008	-0,060
-596,269	321,582	0,029	0,041
-595,255	-200,000	0,003	-0,072
-594,240	697,503	-0,015	0,028
-593,225	82,111	-0,098	0,078
-592,211	292,408	0,059	-0,079
-591,196	381,697	0,056	0,084
-590,182	-200,000	0,060	0,000
-589,167	57,656	0,143	-0,102
-588,152	-151,958	-0,064	0,003
-587,138	-200,000	-0,011	-0,037
-586,123	-200,000	0,014	-0,060
-585,109	684,782	-0,075	-0,144
-584,094	591,399	0,080	-0,144
-583,079	-82,314	0,027	0,006
-582,065	-39,590	-0,036	0,014
-581,050	468,031	-0,031	0,050
-580,036	275,299	-0,020	0,026
-579,021	35,963	-0,057	-0,036
-578,006	-179,200	-0,124	0,002
-576,992	-30,165	-0,055	-0,023
-575,977	249,340	-0,117	0,146
-574,963	-105,663	-0,123	-0,020
-573,948	350,472	0,041	-0,060
-572,934	-156,582	-0,066	-0,003
-571,919	-106,775	0,110	0,018
-570,904	149,349	0,085	-0,084
-569,890	99,275	0,053	-0,045
-568,875	-200,000	-0,006	0,036
-567,861	628,246	0,049	0,092
-566,846	800,000	-0,053	0,133
-565,831	427,332	-0,070	0,111
-564,817	-200,000	0,019	-0,107
-563,802	163,101	0,036	0,037
-562,788	-200,000	-0,004	-0,076
-561,773	627,324	0,070	0,130
-560,758	231,254	0,108	-0,130
-559,744	-200,000	0,002	0,024
-558,729	12,947	0,134	0,076
-557,715	800,000	0,077	-0,237
-556,700	800,000	-0,034	0,083
-555,685	800,000	0,049	0,100
-554,671	222,406	0,069	0,082
-553,656	-83,844	-0,079	0,018
-552,642	495,985	0,044	0,074
-551,627	-101,378	-0,071	-0,013
-550,612	761,562	0,034	-0,068
-549,598	800,000	0,055	-0,144
-548,583	-200,000	0,015	-0,065
-547,569	800,000	0,063	-0,145
-546,554	-64,622	0,038	0,011
-545,539	100,497	-0,047	-0,040
-544,525	433,950	-0,047	0,075
-543,510	-43,185	0,191	-0,070
-542,496	-30,161	-0,032	0,013
-541,481	416,021	-0,037	-0,058
-540,466	-146,209	-0,047	0,003
-539,452	63,267	0,130	0,095
-538,437	29,275	0,014	0,009
-537,423	22,606	0,125	0,075
-536,408	23,852	-0,089	-0,054
-535,393	-55,229	-0,191	0,062
-534,379	300,854	-0,041	0,056
-533,364	655,291	0,027	0,051
-532,350	291,015	0,075	-0,100
-531,335	151,547	0,041	0,041
-530,321	-59,808	0,037	0,012
-529,306	-200,000	0,010	-0,049
-528,291	-200,000	-0,011	-0,039
-527,277	79,546	-0,120	-0,094
-526,262	89,619	0,039	-0,032
-525,248	439,786	0,098	0,157
-524,233	170,681	0,018	0,019
-523,218	611,009	-0,018	-0,033
-522,204	-13,839	0,084	0,040
-521,189	-200,000	0,032	-0,121
-520,175	-200,000	-0,003	-0,093
-519,160	-63,783	0,020	0,006
-518,145	368,877	-0,046	-0,068
-517,131	-200,000	0,008	-0,028
-516,116	-165,687	-0,075	0,002
-515,102	-137,731	-0,044	0,004
-514,087	329,960	-0,053	-0,075
-513,072	337,230	0,053	-0,075
-512,058	-200,000	-0,035	-0,139
-511,043	-200,000	0,027	0,122
-510,029	-200,000	0,011	0,109
-509,014	800,000	-0,014	0,034
-507,999	-145,465	-0,017	-0,001
-506,985	-7,516	-0,080	0,039
-505,970	48,265	-0,044	-0,030
-504,956	695,006	0,049	0,095
-503,941	800,000	0,040	-0,107
-502,926	-21,964	0,043	0,019
-501,912	29,073	0,071	-0,044
-500,897	-82,218	-0,055	0,013
-499,883	-69,360	0,049	0,014
-498,868	-200,000	-0,020	-0,091
-497,853	-162,874	-0,069	-0,002
-496,839	223,628	0,143	0,169
-495,824	133,675	-0,020	-0,019
-494,810	800,000	0,070	0,188
-493,795	-29,335	0,103	0,043
-492,781	52,537	0,070	0,049
-491,766	-126,397	-0,102	0,011
-490,751	781,534	0,043	0,086
-489,737	-200,000	0,039	0,157
-488,722	-200,000	0,002	-0,123
-487,708	-200,000	0,023	0,121
-486,693	-200,000	-0,028	0,099
-485,678	-200,000	-0,005	-0,072
-484,664	-162,289	-0,185	0,007
-483,649	-39,321	-0,093	0,035
-482,635	-28,309	-0,148	0,062
-481,620	-45,728	0,054	0,019
-480,605	-200,000	-0,035	0,115
-479,591	800,000	-0,029	0,062
-478,576	-52,474	-0,191	-0,064
-477,562	-200,000	0,007	-0,077
-476,547	-200,000	-0,003	-0,012
-475,532	-200,000	0,015	-0,067
-474,518	-200,000	0,017	0,144
-473,503	800,000	0,038	0,090
-472,489	800,000	-0,026	-0,060
-471,474	800,000	-0,012	-0,030
-470,459	-200,000	-0,040	-0,150
-469,445	800,000	0,029	-0,073
-468,430	800,000	0,014	-0,028
-467,416	-107,739	0,046	0,007
-466,401	-200,000	-0,010	0,055
-465,386	-151,840	0,128	-0,007
-464,372	37,576	-0,084	0,054
-463,357	237,491	-0,093	-0,113
-462,343	108,695	0,067	-0,058
-461,328	313,756	0,030	0,042
-460,313	-200,000	0,027	0,195
-459,299	-200,000	0,031	0,111
-458,284	71,652	0,018	0,014
-457,270	-171,768	-0,205	-0,005
-456,255	55,297	-0,071	-0,050
-455,241	800,000	-0,050	0,104
-454,226	-200,000	0,017	-0,155
-453,211	-200,000	-0,009	-0,033
-452,197	174,419	-0,110	-0,116
-451,182	326,850	-0,110	0,154
-450,168	275,118	0,084	-0,109
-449,153	45,316	0,040	-0,027
-448,138	75,710	-0,085	-0,066
-447,124	260,848	0,041	-0,052
-446,109	-88,904	0,154	0,033
-445,095	-127,284	0,159	0,017
-444,080	213,881	0,063	-0,073
-443,065	21,000	0,144	-0,085
-442,051	800,000	-0,033	0,082
-441,036	18,204	-0,048	-0,028
-440,022	258,690	-0,055	-0,070
-439,007	100,813	-0,070	-0,060
-437,992	-200,000	0,007	-0,038
-436,978	-72,329	-0,059	0,016
-435,963	22,558	-0,025	0,015
-434,949	263,900	-0,077	-0,098
-433,934	-200,000	-0,011	-0,155
-432,919	63,853	-0,029	0,021
-431,905	587,994	-0,032	0,057
-430,890	800,000	-0,061	-0,187
-429,876	-144,678	0,112	-0,007
-428,861	-69,211	0,070	0,019
-427,846	800,000	-0,037	0,115
-426,832	-120,377	-0,065	-0,008
-425,817	-41,746	-0,018	0,007
-424,803	-200,000	-0,005	0,058
-423,788	-200,000	-0,004	0,090
-422,773	56,526	-0,060	0,042
-421,759	140,243	-0,034	0,033
-420,744	359,062	-0,066	0,096
-419,730	-55,425	0,031	-0,010
-418,715	233,834	-0,038	-0,046
-417,701	607,230	0,036	0,065
-416,686	-200,000	-0,022	0,153
-415,671	800,000	0,039	0,111
-414,657	800,000	0,041	0,103
-413,642	-200,000	-0,032	0,141
-412,628	-200,000	0,017	-0,117
-411,613	-200,000	-0,043	-0,170
-410,598	-23,876	-0,102	0,044
-409,584	-98,199	0,051	0,010
-408,569	-137,664	-0,082	-0,007
-407,555	800,000	0,069	0,147
-406,540	800,000	0,054	0,116
-405,525	800,000	0,004	0,012
-404,511	-48,043	-0,083	-0,029
-403,496	-200,000	0,019	0,143
-402,482	-107,240	-0,097	-0,015
-401,467	91,452	0,107	-0,088
-400,452	152,162	-0,063	0,062
-399,438	-200,000	-0,008	0,080
-398,423	93,952	0,046	-0,038
-397,409	762,421	-0,031	0,061
-396,394	451,723	0,040	0,064
-395,379	132,023	-0,029	-0,027
-394,365	-200,000	0,013	0,150
-393,350	188,834	-0,019	0,021
-392,336	-200,000	-0,005	0,100
-391,321	-91,899	-0,108	-0,022
-390,306	-2,618	0,056	0,028
-389,292	189,481	0,033	0,036
-388,277	-33,554	-0,054	-0,022
-387,263	-200,000	-0,002	-0,104
-386,248	800,000	0,064	0,146
-385,233	-128,766	-0,160	0,016
-384,219	-200,000	-0,004	-0,056
-383,204	-200,000	0,018	0,070
-382,190	800,000	0,031	-0,081
-381,175	349,951	0,035	0,051
-380,160	393,467	0,040	-0,060
-379,146	-169,837	0,130	-0,003
-378,131	341,921	-0,052	0,075
-377,117	-200,000	0,012	-0,088
-376,102	195,913	0,057	-0,063
-375,088	239,693	-0,097	-0,117
-374,073	429,356	-0,062	-0,097
-373,058	18,455	-0,049	0,028
-372,044	800,000	0,053	0,158
-371,029	-49,956	-0,022	-0,007
-370,015	-200,000	-0,006	-0,093
-369,000	152,348	-0,105	0,104
-367,985	-200,000	-0,020	0,092
-366,971	92,429	-0,102	-0,084
-365,956	-200,000	-0,002	0,080
-364,942	-84,302	0,074	-0,017
-363,927	104,103	-0,049	-0,042
-362,912	353,020	0,012	0,017
-361,898	-21,321	-0,115	-0,051
-360,883	-200,000	0,003	-0,019
-359,869	62,145	0,031	0,023
-358,854	800,000	0,102	-0,231
-357,839	-63,659	-0,136	-0,040
-356,825	-119,836	0,109	0,013
-355,810	87,281	-0,111	0,089
-354,796	311,947	0,013	0,018
-353,781	240,924	-0,102	0,124
-352,766	21,190	0,073	0,043
-351,752	68,098	0,045	0,033
-350,737	800,000	0,020	0,060
-349,723	170,263	0,100	0,104
-348,708	-50,780	-0,055	-0,019
-347,693	40,322	0,133	-0,087
-346,679	754,396	-0,078	-0,154
-345,664	11,621	0,062	-0,034
-344,650	-132,254	0,041	0,004
-343,635	18,810	0,007	-0,004
-342,620	226,140	-0,056	0,066
-341,606	-93,871	-0,017	0,003
-340,591	-200,000	-0,003	0,014
-339,577	-163,916	-0,096	0,003
-338,562	-107,204	-0,099	-0,016
-337,548	28,631	0,047	0,029
-336,533	192,234	0,075	-0,083
-335,518	-17,407	0,050	0,023
-334,504	-3,939	0,128	-0,064
-333,489	687,665	-0,071	0,136
-332,475	-200,000	-0,003	-0,021
-331,460	-200,000	-0,022	-0,117
-330,445	74,577	0,020	-0,016
-329,431	-191,498	0,068	-0,000
-328,416	800,000	0,033	0,103
-327,402	-163,519	0,091	0,003
-326,387	-200,000	-0,051	0,221
-325,372	-6,532	-0,096	0,047
-324,358	-12,031	0,055	0,026
-323,343	800,000	0,051	-0,156
-322,329	101,251	0,053	-0,044
-321,314	86,910	-0,063	-0,050
-320,299	648,641	-0,034	0,064
-319,285	68,882	0,041	-0,030
-318,270	585,399	-0,008	-0,015
-317,256	37,150	0,077	0,050
-316,241	-194,870	0,085	0,000
-315,226	-43,475	0,083	-0,030
-314,212	-55,571	-0,057	0,018
-313,197	4,056	0,134	0,071
-312,183	112,102	0,071	-0,062
-311,168	-82,341	0,069	0,016
-310,153	-63,155	-0,058	0,017
-309,139	800,000	0,051	-0,133
-308,124	-200,000	-0,005	-0,101
-307,110	81,624	0,113	0,089
-306,095	116,780	-0,040	0,036
-305,080	-200,000	0,005	-0,129
-304,066	800,000	-0,029	-0,091
-303,051	-200,000	0,020	-0,083
-302,037	-20,649	-0,079	-0,035
-301,022	70,879	-0,085	-0,064
-300,008	800,000	0,010	-0,029
-298,993	800,000	0,042	0,086
-297,978	-200,000	-0,007	0,044
-296,964	-103,994	-0,065	-0,011
-295,949	-200,000	-0,041	0,143
-294,935	315,907	-0,027	0,037
-293,920	-30,819	-0,015	0,006
-292,905	-42,941	0,108	0,039
-291,891	129,283	0,177	0,163
-290,876	-118,161	0,115	0,015
-289,862	9,465	-0,182	0,100
-288,847	800,000	-0,006	-0,015
-287,832	800,000	0,050	-0,152
-286,818	800,000	-0,009	-0,022
-285,803	-90,767	0,067	-0,014
-284,789	800,000	0,014	0,044
-283,774	-39,249	0,094	0,035
-282,759	-19,296	0,159	-0,071
-281,745	4,168	-0,015	-0,008
-280,730	-66,407	0,095	-0,027
-279,716	-22,558	-0,129	-0,056
-278,701	-36,598	-0,022	-0,008
-277,686	800,000	0,041	0,085
-276,672	800,000	0,019	0,057
-275,657	800,000	0,028	-0,075
-274,643	-200,000	-0,027	-0,164
-273,628	-88,188	-0,175	0,038
-272,613	-29,718	0,029	-0,012
-271,599	78,648	0,117	-0,091
-270,584	-200,000	-0,024	0,080
-269,570	-124,273	0,125	0,014
-268,555	-151,276	-0,135	-0,007
-267,540	-200,000	0,004	0,122
-266,526	611,591	-0,049	-0,090
-265,511	800,000	-0,026	0,061
-264,497	39,795	0,049	-0,031
-263,482	800,000	-0,015	0,031
-262,467	-126,199	-0,013	0,001
-261,453	-1,531	0,064	0,032
-260,438	-200,000	-0,012	0,058
-259,424	-200,000	0,020	0,128
-258,409	-23,082	0,050	-0,022
-257,395	107,480	0,119	0,102
-256,380	125,992	0,067	0,061
-255,365	-192,622	0,021	0,000
-254,351	220,467	-0,079	-0,092
-253,336	-34,801	-0,114	-0,045
-252,322	421,027	-0,029	-0,044
-251,307	484,750	-0,054	0,089
-250,292	-109,485	0,085	0,013
-249,278	68,315	-0,123	-0,091
-248,263	800,000	-0,045	0,092
-247,249	800,000	0,027	-0,062
-246,234	-158,432	-0,103	-0,004
-245,219	-76,530	-0,060	0,015
-244,205	-13,857	-0,026	0,012
-243,190	603,283	-0,010	0,019
-242,176	204,594	-0,009	0,010
-241,161	-45,417	0,155	0,055
-240,146	-200,000	-0,001	0,160
-239,132	-111,222	-0,088	-0,013
-238,117	271,914	-0,044	-0,056
-237,103	229,818	-0,129	-0,153
-236,088	-200,000	0,030	-0,118
-235,073	-10,451	0,024	-0,011
-234,059	-50,355	-0,140	0,048
-233,044	81,238	0,053	0,041
-232,030	-200,000	0,018	0,115
-231,015	-85,510	-0,112	-0,025
-230,000	-108,430	-0,030	-0,005
-228,986	-200,000	0,000	-0,135
-227,971	484,292	0,053	-0,088
-226,957	800,000	0,077	-0,189
-225,942	34,505	0,067	0,042
-224,927	-200,000	0,005	-0,021
-223,913	16,542	0,072	-0,041
-222,898	800,000	-0,026	-0,056
-221,884	501,612	0,037	-0,063
-220,869	800,000	-0,073	-0,165
-219,855	-200,000	-0,008	0,027
-218,840	0,430	0,168	-0,087
-217,825	-19,051	0,107	0,048
-216,811	-76,291	-0,108	-0,027
-215,796	-92,297	-0,093	-0,019
-214,782	20,710	-0,047	0,027
-213,767	-13,360	-0,114	0,053
-212,752	-18,349	0,102	-0,046
-211,738	-83,942	0,170	-0,039
-210,723	-200,000	-0,008	-0,094
-209,709	76,940	0,057	-0,044
-208,694	11,403	-0,188	0,104
-207,679	203,081	-0,104	0,116
-206,665	-91,923	0,120	-0,024
-205,650	-200,000	-0,056	0,241
-204,636	76,309	0,043	-0,033
-203,621	152,155	-0,075	-0,074
-202,606	-200,000	0,005	0,079
-201,592	219,552	-0,071	-0,083
-200,577	-153,479	0,107	-0,005
-199,563	800,000	-0,033	0,081
-198,548	12,628	0,195	0,108
-197,533	234,903	0,067	0,080
-196,519	-200,000	-0,008	-0,066
-195,504	800,000	0,020	-0,052
-194,490	-33,169	-0,093	-0,037
-193,475	-200,000	-0,012	-0,077
-192,460	494,072	0,045	-0,075
-191,446	497,730	-0,026	0,044
-190,431	144,395	0,052	0,050
-189,417	149,422	0,107	-0,105
-188,402	-87,413	-0,045	0,010
-187,387	800,000	-0,048	-0,115
-186,373	-150,906	0,094	-0,005
-185,358	291,230	0,145	0,191
-184,344	-45,576	0,107	0,038
-183,329	-200,000	0,007	0,033
-182,315	1,529	-0,059	0,031
-181,300	19,333	0,037	0,021
-180,285	415,549	0,064	-0,099
-179,271	-200,000	0,030	-0,142
-178,256	-99,056	-0,064	-0,012
-177,242	4,701	0,054	-0,029
-176,227	651,056	-0,021	0,038
-175,212	-18,623	0,061	0,027
-174,198	-200,000	0,008	-0,080
-173,183	-145,598	0,040	0,003
-172,169	271,993	-0,091	-0,116
-171,154	111,090	-0,050	0,043
-170,139	38,949	0,145	0,093
-169,125	100,124	0,026	0,021
-168,110	382,120	-0,108	0,160
-167,096	292,702	0,053	0,070
-166,081	156,345	-0,029	0,029
-165,066	800,000	0,027	-0,064
-164,052	215,504	0,080	0,092
-163,037	-38,268	0,075	0,028
-162,023	261,481	0,094	0,118
-161,008	-117,426	0,175	0,023
-159,993	27,793	-0,097	-0,059
-158,979	-56,073	-0,126	0,040
-157,964	-0,111	-0,029	0,015
-156,950	59,206	-0,006	-0,004
-155,935	331,851	-0,048	0,068
-154,920	-154,875	0,153	-0,007
-153,906	-22,479	0,109	0,047
-152,891	-200,000	0,010	0,059
-151,877	150,357	-0,062	0,061
-150,862	289,703	-0,029	-0,038
-149,847	-61,260	0,029	0,009
-148,833	-200,000	0,007	0,097
-147,818	800,000	0,045	0,128
-146,804	231,662	-0,083	0,098
-145,789	-13,636	0,139	0,064
-144,775	7,200	-0,016	0,009
-143,760	800,000	-0,016	0,047
-142,745	800,000	-0,035	-0,070
-141,731	260,559	0,037	-0,046
-140,716	51,517	0,130	-0,089
-139,702	-94,964	0,031	0,006
-138,687	800,000	-0,051	0,119
-137,672	800,000	0,039	-0,104
-136,658	800,000	-0,044	-0,139
-135,643	800,000	0,035	-0,083
-134,629	539,111	0,048	0,082
-133,614	18,240	0,026	0,015
-132,599	800,000	-0,039	-0,095
-131,585	-95,988	0,090	-0,017
-130,570	17,236	-0,096	-0,054
-129,556	5,396	0,075	-0,040
-128,541	-94,484	-0,102	-0,020
-127,526	322,959	0,078	0,107
-126,512	67,626	0,021	-0,015
-125,497	800,000	-0,023	0,065
-124,483	794,291	-0,076	-0,150
-123,468	-200,000	-0,008	-0,052
-122,453	56,963	-0,065	0,045
-121,439	-57,366	-0,236	0,074
-120,424	-87,791	-0,123	0,026
-119,410	-123,689	0,040	-0,005
-118,395	118,905	0,154	0,137
-117,380	800,000	0,096	0,205
-116,366	-200,000	0,011	-0,063
-115,351	425,688	0,068	0,105
-114,337	800,000	-0,045	-0,115
-113,322	800,000	0,053	-0,142
-112,307	452,318	-0,053	-0,084
-111,293	69,507	0,010	-0,007
-110,278	800,000	0,025	-0,070
-109,264	293,372	-0,047	0,062
-108,249	222,044	0,071	-0,082
-107,234	172,150	0,070	0,072
-106,220	800,000	0,012	-0,026
-105,205	392,006	-0,064	0,096
-104,191	219,436	-0,047	0,054
-103,176	800,000	0,044	-0,101
-102,162	76,300	-0,098	0,075
-101,147	5,223	-0,010	0,005
-100,132	-103,034	-0,068	0,011
-99,118	-200,000	0,037	-0,121
-98,103	-100,871	-0,018	-0,003
-97,089	800,000	-0,026	0,078
-96,074	800,000	0,008	-0,019
-95,059	12,828	0,040	0,022
-94,045	117,313	-0,080	-0,071
-93,030	-200,000	-0,014	-0,059
-92,016	800,000	-0,019	-0,046
-91,001	188,348	-0,142	-0,153
-89,986	-39,061	0,065	-0,025
-88,972	296,448	0,029	-0,038
-87,957	186,758	-0,054	-0,058
-86,943	800,000	0,003	0,010
-85,928	-200,000	0,001	-0,158
-84,913	-35,799	-0,047	0,018
-83,899	-82,751	0,144	0,033
-82,884	-130,982	0,101	-0,010
-81,870	168,803	-0,072	-0,074
-80,855	-200,000	0,002	-0,013
-79,840	46,560	-0,057	-0,038
-78,826	-76,179	-0,061	0,015
-77,811	-200,000	0,004	-0,092
-76,797	80,718	0,074	0,057
-75,782	109,291	-0,054	-0,046
-74,767	-41,898	-0,116	0,043
-73,753	1,499	-0,102	0,053
-72,738	-134,297	-0,134	0,012
-71,724	145,669	-0,041	-0,039
-70,709	-200,000	0,014	0,129
-69,694	431,736	-0,029	0,045
-68,680	-30,383	0,021	-0,009
-67,665	-200,000	-0,016	0,115
-66,651	-83,252	0,061	-0,014
-65,636	164,039	0,018	0,018
-64,622	-200,000	0,007	-0,029
-63,607	-106,044	-0,113	-0,018
-62,592	153,345	0,021	0,021
-61,578	800,000	0,032	0,076
-60,563	-200,000	0,004	0,017
-59,549	-171,781	-0,218	0,005
-58,534	8,261	-1,974	-1,061
-57,519	-200,000	-0,281	-0,920
-56,505	-200,000	-1,142	-5,103
-55,490	-28,443	0,896	0,369
-54,476	800,000	5,319	12,191
-53,461	-200,000	17,680	285,884
-52,446	800,000	728,861	2219,442
-51,432	534,641	1644,445	2808,850
-50,417	109,923	1634,557	1407,128
-49,403	75,940	1286,388	975,429
-48,388	32,100	1027,347	634,355
-47,373	20,206	989,328	571,664
-46,359	18,478	977,202	558,972
-45,344	15,653	973,093	547,357
-44,330	15,812	971,778	547,116
-43,315	15,359	970,002	544,613
-42,300	15,293	968,669	543,628
-41,286	15,266	967,818	543,043
-40,271	15,239	966,899	542,416
-39,257	15,231	965,977	541,851
-38,242	15,279	965,130	541,510
-37,227	15,312	964,287	541,123
-36,213	15,303	963,323	540,532
-35,198	15,244	962,577	539,901
-34,184	15,338	961,640	539,658
-33,169	15,271	960,791	538,943
-32,154	15,373	959,822	538,708
-31,140	15,343	958,998	538,127
-30,125	15,285	958,221	537,483
-29,111	15,259	957,470	536,958
-28,096	15,339	956,826	536,830
-27,082	15,295	956,105	536,265
-26,067	15,256	955,344	535,692
-25,052	15,313	954,502	535,381
-24,038	15,295	954,055	535,051
-23,023	15,268	953,198	534,463
-22,009	15,300	952,567	534,191
-20,994	15,288	952,130	533,885
-19,979	15,273	951,422	533,419
-18,965	15,304	950,685	533,083
-17,950	15,257	950,172	532,626
-16,936	15,194	949,723	532,150
-15,921	15,217	948,777	531,672
-14,906	15,150	948,068	531,041
-13,892	15,171	947,475	530,755
-12,877	15,175	946,779	530,358
-11,863	15,140	946,116	529,854
-10,848	15,110	945,749	529,532
-9,833	15,267	945,134	529,666
-8,819	15,260	944,635	529,342
-7,804	15,212	943,842	528,724
-6,790	15,213	943,459	528,492
-5,775	15,231	942,751	528,130
-4,760	15,198	942,065	527,622
-3,746	15,240	941,361	527,339
-2,731	15,042	940,880	526,423
-1,717	14,977	940,244	525,840
-0,702	15,055	939,425	525,607
0,313	14,850	938,849	525,431
1,327	18,167	936,562	534,549
2,342	27,274	793,662	477,098
3,356	24,094	458,705	270,862
4,371	-3,392	314,638	156,557
5,386	-7,482	296,316	143,286
6,400	-9,468	290,228	138,358
7,415	-9,859	287,878	136,840
8,429	-10,030	286,302	135,911
9,444	-10,004	285,354	135,474
10,459	-10,066	284,765	135,122
11,473	-10,083	284,270	134,859
12,488	-10,265	283,853	134,471
13,502	-10,062	283,126	134,313
14,517	-10,136	282,741	134,046
15,531	-10,067	282,381	133,930
16,546	-9,936	281,917	133,825
17,561	-9,903	281,442	133,619
18,575	-10,031	281,252	133,394
19,590	-10,157	280,859	133,075
20,604	-9,984	280,480	133,049
21,619	-9,975	280,072	132,852
22,634	-9,834	279,770	132,832
23,648	-10,074	279,420	132,425
24,663	-10,140	279,373	132,327
25,677	-10,101	279,025	132,188
26,692	-9,995	278,707	132,127
27,707	-10,070	278,444	131,919
28,721	-9,985	278,193	131,869
29,736	-9,943	277,782	131,702
30,750	-9,967	277,609	131,586
31,765	-10,112	277,379	131,327
32,780	-9,933	277,199	131,400
33,794	-10,031	276,834	131,123
34,809	-9,872	276,445	131,077
35,823	-10,048	276,308	130,834
36,838	-9,976	276,072	130,778
37,853	-10,086	275,822	130,545
38,867	-10,098	275,694	130,462
39,882	-10,055	275,406	130,354
40,896	-10,210	275,318	130,155
41,911	-10,164	274,964	130,019
42,926	-10,067	274,699	129,974
43,940	-10,021	274,473	129,898
44,955	-10,163	274,240	129,643
45,969	-10,215	274,033	129,485
46,984	-10,371	273,834	129,234
47,999	-10,554	273,463	128,877
49,013	-10,500	273,194	128,788
50,028	-10,524	272,913	128,622
51,042	-10,780	272,670	128,258
52,057	-10,690	272,337	128,173
53,071	-10,737	272,337	128,118
54,086	-10,602	272,187	128,162
55,101	-10,500	271,746	128,037
56,115	-10,292	271,864	128,274
57,130	-9,859	271,313	128,403
58,144	-9,945	271,345	128,327
59,159	-10,018	271,155	128,158
60,174	-9,899	270,970	128,169
61,188	-9,864	270,652	128,039
62,203	-10,034	270,572	127,834
63,217	-9,893	270,254	127,802
64,232	-10,098	270,002	127,483
65,247	-10,021	269,710	127,404
66,261	-10,044	269,631	127,335
67,276	-10,033	269,299	127,177
68,290	-10,219	268,952	126,832
69,305	-10,304	268,801	126,671
70,320	-10,337	268,675	126,570
71,334	-9,950	268,294	126,733
72,349	-10,000	268,197	126,630
73,363	-10,058	268,115	126,527
74,378	-10,046	267,739	126,349
75,393	-9,874	267,553	126,406
76,407	-9,984	267,320	126,185
77,422	-10,077	267,150	126,009
78,436	-9,930	266,869	125,999
79,451	-9,916	266,726	125,933
80,466	-9,984	266,405	125,708
81,480	-10,193	266,174	125,400
82,495	-10,056	266,007	125,434
83,509	-10,054	265,800	125,326
84,524	-10,143	265,660	125,169
85,539	-10,312	265,510	124,935
86,553	-10,447	265,258	124,683
87,568	-10,114	264,993	124,847
88,582	-10,082	264,756	124,753
89,597	-9,986	264,455	124,687
90,611	-9,939	264,403	124,693
91,626	-10,024	264,292	124,553
92,641	-9,873	263,963	124,522
93,655	-10,077	263,929	124,313
94,670	-10,029	263,500	124,143
95,684	-10,202	263,325	123,894
96,699	-10,029	263,257	124,006
97,714	-9,938	263,001	123,956
98,728	-10,310	262,766	123,501
99,743	-10,162	262,541	123,516
100,757	-10,179	262,236	123,347
101,772	-10,198	262,243	123,323
102,787	-10,048	261,943	123,303
103,801	-9,867	261,662	123,321
104,816	-9,910	261,666	123,273
105,830	-9,924	261,441	123,144
106,845	-9,801	261,270	123,162
107,860	-9,964	261,065	122,910
108,874	-9,955	260,824	122,794
109,889	-9,996	260,629	122,655
110,903	-9,884	260,484	122,674
111,918	-10,102	260,147	122,312
112,933	-10,076	260,040	122,274
113,947	-9,980	259,900	122,282
114,962	-10,211	259,702	121,974
115,976	-9,832	259,429	122,168
116,991	-9,893	259,155	121,975
118,006	-9,957	259,160	121,911
119,020	-10,097	259,023	121,712
120,035	-9,925	258,792	121,744
121,049	-9,948	258,652	121,647
122,064	-9,978	258,542	121,558
123,079	-10,017	258,350	121,422
124,093	-9,968	258,055	121,316
125,108	-10,046	257,820	121,127
126,122	-10,291	257,440	120,724
127,137	-10,268	257,332	120,683
128,151	-10,377	257,230	120,528
129,166	-10,198	256,976	120,555
130,181	-10,211	256,718	120,412
131,195	-10,218	256,490	120,288
132,210	-10,299	256,575	120,247
133,224	-9,858	256,271	120,476
134,239	-9,960	256,100	120,297
135,254	-10,027	255,941	120,153
136,268	-10,143	255,738	119,947
137,283	-10,222	255,367	119,694
138,297	-10,276	255,079	119,501
139,312	-10,333	255,001	119,405
140,327	-10,164	254,856	119,472
141,341	-9,822	254,863	119,760
142,356	-9,860	254,585	119,586
143,370	-9,899	254,549	119,524
144,385	-9,664	254,274	119,587
145,400	-9,620	254,080	119,523
146,414	-9,706	253,920	119,363
147,429	-9,893	253,747	119,111
148,443	-9,854	253,615	119,071
149,458	-9,659	253,297	119,078
150,473	-9,781	253,135	118,887
151,487	-9,798	252,865	118,735
152,502	-9,945	252,846	118,591
153,516	-9,771	252,607	118,616
154,531	-9,807	252,355	118,457
155,546	-9,915	252,269	118,313
156,560	-9,772	252,008	118,302
157,575	-9,989	251,807	118,013
158,589	-9,904	251,725	118,036
159,604	-9,836	251,446	117,952
160,619	-9,882	251,305	117,837
161,633	-9,708	251,190	117,919
162,648	-9,634	251,084	117,922
163,662	-9,806	250,882	117,671
164,677	-9,434	250,574	117,831
165,692	-9,667	250,436	117,559
166,706	-9,740	250,347	117,445
167,721	-9,804	250,175	117,300
168,735	-9,706	249,915	117,250
169,750	-9,732	250,017	117,265
170,764	-9,721	249,750	117,139
171,779	-9,736	249,576	117,034
172,794	-9,753	249,455	116,953
173,808	-9,889	249,189	116,704
174,823	-10,054	248,807	116,376
175,837	-10,267	248,655	116,115
176,852	-9,873	248,561	116,392
177,867	-9,688	248,643	116,575
178,881	-9,777	248,452	116,400
179,896	-9,744	248,249	116,322
180,910	-9,752	248,033	116,204
181,925	-9,762	247,827	116,089
182,940	-9,742	247,700	116,035
183,954	-9,486	247,357	116,078
184,969	-9,632	247,558	116,040
185,983	-9,743	247,144	115,743
186,998	-9,582	246,907	115,756
188,013	-9,917	246,940	115,483
189,027	-9,745	246,646	115,477
190,042	-9,761	246,481	115,377
191,056	-9,626	246,298	115,393
192,071	-9,831	246,294	115,211
193,086	-9,789	245,982	115,089
194,100	-9,957	245,906	114,904
195,115	-9,662	245,639	115,013
196,129	-9,585	245,381	114,946
197,144	-9,695	245,143	114,733
198,159	-9,548	244,985	114,770
199,173	-9,806	244,931	114,522
200,188	-9,910	244,755	114,343
201,202	-10,078	244,480	114,067
202,217	-10,333	244,143	113,690
203,232	-10,256	243,966	113,660
204,246	-10,067	243,975	113,810
205,261	-9,494	243,830	114,202
206,275	-10,295	243,373	113,322
207,290	-7,461	244,613	116,220
208,304	-0,547	246,895	123,018
209,319	3,394	247,845	126,746
210,334	4,031	247,854	127,266
211,348	4,040	247,773	127,220
212,363	4,128	247,792	127,291
213,377	4,203	247,569	127,227
214,392	4,234	247,260	127,083
215,407	4,399	247,103	127,126
216,421	4,234	246,849	126,849
217,436	4,183	246,878	126,811
218,450	4,409	246,739	126,914
219,465	3,811	246,722	126,402
220,480	3,861	246,373	126,253
221,494	3,847	246,180	126,131
222,509	4,105	246,054	126,267
223,523	3,737	245,864	125,857
224,538	3,352	245,463	125,325
225,553	3,554	245,334	125,413
226,567	3,745	245,337	125,560
227,582	3,617	245,196	125,372
228,596	3,681	245,181	125,406
229,611	3,714	244,714	125,182
230,626	3,386	244,470	124,779
231,640	3,792	244,471	125,099
232,655	3,641	244,365	124,911
233,669	3,572	244,014	124,664
234,684	3,549	243,807	124,528
235,699	3,718	243,880	124,692
236,713	3,937	243,710	124,771
237,728	3,792	243,513	124,542
238,742	3,451	243,242	124,116
239,757	3,227	243,170	123,887
240,772	3,537	243,050	124,066
241,786	3,594	242,812	123,979
242,801	3,575	242,753	123,923
243,815	3,351	242,548	123,626
244,830	3,601	242,494	123,789
245,844	3,494	242,365	123,626
246,859	3,618	242,018	123,538
247,874	3,446	241,839	123,297
248,888	3,708	241,649	123,401
249,903	3,660	241,679	123,366
250,917	3,631	241,593	123,287
251,932	3,885	241,371	123,367
252,947	3,581	241,295	123,073
253,961	3,699	240,832	122,921
254,976	3,575	240,870	122,830
255,990	3,839	240,864	123,027
257,005	3,552	240,527	122,615
258,020	3,168	240,381	122,223
259,034	3,437	240,149	122,309
260,049	3,702	240,079	122,473
261,063	3,709	239,749	122,299
262,078	3,444	239,751	122,078
263,093	3,682	239,641	122,201
264,107	3,920	239,475	122,295
265,122	3,648	239,262	121,958
266,136	3,529	239,334	121,890
267,151	3,621	239,202	121,885
268,166	3,603	238,775	121,643
269,180	3,374	238,687	121,405
270,195	4,068	238,598	121,899
271,209	4,267	238,439	121,964
272,224	3,740	238,208	121,418
273,239	3,229	238,126	120,962
274,253	3,524	237,754	120,995
275,268	3,731	237,777	121,159
276,282	3,745	237,624	121,081
277,297	3,447	237,359	120,701
278,312	3,475	237,369	120,717
279,326	3,670	237,178	120,763
280,341	3,505	237,085	120,575
281,355	3,711	236,839	120,601
282,370	3,746	236,751	120,573
283,384	3,799	236,583	120,518
284,399	3,563	236,277	120,167
285,414	3,223	236,116	119,808
286,428	3,312	236,116	119,867
287,443	3,549	235,886	119,925
288,457	3,603	235,799	119,912
289,472	3,875	235,678	120,053
290,487	3,716	235,598	119,876
291,501	3,571	235,273	119,588
292,516	3,445	235,080	119,381
293,530	3,382	234,864	119,212
294,545	3,554	234,939	119,373
295,560	3,481	234,857	119,264
296,574	3,322	234,558	118,977
297,589	3,596	234,496	119,148
298,603	3,809	234,349	119,228
299,618	3,713	234,271	119,103
300,633	3,978	233,929	119,125
301,647	3,915	233,868	119,034
302,662	4,083	233,938	119,189
303,676	4,164	233,720	119,130
304,691	3,779	233,567	118,743
305,706	4,104	233,353	118,875
306,720	4,067	233,216	118,767
307,735	3,712	233,018	118,381
308,749	3,728	232,802	118,273
309,764	3,649	232,672	118,136
310,779	3,428	232,506	117,871
311,793	3,455	232,279	117,766
312,808	3,234	232,156	117,524
313,822	3,348	231,894	117,468
314,837	3,193	231,868	117,326
315,852	3,276	231,740	117,313
316,866	3,763	231,559	117,585
317,881	3,830	231,536	117,613
318,895	3,873	231,462	117,598
319,910	3,865	231,363	117,531
320,925	3,699	230,976	117,198
321,939	3,500	230,811	116,952
322,954	3,822	230,709	117,136
323,968	3,342	230,573	116,690
324,983	3,490	230,427	116,718
325,997	3,898	230,454	117,032
327,012	3,856	230,249	116,886
328,027	3,434	230,190	116,525
329,041	3,614	230,014	116,562
330,056	4,311	229,930	117,038
331,070	4,150	229,762	116,820
332,085	4,114	229,595	116,697
333,100	4,039	229,367	116,514
334,114	4,052	229,199	116,428
335,129	3,796	229,137	116,193
336,143	3,913	228,916	116,159
337,158	4,006	228,833	116,176
338,173	4,044	228,594	116,073
339,187	3,987	228,496	115,970
340,202	3,734	228,294	115,667
341,216	3,906	228,309	115,794
342,231	3,589	228,147	115,463
343,246	3,879	227,875	115,533
344,260	3,928	227,849	115,546
345,275	4,091	227,717	115,591
346,289	4,094	227,624	115,536
347,304	4,087	227,557	115,487
348,319	4,086	227,220	115,304
349,333	3,851	227,150	115,082
350,348	3,677	226,867	114,799
351,362	3,973	226,670	114,910
352,377	3,591	226,523	114,541
353,392	3,552	226,437	114,457
354,406	3,606	226,313	114,425
355,421	195,105	1320,361	1395,803
356,435	156,392	1453,638	1395,796
