DTS Sentinel unit serial number:	SN410029Multiplexer serial number:	ORYXHardware model number:	OX2-SRSoftware version number:	ORYX F/W v4,00 Oryx Data Collector v3.7.2.0data status	okinstallation	B5 Nyhavnadifferential loss correction	single-endedforward channel	channel 2reverse channel	N/Adate	2023/12/12time	15:22:13forward acquisition time	300,00reverse acquisition time	0,00gamma	499,1914k internal	0,3156k external	0,3156temperature offset calibration	1,0000default loss term (dB/km)	0,3820temperature slope calibration	1,0000multiplexer offset coefficient	1,0000multiplexer slope coefficient	1,0000fibre end	0,00T internal ref (°C)	15,93T ext. ref 1 (°C)	-0,43T ext. ref 2 (°C)	-0,66length (m)	temperature (°C)	Stokes	anti-Stokes-744,400	190,974	0,003	0,003
-743,385	-18,376	-0,312	0,143
-742,371	90,542	0,144	0,119
-741,356	-104,187	-0,239	0,041
-740,342	-200,000	-0,019	0,062
-739,327	-34,877	-0,153	0,061
-738,312	-95,476	0,048	-0,009
-737,298	-109,964	-0,321	0,049
-736,283	344,449	0,059	0,085
-735,269	-56,278	-0,281	0,092
-734,254	-115,928	0,188	0,026
-733,239	-68,081	-0,504	-0,144
-732,225	-132,123	0,193	0,018
-731,210	184,468	-0,027	-0,029
-730,196	16,799	0,067	0,039
-729,181	-22,942	-0,085	-0,037
-728,167	-117,042	-0,063	-0,008
-727,152	800,000	0,035	-0,084
-726,137	126,613	-0,087	0,081
-725,123	800,000	0,036	0,095
-724,108	-136,736	-0,181	0,015
-723,094	234,269	-0,028	-0,035
-722,079	164,407	-0,054	-0,057
-721,064	-58,039	0,043	0,014
-720,050	800,000	-0,025	-0,055
-719,035	-200,000	-0,041	-0,226
-718,021	-200,000	-0,014	-0,068
-717,006	-87,552	-0,142	-0,031
-715,991	-200,000	-0,027	-0,117
-714,977	26,336	0,049	-0,030
-713,962	-200,000	-0,011	-0,042
-712,948	497,749	0,082	0,139
-711,933	16,293	-0,118	0,069
-710,918	41,213	0,058	0,038
-709,904	-13,239	-0,042	-0,020
-708,889	-113,776	-0,092	0,013
-707,875	800,000	0,026	0,078
-706,860	-56,074	-0,105	-0,034
-705,845	507,910	0,025	-0,043
-704,831	89,536	0,039	0,032
-703,816	-118,440	-0,091	0,012
-702,802	-27,334	0,093	-0,040
-701,787	222,029	0,030	0,036
-700,772	-200,000	0,018	-0,115
-699,758	-43,591	-0,193	0,071
-698,743	-16,633	0,098	-0,046
-697,729	-137,683	-0,055	-0,005
-696,714	-200,000	-0,001	0,013
-695,699	115,001	-0,084	-0,075
-694,685	-43,774	-0,160	-0,059
-693,670	-128,015	-0,053	-0,005
-692,656	747,715	0,044	-0,088
-691,641	-102,089	-0,058	0,010
-690,627	-200,000	-0,037	0,167
-689,612	800,000	0,025	0,072
-688,597	-6,925	-0,160	-0,080
-687,583	-200,000	0,006	-0,080
-686,568	131,619	-0,105	-0,100
-685,554	147,431	0,163	-0,161
-684,539	-200,000	0,016	-0,055
-683,524	-133,413	-0,151	-0,014
-682,510	421,437	-0,025	-0,040
-681,495	5,262	-0,102	-0,055
-680,481	232,300	-0,077	-0,093
-679,466	800,000	0,024	-0,070
-678,451	-200,000	-0,015	-0,115
-677,437	-200,000	0,007	-0,071
-676,422	-200,000	0,002	-0,089
-675,408	256,049	-0,078	-0,099
-674,393	-200,000	-0,005	-0,065
-673,378	-169,212	-0,133	-0,004
-672,364	-200,000	-0,014	-0,064
-671,349	-54,266	-0,038	-0,013
-670,335	-2,147	0,065	0,034
-669,320	462,200	-0,032	0,053
-668,305	-45,044	-0,092	0,034
-667,291	-74,265	-0,138	0,037
-666,276	243,373	-0,084	-0,104
-665,262	-182,005	-0,193	0,003
-664,247	-200,000	0,011	-0,131
-663,232	-123,435	-0,170	-0,020
-662,218	-200,000	-0,019	0,079
-661,203	800,000	0,037	0,110
-660,189	800,000	-0,045	-0,111
-659,174	309,032	0,064	0,089
-658,159	-2,470	-0,089	-0,046
-657,145	-200,000	0,003	0,054
-656,130	800,000	-0,066	-0,174
-655,116	800,000	0,064	-0,143
-654,101	674,294	0,039	0,074
-653,086	-200,000	0,021	-0,092
-652,072	-133,646	-0,042	0,004
-651,057	-200,000	-0,020	-0,133
-650,043	-23,556	0,033	-0,015
-649,028	-149,720	-0,151	-0,009
-648,014	-44,765	0,066	0,024
-646,999	800,000	0,035	-0,073
-645,984	85,340	-0,050	-0,040
-644,970	800,000	-0,048	-0,115
-643,955	800,000	0,017	0,041
-642,941	-18,747	-0,044	0,020
-641,926	-200,000	0,007	0,051
-640,911	8,588	0,047	-0,026
-639,897	195,904	0,110	-0,123
-638,882	203,516	0,079	0,090
-637,868	-200,000	0,031	-0,157
-636,853	-200,000	0,006	-0,095
-635,838	507,210	0,063	0,108
-634,824	385,457	0,004	0,006
-633,809	-80,217	-0,061	-0,015
-632,795	800,000	-0,041	0,093
-631,780	800,000	-0,004	-0,013
-630,765	-200,000	0,005	0,064
-629,751	21,350	0,074	-0,044
-628,736	-45,672	-0,088	-0,032
-627,722	-180,686	-0,104	-0,002
-626,707	257,813	-0,026	-0,033
-625,692	15,509	0,098	0,057
-624,678	-200,000	-0,008	-0,144
-623,663	-117,119	-0,090	0,012
-622,649	800,000	0,025	0,059
-621,634	66,643	0,062	-0,047
-620,619	102,098	0,075	-0,064
-619,605	-63,994	-0,044	0,013
-618,590	-200,000	-0,005	-0,117
-617,576	230,595	0,014	-0,017
-616,561	-0,330	0,049	0,026
-615,546	-200,000	0,041	-0,144
-614,532	128,676	-0,082	-0,077
-613,517	631,871	-0,065	-0,121
-612,503	-71,353	-0,110	0,030
-611,488	132,001	-0,063	-0,059
-610,474	-44,855	-0,120	-0,044
-609,459	-59,733	0,019	0,006
-608,444	164,064	0,023	-0,024
-607,430	62,711	-0,061	-0,045
-606,415	-151,463	-0,031	0,002
-605,401	800,000	-0,022	-0,066
-604,386	30,710	-0,083	-0,052
-603,371	-42,600	-0,092	0,034
-602,357	-200,000	-0,001	-0,160
-601,342	-200,000	0,021	-0,115
-600,328	65,131	-0,059	-0,044
-599,313	19,719	-0,017	-0,010
-598,298	759,087	0,046	0,092
-597,284	-101,430	0,028	-0,005
-596,269	800,000	-0,033	0,093
-595,255	-200,000	0,013	0,063
-594,240	-200,000	0,005	-0,045
-593,225	-200,000	0,020	-0,081
-592,211	-200,000	0,012	0,067
-591,196	98,252	0,021	-0,018
-590,182	163,169	0,072	0,075
-589,167	93,125	0,045	-0,037
-588,152	-200,000	0,004	0,180
-587,138	-200,000	0,004	-0,070
-586,123	-200,000	-0,042	-0,235
-585,109	9,833	-0,110	-0,061
-584,094	-71,639	0,018	-0,005
-583,079	162,301	0,114	-0,118
-582,065	705,267	-0,052	-0,102
-581,050	307,460	0,062	0,085
-580,036	234,730	-0,098	0,119
-579,021	-200,000	-0,016	-0,078
-578,006	-200,000	0,028	-0,098
-576,992	-73,503	0,088	-0,023
-575,977	-29,183	0,051	0,021
-574,963	-19,420	-0,034	0,016
-573,948	-200,000	0,002	-0,038
-572,934	-200,000	0,003	0,040
-571,919	71,571	-0,034	0,026
-570,904	-28,105	-0,053	0,022
-569,890	-9,735	-0,126	-0,061
-568,875	72,974	-0,096	-0,073
-567,861	-16,344	0,007	0,003
-566,846	-30,106	-0,100	-0,041
-565,831	-165,036	-0,011	0,000
-564,817	-109,120	-0,128	0,020
-563,802	-200,000	0,038	-0,150
-562,788	-31,059	0,146	0,060
-561,773	800,000	0,026	0,072
-560,758	-200,000	0,001	0,036
-559,744	-26,834	0,102	0,044
-558,729	422,487	-0,064	-0,101
-557,715	-200,000	-0,026	-0,106
-556,700	-55,484	-0,115	0,037
-555,685	-171,428	0,094	-0,002
-554,671	322,775	0,061	0,086
-553,656	12,498	0,074	0,041
-552,642	-57,472	-0,055	0,018
-551,627	-200,000	0,011	0,072
-550,612	34,558	0,023	0,015
-549,598	800,000	-0,056	-0,140
-548,583	-200,000	0,000	-0,027
-547,569	34,315	-0,036	-0,023
-546,554	85,052	0,081	-0,065
-545,539	-151,403	0,074	-0,004
-544,525	-200,000	0,010	-0,135
-543,510	-84,877	0,150	-0,034
-542,496	800,000	0,009	-0,028
-541,481	800,000	0,058	0,173
-540,466	559,738	-0,033	0,059
-539,452	-138,476	0,116	0,009
-538,437	-200,000	0,029	0,108
-537,423	-54,970	-0,120	-0,039
-536,408	-132,340	0,130	0,012
-535,393	107,344	-0,112	0,097
-534,379	-81,400	-0,079	-0,019
-533,364	191,401	-0,040	0,045
-532,350	104,340	-0,026	-0,023
-531,335	-79,257	-0,046	-0,011
-530,321	800,000	0,071	0,202
-529,306	-122,735	-0,100	-0,012
-528,291	348,158	0,063	-0,091
-527,277	800,000	0,077	-0,176
-526,262	185,481	0,060	0,066
-525,248	800,000	-0,054	-0,147
-524,233	-200,000	-0,003	0,124
-523,218	-37,863	0,123	0,048
-522,204	-200,000	-0,027	0,102
-521,189	-46,185	0,027	0,010
-520,175	-33,610	0,021	-0,008
-519,160	206,261	-0,100	0,114
-518,145	755,244	0,047	-0,094
-517,131	92,164	-0,092	-0,076
-516,116	88,316	0,063	-0,051
-515,102	-200,000	0,006	0,026
-514,087	-200,000	0,000	-0,159
-513,072	-200,000	0,012	-0,095
-512,058	249,381	-0,022	-0,028
-511,043	-99,417	-0,016	-0,003
-510,029	800,000	-0,057	0,143
-509,014	800,000	-0,052	0,110
-507,999	-200,000	-0,004	0,022
-506,985	-200,000	-0,008	-0,065
-505,970	139,184	-0,056	-0,054
-504,956	-200,000	0,009	-0,060
-503,941	800,000	-0,023	0,058
-502,926	-93,980	0,073	-0,014
-501,912	356,284	-0,019	-0,027
-500,897	800,000	0,016	0,049
-499,883	-31,911	-0,107	-0,043
-498,868	92,150	0,086	-0,070
-497,853	621,287	0,060	0,110
-496,839	502,465	0,074	-0,125
-495,824	738,020	0,048	0,095
-494,810	377,681	0,088	-0,132
-493,795	800,000	-0,041	0,093
-492,781	-114,821	0,124	0,017
-491,766	69,326	-0,042	-0,032
-490,751	-88,864	-0,133	0,029
-489,737	-12,791	-0,100	0,048
-488,722	-200,000	0,019	-0,099
-487,708	800,000	-0,017	-0,051
-486,693	342,461	0,025	0,036
-485,678	800,000	0,018	0,048
-484,664	127,894	0,056	0,052
-483,649	-67,175	-0,124	-0,036
-482,635	-200,000	0,004	-0,027
-481,620	-125,316	-0,123	-0,014
-480,605	337,553	0,026	0,037
-479,591	-13,697	0,114	0,054
-478,576	-141,273	0,084	0,006
-477,562	236,984	0,072	-0,087
-476,547	-119,957	0,127	0,016
-475,532	418,561	-0,073	-0,115
-474,518	661,823	-0,005	-0,010
-473,503	53,575	-0,119	-0,083
-472,489	800,000	0,032	0,073
-471,474	-145,844	0,091	0,006
-470,459	208,044	-0,067	-0,077
-469,445	408,714	-0,030	0,047
-468,430	38,052	0,102	-0,066
-467,416	-200,000	0,007	-0,068
-466,401	221,393	0,058	0,068
-465,386	-112,657	0,056	-0,008
-464,372	-200,000	-0,040	0,160
-463,357	49,597	-0,041	-0,028
-462,343	800,000	-0,044	-0,109
-461,328	157,572	-0,068	0,069
-460,313	-182,208	0,112	-0,001
-459,299	-200,000	0,032	-0,113
-458,284	38,075	-0,058	0,038
-457,270	800,000	0,027	-0,085
-456,255	242,674	0,067	0,082
-455,241	-90,025	0,100	0,021
-454,226	-7,283	-0,132	-0,065
-453,211	34,818	-0,166	0,106
-452,197	82,542	0,041	-0,033
-451,182	419,020	0,082	0,128
-450,168	-81,566	0,043	0,010
-449,153	-125,600	-0,085	0,009
-448,138	-200,000	0,009	-0,255
-447,124	-144,985	-0,183	0,012
-446,109	800,000	-0,044	0,111
-445,095	-82,454	0,062	-0,014
-444,080	800,000	0,028	0,078
-443,065	800,000	-0,018	-0,042
-442,051	-200,000	0,006	0,058
-441,036	-15,165	-0,140	0,065
-440,022	-200,000	0,003	-0,032
-439,007	105,863	0,060	0,051
-437,992	800,000	0,027	0,067
-436,978	-106,499	0,117	-0,019
-435,963	-47,086	0,020	0,007
-434,949	800,000	0,027	-0,063
-433,934	800,000	-0,042	-0,090
-432,919	-102,145	-0,078	-0,014
-431,905	257,776	-0,015	0,019
-430,890	800,000	0,009	0,027
-429,876	138,233	0,106	0,101
-428,861	-200,000	0,025	-0,144
-427,846	800,000	-0,043	-0,091
-426,832	198,846	-0,084	-0,094
-425,817	319,866	-0,063	0,088
-424,803	287,201	-0,023	0,030
-423,788	-153,996	0,173	0,008
-422,773	-200,000	0,033	-0,166
-421,759	-200,000	0,006	-0,038
-420,744	84,227	0,060	-0,047
-419,730	800,000	-0,042	-0,114
-418,715	9,970	-0,090	0,050
-417,701	140,718	-0,030	0,029
-416,686	98,998	0,021	0,018
-415,671	66,460	-0,117	0,087
-414,657	-8,108	-0,079	0,039
-413,642	-200,000	0,007	0,036
-412,628	-57,573	0,046	0,014
-411,613	800,000	0,017	-0,038
-410,598	-200,000	0,042	0,140
-409,584	224,003	-0,082	0,097
-408,569	12,357	-0,069	-0,039
-407,555	377,435	-0,053	0,079
-406,540	-29,762	0,133	0,055
-405,525	203,962	0,106	0,120
-404,511	-136,831	-0,050	0,004
-403,496	181,172	0,089	-0,095
-402,482	-200,000	-0,004	0,036
-401,467	-8,018	0,068	0,033
-400,452	-200,000	0,037	0,130
-399,438	-178,187	-0,027	0,000
-398,423	267,058	-0,027	-0,034
-397,409	368,016	-0,040	-0,059
-396,394	336,521	0,063	0,089
-395,379	655,740	-0,056	-0,105
-394,365	-200,000	-0,005	-0,079
-393,350	336,683	0,107	0,152
-392,336	-200,000	-0,004	-0,047
-391,321	-128,758	0,071	0,007
-390,306	800,000	0,035	-0,099
-389,292	-200,000	-0,006	0,068
-388,277	5,315	0,048	-0,026
-387,263	253,938	-0,022	-0,027
-386,248	-14,795	0,075	-0,035
-385,233	-63,619	0,085	-0,025
-384,219	-200,000	-0,035	-0,154
-383,204	-200,000	0,042	0,254
-382,190	142,151	-0,075	-0,072
-381,175	121,797	-0,032	0,029
-380,160	-144,661	0,097	-0,006
-379,146	-4,154	-0,160	-0,081
-378,131	107,500	0,116	0,100
-377,117	66,370	-0,076	0,056
-376,102	-200,000	-0,011	-0,053
-375,088	227,043	0,035	0,041
-374,073	96,828	0,045	0,038
-373,058	-200,000	-0,019	0,099
-372,044	-200,000	0,001	-0,011
-371,029	-200,000	-0,023	0,102
-370,015	-200,000	-0,027	0,111
-369,000	520,951	-0,077	-0,132
-367,985	134,565	-0,122	-0,115
-366,971	294,440	-0,059	-0,078
-365,956	-9,763	0,083	0,040
-364,942	-144,443	0,026	-0,002
-363,927	800,000	-0,013	0,036
-362,912	-120,503	-0,016	0,002
-361,898	-200,000	0,024	0,152
-360,883	73,673	-0,055	-0,042
-359,869	109,080	-0,048	-0,042
-358,854	321,323	0,060	-0,083
-357,839	-79,463	-0,111	-0,027
-356,825	-200,000	-0,008	0,153
-355,810	183,388	0,053	0,057
-354,796	14,837	-0,150	-0,085
-353,781	-57,165	0,022	0,007
-352,766	-200,000	-0,007	-0,056
-351,752	-77,636	-0,037	0,009
-350,737	149,233	-0,026	-0,026
-349,723	-200,000	0,013	0,058
-348,708	-52,360	0,033	-0,011
-347,693	-70,152	0,101	-0,028
-346,679	-144,184	-0,086	0,006
-345,664	234,267	0,020	-0,024
-344,650	-200,000	0,013	0,192
-343,635	605,441	0,022	0,041
-342,620	-200,000	0,005	0,093
-341,606	553,750	0,026	-0,046
-340,591	70,396	-0,103	-0,077
-339,577	-95,666	-0,071	-0,014
-338,562	-200,000	0,010	-0,110
-337,548	-200,000	0,034	-0,118
-336,533	800,000	0,064	0,138
-335,518	-200,000	0,013	-0,075
-334,504	536,862	0,044	-0,076
-333,489	132,523	-0,066	-0,062
-332,475	31,622	-0,009	-0,006
-331,460	-49,332	0,024	-0,008
-330,445	182,138	-0,068	0,073
-329,431	6,366	-0,142	-0,076
-328,416	-200,000	0,005	-0,016
-327,402	-162,555	0,160	0,006
-326,387	-2,942	0,160	0,081
-325,372	-68,923	-0,031	-0,009
-324,358	336,840	0,068	-0,097
-323,343	88,272	0,033	0,027
-322,329	-200,000	-0,017	-0,120
-321,314	-60,574	0,167	0,051
-320,299	140,294	-0,057	0,055
-319,285	706,986	0,034	0,066
-318,270	42,419	0,086	-0,057
-317,256	28,421	-0,100	-0,061
-316,241	-200,000	-0,006	0,049
-315,226	-131,357	0,064	0,006
-314,212	10,064	0,109	0,060
-313,197	7,901	0,043	-0,023
-312,183	-200,000	-0,001	-0,024
-311,168	-200,000	-0,003	0,060
-310,153	-68,252	-0,155	-0,043
-309,139	800,000	0,051	-0,127
-308,124	-200,000	-0,011	-0,057
-307,110	-142,396	-0,048	-0,003
-306,095	140,450	0,161	0,154
-305,080	143,826	-0,010	-0,009
-304,066	7,618	0,048	-0,026
-303,051	800,000	-0,013	0,041
-302,037	267,278	0,053	-0,068
-301,022	-200,000	0,003	-0,081
-300,008	-148,721	-0,068	0,004
-298,993	-200,000	-0,027	0,122
-297,978	71,299	0,021	-0,016
-296,964	-132,806	-0,094	0,009
-295,949	309,467	0,023	-0,031
-294,935	28,952	-0,033	0,020
-293,920	-131,003	-0,017	0,002
-292,905	-200,000	0,017	0,139
-291,891	56,990	0,122	0,086
-290,876	-92,796	0,153	-0,031
-289,862	622,081	-0,040	0,073
-288,847	103,319	-0,154	0,131
-287,832	-175,979	-0,013	0,000
-286,818	415,914	-0,041	0,064
-285,803	-16,284	0,069	-0,032
-284,789	-200,000	0,000	0,079
-283,774	800,000	0,004	0,009
-282,759	59,358	-0,070	-0,050
-281,745	182,684	-0,080	-0,086
-280,730	71,874	-0,095	0,072
-279,716	-90,211	0,183	0,038
-278,701	601,624	0,024	0,043
-277,686	800,000	0,057	0,148
-276,672	-200,000	0,011	0,084
-275,657	83,455	-0,098	0,078
-274,643	-200,000	0,002	-0,074
-273,628	-200,000	0,005	-0,085
-272,613	348,605	-0,034	-0,049
-271,599	728,733	0,057	0,111
-270,584	-24,032	0,081	-0,035
-269,570	-36,419	-0,087	0,034
-268,555	69,876	-0,059	-0,044
-267,540	-156,955	-0,075	0,003
-266,526	292,535	0,064	0,085
-265,511	800,000	-0,081	-0,188
-264,497	-200,000	0,023	0,109
-263,482	-200,000	0,049	0,265
-262,467	-200,000	-0,010	0,055
-261,453	30,340	0,068	-0,042
-260,438	-119,550	-0,138	0,017
-259,424	357,803	0,048	0,069
-258,409	346,163	0,017	-0,025
-257,395	225,818	0,088	-0,104
-256,380	800,000	0,024	0,062
-255,365	-140,526	-0,175	0,013
-254,351	-78,584	-0,028	0,007
-253,336	-200,000	-0,019	-0,065
-252,322	-5,607	0,026	-0,013
-251,307	800,000	-0,062	-0,168
-250,292	-200,000	-0,011	0,105
-249,278	-15,599	0,091	-0,042
-248,263	96,111	0,067	-0,055
-247,249	-106,675	0,114	-0,018
-246,234	38,490	0,038	0,024
-245,219	-200,000	-0,006	0,082
-244,205	333,815	0,053	-0,075
-243,190	-200,000	0,011	-0,090
-242,176	7,545	0,122	0,066
-241,161	800,000	-0,053	0,109
-240,146	111,080	-0,023	-0,020
-239,132	247,359	0,023	-0,029
-238,117	-177,333	-0,038	-0,001
-237,103	-48,874	-0,139	0,048
-236,088	-200,000	-0,010	-0,098
-235,073	40,355	0,043	-0,028
-234,059	785,868	-0,015	-0,031
-233,044	-160,477	0,111	0,004
-232,030	624,433	0,005	0,009
-231,015	45,831	-0,040	-0,026
-230,000	160,386	-0,068	0,068
-228,986	470,846	-0,046	0,075
-227,971	300,546	0,025	-0,034
-226,957	362,017	0,071	0,103
-225,942	341,270	0,106	0,150
-224,927	61,277	-0,047	0,034
-223,913	800,000	0,028	0,062
-222,898	13,109	-0,106	-0,059
-221,884	800,000	-0,014	0,033
-220,869	226,955	0,079	0,093
-219,855	-200,000	-0,027	0,121
-218,840	800,000	0,017	0,053
-217,825	-46,707	0,068	-0,024
-216,811	-121,402	-0,141	0,017
-215,796	-200,000	0,018	0,066
-214,782	187,225	0,049	0,053
-213,767	75,033	0,122	0,093
-212,752	800,000	0,051	0,124
-211,738	-78,790	0,017	-0,004
-210,723	118,125	-0,059	-0,053
-209,709	242,405	-0,042	-0,051
-208,694	-200,000	-0,016	-0,068
-207,679	-200,000	0,017	0,074
-206,665	372,361	-0,060	-0,089
-205,650	-200,000	0,003	0,040
-204,636	265,446	-0,050	0,063
-203,621	800,000	-0,013	-0,034
-202,606	307,812	-0,043	-0,059
-201,592	-20,522	-0,051	-0,023
-200,577	-200,000	-0,015	-0,122
-199,563	-7,588	0,073	0,036
-198,548	-200,000	0,011	-0,079
-197,533	-137,207	0,076	0,006
-196,519	800,000	0,080	0,165
-195,504	-63,300	-0,122	-0,036
-194,490	501,222	0,060	-0,100
-193,475	800,000	-0,035	-0,097
-192,460	-200,000	-0,004	-0,040
-191,446	-94,639	-0,053	-0,010
-190,431	369,533	0,075	-0,110
-189,417	-45,019	0,076	0,027
-188,402	-65,357	-0,082	0,024
-187,387	496,864	-0,016	-0,026
-186,373	-200,000	-0,004	0,099
-185,358	-99,466	0,140	0,025
-184,344	-200,000	0,050	0,185
-183,329	-200,000	0,036	0,165
-182,315	-125,987	-0,221	0,024
-181,300	67,449	-0,127	-0,093
-180,285	15,031	0,038	0,022
-179,271	-157,476	0,043	0,002
-178,256	6,481	-0,080	0,043
-177,242	800,000	0,050	0,144
-176,227	557,246	0,108	0,189
-175,212	633,514	-0,008	0,015
-174,198	-200,000	0,009	-0,107
-173,183	612,277	-0,069	-0,125
-172,169	800,000	-0,043	-0,101
-171,154	644,969	0,013	0,024
-170,139	158,112	0,120	0,120
-169,125	55,267	0,082	0,057
-168,110	136,887	-0,025	0,024
-167,096	45,733	-0,057	-0,038
-166,081	800,000	-0,002	0,004
-165,066	-97,868	-0,053	0,010
-164,052	17,522	-0,157	0,090
-163,037	-39,827	0,117	-0,044
-162,023	800,000	0,017	-0,049
-161,008	-147,771	0,047	0,003
-159,993	-200,000	0,001	-0,067
-158,979	800,000	-0,037	-0,099
-157,964	800,000	-0,047	-0,107
-156,950	-25,019	-0,092	0,039
-155,935	-200,000	-0,012	-0,045
-154,920	800,000	-0,032	0,074
-153,906	290,128	0,033	0,043
-152,891	138,212	-0,032	-0,030
-151,877	800,000	-0,022	-0,067
-150,862	-67,092	-0,193	-0,054
-149,847	47,633	0,170	-0,114
-148,833	-200,000	-0,018	0,104
-147,818	-200,000	0,014	-0,076
-146,804	660,686	0,037	0,070
-145,789	-154,551	0,084	-0,004
-144,775	287,427	-0,026	0,034
-143,760	800,000	-0,037	0,077
-142,745	722,584	-0,046	-0,088
-141,731	16,202	-0,053	-0,030
-140,716	-200,000	-0,013	0,101
-139,702	229,551	0,133	0,156
-138,687	-200,000	0,025	0,124
-137,672	-37,127	-0,028	0,011
-136,658	-200,000	-0,013	0,107
-135,643	271,384	-0,096	-0,122
-134,629	111,673	-0,068	-0,060
-133,614	241,046	0,101	0,122
-132,599	388,964	0,057	0,085
-131,585	49,714	-0,099	-0,067
-130,570	-25,258	-0,052	0,022
-129,556	108,845	0,069	0,059
-128,541	369,112	-0,041	-0,060
-127,526	-119,592	0,054	-0,007
-126,512	-70,395	0,088	0,024
-125,497	-200,000	0,028	0,123
-124,483	-122,980	0,011	0,001
-123,468	412,298	0,034	-0,052
-122,453	363,279	0,057	-0,082
-121,439	232,040	0,016	0,019
-120,424	-142,249	0,057	0,004
-119,410	791,040	-0,029	0,057
-118,395	744,879	0,052	0,102
-117,380	-31,318	0,030	0,012
-116,366	-200,000	0,004	-0,078
-115,351	-45,359	-0,126	-0,045
-114,337	-200,000	-0,021	0,078
-113,322	800,000	-0,030	0,080
-112,307	-200,000	-0,003	-0,048
-111,293	-200,000	0,010	-0,161
-110,278	800,000	-0,025	0,075
-109,264	241,173	0,060	0,073
-108,249	412,335	-0,110	-0,169
-107,234	115,145	0,027	-0,024
-106,220	-125,838	-0,130	0,014
-105,205	800,000	-0,030	-0,070
-104,191	-200,000	0,037	-0,133
-103,176	348,036	0,064	-0,091
-102,162	-4,667	0,053	0,026
-101,147	-200,000	0,011	-0,151
-100,132	-200,000	-0,007	-0,150
-99,118	1,491	-0,099	-0,051
-98,103	-192,285	-0,031	0,000
-97,089	121,737	0,097	0,087
-96,074	-200,000	-0,014	-0,133
-95,059	-144,731	0,072	0,005
-94,045	-155,864	0,158	0,007
-93,030	-50,377	-0,050	0,017
-92,016	-200,000	-0,015	0,062
-91,001	398,782	0,018	0,028
-89,986	39,991	0,112	-0,072
-88,972	372,511	0,035	-0,051
-87,957	-10,524	-0,056	0,026
-86,943	243,544	-0,087	0,105
-85,928	91,258	-0,094	-0,076
-84,913	153,135	0,092	-0,091
-83,899	800,000	0,066	0,139
-82,884	53,705	0,027	-0,018
-81,870	-200,000	0,019	-0,123
-80,855	624,964	0,049	-0,089
-79,840	530,066	-0,061	-0,103
-78,826	-200,000	-0,141	0,000
-77,811	-200,000	-0,005	-0,077
-76,797	-70,092	-0,195	-0,053
-75,782	-102,493	0,089	-0,015
-74,767	-96,354	0,136	-0,026
-73,753	30,415	0,033	0,021
-72,738	-200,000	0,014	0,076
-71,724	463,056	0,044	-0,071
-70,709	800,000	-0,071	-0,145
-69,694	-55,887	0,050	0,016
-68,680	-95,551	-0,112	0,021
-67,665	29,692	-0,075	0,046
-66,651	-200,000	-0,001	0,064
-65,636	-45,895	0,034	-0,012
-64,622	-200,000	0,019	0,172
-63,607	-85,388	0,124	-0,027
-62,592	473,744	-0,039	-0,063
-61,578	800,000	0,045	0,117
-60,563	84,129	0,050	-0,039
-59,549	-140,237	-0,157	-0,012
-58,534	-11,490	-1,855	-0,873
-57,519	800,000	-0,397	-1,084
-56,505	-200,000	-1,169	-4,811
-55,490	18,355	0,815	0,466
-54,476	800,000	5,132	12,000
-53,461	-200,000	17,227	284,842
-52,446	800,000	722,799	2231,893
-51,432	544,716	1638,651	2821,342
-50,417	112,261	1630,986	1415,700
-49,403	76,356	1286,538	977,552
-48,388	32,894	1029,053	638,336
-47,373	20,360	990,920	573,299
-46,359	18,784	979,098	561,259
-45,344	16,275	975,078	550,710
-44,330	16,448	973,531	550,381
-43,315	15,969	971,677	547,745
-42,300	15,940	970,843	547,158
-41,286	15,974	969,749	546,630
-40,271	15,921	968,673	545,830
-39,257	15,961	967,829	545,462
-38,242	15,941	967,041	544,930
-37,227	15,967	966,330	544,594
-36,213	16,032	965,263	544,183
-35,198	15,917	964,534	543,376
-34,184	15,979	963,912	543,204
-33,169	15,966	962,684	542,451
-32,154	15,931	961,809	541,823
-31,140	16,000	960,842	541,479
-30,125	16,026	960,137	541,144
-29,111	15,952	959,264	540,393
-28,096	15,969	958,945	540,244
-27,082	15,952	958,212	539,756
-26,067	15,986	957,256	539,307
-25,052	15,933	956,398	538,631
-24,038	15,959	955,831	538,374
-23,023	15,923	955,153	537,854
-22,009	15,965	954,472	537,586
-20,994	15,930	954,076	537,229
-19,979	15,989	953,243	536,926
-18,965	15,925	952,774	536,436
-17,950	15,991	952,047	536,217
-16,936	15,928	951,440	535,650
-15,921	15,917	950,788	535,227
-14,906	15,815	950,068	534,477
-13,892	15,833	949,465	534,173
-12,877	15,847	948,735	533,785
-11,863	15,797	948,203	533,304
-10,848	15,827	947,667	533,080
-9,833	15,980	946,945	533,137
-8,819	15,891	946,497	532,583
-7,804	15,889	945,879	532,206
-6,790	15,873	945,287	531,800
-5,775	15,910	944,594	531,509
-4,760	15,924	943,907	531,145
-3,746	15,850	943,565	530,697
-2,731	15,688	942,761	529,710
-1,717	15,684	942,134	529,323
-0,702	15,701	941,420	528,956
0,313	15,492	941,066	528,894
1,327	18,617	938,585	537,315
2,342	27,307	796,167	478,861
3,356	23,945	460,401	271,731
4,371	-2,740	314,912	157,449
5,386	-6,771	296,492	144,144
6,400	-8,866	290,538	139,153
7,415	-9,245	288,060	137,581
8,429	-9,401	286,583	136,709
9,444	-9,599	285,627	136,048
10,459	-9,242	284,914	136,045
11,473	-9,445	284,359	135,570
12,488	-9,397	284,097	135,480
13,502	-9,478	283,572	135,138
14,517	-9,528	283,081	134,844
15,531	-9,333	282,608	134,795
16,546	-9,434	282,208	134,495
17,561	-9,460	281,791	134,259
18,575	-9,389	281,508	134,181
19,590	-9,341	280,946	133,947
20,604	-9,310	280,660	133,828
21,619	-9,456	280,511	133,605
22,634	-9,608	280,183	133,292
23,648	-9,576	279,730	133,095
24,663	-9,547	279,497	133,000
25,677	-9,461	279,318	132,985
26,692	-9,357	279,096	132,966
27,707	-9,403	278,698	132,722
28,721	-9,397	278,484	132,613
29,736	-9,418	278,235	132,463
30,750	-9,508	277,895	132,203
31,765	-9,474	277,633	132,100
32,780	-9,399	277,316	132,008
33,794	-9,250	277,019	131,996
34,809	-9,436	276,920	131,761
35,823	-9,539	276,696	131,545
36,838	-9,496	276,476	131,469
37,853	-9,462	276,260	131,388
38,867	-9,447	275,923	131,230
39,882	-9,443	275,653	131,093
40,896	-9,252	275,289	131,088
41,911	-9,401	275,207	130,897
42,926	-9,471	274,941	130,693
43,940	-9,701	274,686	130,344
44,955	-9,557	274,454	130,358
45,969	-9,494	274,216	130,292
46,984	-9,718	273,825	129,885
47,999	-9,742	273,648	129,768
49,013	-10,076	273,321	129,290
50,028	-10,219	273,166	129,072
51,042	-10,254	272,857	128,881
52,057	-10,094	272,609	128,901
53,071	-10,027	272,382	128,845
54,086	-9,989	272,197	128,781
55,101	-9,952	272,225	128,817
56,115	-9,737	272,036	128,916
57,130	-9,381	271,735	129,091
58,144	-9,441	271,580	128,950
59,159	-9,265	271,285	128,962
60,174	-9,277	271,269	128,932
61,188	-9,334	270,997	128,738
62,203	-9,507	270,786	128,467
63,217	-9,344	270,611	128,523
64,232	-9,227	270,157	128,404
65,247	-9,357	270,090	128,241
66,261	-9,471	269,835	128,003
67,276	-9,575	269,711	127,837
68,290	-9,666	269,340	127,567
69,305	-9,722	268,989	127,337
70,320	-9,729	268,830	127,245
71,334	-9,388	268,697	127,483
72,349	-9,380	268,521	127,394
73,363	-9,367	268,358	127,317
74,378	-9,343	268,094	127,204
75,393	-9,242	267,823	127,156
76,407	-9,412	267,761	126,960
77,422	-9,404	267,454	126,810
78,436	-9,241	267,338	126,892
79,451	-9,294	267,182	126,759
80,466	-9,537	266,782	126,337
81,480	-9,610	266,504	126,127
82,495	-9,574	266,329	126,066
83,509	-9,511	266,057	125,983
84,524	-9,556	265,850	125,834
85,539	-9,650	265,677	125,656
86,553	-9,787	265,570	125,470
87,568	-9,737	265,548	125,493
88,582	-9,607	265,131	125,402
89,597	-9,508	265,065	125,449
90,611	-9,341	264,650	125,392
91,626	-9,462	264,710	125,300
92,641	-9,356	264,429	125,251
93,655	-9,320	264,120	125,126
94,670	-9,516	263,891	124,831
95,684	-9,238	263,570	124,917
96,699	-9,599	263,726	124,656
97,714	-9,536	263,419	124,557
98,728	-9,635	263,187	124,347
99,743	-9,732	262,926	124,126
100,757	-9,782	262,731	123,978
101,772	-9,725	262,519	123,918
102,787	-9,570	262,306	123,944
103,801	-9,437	262,072	123,941
104,816	-9,359	261,880	123,909
105,830	-9,444	261,753	123,762
106,845	-9,315	261,623	123,803
107,860	-9,526	261,549	123,571
108,874	-9,515	261,166	123,388
109,889	-9,417	261,114	123,440
110,903	-9,487	260,663	123,154
111,918	-9,624	260,529	122,958
112,933	-9,484	260,359	122,991
113,947	-9,480	260,211	122,913
114,962	-9,396	260,012	122,882
115,976	-9,257	259,795	122,891
116,991	-9,512	259,633	122,580
118,006	-9,236	259,383	122,693
119,020	-9,387	259,234	122,479
120,035	-9,393	259,211	122,452
121,049	-9,343	258,932	122,353
122,064	-9,257	258,702	122,309
123,079	-9,269	258,500	122,191
124,093	-9,226	258,226	122,089
125,108	-9,609	258,139	121,701
126,122	-9,864	257,889	121,350
127,137	-9,766	257,620	121,299
128,151	-9,770	257,381	121,171
129,166	-9,618	257,282	121,247
130,181	-9,545	257,024	121,178
131,195	-9,548	256,839	121,078
132,210	-9,367	256,551	121,088
133,224	-9,414	256,524	121,024
134,239	-9,252	256,320	121,057
135,254	-9,348	256,192	120,902
136,268	-9,542	255,944	120,607
137,283	-9,627	255,726	120,419
138,297	-9,747	255,513	120,205
139,312	-9,731	255,259	120,089
140,327	-9,563	255,210	120,200
141,341	-9,141	255,031	120,468
142,356	-9,090	254,891	120,436
143,370	-9,363	254,839	120,165
144,385	-9,196	254,583	120,178
145,400	-9,264	254,435	120,039
146,414	-9,172	254,231	120,011
147,429	-9,074	253,996	119,973
148,443	-9,230	253,879	119,773
149,458	-9,124	253,704	119,771
150,473	-8,787	253,372	119,892
151,487	-9,255	253,243	119,420
152,502	-9,214	253,086	119,370
153,516	-9,103	252,950	119,391
154,531	-9,270	252,832	119,181
155,546	-9,109	252,576	119,187
156,560	-9,184	252,491	119,073
157,575	-9,548	252,286	118,655
158,589	-9,184	252,051	118,844
159,604	-9,200	251,885	118,742
160,619	-9,296	251,602	118,516
161,633	-9,210	251,464	118,513
162,648	-9,175	251,337	118,473
163,662	-9,065	251,239	118,510
164,677	-9,130	250,946	118,306
165,692	-9,296	250,936	118,150
166,706	-9,273	250,804	118,096
167,721	-9,238	250,445	117,946
168,735	-9,339	250,498	117,875
169,750	-9,116	250,220	117,923
170,764	-9,015	249,958	117,874
171,779	-9,206	249,968	117,706
172,794	-9,235	249,879	117,629
173,808	-9,242	249,497	117,434
174,823	-9,639	249,316	117,004
175,837	-9,640	249,015	116,852
176,852	-9,289	249,074	117,164
177,867	-9,142	248,846	117,169
178,881	-9,050	248,731	117,181
179,896	-9,002	248,497	117,101
180,910	-9,001	248,235	116,969
181,925	-8,887	248,218	117,046
182,940	-9,015	248,028	116,838
183,954	-9,085	247,834	116,679
184,969	-9,117	247,704	116,579
185,983	-9,019	247,421	116,518
186,998	-8,959	247,263	116,483
188,013	-8,927	247,126	116,435
189,027	-9,340	247,140	116,087
190,042	-9,121	246,794	116,097
191,056	-9,108	246,727	116,065
192,071	-8,967	246,537	116,082
193,086	-9,142	246,294	115,812
194,100	-9,068	246,216	115,827
195,115	-9,193	245,855	115,544
196,129	-9,074	245,772	115,593
197,144	-9,295	245,649	115,342
198,159	-9,293	245,421	115,226
199,173	-9,090	245,243	115,299
200,188	-9,253	245,103	115,089
201,202	-9,382	244,825	114,842
202,217	-9,557	244,468	114,520
203,232	-9,793	244,384	114,276
204,246	-9,155	244,233	114,720
205,261	-8,882	244,257	114,945
206,275	-9,681	243,861	114,093
207,290	-6,276	245,318	117,573
208,304	0,553	247,414	124,232
209,319	3,713	248,173	127,223
210,334	4,136	248,037	127,492
211,348	4,017	248,133	127,431
212,363	4,539	248,072	127,821
213,377	4,728	247,881	127,867
214,392	4,678	247,630	127,685
215,407	4,527	247,390	127,425
216,421	4,243	247,353	127,160
217,436	4,664	247,347	127,493
218,450	4,749	247,035	127,391
219,465	4,467	246,848	127,051
220,480	4,231	246,738	126,789
221,494	4,236	246,503	126,661
222,509	4,033	246,529	126,496
223,523	4,120	246,185	126,380
224,538	3,765	245,860	125,911
225,553	3,861	245,694	125,893
226,567	4,068	245,529	125,967
227,582	4,208	245,398	126,003
228,596	4,098	245,281	125,842
229,611	3,773	245,167	125,506
230,626	3,736	244,921	125,339
231,640	3,937	244,726	125,392
232,655	4,038	244,752	125,477
233,669	3,938	244,500	125,254
234,684	3,595	244,302	124,863
235,699	4,130	244,239	125,255
236,713	4,369	244,099	125,366
237,728	3,894	243,793	124,812
238,742	3,727	243,621	124,578
239,757	3,630	243,419	124,385
240,772	3,807	243,333	124,473
241,786	3,799	243,163	124,368
242,801	3,650	243,025	124,166
243,815	3,730	242,937	124,175
244,830	3,996	242,825	124,321
245,844	4,138	242,464	124,241
246,859	3,929	242,244	123,948
247,874	3,821	242,130	123,791
248,888	3,978	242,085	123,883
249,903	3,753	241,884	123,589
250,917	4,136	241,858	123,873
251,932	4,234	241,782	123,901
252,947	3,889	241,665	123,553
253,961	3,874	241,395	123,393
254,976	3,985	241,132	123,335
255,990	4,121	240,985	123,358
257,005	4,048	240,878	123,234
258,020	3,782	240,585	122,861
259,034	3,788	240,493	122,807
260,049	3,935	240,405	122,869
261,063	3,744	240,260	122,632
262,078	3,745	240,178	122,580
263,093	4,035	240,000	122,709
264,107	4,041	239,787	122,594
265,122	3,923	239,554	122,370
266,136	3,911	239,585	122,366
267,151	4,214	239,417	122,510
268,166	3,899	239,089	122,081
269,180	3,848	238,899	121,933
270,195	4,178	238,963	122,216
271,209	4,668	238,826	122,523
272,224	4,050	238,462	121,836
273,239	3,600	238,389	121,432
274,253	3,823	238,169	121,486
275,268	3,845	238,082	121,448
276,282	3,992	238,004	121,514
277,297	3,709	237,699	121,124
278,312	3,883	237,541	121,169
279,326	4,171	237,404	121,316
280,341	4,096	237,197	121,140
281,355	3,858	237,344	121,017
282,370	4,170	237,168	121,162
283,384	4,124	237,001	121,029
284,399	3,814	236,662	120,602
285,414	3,647	236,417	120,335
286,428	4,010	236,288	120,544
287,443	3,904	236,155	120,383
288,457	4,047	236,027	120,418
289,472	4,164	235,960	120,465
290,487	4,099	235,612	120,226
291,501	3,758	235,718	120,003
292,516	3,709	235,404	119,793
293,530	3,533	235,363	119,625
294,545	3,919	235,273	119,869
295,560	4,101	235,134	119,930
296,574	3,600	234,803	119,361
297,589	3,852	234,621	119,453
298,603	4,051	234,593	119,583
299,618	4,098	234,516	119,570
300,633	4,083	234,361	119,468
301,647	4,170	234,218	119,452
302,662	4,471	234,171	119,651
303,676	4,291	233,969	119,397
304,691	4,031	233,906	119,154
305,706	4,346	233,742	119,303
306,720	4,151	233,559	119,048
307,735	4,426	233,379	119,158
308,749	4,059	233,262	118,805
309,764	3,907	233,000	118,543
310,779	3,594	232,825	118,203
311,793	3,708	232,467	118,098
312,808	3,786	232,301	118,063
313,822	3,769	232,191	117,984
314,837	3,680	232,184	117,901
315,852	3,524	231,880	117,617
316,866	3,872	231,832	117,848
317,881	3,851	231,727	117,768
318,895	4,037	231,495	117,783
319,910	4,211	231,582	117,950
320,925	4,199	231,524	117,900
321,939	3,925	231,279	117,556
322,954	3,995	231,147	117,532
323,968	3,959	230,849	117,342
324,983	3,777	230,619	117,076
325,997	3,843	230,606	117,109
327,012	4,224	230,552	117,362
328,027	4,067	230,516	117,213
329,041	4,342	230,408	117,356
330,056	4,584	230,305	117,478
331,070	4,604	230,150	117,404
332,085	4,341	229,937	117,085
333,100	4,209	229,624	116,815
334,114	4,005	229,501	116,588
335,129	4,371	229,385	116,796
336,143	4,425	229,477	116,872
337,158	4,484	229,109	116,719
338,173	4,090	228,966	116,339
339,187	4,076	228,696	116,180
340,202	4,173	228,646	116,218
341,216	4,283	228,568	116,251
342,231	3,993	228,181	115,825
343,246	3,798	228,235	115,696
344,260	4,125	228,160	115,893
345,275	4,277	228,064	115,949
346,289	4,313	227,884	115,873
347,304	4,174	227,856	115,745
348,319	4,324	227,520	115,676
349,333	4,206	227,312	115,472
350,348	4,131	227,000	115,247
351,362	4,184	227,075	115,314
352,377	4,178	226,669	115,094
353,392	3,544	226,717	114,634
354,406	3,872	226,524	114,771
355,421	194,374	1323,191	1396,961
356,435	155,765	1456,809	1396,964
