DTS Sentinel unit serial number:	SN410029Multiplexer serial number:	ORYXHardware model number:	OX2-SRSoftware version number:	ORYX F/W v4,00 Oryx Data Collector v3.7.2.0data status	okinstallation	B5 Nyhavnadifferential loss correction	single-endedforward channel	channel 2reverse channel	N/Adate	2023/12/12time	11:22:13forward acquisition time	300,00reverse acquisition time	0,00gamma	499,1914k internal	0,3158k external	0,3158temperature offset calibration	1,0000default loss term (dB/km)	0,3820temperature slope calibration	1,0000multiplexer offset coefficient	1,0000multiplexer slope coefficient	1,0000fibre end	0,00T internal ref (°C)	15,06T ext. ref 1 (°C)	-1,13T ext. ref 2 (°C)	-1,35length (m)	temperature (°C)	Stokes	anti-Stokes-744,400	-36,823	0,109	-0,043
-743,385	-105,793	-0,409	0,067
-742,371	800,000	0,062	0,190
-741,356	343,591	-0,081	0,117
-740,342	-16,303	0,101	-0,047
-739,327	16,249	-0,202	0,117
-738,312	-200,000	0,007	0,109
-737,298	-97,253	-0,424	-0,081
-736,283	-200,000	0,001	0,046
-735,269	-167,801	-0,279	-0,008
-734,254	-165,617	0,066	-0,002
-733,239	-87,518	-0,467	-0,103
-732,225	-124,450	0,177	-0,020
-731,210	275,617	0,019	0,024
-730,196	-96,817	0,030	-0,006
-729,181	40,069	0,056	-0,037
-728,167	109,114	-0,097	-0,085
-727,152	44,103	-0,102	-0,069
-726,137	62,187	0,075	-0,055
-725,123	52,282	0,036	-0,025
-724,108	-117,525	-0,109	-0,014
-723,094	-106,365	0,072	-0,012
-722,079	-44,541	-0,179	-0,066
-721,064	-200,000	-0,054	-0,221
-720,050	-89,652	0,007	-0,002
-719,035	37,681	-0,092	-0,060
-718,021	-200,000	0,015	-0,153
-717,006	-103,740	-0,074	-0,013
-715,991	800,000	-0,017	-0,037
-714,977	-47,222	-0,088	-0,031
-713,962	7,490	0,077	0,042
-712,948	737,430	0,033	-0,065
-711,933	800,000	0,047	0,121
-710,918	-148,922	-0,020	0,001
-709,904	-69,723	-0,146	0,041
-708,889	130,641	-0,090	-0,085
-707,875	117,835	0,061	-0,055
-706,860	800,000	-0,035	0,103
-705,845	-200,000	-0,009	0,101
-704,831	302,597	0,057	-0,077
-703,816	800,000	-0,016	-0,047
-702,802	800,000	-0,015	0,047
-701,787	-58,114	-0,096	0,031
-700,772	-200,000	0,002	0,172
-699,758	-60,062	-0,050	0,016
-698,743	-200,000	-0,018	0,083
-697,729	647,384	-0,059	-0,111
-696,714	800,000	-0,046	0,109
-695,699	10,399	0,033	0,019
-694,685	649,337	0,040	-0,075
-693,670	-200,000	-0,030	-0,134
-692,656	111,665	0,047	-0,042
-691,641	19,941	-0,091	-0,054
-690,627	-200,000	0,003	-0,048
-689,612	160,518	-0,070	0,072
-688,597	213,163	-0,006	0,008
-687,583	210,734	0,022	-0,025
-686,568	358,463	-0,087	0,129
-685,554	189,691	-0,068	0,075
-684,539	92,186	-0,108	0,090
-683,524	-200,000	-0,014	0,128
-682,510	376,032	-0,072	-0,108
-681,495	-106,682	-0,154	-0,025
-680,481	146,490	-0,085	-0,084
-679,466	-200,000	0,012	-0,091
-678,451	-115,023	-0,124	-0,017
-677,437	-2,841	0,136	-0,070
-676,422	-200,000	0,009	0,055
-675,408	1,412	0,087	0,046
-674,393	-98,743	-0,081	-0,015
-673,378	273,422	0,018	-0,023
-672,364	800,000	-0,059	-0,122
-671,349	551,072	0,042	0,074
-670,335	-200,000	0,014	-0,111
-669,320	50,700	0,010	0,007
-668,305	-144,515	-0,090	0,006
-667,291	10,500	-0,076	0,043
-666,276	-200,000	0,012	-0,039
-665,262	150,344	-0,082	-0,082
-664,247	30,251	-0,138	-0,087
-663,232	-200,000	-0,002	-0,056
-662,218	-200,000	0,016	0,052
-661,203	-129,579	-0,093	-0,009
-660,189	-40,016	0,050	-0,019
-659,174	-200,000	-0,012	0,068
-658,159	1,784	-0,072	-0,038
-657,145	-62,928	-0,049	-0,015
-656,130	104,423	-0,063	-0,054
-655,116	-200,000	0,000	-0,007
-654,101	-190,771	0,094	0,001
-653,086	-125,709	0,056	-0,006
-652,072	800,000	-0,008	-0,019
-651,057	110,689	-0,087	-0,077
-650,043	-200,000	0,007	-0,054
-649,028	0,263	-0,226	0,118
-648,014	-160,336	0,063	0,002
-646,999	-61,854	-0,126	0,038
-645,984	-200,000	0,003	0,053
-644,970	-67,815	-0,028	0,008
-643,955	-164,169	-0,060	0,002
-642,941	-33,827	-0,143	-0,058
-641,926	-80,747	0,172	-0,042
-640,911	-124,689	-0,101	0,011
-639,897	93,403	0,028	0,024
-638,882	-8,850	0,075	-0,037
-637,868	800,000	-0,040	0,119
-636,853	-200,000	-0,012	-0,126
-635,838	-56,920	-0,043	-0,014
-634,824	800,000	-0,049	-0,147
-633,809	93,854	-0,047	0,039
-632,795	-34,611	0,077	-0,031
-631,780	161,517	0,020	-0,021
-630,765	510,607	-0,009	-0,015
-629,751	-137,451	-0,084	0,007
-628,736	-140,434	-0,119	-0,009
-627,722	-82,568	0,047	-0,011
-626,707	-133,680	-0,109	-0,010
-625,692	-8,990	-0,122	0,060
-624,678	406,272	0,075	-0,116
-623,663	800,000	0,058	-0,183
-622,649	85,856	-0,103	-0,083
-621,634	800,000	0,068	-0,183
-620,619	-200,000	-0,037	-0,137
-619,605	730,035	0,034	0,068
-618,590	-200,000	-0,007	0,210
-617,576	43,896	0,017	-0,011
-616,561	59,528	0,076	-0,055
-615,546	49,893	0,135	-0,093
-614,532	-61,442	-0,109	0,033
-613,517	-86,982	-0,080	0,018
-612,503	-8,095	0,096	-0,047
-611,488	-200,000	-0,016	-0,094
-610,474	-3,556	0,108	-0,055
-609,459	-200,000	0,004	-0,128
-608,444	244,081	0,130	-0,161
-607,430	31,031	0,045	0,028
-606,415	-123,963	-0,096	0,011
-605,401	726,562	0,036	0,071
-604,386	-14,954	0,119	0,056
-603,371	374,043	0,073	0,109
-602,357	-200,000	-0,008	-0,131
-601,342	800,000	-0,041	-0,107
-600,328	45,170	0,026	0,017
-599,313	257,980	0,045	-0,056
-598,298	-200,000	-0,003	0,022
-597,284	17,881	0,102	0,059
-596,269	800,000	0,031	0,072
-595,255	283,240	0,044	0,058
-594,240	203,041	0,024	0,027
-593,225	-115,988	-0,100	0,014
-592,211	349,661	-0,077	-0,112
-591,196	506,496	-0,060	0,103
-590,182	-200,000	-0,010	-0,032
-589,167	-200,000	-0,008	-0,175
-588,152	89,503	-0,123	-0,100
-587,138	-70,425	0,091	0,025
-586,123	37,556	-0,059	-0,039
-585,109	-200,000	-0,003	-0,083
-584,094	-200,000	-0,005	0,046
-583,079	89,354	0,269	0,220
-582,065	-33,575	-0,072	-0,029
-581,050	131,472	-0,030	-0,029
-580,036	-200,000	-0,021	0,102
-579,021	710,453	-0,008	-0,016
-578,006	-12,370	0,041	-0,019
-576,992	-44,457	-0,145	-0,053
-575,977	-89,096	0,120	-0,026
-574,963	-145,710	-0,019	0,001
-573,948	75,338	0,072	0,055
-572,934	-73,622	0,034	-0,009
-571,919	-184,612	-0,131	0,002
-570,904	-120,896	-0,056	-0,007
-569,890	-200,000	0,025	-0,087
-568,875	-146,561	0,039	0,002
-567,861	204,093	0,117	-0,132
-566,846	-83,736	0,107	-0,025
-565,831	32,892	0,051	-0,032
-564,817	800,000	0,024	-0,058
-563,802	140,895	-0,109	-0,105
-562,788	309,041	0,131	-0,180
-561,773	97,822	-0,050	-0,042
-560,758	-58,339	0,026	0,008
-559,744	-41,427	0,078	0,029
-558,729	49,008	0,060	0,041
-557,715	117,412	-0,081	0,073
-556,700	73,585	-0,095	-0,073
-555,685	290,057	-0,090	-0,120
-554,671	800,000	0,014	-0,045
-553,656	800,000	0,038	-0,090
-552,642	-200,000	-0,008	-0,040
-551,627	215,974	-0,085	0,098
-550,612	-117,269	0,069	0,009
-549,598	-94,317	-0,105	-0,021
-548,583	207,450	-0,105	0,120
-547,569	-200,000	-0,016	0,053
-546,554	332,763	0,046	0,066
-545,539	99,726	-0,019	0,016
-544,525	223,332	-0,018	-0,022
-543,510	276,882	0,009	0,012
-542,496	-91,637	0,080	0,016
-541,481	46,088	-0,063	-0,043
-540,466	-200,000	0,011	0,080
-539,452	-200,000	-0,032	0,126
-538,437	155,691	0,057	-0,057
-537,423	324,242	0,011	-0,015
-536,408	-0,063	-0,032	0,017
-535,393	38,231	-0,054	-0,035
-534,379	-200,000	0,001	-0,022
-533,364	-200,000	-0,016	-0,080
-532,350	-64,880	-0,078	-0,023
-531,335	-200,000	0,009	-0,073
-530,321	-115,576	0,095	-0,013
-529,306	800,000	0,019	-0,045
-528,291	-200,000	0,021	-0,117
-527,277	40,188	-0,101	0,066
-526,262	-115,549	-0,062	0,008
-525,248	800,000	-0,050	-0,125
-524,233	-57,316	0,115	0,037
-523,218	80,565	-0,031	0,024
-522,204	-200,000	0,001	0,024
-521,189	-200,000	0,010	0,053
-520,175	400,661	-0,072	-0,110
-519,160	-136,378	0,098	0,008
-518,145	800,000	-0,023	0,066
-517,131	319,106	-0,043	-0,059
-516,116	228,705	0,044	0,053
-515,102	-200,000	-0,003	0,069
-514,087	-200,000	-0,004	-0,015
-513,072	793,201	0,009	0,019
-512,058	-200,000	-0,002	-0,176
-511,043	-200,000	-0,034	-0,158
-510,029	800,000	-0,040	-0,088
-509,014	291,163	0,089	0,118
-507,999	-94,136	-0,126	-0,025
-506,985	385,595	-0,100	-0,151
-505,970	-143,630	0,006	0,000
-504,956	195,227	0,143	-0,159
-503,941	71,135	-0,093	0,070
-502,926	148,589	0,056	0,055
-501,912	800,000	-0,038	0,098
-500,897	270,753	-0,043	0,055
-499,883	-118,076	0,046	-0,006
-498,868	-86,768	-0,077	-0,017
-497,853	-115,889	0,083	0,011
-496,839	42,909	-0,070	-0,047
-495,824	364,831	-0,084	-0,123
-494,810	800,000	-0,035	0,086
-493,795	-88,329	-0,028	0,006
-492,781	-200,000	0,012	0,084
-491,766	200,426	-0,084	-0,094
-490,751	-200,000	-0,005	-0,018
-489,737	750,425	0,035	0,069
-488,722	-60,558	0,095	-0,029
-487,708	-53,028	0,137	-0,046
-486,693	-200,000	-0,006	0,000
-485,678	271,466	0,030	0,038
-484,664	-46,080	-0,045	0,016
-483,649	230,361	-0,107	0,128
-482,635	800,000	0,080	-0,243
-481,620	247,512	0,058	-0,072
-480,605	226,577	0,065	0,077
-479,591	30,100	0,080	-0,050
-478,576	266,859	-0,064	-0,082
-477,562	-200,000	0,005	0,055
-476,547	800,000	0,042	-0,108
-475,532	-6,247	0,105	-0,052
-474,518	800,000	-0,019	0,057
-473,503	28,813	0,058	-0,036
-472,489	138,939	-0,061	-0,059
-471,474	-7,346	0,050	0,024
-470,459	613,191	-0,026	-0,047
-469,445	-48,192	-0,118	0,041
-468,430	350,549	0,031	-0,045
-467,416	436,832	-0,068	0,109
-466,401	330,524	-0,138	0,194
-465,386	-200,000	0,007	0,052
-464,372	373,648	0,018	0,026
-463,357	-183,496	-0,092	-0,001
-462,343	168,440	-0,073	-0,076
-461,328	-200,000	0,006	0,032
-460,313	800,000	0,018	0,056
-459,299	800,000	0,055	0,132
-458,284	279,827	0,043	0,056
-457,270	-200,000	0,025	0,171
-456,255	160,376	0,114	-0,116
-455,241	63,337	-0,148	-0,108
-454,226	-200,000	0,025	0,107
-453,211	94,806	0,048	-0,040
-452,197	17,919	0,075	0,044
-451,182	-21,320	0,077	0,034
-450,168	-200,000	0,018	0,138
-449,153	-200,000	-0,011	0,085
-448,138	-200,000	0,019	0,152
-447,124	-25,402	-0,241	0,104
-446,109	-200,000	-0,000	-0,009
-445,095	157,270	-0,108	-0,109
-444,080	800,000	-0,040	-0,089
-443,065	-200,000	-0,005	0,081
-442,051	126,760	0,054	-0,050
-441,036	633,910	-0,045	-0,083
-440,022	121,343	-0,053	0,048
-439,007	93,228	-0,064	-0,053
-437,992	-75,348	0,070	0,018
-436,978	800,000	-0,061	-0,150
-435,963	-62,625	0,029	0,009
-434,949	-80,167	-0,110	0,027
-433,934	603,685	0,049	-0,090
-432,919	-200,000	0,009	-0,112
-431,905	-200,000	-0,013	-0,091
-430,890	-55,581	-0,055	0,018
-429,876	-194,836	0,119	-0,001
-428,861	-200,000	-0,007	0,116
-427,846	18,536	0,111	0,065
-426,832	-0,086	0,052	0,027
-425,817	35,661	0,105	0,067
-424,803	74,313	-0,029	-0,023
-423,788	56,114	0,048	0,034
-422,773	-92,548	0,208	-0,042
-421,759	364,472	-0,023	-0,033
-420,744	-200,000	0,015	-0,063
-419,730	-157,757	0,018	0,001
-418,715	800,000	0,046	-0,096
-417,701	800,000	0,038	-0,117
-416,686	557,501	-0,067	-0,118
-415,671	-200,000	-0,007	0,108
-414,657	427,934	-0,047	0,074
-413,642	-200,000	-0,020	-0,114
-412,628	383,197	0,041	-0,062
-411,613	-135,458	-0,121	-0,010
-410,598	-200,000	-0,017	-0,062
-409,584	-200,000	0,011	0,178
-408,569	-94,675	0,165	-0,032
-407,555	-78,275	-0,162	0,040
-406,540	-200,000	0,012	0,071
-405,525	103,032	-0,077	0,066
-404,511	-200,000	0,006	0,032
-403,496	-99,999	0,117	0,021
-402,482	451,128	-0,035	0,057
-401,467	103,642	0,094	0,080
-400,452	-146,478	0,145	0,009
-399,438	22,209	-0,091	-0,054
-398,423	-200,000	-0,019	0,076
-397,409	174,979	-0,061	0,064
-396,394	79,635	0,019	-0,015
-395,379	-174,055	0,031	0,001
-394,365	800,000	0,031	0,090
-393,350	-145,820	0,044	0,003
-392,336	75,059	-0,060	-0,046
-391,321	11,212	-0,221	-0,122
-390,306	432,597	-0,039	0,061
-389,292	53,921	-0,092	-0,064
-388,277	44,257	0,055	-0,037
-387,263	248,389	0,089	0,110
-386,248	800,000	-0,055	0,140
-385,233	449,349	0,036	0,059
-384,219	-28,516	0,091	0,038
-383,204	800,000	-0,028	-0,064
-382,190	444,041	-0,018	-0,029
-381,175	-9,620	0,067	-0,032
-380,160	-200,000	-0,009	-0,048
-379,146	-36,408	0,100	0,039
-378,131	33,131	-0,057	0,036
-377,117	-200,000	0,027	0,161
-376,102	195,659	-0,086	0,095
-375,088	-122,276	0,056	0,007
-374,073	-200,000	0,015	-0,104
-373,058	306,023	0,034	0,046
-372,044	800,000	-0,027	0,075
-371,029	74,195	0,058	0,044
-370,015	47,727	-0,096	0,065
-369,000	43,074	0,050	-0,033
-367,985	276,030	-0,038	-0,049
-366,971	-67,340	-0,103	0,029
-365,956	-200,000	-0,023	0,138
-364,942	127,502	0,027	0,025
-363,927	442,582	0,029	0,046
-362,912	-23,696	0,106	-0,046
-361,898	31,215	-0,063	-0,039
-360,883	-51,984	-0,045	-0,015
-359,869	-146,774	0,011	-0,001
-358,854	103,197	0,055	0,047
-357,839	800,000	0,052	0,153
-356,825	800,000	0,061	-0,130
-355,810	-3,797	0,061	-0,030
-354,796	-142,492	0,143	-0,010
-353,781	-200,000	-0,007	0,037
-352,766	5,421	0,066	-0,035
-351,752	448,988	-0,066	-0,106
-350,737	134,199	0,087	-0,082
-349,723	-32,718	0,108	0,043
-348,708	800,000	-0,067	0,151
-347,693	214,725	0,102	-0,117
-346,679	-107,066	0,093	-0,015
-345,664	-200,000	-0,039	-0,138
-344,650	660,948	-0,074	-0,139
-343,635	-10,905	0,168	0,080
-342,620	111,606	0,035	-0,031
-341,606	-3,854	-0,088	-0,044
-340,591	-200,000	-0,004	0,021
-339,577	155,345	-0,033	0,033
-338,562	-48,847	-0,113	-0,039
-337,548	800,000	-0,065	0,146
-336,533	136,307	0,132	-0,125
-335,518	-153,143	0,116	0,006
-334,504	-182,952	0,059	0,001
-333,489	179,924	-0,038	0,041
-332,475	114,828	0,054	-0,048
-331,460	-200,000	-0,023	-0,193
-330,445	7,420	-0,078	-0,042
-329,431	144,658	0,088	-0,085
-328,416	121,731	0,057	-0,052
-327,402	-43,613	-0,073	-0,026
-326,387	31,690	0,061	-0,038
-325,372	24,813	-0,066	0,040
-324,358	-117,381	-0,081	0,010
-323,343	-38,677	-0,063	0,024
-322,329	-186,140	0,062	0,001
-321,314	800,000	-0,049	0,113
-320,299	228,454	-0,050	0,059
-319,285	800,000	0,055	0,127
-318,270	34,030	-0,154	0,097
-317,256	-200,000	0,025	-0,097
-316,241	60,659	0,125	-0,090
-315,226	9,584	0,063	-0,035
-314,212	253,095	0,095	0,118
-313,197	-200,000	-0,031	0,123
-312,183	359,522	0,017	0,025
-311,168	800,000	0,045	-0,126
-310,153	-85,499	-0,060	0,013
-309,139	-55,026	0,100	0,032
-308,124	800,000	-0,019	0,039
-307,110	-72,468	0,151	0,040
-306,095	-154,189	0,014	-0,001
-305,080	171,138	-0,010	-0,010
-304,066	-200,000	0,006	0,065
-303,051	800,000	-0,019	0,039
-302,037	-41,849	-0,106	0,039
-301,022	769,657	-0,042	0,083
-300,008	487,063	-0,055	0,091
-298,993	57,216	-0,022	-0,015
-297,978	-49,459	0,105	0,036
-296,964	-109,947	-0,157	-0,024
-295,949	700,349	-0,035	-0,068
-294,935	-146,184	-0,132	-0,008
-293,920	-30,212	0,078	-0,032
-292,905	513,978	-0,019	-0,032
-291,891	-167,880	0,101	0,003
-290,876	-200,000	-0,003	-0,108
-289,862	30,059	-0,143	0,088
-288,847	-200,000	0,006	-0,058
-287,832	586,160	0,036	-0,064
-286,818	471,056	-0,118	0,193
-285,803	-200,000	0,014	-0,100
-284,789	-200,000	-0,006	0,166
-283,774	-200,000	0,029	0,124
-282,759	197,447	0,095	-0,106
-281,745	-200,000	-0,003	0,038
-280,730	80,119	-0,045	0,035
-279,716	-200,000	-0,040	0,130
-278,701	-108,049	0,032	0,005
-277,686	133,000	-0,017	0,016
-276,672	800,000	0,033	-0,094
-275,657	-200,000	-0,013	-0,056
-274,643	-200,000	-0,039	-0,171
-273,628	-200,000	-0,001	0,041
-272,613	652,737	-0,045	-0,084
-271,599	264,619	0,074	-0,094
-270,584	-1,650	0,046	0,023
-269,570	62,034	-0,042	0,030
-268,555	-200,000	0,029	-0,109
-267,540	-111,932	0,056	-0,008
-266,526	-200,000	-0,013	-0,085
-265,511	800,000	0,019	0,050
-264,497	50,309	0,082	-0,056
-263,482	637,648	-0,065	0,119
-262,467	493,447	-0,102	-0,169
-261,453	-169,643	-0,084	-0,002
-260,438	800,000	-0,031	-0,073
-259,424	168,293	0,047	0,048
-258,409	-120,801	-0,141	-0,017
-257,395	-112,066	0,010	-0,001
-256,380	606,702	0,055	0,100
-255,365	85,763	-0,097	-0,077
-254,351	-140,929	0,138	0,010
-253,336	-39,647	-0,188	-0,071
-252,322	800,000	0,010	-0,025
-251,307	-39,103	0,101	-0,038
-250,292	800,000	0,054	-0,153
-249,278	-34,843	0,100	0,039
-248,263	142,051	0,084	0,080
-247,249	-200,000	-0,013	0,063
-246,234	266,385	-0,070	-0,088
-245,219	-109,045	0,123	-0,019
-244,205	34,592	-0,119	-0,075
-243,190	800,000	0,029	0,065
-242,176	-200,000	0,018	0,113
-241,161	10,333	-0,077	0,042
-240,146	643,466	0,055	0,102
-239,132	-200,000	0,008	-0,083
-238,117	23,046	-0,139	0,082
-237,103	-120,246	-0,166	-0,020
-236,088	-86,183	0,081	-0,018
-235,073	460,500	0,014	0,022
-234,059	109,291	0,061	0,053
-233,044	64,349	-0,085	-0,062
-232,030	800,000	-0,067	-0,144
-231,015	424,203	-0,093	-0,145
-230,000	-200,000	0,008	-0,027
-228,986	-136,680	-0,057	-0,005
-227,971	800,000	-0,031	0,084
-226,957	-200,000	0,004	-0,069
-225,942	-200,000	0,014	0,163
-224,927	-200,000	0,022	0,119
-223,913	-46,725	-0,079	-0,028
-222,898	-98,647	0,089	0,016
-221,884	-72,090	-0,128	0,034
-220,869	-200,000	0,035	0,139
-219,855	166,753	0,022	-0,023
-218,840	-136,587	-0,109	0,009
-217,825	49,565	0,042	0,029
-216,811	800,000	0,009	-0,027
-215,796	78,501	-0,087	-0,067
-214,782	-200,000	0,003	-0,036
-213,767	-80,749	0,159	-0,038
-212,752	-116,540	0,088	-0,012
-211,738	-142,267	-0,102	-0,007
-210,723	117,254	0,068	0,060
-209,709	198,880	0,093	-0,103
-208,694	-91,321	-0,075	0,015
-207,679	800,000	-0,039	0,093
-206,665	-45,661	0,071	0,025
-205,650	-200,000	0,008	0,073
-204,636	-200,000	-0,033	0,143
-203,621	382,605	-0,071	0,105
-202,606	-200,000	-0,004	0,068
-201,592	136,896	-0,094	-0,088
-200,577	387,167	0,024	-0,036
-199,563	84,221	0,129	0,102
-198,548	-200,000	0,055	0,200
-197,533	-200,000	-0,002	0,018
-196,519	-135,268	0,068	0,006
-195,504	-123,826	-0,070	0,008
-194,490	-167,502	0,058	-0,002
-193,475	93,398	0,057	0,046
-192,460	393,654	-0,098	-0,147
-191,446	-114,255	0,077	-0,011
-190,431	-113,861	0,107	0,015
-189,417	412,368	0,051	0,079
-188,402	297,793	-0,025	-0,033
-187,387	89,768	0,097	-0,078
-186,373	558,692	-0,051	0,090
-185,358	360,728	-0,027	-0,039
-184,344	800,000	0,033	0,095
-183,329	15,754	0,067	0,038
-182,315	101,804	-0,087	0,073
-181,300	54,192	-0,068	-0,047
-180,285	-200,000	-0,001	-0,029
-179,271	-200,000	-0,013	0,065
-178,256	-3,037	-0,062	-0,031
-177,242	800,000	-0,034	0,079
-176,227	800,000	0,028	0,073
-175,212	-170,638	-0,148	0,004
-174,198	-45,220	-0,097	-0,035
-173,183	-200,000	0,006	-0,027
-172,169	-200,000	0,017	0,071
-171,154	-77,867	0,035	0,009
-170,139	-10,923	0,108	0,051
-169,125	-147,755	-0,039	-0,002
-168,110	17,158	0,134	0,077
-167,096	800,000	-0,023	0,053
-166,081	513,377	-0,052	0,088
-165,066	-137,533	0,018	0,001
-164,052	189,633	0,077	-0,083
-163,037	800,000	0,038	0,089
-162,023	-200,000	-0,024	-0,080
-161,008	-91,459	-0,134	0,027
-159,993	223,977	0,108	0,126
-158,979	128,956	-0,034	-0,031
-157,964	126,255	0,051	0,046
-156,950	576,953	-0,013	0,023
-155,935	-147,973	0,055	-0,003
-154,920	-70,477	-0,108	0,029
-153,906	63,067	-0,071	0,051
-152,891	24,569	0,181	0,108
-151,877	800,000	-0,017	-0,039
-150,862	-68,177	-0,044	-0,012
-149,847	-200,000	-0,023	-0,126
-148,833	-1,308	0,086	0,044
-147,818	318,122	-0,049	0,067
-146,804	671,916	-0,021	0,039
-145,789	135,805	-0,151	0,141
-144,775	800,000	0,034	-0,103
-143,760	16,165	0,059	-0,033
-142,745	-190,354	0,063	-0,000
-141,731	-182,848	0,128	0,002
-140,716	769,201	-0,067	-0,132
-139,702	23,700	0,018	0,011
-138,687	208,297	-0,071	-0,080
-137,672	-194,965	0,061	-0,000
-136,658	174,661	-0,127	0,132
-135,643	-37,510	0,135	0,052
-134,629	221,034	-0,035	0,040
-133,614	727,719	0,128	0,247
-132,599	-29,808	0,103	-0,042
-131,585	-200,000	-0,006	0,073
-130,570	-200,000	0,007	-0,071
-129,556	159,637	-0,069	-0,070
-128,541	-7,118	-0,048	-0,023
-127,526	-82,831	0,139	0,032
-126,512	438,379	-0,010	-0,015
-125,497	46,862	-0,041	0,028
-124,483	-200,000	0,010	-0,170
-123,468	-200,000	-0,022	-0,089
-122,453	201,652	-0,097	0,108
-121,439	-2,397	0,052	-0,026
-120,424	-63,455	-0,161	0,047
-119,410	-137,599	-0,123	0,010
-118,395	12,396	-0,102	0,057
-117,380	-66,232	0,063	-0,018
-116,366	-81,217	-0,163	0,038
-115,351	-200,000	-0,014	0,098
-114,337	-132,709	-0,193	-0,018
-113,322	-138,375	0,018	0,001
-112,307	177,082	0,019	0,020
-111,293	7,849	-0,046	0,025
-110,278	-200,000	0,022	0,071
-109,264	113,200	0,045	0,040
-108,249	800,000	-0,020	0,045
-107,234	244,048	0,031	0,037
-106,220	10,216	0,045	0,025
-105,205	131,949	0,085	0,079
-104,191	800,000	0,043	0,105
-103,176	800,000	-0,032	0,066
-102,162	118,383	0,094	0,084
-101,147	285,391	-0,073	0,095
-100,132	-200,000	-0,006	-0,062
-99,118	-200,000	-0,015	-0,128
-98,103	470,146	-0,068	-0,110
-97,089	125,324	0,039	0,035
-96,074	219,131	0,100	0,116
-95,059	206,201	0,125	0,140
-94,045	-74,050	0,103	-0,027
-93,030	51,688	-0,078	0,053
-92,016	-49,870	0,071	0,024
-91,001	505,476	0,015	0,025
-89,986	800,000	0,031	-0,088
-88,972	330,229	0,048	-0,067
-87,957	800,000	-0,017	0,044
-86,943	-24,645	0,023	-0,010
-85,928	272,949	0,082	-0,105
-84,913	-55,823	0,105	0,033
-83,899	104,384	-0,094	-0,079
-82,884	-52,465	0,029	-0,010
-81,870	-83,254	0,054	0,012
-80,855	524,546	-0,053	0,089
-79,840	-200,000	-0,008	0,123
-78,826	665,178	-0,078	-0,146
-77,811	750,856	0,049	-0,096
-76,797	-200,000	-0,005	-0,108
-75,782	79,791	0,143	0,110
-74,767	552,151	0,048	0,082
-73,753	124,624	-0,061	0,055
-72,738	-53,018	-0,075	0,025
-71,724	-147,814	-0,074	0,004
-70,709	455,140	-0,089	0,143
-69,694	-93,507	-0,136	-0,027
-68,680	256,550	-0,016	-0,020
-67,665	177,586	-0,029	0,031
-66,651	-200,000	0,008	-0,067
-65,636	-11,467	0,126	0,059
-64,622	-14,214	0,062	-0,028
-63,607	-200,000	0,003	-0,031
-62,592	483,185	0,035	0,058
-61,578	404,279	0,027	-0,041
-60,563	-200,000	-0,019	0,076
-59,549	-200,000	0,014	0,109
-58,534	10,977	-1,927	-1,054
-57,519	-200,000	-0,223	-0,873
-56,505	-200,000	-1,333	-4,973
-55,490	38,662	0,837	0,535
-54,476	800,000	5,301	12,082
-53,461	-200,000	17,778	287,343
-52,446	800,000	729,003	2226,852
-51,432	537,216	1644,830	2813,966
-50,417	109,674	1635,159	1405,922
-49,403	75,700	1286,814	974,427
-48,388	31,857	1027,237	633,220
-47,373	20,094	989,106	570,950
-46,359	18,312	976,692	557,924
-45,344	15,407	972,809	546,184
-44,330	15,671	971,246	546,148
-43,315	15,150	969,475	543,430
-42,300	15,082	968,441	542,607
-41,286	15,030	967,429	541,851
-40,271	15,050	966,411	541,323
-39,257	15,150	965,396	541,059
-38,242	15,117	964,724	540,553
-37,227	15,126	963,670	539,971
-36,213	15,121	962,947	539,528
-35,198	15,008	962,002	538,610
-34,184	15,133	961,357	538,634
-33,169	15,082	960,320	537,865
-32,154	15,082	959,423	537,342
-31,140	15,084	958,669	536,906
-30,125	15,203	957,594	536,663
-29,111	15,068	957,001	535,878
-28,096	15,127	956,425	535,723
-27,082	15,182	955,545	535,386
-26,067	15,092	954,882	534,703
-25,052	15,054	954,220	534,189
-24,038	15,103	953,335	533,831
-23,023	15,036	952,817	533,303
-22,009	15,096	952,229	533,147
-20,994	15,050	951,677	532,668
-19,979	15,078	950,887	532,294
-18,965	15,029	950,182	531,722
-17,950	15,098	949,666	531,633
-16,936	15,038	949,007	531,052
-15,921	15,042	948,232	530,608
-14,906	15,032	947,448	530,117
-13,892	15,008	947,065	529,806
-12,877	14,967	946,289	529,222
-11,863	14,916	945,866	528,802
-10,848	14,961	945,237	528,571
-9,833	15,086	944,722	528,659
-8,819	15,016	944,111	528,072
-7,804	15,036	943,374	527,705
-6,790	14,937	942,956	527,137
-5,775	15,003	942,327	526,972
-4,760	15,037	941,570	526,635
-3,746	14,956	941,085	526,087
-2,731	14,872	940,290	525,357
-1,717	14,829	939,642	524,837
-0,702	14,852	938,953	524,506
0,313	14,620	938,457	524,287
1,327	17,969	936,211	533,528
2,342	27,138	793,042	476,189
3,356	23,963	458,358	270,355
4,371	-3,286	314,423	156,504
5,386	-7,319	296,155	143,319
6,400	-9,197	290,188	138,556
7,415	-9,788	287,830	136,835
8,429	-9,801	285,990	135,935
9,444	-10,152	285,386	135,294
10,459	-9,837	284,501	135,169
11,473	-10,056	284,093	134,750
12,488	-9,867	283,592	134,683
13,502	-10,020	283,050	134,267
14,517	-10,100	282,595	133,961
15,531	-9,986	282,032	133,793
16,546	-10,082	281,609	133,487
17,561	-9,980	281,286	133,420
18,575	-9,904	280,866	133,282
19,590	-10,193	280,646	132,888
20,604	-9,957	280,365	132,970
21,619	-10,139	280,040	132,630
22,634	-10,041	279,656	132,530
23,648	-10,233	279,271	132,153
24,663	-10,161	279,044	132,102
25,677	-10,003	278,700	132,078
26,692	-10,071	278,466	131,891
27,707	-10,167	278,147	131,636
28,721	-10,133	278,000	131,588
29,736	-10,189	277,743	131,401
30,750	-10,299	277,485	131,163
31,765	-10,132	277,151	131,152
32,780	-10,282	276,978	130,916
33,794	-10,081	276,621	130,925
34,809	-10,177	276,506	130,768
35,823	-10,140	276,062	130,582
36,838	-10,173	275,883	130,454
37,853	-10,165	275,505	130,271
38,867	-10,181	275,566	130,274
39,882	-10,077	275,268	130,219
40,896	-10,174	274,881	129,934
41,911	-10,116	274,540	129,815
42,926	-10,230	274,469	129,662
43,940	-10,348	274,183	129,405
44,955	-10,166	273,868	129,416
45,969	-10,472	273,795	129,084
46,984	-10,387	273,468	128,997
47,999	-10,646	273,238	128,636
49,013	-10,585	272,758	128,455
50,028	-10,874	272,639	128,119
51,042	-10,948	272,439	127,945
52,057	-10,983	272,026	127,707
53,071	-10,692	271,805	127,862
54,086	-10,691	271,697	127,800
55,101	-10,462	271,673	127,990
56,115	-10,340	271,382	127,954
57,130	-10,074	271,214	128,109
58,144	-10,034	271,222	128,139
59,159	-10,005	270,831	127,969
60,174	-9,924	270,729	127,985
61,188	-9,872	270,455	127,891
62,203	-9,958	270,309	127,732
63,217	-9,930	270,129	127,661
64,232	-9,980	269,798	127,447
65,247	-9,958	269,607	127,365
66,261	-9,880	269,294	127,278
67,276	-10,206	269,153	126,902
68,290	-10,231	268,745	126,675
69,305	-10,387	268,565	126,435
70,320	-10,330	268,364	126,382
71,334	-10,157	268,105	126,407
72,349	-9,926	267,986	126,550
73,363	-9,998	267,757	126,365
74,378	-9,889	267,479	126,322
75,393	-9,898	267,386	126,258
76,407	-9,839	267,144	126,187
77,422	-9,943	266,926	125,978
78,436	-9,915	266,730	125,900
79,451	-9,879	266,482	125,804
80,466	-10,089	266,170	125,456
81,480	-9,997	265,776	125,341
82,495	-10,227	265,736	125,104
83,509	-10,059	265,614	125,187
84,524	-10,192	265,471	124,989
85,539	-10,237	265,115	124,769
86,553	-10,239	264,883	124,646
87,568	-10,207	264,634	124,548
88,582	-10,199	264,539	124,499
89,597	-10,019	264,241	124,509
90,611	-10,049	264,280	124,489
91,626	-9,955	264,104	124,480
92,641	-10,005	263,768	124,266
93,655	-10,003	263,430	124,097
94,670	-10,130	263,352	123,936
95,684	-10,067	263,095	123,860
96,699	-9,854	262,783	123,892
97,714	-10,021	262,793	123,736
98,728	-10,184	262,466	123,427
99,743	-10,190	262,198	123,284
100,757	-10,271	262,209	123,206
101,772	-10,123	261,805	123,137
102,787	-10,028	261,726	123,173
103,801	-10,001	261,531	123,095
104,816	-10,099	261,400	122,935
105,830	-10,129	261,192	122,799
106,845	-9,944	261,054	122,887
107,860	-10,064	260,788	122,644
108,874	-9,887	260,498	122,654
109,889	-9,979	260,282	122,460
110,903	-10,075	260,339	122,392
111,918	-9,949	259,936	122,302
112,933	-10,087	259,874	122,141
113,947	-10,136	259,578	121,947
114,962	-9,916	259,574	122,128
115,976	-10,028	259,288	121,884
116,991	-10,078	259,140	121,760
118,006	-9,981	258,841	121,694
119,020	-10,032	258,877	121,654
120,035	-9,884	258,493	121,593
121,049	-9,810	258,413	121,610
122,064	-9,945	258,255	121,407
123,079	-10,110	257,996	121,129
124,093	-10,029	257,883	121,136
125,108	-10,253	257,447	120,725
126,122	-10,284	257,256	120,598
127,137	-10,343	257,031	120,430
128,151	-10,304	256,991	120,435
129,166	-10,166	256,799	120,454
130,181	-10,238	256,566	120,271
131,195	-10,207	256,357	120,190
132,210	-10,036	256,143	120,226
133,224	-9,903	255,961	120,246
134,239	-9,859	255,780	120,188
135,254	-9,967	255,687	120,040
136,268	-10,092	255,292	119,736
137,283	-10,295	255,096	119,459
138,297	-10,308	254,928	119,358
139,312	-10,339	254,730	119,228
140,327	-9,965	254,521	119,442
141,341	-9,658	254,553	119,710
142,356	-9,836	254,386	119,467
143,370	-9,884	254,261	119,357
144,385	-9,762	254,040	119,347
145,400	-9,669	253,792	119,301
146,414	-9,777	253,733	119,169
147,429	-9,991	253,501	118,866
148,443	-9,707	253,290	119,000
149,458	-9,807	253,090	118,809
150,473	-9,633	252,811	118,817
151,487	-9,925	252,777	118,541
152,502	-9,860	252,527	118,468
153,516	-9,788	252,327	118,426
154,531	-9,643	252,173	118,466
155,546	-9,693	252,126	118,391
156,560	-9,882	251,890	118,109
157,575	-9,857	251,674	118,018
158,589	-9,857	251,479	117,916
159,604	-9,637	251,242	117,981
160,619	-9,803	251,078	117,753
161,633	-9,820	250,901	117,645
162,648	-9,803	250,767	117,586
163,662	-9,970	250,636	117,373
164,677	-9,874	250,585	117,420
165,692	-9,706	250,272	117,404
166,706	-9,741	250,169	117,316
167,721	-9,727	249,883	117,184
168,735	-9,591	249,749	117,225
169,750	-9,702	249,739	117,116
170,764	-9,706	249,549	117,013
171,779	-9,639	249,359	116,970
172,794	-9,547	249,049	116,891
173,808	-9,744	248,920	116,655
174,823	-9,976	248,533	116,269
175,837	-10,387	248,423	115,863
176,852	-9,858	248,457	116,312
177,867	-9,434	248,289	116,577
178,881	-9,659	248,037	116,260
179,896	-9,384	247,939	116,434
180,910	-9,559	247,719	116,174
181,925	-9,653	247,623	116,040
182,940	-9,759	247,507	115,887
183,954	-9,658	247,283	115,856
184,969	-9,650	247,118	115,775
185,983	-9,555	246,963	115,772
186,998	-9,761	246,887	115,554
188,013	-9,720	246,615	115,450
189,027	-9,663	246,393	115,384
190,042	-9,833	246,436	115,252
191,056	-9,722	246,206	115,226
192,071	-9,535	245,955	115,254
193,086	-9,765	245,701	114,934
194,100	-9,756	245,529	114,851
195,115	-9,392	245,206	114,990
196,129	-9,536	245,120	114,820
197,144	-9,655	244,911	114,614
198,159	-9,602	244,824	114,607
199,173	-9,694	244,710	114,468
200,188	-9,763	244,512	114,308
201,202	-9,811	244,166	114,097
202,217	-10,263	243,881	113,583
203,232	-10,385	243,734	113,404
204,246	-9,909	243,776	113,804
205,261	-9,254	243,635	114,264
206,275	-9,858	243,396	113,648
207,290	-5,526	245,008	117,955
208,304	1,207	247,214	124,581
209,319	3,683	247,799	126,913
210,334	3,931	247,682	127,047
211,348	4,355	247,647	127,367
212,363	4,397	247,571	127,351
213,377	4,517	247,456	127,380
214,392	4,458	247,275	127,227
215,407	4,405	246,976	127,018
216,421	4,087	247,007	126,761
217,436	4,473	246,819	126,971
218,450	4,734	246,621	127,072
219,465	4,459	246,263	126,651
220,480	4,031	246,218	126,265
221,494	4,086	246,144	126,261
222,509	4,106	245,868	126,125
223,523	4,044	245,655	125,953
224,538	3,767	245,395	125,583
225,553	3,842	245,284	125,576
226,567	3,779	245,260	125,501
227,582	4,186	244,901	125,638
228,596	4,028	244,830	125,461
229,611	3,696	244,581	125,052
230,626	3,941	244,452	125,174
231,640	3,702	244,301	124,892
232,655	3,896	244,199	124,986
233,669	4,104	243,858	124,969
234,684	3,603	243,821	124,533
235,699	3,966	243,772	124,791
236,713	4,079	243,688	124,828
237,728	3,988	243,349	124,570
238,742	3,623	243,068	124,119
239,757	3,738	242,894	124,113
240,772	3,523	242,795	123,878
241,786	3,795	242,720	124,047
242,801	3,729	242,643	123,944
243,815	3,760	242,463	123,866
244,830	3,893	242,220	123,838
245,844	3,895	242,094	123,764
246,859	4,046	241,850	123,750
247,874	3,835	241,803	123,545
248,888	3,733	241,693	123,396
249,903	4,132	241,433	123,573
250,917	4,005	241,359	123,421
251,932	4,106	241,311	123,467
252,947	4,126	241,076	123,352
253,961	3,756	240,834	122,921
254,976	4,178	240,802	123,231
255,990	3,963	240,702	122,997
257,005	3,903	240,347	122,757
258,020	3,805	240,198	122,591
259,034	3,802	240,153	122,555
260,049	3,822	240,085	122,526
261,063	3,827	239,778	122,362
262,078	3,649	239,656	122,147
263,093	3,798	239,600	122,226
264,107	4,047	239,137	122,177
265,122	3,836	239,024	121,941
266,136	3,889	239,037	121,979
267,151	4,189	238,995	122,184
268,166	3,864	238,689	121,760
269,180	3,570	238,604	121,473
270,195	4,288	238,539	121,997
271,209	4,329	238,507	122,002
272,224	3,756	238,222	121,393
273,239	3,717	237,845	121,159
274,253	3,649	237,756	121,049
275,268	3,835	237,573	121,092
276,282	4,119	237,414	121,224
277,297	3,770	237,297	120,879
278,312	3,656	237,099	120,677
279,326	3,995	237,010	120,887
280,341	4,035	237,025	120,915
281,355	3,932	236,803	120,711
282,370	4,015	236,602	120,663
283,384	3,815	236,566	120,476
284,399	3,879	236,296	120,379
285,414	3,607	236,062	120,036
286,428	3,772	235,779	120,011
287,443	3,911	235,846	120,142
288,457	3,661	235,787	119,906
289,472	4,146	235,684	120,222
290,487	4,018	235,359	119,945
291,501	3,762	235,196	119,653
292,516	3,671	234,911	119,426
293,530	3,372	234,870	119,162
294,545	3,760	234,863	119,449
295,560	3,635	234,683	119,250
296,574	3,469	234,471	119,003
297,589	3,752	234,318	119,135
298,603	3,999	234,302	119,307
299,618	3,985	234,080	119,172
300,633	3,947	233,963	119,073
301,647	3,954	233,820	118,995
302,662	4,401	233,855	119,348
303,676	4,342	233,532	119,127
304,691	4,274	233,416	119,004
305,706	4,133	233,362	118,857
306,720	4,310	233,187	118,894
307,735	4,223	232,903	118,672
308,749	3,828	232,891	118,351
309,764	3,765	232,504	118,095
310,779	3,887	232,286	118,068
311,793	3,582	232,258	117,809
312,808	3,721	232,032	117,790
313,822	3,703	231,864	117,680
314,837	3,675	231,691	117,561
315,852	3,605	231,594	117,448
316,866	4,047	231,416	117,685
317,881	4,010	231,368	117,621
318,895	3,817	231,263	117,410
319,910	4,033	231,080	117,472
320,925	3,815	230,816	117,161
321,939	3,867	230,807	117,186
322,954	4,257	230,773	117,455
323,968	4,036	230,548	117,162
324,983	3,898	230,298	116,919
325,997	3,941	230,194	116,889
327,012	3,791	230,122	116,728
328,027	3,976	230,044	116,818
329,041	4,569	229,882	117,176
330,056	4,492	229,905	117,118
331,070	4,765	229,713	117,217
332,085	4,353	229,447	116,759
333,100	4,056	229,238	116,418
334,114	4,026	228,970	116,249
335,129	4,298	228,890	116,403
336,143	4,350	228,806	116,389
337,158	4,445	228,618	116,354
338,173	4,218	228,523	116,125
339,187	4,090	228,334	115,922
340,202	4,023	228,163	115,774
341,216	4,232	228,098	115,889
342,231	4,014	227,886	115,607
343,246	4,203	227,695	115,641
344,260	4,188	227,555	115,548
345,275	4,288	227,710	115,692
346,289	4,240	227,524	115,551
347,304	4,316	227,415	115,542
348,319	4,364	227,255	115,487
349,333	4,003	226,998	115,076
350,348	3,859	226,791	114,853
351,362	4,024	226,528	114,833
352,377	4,078	226,448	114,823
353,392	3,814	226,199	114,489
354,406	3,721	226,059	114,339
355,421	195,003	1323,252	1398,008
356,435	156,277	1456,933	1397,996
