DTS Sentinel unit serial number:	SN410029Multiplexer serial number:	ORYXHardware model number:	OX2-SRSoftware version number:	ORYX F/W v4,00 Oryx Data Collector v3.7.2.0data status	okinstallation	B5 Nyhavnadifferential loss correction	single-endedforward channel	channel 2reverse channel	N/Adate	2023/12/12time	06:57:13forward acquisition time	300,00reverse acquisition time	0,00gamma	499,1914k internal	0,3157k external	0,3157temperature offset calibration	1,0000default loss term (dB/km)	0,3820temperature slope calibration	1,0000multiplexer offset coefficient	1,0000multiplexer slope coefficient	1,0000fibre end	0,00T internal ref (°C)	15,19T ext. ref 1 (°C)	-1,13T ext. ref 2 (°C)	-1,42length (m)	temperature (°C)	Stokes	anti-Stokes-744,400	-200,000	0,023	-0,108
-743,385	-114,499	-0,291	0,041
-742,371	74,285	0,106	0,082
-741,356	-168,506	-0,350	0,010
-740,342	286,389	0,145	0,193
-739,327	18,477	-0,379	0,223
-738,312	4,665	0,127	-0,069
-737,298	-70,108	-0,344	-0,096
-736,283	-75,508	0,116	0,030
-735,269	-137,938	-0,268	0,022
-734,254	25,648	0,128	0,078
-733,239	-93,642	-0,663	-0,134
-732,225	-95,883	0,150	-0,029
-731,210	-57,794	-0,096	-0,031
-730,196	62,668	-0,042	-0,031
-729,181	507,871	0,041	-0,071
-728,167	-200,000	0,010	-0,061
-727,152	250,686	-0,039	0,049
-726,137	679,890	-0,034	-0,065
-725,123	800,000	0,038	-0,094
-724,108	-200,000	-0,005	-0,118
-723,094	-200,000	-0,019	-0,239
-722,079	655,640	-0,094	-0,179
-721,064	-200,000	0,019	-0,149
-720,050	239,122	-0,041	-0,050
-719,035	-5,107	-0,125	-0,063
-718,021	9,361	-0,107	-0,059
-717,006	49,113	0,072	-0,050
-715,991	-147,796	-0,009	0,001
-714,977	-200,000	0,006	-0,092
-713,962	26,991	-0,097	-0,060
-712,948	800,000	-0,036	-0,098
-711,933	17,677	-0,086	-0,050
-710,918	510,853	-0,043	0,073
-709,904	-93,597	-0,121	-0,024
-708,889	-200,000	-0,044	0,158
-707,875	140,742	-0,106	-0,104
-706,860	-30,157	0,049	0,020
-705,845	-27,590	-0,105	-0,045
-704,831	118,550	-0,130	0,118
-703,816	-110,161	-0,105	0,016
-702,802	215,428	-0,027	-0,032
-701,787	-200,000	-0,001	0,031
-700,772	-54,205	-0,093	0,031
-699,758	800,000	-0,033	-0,077
-698,743	-36,444	-0,096	-0,038
-697,729	800,000	-0,020	0,051
-696,714	323,642	0,028	0,040
-695,699	-183,187	-0,084	0,001
-694,685	108,900	0,039	-0,034
-693,670	-64,976	-0,053	-0,016
-692,656	188,037	0,088	-0,097
-691,641	-200,000	0,004	0,084
-690,627	800,000	0,021	0,049
-689,612	198,979	-0,034	0,038
-688,597	293,467	0,054	-0,073
-687,583	205,472	0,057	-0,065
-686,568	798,173	-0,078	-0,159
-685,554	302,526	-0,021	0,029
-684,539	243,829	-0,048	-0,059
-683,524	-200,000	-0,023	0,104
-682,510	-200,000	0,006	0,072
-681,495	-200,000	-0,007	-0,033
-680,481	38,066	-0,047	-0,031
-679,466	210,561	-0,082	-0,094
-678,451	-200,000	-0,013	0,141
-677,437	265,968	-0,036	-0,047
-676,422	-200,000	0,009	0,107
-675,408	121,270	-0,019	0,017
-674,393	-92,019	-0,070	0,014
-673,378	100,097	-0,051	-0,043
-672,364	-200,000	0,043	-0,215
-671,349	182,413	-0,087	-0,094
-670,335	-200,000	0,016	-0,097
-669,320	10,298	0,058	-0,032
-668,305	685,650	-0,028	0,054
-667,291	574,532	0,010	0,018
-666,276	-91,559	0,116	-0,024
-665,262	800,000	0,023	-0,067
-664,247	-200,000	0,013	-0,075
-663,232	107,687	0,041	0,036
-662,218	384,830	0,038	0,057
-661,203	-170,076	0,212	-0,005
-660,189	800,000	0,040	0,112
-659,174	60,090	-0,067	-0,049
-658,159	-200,000	-0,009	-0,049
-657,145	-53,778	-0,040	-0,013
-656,130	-200,000	-0,006	0,058
-655,116	-27,069	0,015	0,006
-654,101	291,494	-0,013	-0,017
-653,086	-23,825	-0,093	-0,041
-652,072	-70,363	-0,131	-0,036
-651,057	414,411	-0,074	-0,117
-650,043	-12,315	-0,121	-0,058
-649,028	800,000	0,020	-0,047
-648,014	-85,603	0,167	-0,038
-646,999	710,663	-0,053	0,103
-645,984	242,276	-0,065	-0,081
-644,970	800,000	0,052	-0,116
-643,955	52,606	-0,075	-0,052
-642,941	-200,000	-0,027	-0,127
-641,926	-145,093	-0,134	0,009
-640,911	-46,893	0,076	0,027
-639,897	101,097	-0,009	-0,008
-638,882	375,104	-0,038	-0,058
-637,868	271,078	-0,068	-0,089
-636,853	-200,000	-0,010	-0,044
-635,838	-8,328	-0,140	-0,069
-634,824	87,067	0,036	-0,029
-633,809	159,859	-0,041	0,042
-632,795	8,719	0,054	-0,030
-631,780	-138,888	0,082	-0,006
-630,765	-200,000	-0,011	0,070
-629,751	-200,000	0,011	0,116
-628,736	-19,199	-0,074	-0,034
-627,722	319,943	0,031	0,044
-626,707	-68,398	0,137	-0,039
-625,692	-36,415	0,136	0,054
-624,678	-172,902	0,098	-0,002
-623,663	-97,847	-0,013	0,003
-622,649	102,166	-0,141	-0,121
-621,634	7,038	-0,095	-0,052
-620,619	-28,647	0,031	0,013
-619,605	-200,000	0,005	0,093
-618,590	-55,447	-0,058	0,019
-617,576	-92,109	-0,100	-0,020
-616,561	800,000	-0,054	0,132
-615,546	308,019	-0,035	0,048
-614,532	-12,008	-0,046	-0,022
-613,517	-53,926	-0,112	0,037
-612,503	56,144	0,050	0,036
-611,488	800,000	-0,025	0,068
-610,474	39,834	-0,086	0,056
-609,459	800,000	0,034	0,075
-608,444	-95,447	-0,064	0,013
-607,430	-200,000	-0,005	0,016
-606,415	800,000	-0,025	-0,052
-605,401	-92,502	0,114	-0,023
-604,386	-200,000	-0,018	0,085
-603,371	-200,000	-0,014	0,051
-602,357	-45,962	-0,083	0,030
-601,342	800,000	-0,041	0,104
-600,328	166,953	-0,051	-0,053
-599,313	206,995	0,072	-0,082
-598,298	-7,361	0,041	0,020
-597,284	-70,980	0,053	-0,014
-596,269	-47,361	0,216	-0,077
-595,255	604,420	-0,060	-0,110
-594,240	-161,199	0,100	0,004
-593,225	-200,000	-0,002	-0,038
-592,211	153,153	-0,051	-0,052
-591,196	-200,000	0,009	-0,194
-590,182	-12,388	0,102	-0,049
-589,167	98,373	0,085	0,072
-588,152	-200,000	0,038	-0,154
-587,138	-25,237	-0,051	0,022
-586,123	-0,361	-0,070	-0,037
-585,109	-82,968	0,028	-0,007
-584,094	327,083	-0,029	-0,041
-583,079	-185,453	0,122	0,001
-582,065	381,002	-0,085	0,129
-581,050	-25,946	-0,098	0,042
-580,036	-89,249	0,057	0,012
-579,021	-130,910	-0,110	-0,011
-578,006	76,797	-0,162	-0,126
-576,992	-200,000	-0,022	0,101
-575,977	-14,499	0,086	0,041
-574,963	-200,000	0,006	0,222
-573,948	324,450	0,044	0,061
-572,934	-33,013	-0,083	-0,034
-571,919	122,785	0,073	0,067
-570,904	800,000	0,052	-0,108
-569,890	-200,000	-0,021	-0,084
-568,875	-40,606	-0,125	-0,047
-567,861	330,014	-0,020	0,029
-566,846	141,279	-0,085	0,082
-565,831	-200,000	-0,001	-0,057
-564,817	-43,255	-0,068	-0,025
-563,802	198,909	-0,122	-0,137
-562,788	124,282	0,174	-0,160
-561,773	-48,416	0,150	-0,052
-560,758	324,437	-0,028	-0,039
-559,744	336,289	0,007	-0,010
-558,729	-54,227	-0,068	0,022
-557,715	-200,000	0,002	-0,172
-556,700	-26,146	-0,093	0,040
-555,685	225,798	-0,052	0,062
-554,671	761,586	0,056	-0,111
-553,656	87,810	-0,063	-0,051
-552,642	-200,000	0,033	0,160
-551,627	10,963	0,048	-0,027
-550,612	16,598	-0,011	0,007
-549,598	193,253	-0,124	0,138
-548,583	800,000	-0,021	-0,045
-547,569	478,493	0,049	0,082
-546,554	-200,000	0,009	-0,073
-545,539	241,554	0,073	0,090
-544,525	-200,000	0,016	0,161
-543,510	-144,252	0,071	-0,005
-542,496	540,927	0,053	-0,092
-541,481	32,765	-0,052	-0,033
-540,466	110,807	0,033	0,029
-539,452	758,180	-0,025	0,050
-538,437	11,916	-0,030	0,017
-537,423	-200,000	-0,013	0,065
-536,408	-137,246	-0,054	0,004
-535,393	263,475	0,054	0,069
-534,379	215,299	0,050	-0,058
-533,364	67,918	0,056	-0,042
-532,350	800,000	0,035	0,076
-531,335	47,468	0,071	-0,049
-530,321	81,205	0,094	0,074
-529,306	-200,000	-0,014	0,072
-528,291	-46,319	-0,147	-0,053
-527,277	-74,698	-0,059	0,015
-526,262	-62,593	-0,132	0,040
-525,248	195,425	0,041	0,045
-524,233	-89,347	0,077	0,016
-523,218	249,440	-0,024	0,030
-522,204	-200,000	0,001	-0,010
-521,189	79,494	-0,015	-0,011
-520,175	126,279	-0,062	0,057
-519,160	-56,532	0,093	-0,030
-518,145	304,218	0,077	-0,104
-517,131	48,094	0,017	-0,012
-516,116	-26,004	0,088	-0,038
-515,102	270,209	-0,031	-0,040
-514,087	29,905	0,042	0,026
-513,072	156,266	0,057	-0,057
-512,058	800,000	-0,014	0,042
-511,043	-114,872	0,031	-0,004
-510,029	-52,862	0,098	0,033
-509,014	-74,192	0,015	0,004
-507,999	-68,730	0,005	0,001
-506,985	-120,266	-0,179	0,022
-505,970	800,000	0,019	0,050
-504,956	-200,000	-0,014	-0,119
-503,941	-160,492	-0,109	-0,004
-502,926	65,201	0,081	0,060
-501,912	-153,807	0,155	-0,008
-500,897	-200,000	-0,009	-0,082
-499,883	368,663	-0,029	-0,043
-498,868	176,434	-0,133	-0,141
-497,853	67,705	-0,081	-0,060
-496,839	75,971	0,012	0,009
-495,824	-200,000	-0,039	0,148
-494,810	800,000	0,042	0,134
-493,795	800,000	-0,005	-0,017
-492,781	800,000	-0,012	-0,034
-491,766	-114,060	-0,122	-0,017
-490,751	67,268	-0,083	-0,062
-489,737	13,789	-0,088	-0,050
-488,722	-200,000	0,022	-0,102
-487,708	106,307	0,097	0,084
-486,693	286,783	0,035	0,047
-485,678	-172,740	-0,042	-0,001
-484,664	3,137	-0,060	0,032
-483,649	-73,934	-0,114	0,030
-482,635	-104,687	-0,036	-0,006
-481,620	217,633	0,059	0,068
-480,605	184,544	0,165	0,179
-479,591	208,956	0,066	0,076
-478,576	-99,062	-0,074	0,013
-477,562	331,180	-0,117	0,165
-476,547	-92,875	0,108	-0,022
-475,532	236,065	0,044	0,054
-474,518	-200,000	0,003	0,071
-473,503	-200,000	-0,007	0,050
-472,489	30,007	0,060	0,037
-471,474	-163,803	0,044	-0,001
-470,459	-11,595	-0,075	-0,036
-469,445	20,473	-0,059	-0,035
-468,430	-183,245	-0,019	-0,000
-467,416	75,823	0,135	-0,104
-466,401	-200,000	-0,042	0,154
-465,386	127,215	-0,051	0,047
-464,372	571,269	-0,049	-0,088
-463,357	225,963	-0,075	-0,089
-462,343	-50,344	-0,139	-0,048
-461,328	-77,976	-0,156	0,039
-460,313	136,121	-0,031	-0,030
-459,299	189,099	0,108	0,118
-458,284	-25,687	-0,117	-0,050
-457,270	-200,000	-0,004	0,047
-456,255	158,109	0,145	-0,146
-455,241	800,000	-0,037	-0,079
-454,226	-23,962	-0,084	-0,036
-453,211	60,486	0,033	-0,024
-452,197	47,171	-0,082	-0,055
-451,182	22,837	0,065	0,039
-450,168	11,596	-0,191	0,106
-449,153	164,358	0,076	-0,078
-448,138	263,325	0,057	0,073
-447,124	-73,791	-0,107	0,028
-446,109	390,768	0,032	0,048
-445,095	-120,650	-0,079	-0,010
-444,080	583,624	0,066	-0,119
-443,065	-25,407	0,091	-0,039
-442,051	51,767	0,064	-0,044
-441,036	201,655	-0,025	-0,029
-440,022	193,504	-0,065	-0,072
-439,007	-1,557	-0,140	-0,071
-437,992	800,000	0,043	-0,127
-436,978	44,269	-0,017	0,011
-435,963	83,303	0,100	0,079
-434,949	-200,000	0,027	-0,132
-433,934	388,889	-0,070	0,105
-432,919	59,832	0,063	0,045
-431,905	-48,963	0,055	-0,019
-430,890	350,182	-0,085	-0,123
-429,876	123,704	-0,010	0,009
-428,861	-200,000	0,010	-0,054
-427,846	-143,537	0,087	-0,006
-426,832	-200,000	0,020	0,067
-425,817	800,000	-0,038	0,088
-424,803	635,225	0,075	-0,140
-423,788	-4,514	-0,148	-0,074
-422,773	87,862	0,069	0,056
-421,759	-200,000	0,016	-0,061
-420,744	128,932	-0,032	0,030
-419,730	-10,756	-0,104	-0,050
-418,715	-200,000	-0,034	-0,137
-417,701	157,241	-0,046	0,046
-416,686	26,491	0,107	-0,065
-415,671	303,832	-0,057	-0,078
-414,657	371,852	0,031	0,046
-413,642	-200,000	0,001	-0,044
-412,628	135,968	-0,037	-0,035
-411,613	-200,000	0,002	-0,034
-410,598	-103,666	-0,019	-0,003
-409,584	162,199	-0,022	0,023
-408,569	113,416	0,072	-0,064
-407,555	-22,753	0,119	0,052
-406,540	-200,000	-0,017	-0,150
-405,525	-137,151	-0,027	0,002
-404,511	120,952	0,086	0,078
-403,496	-69,576	0,049	-0,014
-402,482	29,315	0,051	-0,031
-401,467	800,000	-0,021	0,059
-400,452	800,000	-0,045	0,108
-399,438	-163,927	0,150	-0,005
-398,423	-49,806	0,037	0,013
-397,409	-200,000	-0,001	-0,081
-396,394	800,000	0,013	-0,029
-395,379	453,676	0,139	-0,224
-394,365	-200,000	0,000	-0,210
-393,350	-76,296	-0,064	-0,016
-392,336	-200,000	0,002	-0,063
-391,321	-5,883	0,066	0,033
-390,306	-164,502	-0,054	0,002
-389,292	141,466	-0,070	0,067
-388,277	-131,669	0,104	-0,010
-387,263	34,229	0,035	0,022
-386,248	141,233	-0,155	-0,149
-385,233	451,399	-0,065	-0,105
-384,219	90,037	0,037	-0,030
-383,204	-33,873	-0,076	-0,030
-382,190	800,000	-0,025	-0,054
-381,175	-22,059	0,078	-0,034
-380,160	-200,000	-0,007	-0,110
-379,146	125,872	-0,094	0,086
-378,131	-200,000	-0,006	0,092
-377,117	336,510	-0,016	0,023
-376,102	-3,584	-0,137	0,069
-375,088	-200,000	-0,006	0,026
-374,073	297,803	0,099	0,133
-373,058	-200,000	0,010	0,048
-372,044	-68,398	-0,031	0,009
-371,029	-200,000	-0,128	0,000
-370,015	0,264	0,048	0,025
-369,000	-69,875	-0,056	-0,015
-367,985	-1,027	0,055	-0,028
-366,971	-200,000	0,008	-0,046
-365,956	0,815	0,077	-0,040
-364,942	-200,000	-0,001	0,160
-363,927	10,325	0,055	-0,031
-362,912	-25,967	-0,044	-0,019
-361,898	800,000	-0,023	-0,058
-360,883	-78,370	-0,105	-0,026
-359,869	800,000	-0,038	-0,088
-358,854	-1,334	0,107	0,055
-357,839	-144,179	-0,044	0,003
-356,825	529,235	-0,080	0,137
-355,810	-138,488	0,051	0,004
-354,796	-181,986	-0,047	0,001
-353,781	-19,752	0,093	-0,042
-352,766	800,000	0,034	0,087
-351,752	75,643	-0,016	-0,012
-350,737	-200,000	-0,011	-0,036
-349,723	20,078	0,096	0,056
-348,708	-15,052	0,181	0,084
-347,693	800,000	-0,040	0,110
-346,679	367,930	-0,051	0,075
-345,664	-138,345	-0,143	-0,011
-344,650	215,284	-0,027	-0,031
-343,635	-200,000	-0,034	0,128
-342,620	229,467	-0,062	0,074
-341,606	22,328	0,072	-0,043
-340,591	199,242	0,075	-0,083
-339,577	448,314	-0,045	0,072
-338,562	-200,000	0,015	0,138
-337,548	-79,601	-0,088	-0,021
-336,533	-121,297	-0,028	-0,003
-335,518	204,903	0,138	0,156
-334,504	-33,392	0,114	0,046
-333,489	-200,000	0,010	-0,044
-332,475	283,150	0,085	-0,111
-331,460	-200,000	-0,003	-0,095
-330,445	800,000	-0,074	0,151
-329,431	110,401	-0,035	0,031
-328,416	-200,000	0,024	0,183
-327,402	224,985	-0,074	0,087
-326,387	753,265	0,039	0,078
-325,372	694,583	-0,053	0,102
-324,358	-95,137	-0,076	0,015
-323,343	-146,062	-0,168	0,011
-322,329	371,686	0,062	0,092
-321,314	340,057	-0,068	0,097
-320,299	-16,138	0,068	-0,031
-319,285	-40,821	-0,037	0,014
-318,270	-58,551	0,068	-0,021
-317,256	-29,842	-0,160	-0,066
-316,241	-125,272	0,096	0,011
-315,226	800,000	0,006	-0,015
-314,212	675,058	0,081	0,154
-313,197	137,682	0,092	-0,088
-312,183	-133,146	-0,171	-0,015
-311,168	-56,721	0,126	-0,040
-310,153	-23,097	0,079	-0,034
-309,139	-62,068	0,108	-0,032
-308,124	87,043	-0,039	-0,031
-307,110	65,473	0,120	0,088
-306,095	-14,686	-0,136	0,063
-305,080	-109,627	-0,134	-0,020
-304,066	54,988	-0,218	-0,152
-303,051	126,086	-0,022	-0,020
-302,037	-23,842	-0,123	-0,053
-301,022	96,398	0,110	-0,091
-300,008	75,140	0,079	0,060
-298,993	19,332	0,212	0,123
-297,978	43,672	-0,056	-0,037
-296,964	-67,860	-0,062	-0,018
-295,949	261,019	0,087	-0,110
-294,935	-16,122	-0,130	-0,059
-293,920	-66,383	0,093	-0,027
-292,905	-200,000	-0,025	0,117
-291,891	800,000	-0,009	-0,022
-290,876	310,238	-0,022	0,029
-289,862	134,377	-0,061	-0,058
-288,847	427,198	0,016	0,025
-287,832	39,106	0,108	-0,070
-286,818	800,000	-0,010	-0,023
-285,803	240,635	0,057	0,069
-284,789	-48,453	0,089	-0,031
-283,774	793,880	0,031	0,062
-282,759	-55,909	0,071	-0,023
-281,745	-122,963	-0,112	0,013
-280,730	800,000	0,038	-0,085
-279,716	-200,000	0,003	-0,054
-278,701	800,000	0,037	0,102
-277,686	7,457	0,042	0,023
-276,672	-105,311	0,042	-0,007
-275,657	95,173	0,065	0,054
-274,643	-94,303	-0,051	-0,010
-273,628	-47,482	0,063	-0,022
-272,613	-55,172	-0,072	-0,023
-271,599	-123,437	-0,051	0,006
-270,584	0,328	-0,044	0,023
-269,570	-200,000	-0,009	-0,060
-268,555	-28,242	0,078	-0,033
-267,540	-200,000	-0,007	-0,096
-266,526	-200,000	-0,025	0,088
-265,511	253,937	0,043	-0,053
-264,497	165,403	-0,056	-0,057
-263,482	77,311	-0,064	0,049
-262,467	240,378	0,005	0,006
-261,453	-200,000	0,009	0,150
-260,438	-8,274	-0,169	-0,082
-259,424	800,000	0,009	-0,026
-258,409	131,994	-0,079	0,074
-257,395	119,009	-0,042	-0,038
-256,380	490,387	-0,018	0,030
-255,365	-138,580	0,159	-0,012
-254,351	-88,225	-0,080	0,017
-253,336	-200,000	-0,009	0,067
-252,322	-200,000	-0,016	-0,085
-251,307	-1,428	-0,099	-0,050
-250,292	6,971	0,099	-0,053
-249,278	666,657	-0,072	0,136
-248,263	-2,978	-0,148	-0,074
-247,249	311,964	0,032	0,044
-246,234	-74,672	-0,050	0,013
-245,219	-200,000	-0,040	-0,141
-244,205	-176,894	-0,052	-0,001
-243,190	-200,000	0,007	0,057
-242,176	-20,108	0,110	0,049
-241,161	-200,000	-0,015	0,052
-240,146	800,000	-0,045	0,136
-239,132	107,129	0,049	0,042
-238,117	23,345	0,077	0,046
-237,103	-21,668	0,098	-0,043
-236,088	-200,000	-0,007	-0,039
-235,073	800,000	0,033	0,081
-234,059	86,039	-0,104	0,083
-233,044	293,772	-0,033	-0,044
-232,030	120,793	0,054	-0,049
-231,015	11,825	-0,115	-0,064
-230,000	419,633	-0,050	-0,077
-228,986	594,489	-0,040	-0,073
-227,971	-75,066	0,100	-0,026
-226,957	142,623	-0,100	0,096
-225,942	-38,920	0,092	0,035
-224,927	-200,000	0,014	0,186
-223,913	-76,303	0,020	-0,005
-222,898	800,000	0,011	-0,024
-221,884	-179,419	0,081	-0,001
-220,869	21,140	0,141	-0,083
-219,855	-200,000	0,025	0,234
-218,840	-55,568	-0,031	-0,010
-217,825	-144,271	0,082	-0,005
-216,811	-119,054	-0,030	-0,004
-215,796	169,681	0,065	-0,068
-214,782	800,000	-0,056	-0,129
-213,767	-52,970	0,119	-0,039
-212,752	-125,760	0,048	0,005
-211,738	447,362	-0,076	0,120
-210,723	196,636	0,061	-0,067
-209,709	-25,718	-0,033	-0,014
-208,694	-32,547	-0,111	0,044
-207,679	-40,920	-0,094	0,035
-206,665	304,404	0,027	0,036
-205,650	-73,807	0,137	-0,036
-204,636	-21,769	-0,106	-0,046
-203,621	-115,118	0,102	-0,014
-202,606	82,328	-0,061	0,048
-201,592	800,000	0,031	-0,068
-200,577	585,763	0,063	0,112
-199,563	-25,307	0,058	0,025
-198,548	560,201	0,027	0,048
-197,533	800,000	0,044	0,117
-196,519	84,834	0,009	0,007
-195,504	-53,067	-0,105	0,035
-194,490	0,673	0,065	-0,034
-193,475	17,757	0,052	-0,030
-192,460	297,999	-0,072	0,095
-191,446	169,699	0,054	-0,056
-190,431	106,507	0,109	-0,094
-189,417	-83,143	0,111	-0,026
-188,402	800,000	0,033	-0,092
-187,387	-200,000	0,008	0,029
-186,373	800,000	-0,042	-0,095
-185,358	117,911	-0,018	-0,016
-184,344	70,611	0,032	0,024
-183,329	-200,000	-0,006	0,152
-182,315	172,100	0,116	-0,120
-181,300	800,000	0,033	0,077
-180,285	-47,047	-0,043	-0,015
-179,271	800,000	0,032	-0,073
-178,256	-200,000	0,012	0,100
-177,242	800,000	-0,028	0,085
-176,227	36,973	0,100	-0,064
-175,212	-180,975	-0,140	0,002
-174,198	81,373	0,069	-0,053
-173,183	511,970	0,013	-0,021
-172,169	-200,000	0,001	-0,107
-171,154	-200,000	-0,004	-0,071
-170,139	-200,000	0,032	0,218
-169,125	331,717	0,021	-0,030
-168,110	53,620	0,128	0,089
-167,096	-200,000	-0,009	-0,028
-166,081	-68,879	-0,023	-0,006
-165,066	-200,000	0,000	-0,070
-164,052	800,000	0,021	0,066
-163,037	14,800	0,187	-0,105
-162,023	-200,000	-0,005	0,061
-161,008	-53,210	0,103	-0,034
-159,993	272,344	-0,053	-0,068
-158,979	300,491	-0,041	-0,055
-157,964	785,619	0,054	0,108
-156,950	-200,000	0,020	0,099
-155,935	-200,000	0,001	-0,027
-154,920	40,752	0,078	0,051
-153,906	-200,000	-0,022	0,091
-152,891	266,855	-0,083	-0,105
-151,877	800,000	-0,019	0,054
-150,862	-200,000	0,002	-0,119
-149,847	360,169	-0,054	-0,079
-148,833	528,765	0,089	-0,153
-147,818	-35,818	-0,072	-0,028
-146,804	30,300	0,078	0,048
-145,789	-200,000	-0,003	0,106
-144,775	-200,000	-0,015	-0,066
-143,760	755,880	0,023	0,046
-142,745	46,702	0,091	0,061
-141,731	-31,536	0,153	0,062
-140,716	-24,042	-0,061	-0,026
-139,702	-200,000	0,005	0,059
-138,687	115,736	-0,038	0,034
-137,672	29,479	-0,051	0,031
-136,658	69,002	0,066	0,048
-135,643	5,109	-0,109	-0,058
-134,629	-200,000	0,034	-0,171
-133,614	-137,781	-0,076	0,006
-132,599	-67,080	-0,084	-0,024
-131,585	-168,202	-0,118	0,003
-130,570	178,595	-0,094	0,099
-129,556	211,965	0,031	0,036
-128,541	-32,366	0,042	0,017
-127,526	-200,000	0,007	-0,095
-126,512	-200,000	0,021	0,096
-125,497	-57,755	0,112	-0,035
-124,483	111,711	-0,018	-0,016
-123,468	-200,000	0,009	0,044
-122,453	210,296	-0,049	-0,056
-121,439	434,739	0,046	-0,073
-120,424	800,000	0,009	-0,022
-119,410	-38,084	-0,054	-0,021
-118,395	192,035	-0,085	0,092
-117,380	800,000	0,038	0,080
-116,366	-92,212	-0,081	-0,016
-115,351	-6,304	0,041	-0,020
-114,337	12,058	0,005	-0,003
-113,322	800,000	0,025	-0,060
-112,307	457,454	0,006	-0,009
-111,293	-200,000	-0,002	0,051
-110,278	800,000	0,061	0,193
-109,264	269,907	-0,048	0,061
-108,249	-200,000	0,010	-0,147
-107,234	800,000	-0,021	-0,066
-106,220	620,854	-0,038	-0,070
-105,205	24,140	0,100	0,059
-104,191	1,974	0,027	-0,014
-103,176	-200,000	-0,004	0,112
-102,162	108,527	0,077	0,066
-101,147	-200,000	-0,009	0,076
-100,132	800,000	-0,045	-0,093
-99,118	-200,000	-0,011	0,069
-98,103	28,268	0,040	0,024
-97,089	61,120	0,081	0,058
-96,074	-200,000	-0,001	0,151
-95,059	768,163	0,044	0,087
-94,045	200,664	-0,055	-0,061
-93,030	122,866	0,037	-0,033
-92,016	-6,304	0,069	-0,034
-91,001	299,736	-0,055	-0,073
-89,986	489,419	-0,043	-0,071
-88,972	100,524	0,082	-0,068
-87,957	-200,000	-0,002	0,065
-86,943	-200,000	-0,004	0,115
-85,928	-200,000	-0,009	0,053
-84,913	-200,000	0,012	-0,053
-83,899	74,426	0,039	-0,030
-82,884	-200,000	0,011	0,047
-81,870	-58,280	0,129	-0,040
-80,855	800,000	0,040	-0,111
-79,840	-200,000	0,004	-0,108
-78,826	-200,000	-0,017	-0,096
-77,811	279,833	0,026	-0,034
-76,797	-200,000	-0,010	-0,136
-75,782	18,709	0,031	0,018
-74,767	800,000	0,022	-0,067
-73,753	35,530	0,051	0,032
-72,738	-117,786	-0,093	-0,012
-71,724	-200,000	-0,004	0,015
-70,709	-74,356	-0,073	-0,019
-69,694	-138,257	0,108	-0,008
-68,680	-55,683	0,154	0,049
-67,665	-200,000	-0,010	0,148
-66,651	-123,117	-0,053	0,006
-65,636	-200,000	0,015	-0,071
-64,622	-103,554	0,078	-0,013
-63,607	-45,388	0,056	-0,020
-62,592	-73,621	0,045	-0,012
-61,578	274,718	-0,033	0,042
-60,563	800,000	-0,010	0,024
-59,549	-200,000	-0,030	0,164
-58,534	1,223	-1,934	-0,994
-57,519	800,000	-0,272	-0,824
-56,505	-200,000	-1,202	-4,910
-55,490	39,687	0,780	0,501
-54,476	800,000	5,270	12,203
-53,461	-200,000	17,754	285,953
-52,446	800,000	728,661	2221,792
-51,432	535,602	1644,538	2811,014
-50,417	109,928	1634,656	1407,211
-49,403	75,932	1286,767	975,665
-48,388	31,982	1027,489	634,026
-47,373	20,200	989,256	571,592
-46,359	18,413	977,127	558,703
-45,344	15,543	973,040	546,956
-44,330	15,643	971,846	546,590
-43,315	15,193	969,907	544,008
-42,300	15,251	968,466	543,366
-41,286	15,187	967,628	542,666
-40,271	15,150	966,780	542,049
-39,257	15,221	965,789	541,702
-38,242	15,198	964,754	541,025
-37,227	15,211	964,165	540,716
-36,213	15,177	963,128	540,002
-35,198	15,188	962,326	539,569
-34,184	15,289	961,447	539,379
-33,169	15,137	960,520	538,348
-32,154	15,296	959,425	538,228
-31,140	15,252	958,781	537,701
-30,125	15,219	957,972	537,121
-29,111	15,184	957,382	536,654
-28,096	15,288	956,755	536,618
-27,082	15,285	955,863	536,086
-26,067	15,253	954,955	535,454
-25,052	15,234	954,298	535,004
-24,038	15,233	953,713	534,649
-23,023	15,191	952,931	534,055
-22,009	15,198	952,457	533,790
-20,994	15,203	951,942	533,497
-19,979	15,190	951,047	532,932
-18,965	15,200	950,437	532,602
-17,950	15,178	949,929	532,225
-16,936	15,160	949,272	531,779
-15,921	15,172	948,492	531,361
-14,906	15,125	947,862	530,836
-13,892	15,199	947,105	530,627
-12,877	15,055	946,632	529,882
-11,863	15,079	945,964	529,562
-10,848	15,114	945,547	529,421
-9,833	15,183	945,033	529,330
-8,819	15,202	944,233	528,922
-7,804	15,124	943,709	528,359
-6,790	15,137	943,057	528,014
-5,775	15,144	942,462	527,682
-4,760	15,177	941,987	527,500
-3,746	15,067	941,313	526,755
-2,731	14,988	940,635	526,104
-1,717	14,967	939,932	525,623
-0,702	14,925	939,200	525,059
0,313	14,792	938,566	525,079
1,327	18,120	936,601	534,414
2,342	27,423	793,110	477,151
3,356	24,051	458,119	270,444
4,371	-3,468	314,058	156,183
5,386	-7,576	295,896	142,986
6,400	-9,614	289,795	138,004
7,415	-9,802	287,238	136,589
8,429	-9,965	285,596	135,637
9,444	-10,177	284,931	135,101
10,459	-9,925	284,136	134,958
11,473	-10,078	283,636	134,560
12,488	-10,167	283,131	134,222
13,502	-10,274	282,859	133,978
14,517	-9,977	282,205	133,943
15,531	-10,023	281,791	133,690
16,546	-10,034	281,471	133,516
17,561	-10,000	280,998	133,312
18,575	-9,811	280,752	133,365
19,590	-9,982	280,312	132,981
20,604	-10,076	279,932	132,699
21,619	-10,173	279,515	132,395
22,634	-9,949	279,112	132,407
23,648	-10,158	278,884	132,088
24,663	-10,046	278,769	132,128
25,677	-10,053	278,419	131,944
26,692	-10,040	278,127	131,806
27,707	-9,958	277,862	131,747
28,721	-9,874	277,631	131,705
29,736	-10,158	277,429	131,328
30,750	-10,090	276,968	131,162
31,765	-10,118	276,869	131,077
32,780	-10,025	276,707	131,078
33,794	-10,027	276,342	130,891
34,809	-10,135	276,234	130,726
35,823	-10,171	275,883	130,514
36,838	-10,163	275,586	130,370
37,853	-10,125	275,443	130,326
38,867	-10,004	275,076	130,255
39,882	-10,120	274,921	130,061
40,896	-10,176	274,623	129,856
41,911	-10,119	274,364	129,775
42,926	-10,008	274,012	129,701
43,940	-10,163	273,836	129,461
44,955	-10,238	273,585	129,261
45,969	-10,238	273,520	129,218
46,984	-10,446	273,153	128,840
47,999	-10,466	272,968	128,723
49,013	-10,537	272,718	128,527
50,028	-10,800	272,382	128,113
51,042	-10,821	272,090	127,945
52,057	-10,782	271,787	127,827
53,071	-10,712	271,628	127,806
54,086	-10,469	271,373	127,899
55,101	-10,503	271,184	127,767
56,115	-10,328	271,053	127,856
57,130	-10,041	270,929	128,051
58,144	-9,882	270,894	128,170
59,159	-10,039	270,691	127,917
60,174	-10,029	270,282	127,721
61,188	-10,055	270,258	127,675
62,203	-9,826	269,786	127,651
63,217	-10,037	269,734	127,421
64,232	-10,014	269,453	127,298
65,247	-9,822	269,186	127,337
66,261	-9,988	269,091	127,129
67,276	-10,144	268,762	126,819
68,290	-10,258	268,466	126,564
69,305	-10,443	268,317	126,314
70,320	-10,383	268,044	126,229
71,334	-10,026	267,713	126,387
72,349	-10,200	267,726	126,223
73,363	-9,935	267,422	126,309
74,378	-9,908	267,323	126,276
75,393	-9,996	267,070	126,065
76,407	-9,829	266,819	126,088
77,422	-10,100	266,651	125,751
78,436	-9,968	266,332	125,708
79,451	-10,097	266,174	125,506
80,466	-10,109	265,865	125,338
81,480	-10,166	265,635	125,167
82,495	-10,216	265,534	125,063
83,509	-10,090	265,334	125,072
84,524	-10,029	265,052	124,982
85,539	-10,273	264,964	124,710
86,553	-10,267	264,682	124,571
87,568	-10,195	264,432	124,507
88,582	-10,056	264,149	124,488
89,597	-10,238	263,999	124,243
90,611	-10,044	263,924	124,371
91,626	-9,897	263,538	124,309
92,641	-10,094	263,619	124,160
93,655	-9,988	263,240	124,065
94,670	-10,126	263,078	123,854
95,684	-10,212	262,946	123,704
96,699	-10,179	262,859	123,682
97,714	-10,252	262,562	123,466
98,728	-10,244	262,190	123,287
99,743	-10,389	261,839	122,983
100,757	-10,387	261,787	122,949
101,772	-10,324	261,703	122,954
102,787	-10,185	261,446	122,946
103,801	-9,946	261,235	123,048
104,816	-9,899	261,087	123,008
105,830	-9,991	260,893	122,825
106,845	-10,056	260,680	122,656
107,860	-10,009	260,460	122,583
108,874	-9,915	260,115	122,493
109,889	-10,063	260,060	122,325
110,903	-10,182	259,836	122,104
111,918	-9,957	259,621	122,190
112,933	-10,145	259,353	121,888
113,947	-10,110	259,298	121,882
114,962	-10,119	259,067	121,755
115,976	-10,045	258,980	121,768
116,991	-9,880	258,640	121,742
118,006	-9,833	258,546	121,728
119,020	-10,187	258,540	121,403
120,035	-10,043	258,436	121,471
121,049	-9,879	258,009	121,402
122,064	-9,910	257,975	121,349
123,079	-10,037	257,741	121,117
124,093	-10,027	257,497	120,999
125,108	-10,217	257,185	120,677
126,122	-10,275	256,967	120,513
127,137	-10,653	256,880	120,133
128,151	-10,383	256,536	120,196
129,166	-10,164	256,428	120,324
130,181	-10,217	256,232	120,176
131,195	-10,332	255,999	119,956
132,210	-10,051	255,808	120,099
133,224	-10,049	255,694	120,038
134,239	-9,995	255,553	120,007
135,254	-9,844	255,251	119,985
136,268	-10,193	255,079	119,592
137,283	-10,304	254,858	119,382
138,297	-10,222	254,725	119,380
139,312	-10,481	254,447	119,016
140,327	-10,076	254,277	119,274
141,341	-9,992	254,223	119,311
142,356	-10,056	254,041	119,159
143,370	-9,691	253,789	119,344
144,385	-9,853	253,800	119,199
145,400	-9,957	253,583	118,998
146,414	-9,800	253,255	118,967
147,429	-9,901	253,097	118,797
148,443	-9,819	252,935	118,780
149,458	-9,922	252,856	118,644
150,473	-9,906	252,689	118,569
151,487	-9,934	252,420	118,408
152,502	-9,784	252,325	118,480
153,516	-9,910	252,038	118,228
154,531	-9,976	252,000	118,143
155,546	-9,635	251,593	118,233
156,560	-9,820	251,567	118,052
157,575	-9,993	251,143	117,695
158,589	-9,873	251,107	117,770
159,604	-9,668	250,876	117,825
160,619	-10,001	250,860	117,525
161,633	-9,735	250,418	117,532
162,648	-9,886	250,515	117,440
163,662	-9,784	250,325	117,426
164,677	-9,931	250,155	117,212
165,692	-10,088	250,036	117,013
166,706	-9,913	249,857	117,067
167,721	-9,868	249,594	116,970
168,735	-9,897	249,373	116,833
169,750	-9,679	249,407	117,022
170,764	-9,739	249,233	116,878
171,779	-9,880	249,144	116,708
172,794	-9,733	248,854	116,685
173,808	-9,830	248,612	116,480
174,823	-10,386	248,358	115,885
175,837	-10,364	248,030	115,740
176,852	-10,105	248,083	115,971
177,867	-9,798	248,017	116,187
178,881	-9,689	247,759	116,146
179,896	-9,838	247,584	115,930
180,910	-9,739	247,458	115,943
181,925	-9,556	247,286	116,005
182,940	-9,942	247,115	115,592
183,954	-9,925	247,019	115,552
184,969	-9,830	246,793	115,514
185,983	-9,611	246,621	115,606
186,998	-9,788	246,487	115,386
188,013	-9,906	246,274	115,177
189,027	-9,580	246,050	115,333
190,042	-9,893	245,831	114,961
191,056	-10,009	245,912	114,892
192,071	-9,721	245,613	114,981
193,086	-9,894	245,361	114,709
194,100	-9,888	245,204	114,631
195,115	-9,612	244,917	114,714
196,129	-9,552	244,817	114,706
197,144	-9,682	244,653	114,513
198,159	-9,684	244,431	114,397
199,173	-9,728	244,185	114,235
200,188	-9,935	244,252	114,086
201,202	-10,170	244,028	113,778
202,217	-10,333	243,594	113,432
203,232	-10,262	243,439	113,408
204,246	-9,914	243,371	113,651
205,261	-9,477	243,191	113,914
206,275	-10,344	242,943	113,080
207,290	-7,083	244,268	116,364
208,304	-0,014	246,351	123,184
209,319	3,330	247,356	126,440
210,334	4,066	247,336	127,025
211,348	4,029	247,139	126,883
212,363	4,190	247,187	127,029
213,377	4,329	247,012	127,042
214,392	4,121	246,747	126,724
215,407	4,016	246,597	126,549
216,421	3,976	246,590	126,501
217,436	4,172	246,448	126,578
218,450	4,504	246,260	126,742
219,465	3,926	246,012	126,130
220,480	3,920	245,845	126,028
221,494	3,717	245,681	125,766
222,509	3,834	245,515	125,766
223,523	3,626	245,388	125,520
224,538	3,415	244,890	125,082
225,553	3,538	244,838	125,145
226,567	3,690	244,685	125,178
227,582	3,871	244,652	125,298
228,596	3,820	244,497	125,166
229,611	3,458	244,409	124,815
230,626	3,345	244,111	124,560
231,640	3,637	243,841	124,648
232,655	3,598	243,772	124,570
233,669	3,456	243,547	124,329
234,684	3,427	243,494	124,267
235,699	3,887	243,474	124,619
236,713	3,788	243,443	124,511
237,728	3,525	243,076	124,100
238,742	3,432	242,739	123,842
239,757	3,381	242,598	123,717
240,772	3,305	242,502	123,596
241,786	3,622	242,292	123,734
242,801	3,485	242,132	123,531
243,815	3,490	241,885	123,397
244,830	3,643	241,889	123,512
245,844	3,736	241,700	123,479
246,859	3,704	241,453	123,316
247,874	3,550	241,293	123,100
248,888	3,703	241,338	123,234
249,903	3,682	241,105	123,088
250,917	3,648	241,110	123,052
251,932	4,056	240,872	123,247
252,947	4,019	240,626	123,080
253,961	3,597	240,344	122,587
254,976	3,652	240,365	122,631
255,990	3,850	240,214	122,701
257,005	3,399	240,036	122,240
258,020	3,376	239,717	122,048
259,034	3,466	239,584	122,041
260,049	3,873	239,611	122,368
261,063	3,461	239,445	121,945
262,078	3,388	239,264	121,784
263,093	3,743	239,157	122,000
264,107	3,645	238,911	121,786
265,122	3,604	238,698	121,634
266,136	3,747	238,602	121,688
267,151	4,004	238,609	121,884
268,166	3,799	238,187	121,495
269,180	3,335	238,201	121,125
270,195	3,958	238,153	121,582
271,209	4,140	237,964	121,618
272,224	3,614	237,605	121,010
273,239	3,598	237,319	120,840
274,253	3,489	237,267	120,717
275,268	3,606	237,276	120,804
276,282	3,904	237,019	120,896
277,297	3,551	236,793	120,493
278,312	3,395	236,760	120,342
279,326	3,772	236,629	120,561
280,341	3,673	236,552	120,434
281,355	3,841	236,342	120,448
282,370	3,955	236,222	120,465
283,384	3,392	236,106	119,954
284,399	3,396	235,743	119,762
285,414	3,481	235,586	119,738
286,428	3,627	235,559	119,828
287,443	3,795	235,468	119,902
288,457	3,834	235,261	119,817
289,472	3,954	235,198	119,867
290,487	3,480	235,039	119,406
291,501	3,540	234,797	119,319
292,516	3,465	234,573	119,137
293,530	3,230	234,336	118,823
294,545	3,674	234,313	119,146
295,560	3,669	234,222	119,085
296,574	3,326	233,883	118,636
297,589	3,456	233,902	118,736
298,603	3,794	233,718	118,893
299,618	3,935	233,615	118,939
300,633	3,738	233,663	118,800
301,647	4,047	233,506	118,949
302,662	3,922	233,395	118,785
303,676	4,145	233,231	118,864
304,691	4,002	232,926	118,587
305,706	4,013	232,875	118,560
306,720	4,188	232,765	118,627
307,735	3,783	232,668	118,255
308,749	3,900	232,285	118,141
309,764	3,448	232,189	117,733
310,779	3,265	231,954	117,464
311,793	3,319	231,796	117,415
312,808	3,361	231,603	117,338
313,822	3,406	231,510	117,316
314,837	3,423	231,213	117,167
315,852	3,420	231,215	117,156
316,866	3,647	231,055	117,237
317,881	3,934	231,027	117,433
318,895	3,814	230,917	117,274
319,910	4,149	230,728	117,423
320,925	3,847	230,516	117,075
321,939	3,498	230,319	116,699
322,954	3,666	230,241	116,776
323,968	3,493	230,056	116,541
324,983	3,681	229,963	116,626
325,997	4,018	229,865	116,822
327,012	3,839	229,645	116,564
328,027	3,612	229,408	116,261
329,041	3,696	229,447	116,334
330,056	4,010	229,442	116,559
331,070	4,405	229,311	116,782
332,085	4,252	229,030	116,512
333,100	3,905	229,016	116,232
334,114	3,859	228,803	116,079
335,129	3,911	228,568	115,989
336,143	4,078	228,387	116,012
337,158	4,026	228,415	115,977
338,173	4,098	228,113	115,868
339,187	3,970	227,777	115,590
340,202	3,808	227,911	115,526
341,216	3,879	227,736	115,481
342,231	3,810	227,587	115,343
343,246	3,607	227,423	115,097
344,260	3,759	227,327	115,153
345,275	3,834	227,288	115,179
346,289	4,034	227,034	115,189
347,304	4,167	226,957	115,240
348,319	4,199	226,727	115,136
349,333	3,797	226,636	114,780
350,348	3,694	226,313	114,529
351,362	3,900	226,262	114,647
352,377	3,868	226,059	114,510
353,392	3,597	225,877	114,206
354,406	3,390	225,790	113,998
355,421	194,042	1323,152	1395,337
356,435	155,464	1456,841	1395,330
