DTS Sentinel unit serial number:	SN410029Multiplexer serial number:	ORYXHardware model number:	OX2-SRSoftware version number:	ORYX F/W v4,00 Oryx Data Collector v3.7.2.0data status	okinstallation	B5 Nyhavnadifferential loss correction	single-endedforward channel	channel 2reverse channel	N/Adate	2023/12/14time	17:02:13forward acquisition time	300,00reverse acquisition time	0,00gamma	499,1914k internal	0,3158k external	0,3158temperature offset calibration	1,0000default loss term (dB/km)	0,3820temperature slope calibration	1,0000multiplexer offset coefficient	1,0000multiplexer slope coefficient	1,0000fibre end	0,00T internal ref (°C)	8,12T ext. ref 1 (°C)	-7,26T ext. ref 2 (°C)	-7,29length (m)	temperature (°C)	Stokes	anti-Stokes-744,400	-71,739	0,153	0,042
-743,385	-156,062	-0,175	-0,008
-742,371	455,360	0,104	0,171
-741,356	-88,444	-0,423	-0,092
-740,342	-41,760	0,166	0,062
-739,327	-82,473	-0,397	-0,094
-738,312	60,427	0,094	0,068
-737,298	-67,843	-0,433	-0,124
-736,283	281,330	0,099	0,131
-735,269	42,182	-0,281	-0,188
-734,254	145,152	0,152	0,150
-733,239	-18,349	-0,571	-0,262
-732,225	-58,526	0,363	0,115
-731,210	800,000	0,060	0,141
-730,196	392,168	-0,016	0,024
-729,181	-1,787	0,010	0,005
-728,167	-200,000	-0,008	0,043
-727,152	27,794	0,045	0,028
-726,137	-78,743	-0,131	-0,033
-725,123	48,333	-0,118	-0,081
-724,108	800,000	0,074	-0,169
-723,094	302,354	-0,110	-0,150
-722,079	-86,776	0,063	-0,014
-721,064	348,045	0,099	-0,144
-720,050	330,598	-0,101	-0,143
-719,035	712,680	0,026	-0,052
-718,021	-21,405	-0,109	-0,049
-717,006	-53,344	-0,139	0,047
-715,991	800,000	0,043	-0,106
-714,977	1,529	-0,196	-0,104
-713,962	-200,000	0,001	0,026
-712,948	-58,553	0,062	0,020
-711,933	-124,900	-0,100	-0,011
-710,918	270,401	-0,020	0,026
-709,904	341,208	-0,092	-0,133
-708,889	-200,000	0,000	-0,093
-707,875	180,177	-0,040	-0,043
-706,860	74,067	-0,057	0,044
-705,845	-200,000	-0,000	0,023
-704,831	168,334	0,042	0,044
-703,816	800,000	0,029	-0,082
-702,802	749,570	-0,019	-0,038
-701,787	-200,000	-0,000	-0,028
-700,772	-200,000	-0,018	0,074
-699,758	-200,000	-0,011	-0,232
-698,743	85,523	-0,081	-0,065
-697,729	800,000	0,027	0,059
-696,714	42,587	-0,028	-0,019
-695,699	-200,000	-0,013	-0,068
-694,685	169,125	-0,086	-0,091
-693,670	26,070	0,061	0,038
-692,656	-200,000	0,023	-0,087
-691,641	-96,799	0,174	-0,033
-690,627	800,000	0,073	0,156
-689,612	75,281	-0,062	0,048
-688,597	261,712	0,096	0,123
-687,583	2,110	-0,116	-0,062
-686,568	42,861	-0,049	-0,033
-685,554	404,290	-0,029	-0,045
-684,539	-71,726	-0,050	-0,014
-683,524	196,588	-0,058	-0,065
-682,510	43,759	-0,015	0,010
-681,495	800,000	0,014	-0,044
-680,481	-200,000	0,005	0,021
-679,466	154,581	0,058	-0,059
-678,451	6,112	-0,017	0,009
-677,437	263,434	0,064	0,081
-676,422	800,000	-0,038	0,098
-675,408	93,865	0,045	0,038
-674,393	-200,000	-0,008	-0,071
-673,378	-185,007	-0,016	0,000
-672,364	-19,682	0,038	-0,017
-671,349	210,253	-0,103	0,119
-670,335	-200,000	-0,010	-0,110
-669,320	330,170	0,052	0,074
-668,305	-171,479	-0,105	-0,003
-667,291	-200,000	0,007	-0,033
-666,276	800,000	-0,052	-0,110
-665,262	-47,044	0,120	0,043
-664,247	526,775	-0,018	0,032
-663,232	-200,000	0,022	0,071
-662,218	92,281	-0,102	0,085
-661,203	-36,341	0,099	0,039
-660,189	739,255	-0,041	-0,081
-659,174	-200,000	-0,023	-0,099
-658,159	129,086	-0,121	-0,113
-657,145	800,000	0,042	-0,126
-656,130	415,879	0,035	0,054
-655,116	-33,697	0,073	0,029
-654,101	800,000	-0,062	0,165
-653,086	-83,738	-0,043	0,010
-652,072	267,136	0,084	0,108
-651,057	-200,000	-0,024	0,115
-650,043	-57,797	0,034	0,011
-649,028	27,436	-0,039	-0,024
-648,014	-133,971	0,038	-0,003
-646,999	258,622	-0,060	0,076
-645,984	-77,067	0,042	0,011
-644,970	623,304	0,022	0,041
-643,955	-200,000	-0,008	-0,077
-642,941	121,027	-0,111	-0,101
-641,926	-200,000	0,015	-0,054
-640,911	3,728	0,077	0,041
-639,897	255,911	-0,050	0,064
-638,882	800,000	0,020	-0,062
-637,868	-200,000	-0,009	-0,087
-636,853	559,759	-0,044	-0,079
-635,838	655,599	0,043	-0,082
-634,824	41,300	-0,209	-0,139
-633,809	22,096	-0,061	0,037
-632,795	-6,226	0,087	-0,043
-631,780	-148,015	-0,155	-0,009
-630,765	448,624	0,046	0,075
-629,751	14,124	0,065	0,037
-628,736	-128,146	-0,131	0,014
-627,722	800,000	0,065	-0,161
-626,707	800,000	0,008	0,019
-625,692	-200,000	-0,022	0,143
-624,678	-24,432	-0,121	0,053
-623,663	-19,168	-0,047	0,021
-622,649	-24,177	0,052	-0,022
-621,634	671,438	0,047	0,090
-620,619	182,566	-0,119	-0,129
-619,605	-60,087	0,123	0,038
-618,590	-200,000	-0,014	0,076
-617,576	-75,213	-0,035	-0,009
-616,561	61,093	-0,059	-0,043
-615,546	375,293	0,058	-0,086
-614,532	-159,063	-0,105	0,004
-613,517	242,754	-0,048	-0,059
-612,503	-157,301	0,065	-0,003
-611,488	251,187	0,085	0,106
-610,474	377,258	0,015	0,023
-609,459	-200,000	-0,005	-0,032
-608,444	-200,000	0,010	0,086
-607,430	-9,591	-0,043	-0,021
-606,415	-87,010	-0,139	-0,031
-605,401	0,548	-0,026	0,014
-604,386	-12,253	0,041	-0,020
-603,371	-70,786	0,019	-0,005
-602,357	480,100	-0,041	0,068
-601,342	7,107	-0,062	-0,034
-600,328	-34,571	-0,098	-0,039
-599,313	-200,000	0,021	-0,110
-598,298	-147,356	-0,043	-0,003
-597,284	-44,461	0,176	0,064
-596,269	-61,254	-0,061	-0,019
-595,255	57,673	-0,082	0,059
-594,240	-200,000	0,027	-0,117
-593,225	800,000	-0,019	-0,053
-592,211	-92,026	-0,096	-0,020
-591,196	37,793	-0,162	0,105
-590,182	800,000	0,062	-0,131
-589,167	665,425	0,062	0,119
-588,152	358,257	-0,040	-0,059
-587,138	800,000	-0,034	-0,071
-586,123	-200,000	-0,009	-0,063
-585,109	-200,000	0,018	-0,071
-584,094	-200,000	-0,055	-0,201
-583,079	-200,000	0,013	0,053
-582,065	-109,469	0,112	0,017
-581,050	-200,000	0,038	0,151
-580,036	248,979	-0,012	0,015
-579,021	-200,000	0,027	-0,179
-578,006	113,088	-0,019	0,017
-576,992	-145,924	0,170	0,011
-575,977	-112,179	-0,045	-0,007
-574,963	296,795	0,036	-0,049
-573,948	-200,000	0,025	-0,112
-572,934	5,855	-0,099	0,054
-571,919	216,533	-0,097	-0,113
-570,904	-200,000	-0,018	0,114
-569,890	800,000	0,023	0,072
-568,875	-73,695	0,096	-0,026
-567,861	-200,000	0,003	-0,025
-566,846	-94,167	0,043	0,009
-565,831	-200,000	0,002	-0,126
-564,817	-79,107	0,140	-0,034
-563,802	-99,369	-0,121	0,022
-562,788	623,230	-0,017	0,032
-561,773	-200,000	-0,007	-0,077
-560,758	355,921	-0,013	-0,019
-559,744	41,787	-0,034	0,022
-558,729	-110,108	0,104	-0,016
-557,715	162,724	-0,050	0,052
-556,700	-200,000	0,035	-0,125
-555,685	800,000	-0,021	0,056
-554,671	88,019	-0,023	0,018
-553,656	-200,000	0,001	0,093
-552,642	-163,222	0,179	-0,006
-551,627	288,702	0,024	-0,031
-550,612	449,579	-0,079	-0,127
-549,598	-200,000	0,005	-0,040
-548,583	518,220	0,040	0,070
-547,569	-200,000	0,004	0,058
-546,554	329,603	0,071	0,100
-545,539	164,375	0,090	-0,093
-544,525	23,969	-0,081	-0,049
-543,510	-11,079	0,071	0,034
-542,496	425,277	-0,066	-0,104
-541,481	800,000	-0,049	0,099
-540,466	254,035	0,082	0,103
-539,452	-141,805	-0,019	0,001
-538,437	-96,965	0,005	-0,001
-537,423	-200,000	0,026	0,150
-536,408	-42,390	0,024	-0,009
-535,393	555,524	-0,079	-0,140
-534,379	800,000	-0,042	-0,134
-533,364	-87,010	-0,059	-0,013
-532,350	-87,689	0,134	-0,029
-531,335	-21,795	0,194	0,086
-530,321	-200,000	0,001	0,012
-529,306	-200,000	0,002	-0,034
-528,291	251,094	0,053	-0,066
-527,277	-74,218	0,071	-0,019
-526,262	-51,650	-0,077	-0,026
-525,248	125,001	-0,077	0,071
-524,233	800,000	-0,047	0,104
-523,218	-200,000	-0,013	-0,080
-522,204	800,000	0,023	0,053
-521,189	-200,000	-0,009	0,030
-520,175	-200,000	0,039	0,178
-519,160	39,955	0,035	-0,023
-518,145	-103,849	0,122	-0,021
-517,131	61,632	0,048	-0,035
-516,116	230,618	-0,053	0,063
-515,102	-59,989	-0,130	0,040
-514,087	-127,990	0,023	0,002
-513,072	-200,000	-0,012	-0,222
-512,058	296,128	0,103	0,138
-511,043	-17,860	0,126	0,057
-510,029	-94,480	0,045	0,009
-509,014	-105,432	0,068	0,011
-507,999	-200,000	-0,010	0,173
-506,985	226,778	0,043	-0,051
-505,970	47,346	0,078	-0,053
-504,956	240,945	-0,083	-0,102
-503,941	44,460	0,074	0,050
-502,926	180,690	-0,063	0,068
-501,912	800,000	0,043	-0,121
-500,897	336,095	-0,054	-0,077
-499,883	43,204	-0,086	0,057
-498,868	800,000	0,035	0,098
-497,853	28,687	-0,042	-0,026
-496,839	320,128	0,057	-0,080
-495,824	90,215	-0,032	-0,026
-494,810	115,377	0,100	0,089
-493,795	-3,331	-0,095	0,048
-492,781	6,719	0,065	-0,035
-491,766	-200,000	0,038	-0,167
-490,751	52,237	-0,100	-0,069
-489,737	140,037	0,110	0,106
-488,722	-112,254	0,096	0,014
-487,708	-73,513	-0,055	0,015
-486,693	-200,000	-0,007	-0,077
-485,678	209,434	-0,137	0,157
-484,664	656,148	0,050	-0,093
-483,649	800,000	0,027	-0,069
-482,635	-21,026	0,099	-0,044
-481,620	-200,000	0,021	0,077
-480,605	79,567	-0,052	0,040
-479,591	-20,114	0,036	-0,016
-478,576	-198,614	0,199	-0,001
-477,562	179,274	-0,119	-0,127
-476,547	332,044	-0,066	0,093
-475,532	0,014	-0,048	0,025
-474,518	4,852	0,138	0,074
-473,503	144,521	0,054	0,053
-472,489	257,853	0,074	0,093
-471,474	-200,000	0,028	0,130
-470,459	60,980	-0,073	0,053
-469,445	800,000	-0,045	-0,095
-468,430	-200,000	-0,021	-0,069
-467,416	-135,718	0,063	0,005
-466,401	-123,486	0,151	-0,017
-465,386	-102,312	0,068	0,012
-464,372	784,453	-0,071	0,143
-463,357	-131,156	-0,080	0,008
-462,343	-33,392	-0,035	0,014
-461,328	564,762	0,024	-0,042
-460,313	-186,459	-0,014	-0,000
-459,299	-99,690	0,121	-0,022
-458,284	0,158	-0,065	-0,034
-457,270	-200,000	0,015	0,108
-456,255	-200,000	0,009	0,035
-455,241	-46,941	-0,088	-0,031
-454,226	244,019	0,066	0,081
-453,211	170,034	0,050	0,053
-452,197	307,828	0,090	0,123
-451,182	-200,000	0,009	0,037
-450,168	-200,000	0,015	-0,088
-449,153	800,000	0,054	0,154
-448,138	-200,000	-0,007	-0,053
-447,124	-9,823	0,146	0,070
-446,109	37,686	-0,057	0,037
-445,095	800,000	-0,027	-0,076
-444,080	172,407	0,014	0,014
-443,065	11,233	-0,095	0,053
-442,051	-62,238	0,106	-0,032
-441,036	90,202	-0,099	-0,081
-440,022	97,908	0,074	0,062
-439,007	104,173	-0,121	-0,104
-437,992	-67,014	0,024	0,007
-436,978	-49,014	0,098	0,034
-435,963	-200,000	-0,000	-0,074
-434,949	800,000	0,035	-0,079
-433,934	-11,827	0,097	-0,046
-432,919	214,960	-0,117	-0,135
-431,905	15,860	0,044	0,025
-430,890	-173,420	-0,049	0,001
-429,876	321,537	0,043	0,060
-428,861	237,652	-0,050	0,061
-427,846	-28,067	-0,001	0,001
-426,832	678,587	-0,035	0,066
-425,817	-200,000	-0,010	0,068
-424,803	800,000	-0,037	-0,090
-423,788	32,407	0,043	-0,027
-422,773	-117,846	0,271	0,035
-421,759	748,766	0,028	0,056
-420,744	-135,051	-0,090	0,008
-419,730	-142,134	-0,061	-0,004
-418,715	0,749	0,017	0,009
-417,701	97,907	0,045	-0,038
-416,686	800,000	-0,036	-0,086
-415,671	403,571	0,092	-0,142
-414,657	-69,635	-0,020	-0,005
-413,642	-200,000	0,006	-0,052
-412,628	-116,794	-0,079	0,010
-411,613	-191,933	-0,193	-0,001
-410,598	-122,615	0,058	0,007
-409,584	136,579	-0,070	-0,066
-408,569	123,435	0,124	-0,113
-407,555	-158,846	-0,042	0,002
-406,540	-33,947	0,154	-0,062
-405,525	-52,920	-0,061	-0,020
-404,511	-156,850	-0,113	0,005
-403,496	97,420	0,150	-0,125
-402,482	-79,551	0,040	0,010
-401,467	-200,000	-0,011	-0,086
-400,452	-200,000	-0,010	-0,035
-399,438	68,187	0,028	-0,021
-398,423	-200,000	-0,010	-0,050
-397,409	-118,262	-0,196	0,025
-396,394	61,222	-0,096	0,069
-395,379	-28,452	0,088	0,037
-394,365	800,000	0,036	0,095
-393,350	-62,679	-0,086	0,026
-392,336	13,828	0,066	0,037
-391,321	-37,668	-0,060	0,023
-390,306	677,562	0,010	0,019
-389,292	318,543	-0,092	-0,127
-388,277	-27,795	-0,173	0,073
-387,263	173,020	-0,031	0,033
-386,248	-111,492	-0,096	-0,014
-385,233	-124,567	-0,155	0,017
-384,219	-100,922	-0,176	0,031
-383,204	156,052	-0,062	-0,062
-382,190	96,676	0,084	-0,070
-381,175	-200,000	0,015	0,189
-380,160	-200,000	-0,028	0,090
-379,146	-29,037	0,091	0,038
-378,131	292,697	0,051	-0,067
-377,117	800,000	-0,058	-0,137
-376,102	-43,837	-0,066	0,024
-375,088	800,000	-0,055	-0,121
-374,073	63,422	-0,069	-0,050
-373,058	-200,000	0,003	0,102
-372,044	-200,000	0,010	0,061
-371,029	-63,215	0,041	-0,012
-370,015	-161,931	-0,114	-0,004
-369,000	-87,127	0,040	-0,009
-367,985	800,000	-0,023	0,062
-366,971	-36,108	-0,095	0,037
-365,956	800,000	0,027	0,063
-364,942	54,166	-0,090	0,063
-363,927	-200,000	0,006	-0,113
-362,912	679,048	-0,015	-0,028
-361,898	-85,537	-0,130	0,029
-360,883	800,000	-0,023	-0,053
-359,869	-200,000	0,003	0,122
-358,854	664,654	-0,042	0,079
-357,839	-123,926	0,116	0,013
-356,825	800,000	0,024	0,068
-355,810	1,628	-0,063	-0,033
-354,796	277,056	0,093	0,120
-353,781	-106,911	0,056	-0,009
-352,766	222,798	0,031	0,036
-351,752	150,532	-0,064	0,063
-350,737	297,192	0,082	0,109
-349,723	-200,000	-0,037	0,146
-348,708	-115,897	0,161	-0,022
-347,693	259,884	-0,079	-0,100
-346,679	-51,824	-0,033	-0,011
-345,664	-171,748	-0,059	0,001
-344,650	-200,000	-0,007	-0,216
-343,635	-10,084	0,158	0,076
-342,620	-200,000	0,028	0,177
-341,606	-200,000	-0,004	-0,022
-340,591	-70,837	-0,080	-0,022
-339,577	227,510	-0,004	-0,005
-338,562	-65,816	-0,127	0,037
-337,548	-52,190	0,116	-0,039
-336,533	-103,382	-0,085	0,014
-335,518	166,179	0,056	-0,057
-334,504	60,471	-0,032	-0,023
-333,489	51,959	0,096	-0,066
-332,475	-36,500	-0,121	0,047
-331,460	-75,055	-0,067	-0,017
-330,445	244,906	0,027	-0,033
-329,431	-200,000	0,023	0,129
-328,416	620,196	0,025	0,046
-327,402	235,758	0,050	0,060
-326,387	-200,000	0,008	0,148
-325,372	-88,424	-0,125	-0,027
-324,358	-166,584	0,189	0,006
-323,343	-102,588	0,053	0,009
-322,329	-200,000	-0,001	-0,233
-321,314	-98,516	0,130	-0,024
-320,299	-66,754	-0,176	-0,050
-319,285	-200,000	0,009	0,047
-318,270	-200,000	0,031	-0,116
-317,256	800,000	-0,044	-0,121
-316,241	416,576	0,046	-0,071
-315,226	125,104	0,043	-0,039
-314,212	-200,000	0,017	-0,149
-313,197	-200,000	0,002	0,147
-312,183	-57,618	-0,022	-0,007
-311,168	70,726	-0,028	0,021
-310,153	136,446	-0,042	-0,040
-309,139	800,000	0,053	-0,126
-308,124	-200,000	-0,013	0,061
-307,110	-125,303	0,023	0,002
-306,095	800,000	0,041	0,094
-305,080	-18,175	-0,177	-0,080
-304,066	-200,000	0,003	0,091
-303,051	-200,000	-0,047	-0,159
-302,037	-82,225	0,090	0,021
-301,022	-60,251	0,092	0,028
-300,008	57,918	0,088	-0,062
-298,993	527,769	0,015	0,025
-297,978	-92,600	-0,045	-0,009
-296,964	800,000	-0,010	-0,023
-295,949	-200,000	-0,004	0,074
-294,935	-200,000	0,007	0,117
-293,920	792,244	-0,014	-0,029
-292,905	-176,698	0,180	-0,003
-291,891	403,244	-0,054	0,082
-290,876	-200,000	-0,008	0,060
-289,862	86,599	-0,092	-0,074
-288,847	162,648	-0,079	-0,081
-287,832	-145,343	0,088	0,006
-286,818	16,047	-0,131	0,074
-285,803	305,744	0,100	0,135
-284,789	54,027	-0,048	0,033
-283,774	800,000	0,067	-0,199
-282,759	-58,542	-0,156	-0,049
-281,745	-200,000	-0,007	0,110
-280,730	800,000	0,026	-0,065
-279,716	-200,000	0,004	0,093
-278,701	-0,102	-0,003	-0,002
-277,686	41,855	0,012	0,008
-276,672	30,480	-0,066	0,041
-275,657	-200,000	-0,017	0,124
-274,643	-37,954	-0,133	0,051
-273,628	-200,000	-0,004	-0,142
-272,613	25,341	-0,143	0,086
-271,599	69,762	0,132	0,099
-270,584	363,943	0,086	0,125
-269,570	-200,000	0,000	0,049
-268,555	736,725	0,041	0,079
-267,540	-58,833	0,067	0,021
-266,526	80,983	0,035	-0,027
-265,511	580,205	0,092	-0,163
-264,497	800,000	-0,063	0,129
-263,482	18,742	0,142	0,082
-262,467	-0,610	0,028	0,015
-261,453	-73,602	-0,197	0,052
-260,438	-98,775	-0,050	-0,009
-259,424	800,000	-0,032	0,070
-258,409	-59,358	0,079	-0,024
-257,395	-200,000	0,009	0,091
-256,380	312,668	0,043	0,059
-255,365	236,296	0,027	0,033
-254,351	170,667	0,059	0,061
-253,336	-127,251	0,121	0,013
-252,322	-200,000	-0,007	-0,098
-251,307	-200,000	-0,026	-0,083
-250,292	-200,000	0,018	-0,086
-249,278	-48,997	0,034	0,012
-248,263	-42,484	0,097	-0,036
-247,249	280,509	-0,043	0,056
-246,234	-200,000	-0,015	0,057
-245,219	-53,168	-0,017	-0,006
-244,205	187,878	-0,051	-0,056
-243,190	-181,032	-0,041	-0,001
-242,176	489,615	0,033	0,054
-241,161	379,191	-0,026	0,039
-240,146	-151,671	0,015	-0,001
-239,132	194,731	0,030	-0,032
-238,117	401,424	-0,130	-0,198
-237,103	122,785	0,116	-0,105
-236,088	-89,139	-0,157	-0,033
-235,073	-32,250	0,080	-0,032
-234,059	-42,491	0,133	-0,049
-233,044	501,525	-0,018	0,031
-232,030	377,390	0,025	0,038
-231,015	-53,379	0,082	0,027
-230,000	605,583	0,044	-0,079
-228,986	-200,000	0,025	-0,167
-227,971	58,812	0,094	-0,066
-226,957	800,000	0,018	0,056
-225,942	-200,000	-0,007	0,053
-224,927	-200,000	-0,015	-0,090
-223,913	-200,000	0,001	0,047
-222,898	59,166	0,038	-0,027
-221,884	181,274	-0,025	-0,027
-220,869	-41,722	0,116	0,043
-219,855	-200,000	0,003	-0,033
-218,840	800,000	0,086	0,181
-217,825	-29,880	-0,051	0,021
-216,811	-115,913	-0,052	-0,007
-215,796	-106,977	-0,111	0,018
-214,782	800,000	-0,054	-0,153
-213,767	52,258	-0,031	0,022
-212,752	75,609	0,070	0,054
-211,738	143,805	0,122	0,117
-210,723	27,041	-0,169	0,102
-209,709	-200,000	0,078	-0,260
-208,694	43,507	0,033	-0,022
-207,679	-47,873	-0,073	-0,025
-206,665	-20,311	0,079	-0,035
-205,650	-200,000	-0,001	0,068
-204,636	-117,633	0,055	0,007
-203,621	-41,500	-0,017	-0,006
-202,606	-0,554	0,087	-0,045
-201,592	800,000	-0,043	-0,087
-200,577	261,408	0,123	-0,154
-199,563	-200,000	-0,005	0,058
-198,548	-200,000	0,015	0,068
-197,533	405,869	-0,017	0,027
-196,519	-22,734	-0,045	0,020
-195,504	115,585	-0,113	0,099
-194,490	-117,074	0,040	0,005
-193,475	327,547	-0,019	0,027
-192,460	-0,594	0,027	-0,014
-191,446	-200,000	-0,012	-0,139
-190,431	195,733	0,112	0,123
-189,417	-200,000	-0,009	0,163
-188,402	800,000	-0,035	0,086
-187,387	-200,000	-0,029	-0,095
-186,373	-23,451	-0,065	0,028
-185,358	-200,000	-0,002	-0,107
-184,344	-69,931	0,165	0,045
-183,329	-200,000	-0,004	-0,028
-182,315	286,470	-0,060	0,079
-181,300	181,910	0,013	-0,014
-180,285	-158,021	-0,170	0,007
-179,271	-200,000	-0,022	-0,105
-178,256	159,305	0,033	0,033
-177,242	-103,345	0,019	-0,003
-176,227	-89,125	-0,075	-0,016
-175,212	-7,307	-0,053	0,026
-174,198	-121,485	-0,124	0,015
-173,183	-200,000	0,021	-0,137
-172,169	78,206	-0,089	0,068
-171,154	-200,000	-0,003	-0,020
-170,139	-94,206	-0,059	0,012
-169,125	61,817	-0,084	-0,060
-168,110	800,000	0,079	0,158
-167,096	800,000	-0,035	0,081
-166,081	-200,000	-0,021	0,075
-165,066	142,716	0,095	0,091
-164,052	-200,000	-0,007	0,146
-163,037	-200,000	-0,006	0,080
-162,023	800,000	0,052	0,146
-161,008	-200,000	-0,038	-0,126
-159,993	-200,000	0,003	-0,142
-158,979	-200,000	-0,016	-0,093
-157,964	-73,663	-0,053	-0,014
-156,950	188,604	0,043	-0,047
-155,935	137,916	-0,057	-0,054
-154,920	283,441	0,043	0,055
-153,906	-200,000	-0,007	0,038
-152,891	176,593	-0,089	-0,093
-151,877	-69,405	0,068	0,019
-150,862	-37,427	0,050	-0,019
-149,847	-200,000	0,015	0,091
-148,833	-200,000	0,030	-0,239
-147,818	-200,000	0,198	-0,001
-146,804	-200,000	-0,007	0,059
-145,789	707,400	-0,036	-0,069
-144,775	21,422	-0,132	0,077
-143,760	112,194	0,069	-0,060
-142,745	0,675	-0,027	-0,014
-141,731	800,000	-0,064	0,167
-140,716	376,711	0,019	-0,028
-139,702	800,000	-0,027	0,062
-138,687	-35,865	-0,100	-0,039
-137,672	51,886	-0,026	0,018
-136,658	164,349	-0,108	-0,110
-135,643	-200,000	0,021	-0,067
-134,629	-200,000	-0,009	0,180
-133,614	32,468	-0,013	-0,008
-132,599	-102,899	0,142	0,024
-131,585	-200,000	-0,014	-0,097
-130,570	408,084	-0,027	-0,041
-129,556	15,947	-0,120	-0,068
-128,541	-140,005	-0,152	-0,011
-127,526	-63,211	-0,137	-0,040
-126,512	-101,032	-0,077	-0,013
-125,497	-52,164	0,038	0,012
-124,483	-152,544	-0,087	0,004
-123,468	136,231	0,045	0,043
-122,453	-200,000	0,002	-0,113
-121,439	583,904	-0,064	0,113
-120,424	261,120	0,015	0,019
-119,410	-200,000	0,020	0,162
-118,395	128,638	-0,035	0,032
-117,380	401,218	0,081	0,123
-116,366	-16,508	0,052	-0,024
-115,351	167,272	-0,033	-0,033
-114,337	800,000	0,035	-0,106
-113,322	-44,336	-0,141	0,051
-112,307	11,019	0,034	-0,018
-111,293	-163,641	0,148	0,005
-110,278	274,956	0,113	0,145
-109,264	57,704	-0,066	-0,047
-108,249	800,000	-0,038	0,079
-107,234	27,052	-0,075	-0,045
-106,220	-46,024	-0,013	0,005
-105,205	800,000	0,053	0,119
-104,191	-18,912	0,101	0,045
-103,176	8,320	0,038	-0,020
-102,162	-200,000	0,019	-0,067
-101,147	682,227	-0,015	-0,029
-100,132	-200,000	0,006	-0,150
-99,118	-200,000	-0,015	0,070
-98,103	800,000	0,046	0,117
-97,089	-200,000	-0,006	0,026
-96,074	178,316	0,110	0,115
-95,059	7,557	0,057	-0,031
-94,045	54,371	0,027	-0,019
-93,030	-200,000	-0,052	-0,227
-92,016	534,974	0,043	-0,074
-91,001	-200,000	0,023	0,090
-89,986	800,000	0,039	0,113
-88,972	-200,000	0,004	-0,015
-87,957	114,624	0,096	-0,084
-86,943	414,678	-0,059	0,090
-85,928	-45,112	-0,047	0,017
-84,913	-16,230	0,037	0,017
-83,899	800,000	-0,028	-0,088
-82,884	-200,000	0,000	-0,052
-81,870	-1,454	0,125	-0,063
-80,855	800,000	-0,029	-0,090
-79,840	-43,888	0,087	-0,031
-78,826	-200,000	0,021	-0,155
-77,811	468,300	0,047	-0,076
-76,797	-170,044	-0,236	0,006
-75,782	-75,050	0,095	-0,024
-74,767	-200,000	0,013	0,118
-73,753	71,483	0,046	-0,034
-72,738	-169,172	0,197	0,005
-71,724	130,344	-0,047	0,043
-70,709	36,694	-0,052	-0,033
-69,694	-112,936	0,144	-0,020
-68,680	-200,000	0,008	-0,069
-67,665	102,060	-0,015	0,013
-66,651	-86,903	-0,064	-0,014
-65,636	315,757	0,049	0,066
-64,622	39,131	-0,042	0,027
-63,607	-74,784	0,092	-0,024
-62,592	6,391	0,035	-0,018
-61,578	343,529	-0,062	-0,088
-60,563	-200,000	0,006	0,145
-59,549	-106,250	-0,056	-0,009
-58,534	81,604	-2,689	-2,087
-57,519	-21,373	0,331	-0,145
-56,505	-200,000	-1,630	-5,522
-55,490	551,424	1,211	2,094
-54,476	800,000	5,279	11,164
-53,461	-200,000	22,240	346,733
-52,446	800,000	760,501	2301,967
-51,432	515,797	1648,156	2773,649
-50,417	99,545	1612,060	1338,169
-49,403	67,966	1268,402	930,074
-48,388	23,760	1018,768	600,751
-47,373	19,160	985,664	566,031
-46,359	12,982	972,851	538,428
-45,344	8,815	969,506	522,897
-44,330	9,235	967,374	523,102
-43,315	8,320	965,416	519,031
-42,300	8,164	964,586	518,054
-41,286	8,193	963,534	517,563
-40,271	8,184	962,464	516,938
-39,257	8,134	961,686	516,337
-38,242	8,115	960,810	515,784
-37,227	8,152	960,037	515,470
-36,213	8,176	959,132	515,042
-35,198	8,139	958,458	514,539
-34,184	8,225	957,391	514,225
-33,169	8,121	956,652	513,471
-32,154	8,192	955,885	513,269
-31,140	8,178	954,865	512,655
-30,125	8,222	954,051	512,341
-29,111	8,192	953,238	511,787
-28,096	8,163	952,739	511,405
-27,082	8,158	951,897	510,916
-26,067	8,154	951,257	510,540
-25,052	8,105	950,453	509,930
-24,038	8,135	949,741	509,624
-23,023	8,081	949,216	509,148
-22,009	8,192	948,625	509,168
-20,994	8,223	947,904	508,859
-19,979	8,270	947,067	508,542
-18,965	8,114	946,602	507,770
-17,950	8,191	945,903	507,621
-16,936	8,136	945,375	507,144
-15,921	8,075	944,651	506,539
-14,906	8,018	944,015	505,997
-13,892	8,067	943,367	505,784
-12,877	7,983	942,810	505,198
-11,863	7,986	942,104	504,810
-10,848	8,117	941,569	504,919
-9,833	8,114	941,088	504,634
-8,819	8,086	940,293	504,096
-7,804	8,035	940,018	503,767
-6,790	8,061	939,206	503,394
-5,775	8,091	938,674	503,186
-4,760	8,041	938,188	502,746
-3,746	8,097	937,391	502,476
-2,731	7,960	936,773	501,691
-1,717	7,919	936,126	501,196
-0,702	7,883	935,434	500,692
0,313	7,678	934,995	500,565
1,327	11,302	932,438	510,584
2,342	20,207	781,039	451,042
3,356	15,280	449,148	251,925
4,371	-10,849	313,285	147,880
5,386	-14,522	295,768	135,875
6,400	-16,724	289,718	130,897
7,415	-17,096	287,038	129,308
8,429	-17,975	285,149	127,586
9,444	-17,884	284,155	127,219
10,459	-17,859	283,497	126,937
11,473	-17,970	283,101	126,640
12,488	-17,962	282,561	126,396
13,502	-17,917	282,083	126,214
14,517	-17,849	281,610	126,057
15,531	-17,975	281,031	125,665
16,546	-17,893	280,653	125,563
17,561	-18,011	280,354	125,305
18,575	-17,943	280,031	125,215
19,590	-18,119	279,629	124,855
20,604	-18,038	279,457	124,845
21,619	-18,019	279,012	124,653
22,634	-17,951	278,748	124,589
23,648	-17,929	278,301	124,399
24,663	-17,964	278,252	124,332
25,677	-17,954	277,863	124,157
26,692	-17,967	277,641	124,035
27,707	-17,815	277,403	124,061
28,721	-17,954	277,010	123,743
29,736	-17,854	276,658	123,670
30,750	-17,994	276,452	123,434
31,765	-17,820	276,057	123,411
32,780	-17,800	276,065	123,423
33,794	-17,981	275,806	123,125
34,809	-17,897	275,538	123,073
35,823	-17,957	275,304	122,902
36,838	-17,952	274,853	122,694
37,853	-17,871	274,597	122,644
38,867	-17,823	274,436	122,607
39,882	-18,182	274,221	122,163
40,896	-17,786	273,903	122,382
41,911	-17,918	273,913	122,252
42,926	-17,884	273,502	122,089
43,940	-17,959	273,220	121,882
44,955	-18,111	273,041	121,650
45,969	-17,877	272,842	121,768
46,984	-18,007	272,636	121,544
47,999	-17,876	272,444	121,569
49,013	-17,909	272,360	121,491
50,028	-17,686	272,010	121,532
51,042	-17,919	271,778	121,200
52,057	-17,674	271,489	121,288
53,071	-17,764	271,323	121,120
54,086	-17,780	270,911	120,910
55,101	-17,643	270,820	120,985
56,115	-17,993	270,532	120,522
57,130	-17,849	270,222	120,506
58,144	-17,850	269,827	120,319
59,159	-17,781	269,703	120,317
60,174	-17,845	269,616	120,208
61,188	-17,890	269,297	120,014
62,203	-17,891	269,075	119,903
63,217	-17,775	269,022	119,975
64,232	-17,793	268,650	119,782
65,247	-17,800	268,289	119,604
66,261	-17,871	268,085	119,437
67,276	-17,750	267,998	119,499
68,290	-17,891	267,877	119,305
69,305	-17,839	267,541	119,193
70,320	-17,740	267,303	119,166
71,334	-17,603	267,016	119,152
72,349	-17,997	266,759	118,668
73,363	-17,805	266,515	118,724
74,378	-18,030	266,370	118,444
75,393	-17,903	266,122	118,439
76,407	-17,761	265,788	118,408
77,422	-17,845	265,848	118,348
78,436	-17,899	265,563	118,162
79,451	-17,614	265,247	118,268
80,466	-17,954	264,994	117,838
81,480	-17,948	264,845	117,766
82,495	-17,786	264,615	117,800
83,509	-17,873	264,570	117,690
84,524	-17,780	264,230	117,613
85,539	-17,651	263,957	117,597
86,553	-17,838	263,734	117,319
87,568	-17,817	263,465	117,207
88,582	-17,888	263,359	117,086
89,597	-17,945	263,129	116,923
90,611	-17,817	262,946	116,946
91,626	-17,744	262,750	116,913
92,641	-17,958	262,592	116,641
93,655	-17,868	262,424	116,637
94,670	-17,790	262,035	116,523
95,684	-17,862	261,980	116,423
96,699	-17,767	261,634	116,344
97,714	-17,814	261,744	116,340
98,728	-17,660	261,280	116,261
99,743	-17,766	261,168	116,107
100,757	-17,633	260,946	116,116
101,772	-17,574	260,623	116,015
102,787	-17,905	260,380	115,602
103,801	-17,778	260,156	115,605
104,816	-17,638	260,103	115,695
105,830	-17,639	259,816	115,556
106,845	-17,745	259,677	115,390
107,860	-17,812	259,452	115,221
108,874	-17,717	259,219	115,191
109,889	-17,851	259,026	114,977
110,903	-17,793	258,735	114,888
111,918	-17,731	258,745	114,937
112,933	-17,535	258,331	114,915
113,947	-17,482	258,203	114,895
114,962	-17,835	257,914	114,446
115,976	-17,876	257,889	114,389
116,991	-17,739	257,476	114,316
118,006	-18,016	257,473	114,062
119,020	-17,625	257,327	114,329
120,035	-17,746	257,246	114,176
121,049	-17,873	256,992	113,943
122,064	-17,763	256,737	113,915
123,079	-17,889	256,660	113,761
124,093	-17,840	256,419	113,687
125,108	-17,833	256,268	113,616
126,122	-17,698	255,955	113,585
127,137	-17,669	255,752	113,510
128,151	-17,744	255,781	113,447
129,166	-17,655	255,237	113,273
130,181	-17,565	255,226	113,336
131,195	-17,776	255,048	113,064
132,210	-17,615	254,777	113,073
133,224	-17,700	254,468	112,852
134,239	-17,764	254,312	112,718
135,254	-17,694	254,189	112,714
136,268	-17,549	253,926	112,712
137,283	-17,733	253,741	112,461
138,297	-17,578	253,687	112,561
139,312	-17,707	253,376	112,302
140,327	-17,613	253,009	112,210
141,341	-17,896	253,042	111,972
142,356	-17,755	252,763	111,960
143,370	-17,656	252,610	111,966
144,385	-17,669	252,500	111,896
145,400	-17,517	252,049	111,816
146,414	-17,647	251,884	111,622
147,429	-17,674	251,748	111,529
148,443	-17,617	251,673	111,535
149,458	-17,737	251,436	111,317
150,473	-17,622	251,217	111,309
151,487	-17,601	251,151	111,287
152,502	-17,647	250,783	111,075
153,516	-17,773	250,409	110,792
154,531	-17,706	250,353	110,815
155,546	-17,550	250,250	110,891
156,560	-17,640	250,121	110,748
157,575	-17,669	249,914	110,622
158,589	-17,542	249,579	110,571
159,604	-17,597	249,518	110,488
160,619	-17,686	249,356	110,331
161,633	-17,884	249,135	110,056
162,648	-17,812	249,243	110,156
163,662	-17,781	248,941	110,038
164,677	-17,676	248,756	110,035
165,692	-17,644	248,528	109,951
166,706	-17,698	248,286	109,789
167,721	-17,769	248,101	109,637
168,735	-17,754	247,971	109,583
169,750	-17,740	247,763	109,493
170,764	-17,627	247,761	109,577
171,779	-17,741	247,730	109,458
172,794	-17,715	247,399	109,324
173,808	-17,550	247,287	109,403
174,823	-17,609	246,997	109,215
175,837	-17,403	246,746	109,267
176,852	-17,585	246,628	109,053
177,867	-17,733	246,452	108,842
178,881	-17,688	246,343	108,821
179,896	-17,721	246,263	108,749
180,910	-17,622	246,016	108,713
181,925	-17,710	245,787	108,528
182,940	-17,644	245,584	108,484
183,954	-17,626	245,466	108,437
184,969	-17,880	245,331	108,157
185,983	-17,700	245,158	108,220
186,998	-17,599	244,983	108,217
188,013	-17,583	244,621	108,061
189,027	-17,619	244,514	107,974
190,042	-17,502	244,263	107,950
191,056	-17,632	244,218	107,814
192,071	-17,497	243,947	107,795
193,086	-17,470	243,751	107,721
194,100	-17,570	243,688	107,602
195,115	-17,654	243,466	107,425
196,129	-17,537	243,162	107,377
197,144	-17,625	243,065	107,252
198,159	-17,520	242,928	107,269
199,173	-17,597	242,794	107,137
200,188	-17,603	242,617	107,044
201,202	-17,453	242,561	107,133
202,217	-17,329	242,193	107,061
203,232	-17,388	242,062	106,946
204,246	-17,526	241,847	106,729
205,261	-17,229	241,705	106,899
206,275	-15,744	242,290	108,361
207,290	-11,437	243,685	112,509
208,304	-5,733	245,588	118,085
209,319	-3,015	246,189	120,607
210,334	-2,605	246,342	121,010
211,348	-1,865	246,456	121,666
212,363	-1,345	246,529	122,120
213,377	-0,629	246,469	122,671
214,392	0,121	246,456	123,272
215,407	0,166	246,445	123,292
216,421	0,432	246,358	123,457
217,436	0,269	246,309	123,287
218,450	0,302	246,140	123,218
219,465	0,494	246,005	123,298
220,480	0,505	245,800	123,193
221,494	0,442	245,880	123,170
222,509	0,330	245,329	122,792
223,523	-0,016	245,304	122,485
224,538	0,247	244,859	122,466
225,553	0,129	244,757	122,308
226,567	0,185	244,497	122,213
227,582	0,193	244,559	122,240
228,596	0,212	244,201	122,065
229,611	0,083	244,201	121,950
230,626	0,210	243,963	121,923
231,640	-0,010	243,851	121,677
232,655	0,088	243,644	121,643
233,669	-0,189	243,520	121,345
234,684	-0,008	243,159	121,301
235,699	-0,138	243,404	121,307
236,713	0,040	243,193	121,335
237,728	0,171	242,717	121,193
238,742	-0,031	242,685	121,002
239,757	0,261	242,520	121,146
240,772	-0,216	242,452	120,715
241,786	-0,040	242,176	120,709
242,801	-0,095	242,127	120,629
243,815	-0,126	241,860	120,461
244,830	0,077	241,785	120,576
245,844	0,234	241,531	120,565
246,859	-0,092	241,314	120,185
247,874	0,266	241,156	120,382
248,888	0,095	241,080	120,196
249,903	0,014	240,974	120,068
250,917	-0,144	240,739	119,813
251,932	-0,027	240,690	119,872
252,947	0,245	240,532	120,000
253,961	0,046	240,367	119,748
254,976	0,017	240,168	119,615
255,990	-0,065	240,104	119,506
257,005	-0,052	239,833	119,372
258,020	0,006	239,858	119,420
259,034	-0,036	239,684	119,289
260,049	-0,021	239,293	119,096
261,063	0,134	239,218	119,171
262,078	-0,023	239,160	119,007
263,093	0,034	238,819	118,872
264,107	-0,027	238,804	118,805
265,122	0,126	238,620	118,825
266,136	-0,008	238,454	118,625
267,151	0,231	238,317	118,736
268,166	0,084	238,174	118,537
269,180	0,041	237,923	118,368
270,195	0,101	237,832	118,360
271,209	0,035	237,735	118,249
272,224	-0,002	237,548	118,116
273,239	0,150	237,380	118,142
274,253	0,125	237,279	118,061
275,268	0,051	236,973	117,840
276,282	0,031	236,918	117,787
277,297	0,201	236,709	117,806
278,312	0,353	236,521	117,822
279,326	0,156	236,462	117,627
280,341	0,308	236,391	117,700
281,355	0,230	236,060	117,463
282,370	0,179	236,064	117,415
283,384	-0,012	235,904	117,176
284,399	0,078	235,764	117,166
285,414	0,032	235,586	117,031
286,428	0,011	235,465	116,944
287,443	0,180	235,231	116,950
288,457	0,273	235,166	116,979
289,472	0,163	234,961	116,781
290,487	0,140	234,902	116,724
291,501	0,255	234,701	116,702
292,516	0,131	234,678	116,585
293,530	0,144	234,376	116,434
294,545	0,301	234,357	116,536
295,560	0,215	234,115	116,339
296,574	0,114	234,006	116,196
297,589	0,015	233,907	116,059
298,603	0,227	233,679	116,101
299,618	0,381	233,527	116,133
300,633	0,248	233,424	115,969
301,647	0,429	233,211	115,993
302,662	0,428	233,131	115,943
303,676	0,543	232,963	115,937
304,691	0,319	232,828	115,687
305,706	0,272	232,520	115,487
306,720	0,409	232,459	115,553
307,735	0,478	232,276	115,504
308,749	0,586	232,123	115,501
309,764	0,403	231,878	115,228
310,779	0,497	231,918	115,310
311,793	0,318	231,773	115,090
312,808	0,491	231,608	115,130
313,822	0,296	231,498	114,916
314,837	0,276	231,415	114,849
315,852	0,326	231,156	114,749
316,866	0,326	231,103	114,712
317,881	0,368	230,894	114,630
318,895	0,658	230,845	114,818
319,910	0,554	230,500	114,556
320,925	0,385	230,377	114,356
321,939	0,419	230,329	114,348
322,954	0,361	230,186	114,222
323,968	0,389	229,912	114,098
324,983	0,469	229,941	114,163
325,997	0,518	229,666	114,053
327,012	0,240	229,616	113,807
328,027	0,472	229,444	113,888
329,041	0,354	229,210	113,672
330,056	0,300	229,170	113,600
331,070	0,547	229,075	113,731
332,085	0,550	228,941	113,657
333,100	0,688	228,606	113,584
334,114	0,703	228,402	113,485
335,129	0,494	228,386	113,308
336,143	0,563	228,214	113,265
337,158	0,579	228,148	113,235
338,173	0,599	228,019	113,175
339,187	0,556	227,760	113,004
340,202	0,701	227,656	113,052
341,216	0,596	227,508	112,889
342,231	0,475	227,449	112,759
343,246	0,610	227,167	112,710
344,260	0,634	227,130	112,700
345,275	0,672	226,953	112,631
346,289	0,659	226,781	112,525
347,304	0,849	226,473	112,504
348,319	0,645	226,533	112,372
349,333	0,535	226,359	112,193
350,348	0,641	226,259	112,213
351,362	0,638	226,011	112,078
352,377	0,702	226,130	112,174
353,392	0,691	225,760	111,973
354,406	0,661	225,661	111,891
355,421	191,595	1313,034	1376,782
356,435	153,451	1445,359	1376,626
