DTS Sentinel unit serial number:	SN410029Multiplexer serial number:	ORYXHardware model number:	OX2-SRSoftware version number:	ORYX F/W v4,00 Oryx Data Collector v3.7.2.0data status	okinstallation	B5 Nyhavnadifferential loss correction	single-endedforward channel	channel 2reverse channel	N/Adate	2023/12/14time	06:02:13forward acquisition time	300,00reverse acquisition time	0,00gamma	499,1914k internal	0,3158k external	0,3158temperature offset calibration	1,0000default loss term (dB/km)	0,3820temperature slope calibration	1,0000multiplexer offset coefficient	1,0000multiplexer slope coefficient	1,0000fibre end	0,00T internal ref (°C)	7,63T ext. ref 1 (°C)	-8,79T ext. ref 2 (°C)	-8,91length (m)	temperature (°C)	Stokes	anti-Stokes-744,400	-125,081	0,123	0,014
-743,385	-53,140	-0,369	-0,124
-742,371	-30,839	0,220	0,091
-741,356	-68,474	-0,380	-0,108
-740,342	-53,839	0,228	0,076
-739,327	43,848	-0,375	-0,253
-738,312	-43,201	0,226	0,084
-737,298	11,314	-0,449	-0,253
-736,283	34,394	0,103	0,066
-735,269	-128,037	-0,400	-0,042
-734,254	1,107	0,180	0,095
-733,239	14,625	-0,537	-0,308
-732,225	-125,879	0,241	-0,026
-731,210	-200,000	0,009	0,126
-730,196	-87,917	0,068	-0,015
-729,181	800,000	-0,051	-0,123
-728,167	225,147	-0,085	-0,102
-727,152	800,000	0,024	-0,063
-726,137	561,977	-0,031	-0,055
-725,123	-21,629	-0,122	-0,055
-724,108	511,095	0,020	-0,035
-723,094	132,129	0,113	-0,108
-722,079	78,854	-0,096	-0,076
-721,064	87,214	0,036	0,029
-720,050	-47,914	-0,157	0,056
-719,035	-200,000	-0,016	-0,170
-718,021	162,630	0,010	-0,011
-717,006	389,407	-0,066	0,100
-715,991	-4,687	-0,095	-0,048
-714,977	-200,000	-0,036	-0,122
-713,962	137,909	0,043	-0,041
-712,948	800,000	0,016	0,048
-711,933	222,669	0,036	0,042
-710,918	62,541	-0,042	-0,031
-709,904	106,391	-0,052	-0,046
-708,889	207,701	0,041	0,048
-707,875	-26,553	-0,088	-0,038
-706,860	279,230	0,054	-0,071
-705,845	46,966	-0,026	0,018
-704,831	75,444	-0,014	-0,011
-703,816	147,910	-0,029	-0,028
-702,802	293,868	-0,066	0,089
-701,787	183,998	-0,048	-0,052
-700,772	800,000	0,034	-0,105
-699,758	660,228	0,061	-0,117
-698,743	800,000	0,031	-0,095
-697,729	143,690	0,073	-0,071
-696,714	-116,295	0,035	-0,005
-695,699	1,419	-0,058	0,031
-694,685	74,160	-0,053	0,041
-693,670	20,599	-0,036	0,021
-692,656	63,340	-0,098	-0,072
-691,641	800,000	-0,008	0,021
-690,627	-120,808	0,020	-0,002
-689,612	51,312	-0,060	0,042
-688,597	45,079	0,089	-0,060
-687,583	-200,000	-0,010	-0,063
-686,568	331,115	-0,089	-0,127
-685,554	-200,000	-0,055	-0,183
-684,539	-74,037	0,208	-0,055
-683,524	-200,000	-0,001	-0,089
-682,510	800,000	0,010	0,023
-681,495	-66,811	-0,188	-0,054
-680,481	-200,000	0,009	-0,055
-679,466	-104,905	-0,190	-0,032
-678,451	-200,000	-0,021	-0,146
-677,437	-200,000	-0,017	0,177
-676,422	-129,021	-0,070	-0,007
-675,408	91,648	0,095	0,078
-674,393	800,000	-0,046	0,105
-673,378	518,221	-0,064	-0,111
-672,364	800,000	-0,056	-0,121
-671,349	665,353	-0,066	-0,126
-670,335	142,100	-0,048	-0,046
-669,320	-200,000	-0,011	-0,036
-668,305	-200,000	-0,005	-0,016
-667,291	800,000	-0,033	-0,090
-666,276	639,051	-0,049	-0,092
-665,262	-181,289	-0,082	0,001
-664,247	-81,900	-0,081	-0,019
-663,232	27,003	-0,030	0,018
-662,218	-65,553	-0,044	-0,013
-661,203	21,885	-0,061	-0,037
-660,189	-200,000	0,010	-0,080
-659,174	800,000	-0,033	-0,096
-658,159	-200,000	0,010	-0,079
-657,145	71,524	-0,070	-0,053
-656,130	-51,443	0,064	-0,022
-655,116	800,000	0,018	0,051
-654,101	229,102	0,038	-0,046
-653,086	800,000	-0,063	-0,177
-652,072	283,610	-0,035	-0,047
-651,057	498,766	0,065	-0,110
-650,043	-200,000	-0,007	-0,164
-649,028	-26,262	-0,217	-0,093
-648,014	278,771	0,102	-0,134
-646,999	-200,000	0,008	-0,119
-645,984	236,892	-0,085	0,103
-644,970	-27,096	-0,096	0,041
-643,955	52,125	-0,148	-0,103
-642,941	700,001	-0,125	-0,242
-641,926	112,253	0,070	-0,062
-640,911	800,000	0,047	-0,136
-639,897	-200,000	0,021	0,150
-638,882	-129,071	0,121	0,012
-637,868	295,047	-0,016	0,022
-636,853	800,000	-0,021	0,064
-635,838	-200,000	0,011	-0,121
-634,824	60,317	-0,121	0,088
-633,809	133,535	-0,102	0,097
-632,795	68,114	0,055	0,041
-631,780	-200,000	0,024	0,090
-630,765	206,622	0,036	-0,041
-629,751	800,000	0,032	-0,095
-628,736	-200,000	0,009	0,047
-627,722	97,869	-0,087	-0,073
-626,707	-149,445	0,135	0,008
-625,692	-68,072	0,138	0,039
-624,678	103,869	-0,029	0,025
-623,663	258,017	0,015	0,019
-622,649	-200,000	0,003	-0,098
-621,634	144,348	0,046	-0,045
-620,619	-200,000	-0,014	-0,076
-619,605	230,277	0,025	-0,031
-618,590	21,104	0,154	-0,091
-617,576	380,904	0,036	-0,054
-616,561	302,229	-0,020	0,028
-615,546	-200,000	0,004	-0,087
-614,532	481,032	-0,030	-0,051
-613,517	-66,758	-0,202	0,058
-612,503	738,046	0,059	-0,117
-611,488	800,000	-0,050	-0,107
-610,474	800,000	-0,031	-0,069
-609,459	305,119	0,014	0,020
-608,444	400,940	-0,064	-0,099
-607,430	-200,000	-0,019	-0,207
-606,415	298,901	-0,110	-0,148
-605,401	-150,158	0,105	0,006
-604,386	-119,130	-0,042	0,005
-603,371	-135,615	0,144	-0,012
-602,357	13,396	0,088	-0,050
-601,342	200,044	-0,038	-0,042
-600,328	-28,595	-0,148	0,062
-599,313	-200,000	0,008	0,088
-598,298	-149,750	-0,087	0,005
-597,284	-200,000	-0,010	0,133
-596,269	164,124	-0,020	-0,021
-595,255	7,660	-0,067	0,037
-594,240	-200,000	0,001	0,029
-593,225	64,474	-0,144	-0,106
-592,211	-17,460	-0,173	-0,080
-591,196	154,116	0,027	-0,027
-590,182	-39,749	-0,133	-0,051
-589,167	348,589	0,035	-0,050
-588,152	-158,488	-0,136	-0,006
-587,138	-200,000	0,005	-0,031
-586,123	-145,266	-0,060	-0,004
-585,109	646,701	-0,043	-0,080
-584,094	-43,227	0,027	-0,010
-583,079	-200,000	0,006	-0,153
-582,065	158,056	0,061	-0,062
-581,050	-25,387	0,129	-0,055
-580,036	-200,000	0,007	0,079
-579,021	46,701	0,074	0,050
-578,006	20,153	0,025	0,015
-576,992	800,000	0,024	-0,060
-575,977	-51,228	0,118	0,040
-574,963	-150,246	0,058	0,003
-573,948	800,000	0,077	-0,167
-572,934	-150,119	-0,116	0,006
-571,919	165,772	-0,144	-0,149
-570,904	800,000	0,053	0,167
-569,890	139,977	-0,067	0,065
-568,875	800,000	-0,009	-0,027
-567,861	-104,532	0,086	0,014
-566,846	-156,093	0,084	0,004
-565,831	69,784	-0,073	-0,055
-564,817	800,000	-0,015	-0,038
-563,802	-72,181	-0,132	-0,036
-562,788	612,179	0,059	-0,109
-561,773	-200,000	0,004	0,068
-560,758	-142,749	-0,045	0,003
-559,744	20,074	-0,072	-0,043
-558,729	-0,080	-0,077	0,040
-557,715	243,217	-0,045	0,055
-556,700	-200,000	-0,008	-0,031
-555,685	800,000	-0,079	-0,251
-554,671	5,623	0,030	0,016
-553,656	42,463	0,020	-0,013
-552,642	523,970	0,068	0,117
-551,627	-200,000	0,027	0,108
-550,612	75,106	-0,010	0,008
-549,598	800,000	-0,067	-0,152
-548,583	191,560	-0,062	-0,068
-547,569	204,401	0,059	0,067
-546,554	-200,000	-0,007	-0,119
-545,539	14,617	0,056	0,032
-544,525	800,000	-0,009	-0,027
-543,510	-200,000	0,014	-0,152
-542,496	39,769	-0,040	-0,026
-541,481	359,808	0,037	-0,055
-540,466	188,255	-0,087	-0,095
-539,452	-200,000	-0,012	-0,081
-538,437	-58,583	0,038	0,012
-537,423	-200,000	0,010	-0,031
-536,408	-64,000	-0,015	-0,004
-535,393	669,028	-0,071	0,135
-534,379	500,311	0,054	-0,091
-533,364	-69,874	0,208	-0,058
-532,350	-99,658	-0,080	-0,014
-531,335	-200,000	-0,007	-0,028
-530,321	-200,000	0,022	-0,076
-529,306	9,138	-0,090	-0,049
-528,291	-36,343	0,135	-0,053
-527,277	-200,000	0,003	0,071
-526,262	58,404	0,027	0,019
-525,248	-80,558	0,122	0,030
-524,233	-44,201	-0,017	-0,006
-523,218	-200,000	-0,023	-0,079
-522,204	800,000	0,015	0,047
-521,189	-200,000	-0,007	0,070
-520,175	100,990	-0,025	0,021
-519,160	573,375	-0,067	0,119
-518,145	800,000	0,053	0,165
-517,131	152,769	0,030	0,030
-516,116	195,149	0,091	-0,101
-515,102	-200,000	-0,025	-0,089
-514,087	81,670	-0,120	-0,095
-513,072	173,685	0,080	-0,085
-512,058	800,000	-0,044	0,110
-511,043	96,038	0,074	-0,061
-510,029	236,325	-0,066	0,080
-509,014	-149,982	-0,063	0,004
-507,999	183,315	-0,040	0,043
-506,985	622,115	0,028	-0,052
-505,970	-200,000	0,019	0,066
-504,956	137,468	-0,051	-0,049
-503,941	-7,628	-0,057	0,028
-502,926	506,867	-0,064	0,109
-501,912	-68,409	0,111	0,031
-500,897	494,188	0,002	-0,003
-499,883	-136,549	-0,099	0,008
-498,868	-200,000	-0,048	-0,224
-497,853	52,424	-0,116	-0,081
-496,839	-49,364	0,177	0,061
-495,824	-200,000	0,027	0,106
-494,810	-112,767	0,016	-0,002
-493,795	-155,049	-0,071	-0,003
-492,781	81,857	0,091	0,072
-491,766	25,151	-0,136	-0,082
-490,751	103,955	0,065	0,055
-489,737	-133,571	0,053	-0,005
-488,722	119,032	0,020	-0,018
-487,708	308,449	-0,135	0,185
-486,693	-200,000	0,013	-0,054
-485,678	-106,479	0,015	0,002
-484,664	159,318	-0,019	0,019
-483,649	-98,645	-0,095	-0,017
-482,635	-130,516	0,085	0,008
-481,620	-48,284	0,063	0,022
-480,605	-200,000	0,021	0,130
-479,591	-200,000	0,002	0,161
-478,576	80,417	-0,110	0,086
-477,562	225,038	0,032	0,038
-476,547	406,729	-0,077	-0,119
-475,532	-200,000	-0,007	-0,124
-474,518	-32,439	0,164	-0,066
-473,503	-116,939	0,037	0,005
-472,489	86,564	-0,122	0,098
-471,474	-200,000	-0,020	0,113
-470,459	99,279	-0,165	0,139
-469,445	-38,292	-0,004	-0,002
-468,430	800,000	0,053	-0,153
-467,416	-200,000	0,029	0,155
-466,401	112,934	0,062	0,055
-465,386	-200,000	-0,013	0,056
-464,372	80,515	0,036	0,028
-463,357	450,748	0,070	-0,113
-462,343	800,000	-0,025	-0,070
-461,328	800,000	-0,048	0,107
-460,313	-0,805	0,027	-0,014
-459,299	-200,000	0,014	0,066
-458,284	18,216	-0,029	-0,017
-457,270	-200,000	0,010	0,036
-456,255	800,000	0,047	-0,119
-455,241	-200,000	-0,029	-0,103
-454,226	103,446	0,089	-0,076
-453,211	101,529	-0,054	0,046
-452,197	800,000	0,016	0,050
-451,182	-61,152	-0,147	-0,045
-450,168	315,293	0,137	0,189
-449,153	-38,751	-0,140	-0,053
-448,138	-148,797	0,111	0,006
-447,124	800,000	-0,040	-0,092
-446,109	-82,816	0,064	-0,015
-445,095	37,977	0,108	-0,070
-444,080	-200,000	0,001	0,093
-443,065	16,481	0,116	0,067
-442,051	-89,529	-0,053	0,011
-441,036	-178,024	0,103	0,002
-440,022	-4,551	-0,122	-0,061
-439,007	157,780	-0,071	0,071
-437,992	-200,000	0,018	-0,111
-436,978	-69,207	0,081	-0,023
-435,963	210,211	-0,065	0,074
-434,949	95,529	-0,050	-0,041
-433,934	-200,000	0,005	0,086
-432,919	204,959	-0,102	-0,116
-431,905	275,313	0,007	0,009
-430,890	800,000	-0,067	0,146
-429,876	-2,668	-0,066	0,033
-428,861	-200,000	0,010	0,113
-427,846	39,923	-0,073	-0,048
-426,832	800,000	0,023	0,056
-425,817	-146,410	-0,031	-0,002
-424,803	82,377	-0,081	-0,064
-423,788	406,456	0,006	-0,009
-422,773	635,258	0,045	-0,083
-421,759	-200,000	0,235	-0,001
-420,744	-43,564	-0,016	-0,006
-419,730	241,388	0,035	-0,042
-418,715	-200,000	-0,029	-0,217
-417,701	224,330	0,050	0,058
-416,686	283,020	0,128	-0,168
-415,671	460,986	-0,033	0,055
-414,657	-110,204	0,075	-0,011
-413,642	-200,000	0,004	0,086
-412,628	332,418	-0,047	-0,066
-411,613	463,003	0,039	-0,064
-410,598	-200,000	-0,013	0,138
-409,584	-200,000	0,051	0,162
-408,569	94,075	0,094	0,078
-407,555	97,652	0,047	0,039
-406,540	12,918	-0,016	0,009
-405,525	138,288	-0,072	0,069
-404,511	-200,000	-0,009	0,081
-403,496	19,766	0,071	-0,042
-402,482	-141,465	0,182	0,013
-401,467	-200,000	0,001	0,099
-400,452	-200,000	0,002	-0,021
-399,438	-57,017	-0,011	-0,003
-398,423	-200,000	-0,002	-0,025
-397,409	329,681	0,039	-0,054
-396,394	671,859	0,049	-0,092
-395,379	307,782	0,079	-0,107
-394,365	108,363	-0,095	0,083
-393,350	800,000	-0,014	0,029
-392,336	231,631	-0,065	0,077
-391,321	-200,000	-0,016	-0,107
-390,306	-184,130	-0,066	0,001
-389,292	9,419	0,094	0,051
-388,277	8,738	-0,029	-0,016
-387,263	-17,203	0,092	0,042
-386,248	-200,000	0,001	-0,005
-385,233	-200,000	0,007	0,049
-384,219	800,000	-0,061	-0,157
-383,204	-148,267	-0,037	-0,002
-382,190	20,617	-0,063	-0,037
-381,175	6,269	0,148	-0,080
-380,160	62,084	-0,037	0,026
-379,146	800,000	-0,020	-0,049
-378,131	341,435	-0,041	0,059
-377,117	2,553	-0,149	0,078
-376,102	-200,000	-0,011	-0,058
-375,088	262,761	-0,050	0,063
-374,073	-72,267	-0,039	0,010
-373,058	800,000	-0,039	0,097
-372,044	1,188	0,140	0,073
-371,029	-17,849	0,131	0,059
-370,015	283,247	0,035	-0,046
-369,000	-53,097	-0,043	0,014
-367,985	47,626	-0,146	-0,099
-366,971	109,305	-0,064	-0,055
-365,956	-200,000	0,020	-0,100
-364,942	-200,000	-0,160	-0,000
-363,927	551,094	-0,016	0,028
-362,912	-107,475	0,051	-0,008
-361,898	-200,000	0,005	-0,023
-360,883	145,317	0,066	-0,064
-359,869	64,464	-0,080	-0,059
-358,854	-30,961	-0,113	-0,046
-357,839	-200,000	-0,015	0,102
-356,825	85,926	-0,045	0,036
-355,810	-15,121	0,153	0,071
-354,796	-200,000	-0,016	0,057
-353,781	336,758	-0,092	0,130
-352,766	105,151	0,051	0,043
-351,752	-18,733	0,145	-0,065
-350,737	-200,000	-0,007	0,079
-349,723	-49,062	-0,077	-0,027
-348,708	-200,000	0,007	0,142
-347,693	800,000	-0,053	0,117
-346,679	-33,892	0,100	0,040
-345,664	-137,158	-0,085	-0,007
-344,650	-78,501	0,033	-0,008
-343,635	3,339	0,024	0,013
-342,620	800,000	0,011	0,034
-341,606	-200,000	0,003	0,036
-340,591	46,075	-0,020	0,013
-339,577	-200,000	-0,019	0,095
-338,562	-98,415	0,199	0,037
-337,548	75,231	0,066	-0,050
-336,533	-200,000	0,019	-0,124
-335,518	3,199	0,117	0,062
-334,504	-77,623	-0,082	0,020
-333,489	149,754	0,062	0,061
-332,475	-72,409	-0,092	-0,024
-331,460	79,668	0,116	-0,090
-330,445	-200,000	-0,004	0,114
-329,431	800,000	-0,036	0,099
-328,416	215,230	0,124	-0,143
-327,402	-19,554	0,075	0,033
-326,387	-101,944	-0,116	0,020
-325,372	-106,986	-0,045	0,007
-324,358	285,916	0,009	0,012
-323,343	103,269	-0,092	0,078
-322,329	-189,108	-0,061	0,001
-321,314	137,483	0,042	-0,040
-320,299	-200,000	-0,029	0,112
-319,285	-125,820	0,140	0,015
-318,270	-200,000	-0,016	0,097
-317,256	-200,000	0,009	0,036
-316,241	-200,000	-0,018	-0,120
-315,226	-200,000	0,021	0,094
-314,212	-200,000	0,013	0,200
-313,197	24,050	-0,124	-0,074
-312,183	532,744	0,024	-0,041
-311,168	-200,000	-0,002	-0,033
-310,153	800,000	-0,017	-0,053
-309,139	-200,000	0,019	-0,073
-308,124	800,000	-0,070	0,146
-307,110	-200,000	-0,026	0,095
-306,095	630,023	0,034	-0,062
-305,080	-200,000	-0,004	0,024
-304,066	404,145	0,057	0,087
-303,051	-200,000	0,012	-0,140
-302,037	258,024	0,067	-0,084
-301,022	800,000	0,027	-0,063
-300,008	-200,000	0,001	0,039
-298,993	-200,000	-0,003	0,043
-297,978	800,000	0,047	0,101
-296,964	-200,000	-0,010	0,093
-295,949	19,103	0,035	0,020
-294,935	450,323	0,019	0,031
-293,920	84,251	0,067	0,053
-292,905	419,179	-0,017	0,026
-291,891	80,101	0,090	0,070
-290,876	644,446	-0,051	-0,094
-289,862	151,279	-0,078	-0,077
-288,847	-10,165	0,061	-0,029
-287,832	242,884	-0,067	0,082
-286,818	48,721	-0,140	-0,095
-285,803	-110,905	-0,012	0,002
-284,789	-59,068	0,125	0,039
-283,774	698,081	-0,043	0,083
-282,759	9,827	0,131	-0,072
-281,745	800,000	-0,035	-0,089
-280,730	-200,000	0,050	0,207
-279,716	-184,419	-0,058	-0,001
-278,701	144,461	-0,032	-0,031
-277,686	-200,000	0,020	-0,093
-276,672	-148,673	0,114	0,007
-275,657	-62,410	-0,042	0,013
-274,643	204,609	-0,087	0,098
-273,628	231,038	-0,071	0,084
-272,613	350,486	0,035	-0,051
-271,599	-200,000	0,010	-0,097
-270,584	189,234	0,064	0,070
-269,570	-60,302	0,109	-0,033
-268,555	112,984	0,080	-0,070
-267,540	-181,961	-0,143	0,002
-266,526	-113,899	0,114	0,016
-265,511	-200,000	-0,003	-0,024
-264,497	-98,741	0,065	0,012
-263,482	319,095	0,056	0,078
-262,467	-61,388	-0,051	0,016
-261,453	460,719	0,107	0,174
-260,438	126,377	-0,134	0,122
-259,424	174,870	-0,061	-0,064
-258,409	341,138	0,033	0,047
-257,395	108,699	0,017	-0,015
-256,380	99,001	-0,038	0,031
-255,365	223,617	0,051	0,060
-254,351	1,684	0,090	-0,047
-253,336	-23,757	-0,119	0,051
-252,322	-166,433	-0,182	0,005
-251,307	-200,000	-0,006	-0,026
-250,292	800,000	-0,044	0,093
-249,278	203,834	-0,060	0,067
-248,263	-59,047	-0,086	0,027
-247,249	-55,305	0,129	0,042
-246,234	-33,788	0,048	-0,019
-245,219	279,177	0,019	-0,024
-244,205	-131,685	0,015	0,001
-243,190	-200,000	0,006	0,024
-242,176	-86,611	0,077	-0,017
-241,161	-200,000	-0,003	0,121
-240,146	13,751	0,107	0,060
-239,132	800,000	0,049	-0,129
-238,117	26,544	0,081	0,049
-237,103	126,755	-0,067	-0,061
-236,088	-63,502	0,097	0,029
-235,073	422,828	-0,015	0,024
-234,059	474,367	0,027	0,044
-233,044	494,336	0,025	-0,042
-232,030	800,000	-0,060	-0,120
-231,015	-34,441	-0,196	0,077
-230,000	-44,828	-0,062	-0,022
-228,986	368,807	-0,053	-0,078
-227,971	109,264	0,081	0,070
-226,957	68,565	0,077	0,057
-225,942	-200,000	-0,011	-0,069
-224,927	-40,641	0,074	0,027
-223,913	68,341	-0,110	0,082
-222,898	-99,382	-0,017	0,003
-221,884	153,153	-0,053	0,053
-220,869	615,138	-0,028	0,051
-219,855	234,628	-0,093	0,110
-218,840	-200,000	0,011	0,093
-217,825	-25,402	-0,095	0,040
-216,811	800,000	-0,057	-0,130
-215,796	-200,000	-0,013	-0,098
-214,782	-70,888	0,048	0,013
-213,767	-16,897	0,052	0,024
-212,752	-200,000	0,005	0,032
-211,738	73,144	0,042	0,032
-210,723	-7,969	0,203	0,098
-209,709	207,150	-0,114	-0,128
-208,694	17,493	-0,008	-0,004
-207,679	-147,612	0,161	0,010
-206,665	-87,141	-0,094	-0,020
-205,650	59,516	0,122	0,087
-204,636	800,000	0,019	0,044
-203,621	-142,479	-0,068	-0,005
-202,606	675,696	-0,066	-0,125
-201,592	-76,662	-0,040	-0,010
-200,577	26,312	-0,025	-0,015
-199,563	175,684	0,085	-0,089
-198,548	800,000	0,032	-0,078
-197,533	800,000	0,057	0,151
-196,519	-200,000	0,085	0,000
-195,504	87,616	-0,058	0,046
-194,490	-74,319	-0,096	0,025
-193,475	-8,106	-0,017	-0,008
-192,460	-200,000	0,001	-0,099
-191,446	28,695	0,100	0,061
-190,431	800,000	0,064	0,142
-189,417	37,790	0,024	0,016
-188,402	-200,000	-0,020	-0,151
-187,387	-82,863	-0,129	-0,030
-186,373	-141,514	-0,079	0,006
-185,358	286,813	0,005	-0,007
-184,344	305,480	-0,066	-0,089
-183,329	800,000	-0,026	-0,066
-182,315	-45,700	0,142	0,050
-181,300	-200,000	-0,003	-0,021
-180,285	-200,000	0,001	-0,073
-179,271	-200,000	0,003	-0,070
-178,256	-112,494	0,119	0,017
-177,242	19,171	0,138	0,080
-176,227	119,202	0,074	0,066
-175,212	-10,992	0,022	-0,011
-174,198	133,484	0,066	0,062
-173,183	295,664	-0,114	-0,151
-172,169	-200,000	0,031	-0,137
-171,154	-200,000	-0,018	0,057
-170,139	-39,420	-0,102	0,038
-169,125	46,838	0,116	-0,077
-168,110	291,270	-0,068	0,089
-167,096	-110,758	-0,138	-0,020
-166,081	557,890	0,057	-0,100
-165,066	224,893	-0,036	-0,042
-164,052	800,000	-0,057	0,114
-163,037	-76,521	0,090	0,023
-162,023	12,886	0,081	0,045
-161,008	689,836	-0,016	0,029
-159,993	131,235	-0,041	0,038
-158,979	11,983	0,099	0,055
-157,964	-200,000	-0,040	0,196
-156,950	800,000	0,058	-0,149
-155,935	543,562	0,029	0,051
-154,920	800,000	0,017	0,038
-153,906	-8,937	-0,015	0,007
-152,891	83,669	-0,136	-0,106
-151,877	-200,000	0,003	0,115
-150,862	44,208	-0,061	0,041
-149,847	761,618	0,031	-0,062
-148,833	-67,162	-0,073	-0,021
-147,818	800,000	0,056	-0,136
-146,804	800,000	0,049	0,120
-145,789	436,334	-0,024	0,038
-144,775	-200,000	0,088	0,000
-143,760	261,383	-0,024	-0,030
-142,745	170,298	-0,063	0,065
-141,731	230,460	0,115	-0,135
-140,716	537,124	0,056	0,095
-139,702	63,949	-0,025	0,018
-138,687	-49,631	-0,160	0,055
-137,672	800,000	-0,068	-0,171
-136,658	-123,209	0,041	-0,005
-135,643	-200,000	-0,000	-0,115
-134,629	-200,000	0,004	0,132
-133,614	800,000	-0,039	-0,087
-132,599	14,973	-0,019	0,011
-131,585	-9,181	0,096	0,046
-130,570	800,000	-0,021	0,045
-129,556	283,030	-0,052	-0,068
-128,541	13,928	0,057	0,032
-127,526	800,000	-0,070	-0,164
-126,512	-54,399	0,108	0,035
-125,497	-200,000	0,004	-0,028
-124,483	-118,228	-0,085	0,011
-123,468	800,000	0,059	-0,139
-122,453	-53,048	-0,034	0,011
-121,439	800,000	-0,026	-0,064
-120,424	-44,351	-0,057	-0,021
-119,410	-62,074	0,088	-0,026
-118,395	100,063	0,124	0,103
-117,380	-54,180	-0,033	0,011
-116,366	-26,324	0,116	0,049
-115,351	-135,284	-0,036	-0,003
-114,337	2,001	-0,091	0,047
-113,322	-14,458	0,071	0,033
-112,307	167,669	0,035	-0,035
-111,293	-200,000	0,025	0,165
-110,278	140,616	-0,077	0,073
-109,264	23,010	-0,096	-0,057
-108,249	800,000	0,063	-0,136
-107,234	-200,000	-0,006	0,019
-106,220	79,383	-0,155	0,119
-105,205	-200,000	0,013	0,074
-104,191	29,077	-0,064	0,039
-103,176	-116,741	-0,152	-0,020
-102,162	145,009	-0,093	-0,090
-101,147	-200,000	-0,027	-0,096
-100,132	26,889	-0,091	-0,055
-99,118	800,000	-0,025	0,078
-98,103	-28,851	0,086	0,035
-97,089	-200,000	0,009	0,067
-96,074	800,000	0,043	0,117
-95,059	800,000	0,009	0,027
-94,045	-200,000	0,013	-0,042
-93,030	52,236	-0,101	0,069
-92,016	115,040	0,044	0,039
-91,001	-21,419	-0,072	0,032
-89,986	-18,841	0,060	0,027
-88,972	-200,000	-0,013	0,109
-87,957	-67,281	0,074	0,021
-86,943	800,000	0,058	0,151
-85,928	-119,065	0,041	0,005
-84,913	273,029	-0,079	0,100
-83,899	73,194	-0,116	-0,087
-82,884	-200,000	0,004	-0,089
-81,870	-189,649	0,123	0,001
-80,855	-62,003	-0,020	0,006
-79,840	269,880	-0,062	-0,078
-78,826	-105,435	0,059	0,009
-77,811	370,979	-0,057	-0,084
-76,797	81,323	-0,089	-0,069
-75,782	50,187	0,067	0,046
-74,767	-27,071	0,179	-0,075
-73,753	84,952	-0,042	0,033
-72,738	380,085	-0,087	0,128
-71,724	-77,604	0,119	0,029
-70,709	-80,120	0,051	-0,012
-69,694	624,663	0,045	-0,082
-68,680	-87,345	0,076	-0,016
-67,665	-163,447	0,071	0,002
-66,651	74,097	-0,112	0,084
-65,636	399,224	0,029	-0,043
-64,622	334,407	0,065	-0,090
-63,607	491,303	0,060	-0,099
-62,592	-4,234	-0,109	-0,054
-61,578	-31,857	-0,106	-0,043
-60,563	-100,937	0,055	-0,010
-59,549	-200,000	0,009	0,110
-58,534	76,394	-2,726	-2,072
-57,519	7,490	0,421	-0,225
-56,505	-200,000	-1,677	-5,583
-55,490	413,221	1,188	1,819
-54,476	800,000	5,228	11,372
-53,461	-200,000	22,511	348,820
-52,446	800,000	762,363	2282,962
-51,432	506,736	1644,819	2747,501
-50,417	95,340	1604,589	1311,639
-49,403	63,552	1261,814	907,576
-48,388	22,319	1014,441	593,259
-47,373	19,117	981,913	563,683
-46,359	12,526	968,823	534,657
-45,344	8,315	965,740	519,181
-44,330	8,720	963,626	519,346
-43,315	7,798	961,772	515,323
-42,300	7,622	960,915	514,271
-41,286	7,684	959,731	513,818
-40,271	7,670	958,893	513,302
-39,257	7,627	957,855	512,588
-38,242	7,660	957,073	512,257
-37,227	7,650	956,348	511,815
-36,213	7,636	955,470	511,278
-35,198	7,645	954,567	510,805
-34,184	7,645	953,819	510,386
-33,169	7,625	952,842	509,776
-32,154	7,702	952,194	509,658
-31,140	7,732	951,052	509,125
-30,125	7,753	950,255	508,744
-29,111	7,698	949,490	508,137
-28,096	7,689	949,163	507,912
-27,082	7,644	948,436	507,360
-26,067	7,653	947,658	506,952
-25,052	7,688	946,807	506,590
-24,038	7,668	946,065	506,108
-23,023	7,638	945,446	505,660
-22,009	7,694	944,782	505,465
-20,994	7,612	944,346	504,948
-19,979	7,650	943,643	504,674
-18,965	7,626	942,790	504,122
-17,950	7,666	942,385	504,011
-16,936	7,633	941,666	503,502
-15,921	7,642	940,908	503,105
-14,906	7,537	940,450	502,508
-13,892	7,575	939,445	502,071
-12,877	7,529	939,106	501,724
-11,863	7,594	938,418	501,542
-10,848	7,492	938,136	501,048
-9,833	7,575	937,560	500,983
-8,819	7,588	936,752	500,572
-7,804	7,559	936,061	500,094
-6,790	7,520	935,624	499,716
-5,775	7,663	934,999	499,814
-4,760	7,622	934,457	499,377
-3,746	7,538	933,903	498,793
-2,731	7,472	933,087	498,132
-1,717	7,385	932,793	497,677
-0,702	7,407	931,980	497,296
0,313	7,260	931,254	497,195
1,327	10,561	928,819	506,228
2,342	19,149	776,875	445,839
3,356	13,970	445,676	247,987
4,371	-12,037	310,841	145,447
5,386	-15,833	293,591	133,543
6,400	-17,974	287,444	128,625
7,415	-18,164	285,018	127,342
8,429	-18,681	283,175	126,005
9,444	-18,870	282,179	125,368
10,459	-18,611	281,605	125,351
11,473	-18,576	280,929	125,074
12,488	-18,755	280,705	124,790
13,502	-18,686	280,073	124,564
14,517	-18,595	279,733	124,489
15,531	-18,400	279,239	124,445
16,546	-18,406	278,854	124,256
17,561	-18,602	278,504	123,902
18,575	-18,380	278,193	123,965
19,590	-18,459	277,856	123,728
20,604	-18,333	277,566	123,708
21,619	-18,449	277,217	123,431
22,634	-18,338	276,923	123,395
23,648	-18,415	276,515	123,129
24,663	-18,550	276,344	122,914
25,677	-18,407	276,052	122,909
26,692	-18,267	275,728	122,886
27,707	-18,453	275,481	122,589
28,721	-18,378	275,229	122,536
29,736	-18,407	274,940	122,369
30,750	-18,465	274,660	122,179
31,765	-18,464	274,372	122,041
32,780	-18,467	274,235	121,967
33,794	-18,279	273,910	121,988
34,809	-18,370	273,603	121,755
35,823	-18,491	273,453	121,564
36,838	-18,354	273,137	121,541
37,853	-18,491	272,957	121,322
38,867	-18,293	272,535	121,308
39,882	-18,437	272,350	121,081
40,896	-18,343	272,199	121,090
41,911	-18,259	271,865	121,009
42,926	-18,185	271,604	120,951
43,940	-18,296	271,317	120,709
44,955	-18,344	271,123	120,568
45,969	-18,425	271,051	120,450
46,984	-18,260	270,820	120,490
47,999	-18,088	270,424	120,462
49,013	-18,170	270,385	120,358
50,028	-18,205	270,196	120,230
51,042	-18,221	269,996	120,116
52,057	-18,322	269,859	119,951
53,071	-18,327	269,496	119,774
54,086	-18,337	269,458	119,738
55,101	-18,284	269,098	119,615
56,115	-18,425	268,859	119,369
57,130	-18,367	268,464	119,236
58,144	-18,576	268,285	118,955
59,159	-18,445	267,969	118,924
60,174	-18,357	267,778	118,909
61,188	-18,523	267,569	118,654
62,203	-18,375	267,342	118,677
63,217	-18,326	267,135	118,620
64,232	-18,422	266,729	118,342
65,247	-18,294	266,536	118,362
66,261	-18,334	266,309	118,214
67,276	-18,320	266,154	118,148
68,290	-18,156	265,940	118,191
69,305	-18,484	265,885	117,858
70,320	-18,392	265,593	117,802
71,334	-18,120	265,300	117,907
72,349	-18,400	265,077	117,545
73,363	-18,165	264,614	117,541
74,378	-18,455	264,673	117,295
75,393	-18,318	264,430	117,301
76,407	-18,304	264,167	117,186
77,422	-18,356	264,038	117,071
78,436	-18,239	263,603	116,973
79,451	-18,374	263,322	116,717
80,466	-18,286	263,242	116,751
81,480	-18,361	263,056	116,590
82,495	-18,383	262,818	116,455
83,509	-18,342	262,600	116,384
84,524	-18,117	262,402	116,487
85,539	-18,191	262,342	116,384
86,553	-18,190	261,937	116,194
87,568	-18,200	261,662	116,053
88,582	-18,345	261,660	115,913
89,597	-18,258	261,365	115,850
90,611	-18,310	261,226	115,731
91,626	-18,295	261,088	115,673
92,641	-18,111	260,726	115,665
93,655	-18,090	260,339	115,502
94,670	-18,261	260,331	115,337
95,684	-18,400	260,108	115,105
96,699	-18,403	260,065	115,073
97,714	-18,411	259,747	114,915
98,728	-18,206	259,577	115,010
99,743	-18,136	259,396	114,981
100,757	-18,153	259,086	114,819
101,772	-18,348	258,930	114,568
102,787	-18,419	258,859	114,463
103,801	-18,210	258,396	114,432
104,816	-18,271	258,261	114,308
105,830	-18,169	258,101	114,318
106,845	-18,267	257,795	114,086
107,860	-18,442	257,711	113,885
108,874	-18,382	257,643	113,898
109,889	-18,192	257,217	113,865
110,903	-18,291	257,008	113,676
111,918	-18,439	257,000	113,533
112,933	-18,289	256,779	113,556
113,947	-18,181	256,390	113,468
114,962	-18,419	256,246	113,187
115,976	-18,157	256,047	113,317
116,991	-18,334	255,967	113,118
118,006	-18,287	255,799	113,074
119,020	-18,233	255,514	112,985
120,035	-18,377	255,441	112,817
121,049	-18,088	255,187	112,946
122,064	-17,993	254,904	112,893
123,079	-18,273	254,818	112,602
124,093	-18,225	254,645	112,557
125,108	-18,311	254,373	112,353
126,122	-18,014	254,061	112,461
127,137	-18,164	253,972	112,283
128,151	-18,114	253,955	112,308
129,166	-18,203	253,610	112,069
130,181	-18,324	253,338	111,834
131,195	-18,093	253,155	111,943
132,210	-18,270	252,907	111,671
133,224	-18,204	252,768	111,656
134,239	-18,304	252,499	111,442
135,254	-18,382	252,468	111,352
136,268	-18,142	252,192	111,425
137,283	-18,173	251,927	111,271
138,297	-18,073	251,795	111,288
139,312	-18,086	251,420	111,101
140,327	-18,202	251,435	110,999
141,341	-18,350	251,219	110,768
142,356	-18,298	251,052	110,729
143,370	-18,154	250,738	110,703
144,385	-18,178	250,549	110,589
145,400	-18,071	250,346	110,580
146,414	-18,139	250,058	110,386
147,429	-18,379	250,003	110,149
148,443	-18,165	249,804	110,231
149,458	-18,232	249,652	110,098
150,473	-18,324	249,437	109,916
151,487	-18,345	249,315	109,835
152,502	-18,319	249,044	109,727
153,516	-18,162	248,866	109,771
154,531	-18,272	248,756	109,620
155,546	-18,048	248,460	109,669
156,560	-18,274	248,474	109,476
157,575	-18,168	248,064	109,373
158,589	-18,033	247,798	109,360
159,604	-18,270	247,689	109,104
160,619	-18,139	247,498	109,120
161,633	-18,279	247,488	108,988
162,648	-18,143	247,174	108,954
163,662	-18,231	247,147	108,859
164,677	-18,265	246,910	108,716
165,692	-18,115	246,721	108,749
166,706	-18,099	246,569	108,685
167,721	-18,137	246,267	108,511
168,735	-18,367	246,223	108,290
169,750	-18,113	246,087	108,432
170,764	-18,164	245,977	108,332
171,779	-18,253	245,734	108,140
172,794	-18,233	245,632	108,103
173,808	-18,355	245,505	107,936
174,823	-18,052	245,212	108,049
175,837	-17,916	244,993	108,055
176,852	-18,217	244,931	107,769
177,867	-18,353	244,763	107,573
178,881	-18,249	244,561	107,561
179,896	-18,139	244,248	107,504
180,910	-18,162	244,256	107,479
181,925	-18,330	243,944	107,194
182,940	-18,394	243,898	107,112
183,954	-18,263	243,694	107,120
184,969	-18,209	243,492	107,066
185,983	-18,410	243,481	106,886
186,998	-18,273	243,223	106,876
188,013	-18,114	242,916	106,862
189,027	-18,203	242,782	106,720
190,042	-18,378	242,567	106,473
191,056	-18,183	242,449	106,572
192,071	-18,271	242,287	106,419
193,086	-18,221	241,916	106,287
194,100	-18,296	241,960	106,235
195,115	-18,051	241,621	106,278
196,129	-18,281	241,656	106,095
197,144	-18,322	241,352	105,919
198,159	-18,140	241,129	105,960
199,173	-18,116	240,870	105,856
200,188	-18,321	240,815	105,656
201,202	-18,094	240,621	105,746
202,217	-18,118	240,436	105,636
203,232	-17,903	240,198	105,696
204,246	-18,310	240,060	105,296
205,261	-18,616	239,826	104,937
206,275	-17,220	240,217	106,229
207,290	-12,734	241,897	110,617
208,304	-5,809	243,884	117,193
209,319	-2,319	244,947	120,560
210,334	-0,930	245,126	121,777
211,348	-0,182	245,245	122,438
212,363	0,064	245,336	122,675
213,377	0,562	245,132	122,970
214,392	0,585	245,126	122,975
215,407	0,992	245,078	123,273
216,421	1,173	244,954	123,348
217,436	0,972	244,932	123,162
218,450	1,049	244,641	123,067
219,465	1,276	244,568	123,205
220,480	1,268	244,432	123,119
221,494	1,204	244,248	122,962
222,509	0,803	243,915	122,458
223,523	0,384	243,687	121,991
224,538	0,602	243,484	122,056
225,553	0,793	243,203	122,060
226,567	0,518	243,107	121,777
227,582	0,545	243,042	121,755
228,596	0,527	242,918	121,668
229,611	0,506	242,775	121,568
230,626	0,438	242,521	121,375
231,640	0,439	242,343	121,277
232,655	0,435	242,189	121,185
233,669	0,359	241,970	121,004
234,684	0,541	241,845	121,077
235,699	0,536	241,684	120,982
236,713	0,586	241,467	120,903
237,728	0,417	241,376	120,710
238,742	0,479	241,306	120,714
239,757	0,601	241,118	120,708
240,772	0,321	240,942	120,384
241,786	0,556	240,753	120,467
242,801	0,520	240,596	120,349
243,815	0,434	240,492	120,217
244,830	0,424	240,292	120,099
245,844	0,516	240,076	120,054
246,859	0,345	239,976	119,856
247,874	0,269	239,774	119,683
248,888	0,467	239,631	119,760
249,903	0,447	239,549	119,692
250,917	0,346	239,425	119,539
251,932	0,600	239,267	119,652
252,947	0,687	239,078	119,616
253,961	0,556	239,048	119,486
254,976	0,508	238,820	119,323
255,990	0,475	238,676	119,214
257,005	0,569	238,382	119,131
258,020	0,515	238,335	119,054
259,034	0,500	238,241	118,985
260,049	0,568	237,905	118,861
261,063	0,667	237,810	118,881
262,078	0,413	237,701	118,615
263,093	0,516	237,424	118,547
264,107	0,794	237,184	118,637
265,122	0,610	237,153	118,465
266,136	0,609	237,080	118,418
267,151	0,596	236,941	118,327
268,166	0,530	236,674	118,131
269,180	0,490	236,563	118,034
270,195	0,412	236,474	117,917
271,209	0,655	236,178	117,950
272,224	0,374	236,113	117,687
273,239	0,538	236,002	117,749
274,253	0,483	235,877	117,634
275,268	0,509	235,774	117,592
276,282	0,752	235,481	117,626
277,297	0,532	235,200	117,303
278,312	0,420	235,202	117,206
279,326	0,824	234,884	117,353
280,341	0,592	234,854	117,146
281,355	0,398	234,821	116,967
282,370	0,485	234,578	116,903
283,384	0,483	234,496	116,851
284,399	0,708	234,243	116,890
285,414	0,360	234,220	116,597
286,428	0,570	234,109	116,695
287,443	0,574	233,856	116,561
288,457	0,675	233,733	116,568
289,472	0,567	233,640	116,427
290,487	0,557	233,378	116,279
291,501	0,460	233,334	116,171
292,516	0,488	233,145	116,088
293,530	0,694	232,935	116,133
294,545	0,721	232,808	116,080
295,560	0,558	232,763	115,922
296,574	0,656	232,625	115,918
297,589	0,541	232,443	115,728
298,603	0,798	232,180	115,785
299,618	0,602	232,137	115,602
300,633	0,619	231,987	115,530
301,647	0,914	231,753	115,630
302,662	0,799	231,718	115,513
303,676	0,689	231,599	115,360
304,691	1,013	231,404	115,501
305,706	0,911	231,111	115,266
306,720	0,718	231,122	115,113
307,735	0,745	231,100	115,113
308,749	0,696	230,807	114,920
309,764	0,693	230,726	114,867
310,779	0,816	230,564	114,869
311,793	0,741	230,494	114,767
312,808	0,949	230,299	114,818
313,822	0,800	230,085	114,588
314,837	0,833	229,870	114,496
315,852	1,022	229,706	114,548
316,866	1,108	229,658	114,579
317,881	0,797	229,534	114,270
318,895	0,849	229,368	114,217
319,910	0,719	229,335	114,092
320,925	0,908	229,011	114,064
321,939	0,788	229,026	113,970
322,954	0,729	228,875	113,840
323,968	0,744	228,761	113,785
324,983	1,037	228,569	113,900
325,997	0,851	228,289	113,611
327,012	0,896	228,095	113,537
328,027	0,736	228,015	113,367
329,041	0,938	227,862	113,433
330,056	0,717	227,709	113,180
331,070	0,942	227,707	113,339
332,085	0,867	227,351	113,095
333,100	0,709	227,325	112,953
334,114	0,748	227,135	112,878
335,129	0,987	226,932	112,946
336,143	1,058	226,802	112,925
337,158	1,012	226,700	112,829
338,173	1,122	226,534	112,819
339,187	0,943	226,460	112,638
340,202	1,009	226,221	112,559
341,216	1,001	226,032	112,449
342,231	0,855	225,929	112,278
343,246	0,831	225,912	112,242
344,260	0,821	225,729	112,134
345,275	0,941	225,617	112,158
346,289	0,998	225,456	112,110
347,304	0,933	225,310	111,979
348,319	0,785	225,157	111,783
349,333	1,062	224,820	111,811
350,348	1,022	224,820	111,771
351,362	0,829	224,788	111,602
352,377	0,809	224,600	111,484
353,392	0,920	224,388	111,451
354,406	1,158	224,219	111,534
355,421	192,961	1310,194	1378,008
356,435	154,569	1442,349	1377,839
