DTS Sentinel unit serial number:	SN410029Multiplexer serial number:	ORYXHardware model number:	OX2-SRSoftware version number:	ORYX F/W v4,00 Oryx Data Collector v3.7.2.0data status	okinstallation	B5 Nyhavnadifferential loss correction	single-endedforward channel	channel 2reverse channel	N/Adate	2023/12/12time	07:22:13forward acquisition time	300,00reverse acquisition time	0,00gamma	499,1914k internal	0,3158k external	0,3158temperature offset calibration	1,0000default loss term (dB/km)	0,3820temperature slope calibration	1,0000multiplexer offset coefficient	1,0000multiplexer slope coefficient	1,0000fibre end	0,00T internal ref (°C)	15,15T ext. ref 1 (°C)	-1,12T ext. ref 2 (°C)	-1,40length (m)	temperature (°C)	Stokes	anti-Stokes-744,400	-82,021	0,078	-0,019
-743,385	-166,138	-0,207	-0,006
-742,371	-55,331	0,227	0,075
-741,356	-35,776	-0,223	0,089
-740,342	-156,933	0,113	-0,005
-739,327	-102,031	-0,289	0,051
-738,312	12,542	0,088	-0,050
-737,298	-63,860	-0,393	-0,118
-736,283	-50,740	0,187	0,064
-735,269	-152,701	-0,185	0,010
-734,254	32,027	0,142	0,090
-733,239	-52,620	-0,580	-0,196
-732,225	81,135	0,135	0,108
-731,210	-200,000	0,006	-0,023
-730,196	-33,889	-0,128	-0,052
-729,181	-200,000	0,002	-0,108
-728,167	800,000	0,002	0,005
-727,152	10,546	0,066	-0,037
-726,137	153,276	-0,102	-0,103
-725,123	-200,000	0,033	-0,207
-724,108	-13,768	-0,041	-0,019
-723,094	-44,749	-0,046	0,017
-722,079	-200,000	0,007	-0,076
-721,064	16,974	-0,106	-0,062
-720,050	-154,934	-0,207	-0,010
-719,035	151,623	-0,190	0,191
-718,021	-200,000	0,004	-0,035
-717,006	-15,989	-0,025	0,012
-715,991	-200,000	-0,017	-0,108
-714,977	800,000	-0,048	-0,131
-713,962	30,815	0,027	0,017
-712,948	-200,000	0,017	0,073
-711,933	-14,480	0,084	0,040
-710,918	243,584	-0,064	0,079
-709,904	800,000	-0,038	-0,082
-708,889	-62,211	-0,079	0,024
-707,875	-146,393	-0,078	0,005
-706,860	12,188	0,090	0,051
-705,845	-200,000	0,008	0,081
-704,831	800,000	-0,043	0,089
-703,816	-139,158	-0,097	0,008
-702,802	-107,887	-0,056	-0,009
-701,787	-23,517	-0,066	0,029
-700,772	800,000	-0,037	-0,114
-699,758	184,357	0,034	-0,038
-698,743	74,087	-0,153	0,118
-697,729	-91,573	-0,079	0,016
-696,714	-200,000	-0,014	0,119
-695,699	81,338	-0,055	-0,044
-694,685	158,244	-0,034	-0,035
-693,670	2,644	-0,076	0,040
-692,656	-200,000	0,012	0,063
-691,641	-79,688	-0,048	0,012
-690,627	-100,645	-0,108	0,019
-689,612	-89,328	0,041	-0,009
-688,597	-200,000	-0,010	-0,063
-687,583	32,497	0,084	-0,053
-686,568	-200,000	-0,009	0,142
-685,554	-53,342	-0,157	-0,053
-684,539	-36,431	0,116	-0,046
-683,524	81,295	-0,109	0,087
-682,510	538,611	0,060	0,105
-681,495	800,000	0,029	0,060
-680,481	85,191	0,021	0,017
-679,466	-127,207	-0,081	-0,009
-678,451	-93,794	-0,058	0,012
-677,437	238,254	0,091	0,112
-676,422	-60,291	0,057	0,018
-675,408	23,498	-0,059	0,035
-674,393	-200,000	0,005	0,064
-673,378	72,213	-0,142	0,108
-672,364	-96,545	0,069	0,013
-671,349	-84,558	-0,075	-0,017
-670,335	37,268	-0,113	0,074
-669,320	-200,000	0,005	0,207
-668,305	-200,000	0,017	-0,069
-667,291	-55,685	-0,092	0,030
-666,276	-200,000	-0,006	0,082
-665,262	-192,866	-0,112	0,001
-664,247	-200,000	-0,014	-0,125
-663,232	-21,941	0,079	0,035
-662,218	136,611	0,074	0,071
-661,203	431,683	-0,041	0,065
-660,189	36,498	-0,100	0,065
-659,174	41,217	-0,144	-0,096
-658,159	-28,286	-0,034	0,014
-657,145	25,228	-0,122	0,074
-656,130	-200,000	-0,009	-0,104
-655,116	66,511	0,068	0,051
-654,101	-200,000	-0,025	0,091
-653,086	-103,919	-0,114	-0,019
-652,072	418,299	0,077	-0,121
-651,057	495,108	0,038	-0,065
-650,043	-200,000	-0,005	0,065
-649,028	173,196	-0,071	-0,076
-648,014	-200,000	0,032	0,150
-646,999	-149,261	-0,031	0,002
-645,984	-143,827	0,030	-0,002
-644,970	68,086	0,015	-0,011
-643,955	25,825	0,034	-0,021
-642,941	-66,946	0,050	-0,014
-641,926	70,427	-0,046	-0,035
-640,911	330,991	-0,082	-0,116
-639,897	-46,670	-0,027	-0,010
-638,882	167,971	0,068	0,071
-637,868	-132,783	-0,077	-0,007
-636,853	12,953	-0,066	-0,037
-635,838	-84,961	0,091	-0,021
-634,824	-45,835	-0,133	0,048
-633,809	-200,000	0,000	-0,160
-632,795	-200,000	0,002	-0,021
-631,780	-148,090	0,053	0,003
-630,765	-131,519	-0,050	-0,005
-629,751	-200,000	0,016	-0,141
-628,736	782,579	0,054	-0,110
-627,722	408,539	0,028	-0,044
-626,707	-79,993	0,088	-0,022
-625,692	-200,000	-0,004	0,058
-624,678	233,125	-0,056	-0,068
-623,663	-200,000	-0,008	0,053
-622,649	-81,846	0,035	-0,008
-621,634	26,731	-0,069	-0,042
-620,619	-56,248	0,068	0,022
-619,605	83,723	0,106	0,085
-618,590	131,655	0,066	0,063
-617,576	-115,024	-0,094	-0,013
-616,561	61,539	0,112	-0,082
-615,546	103,732	-0,091	0,078
-614,532	-106,615	0,027	-0,004
-613,517	-195,543	-0,079	-0,000
-612,503	-200,000	-0,019	0,132
-611,488	-29,606	0,114	0,048
-610,474	273,099	-0,085	0,110
-609,459	800,000	-0,059	0,150
-608,444	-200,000	0,029	-0,123
-607,430	800,000	-0,023	0,073
-606,415	60,989	0,126	0,091
-605,401	126,674	0,116	-0,108
-604,386	-56,221	-0,097	0,032
-603,371	-85,246	0,033	0,008
-602,357	93,742	0,047	0,039
-601,342	800,000	-0,037	-0,078
-600,328	35,199	-0,059	-0,038
-599,313	-200,000	0,006	-0,020
-598,298	-200,000	-0,014	0,046
-597,284	-122,683	0,114	0,013
-596,269	-200,000	-0,007	0,070
-595,255	-200,000	-0,003	-0,024
-594,240	193,157	-0,031	-0,034
-593,225	549,727	-0,042	-0,074
-592,211	800,000	0,020	0,059
-591,196	215,361	-0,050	0,058
-590,182	-82,575	0,142	0,034
-589,167	-63,439	-0,144	0,043
-588,152	-200,000	0,006	0,137
-587,138	-200,000	-0,028	-0,102
-586,123	-48,930	0,109	0,038
-585,109	-2,016	-0,055	0,028
-584,094	466,680	-0,098	-0,161
-583,079	686,001	0,028	0,053
-582,065	-0,694	0,128	0,066
-581,050	-200,000	-0,010	0,192
-580,036	-138,437	0,110	-0,009
-579,021	248,410	-0,073	-0,091
-578,006	-200,000	-0,004	-0,139
-576,992	-100,571	0,065	0,012
-575,977	266,425	0,043	-0,055
-574,963	-94,073	0,143	0,029
-573,948	252,905	0,053	0,067
-572,934	-81,233	-0,118	0,028
-571,919	-200,000	-0,035	-0,120
-570,904	-91,859	-0,051	0,010
-569,890	80,747	0,098	-0,077
-568,875	800,000	-0,086	0,225
-567,861	800,000	0,073	0,192
-566,846	488,408	0,063	0,106
-565,831	-77,480	0,063	-0,016
-564,817	800,000	-0,017	-0,048
-563,802	-41,390	-0,106	0,040
-562,788	123,936	-0,079	-0,073
-561,773	-200,000	0,010	-0,074
-560,758	340,121	-0,078	0,112
-559,744	375,816	0,005	0,007
-558,729	800,000	-0,043	-0,096
-557,715	99,075	-0,127	-0,107
-556,700	-100,885	-0,183	0,033
-555,685	81,234	-0,084	-0,066
-554,671	65,003	0,018	-0,013
-553,656	104,995	0,086	0,074
-552,642	709,108	-0,049	0,096
-551,627	800,000	0,028	-0,072
-550,612	74,146	0,105	0,080
-549,598	-60,003	-0,172	-0,053
-548,583	-65,706	0,066	0,019
-547,569	-25,293	0,039	0,017
-546,554	30,387	0,099	0,062
-545,539	617,360	0,006	-0,010
-544,525	30,463	0,010	-0,006
-543,510	128,952	0,051	0,048
-542,496	-107,495	-0,045	-0,007
-541,481	32,218	0,054	-0,034
-540,466	-200,000	-0,009	0,048
-539,452	269,833	-0,052	-0,067
-538,437	420,575	0,065	0,102
-537,423	-200,000	0,015	-0,095
-536,408	-142,214	0,088	0,006
-535,393	-200,000	-0,012	-0,134
-534,379	-28,524	-0,102	-0,043
-533,364	-75,746	0,107	0,028
-532,350	-200,000	0,016	-0,084
-531,335	82,129	0,118	0,093
-530,321	800,000	0,092	0,195
-529,306	467,225	-0,008	0,013
-528,291	-200,000	-0,025	-0,109
-527,277	196,876	-0,068	-0,076
-526,262	-76,958	0,040	-0,010
-525,248	-106,731	0,115	0,019
-524,233	-200,000	0,002	0,012
-523,218	-39,696	0,109	0,041
-522,204	-89,361	-0,097	0,021
-521,189	-200,000	-0,021	0,090
-520,175	21,009	-0,094	-0,055
-519,160	31,372	-0,111	-0,070
-518,145	-200,000	0,003	0,139
-517,131	104,419	-0,017	-0,015
-516,116	-42,199	0,011	-0,004
-515,102	20,652	-0,077	0,045
-514,087	671,311	-0,047	-0,090
-513,072	43,583	-0,025	-0,017
-512,058	178,491	-0,060	-0,064
-511,043	527,113	0,040	0,069
-510,029	-11,035	0,032	0,015
-509,014	-200,000	0,010	0,078
-507,999	-61,603	-0,052	0,016
-506,985	338,386	-0,086	-0,123
-505,970	-109,176	0,095	-0,015
-504,956	-17,772	-0,163	-0,075
-503,941	-200,000	-0,005	-0,101
-502,926	52,232	0,106	-0,074
-501,912	5,301	0,094	-0,051
-500,897	-172,687	-0,081	0,002
-499,883	73,042	-0,115	0,088
-498,868	-21,607	-0,025	0,011
-497,853	388,843	0,057	-0,086
-496,839	191,788	-0,050	-0,056
-495,824	307,759	-0,006	-0,008
-494,810	-127,065	0,082	0,009
-493,795	-89,794	0,097	-0,020
-492,781	-200,000	-0,031	0,129
-491,766	16,551	0,088	0,050
-490,751	800,000	0,054	0,121
-489,737	134,969	0,042	-0,040
-488,722	117,937	-0,079	-0,071
-487,708	-74,512	0,122	-0,032
-486,693	435,657	-0,023	-0,036
-485,678	-161,151	0,051	-0,002
-484,664	-200,000	0,009	0,127
-483,649	316,215	-0,063	-0,086
-482,635	-90,355	0,024	-0,005
-481,620	-119,103	0,105	0,013
-480,605	-200,000	0,015	0,078
-479,591	-200,000	0,036	0,120
-478,576	-13,080	0,053	0,025
-477,562	-120,990	-0,120	0,014
-476,547	51,067	-0,041	-0,028
-475,532	-35,997	0,127	0,050
-474,518	800,000	0,026	-0,059
-473,503	-114,716	-0,023	-0,003
-472,489	-141,816	0,135	-0,010
-471,474	260,097	0,039	0,049
-470,459	-6,139	0,044	0,022
-469,445	800,000	0,017	-0,044
-468,430	-34,076	0,072	-0,029
-467,416	-178,399	0,064	-0,001
-466,401	-200,000	0,022	0,084
-465,386	-51,517	0,059	0,020
-464,372	208,047	0,107	0,122
-463,357	-129,973	-0,088	0,009
-462,343	97,177	-0,086	0,072
-461,328	31,073	0,069	0,043
-460,313	291,401	0,145	0,192
-459,299	148,248	0,090	0,089
-458,284	-26,558	-0,137	0,058
-457,270	129,536	0,049	-0,046
-456,255	259,824	0,047	-0,059
-455,241	-79,076	-0,072	0,018
-454,226	-200,000	-0,002	-0,022
-453,211	62,018	-0,109	0,079
-452,197	800,000	-0,012	0,024
-451,182	-52,752	0,059	-0,020
-450,168	20,619	-0,089	-0,052
-449,153	-74,718	0,089	-0,023
-448,138	-200,000	0,000	0,066
-447,124	64,568	-0,109	0,080
-446,109	800,000	-0,053	0,135
-445,095	-200,000	-0,000	-0,085
-444,080	-140,197	-0,106	0,008
-443,065	245,037	0,057	-0,070
-442,051	800,000	-0,016	-0,039
-441,036	137,939	-0,161	0,153
-440,022	-123,243	-0,079	0,009
-439,007	25,517	0,064	-0,039
-437,992	-200,000	0,007	0,137
-436,978	125,603	0,056	0,052
-435,963	-200,000	0,027	-0,125
-434,949	514,853	-0,044	0,076
-433,934	-200,000	0,009	-0,088
-432,919	-200,000	0,038	-0,125
-431,905	123,962	-0,044	0,041
-430,890	-112,797	-0,064	0,009
-429,876	659,215	0,019	0,036
-428,861	489,697	0,028	0,047
-427,846	-200,000	0,040	0,130
-426,832	181,911	-0,059	-0,063
-425,817	686,576	-0,038	-0,073
-424,803	-71,422	-0,113	0,031
-423,788	800,000	0,049	-0,114
-422,773	-100,614	0,101	-0,018
-421,759	48,190	-0,047	-0,032
-420,744	505,683	0,047	0,079
-419,730	-52,379	0,184	-0,062
-418,715	-200,000	-0,009	-0,113
-417,701	220,252	-0,065	0,076
-416,686	800,000	-0,031	0,099
-415,671	10,782	0,056	0,031
-414,657	-31,909	-0,067	0,027
-413,642	800,000	-0,057	0,153
-412,628	-200,000	0,026	-0,109
-411,613	135,043	0,028	-0,026
-410,598	574,291	-0,027	-0,049
-409,584	79,777	0,046	-0,036
-408,569	-2,053	0,099	-0,051
-407,555	800,000	-0,041	0,095
-406,540	-200,000	0,010	0,036
-405,525	694,701	-0,047	0,090
-404,511	219,669	-0,023	-0,026
-403,496	-103,583	-0,159	-0,027
-402,482	290,204	-0,064	0,085
-401,467	29,195	-0,025	-0,016
-400,452	-58,117	0,046	0,015
-399,438	83,659	-0,067	-0,053
-398,423	800,000	-0,037	0,095
-397,409	112,816	-0,065	0,058
-396,394	-122,081	-0,084	0,010
-395,379	-86,379	0,106	0,023
-394,365	-60,739	-0,059	-0,018
-393,350	720,364	0,058	0,112
-392,336	180,186	-0,051	-0,054
-391,321	-194,480	-0,014	0,000
-390,306	-34,797	0,056	-0,022
-389,292	5,929	-0,036	-0,020
-388,277	-200,000	-0,009	-0,075
-387,263	-200,000	0,020	0,090
-386,248	11,202	-0,029	0,016
-385,233	25,057	0,021	-0,013
-384,219	86,594	-0,050	0,040
-383,204	-43,508	0,054	0,020
-382,190	362,657	0,030	-0,045
-381,175	178,017	-0,068	0,073
-380,160	-24,910	0,097	-0,042
-379,146	800,000	-0,018	-0,040
-378,131	174,756	0,098	-0,103
-377,117	-153,411	-0,052	0,003
-376,102	-166,160	-0,031	-0,001
-375,088	151,022	-0,064	-0,063
-374,073	408,558	0,074	0,114
-373,058	-40,397	0,032	-0,012
-372,044	-79,904	-0,028	-0,007
-371,029	-38,875	0,207	0,079
-370,015	-200,000	0,002	0,060
-369,000	-68,026	-0,120	0,034
-367,985	-200,000	-0,011	-0,051
-366,971	-127,157	0,084	0,009
-365,956	75,072	0,063	0,048
-364,942	-24,991	0,042	0,018
-363,927	492,474	0,089	0,149
-362,912	-83,548	-0,033	0,008
-361,898	136,543	0,031	0,029
-360,883	430,113	0,036	-0,056
-359,869	-200,000	-0,042	-0,193
-358,854	800,000	-0,041	-0,084
-357,839	-26,188	0,084	0,036
-356,825	-200,000	0,001	0,057
-355,810	676,509	0,040	0,076
-354,796	368,194	0,066	-0,097
-353,781	6,998	-0,028	0,015
-352,766	-200,000	-0,010	-0,092
-351,752	-74,750	0,054	0,014
-350,737	-200,000	0,012	0,106
-349,723	-200,000	0,002	0,037
-348,708	190,270	0,081	0,088
-347,693	800,000	0,025	-0,064
-346,679	531,750	0,036	-0,063
-345,664	-157,394	0,099	0,004
-344,650	-136,062	0,056	-0,005
-343,635	-200,000	0,015	-0,053
-342,620	37,470	0,068	-0,043
-341,606	-200,000	-0,009	-0,045
-340,591	172,511	0,033	-0,035
-339,577	94,866	0,026	0,022
-338,562	-127,390	0,132	-0,014
-337,548	58,822	-0,093	0,066
-336,533	12,027	-0,022	-0,012
-335,518	719,008	-0,001	0,003
-334,504	800,000	-0,049	0,152
-333,489	309,223	0,020	-0,027
-332,475	128,135	-0,098	-0,090
-331,460	-54,457	-0,091	-0,030
-330,445	108,332	0,129	-0,112
-329,431	800,000	-0,020	-0,059
-328,416	41,063	-0,115	-0,075
-327,402	-200,000	0,001	-0,064
-326,387	-77,543	-0,056	0,014
-325,372	167,041	-0,111	0,115
-324,358	-200,000	-0,024	-0,105
-323,343	-47,969	0,045	-0,016
-322,329	-200,000	0,004	-0,031
-321,314	-50,199	-0,034	-0,012
-320,299	126,139	0,024	0,022
-319,285	-1,281	-0,050	-0,025
-318,270	-113,949	-0,066	-0,009
-317,256	-68,222	0,057	0,016
-316,241	631,011	0,036	-0,066
-315,226	800,000	-0,021	0,053
-314,212	119,463	-0,103	0,093
-313,197	53,835	-0,071	-0,049
-312,183	-81,749	-0,058	-0,014
-311,168	-142,051	-0,142	0,010
-310,153	-45,565	-0,037	0,013
-309,139	-200,000	0,010	0,068
-308,124	153,183	-0,035	-0,035
-307,110	180,843	0,109	0,116
-306,095	-200,000	-0,004	0,202
-305,080	-146,708	-0,058	0,004
-304,066	-92,652	0,068	0,014
-303,051	165,301	0,060	-0,062
-302,037	-173,946	0,102	0,002
-301,022	-181,704	-0,089	0,001
-300,008	800,000	-0,030	0,064
-298,993	470,453	0,017	-0,027
-297,978	-200,000	-0,009	0,070
-296,964	-18,717	-0,027	0,012
-295,949	-115,218	0,092	-0,012
-294,935	-67,981	-0,119	-0,033
-293,920	-164,513	0,063	0,002
-292,905	-118,161	0,089	0,011
-291,891	3,680	0,021	-0,011
-290,876	646,249	0,067	0,124
-289,862	268,232	0,012	0,015
-288,847	-200,000	-0,005	-0,103
-287,832	119,506	-0,072	-0,064
-286,818	-200,000	0,012	-0,046
-285,803	-57,488	0,065	-0,020
-284,789	492,749	-0,089	0,148
-283,774	98,155	-0,056	0,047
-282,759	800,000	0,038	0,079
-281,745	800,000	-0,055	-0,133
-280,730	712,764	-0,027	-0,052
-279,716	-200,000	0,009	0,044
-278,701	133,349	0,083	-0,078
-277,686	65,298	-0,044	-0,032
-276,672	-46,576	-0,062	0,022
-275,657	-138,425	-0,101	0,008
-274,643	285,618	0,051	-0,066
-273,628	-72,299	-0,119	-0,032
-272,613	800,000	0,024	-0,064
-271,599	782,303	0,039	-0,078
-270,584	175,009	-0,033	-0,034
-269,570	292,869	0,050	0,067
-268,555	-200,000	0,013	-0,159
-267,540	75,043	-0,031	0,024
-266,526	59,606	-0,025	0,018
-265,511	199,284	-0,079	0,088
-264,497	109,935	0,080	-0,070
-263,482	88,804	-0,021	-0,017
-262,467	330,481	0,053	0,075
-261,453	316,934	-0,033	-0,046
-260,438	-200,000	-0,002	0,032
-259,424	31,001	-0,089	-0,055
-258,409	214,519	-0,038	0,044
-257,395	-128,376	-0,014	-0,001
-256,380	660,261	0,095	0,178
-255,365	382,200	0,067	0,100
-254,351	-139,084	0,094	-0,007
-253,336	257,008	0,090	0,112
-252,322	800,000	-0,007	-0,016
-251,307	156,494	-0,060	-0,060
-250,292	800,000	0,080	-0,214
-249,278	-200,000	-0,009	-0,064
-248,263	-43,740	0,174	0,063
-247,249	152,228	-0,103	0,102
-246,234	-200,000	0,046	-0,212
-245,219	420,997	-0,078	-0,121
-244,205	-2,874	-0,134	-0,068
-243,190	-200,000	0,004	0,026
-242,176	-112,984	0,080	-0,011
-241,161	-200,000	-0,003	-0,044
-240,146	-144,262	0,053	-0,004
-239,132	372,743	-0,071	-0,104
-238,117	-13,304	0,052	0,024
-237,103	-176,600	-0,105	0,002
-236,088	-200,000	-0,016	0,093
-235,073	66,246	-0,148	0,108
-234,059	800,000	0,027	0,063
-233,044	800,000	-0,015	0,038
-232,030	-3,943	0,051	-0,025
-231,015	-56,733	-0,092	0,029
-230,000	-34,022	-0,176	-0,070
-228,986	293,650	0,078	-0,104
-227,971	-200,000	-0,006	-0,089
-226,957	-105,423	0,038	-0,006
-225,942	481,752	0,026	0,043
-224,927	230,065	-0,075	-0,088
-223,913	143,477	-0,022	0,022
-222,898	268,093	-0,055	-0,070
-221,884	216,085	0,051	0,058
-220,869	-39,214	-0,064	-0,024
-219,855	800,000	0,031	-0,081
-218,840	64,335	0,053	0,038
-217,825	-200,000	0,009	-0,064
-216,811	-46,012	-0,051	0,018
-215,796	-123,896	-0,054	-0,006
-214,782	375,161	0,048	0,071
-213,767	252,510	-0,047	-0,058
-212,752	-42,450	0,178	0,065
-211,738	10,713	-0,061	-0,033
-210,723	32,287	-0,077	-0,048
-209,709	733,847	0,028	-0,055
-208,694	800,000	0,034	-0,108
-207,679	601,427	-0,053	-0,095
-206,665	708,817	-0,073	-0,141
-205,650	-200,000	0,010	-0,086
-204,636	42,874	-0,063	0,042
-203,621	-76,638	-0,102	0,026
-202,606	-200,000	0,031	-0,101
-201,592	-200,000	0,012	0,062
-200,577	-68,637	0,044	-0,012
-199,563	435,057	-0,055	0,086
-198,548	401,494	0,081	0,124
-197,533	-109,380	0,031	-0,005
-196,519	-96,147	-0,078	-0,015
-195,504	-200,000	-0,016	-0,209
-194,490	-84,213	0,122	-0,028
-193,475	-200,000	0,043	-0,158
-192,460	218,262	0,137	0,159
-191,446	71,809	0,041	-0,031
-190,431	511,295	0,056	-0,095
-189,417	-200,000	-0,014	-0,114
-188,402	208,296	-0,131	-0,148
-187,387	-200,000	0,033	-0,196
-186,373	133,653	-0,032	-0,030
-185,358	-200,000	-0,005	0,084
-184,344	-200,000	0,002	0,045
-183,329	82,506	0,101	0,079
-182,315	53,586	0,114	-0,079
-181,300	318,184	0,017	0,023
-180,285	-200,000	0,008	-0,137
-179,271	180,692	0,084	-0,089
-178,256	-102,204	-0,109	0,019
-177,242	11,277	-0,075	0,041
-176,227	-200,000	0,028	-0,141
-175,212	-106,482	-0,037	-0,006
-174,198	766,076	-0,045	0,089
-173,183	800,000	0,035	0,073
-172,169	-200,000	0,021	0,071
-171,154	-126,195	-0,158	-0,017
-170,139	800,000	0,016	-0,048
-169,125	-200,000	-0,001	-0,094
-168,110	88,227	0,070	0,056
-167,096	800,000	0,031	0,085
-166,081	254,064	-0,053	0,065
-165,066	-51,125	-0,173	0,058
-164,052	335,119	0,034	-0,048
-163,037	-200,000	0,021	-0,082
-162,023	108,990	0,039	0,034
-161,008	-38,439	-0,092	-0,035
-159,993	800,000	0,015	0,044
-158,979	372,374	-0,054	0,079
-157,964	-80,122	-0,028	-0,007
-156,950	-200,000	-0,006	0,107
-155,935	321,363	0,035	-0,048
-154,920	-78,294	-0,082	-0,020
-153,906	191,280	-0,008	-0,009
-152,891	394,065	-0,067	0,100
-151,877	-8,629	-0,016	-0,007
-150,862	18,385	-0,170	-0,097
-149,847	-117,494	-0,132	-0,017
-148,833	-200,000	0,007	0,107
-147,818	131,404	-0,087	-0,080
-146,804	48,648	0,108	-0,073
-145,789	-200,000	-0,040	0,129
-144,775	-82,955	-0,114	-0,026
-143,760	457,008	-0,053	-0,085
-142,745	244,333	-0,085	-0,102
-141,731	-107,327	-0,068	-0,011
-140,716	120,427	0,057	0,051
-139,702	70,997	0,080	0,060
-138,687	450,829	-0,009	-0,014
-137,672	290,716	-0,050	-0,066
-136,658	-21,905	-0,181	-0,079
-135,643	146,520	0,096	-0,093
-134,629	-200,000	0,002	0,026
-133,614	800,000	0,067	0,176
-132,599	-200,000	0,012	-0,086
-131,585	-200,000	0,010	0,046
-130,570	-200,000	0,021	0,114
-129,556	28,506	0,076	-0,046
-128,541	343,120	0,038	-0,053
-127,526	-162,740	-0,046	0,002
-126,512	800,000	-0,026	0,067
-125,497	-115,961	0,132	0,018
-124,483	-200,000	-0,023	-0,090
-123,468	-200,000	0,028	0,112
-122,453	-121,099	-0,077	0,009
-121,439	-19,790	-0,084	0,037
-120,424	800,000	0,034	-0,086
-119,410	3,171	0,056	-0,029
-118,395	-200,000	0,014	0,067
-117,380	-200,000	0,023	-0,090
-116,366	331,023	0,049	-0,068
-115,351	46,354	0,109	-0,072
-114,337	469,336	-0,042	0,067
-113,322	342,875	0,019	-0,027
-112,307	343,565	-0,032	0,045
-111,293	616,940	0,058	-0,106
-110,278	-39,530	-0,170	0,064
-109,264	103,082	0,122	0,103
-108,249	-29,191	-0,076	0,031
-107,234	40,262	0,049	-0,032
-106,220	-56,550	-0,038	-0,012
-105,205	126,009	0,078	0,071
-104,191	-155,230	0,044	-0,002
-103,176	-85,714	-0,067	-0,015
-102,162	-200,000	0,016	0,085
-101,147	150,920	-0,111	-0,109
-100,132	-53,254	0,042	0,014
-99,118	545,553	-0,014	0,024
-98,103	238,270	0,058	0,069
-97,089	709,168	-0,015	0,029
-96,074	-51,914	0,062	-0,021
-95,059	31,713	-0,051	0,031
-94,045	-3,982	-0,007	-0,003
-93,030	-43,488	-0,151	0,055
-92,016	-90,270	-0,107	-0,022
-91,001	-67,018	0,089	-0,025
-89,986	-136,145	-0,065	0,005
-88,972	-44,168	0,108	-0,039
-87,957	-87,202	0,061	0,013
-86,943	-150,708	0,070	0,004
-85,928	800,000	0,015	0,039
-84,913	-103,865	0,063	-0,010
-83,899	800,000	0,047	0,099
-82,884	800,000	-0,018	-0,037
-81,870	155,264	0,038	0,038
-80,855	-75,053	0,071	0,018
-79,840	800,000	-0,017	0,051
-78,826	800,000	0,047	-0,111
-77,811	549,458	-0,057	-0,098
-76,797	96,699	-0,066	-0,054
-75,782	95,363	0,109	-0,090
-74,767	95,994	0,034	0,028
-73,753	158,671	-0,151	0,150
-72,738	-200,000	-0,020	0,116
-71,724	-200,000	-0,002	0,037
-70,709	-76,578	-0,054	-0,013
-69,694	-96,148	0,058	0,011
-68,680	-200,000	-0,008	0,194
-67,665	282,690	0,036	0,047
-66,651	-200,000	0,026	0,088
-65,636	-200,000	-0,015	-0,078
-64,622	800,000	-0,022	0,058
-63,607	320,225	0,005	-0,006
-62,592	-200,000	0,001	-0,218
-61,578	-200,000	-0,007	-0,051
-60,563	362,514	-0,007	-0,010
-59,549	-200,000	0,024	0,099
-58,534	6,574	-2,006	-1,067
-57,519	-200,000	-0,295	-0,977
-56,505	-200,000	-1,281	-5,048
-55,490	-3,790	0,839	0,417
-54,476	800,000	5,277	12,192
-53,461	-200,000	17,736	286,034
-52,446	800,000	728,495	2222,542
-51,432	536,571	1644,528	2812,594
-50,417	109,913	1635,193	1407,361
-49,403	75,969	1286,972	975,799
-48,388	32,006	1027,378	633,932
-47,373	20,187	989,146	571,388
-46,359	18,427	977,033	558,602
-45,344	15,483	973,120	546,711
-44,330	15,746	971,407	546,584
-43,315	15,196	969,667	543,788
-42,300	15,167	968,650	543,104
-41,286	15,160	967,707	542,530
-40,271	15,146	966,700	541,898
-39,257	15,157	965,876	541,449
-38,242	15,200	964,863	541,001
-37,227	15,169	964,028	540,413
-36,213	15,233	962,958	539,998
-35,198	15,108	962,423	539,272
-34,184	15,131	961,631	538,879
-33,169	15,126	960,532	538,226
-32,154	15,232	959,576	538,012
-31,140	15,193	958,777	537,416
-30,125	15,208	958,068	537,047
-29,111	15,168	957,239	536,430
-28,096	15,218	956,456	536,134
-27,082	15,192	955,965	535,752
-26,067	15,166	955,205	535,223
-25,052	15,161	954,356	534,708
-24,038	15,206	953,699	534,463
-23,023	15,152	953,195	533,987
-22,009	15,222	952,520	533,811
-20,994	15,210	951,898	533,404
-19,979	15,223	951,064	532,957
-18,965	15,171	950,542	532,477
-17,950	15,181	949,986	532,178
-16,936	15,195	949,024	531,662
-15,921	15,118	948,549	531,126
-14,906	15,059	947,832	530,519
-13,892	15,081	947,241	530,237
-12,877	15,074	946,494	529,773
-11,863	15,062	945,924	529,394
-10,848	15,096	945,380	529,177
-9,833	15,181	945,007	529,219
-8,819	15,154	944,154	528,635
-7,804	15,158	943,550	528,289
-6,790	15,070	943,126	527,750
-5,775	15,084	942,652	527,508
-4,760	15,091	941,843	527,055
-3,746	15,134	941,288	526,862
-2,731	15,000	940,322	525,876
-1,717	14,972	939,998	525,584
-0,702	14,951	939,231	525,069
0,313	14,696	938,764	524,797
1,327	18,078	936,579	534,178
2,342	27,295	793,409	476,911
3,356	24,132	458,342	270,654
4,371	-3,497	314,303	156,247
5,386	-7,293	295,958	143,277
6,400	-9,472	289,950	138,195
7,415	-9,940	287,498	136,553
8,429	-10,067	285,940	135,677
9,444	-10,073	284,904	135,168
10,459	-10,077	284,470	134,945
11,473	-10,152	283,685	134,489
12,488	-10,186	283,360	134,289
13,502	-10,042	282,777	134,140
14,517	-9,949	282,384	134,032
15,531	-10,270	281,860	133,462
16,546	-10,133	281,492	133,408
17,561	-10,097	281,113	133,251
18,575	-10,127	280,759	133,042
19,590	-10,046	280,383	132,930
20,604	-10,026	280,209	132,855
21,619	-10,215	279,701	132,421
22,634	-10,180	279,582	132,387
23,648	-10,130	279,104	132,197
24,663	-10,185	278,856	132,015
25,677	-9,970	278,645	132,108
26,692	-9,940	278,249	131,937
27,707	-10,051	278,046	131,723
28,721	-10,106	277,780	131,534
29,736	-10,085	277,698	131,502
30,750	-10,150	277,210	131,198
31,765	-10,150	276,892	131,036
32,780	-10,187	276,929	131,007
33,794	-9,983	276,555	131,011
34,809	-10,023	276,206	130,796
35,823	-10,273	275,948	130,427
36,838	-10,277	275,723	130,305
37,853	-10,088	275,395	130,316
38,867	-10,155	275,327	130,209
39,882	-10,180	275,027	130,032
40,896	-10,350	274,816	129,762
41,911	-10,239	274,526	129,717
42,926	-10,080	274,200	129,700
43,940	-10,076	273,966	129,582
44,955	-10,234	273,811	129,349
45,969	-10,314	273,609	129,167
46,984	-10,427	273,272	128,892
47,999	-10,468	272,978	128,703
49,013	-10,678	272,788	128,406
50,028	-10,715	272,505	128,228
51,042	-10,672	272,175	128,101
52,057	-10,724	271,837	127,882
53,071	-10,880	271,890	127,751
54,086	-10,568	271,576	127,881
55,101	-10,677	271,497	127,732
56,115	-10,484	271,310	127,811
57,130	-10,066	271,154	128,113
58,144	-9,943	270,866	128,078
59,159	-9,976	270,699	127,958
60,174	-9,970	270,367	127,795
61,188	-9,932	270,136	127,708
62,203	-9,965	270,121	127,660
63,217	-10,115	269,904	127,408
64,232	-9,995	269,665	127,394
65,247	-9,871	269,344	127,345
66,261	-10,165	269,198	126,995
67,276	-10,261	268,882	126,747
68,290	-10,428	268,672	126,484
69,305	-10,371	268,330	126,364
70,320	-10,377	268,272	126,319
71,334	-10,188	268,085	126,392
72,349	-9,975	267,865	126,472
73,363	-9,844	267,501	126,408
74,378	-10,094	267,401	126,121
75,393	-10,018	267,210	126,090
76,407	-9,984	266,902	125,964
77,422	-10,000	266,766	125,874
78,436	-9,857	266,430	125,834
79,451	-10,090	266,268	125,536
80,466	-9,931	265,927	125,506
81,480	-10,193	265,763	125,182
82,495	-10,048	265,459	125,158
83,509	-10,139	265,473	125,072
84,524	-10,157	265,120	124,878
85,539	-10,159	264,978	124,798
86,553	-10,429	264,811	124,465
87,568	-10,037	264,644	124,728
88,582	-10,057	264,363	124,566
89,597	-10,274	264,086	124,230
90,611	-10,155	263,970	124,272
91,626	-9,958	263,872	124,390
92,641	-10,048	263,543	124,145
93,655	-10,157	263,344	123,942
94,670	-10,114	263,200	123,901
95,684	-10,032	262,996	123,867
96,699	-10,223	262,953	123,665
97,714	-10,111	262,665	123,619
98,728	-10,237	262,363	123,353
99,743	-10,309	262,016	123,116
100,757	-10,423	261,918	122,957
101,772	-10,046	261,563	123,114
102,787	-10,185	261,549	122,973
103,801	-10,198	261,377	122,870
104,816	-9,984	261,295	123,010
105,830	-10,034	261,105	122,865
106,845	-9,985	260,849	122,777
107,860	-9,886	260,662	122,766
108,874	-10,050	260,427	122,499
109,889	-9,980	260,090	122,392
110,903	-10,172	259,964	122,152
111,918	-10,042	259,909	122,230
112,933	-10,061	259,753	122,129
113,947	-9,995	259,563	122,087
114,962	-9,988	259,337	121,976
115,976	-10,166	259,172	121,731
116,991	-10,012	258,879	121,718
118,006	-10,014	258,702	121,622
119,020	-10,076	258,772	121,590
120,035	-10,016	258,407	121,460
121,049	-10,044	258,402	121,422
122,064	-10,024	258,012	121,245
123,079	-9,836	257,796	121,297
124,093	-10,012	257,599	121,040
125,108	-10,329	257,424	120,671
126,122	-10,580	257,156	120,315
127,137	-10,455	256,812	120,252
128,151	-10,312	256,763	120,343
129,166	-10,311	256,519	120,220
130,181	-10,371	256,394	120,098
131,195	-10,331	256,140	120,003
132,210	-10,089	256,000	120,136
133,224	-10,121	255,934	120,067
134,239	-9,969	255,615	120,037
135,254	-10,091	255,526	119,880
136,268	-10,135	255,252	119,703
137,283	-10,343	254,976	119,383
138,297	-10,473	254,774	119,166
139,312	-10,387	254,539	119,120
140,327	-10,120	254,486	119,314
141,341	-9,799	254,258	119,472
142,356	-9,903	254,161	119,327
143,370	-9,936	254,049	119,235
144,385	-9,975	254,007	119,171
145,400	-9,996	253,677	118,988
146,414	-9,864	253,475	118,995
147,429	-10,017	253,276	118,760
148,443	-9,900	253,114	118,774
149,458	-9,779	253,088	118,855
150,473	-9,859	252,794	118,638
151,487	-9,903	252,568	118,483
152,502	-9,896	252,385	118,393
153,516	-9,953	252,260	118,275
154,531	-9,950	252,091	118,188
155,546	-9,992	251,880	118,043
156,560	-9,801	251,792	118,154
157,575	-10,049	251,545	117,817
158,589	-10,168	251,390	117,632
159,604	-9,817	251,162	117,813
160,619	-9,774	250,813	117,675
161,633	-10,033	250,884	117,478
162,648	-9,803	250,557	117,509
163,662	-10,063	250,581	117,291
164,677	-9,911	250,281	117,268
165,692	-9,743	250,150	117,338
166,706	-9,847	250,079	117,206
167,721	-9,907	249,805	117,017
168,735	-9,722	249,606	117,069
169,750	-9,735	249,497	116,997
170,764	-9,822	249,364	116,850
171,779	-9,958	249,310	116,700
172,794	-9,856	249,128	116,691
173,808	-9,845	248,744	116,510
174,823	-10,208	248,591	116,123
175,837	-10,226	248,123	115,879
176,852	-10,014	248,154	116,061
177,867	-9,871	248,166	116,176
178,881	-9,621	247,664	116,139
179,896	-9,847	247,903	116,052
180,910	-9,943	247,737	115,883
181,925	-9,698	247,420	115,929
182,940	-9,664	247,224	115,855
183,954	-9,872	247,154	115,639
184,969	-9,830	246,979	115,582
185,983	-9,830	246,805	115,491
186,998	-9,865	246,649	115,377
188,013	-9,892	246,375	115,217
189,027	-9,641	246,162	115,315
190,042	-9,875	246,110	115,086
191,056	-9,735	245,968	115,126
192,071	-9,711	245,753	115,035
193,086	-9,889	245,617	114,813
194,100	-9,984	245,314	114,583
195,115	-9,706	245,216	114,757
196,129	-9,805	245,038	114,582
197,144	-9,812	244,736	114,424
198,159	-10,035	244,692	114,210
199,173	-9,730	244,344	114,288
200,188	-9,919	244,302	114,103
201,202	-10,218	244,216	113,807
202,217	-10,162	243,686	113,596
203,232	-10,243	243,459	113,413
204,246	-10,021	243,483	113,596
205,261	-9,707	243,411	113,810
206,275	-10,408	243,061	113,063
207,290	-7,151	244,517	116,407
208,304	-0,062	246,536	123,216
209,319	3,366	247,419	126,480
210,334	3,722	247,450	126,779
211,348	4,033	247,438	127,018
212,363	4,267	247,317	127,137
213,377	4,249	247,256	127,080
214,392	4,152	246,916	126,815
215,407	3,904	246,830	126,554
216,421	3,912	246,798	126,534
217,436	4,426	246,488	126,785
218,450	4,440	246,505	126,794
219,465	4,128	246,004	126,269
220,480	3,790	246,011	125,985
221,494	3,921	245,754	125,949
222,509	3,912	245,538	125,820
223,523	3,740	245,392	125,593
224,538	3,399	245,176	125,193
225,553	3,550	244,969	125,200
226,567	3,731	244,833	125,266
227,582	3,668	244,780	125,177
228,596	3,742	244,760	125,215
229,611	3,649	244,458	124,975
230,626	3,402	244,062	124,559
231,640	3,358	244,055	124,509
232,655	3,655	244,000	124,712
233,669	3,570	243,707	124,481
234,684	3,480	243,481	124,283
235,699	3,844	243,410	124,530
236,713	4,074	243,447	124,724
237,728	3,687	243,095	124,220
238,742	3,384	242,902	123,864
239,757	3,280	242,752	123,693
240,772	3,557	242,569	123,813
241,786	3,843	242,270	123,880
242,801	3,610	242,242	123,667
243,815	3,350	242,147	123,397
244,830	3,719	242,015	123,617
245,844	3,852	241,887	123,646
246,859	3,737	241,674	123,434
247,874	3,655	241,451	123,244
248,888	3,651	241,389	123,197
249,903	3,699	241,270	123,165
250,917	3,929	241,089	123,246
251,932	3,927	241,015	123,195
252,947	3,830	240,788	122,990
253,961	3,502	240,651	122,647
254,976	3,755	240,493	122,758
255,990	3,732	240,390	122,676
257,005	3,738	240,075	122,509
258,020	3,369	239,881	122,105
259,034	3,481	239,817	122,150
260,049	3,813	239,716	122,353
261,063	3,668	239,500	122,117
262,078	3,510	239,351	121,904
263,093	3,748	239,229	122,020
264,107	3,693	239,095	121,897
265,122	3,450	238,945	121,617
266,136	3,904	238,692	121,838
267,151	3,836	238,789	121,822
268,166	3,478	238,477	121,368
269,180	3,335	238,268	121,138
270,195	3,960	238,132	121,553
271,209	4,204	238,067	121,701
272,224	3,694	237,936	121,221
273,239	3,327	237,644	120,771
274,253	3,484	237,448	120,784
275,268	3,758	237,322	120,926
276,282	3,723	237,075	120,761
277,297	3,542	237,003	120,572
278,312	3,592	236,916	120,556
279,326	3,613	236,781	120,493
280,341	3,728	236,624	120,493
281,355	3,815	236,589	120,532
282,370	3,926	236,307	120,465
283,384	3,758	236,122	120,229
284,399	3,618	235,914	120,002
285,414	3,448	235,832	119,817
286,428	3,499	235,807	119,833
287,443	3,495	235,604	119,716
288,457	3,591	235,389	119,672
289,472	3,760	235,328	119,762
290,487	3,486	235,157	119,450
291,501	3,549	235,000	119,409
292,516	3,491	234,564	119,132
293,530	3,235	234,523	118,901
294,545	3,605	234,651	119,244
295,560	3,601	234,380	119,092
296,574	3,366	234,113	118,763
297,589	3,572	234,088	118,900
298,603	3,809	234,045	119,051
299,618	3,900	233,846	119,009
300,633	3,737	233,735	118,816
301,647	3,952	233,441	118,822
302,662	4,246	233,539	119,089
303,676	4,065	233,303	118,818
304,691	3,921	233,153	118,620
305,706	4,020	232,953	118,584
306,720	3,962	232,810	118,456
307,735	3,898	232,709	118,345
308,749	3,725	232,569	118,130
309,764	3,652	232,331	117,943
310,779	3,220	232,130	117,498
311,793	3,494	231,937	117,600
312,808	3,474	231,781	117,495
313,822	3,504	231,580	117,406
314,837	3,294	231,444	117,166
315,852	3,434	231,288	117,183
316,866	3,487	231,242	117,190
317,881	3,916	231,093	117,431
318,895	4,036	231,059	117,496
319,910	4,131	231,035	117,545
320,925	3,648	230,683	116,988
321,939	3,383	230,325	116,594
322,954	3,533	230,355	116,713
323,968	3,427	230,069	116,477
324,983	3,603	230,199	116,666
325,997	3,982	230,096	116,892
327,012	3,654	229,900	116,533
328,027	3,719	229,561	116,400
329,041	3,748	229,539	116,401
330,056	3,878	229,588	116,513
331,070	4,234	229,487	116,721
332,085	4,211	229,303	116,600
333,100	4,076	228,903	116,284
334,114	3,822	228,848	116,054
335,129	3,957	228,639	116,039
336,143	3,973	228,672	116,058
337,158	4,200	228,453	116,108
338,173	4,155	228,151	115,910
339,187	3,799	228,119	115,615
340,202	3,992	227,854	115,616
341,216	3,901	227,878	115,550
342,231	3,600	227,698	115,222
343,246	3,688	227,488	115,171
344,260	3,881	227,424	115,274
345,275	4,107	227,487	115,465
346,289	4,201	227,231	115,395
347,304	4,415	226,978	115,415
348,319	3,968	227,061	115,113
349,333	3,925	226,717	114,896
350,348	3,828	226,518	114,713
351,362	3,956	226,490	114,784
352,377	3,910	226,120	114,552
353,392	3,676	226,030	114,322
354,406	3,442	225,925	114,084
355,421	193,425	1323,569	1393,569
356,435	154,944	1457,300	1393,556
