DTS Sentinel unit serial number:	SN410029Multiplexer serial number:	ORYXHardware model number:	OX2-SRSoftware version number:	ORYX F/W v4,00 Oryx Data Collector v3.7.2.0data status	okinstallation	B5 Nyhavnadifferential loss correction	single-endedforward channel	channel 2reverse channel	N/Adate	2023/12/13time	16:37:13forward acquisition time	300,00reverse acquisition time	0,00gamma	499,1914k internal	0,3159k external	0,3159temperature offset calibration	1,0000default loss term (dB/km)	0,3820temperature slope calibration	1,0000multiplexer offset coefficient	1,0000multiplexer slope coefficient	1,0000fibre end	0,00T internal ref (°C)	14,64T ext. ref 1 (°C)	-2,44T ext. ref 2 (°C)	-2,52length (m)	temperature (°C)	Stokes	anti-Stokes-744,400	66,922	0,099	0,074
-743,385	-33,893	-0,271	-0,109
-742,371	-86,401	0,086	0,019
-741,356	34,835	-0,258	-0,166
-740,342	-69,377	0,202	0,057
-739,327	-81,863	-0,228	0,055
-738,312	-200,000	0,012	-0,127
-737,298	-73,004	-0,323	0,087
-736,283	-4,231	0,057	-0,029
-735,269	-144,219	-0,207	-0,014
-734,254	598,025	0,044	0,081
-733,239	-54,429	-0,480	-0,159
-732,225	95,291	0,129	0,108
-731,210	114,604	-0,079	-0,071
-730,196	438,679	-0,061	0,099
-729,181	88,746	-0,067	-0,055
-728,167	-19,666	0,059	0,027
-727,152	63,983	-0,187	0,138
-726,137	690,844	0,008	0,016
-725,123	122,403	-0,076	0,070
-724,108	-90,996	-0,087	-0,018
-723,094	-200,000	0,005	-0,098
-722,079	98,866	0,088	-0,075
-721,064	-127,396	-0,132	-0,014
-720,050	-139,473	0,014	0,001
-719,035	-200,000	-0,013	0,136
-718,021	202,202	-0,050	-0,057
-717,006	295,954	-0,074	0,100
-715,991	800,000	-0,038	-0,114
-714,977	-196,295	-0,108	-0,001
-713,962	800,000	-0,021	0,050
-712,948	9,996	0,078	0,044
-711,933	-82,399	0,058	0,014
-710,918	-200,000	-0,007	0,069
-709,904	-116,913	0,082	-0,011
-708,889	800,000	-0,056	-0,117
-707,875	800,000	-0,036	-0,075
-706,860	-126,418	0,153	-0,017
-705,845	-200,000	-0,044	-0,146
-704,831	-200,000	-0,015	0,075
-703,816	120,333	-0,053	0,048
-702,802	-200,000	0,011	-0,121
-701,787	362,138	-0,091	-0,135
-700,772	-200,000	-0,010	0,054
-699,758	18,101	0,063	-0,037
-698,743	-47,003	-0,043	0,015
-697,729	-134,623	0,129	-0,011
-696,714	-22,436	0,109	0,048
-695,699	693,194	-0,096	0,185
-694,685	170,180	-0,018	0,019
-693,670	181,964	0,029	0,032
-692,656	348,477	-0,005	0,007
-691,641	107,960	0,033	0,029
-690,627	45,010	-0,063	-0,043
-689,612	-146,077	0,036	0,002
-688,597	800,000	-0,025	-0,062
-687,583	-81,399	-0,089	0,021
-686,568	322,619	-0,055	-0,078
-685,554	-147,442	0,091	-0,006
-684,539	-200,000	0,011	-0,080
-683,524	-71,087	-0,056	0,015
-682,510	9,728	0,143	0,080
-681,495	-52,852	-0,048	-0,016
-680,481	38,673	-0,133	-0,087
-679,466	154,853	-0,058	0,059
-678,451	-29,614	-0,094	-0,039
-677,437	-200,000	-0,032	0,107
-676,422	-200,000	-0,030	0,213
-675,408	4,135	0,077	-0,041
-674,393	-0,651	-0,044	-0,023
-673,378	86,408	-0,053	-0,043
-672,364	142,083	0,035	-0,034
-671,349	-143,220	-0,091	-0,006
-670,335	51,378	0,182	0,127
-669,320	10,651	-0,093	-0,052
-668,305	800,000	0,024	-0,067
-667,291	800,000	-0,080	-0,211
-666,276	-89,920	-0,087	0,019
-665,262	-66,230	-0,119	0,035
-664,247	42,646	-0,025	-0,017
-663,232	-200,000	0,011	0,049
-662,218	-24,375	-0,050	-0,022
-661,203	-94,647	-0,088	0,017
-660,189	-6,810	-0,029	-0,014
-659,174	95,376	-0,054	-0,045
-658,159	-34,060	-0,240	-0,096
-657,145	-87,854	-0,057	-0,012
-656,130	-200,000	-0,006	0,045
-655,116	-63,427	0,071	0,021
-654,101	-53,584	-0,108	0,036
-653,086	116,235	0,037	0,033
-652,072	26,524	-0,147	-0,090
-651,057	572,576	0,050	-0,089
-650,043	29,994	0,064	-0,040
-649,028	417,266	0,042	0,066
-648,014	-140,863	0,157	0,012
-646,999	-182,598	-0,030	-0,000
-645,984	245,702	0,094	0,117
-644,970	-200,000	0,015	-0,074
-643,955	524,671	-0,039	-0,067
-642,941	-44,053	-0,188	-0,069
-641,926	800,000	0,018	0,055
-640,911	800,000	0,057	-0,142
-639,897	316,461	-0,141	0,196
-638,882	49,223	0,057	0,039
-637,868	-64,221	0,105	-0,031
-636,853	480,449	0,049	0,082
-635,838	566,103	-0,039	-0,069
-634,824	239,903	-0,095	-0,116
-633,809	33,322	-0,143	0,091
-632,795	8,839	0,161	0,089
-631,780	800,000	0,038	-0,079
-630,765	-200,000	0,019	-0,066
-629,751	-86,080	0,049	-0,011
-628,736	-54,047	0,137	-0,046
-627,722	687,896	-0,040	-0,077
-626,707	800,000	-0,002	-0,006
-625,692	800,000	-0,035	-0,110
-624,678	-148,207	0,122	0,007
-623,663	250,372	0,059	-0,073
-622,649	-200,000	0,005	-0,084
-621,634	422,046	-0,080	-0,126
-620,619	780,150	-0,026	-0,052
-619,605	248,861	0,083	-0,103
-618,590	427,550	-0,092	-0,146
-617,576	170,390	-0,009	0,009
-616,561	454,849	-0,049	-0,081
-615,546	-183,446	-0,051	-0,001
-614,532	-165,286	-0,090	0,003
-613,517	183,541	0,068	-0,074
-612,503	766,765	-0,065	-0,131
-611,488	-200,000	-0,026	0,095
-610,474	260,304	-0,129	0,164
-609,459	-114,742	0,111	0,015
-608,444	60,259	-0,065	-0,047
-607,430	-48,776	-0,077	0,027
-606,415	391,046	0,091	0,138
-605,401	-8,081	-0,081	0,040
-604,386	-199,426	-0,018	0,000
-603,371	800,000	-0,056	0,157
-602,357	223,946	0,098	0,116
-601,342	14,880	-0,109	0,062
-600,328	-76,862	-0,174	-0,044
-599,313	-117,039	-0,034	0,004
-598,298	800,000	-0,025	-0,062
-597,284	-200,000	0,019	0,080
-596,269	-200,000	0,012	0,160
-595,255	184,004	0,050	-0,055
-594,240	-134,498	-0,110	-0,010
-593,225	-79,086	-0,129	-0,032
-592,211	-59,861	-0,083	0,026
-591,196	-200,000	-0,023	-0,095
-590,182	95,089	0,095	-0,079
-589,167	30,675	0,037	-0,023
-588,152	150,713	-0,075	-0,075
-587,138	-98,379	-0,137	-0,025
-586,123	194,229	0,072	-0,080
-585,109	-79,893	-0,228	-0,056
-584,094	800,000	0,018	-0,046
-583,079	389,927	0,048	0,073
-582,065	-200,000	0,002	-0,013
-581,050	-200,000	0,027	-0,105
-580,036	-200,000	-0,003	0,024
-579,021	800,000	0,033	0,102
-578,006	-200,000	-0,112	0,000
-576,992	88,864	-0,077	-0,063
-575,977	-173,156	0,038	-0,001
-574,963	-76,103	0,006	0,002
-573,948	800,000	0,031	0,092
-572,934	47,912	0,032	0,022
-571,919	261,516	-0,031	0,039
-570,904	-200,000	0,041	-0,161
-569,890	62,206	-0,068	-0,049
-568,875	-98,082	0,169	0,032
-567,861	-200,000	0,015	-0,087
-566,846	-2,968	0,159	0,081
-565,831	800,000	-0,021	-0,062
-564,817	-200,000	0,006	-0,021
-563,802	181,948	0,013	0,015
-562,788	15,121	-0,075	0,043
-561,773	-200,000	0,010	-0,055
-560,758	800,000	0,029	0,062
-559,744	62,389	0,015	0,011
-558,729	-32,964	0,070	0,028
-557,715	207,991	-0,055	-0,063
-556,700	-200,000	-0,003	0,017
-555,685	-200,000	0,009	-0,069
-554,671	800,000	0,086	-0,204
-553,656	281,180	0,093	-0,122
-552,642	148,224	-0,062	-0,062
-551,627	-200,000	0,013	0,133
-550,612	-200,000	-0,000	0,057
-549,598	575,451	-0,083	-0,149
-548,583	202,414	-0,095	-0,108
-547,569	-54,738	0,098	0,032
-546,554	-193,662	0,145	0,001
-545,539	-86,049	0,104	-0,023
-544,525	392,105	-0,036	0,055
-543,510	-200,000	-0,034	-0,172
-542,496	522,305	-0,067	0,115
-541,481	-22,475	0,097	0,043
-540,466	-200,000	-0,042	0,143
-539,452	563,633	-0,057	-0,102
-538,437	8,735	0,150	0,083
-537,423	14,393	-0,126	0,072
-536,408	-79,110	-0,041	0,010
-535,393	43,466	0,098	-0,065
-534,379	-116,265	-0,157	-0,021
-533,364	387,804	0,050	0,076
-532,350	-200,000	-0,004	0,078
-531,335	-157,198	0,179	0,008
-530,321	78,317	-0,019	0,014
-529,306	336,552	0,019	-0,027
-528,291	-200,000	-0,009	-0,073
-527,277	-200,000	0,014	0,055
-526,262	526,212	-0,026	0,045
-525,248	-200,000	0,009	0,123
-524,233	12,035	0,053	0,030
-523,218	-7,999	0,043	-0,021
-522,204	21,850	0,075	0,045
-521,189	115,508	0,070	-0,063
-520,175	-157,179	-0,129	-0,006
-519,160	800,000	-0,028	0,082
-518,145	800,000	-0,028	0,063
-517,131	80,894	-0,063	0,050
-516,116	-200,000	0,057	-0,235
-515,102	315,336	-0,048	0,067
-514,087	-183,390	-0,166	0,002
-513,072	-200,000	0,016	-0,100
-512,058	800,000	-0,064	-0,176
-511,043	-192,087	0,038	0,000
-510,029	-33,027	-0,057	0,023
-509,014	20,956	0,077	0,045
-507,999	-56,193	-0,075	0,024
-506,985	-200,000	-0,021	-0,131
-505,970	-109,036	0,062	-0,009
-504,956	743,630	0,019	0,037
-503,941	77,980	0,095	0,074
-502,926	40,762	0,090	0,059
-501,912	-8,830	0,027	-0,013
-500,897	148,435	0,054	-0,054
-499,883	572,735	-0,038	0,068
-498,868	-200,000	-0,006	-0,023
-497,853	800,000	-0,019	0,054
-496,839	401,234	0,050	0,076
-495,824	-15,222	0,170	0,079
-494,810	-192,581	-0,055	0,000
-493,795	219,274	0,109	0,128
-492,781	-200,000	0,018	-0,057
-491,766	-200,000	-0,004	-0,031
-490,751	-200,000	0,005	-0,151
-489,737	14,511	-0,088	0,050
-488,722	-56,209	-0,088	0,029
-487,708	485,144	0,050	0,083
-486,693	100,037	-0,121	0,102
-485,678	281,538	0,060	0,079
-484,664	-200,000	0,029	-0,099
-483,649	-200,000	-0,017	0,062
-482,635	-200,000	0,004	-0,017
-481,620	38,735	0,048	0,031
-480,605	84,709	0,178	0,142
-479,591	-133,486	0,050	-0,005
-478,576	-200,000	0,035	-0,118
-477,562	92,648	-0,088	0,072
-476,547	569,043	-0,018	0,033
-475,532	6,584	0,056	-0,030
-474,518	-200,000	-0,008	-0,052
-473,503	-200,000	0,002	-0,050
-472,489	102,068	0,101	0,086
-471,474	-200,000	-0,004	-0,025
-470,459	103,416	0,050	0,043
-469,445	311,013	-0,099	-0,136
-468,430	324,200	-0,063	-0,088
-467,416	-130,220	-0,099	-0,010
-466,401	644,513	0,075	0,140
-465,386	-133,391	-0,091	-0,008
-464,372	800,000	-0,008	-0,018
-463,357	277,300	-0,023	-0,029
-462,343	34,070	-0,078	0,050
-461,328	-56,998	0,048	-0,015
-460,313	80,347	-0,127	-0,099
-459,299	800,000	-0,069	-0,148
-458,284	98,767	0,011	0,009
-457,270	-176,419	0,106	0,002
-456,255	-88,430	-0,049	0,011
-455,241	468,782	0,013	-0,022
-454,226	-200,000	0,037	-0,171
-453,211	-89,744	0,029	0,006
-452,197	-200,000	0,011	0,059
-451,182	257,643	0,048	0,060
-450,168	-200,000	0,008	-0,121
-449,153	-112,885	0,036	0,005
-448,138	80,958	0,079	0,062
-447,124	-200,000	-0,012	-0,127
-446,109	230,469	-0,069	0,083
-445,095	348,071	0,038	0,055
-444,080	248,906	-0,070	0,087
-443,065	-200,000	0,049	0,188
-442,051	-77,859	-0,110	-0,027
-441,036	-200,000	-0,032	-0,115
-440,022	-7,283	-0,110	0,054
-439,007	-200,000	0,005	-0,062
-437,992	-200,000	-0,021	0,086
-436,978	-200,000	0,032	0,146
-435,963	800,000	0,013	0,032
-434,949	-200,000	-0,002	0,012
-433,934	-132,728	0,066	0,006
-432,919	-200,000	-0,022	-0,098
-431,905	800,000	-0,033	-0,102
-430,890	800,000	-0,027	0,084
-429,876	-200,000	-0,005	-0,115
-428,861	-11,965	0,135	0,064
-427,846	-200,000	-0,005	0,045
-426,832	206,289	-0,071	-0,081
-425,817	-200,000	0,015	-0,185
-424,803	95,166	-0,074	-0,062
-423,788	-149,612	0,134	0,008
-422,773	-23,709	-0,148	0,064
-421,759	74,245	0,036	-0,027
-420,744	363,824	-0,047	-0,068
-419,730	800,000	-0,007	0,022
-418,715	-71,519	-0,085	-0,023
-417,701	426,719	0,031	0,048
-416,686	-135,750	0,152	-0,013
-415,671	51,796	-0,104	-0,072
-414,657	306,943	-0,043	0,059
-413,642	515,119	-0,036	-0,062
-412,628	-81,135	0,075	0,018
-411,613	153,659	0,074	-0,073
-410,598	66,695	-0,014	-0,010
-409,584	114,518	0,026	0,023
-408,569	342,950	-0,052	0,074
-407,555	328,294	-0,087	0,122
-406,540	-91,928	-0,022	-0,005
-405,525	-200,000	0,017	-0,109
-404,511	687,315	-0,070	-0,134
-403,496	191,660	0,050	0,055
-402,482	474,469	0,045	-0,074
-401,467	-200,000	-0,012	0,052
-400,452	709,150	-0,063	0,121
-399,438	-200,000	-0,002	0,019
-398,423	478,805	0,078	-0,128
-397,409	-23,892	0,132	0,057
-396,394	46,336	-0,016	-0,010
-395,379	-1,707	-0,094	-0,048
-394,365	48,136	-0,083	-0,056
-393,350	-161,179	0,159	-0,006
-392,336	-30,882	0,077	-0,032
-391,321	26,992	0,112	-0,068
-390,306	-91,449	-0,127	-0,026
-389,292	176,163	0,061	-0,065
-388,277	454,986	-0,032	-0,051
-387,263	117,990	-0,029	0,026
-386,248	-157,321	0,095	0,004
-385,233	800,000	0,058	0,122
-384,219	346,528	-0,113	-0,162
-383,204	-147,853	0,095	-0,006
-382,190	-109,213	-0,124	-0,019
-381,175	-200,000	0,010	-0,040
-380,160	-135,013	0,143	0,012
-379,146	-200,000	0,013	0,098
-378,131	697,066	-0,069	0,132
-377,117	-104,174	0,117	-0,020
-376,102	-101,355	0,051	0,009
-375,088	442,972	-0,026	-0,042
-374,073	-200,000	-0,009	-0,131
-373,058	800,000	0,010	-0,028
-372,044	-2,822	0,117	-0,059
-371,029	800,000	-0,073	-0,152
-370,015	-70,593	0,174	-0,047
-369,000	23,732	-0,146	0,087
-367,985	-200,000	0,011	-0,075
-366,971	-15,484	-0,075	-0,035
-365,956	-200,000	-0,010	0,113
-364,942	49,723	-0,093	0,063
-363,927	156,753	-0,054	-0,055
-362,912	-200,000	-0,007	-0,042
-361,898	-119,066	-0,122	-0,015
-360,883	-200,000	-0,020	0,097
-359,869	645,451	-0,015	-0,028
-358,854	-200,000	-0,018	-0,155
-357,839	62,345	0,139	0,101
-356,825	-166,497	-0,010	-0,000
-355,810	137,514	0,039	-0,037
-354,796	-99,594	-0,131	0,024
-353,781	49,576	-0,044	0,030
-352,766	-54,818	0,083	-0,027
-351,752	-53,210	0,070	-0,023
-350,737	74,183	-0,051	-0,039
-349,723	-90,685	0,183	0,038
-348,708	281,795	-0,048	0,063
-347,693	800,000	-0,035	-0,100
-346,679	-131,330	-0,084	-0,008
-345,664	-146,023	-0,067	-0,004
-344,650	231,611	0,096	-0,115
-343,635	11,872	-0,090	-0,050
-342,620	389,319	0,071	0,108
-341,606	57,486	-0,135	-0,095
-340,591	-38,471	0,051	0,019
-339,577	0,829	-0,043	0,022
-338,562	-72,282	-0,101	0,027
-337,548	-23,135	0,141	-0,061
-336,533	-4,746	-0,064	0,032
-335,518	-200,000	-0,011	0,048
-334,504	22,026	-0,091	0,053
-333,489	703,235	-0,014	-0,026
-332,475	-116,083	-0,081	-0,011
-331,460	271,250	-0,088	-0,112
-330,445	-11,420	-0,044	-0,021
-329,431	448,558	0,098	-0,158
-328,416	159,408	0,055	0,055
-327,402	800,000	0,052	-0,114
-326,387	800,000	0,042	0,095
-325,372	292,554	-0,014	-0,018
-324,358	-157,243	0,041	0,002
-323,343	-200,000	0,010	0,060
-322,329	111,838	-0,091	0,080
-321,314	800,000	-0,017	0,043
-320,299	253,443	-0,068	-0,084
-319,285	-200,000	-0,005	-0,080
-318,270	13,468	-0,150	-0,084
-317,256	58,837	0,122	0,087
-316,241	-82,653	0,013	0,003
-315,226	71,204	0,162	-0,122
-314,212	518,303	-0,065	0,110
-313,197	465,096	-0,032	0,053
-312,183	12,536	0,147	0,082
-311,168	302,653	-0,012	-0,016
-310,153	-86,312	-0,035	-0,008
-309,139	-200,000	0,009	-0,105
-308,124	9,678	-0,021	0,011
-307,110	290,445	0,075	0,099
-306,095	634,180	-0,053	0,098
-305,080	311,146	0,049	-0,067
-304,066	-39,199	-0,047	-0,018
-303,051	379,617	-0,100	-0,149
-302,037	800,000	0,051	-0,120
-301,022	91,941	0,102	0,083
-300,008	800,000	0,014	-0,030
-298,993	-66,645	0,078	0,022
-297,978	800,000	-0,028	0,084
-296,964	-200,000	0,017	0,090
-295,949	250,444	-0,074	-0,091
-294,935	134,023	0,063	-0,059
-293,920	343,877	-0,042	0,060
-292,905	-88,310	-0,123	-0,026
-291,891	-200,000	0,012	-0,088
-290,876	-98,296	0,130	-0,024
-289,862	800,000	0,007	-0,023
-288,847	-56,521	-0,031	-0,010
-287,832	137,377	-0,078	-0,073
-286,818	265,967	-0,081	0,103
-285,803	235,647	0,084	0,100
-284,789	800,000	0,038	0,106
-283,774	800,000	0,010	0,021
-282,759	775,316	0,013	0,027
-281,745	-200,000	0,020	-0,067
-280,730	-200,000	-0,018	-0,070
-279,716	-200,000	0,019	-0,065
-278,701	800,000	-0,016	-0,049
-277,686	166,961	0,077	0,080
-276,672	-110,742	0,070	-0,010
-275,657	-19,502	0,038	0,017
-274,643	800,000	-0,043	0,107
-273,628	-200,000	0,008	0,098
-272,613	21,053	0,049	0,029
-271,599	211,022	0,045	0,051
-270,584	-200,000	-0,001	0,047
-269,570	-200,000	-0,015	0,053
-268,555	-89,090	0,067	-0,014
-267,540	191,749	0,062	0,068
-266,526	-200,000	-0,017	0,076
-265,511	800,000	-0,067	0,134
-264,497	800,000	-0,035	0,085
-263,482	-48,362	-0,015	-0,005
-262,467	-150,390	0,123	0,007
-261,453	800,000	0,044	0,140
-260,438	-35,223	-0,028	-0,011
-259,424	462,490	-0,002	-0,003
-258,409	-40,722	0,076	-0,028
-257,395	181,876	0,035	-0,037
-256,380	-200,000	0,011	0,078
-255,365	-200,000	-0,024	0,000
-254,351	-200,000	-0,009	0,052
-253,336	-200,000	0,003	-0,148
-252,322	800,000	0,036	0,073
-251,307	230,721	-0,105	0,124
-250,292	-200,000	0,031	0,132
-249,278	800,000	-0,060	0,138
-248,263	-200,000	-0,028	0,092
-247,249	-200,000	0,025	0,164
-246,234	800,000	0,042	0,106
-245,219	-178,729	-0,130	0,002
-244,205	-200,000	-0,006	-0,089
-243,190	650,911	0,010	-0,019
-242,176	97,637	0,043	-0,035
-241,161	-200,000	-0,002	-0,021
-240,146	257,022	0,057	-0,071
-239,132	-98,030	-0,126	0,023
-238,117	402,227	-0,060	-0,091
-237,103	681,974	-0,055	-0,104
-236,088	-1,381	-0,078	-0,040
-235,073	7,672	0,095	0,051
-234,059	-200,000	-0,003	0,161
-233,044	-12,198	0,028	-0,013
-232,030	213,030	-0,068	-0,078
-231,015	251,164	-0,040	0,049
-230,000	800,000	-0,044	0,126
-228,986	800,000	-0,034	-0,101
-227,971	-74,714	0,058	0,015
-226,957	-200,000	0,022	0,080
-225,942	-112,073	0,038	-0,005
-224,927	-40,680	-0,027	0,010
-223,913	110,198	0,047	0,041
-222,898	-200,000	-0,003	-0,014
-221,884	18,468	-0,108	0,062
-220,869	-94,166	0,077	-0,015
-219,855	-200,000	-0,007	0,113
-218,840	124,635	-0,062	0,056
-217,825	413,297	0,035	0,054
-216,811	221,303	-0,114	0,132
-215,796	766,637	0,058	-0,114
-214,782	-200,000	0,021	-0,068
-213,767	65,180	0,093	-0,068
-212,752	151,792	0,091	0,090
-211,738	-181,560	0,125	-0,002
-210,723	214,408	0,073	0,084
-209,709	-23,361	-0,097	0,042
-208,694	800,000	-0,036	0,092
-207,679	-200,000	0,007	-0,051
-206,665	133,747	-0,080	0,075
-205,650	-200,000	-0,007	0,042
-204,636	800,000	-0,017	0,038
-203,621	563,362	0,004	-0,008
-202,606	486,366	-0,072	-0,118
-201,592	219,454	-0,155	-0,179
-200,577	238,890	0,021	0,026
-199,563	-76,386	0,020	0,005
-198,548	118,479	0,042	0,038
-197,533	89,405	-0,078	-0,062
-196,519	756,497	0,032	-0,063
-195,504	-27,761	0,026	0,011
-194,490	-106,523	0,102	0,016
-193,475	800,000	-0,018	0,042
-192,460	-45,847	-0,153	0,054
-191,446	-117,768	0,034	0,004
-190,431	-200,000	-0,001	0,012
-189,417	232,049	-0,042	-0,050
-188,402	241,597	0,093	-0,113
-187,387	-110,600	-0,187	0,028
-186,373	800,000	0,007	0,017
-185,358	611,071	0,072	-0,131
-184,344	245,823	0,016	0,020
-183,329	412,971	-0,038	-0,059
-182,315	0,762	0,175	-0,090
-181,300	-155,728	-0,069	0,003
-180,285	42,496	0,057	-0,037
-179,271	-200,000	0,028	0,165
-178,256	-42,996	0,065	-0,024
-177,242	800,000	0,038	0,082
-176,227	-130,866	0,115	-0,011
-175,212	167,192	-0,022	-0,022
-174,198	-52,323	0,113	-0,037
-173,183	255,625	0,041	-0,051
-172,169	794,652	-0,087	-0,174
-171,154	-132,130	0,043	0,004
-170,139	107,804	0,021	0,018
-169,125	10,860	-0,119	0,065
-168,110	185,306	0,107	0,114
-167,096	-88,366	-0,023	0,005
-166,081	268,103	-0,063	-0,080
-165,066	-35,948	0,078	-0,030
-164,052	65,967	0,006	-0,004
-163,037	-200,000	-0,006	0,090
-162,023	-200,000	0,021	0,075
-161,008	736,295	-0,062	0,121
-159,993	133,319	-0,030	0,028
-158,979	-92,209	0,037	0,007
-157,964	298,352	-0,087	-0,115
-156,950	433,495	-0,039	0,060
-155,935	-200,000	0,038	0,182
-154,920	532,186	0,019	-0,033
-153,906	-200,000	0,013	0,101
-152,891	164,059	-0,087	0,089
-151,877	-200,000	0,009	0,063
-150,862	800,000	-0,078	-0,161
-149,847	-200,000	-0,034	-0,172
-148,833	-200,000	-0,001	-0,018
-147,818	800,000	0,062	0,130
-146,804	-73,879	0,063	0,016
-145,789	-200,000	0,025	0,084
-144,775	-18,596	-0,200	-0,089
-143,760	-93,858	-0,108	-0,021
-142,745	-196,812	-0,073	0,000
-141,731	-200,000	-0,026	0,141
-140,716	-200,000	-0,010	0,053
-139,702	626,758	-0,076	0,139
-138,687	-200,000	-0,018	0,105
-137,672	403,397	0,030	-0,045
-136,658	298,254	0,049	0,065
-135,643	-152,654	-0,157	0,008
-134,629	-200,000	0,003	0,135
-133,614	-43,345	-0,079	-0,028
-132,599	-200,000	-0,002	0,055
-131,585	-36,383	0,083	-0,032
-130,570	365,957	0,007	-0,011
-129,556	-65,508	-0,095	0,027
-128,541	-200,000	0,000	0,047
-127,526	-200,000	0,006	0,049
-126,512	-200,000	0,013	0,072
-125,497	-200,000	0,013	0,074
-124,483	-200,000	-0,024	0,109
-123,468	503,358	0,028	0,047
-122,453	-23,860	0,033	-0,014
-121,439	-76,243	-0,067	-0,017
-120,424	376,732	-0,081	0,120
-119,410	-90,731	0,032	-0,007
-118,395	-9,528	0,047	-0,022
-117,380	198,699	-0,069	0,076
-116,366	156,436	-0,125	0,125
-115,351	314,669	-0,046	-0,062
-114,337	-195,071	-0,160	-0,001
-113,322	233,784	-0,074	0,087
-112,307	56,237	0,060	0,042
-111,293	-80,958	0,121	-0,029
-110,278	-57,575	-0,028	-0,009
-109,264	-108,191	-0,091	0,014
-108,249	-200,000	-0,003	-0,081
-107,234	439,861	-0,031	-0,048
-106,220	-63,841	0,106	0,031
-105,205	-77,389	-0,157	-0,039
-104,191	-200,000	0,041	0,155
-103,176	-200,000	-0,014	-0,047
-102,162	56,702	-0,054	-0,038
-101,147	-200,000	0,018	0,083
-100,132	-200,000	0,022	0,069
-99,118	800,000	-0,046	0,106
-98,103	-76,015	-0,070	-0,018
-97,089	98,107	0,062	0,052
-96,074	-7,124	0,007	0,003
-95,059	-200,000	-0,013	0,096
-94,045	-200,000	-0,020	-0,086
-93,030	-200,000	0,011	0,066
-92,016	77,143	0,097	-0,074
-91,001	-200,000	0,006	-0,167
-89,986	800,000	-0,020	0,051
-88,972	220,222	0,127	0,146
-87,957	361,255	0,113	0,163
-86,943	800,000	-0,025	-0,054
-85,928	232,288	0,037	-0,044
-84,913	-200,000	0,021	-0,090
-83,899	160,132	0,067	0,067
-82,884	-200,000	0,006	-0,068
-81,870	-200,000	0,006	0,082
-80,855	154,959	-0,089	0,088
-79,840	-91,222	-0,069	0,014
-78,826	-81,359	0,020	-0,005
-77,811	562,377	-0,044	-0,076
-76,797	-111,688	0,080	-0,012
-75,782	203,226	0,095	-0,105
-74,767	800,000	-0,021	0,047
-73,753	6,647	-0,037	0,020
-72,738	-200,000	0,046	0,162
-71,724	99,227	-0,089	-0,074
-70,709	85,777	-0,041	-0,033
-69,694	66,716	0,093	-0,068
-68,680	-200,000	0,042	-0,235
-67,665	-200,000	0,013	0,119
-66,651	-200,000	-0,001	0,082
-65,636	-200,000	0,014	0,106
-64,622	1,324	-0,020	0,011
-63,607	800,000	-0,006	0,013
-62,592	-200,000	0,003	0,074
-61,578	-200,000	-0,012	0,051
-60,563	-200,000	0,008	0,168
-59,549	800,000	-0,028	0,083
-58,534	-3,568	-2,018	-1,003
-57,519	-200,000	-0,186	-0,885
-56,505	-200,000	-1,306	-4,877
-55,490	49,953	0,877	0,592
-54,476	800,000	5,201	11,904
-53,461	-200,000	18,166	297,039
-52,446	800,000	732,120	2254,688
-51,432	539,738	1648,856	2825,380
-50,417	109,002	1637,874	1404,600
-49,403	73,990	1288,155	968,292
-48,388	31,009	1028,206	630,737
-47,373	20,112	989,806	571,238
-46,359	18,090	977,841	557,680
-45,344	14,995	973,885	545,270
-44,330	15,185	972,538	545,115
-43,315	14,708	970,399	542,338
-42,300	14,631	969,247	541,420
-41,286	14,669	968,340	541,018
-40,271	14,605	967,434	540,281
-39,257	14,660	966,358	539,837
-38,242	14,683	965,686	539,516
-37,227	14,696	964,702	538,987
-36,213	14,631	963,980	538,351
-35,198	14,593	963,000	537,660
-34,184	14,699	962,268	537,573
-33,169	14,613	961,339	536,753
-32,154	14,695	960,353	536,447
-31,140	14,631	959,624	535,813
-30,125	14,720	958,722	535,575
-29,111	14,629	958,056	534,886
-28,096	14,703	957,329	534,698
-27,082	14,692	956,474	534,165
-26,067	14,679	955,844	533,748
-25,052	14,700	955,118	533,389
-24,038	14,659	954,380	532,825
-23,023	14,661	953,743	532,456
-22,009	14,789	952,909	532,379
-20,994	14,695	952,419	531,783
-19,979	14,661	951,848	531,333
-18,965	14,716	951,143	531,093
-17,950	14,672	950,557	530,604
-16,936	14,572	950,004	529,957
-15,921	14,635	949,205	529,692
-14,906	14,559	948,502	529,036
-13,892	14,525	948,058	528,657
-12,877	14,553	947,049	528,163
-11,863	14,524	946,769	527,892
-10,848	14,575	946,078	527,651
-9,833	14,615	945,702	527,546
-8,819	14,603	945,037	527,118
-7,804	14,634	944,244	526,753
-6,790	14,574	943,701	526,238
-5,775	14,583	943,210	525,971
-4,760	14,608	942,538	525,655
-3,746	14,536	941,908	525,055
-2,731	14,453	941,151	524,351
-1,717	14,386	940,586	523,802
-0,702	14,406	939,899	523,462
0,313	14,175	939,394	523,241
1,327	17,352	936,920	531,826
2,342	26,000	793,216	473,145
3,356	22,116	458,492	267,523
4,371	-5,138	314,863	154,685
5,386	-9,383	296,724	141,457
6,400	-11,466	290,564	136,437
7,415	-11,282	288,248	135,519
8,429	-11,347	286,781	134,753
9,444	-11,434	285,939	134,260
10,459	-11,154	285,334	134,238
11,473	-11,439	284,694	133,647
12,488	-11,430	284,240	133,430
13,502	-11,440	283,618	133,117
14,517	-11,171	283,380	133,255
15,531	-10,863	282,965	133,345
16,546	-10,695	282,768	133,403
17,561	-10,775	282,212	133,051
18,575	-10,713	282,034	133,015
19,590	-10,854	281,544	132,637
20,604	-10,649	281,279	132,698
21,619	-10,835	280,821	132,291
22,634	-10,627	280,556	132,354
23,648	-10,810	280,209	132,003
24,663	-10,787	279,915	131,874
25,677	-10,730	279,697	131,815
26,692	-10,855	279,356	131,523
27,707	-10,618	279,150	131,640
28,721	-10,904	278,835	131,208
29,736	-10,752	278,599	131,229
30,750	-10,740	278,290	131,084
31,765	-10,935	278,046	130,772
32,780	-10,755	277,873	130,849
33,794	-10,727	277,532	130,704
34,809	-10,794	277,260	130,501
35,823	-10,795	277,018	130,374
36,838	-10,777	276,846	130,299
37,853	-10,821	276,605	130,132
38,867	-11,064	276,512	129,848
39,882	-10,793	276,002	129,851
40,896	-10,778	275,868	129,791
41,911	-10,752	275,514	129,638
42,926	-11,001	275,352	129,316
43,940	-10,859	275,167	129,351
44,955	-10,932	274,740	129,070
45,969	-11,007	274,724	128,980
46,984	-11,042	274,348	128,760
47,999	-11,258	274,268	128,509
49,013	-11,306	273,922	128,291
50,028	-11,238	273,569	128,178
51,042	-11,519	273,343	127,798
52,057	-11,536	273,105	127,659
53,071	-11,324	272,947	127,772
54,086	-11,355	272,581	127,560
55,101	-11,323	272,523	127,551
56,115	-11,146	272,435	127,662
57,130	-10,991	272,211	127,690
58,144	-10,858	271,948	127,678
59,159	-10,995	271,728	127,437
60,174	-10,921	271,300	127,293
61,188	-10,779	271,218	127,375
62,203	-10,743	270,964	127,277
63,217	-10,763	270,821	127,180
64,232	-10,808	270,633	127,040
65,247	-10,869	270,319	126,825
66,261	-10,801	270,188	126,814
67,276	-10,840	269,898	126,631
68,290	-11,171	269,609	126,181
69,305	-11,117	269,327	126,086
70,320	-11,094	269,277	126,073
71,334	-10,981	269,085	126,075
72,349	-10,874	268,814	126,034
73,363	-11,082	268,625	125,745
74,378	-10,922	268,391	125,770
75,393	-10,707	268,074	125,807
76,407	-10,845	267,935	125,604
77,422	-10,857	267,730	125,486
78,436	-10,804	267,502	125,417
79,451	-11,002	267,203	125,085
80,466	-10,936	267,063	125,069
81,480	-10,970	266,805	124,906
82,495	-11,142	266,644	124,663
83,509	-10,989	266,453	124,702
84,524	-10,996	266,140	124,537
85,539	-11,044	265,980	124,408
86,553	-11,057	265,744	124,275
87,568	-11,094	265,644	124,184
88,582	-11,153	265,389	124,000
89,597	-11,050	265,221	124,003
90,611	-11,041	265,012	123,903
91,626	-10,872	264,775	123,933
92,641	-10,857	264,536	123,823
93,655	-10,906	264,258	123,638
94,670	-10,893	264,088	123,559
95,684	-10,957	263,908	123,407
96,699	-11,107	263,861	123,240
97,714	-11,084	263,616	123,134
98,728	-11,010	263,291	123,037
99,743	-11,167	263,095	122,795
100,757	-11,263	263,010	122,659
101,772	-11,120	262,846	122,699
102,787	-11,035	262,536	122,619
103,801	-11,002	262,362	122,556
104,816	-10,936	262,068	122,466
105,830	-10,996	262,113	122,423
106,845	-10,964	261,711	122,253
107,860	-10,874	261,609	122,275
108,874	-11,261	261,331	121,790
109,889	-11,155	261,083	121,758
110,903	-11,266	260,983	121,602
111,918	-11,154	260,753	121,583
112,933	-11,069	260,518	121,538
113,947	-11,046	260,394	121,489
114,962	-11,003	260,358	121,500
115,976	-10,938	259,956	121,359
116,991	-10,968	259,705	121,205
118,006	-10,980	259,632	121,149
119,020	-10,985	259,537	121,090
120,035	-11,171	259,450	120,875
121,049	-11,038	259,218	120,873
122,064	-10,927	258,864	120,794
123,079	-11,004	258,712	120,644
124,093	-11,236	258,692	120,421
125,108	-11,303	258,293	120,167
126,122	-11,339	258,210	120,086
127,137	-11,222	257,808	119,990
128,151	-11,023	257,594	120,053
129,166	-11,243	257,427	119,772
130,181	-11,106	257,328	119,836
131,195	-11,188	257,124	119,659
132,210	-11,275	256,890	119,463
133,224	-11,054	256,634	119,526
134,239	-11,233	256,720	119,400
135,254	-11,239	256,327	119,200
136,268	-11,313	256,084	119,013
137,283	-11,328	255,953	118,928
138,297	-11,268	255,668	118,837
139,312	-11,505	255,537	118,561
140,327	-11,001	255,496	118,967
141,341	-10,672	255,267	119,134
142,356	-11,045	255,198	118,768
143,370	-10,741	254,889	118,877
144,385	-10,730	254,674	118,775
145,400	-10,713	254,638	118,763
146,414	-10,588	254,398	118,747
147,429	-10,863	254,169	118,394
148,443	-10,917	254,110	118,310
149,458	-10,795	253,855	118,285
150,473	-10,893	253,629	118,085
151,487	-10,970	253,332	117,870
152,502	-10,995	253,383	117,862
153,516	-10,869	253,154	117,853
154,531	-10,891	253,027	117,765
155,546	-10,801	252,672	117,666
156,560	-10,787	252,633	117,648
157,575	-11,089	252,253	117,204
158,589	-11,116	252,089	117,094
159,604	-10,817	251,997	117,295
160,619	-10,553	251,815	117,424
161,633	-10,795	251,758	117,182
162,648	-10,450	251,640	117,410
163,662	-10,854	251,284	116,890
164,677	-10,920	251,111	116,743
165,692	-10,968	250,997	116,640
166,706	-10,651	250,804	116,808
167,721	-10,458	250,639	116,883
168,735	-10,675	250,493	116,622
169,750	-10,932	250,339	116,323
170,764	-10,813	250,189	116,343
171,779	-10,706	249,985	116,328
172,794	-10,996	249,843	116,008
173,808	-10,944	249,565	115,911
174,823	-11,273	249,360	115,529
175,837	-11,301	249,175	115,410
176,852	-11,231	249,128	115,437
177,867	-10,856	248,796	115,587
178,881	-10,886	248,690	115,502
179,896	-10,645	248,569	115,637
180,910	-10,963	248,603	115,377
181,925	-10,785	248,105	115,284
182,940	-10,784	248,098	115,271
183,954	-10,922	247,916	115,062
184,969	-10,727	247,934	115,223
185,983	-10,765	247,613	115,031
186,998	-10,533	247,393	115,112
188,013	-10,637	247,302	114,973
189,027	-10,627	247,163	114,906
190,042	-10,682	246,900	114,728
191,056	-10,939	246,646	114,386
192,071	-11,256	246,532	114,060
193,086	-11,194	246,198	113,947
194,100	-11,118	246,213	114,006
195,115	-10,848	245,944	114,095
196,129	-10,725	245,831	114,134
197,144	-10,965	245,515	113,779
198,159	-10,962	245,309	113,676
199,173	-10,909	245,219	113,668
200,188	-11,418	244,884	113,083
201,202	-11,648	244,617	112,761
202,217	-11,505	244,473	112,802
203,232	-11,439	244,274	112,755
204,246	-11,636	244,033	112,471
205,261	-12,987	243,459	111,090
206,275	-13,441	243,130	110,558
207,290	-9,100	244,783	114,873
208,304	-1,052	247,476	122,805
209,319	3,503	248,472	127,070
210,334	4,096	248,772	127,704
211,348	4,578	248,644	128,025
212,363	4,666	248,558	128,043
213,377	4,643	248,523	127,994
214,392	4,785	248,443	128,059
215,407	4,839	248,249	127,993
216,421	4,681	248,156	127,803
217,436	4,971	247,946	127,922
218,450	4,917	247,637	127,707
219,465	4,790	247,530	127,536
220,480	4,595	247,441	127,318
221,494	4,588	247,206	127,180
222,509	4,473	246,895	126,915
223,523	4,063	246,785	126,510
224,538	3,911	246,550	126,253
225,553	3,755	246,236	125,953
226,567	3,832	246,004	125,886
227,582	3,758	246,084	125,855
228,596	3,766	245,828	125,720
229,611	3,694	245,528	125,496
230,626	3,569	245,423	125,329
231,640	3,747	245,293	125,397
232,655	3,915	245,151	125,450
233,669	3,744	244,965	125,204
234,684	3,513	244,806	124,924
235,699	4,019	244,689	125,265
236,713	3,857	244,588	125,070
237,728	3,929	244,322	124,982
238,742	3,939	244,087	124,858
239,757	3,705	244,139	124,684
240,772	3,668	243,768	124,453
241,786	3,736	243,722	124,474
242,801	3,827	243,572	124,459
243,815	3,805	243,339	124,312
244,830	3,824	243,332	124,312
245,844	3,681	243,126	124,080
246,859	3,894	242,698	124,023
247,874	3,841	242,756	123,998
248,888	3,791	242,590	123,862
249,903	3,907	242,469	123,883
250,917	3,734	242,437	123,716
251,932	4,133	242,160	123,884
252,947	4,177	242,056	123,856
253,961	3,902	241,773	123,479
254,976	3,918	241,673	123,431
255,990	4,001	241,566	123,432
257,005	3,867	241,390	123,223
258,020	3,832	241,187	123,080
259,034	3,798	241,091	122,993
260,049	3,754	240,865	122,832
261,063	3,695	240,685	122,681
262,078	3,580	240,565	122,518
263,093	3,939	240,437	122,728
264,107	4,025	240,192	122,660
265,122	3,843	239,993	122,403
266,136	3,717	240,010	122,301
267,151	3,974	239,779	122,376
268,166	3,908	239,556	122,199
269,180	3,708	239,293	121,896
270,195	3,895	239,389	122,082
271,209	4,056	239,303	122,155
272,224	3,911	238,949	121,849
273,239	3,743	238,818	121,637
274,253	3,793	238,673	121,593
275,268	3,773	238,535	121,495
276,282	3,699	238,477	121,396
277,297	3,529	238,074	121,046
278,312	3,742	238,119	121,226
279,326	3,698	238,000	121,120
280,341	4,039	237,669	121,210
281,355	3,904	237,628	121,072
282,370	3,789	237,514	120,912
283,384	4,087	237,315	121,035
284,399	3,906	237,232	120,839
285,414	3,845	237,036	120,681
286,428	3,818	236,921	120,590
287,443	3,952	236,774	120,610
288,457	3,894	236,619	120,474
289,472	3,938	236,381	120,378
290,487	3,875	236,087	120,167
291,501	3,871	236,012	120,116
292,516	3,676	235,993	119,943
293,530	3,676	235,852	119,861
294,545	3,798	235,752	119,894
295,560	3,884	235,536	119,841
296,574	3,492	235,327	119,418
297,589	3,568	235,189	119,396
298,603	3,967	235,036	119,619
299,618	3,740	234,872	119,348
300,633	3,598	234,926	119,255
301,647	3,775	234,682	119,257
302,662	4,410	234,521	119,658
303,676	4,171	234,287	119,342
304,691	3,924	234,267	119,130
305,706	4,187	233,987	119,181
306,720	3,978	234,012	119,021
307,735	4,172	233,668	118,986
308,749	3,976	233,637	118,807
309,764	3,821	233,304	118,508
310,779	3,552	233,140	118,207
311,793	3,414	232,998	118,018
312,808	3,713	232,883	118,180
313,822	4,151	232,803	118,465
314,837	4,107	232,755	118,396
315,852	3,884	232,573	118,122
316,866	4,029	232,452	118,161
317,881	4,190	232,335	118,215
318,895	4,008	232,156	117,974
319,910	3,967	231,958	117,831
320,925	3,871	231,840	117,687
321,939	3,734	231,611	117,455
322,954	3,874	231,507	117,500
323,968	3,840	231,372	117,394
324,983	3,877	231,230	117,340
325,997	4,062	231,084	117,397
327,012	3,901	230,964	117,202
328,027	3,889	230,747	117,073
329,041	4,184	230,588	117,206
330,056	3,949	230,578	117,012
331,070	3,979	230,441	116,955
332,085	3,963	230,316	116,869
333,100	3,916	230,008	116,667
334,114	3,767	229,791	116,433
335,129	3,624	229,862	116,350
336,143	3,935	229,655	116,471
337,158	4,024	229,528	116,463
338,173	3,727	229,417	116,172
339,187	3,975	229,151	116,214
340,202	3,839	229,131	116,091
341,216	4,011	228,748	116,016
342,231	3,743	228,754	115,806
343,246	3,810	228,572	115,755
344,260	3,881	228,500	115,761
345,275	3,821	228,419	115,664
346,289	3,999	228,354	115,755
347,304	3,828	228,125	115,501
348,319	4,055	227,700	115,445
349,333	3,820	227,649	115,233
350,348	3,785	227,586	115,164
351,362	3,865	227,438	115,140
352,377	3,816	227,226	114,985
353,392	3,832	227,139	114,943
354,406	3,994	226,786	114,876
355,421	195,567	1317,939	1393,754
356,435	156,806	1450,852	1393,726
