DTS Sentinel unit serial number:	SN410029Multiplexer serial number:	ORYXHardware model number:	OX2-SRSoftware version number:	ORYX F/W v4,00 Oryx Data Collector v3.7.2.0data status	okinstallation	B5 Nyhavnadifferential loss correction	single-endedforward channel	channel 2reverse channel	N/Adate	2023/12/13time	03:12:13forward acquisition time	300,00reverse acquisition time	0,00gamma	499,1914k internal	0,3160k external	0,3160temperature offset calibration	1,0000default loss term (dB/km)	0,3820temperature slope calibration	1,0000multiplexer offset coefficient	1,0000multiplexer slope coefficient	1,0000fibre end	0,00T internal ref (°C)	13,97T ext. ref 1 (°C)	-2,48T ext. ref 2 (°C)	-2,77length (m)	temperature (°C)	Stokes	anti-Stokes-744,400	800,000	-0,022	-0,073
-743,385	-174,734	-0,421	-0,009
-742,371	-89,285	0,342	0,074
-741,356	-199,006	-0,346	-0,001
-740,342	40,448	0,157	0,104
-739,327	-77,434	-0,207	-0,053
-738,312	36,049	0,130	-0,084
-737,298	-124,559	-0,380	0,043
-736,283	-46,860	0,138	0,049
-735,269	-88,712	-0,362	0,079
-734,254	-58,915	0,123	0,039
-733,239	-18,513	-0,519	-0,237
-732,225	-161,978	0,112	-0,004
-731,210	-171,768	0,039	-0,001
-730,196	588,375	0,007	0,013
-729,181	26,175	0,043	0,026
-728,167	-148,631	0,075	-0,004
-727,152	-175,840	-0,054	0,001
-726,137	800,000	0,031	-0,069
-725,123	-15,388	-0,070	-0,033
-724,108	800,000	0,036	-0,111
-723,094	52,797	-0,234	-0,164
-722,079	-200,000	-0,007	-0,048
-721,064	-77,830	-0,108	-0,027
-720,050	-46,335	-0,054	-0,019
-719,035	-69,554	-0,111	-0,031
-718,021	252,677	0,032	0,041
-717,006	-160,187	-0,203	0,008
-715,991	800,000	0,031	-0,084
-714,977	231,651	-0,088	-0,107
-713,962	60,846	0,028	0,020
-712,948	-200,000	-0,026	-0,112
-711,933	-30,683	-0,117	0,049
-710,918	284,476	-0,094	0,124
-709,904	800,000	0,003	-0,008
-708,889	19,197	-0,100	-0,059
-707,875	-61,146	-0,034	-0,010
-706,860	-122,996	0,060	-0,007
-705,845	-200,000	0,011	-0,056
-704,831	-200,000	-0,036	0,203
-703,816	800,000	0,040	-0,112
-702,802	-200,000	-0,009	-0,172
-701,787	304,178	0,093	-0,127
-700,772	102,487	-0,022	0,019
-699,758	-189,540	0,027	0,000
-698,743	-200,000	-0,029	0,109
-697,729	358,979	0,088	0,130
-696,714	-32,889	0,039	-0,016
-695,699	-200,000	0,007	-0,030
-694,685	-200,000	-0,144	-0,000
-693,670	286,514	0,054	0,071
-692,656	-73,561	-0,126	0,034
-691,641	-200,000	0,011	0,043
-690,627	-200,000	0,034	0,111
-689,612	105,637	-0,146	0,127
-688,597	-23,495	0,067	0,030
-687,583	-200,000	0,018	-0,135
-686,568	16,244	0,081	-0,047
-685,554	9,659	-0,107	-0,059
-684,539	-200,000	0,019	0,091
-683,524	-31,827	-0,057	-0,023
-682,510	-48,531	-0,056	0,020
-681,495	0,607	-0,037	0,019
-680,481	-51,882	0,109	0,037
-679,466	-200,000	-0,008	-0,033
-678,451	199,702	-0,065	0,073
-677,437	-200,000	0,032	0,133
-676,422	-200,000	-0,016	0,062
-675,408	534,371	0,069	-0,120
-674,393	-38,185	-0,032	-0,013
-673,378	137,026	-0,077	0,074
-672,364	220,290	-0,061	-0,072
-671,349	91,437	-0,029	-0,024
-670,335	146,661	0,020	-0,019
-669,320	800,000	0,020	-0,042
-668,305	-125,533	0,078	0,009
-667,291	-162,651	-0,009	-0,000
-666,276	-124,298	0,082	0,009
-665,262	276,528	-0,028	0,036
-664,247	-200,000	0,013	-0,105
-663,232	-45,244	0,025	0,009
-662,218	-200,000	0,121	0,000
-661,203	-69,614	0,062	0,017
-660,189	800,000	0,014	0,032
-659,174	-96,108	-0,187	-0,036
-658,159	-31,613	-0,055	-0,022
-657,145	-51,166	-0,040	-0,014
-656,130	73,410	0,030	-0,023
-655,116	-32,024	0,020	-0,008
-654,101	492,341	-0,036	0,060
-653,086	35,466	-0,052	-0,034
-652,072	800,000	-0,061	0,141
-651,057	426,545	0,014	0,022
-650,043	-200,000	0,008	0,103
-649,028	12,037	-0,100	-0,056
-648,014	-200,000	-0,008	0,045
-646,999	-200,000	-0,020	0,106
-645,984	303,872	0,035	-0,048
-644,970	-200,000	-0,004	0,084
-643,955	-200,000	0,009	-0,087
-642,941	-200,000	-0,009	-0,034
-641,926	-200,000	-0,002	-0,009
-640,911	105,547	0,121	0,105
-639,897	11,840	-0,057	-0,032
-638,882	-119,620	-0,176	0,022
-637,868	800,000	-0,041	0,085
-636,853	-200,000	-0,028	-0,110
-635,838	-126,836	0,025	-0,003
-634,824	-93,319	-0,018	0,004
-633,809	-4,096	-0,127	-0,064
-632,795	-19,727	0,198	0,090
-631,780	800,000	-0,021	0,052
-630,765	23,568	-0,064	0,039
-629,751	-82,650	0,090	-0,021
-628,736	-200,000	-0,014	-0,133
-627,722	-200,000	-0,005	-0,067
-626,707	-200,000	-0,006	-0,068
-625,692	800,000	0,052	-0,150
-624,678	-22,037	0,068	-0,030
-623,663	157,742	-0,080	0,081
-622,649	800,000	-0,097	-0,256
-621,634	-200,000	-0,023	-0,117
-620,619	315,826	-0,044	0,062
-619,605	25,782	0,150	0,091
-618,590	142,060	0,071	0,069
-617,576	3,496	-0,051	0,027
-616,561	208,311	-0,065	0,075
-615,546	-132,234	0,094	0,009
-614,532	800,000	-0,035	-0,106
-613,517	-200,000	0,023	-0,105
-612,503	-200,000	-0,033	-0,109
-611,488	21,157	-0,023	-0,014
-610,474	-200,000	0,019	0,115
-609,459	84,013	-0,044	-0,035
-608,444	-200,000	0,023	-0,105
-607,430	187,295	-0,110	-0,120
-606,415	-151,094	0,008	-0,000
-605,401	17,335	0,053	0,031
-604,386	-200,000	0,002	-0,040
-603,371	-200,000	0,000	-0,028
-602,357	-113,813	0,048	-0,007
-601,342	-200,000	-0,005	0,026
-600,328	-59,050	-0,140	-0,044
-599,313	-91,705	0,126	0,026
-598,298	600,297	0,042	-0,078
-597,284	-20,739	-0,134	0,060
-596,269	57,369	0,105	-0,075
-595,255	800,000	-0,017	-0,055
-594,240	-6,908	0,025	0,012
-593,225	254,708	-0,031	-0,039
-592,211	-121,440	-0,086	0,010
-591,196	517,124	0,057	-0,097
-590,182	460,417	0,075	-0,122
-589,167	-129,660	0,133	-0,013
-588,152	800,000	-0,045	-0,092
-587,138	-90,761	0,146	-0,031
-586,123	131,669	0,035	0,033
-585,109	-124,396	-0,047	-0,005
-584,094	-0,161	-0,093	0,048
-583,079	-129,660	0,122	-0,012
-582,065	-55,243	0,054	-0,018
-581,050	800,000	0,073	0,236
-580,036	-128,608	0,134	0,014
-579,021	272,640	-0,071	-0,092
-578,006	-129,210	-0,126	-0,013
-576,992	800,000	0,036	-0,111
-575,977	-53,863	0,040	0,013
-574,963	283,190	-0,017	0,023
-573,948	-97,534	-0,118	0,022
-572,934	397,596	-0,043	-0,065
-571,919	-86,936	-0,186	-0,041
-570,904	-200,000	0,020	0,097
-569,890	-94,066	-0,052	-0,010
-568,875	57,783	-0,186	-0,133
-567,861	16,684	-0,028	-0,016
-566,846	120,733	0,072	0,065
-565,831	-67,855	-0,170	0,048
-564,817	103,687	-0,093	-0,080
-563,802	-200,000	-0,019	-0,067
-562,788	17,858	0,063	-0,036
-561,773	-125,020	0,088	0,010
-560,758	-43,573	0,096	0,035
-559,744	-27,078	-0,129	-0,055
-558,729	4,169	-0,040	0,021
-557,715	258,816	0,086	0,108
-556,700	44,730	-0,034	-0,023
-555,685	-145,881	-0,035	-0,002
-554,671	243,051	0,053	-0,065
-553,656	-200,000	-0,019	-0,066
-552,642	-200,000	-0,039	-0,167
-551,627	800,000	0,027	-0,065
-550,612	800,000	0,049	-0,102
-549,598	-34,057	-0,062	-0,025
-548,583	-200,000	-0,006	-0,082
-547,569	96,540	0,120	-0,100
-546,554	-34,931	-0,093	-0,037
-545,539	-200,000	-0,025	0,148
-544,525	229,312	-0,059	-0,070
-543,510	-113,850	-0,141	-0,020
-542,496	-189,551	-0,058	-0,000
-541,481	32,704	-0,186	-0,117
-540,466	-53,715	0,046	0,015
-539,452	-45,703	-0,078	0,028
-538,437	309,948	0,047	-0,064
-537,423	-94,729	-0,055	-0,011
-536,408	-200,000	-0,010	-0,106
-535,393	-61,069	-0,099	-0,030
-534,379	-158,183	-0,101	-0,004
-533,364	-98,681	-0,093	-0,017
-532,350	161,806	0,090	0,092
-531,335	68,138	0,106	0,079
-530,321	53,457	0,106	0,074
-529,306	800,000	-0,034	0,092
-528,291	-169,704	0,111	0,003
-527,277	623,137	-0,033	-0,062
-526,262	800,000	-0,022	-0,072
-525,248	-110,281	0,121	0,018
-524,233	-200,000	0,012	-0,040
-523,218	-200,000	0,007	0,130
-522,204	6,558	-0,066	0,036
-521,189	-200,000	-0,027	-0,136
-520,175	-200,000	0,015	0,052
-519,160	-1,087	0,059	0,030
-518,145	-200,000	0,003	-0,032
-517,131	-45,285	0,029	0,011
-516,116	800,000	-0,089	0,207
-515,102	71,306	0,107	0,081
-514,087	-25,123	-0,162	-0,070
-513,072	-44,959	0,016	-0,006
-512,058	-140,984	0,024	-0,002
-511,043	800,000	0,049	-0,115
-510,029	234,285	0,114	-0,137
-509,014	800,000	-0,036	0,113
-507,999	-200,000	0,016	0,058
-506,985	307,366	-0,051	-0,070
-505,970	0,708	-0,072	0,038
-504,956	800,000	-0,023	0,072
-503,941	146,464	-0,061	0,059
-502,926	-200,000	0,012	0,145
-501,912	178,497	0,137	0,146
-500,897	-78,082	0,059	-0,015
-499,883	800,000	-0,040	-0,111
-498,868	-200,000	-0,042	-0,144
-497,853	87,768	-0,106	-0,086
-496,839	359,469	-0,009	-0,013
-495,824	-87,255	-0,071	-0,016
-494,810	-200,000	0,006	-0,042
-493,795	-89,002	-0,078	0,017
-492,781	-127,432	-0,057	-0,006
-491,766	800,000	-0,008	-0,019
-490,751	800,000	-0,017	-0,048
-489,737	107,904	-0,116	-0,101
-488,722	-200,000	-0,013	-0,090
-487,708	133,237	0,138	0,131
-486,693	-200,000	-0,031	0,132
-485,678	24,616	-0,127	0,076
-484,664	-48,326	0,198	-0,069
-483,649	112,370	-0,047	0,042
-482,635	-80,574	0,141	0,034
-481,620	-200,000	-0,009	0,067
-480,605	-200,000	0,011	0,102
-479,591	-200,000	-0,012	0,068
-478,576	130,007	-0,104	-0,097
-477,562	56,870	-0,046	-0,033
-476,547	8,837	0,099	0,054
-475,532	-200,000	-0,008	0,080
-474,518	-200,000	-0,023	0,152
-473,503	-200,000	-0,013	0,082
-472,489	-200,000	0,010	0,088
-471,474	-200,000	-0,003	0,023
-470,459	800,000	-0,040	0,086
-469,445	-127,572	0,090	0,009
-468,430	743,457	-0,049	0,097
-467,416	63,211	0,023	-0,017
-466,401	191,450	0,055	0,060
-465,386	445,392	0,016	-0,026
-464,372	800,000	0,080	0,183
-463,357	14,461	-0,046	0,026
-462,343	-59,193	0,173	-0,054
-461,328	-8,802	-0,125	-0,061
-460,313	-200,000	0,002	0,101
-459,299	282,537	-0,038	0,050
-458,284	490,950	0,023	-0,038
-457,270	-200,000	0,026	0,087
-456,255	435,641	-0,065	0,104
-455,241	111,470	-0,012	0,011
-454,226	308,135	-0,068	-0,093
-453,211	-108,587	0,138	0,021
-452,197	-24,731	0,163	0,070
-451,182	101,547	0,075	0,064
-450,168	133,970	0,041	-0,038
-449,153	215,136	0,039	-0,045
-448,138	572,750	-0,092	-0,165
-447,124	56,823	0,030	0,021
-446,109	342,405	0,040	0,058
-445,095	-88,241	0,151	0,033
-444,080	800,000	-0,058	0,145
-443,065	800,000	-0,026	0,075
-442,051	-130,819	0,090	0,009
-441,036	438,513	0,090	-0,143
-440,022	-77,166	-0,053	0,013
-439,007	-58,110	-0,096	0,030
-437,992	800,000	-0,034	-0,101
-436,978	15,454	0,176	0,100
-435,963	154,511	-0,038	0,038
-434,949	-2,925	-0,156	-0,079
-433,934	57,369	-0,021	0,015
-432,919	225,501	0,037	-0,044
-431,905	-176,589	-0,030	0,001
-430,890	555,641	0,017	-0,030
-429,876	-200,000	-0,022	0,112
-428,861	749,539	0,030	0,060
-427,846	378,299	0,059	-0,088
-426,832	-43,910	0,087	-0,032
-425,817	-141,103	-0,022	0,002
-424,803	-200,000	0,002	-0,082
-423,788	-52,759	0,102	-0,034
-422,773	311,329	0,040	-0,054
-421,759	-200,000	-0,003	-0,020
-420,744	-192,332	-0,090	0,001
-419,730	-88,546	-0,149	-0,032
-418,715	-200,000	0,026	-0,112
-417,701	-200,000	0,017	0,098
-416,686	-200,000	0,010	-0,034
-415,671	-55,634	0,062	0,020
-414,657	25,546	0,095	0,057
-413,642	-85,496	-0,080	0,018
-412,628	264,141	0,064	-0,082
-411,613	44,152	-0,177	0,118
-410,598	-200,000	-0,027	0,134
-409,584	175,684	0,093	0,098
-408,569	-200,000	-0,007	-0,027
-407,555	-173,473	-0,071	0,002
-406,540	98,699	-0,084	0,071
-405,525	-14,782	0,091	0,042
-404,511	20,231	-0,153	0,090
-403,496	800,000	0,046	0,125
-402,482	-200,000	-0,001	0,100
-401,467	-111,023	-0,123	-0,018
-400,452	-170,841	0,118	0,003
-399,438	-96,023	0,162	0,031
-398,423	355,523	-0,053	0,076
-397,409	-51,497	0,134	-0,045
-396,394	-92,213	-0,135	-0,027
-395,379	46,995	-0,144	-0,097
-394,365	-64,444	-0,076	-0,022
-393,350	800,000	-0,023	0,071
-392,336	-140,453	-0,109	0,008
-391,321	663,671	0,040	0,075
-390,306	0,812	-0,079	-0,041
-389,292	228,324	0,049	-0,059
-388,277	-200,000	0,003	-0,014
-387,263	64,345	0,066	0,048
-386,248	53,850	0,066	0,046
-385,233	-22,690	-0,102	0,045
-384,219	-200,000	-0,018	0,092
-383,204	-200,000	-0,010	-0,048
-382,190	-200,000	-0,022	0,122
-381,175	-106,222	0,054	0,009
-380,160	-82,521	0,107	0,025
-379,146	-200,000	-0,005	0,082
-378,131	179,519	-0,089	0,095
-377,117	-7,270	0,110	-0,054
-376,102	-200,000	-0,036	-0,160
-375,088	-89,481	-0,060	-0,013
-374,073	-200,000	-0,047	0,181
-373,058	34,704	0,078	0,049
-372,044	-53,756	-0,103	-0,034
-371,029	-74,752	-0,062	-0,016
-370,015	85,524	0,124	-0,099
-369,000	-148,872	0,075	-0,004
-367,985	-3,518	-0,057	-0,028
-366,971	800,000	0,047	-0,122
-365,956	197,459	0,031	0,035
-364,942	25,198	0,064	-0,039
-363,927	-18,064	0,109	-0,049
-362,912	258,678	-0,018	0,023
-361,898	-41,032	-0,025	-0,009
-360,883	-101,219	-0,063	0,011
-359,869	77,635	-0,086	-0,066
-358,854	-72,455	0,103	0,027
-357,839	-200,000	0,002	0,116
-356,825	800,000	-0,025	-0,074
-355,810	26,853	-0,050	0,030
-354,796	253,651	0,053	-0,066
-353,781	-41,361	-0,208	-0,077
-352,766	547,120	0,011	0,020
-351,752	177,931	0,020	0,021
-350,737	800,000	-0,029	0,065
-349,723	-200,000	-0,019	-0,108
-348,708	-200,000	-0,025	0,172
-347,693	-148,271	0,058	0,003
-346,679	784,002	0,007	-0,014
-345,664	-45,730	-0,125	-0,045
-344,650	800,000	0,034	0,071
-343,635	-78,138	0,084	0,021
-342,620	3,185	0,068	-0,036
-341,606	434,615	-0,096	0,152
-340,591	800,000	-0,028	0,086
-339,577	-37,274	-0,150	-0,058
-338,562	-79,419	0,080	-0,019
-337,548	10,223	-0,038	-0,021
-336,533	-15,075	-0,034	-0,016
-335,518	93,687	0,051	0,042
-334,504	112,058	0,012	-0,011
-333,489	-27,986	0,040	0,017
-332,475	792,625	-0,079	-0,157
-331,460	369,082	-0,017	0,025
-330,445	5,420	0,035	-0,019
-329,431	689,902	-0,028	-0,053
-328,416	-88,706	0,051	0,011
-327,402	521,689	0,012	-0,021
-326,387	800,000	0,045	-0,125
-325,372	765,201	-0,032	-0,063
-324,358	-118,388	-0,043	0,005
-323,343	-56,019	0,125	-0,040
-322,329	-200,000	-0,003	0,091
-321,314	-93,537	0,105	-0,021
-320,299	67,874	0,177	0,131
-319,285	33,139	0,108	0,068
-318,270	-200,000	0,031	-0,147
-317,256	-200,000	0,028	-0,134
-316,241	-136,877	-0,058	-0,005
-315,226	-100,500	0,107	-0,019
-314,212	-102,553	0,077	0,013
-313,197	-71,029	-0,037	0,010
-312,183	769,874	0,073	-0,146
-311,168	800,000	-0,065	-0,133
-310,153	753,226	-0,036	-0,070
-309,139	105,349	-0,070	0,060
-308,124	800,000	0,028	0,073
-307,110	-200,000	0,016	-0,056
-306,095	-200,000	0,001	0,121
-305,080	-200,000	0,004	-0,044
-304,066	-200,000	0,027	-0,105
-303,051	464,362	-0,034	0,055
-302,037	-200,000	-0,007	-0,053
-301,022	110,826	0,082	0,071
-300,008	800,000	-0,017	-0,055
-298,993	31,927	0,106	0,066
-297,978	618,524	0,052	0,094
-296,964	80,798	0,114	-0,089
-295,949	-34,839	0,059	0,023
-294,935	172,773	-0,052	-0,055
-293,920	800,000	-0,048	0,139
-292,905	800,000	-0,014	0,045
-291,891	-59,841	0,077	0,024
-290,876	-200,000	-0,024	0,098
-289,862	-200,000	0,007	-0,163
-288,847	212,749	0,052	-0,059
-287,832	-28,052	-0,146	-0,061
-286,818	-79,218	0,162	0,039
-285,803	432,831	0,053	0,083
-284,789	423,418	0,055	0,085
-283,774	-83,788	0,130	-0,030
-282,759	-200,000	-0,022	-0,092
-281,745	-46,716	-0,025	0,009
-280,730	-200,000	-0,043	-0,143
-279,716	-10,186	0,037	0,018
-278,701	-200,000	0,002	0,060
-277,686	172,830	-0,030	0,032
-276,672	-200,000	-0,033	0,137
-275,657	340,267	-0,056	-0,080
-274,643	-200,000	0,029	0,177
-273,628	-200,000	-0,007	-0,135
-272,613	78,398	-0,063	0,049
-271,599	446,079	0,003	0,006
-270,584	-200,000	-0,042	0,148
-269,570	118,694	-0,049	0,044
-268,555	-36,092	-0,034	-0,013
-267,540	-200,000	0,002	-0,124
-266,526	-16,516	0,100	0,046
-265,511	532,065	-0,034	-0,059
-264,497	-151,086	0,235	-0,013
-263,482	1,558	0,048	-0,025
-262,467	800,000	-0,013	-0,040
-261,453	46,897	-0,127	0,085
-260,438	-18,494	-0,112	-0,050
-259,424	183,938	-0,035	-0,037
-258,409	800,000	-0,059	-0,119
-257,395	239,175	0,015	-0,018
-256,380	-72,459	-0,042	0,011
-255,365	308,135	0,068	-0,092
-254,351	-200,000	-0,002	-0,038
-253,336	-172,738	-0,040	0,001
-252,322	116,845	-0,029	-0,025
-251,307	-200,000	-0,018	-0,070
-250,292	-200,000	0,039	0,146
-249,278	185,588	-0,036	0,039
-248,263	153,731	0,120	0,119
-247,249	-180,858	-0,160	0,002
-246,234	800,000	0,009	0,022
-245,219	-37,352	0,124	0,048
-244,205	47,025	0,078	0,052
-243,190	198,282	0,021	-0,023
-242,176	-200,000	0,005	-0,059
-241,161	-200,000	-0,019	0,084
-240,146	-33,828	0,074	-0,029
-239,132	800,000	-0,024	-0,053
-238,117	107,488	0,063	0,054
-237,103	593,553	-0,059	-0,106
-236,088	187,464	0,057	-0,062
-235,073	-200,000	-0,007	0,040
-234,059	200,801	0,054	0,060
-233,044	114,659	-0,018	0,016
-232,030	-199,994	-0,076	-0,000
-231,015	796,737	-0,016	-0,032
-230,000	-37,997	0,088	-0,034
-228,986	29,344	-0,150	-0,092
-227,971	374,074	0,023	-0,034
-226,957	-200,000	0,039	0,216
-225,942	800,000	-0,040	0,103
-224,927	107,598	0,093	0,080
-223,913	265,587	0,104	-0,131
-222,898	-200,000	-0,000	-0,067
-221,884	800,000	-0,027	0,056
-220,869	-200,000	0,029	-0,097
-219,855	760,391	-0,039	0,076
-218,840	-165,597	-0,085	0,003
-217,825	273,405	-0,024	-0,030
-216,811	800,000	0,033	0,067
-215,796	-200,000	0,026	-0,104
-214,782	55,825	-0,137	-0,095
-213,767	98,300	0,138	0,114
-212,752	-43,701	-0,131	0,047
-211,738	402,927	0,034	0,051
-210,723	-200,000	-0,049	0,245
-209,709	800,000	0,078	0,200
-208,694	-200,000	0,027	0,089
-207,679	-22,455	-0,138	-0,060
-206,665	-100,077	-0,118	-0,021
-205,650	-133,908	0,036	0,003
-204,636	148,100	-0,033	-0,032
-203,621	-200,000	0,018	-0,096
-202,606	158,406	-0,131	0,131
-201,592	-200,000	-0,013	-0,143
-200,577	-200,000	-0,015	-0,099
-199,563	-200,000	-0,000	-0,014
-198,548	-38,224	0,220	0,084
-197,533	52,428	-0,058	0,040
-196,519	-135,440	0,071	0,006
-195,504	-200,000	-0,017	-0,090
-194,490	635,727	-0,031	0,058
-193,475	-200,000	0,002	-0,100
-192,460	68,834	0,111	0,082
-191,446	66,884	-0,133	0,098
-190,431	353,761	0,081	-0,116
-189,417	-200,000	0,008	0,046
-188,402	-119,434	0,045	0,006
-187,387	532,393	0,055	-0,095
-186,373	-148,574	0,043	0,002
-185,358	7,801	-0,086	-0,046
-184,344	-112,905	0,120	-0,017
-183,329	800,000	0,035	-0,105
-182,315	-38,097	0,087	-0,033
-181,300	-35,481	-0,043	0,017
-180,285	-200,000	-0,017	-0,105
-179,271	39,920	-0,081	-0,052
-178,256	173,011	-0,035	-0,037
-177,242	-69,588	0,074	0,020
-176,227	-166,324	0,036	-0,001
-175,212	-200,000	-0,003	0,050
-174,198	800,000	-0,045	-0,094
-173,183	-200,000	0,031	0,111
-172,169	-200,000	0,006	-0,080
-171,154	-200,000	-0,010	0,067
-170,139	-200,000	0,003	-0,021
-169,125	178,699	-0,079	0,083
-168,110	95,183	0,051	-0,041
-167,096	-200,000	0,001	-0,112
-166,081	800,000	0,032	-0,075
-165,066	100,800	-0,087	-0,073
-164,052	440,979	-0,063	-0,100
-163,037	-200,000	0,001	-0,041
-162,023	-144,931	-0,037	-0,002
-161,008	-31,821	-0,130	0,052
-159,993	-186,081	0,156	-0,002
-158,979	316,357	0,030	0,041
-157,964	-157,308	-0,065	-0,003
-156,950	-200,000	0,004	0,118
-155,935	-200,000	-0,017	0,073
-154,920	-200,000	0,008	0,039
-153,906	-200,000	0,049	0,171
-152,891	-200,000	0,016	0,081
-151,877	800,000	-0,045	0,110
-150,862	-200,000	-0,018	-0,059
-149,847	59,732	-0,008	-0,006
-148,833	-59,135	-0,057	-0,017
-147,818	139,695	0,073	0,070
-146,804	92,948	-0,122	0,099
-145,789	379,912	0,010	0,015
-144,775	-200,000	-0,003	-0,141
-143,760	800,000	0,028	-0,072
-142,745	-200,000	-0,026	0,089
-141,731	-25,132	-0,029	-0,013
-140,716	3,053	0,157	-0,082
-139,702	-140,745	0,041	-0,003
-138,687	800,000	-0,018	-0,040
-137,672	11,058	0,168	-0,092
-136,658	270,723	-0,007	-0,009
-135,643	115,262	0,055	-0,049
-134,629	83,344	0,046	0,036
-133,614	800,000	-0,034	-0,086
-132,599	800,000	0,068	0,181
-131,585	102,211	-0,070	-0,059
-130,570	-200,000	0,003	0,041
-129,556	-200,000	-0,006	-0,176
-128,541	351,300	-0,007	-0,010
-127,526	13,774	-0,063	-0,035
-126,512	335,386	0,034	0,047
-125,497	37,348	-0,051	-0,032
-124,483	187,645	-0,023	-0,025
-123,468	800,000	-0,028	0,059
-122,453	-200,000	-0,024	0,129
-121,439	-130,692	-0,127	-0,012
-120,424	-21,598	-0,008	0,003
-119,410	-158,772	-0,094	0,004
-118,395	-200,000	-0,015	0,094
-117,380	132,588	-0,025	0,023
-116,366	-200,000	0,019	-0,063
-115,351	800,000	0,051	0,102
-114,337	190,388	0,025	0,027
-113,322	-200,000	0,006	-0,036
-112,307	-200,000	-0,015	0,115
-111,293	-120,674	0,151	0,018
-110,278	800,000	-0,023	0,064
-109,264	310,191	-0,025	0,033
-108,249	-98,684	-0,013	0,002
-107,234	800,000	-0,046	-0,094
-106,220	-97,127	-0,069	0,013
-105,205	800,000	0,076	-0,204
-104,191	-200,000	-0,009	0,132
-103,176	-78,191	0,097	-0,024
-102,162	28,680	0,116	-0,070
-101,147	-22,579	-0,117	-0,051
-100,132	4,511	0,056	0,029
-99,118	18,509	0,035	-0,020
-98,103	-200,000	0,008	0,066
-97,089	436,328	-0,087	0,137
-96,074	15,209	0,056	0,032
-95,059	-200,000	0,006	0,082
-94,045	-20,563	0,125	0,055
-93,030	80,720	-0,036	0,028
-92,016	15,917	-0,005	0,003
-91,001	299,734	-0,028	-0,038
-89,986	-200,000	-0,000	0,018
-88,972	30,231	0,036	-0,022
-87,957	495,809	0,036	-0,060
-86,943	-200,000	-0,030	0,162
-85,928	606,241	0,014	-0,026
-84,913	-200,000	-0,006	0,038
-83,899	-95,456	-0,065	-0,012
-82,884	-77,977	0,165	0,041
-81,870	-200,000	0,023	0,085
-80,855	-71,810	0,123	0,033
-79,840	-200,000	-0,006	-0,056
-78,826	681,383	-0,069	-0,129
-77,811	-10,730	-0,081	-0,038
-76,797	-135,525	-0,059	0,005
-75,782	-142,483	-0,080	-0,006
-74,767	115,646	0,124	0,108
-73,753	174,602	-0,028	0,029
-72,738	-107,663	0,109	-0,017
-71,724	-137,410	-0,088	0,007
-70,709	25,492	0,061	-0,037
-69,694	710,984	-0,046	-0,088
-68,680	-200,000	0,009	0,046
-67,665	584,754	0,008	-0,014
-66,651	800,000	-0,065	0,131
-65,636	599,318	-0,078	0,139
-64,622	761,749	-0,024	0,047
-63,607	26,040	0,124	-0,074
-62,592	59,711	-0,106	0,075
-61,578	408,258	0,106	0,161
-60,563	-17,419	0,047	0,021
-59,549	418,888	-0,026	0,040
-58,534	33,452	-2,062	-1,282
-57,519	-200,000	-0,071	-0,856
-56,505	-200,000	-1,321	-5,185
-55,490	116,317	0,751	0,660
-54,476	800,000	5,253	12,044
-53,461	-200,000	18,544	311,736
-52,446	800,000	739,920	2319,090
-51,432	556,874	1656,047	2873,638
-50,417	110,812	1640,240	1415,185
-49,403	75,073	1290,147	974,043
-48,388	30,519	1030,845	630,624
-47,373	20,027	993,282	572,907
-46,359	17,653	980,957	557,963
-45,344	14,356	977,136	544,937
-44,330	14,632	975,567	544,946
-43,315	14,046	973,913	542,079
-42,300	13,984	972,774	541,221
-41,286	14,037	971,416	540,615
-40,271	13,924	970,875	539,925
-39,257	13,975	969,840	539,495
-38,242	14,008	968,958	539,089
-37,227	14,014	967,971	538,540
-36,213	14,003	967,287	538,101
-35,198	13,988	966,259	537,460
-34,184	13,993	965,751	537,170
-33,169	13,944	964,776	536,449
-32,154	13,993	963,721	536,000
-31,140	14,028	962,906	535,639
-30,125	14,051	962,124	535,258
-29,111	14,007	961,275	534,620
-28,096	13,992	960,746	534,258
-27,082	14,032	959,868	533,876
-26,067	14,008	959,316	533,471
-25,052	13,977	958,317	532,793
-24,038	13,974	957,664	532,399
-23,023	13,971	957,083	532,046
-22,009	14,026	956,410	531,830
-20,994	13,950	955,904	531,281
-19,979	13,991	955,219	531,010
-18,965	13,989	954,528	530,601
-17,950	14,064	953,772	530,399
-16,936	13,904	953,461	529,691
-15,921	13,916	952,580	529,221
-14,906	13,857	951,961	528,667
-13,892	13,941	951,198	528,490
-12,877	13,901	950,400	527,898
-11,863	13,891	949,916	527,575
-10,848	13,890	949,343	527,235
-9,833	13,958	948,876	527,171
-8,819	13,932	948,130	526,653
-7,804	13,874	947,731	526,226
-6,790	13,928	947,021	525,980
-5,775	14,010	946,556	525,963
-4,760	13,948	945,984	525,428
-3,746	13,837	945,493	524,781
-2,731	13,785	944,604	524,100
-1,717	13,753	943,920	523,598
-0,702	13,693	943,304	523,046
0,313	13,564	942,531	523,000
1,327	16,721	940,418	531,769
2,342	25,658	795,660	473,651
3,356	22,102	460,206	268,477
4,371	-4,625	317,230	156,388
5,386	-8,747	299,136	143,244
6,400	-10,600	292,838	138,359
7,415	-10,955	290,487	136,883
8,429	-11,178	288,796	135,854
9,444	-11,317	288,035	135,347
10,459	-11,215	287,451	135,161
11,473	-11,213	286,731	134,812
12,488	-11,194	286,308	134,620
13,502	-11,104	285,684	134,403
14,517	-11,016	285,275	134,284
15,531	-11,108	284,767	133,943
16,546	-11,082	284,360	133,766
17,561	-11,092	284,115	133,628
18,575	-11,082	283,676	133,420
19,590	-11,325	283,427	133,055
20,604	-11,251	283,126	132,974
21,619	-11,322	282,648	132,668
22,634	-11,037	282,239	132,739
23,648	-11,363	282,085	132,342
24,663	-11,250	281,733	132,273
25,677	-11,213	281,497	132,186
26,692	-11,255	281,227	132,007
27,707	-11,376	280,946	131,747
28,721	-11,144	280,656	131,822
29,736	-11,125	280,233	131,630
30,750	-11,139	279,946	131,470
31,765	-11,313	279,885	131,263
32,780	-11,245	279,512	131,141
33,794	-11,165	279,347	131,128
34,809	-11,043	278,945	131,044
35,823	-11,243	278,812	130,780
36,838	-11,261	278,517	130,613
37,853	-11,237	278,363	130,551
38,867	-11,249	277,922	130,322
39,882	-11,389	277,799	130,120
40,896	-11,281	277,577	130,107
41,911	-11,392	277,403	129,908
42,926	-11,372	277,178	129,810
43,940	-11,219	276,720	129,728
44,955	-11,521	276,644	129,396
45,969	-11,225	276,376	129,539
46,984	-11,504	276,058	129,116
47,999	-11,561	275,803	128,931
49,013	-11,701	275,402	128,600
50,028	-11,849	275,242	128,375
51,042	-11,969	275,157	128,211
52,057	-12,064	274,811	127,950
53,071	-11,895	274,705	128,048
54,086	-11,792	274,326	127,956
55,101	-11,704	274,163	127,950
56,115	-11,542	274,055	128,039
57,130	-11,290	274,045	128,259
58,144	-11,252	273,785	128,161
59,159	-11,081	273,509	128,180
60,174	-11,164	273,189	127,941
61,188	-11,101	273,087	127,941
62,203	-11,170	272,784	127,723
63,217	-11,269	272,664	127,564
64,232	-10,954	272,179	127,618
65,247	-11,022	272,040	127,478
66,261	-11,192	271,798	127,197
67,276	-11,333	271,512	126,921
68,290	-11,491	271,310	126,669
69,305	-11,401	271,060	126,624
70,320	-11,337	270,853	126,575
71,334	-11,101	270,601	126,663
72,349	-11,195	270,624	126,576
73,363	-11,049	270,300	126,547
74,378	-10,919	269,963	126,498
75,393	-11,244	269,920	126,168
76,407	-11,201	269,659	126,074
77,422	-11,081	269,550	126,122
78,436	-11,244	269,282	125,837
79,451	-11,081	268,893	125,792
80,466	-11,182	268,646	125,574
81,480	-11,183	268,422	125,457
82,495	-11,227	268,367	125,380
83,509	-11,220	268,258	125,323
84,524	-11,272	267,856	125,077
85,539	-11,361	267,672	124,899
86,553	-11,478	267,519	124,711
87,568	-11,441	267,319	124,639
88,582	-11,519	267,169	124,488
89,597	-11,294	266,869	124,541
90,611	-11,104	266,769	124,655
91,626	-11,106	266,483	124,509
92,641	-11,110	266,386	124,449
93,655	-10,996	266,107	124,410
94,670	-11,345	265,882	123,979
95,684	-11,213	265,622	123,965
96,699	-11,227	265,482	123,877
97,714	-11,296	265,285	123,711
98,728	-11,419	265,000	123,457
99,743	-11,204	264,692	123,496
100,757	-11,392	264,486	123,219
101,772	-11,429	264,588	123,223
102,787	-11,318	264,168	123,116
103,801	-11,217	264,035	123,133
104,816	-11,116	263,853	123,128
105,830	-11,099	263,664	123,044
106,845	-11,082	263,663	123,048
107,860	-11,127	263,321	122,837
108,874	-11,141	263,113	122,717
109,889	-11,105	262,850	122,615
110,903	-11,101	262,637	122,508
111,918	-11,125	262,455	122,391
112,933	-11,064	262,288	122,356
113,947	-11,094	262,049	122,208
114,962	-11,086	261,844	122,108
115,976	-11,281	261,796	121,902
116,991	-11,112	261,391	121,852
118,006	-11,202	261,297	121,718
119,020	-11,151	261,159	121,688
120,035	-11,014	261,022	121,734
121,049	-11,054	260,980	121,668
122,064	-10,957	260,648	121,588
123,079	-11,066	260,344	121,340
124,093	-11,092	260,106	121,195
125,108	-11,255	259,902	120,946
126,122	-11,427	259,640	120,662
127,137	-11,511	259,458	120,493
128,151	-11,419	259,212	120,448
129,166	-11,187	259,013	120,549
130,181	-11,379	258,833	120,286
131,195	-11,458	258,738	120,162
132,210	-11,097	258,605	120,406
133,224	-11,075	258,426	120,331
134,239	-11,123	258,337	120,236
135,254	-10,952	257,967	120,203
136,268	-11,178	257,804	119,919
137,283	-11,454	257,457	119,506
138,297	-11,356	257,194	119,459
139,312	-11,296	257,062	119,439
140,327	-11,222	257,238	119,574
141,341	-10,882	256,846	119,677
142,356	-11,004	256,723	119,503
143,370	-11,044	256,601	119,401
144,385	-10,774	256,156	119,417
145,400	-10,840	256,033	119,292
146,414	-10,895	256,012	119,224
147,429	-10,980	255,828	119,054
148,443	-10,900	255,605	119,009
149,458	-10,947	255,477	118,898
150,473	-11,047	255,283	118,711
151,487	-11,166	255,044	118,486
152,502	-11,097	254,983	118,507
153,516	-10,820	254,626	118,569
154,531	-10,863	254,403	118,417
155,546	-10,989	254,310	118,255
156,560	-11,079	254,234	118,132
157,575	-10,992	253,887	118,035
158,589	-10,919	253,655	117,979
159,604	-10,958	253,679	117,946
160,619	-10,944	253,411	117,824
161,633	-11,168	253,298	117,569
162,648	-11,014	253,122	117,609
163,662	-10,940	252,902	117,559
164,677	-11,086	252,812	117,382
165,692	-11,188	252,640	117,205
166,706	-11,006	252,528	117,297
167,721	-10,880	252,247	117,264
168,735	-10,919	252,166	117,182
169,750	-11,009	252,013	117,024
170,764	-10,933	251,928	117,039
171,779	-10,887	251,678	116,951
172,794	-10,807	251,505	116,928
173,808	-11,000	251,231	116,627
174,823	-11,316	250,937	116,213
175,837	-11,535	250,763	115,936
176,852	-11,074	250,686	116,280
177,867	-10,880	250,601	116,395
178,881	-10,944	250,410	116,242
179,896	-10,891	250,087	116,125
180,910	-10,795	249,976	116,145
181,925	-10,899	249,855	115,991
182,940	-10,841	249,577	115,899
183,954	-10,972	249,596	115,788
184,969	-10,947	249,363	115,691
185,983	-10,876	249,292	115,707
186,998	-10,909	249,002	115,535
188,013	-10,736	248,971	115,655
189,027	-10,701	248,665	115,531
190,042	-10,904	248,487	115,268
191,056	-10,855	248,262	115,195
192,071	-10,856	248,053	115,087
193,086	-10,955	247,950	114,947
194,100	-11,095	247,702	114,704
195,115	-10,853	247,641	114,868
196,129	-10,840	247,338	114,728
197,144	-10,937	247,232	114,588
198,159	-10,984	246,971	114,417
199,173	-10,989	246,852	114,348
200,188	-10,964	246,701	114,289
201,202	-11,169	246,472	114,002
202,217	-11,335	246,156	113,708
203,232	-11,619	245,976	113,380
204,246	-10,984	245,905	113,862
205,261	-10,709	245,891	114,073
206,275	-11,487	245,367	113,178
207,290	-7,434	247,043	117,306
208,304	0,598	249,682	125,265
209,319	4,238	250,678	128,800
210,334	4,614	250,506	129,014
211,348	4,722	250,597	129,139
212,363	4,938	250,443	129,228
213,377	5,075	250,292	129,253
214,392	5,319	249,937	129,262
215,407	4,767	249,938	128,791
216,421	4,854	249,831	128,797
217,436	5,169	249,593	128,924
218,450	5,139	249,634	128,909
219,465	4,894	249,385	128,565
220,480	4,670	249,012	128,176
221,494	4,635	248,845	128,050
222,509	4,604	248,735	127,957
223,523	4,682	248,421	127,848
224,538	4,290	248,188	127,393
225,553	4,241	248,170	127,331
226,567	4,604	247,952	127,507
227,582	4,692	247,824	127,503
228,596	4,597	247,723	127,362
229,611	4,320	247,401	126,957
230,626	4,308	247,283	126,875
231,640	4,321	247,141	126,802
232,655	4,254	247,021	126,673
233,669	4,497	246,654	126,674
234,684	4,002	246,483	126,169
235,699	4,593	246,533	126,667
236,713	4,676	246,408	126,660
237,728	4,375	246,128	126,259
238,742	3,972	246,029	125,866
239,757	4,073	245,771	125,806
240,772	4,175	245,577	125,779
241,786	4,309	245,402	125,788
242,801	4,122	245,346	125,595
243,815	4,223	245,244	125,614
244,830	4,509	245,069	125,746
245,844	4,499	244,896	125,638
246,859	4,371	244,810	125,478
247,874	4,417	244,552	125,372
248,888	4,386	244,381	125,248
249,903	4,335	244,248	125,127
250,917	4,438	244,074	125,111
251,932	4,646	243,975	125,217
252,947	4,657	243,913	125,184
253,961	4,110	243,607	124,573
254,976	4,642	243,508	124,941
255,990	4,586	243,275	124,765
257,005	4,384	243,062	124,481
258,020	4,064	243,025	124,193
259,034	4,483	242,809	124,409
260,049	4,415	242,687	124,281
261,063	4,175	242,390	123,925
262,078	4,359	242,209	123,969
263,093	4,608	242,149	124,127
264,107	4,538	242,058	124,014
265,122	4,404	241,892	123,810
266,136	4,334	241,866	123,730
267,151	4,709	241,712	123,940
268,166	4,333	241,476	123,508
269,180	4,280	241,188	123,307
270,195	4,735	241,282	123,707
271,209	5,154	241,220	123,999
272,224	4,282	240,984	123,171
273,239	4,109	240,579	122,815
274,253	4,186	240,514	122,832
275,268	4,479	240,187	122,888
276,282	4,587	240,190	122,964
277,297	4,094	239,933	122,430
278,312	4,245	239,835	122,488
279,326	4,397	239,802	122,581
280,341	4,436	239,609	122,503
281,355	4,293	239,460	122,302
282,370	4,413	239,346	122,329
283,384	4,346	239,048	122,112
284,399	4,129	238,962	121,886
285,414	4,232	238,616	121,780
286,428	4,323	238,486	121,774
287,443	4,218	238,543	121,710
288,457	4,382	238,442	121,776
289,472	4,524	238,182	121,745
290,487	4,321	238,114	121,539
291,501	4,322	237,888	121,414
292,516	4,008	237,756	121,089
293,530	4,091	237,635	121,082
294,545	4,279	237,614	121,208
295,560	4,348	237,330	121,106
296,574	4,002	237,182	120,749
297,589	4,350	236,914	120,874
298,603	4,667	236,887	121,098
299,618	4,526	236,910	120,988
300,633	4,282	236,802	120,731
301,647	4,572	236,535	120,811
302,662	4,747	236,574	120,958
303,676	4,900	236,184	120,866
304,691	4,722	236,118	120,683
305,706	4,795	235,998	120,667
306,720	4,868	235,812	120,619
307,735	4,665	235,647	120,365
308,749	4,564	235,442	120,172
309,764	4,230	235,373	119,866
310,779	4,330	234,926	119,705
311,793	3,883	234,885	119,327
312,808	4,151	234,691	119,425
313,822	4,025	234,356	119,146
314,837	3,960	234,430	119,123
315,852	4,029	234,237	119,068
316,866	4,081	234,241	119,100
317,881	4,245	234,121	119,155
318,895	4,264	233,858	119,025
319,910	4,398	233,853	119,115
320,925	4,471	233,518	118,990
321,939	4,241	233,527	118,807
322,954	4,636	233,414	119,043
323,968	4,627	233,129	118,880
324,983	4,427	233,096	118,699
325,997	4,688	233,071	118,877
327,012	4,798	232,842	118,834
328,027	4,622	232,552	118,540
329,041	4,642	232,528	118,532
330,056	5,181	232,497	118,919
331,070	4,951	232,344	118,654
332,085	4,685	232,090	118,311
333,100	4,723	231,801	118,181
334,114	4,495	231,691	117,941
335,129	4,842	231,590	118,144
336,143	5,016	231,559	118,250
337,158	4,672	231,457	117,925
338,173	4,587	231,167	117,702
339,187	4,390	231,005	117,459
340,202	4,658	230,843	117,570
341,216	4,432	230,706	117,319
342,231	4,432	230,467	117,186
343,246	4,231	230,509	117,045
344,260	4,487	230,312	117,128
345,275	4,891	230,231	117,383
346,289	4,772	230,161	117,247
347,304	4,968	229,929	117,266
348,319	4,964	229,812	117,193
349,333	4,351	229,542	116,582
350,348	4,276	229,382	116,434
351,362	4,623	229,219	116,603
352,377	4,441	228,971	116,329
353,392	4,179	228,776	116,022
354,406	4,305	228,702	116,069
355,421	195,462	1318,211	1393,578
356,435	156,780	1450,914	1393,557
