DTS Sentinel unit serial number:	SN410029Multiplexer serial number:	ORYXHardware model number:	OX2-SRSoftware version number:	ORYX F/W v4,00 Oryx Data Collector v3.7.2.0data status	okinstallation	B5 Nyhavnadifferential loss correction	single-endedforward channel	channel 2reverse channel	N/Adate	2023/12/12time	12:32:13forward acquisition time	300,00reverse acquisition time	0,00gamma	499,1914k internal	0,3158k external	0,3158temperature offset calibration	1,0000default loss term (dB/km)	0,3820temperature slope calibration	1,0000multiplexer offset coefficient	1,0000multiplexer slope coefficient	1,0000fibre end	0,00T internal ref (°C)	15,32T ext. ref 1 (°C)	-0,61T ext. ref 2 (°C)	-0,86length (m)	temperature (°C)	Stokes	anti-Stokes-744,400	-200,000	0,015	-0,090
-743,385	-109,699	-0,273	-0,042
-742,371	-200,000	0,005	-0,028
-741,356	-62,885	-0,289	0,088
-740,342	-133,032	0,072	0,007
-739,327	-116,212	-0,357	0,048
-738,312	117,309	0,191	-0,173
-737,298	-135,304	-0,254	-0,022
-736,283	-139,828	0,104	-0,008
-735,269	-165,432	-0,306	-0,010
-734,254	-51,921	0,159	0,054
-733,239	-43,392	-0,387	-0,143
-732,225	-121,232	0,118	0,014
-731,210	-3,733	-0,083	-0,042
-730,196	-116,496	-0,036	-0,005
-729,181	-200,000	0,034	-0,183
-728,167	319,425	-0,047	-0,066
-727,152	509,138	0,038	0,066
-726,137	-69,232	-0,021	-0,006
-725,123	-95,981	0,060	-0,012
-724,108	-200,000	0,006	-0,128
-723,094	539,101	-0,086	-0,151
-722,079	237,281	0,038	-0,046
-721,064	-21,424	-0,204	0,091
-720,050	388,070	0,091	0,140
-719,035	-35,033	-0,014	-0,005
-718,021	-200,000	0,105	-0,000
-717,006	-200,000	-0,000	0,021
-715,991	-97,215	-0,143	-0,027
-714,977	-200,000	-0,004	-0,106
-713,962	178,695	-0,017	0,018
-712,948	-200,000	0,004	-0,023
-711,933	-200,000	-0,012	-0,039
-710,918	800,000	0,032	0,087
-709,904	-136,850	-0,226	0,019
-708,889	195,009	-0,051	-0,057
-707,875	216,219	-0,059	-0,069
-706,860	-200,000	0,005	0,023
-705,845	369,165	-0,041	0,061
-704,831	239,862	0,058	0,071
-703,816	-144,190	-0,114	0,008
-702,802	800,000	0,021	0,056
-701,787	800,000	0,019	0,041
-700,772	-200,000	-0,019	-0,088
-699,758	-200,000	-0,021	-0,141
-698,743	-90,614	-0,051	0,011
-697,729	-96,051	-0,103	0,020
-696,714	178,263	-0,052	0,056
-695,699	-200,000	-0,019	-0,070
-694,685	800,000	-0,039	-0,088
-693,670	-200,000	-0,009	-0,042
-692,656	-45,537	0,136	-0,049
-691,641	-141,702	0,125	-0,009
-690,627	62,301	-0,075	-0,055
-689,612	-73,968	0,089	0,024
-688,597	276,088	-0,018	0,024
-687,583	800,000	-0,006	0,015
-686,568	291,205	-0,013	-0,017
-685,554	-97,886	-0,072	0,013
-684,539	-20,959	0,085	-0,038
-683,524	96,566	0,054	-0,045
-682,510	800,000	0,033	0,082
-681,495	473,089	-0,035	-0,058
-680,481	-101,792	-0,118	-0,021
-679,466	130,716	-0,054	-0,051
-678,451	-80,811	-0,098	-0,024
-677,437	9,736	-0,075	-0,042
-676,422	121,263	0,063	0,057
-675,408	-135,562	-0,080	0,007
-674,393	49,576	0,048	0,033
-673,378	-200,000	-0,000	0,037
-672,364	-200,000	0,024	0,100
-671,349	-80,557	-0,077	0,019
-670,335	-108,141	-0,092	-0,015
-669,320	800,000	0,045	-0,114
-668,305	128,285	-0,045	0,042
-667,291	129,463	0,094	-0,089
-666,276	800,000	0,035	-0,073
-665,262	276,775	-0,105	-0,137
-664,247	164,701	0,047	-0,049
-663,232	-200,000	0,029	-0,175
-662,218	-108,597	-0,029	0,005
-661,203	-200,000	0,032	0,200
-660,189	31,431	0,029	0,018
-659,174	-200,000	-0,026	-0,091
-658,159	800,000	-0,017	-0,046
-657,145	800,000	-0,024	0,062
-656,130	-8,200	-0,164	-0,081
-655,116	-61,151	0,135	-0,042
-654,101	-126,635	-0,182	0,020
-653,086	-200,000	0,018	0,064
-652,072	-16,787	0,029	-0,013
-651,057	-200,000	-0,017	-0,128
-650,043	158,808	-0,089	0,091
-649,028	166,150	0,035	0,037
-648,014	-142,693	-0,085	0,006
-646,999	-39,980	0,108	0,041
-645,984	271,533	-0,030	0,039
-644,970	40,300	0,064	0,042
-643,955	734,614	0,029	-0,058
-642,941	-130,189	-0,039	-0,004
-641,926	149,683	-0,102	-0,102
-640,911	225,616	-0,057	-0,068
-639,897	-200,000	0,021	-0,142
-638,882	1,276	0,049	-0,026
-637,868	261,128	0,032	0,040
-636,853	800,000	-0,029	-0,060
-635,838	86,520	0,098	-0,079
-634,824	-200,000	-0,001	0,017
-633,809	-200,000	-0,018	-0,091
-632,795	148,542	0,050	0,050
-631,780	232,043	-0,072	-0,086
-630,765	10,977	-0,070	-0,039
-629,751	-98,350	-0,151	-0,028
-628,736	-102,854	-0,040	0,007
-627,722	717,894	-0,108	-0,212
-626,707	215,391	0,063	0,073
-625,692	42,342	0,017	0,011
-624,678	-200,000	-0,006	0,147
-623,663	489,047	0,018	0,030
-622,649	-91,132	0,133	-0,028
-621,634	-154,169	-0,164	0,008
-620,619	-92,681	-0,062	-0,013
-619,605	44,667	0,131	0,088
-618,590	800,000	0,027	0,076
-617,576	-49,722	-0,040	0,014
-616,561	455,469	0,050	0,082
-615,546	124,238	-0,113	-0,104
-614,532	103,228	-0,056	-0,049
-613,517	-200,000	0,003	-0,078
-612,503	26,523	-0,083	0,051
-611,488	241,478	0,032	0,039
-610,474	-200,000	-0,043	0,155
-609,459	-34,776	0,052	-0,021
-608,444	-99,903	-0,153	-0,028
-607,430	122,588	-0,089	-0,081
-606,415	-97,611	-0,081	0,015
-605,401	-76,276	-0,102	0,026
-604,386	-110,505	0,108	-0,016
-603,371	-73,281	-0,165	-0,044
-602,357	45,571	0,159	-0,107
-601,342	-58,889	-0,092	-0,029
-600,328	800,000	-0,069	-0,179
-599,313	-95,956	-0,064	-0,012
-598,298	-5,594	0,070	-0,035
-597,284	-77,910	0,139	0,035
-596,269	361,715	-0,068	-0,100
-595,255	603,872	-0,033	-0,060
-594,240	167,260	-0,059	-0,061
-593,225	346,922	0,034	-0,050
-592,211	170,705	0,021	-0,022
-591,196	-0,021	0,115	-0,060
-590,182	-200,000	0,007	-0,046
-589,167	800,000	0,024	0,057
-588,152	-47,404	-0,055	0,020
-587,138	64,788	-0,042	-0,031
-586,123	800,000	0,031	-0,087
-585,109	800,000	-0,064	-0,134
-584,094	719,048	-0,071	-0,138
-583,079	-200,000	-0,013	-0,106
-582,065	-66,194	-0,116	0,034
-581,050	67,936	0,039	0,030
-580,036	-189,871	-0,076	0,001
-579,021	-74,610	0,046	0,012
-578,006	-171,668	0,038	-0,001
-576,992	-200,000	-0,019	-0,075
-575,977	-200,000	-0,035	-0,124
-574,963	-89,885	0,043	-0,009
-573,948	800,000	-0,023	-0,047
-572,934	-200,000	-0,025	-0,113
-571,919	-200,000	-0,017	-0,092
-570,904	563,206	0,056	-0,099
-569,890	800,000	0,028	-0,084
-568,875	-200,000	-0,013	-0,104
-567,861	187,885	-0,041	0,045
-566,846	-200,000	0,012	0,074
-565,831	-200,000	0,030	-0,111
-564,817	340,447	-0,045	-0,065
-563,802	800,000	0,024	-0,067
-562,788	142,567	-0,073	0,071
-561,773	164,466	-0,051	-0,053
-560,758	-81,118	0,022	0,005
-559,744	-55,201	0,078	-0,026
-558,729	597,565	-0,067	0,123
-557,715	800,000	-0,031	-0,098
-556,700	-3,635	-0,043	-0,022
-555,685	-82,118	-0,165	-0,039
-554,671	-15,108	0,133	-0,062
-553,656	-186,076	0,069	0,001
-552,642	412,853	0,047	0,074
-551,627	247,787	0,035	0,043
-550,612	-7,176	0,113	0,056
-549,598	-128,941	-0,121	0,012
-548,583	341,312	-0,049	0,070
-547,569	-200,000	0,005	-0,071
-546,554	49,531	0,149	0,102
-545,539	334,820	-0,056	0,079
-544,525	-200,000	0,013	0,055
-543,510	-29,449	-0,134	-0,056
-542,496	-200,000	0,006	0,077
-541,481	233,105	0,011	-0,013
-540,466	456,336	-0,095	-0,154
-539,452	-122,345	0,114	-0,013
-538,437	-178,806	0,091	-0,001
-537,423	-129,280	0,144	0,014
-536,408	-16,338	-0,061	-0,028
-535,393	563,190	0,039	-0,069
-534,379	299,633	0,074	-0,100
-533,364	-200,000	0,006	0,031
-532,350	15,329	0,104	-0,060
-531,335	232,730	-0,083	-0,099
-530,321	94,183	0,099	0,082
-529,306	-99,395	0,119	0,022
-528,291	26,942	-0,104	0,064
-527,277	-200,000	-0,005	-0,136
-526,262	110,069	-0,063	-0,056
-525,248	800,000	0,024	0,066
-524,233	318,601	-0,041	0,057
-523,218	165,728	-0,015	-0,015
-522,204	800,000	0,045	-0,123
-521,189	-88,295	-0,039	-0,008
-520,175	-200,000	0,009	-0,081
-519,160	-187,608	0,049	-0,000
-518,145	-29,831	-0,170	0,071
-517,131	34,031	0,060	0,038
-516,116	-200,000	0,023	0,098
-515,102	800,000	0,045	0,111
-514,087	-200,000	0,012	-0,096
-513,072	-200,000	0,035	-0,240
-512,058	463,795	-0,091	0,149
-511,043	-200,000	-0,010	0,073
-510,029	-200,000	-0,013	-0,042
-509,014	800,000	-0,053	0,112
-507,999	-24,073	-0,052	0,023
-506,985	127,276	-0,051	-0,047
-505,970	142,757	0,037	0,036
-504,956	800,000	0,072	-0,167
-503,941	287,556	-0,016	-0,022
-502,926	151,641	0,115	0,115
-501,912	86,473	-0,099	0,079
-500,897	-68,261	0,057	-0,016
-499,883	151,081	-0,010	0,010
-498,868	301,569	-0,059	-0,079
-497,853	-29,904	0,065	-0,027
-496,839	-200,000	-0,017	-0,111
-495,824	467,611	0,087	0,143
-494,810	442,717	0,033	-0,052
-493,795	-200,000	0,008	-0,088
-492,781	-200,000	0,005	0,036
-491,766	229,578	0,089	-0,106
-490,751	-200,000	-0,004	-0,068
-489,737	-151,598	-0,068	0,004
-488,722	-87,089	0,084	0,019
-487,708	157,665	0,071	-0,072
-486,693	314,659	-0,019	0,026
-485,678	-133,939	-0,137	0,012
-484,664	-127,176	0,134	-0,014
-483,649	-86,169	-0,056	-0,013
-482,635	-200,000	0,013	0,082
-481,620	82,416	-0,050	-0,039
-480,605	-200,000	0,003	0,113
-479,591	800,000	-0,044	0,101
-478,576	-109,475	-0,009	-0,001
-477,562	-200,000	-0,005	-0,025
-476,547	-200,000	-0,004	-0,098
-475,532	607,355	0,026	0,047
-474,518	800,000	-0,029	-0,080
-473,503	800,000	-0,012	-0,031
-472,489	-200,000	0,015	0,104
-471,474	-58,134	-0,196	-0,062
-470,459	-104,591	-0,175	0,029
-469,445	588,365	0,017	0,031
-468,430	-200,000	-0,018	0,076
-467,416	-9,207	-0,055	-0,027
-466,401	-200,000	0,015	0,105
-465,386	68,912	-0,020	0,015
-464,372	-19,054	-0,028	-0,013
-463,357	800,000	-0,037	-0,116
-462,343	-23,720	-0,038	-0,017
-461,328	800,000	-0,056	-0,117
-460,313	53,501	-0,078	-0,055
-459,299	470,415	0,049	-0,081
-458,284	-200,000	-0,001	0,038
-457,270	695,139	-0,089	0,172
-456,255	330,431	0,023	-0,032
-455,241	520,977	0,042	-0,072
-454,226	162,447	-0,031	-0,032
-453,211	-106,005	0,139	-0,023
-452,197	55,559	0,071	-0,050
-451,182	28,609	0,089	0,055
-450,168	-77,602	-0,057	0,014
-449,153	172,352	0,040	0,042
-448,138	800,000	-0,048	0,136
-447,124	399,136	0,033	0,051
-446,109	166,796	-0,121	-0,125
-445,095	-155,156	0,035	0,002
-444,080	433,245	0,039	0,061
-443,065	-200,000	0,019	0,087
-442,051	-52,630	-0,114	0,038
-441,036	-200,000	-0,001	-0,137
-440,022	-132,027	0,125	-0,012
-439,007	-65,160	-0,113	0,033
-437,992	584,098	0,044	0,078
-436,978	-200,000	0,000	0,097
-435,963	330,536	0,084	0,118
-434,949	62,769	0,065	-0,047
-433,934	-176,868	-0,178	0,003
-432,919	-20,666	-0,071	-0,032
-431,905	-62,162	0,114	-0,034
-430,890	-200,000	-0,003	0,106
-429,876	5,496	-0,039	-0,021
-428,861	249,137	0,040	0,050
-427,846	24,599	0,041	-0,025
-426,832	-90,206	-0,140	-0,029
-425,817	-85,880	0,126	0,028
-424,803	-200,000	0,023	-0,143
-423,788	-200,000	-0,007	-0,040
-422,773	-200,000	0,019	0,103
-421,759	-12,539	0,154	-0,073
-420,744	-142,601	0,044	0,003
-419,730	489,615	0,049	-0,082
-418,715	-103,558	-0,075	0,013
-417,701	-200,000	-0,011	-0,096
-416,686	-121,837	0,035	-0,004
-415,671	-54,201	0,134	0,044
-414,657	658,295	-0,064	0,121
-413,642	-200,000	-0,022	0,075
-412,628	-200,000	0,004	-0,038
-411,613	-84,231	-0,139	-0,032
-410,598	260,759	0,067	-0,084
-409,584	43,911	0,024	-0,016
-408,569	75,867	0,096	0,073
-407,555	216,001	-0,164	0,190
-406,540	47,296	0,094	0,063
-405,525	305,678	-0,091	-0,124
-404,511	-200,000	-0,019	-0,121
-403,496	-200,000	0,009	-0,174
-402,482	-106,417	-0,090	0,015
-401,467	-152,768	0,045	-0,002
-400,452	538,952	0,043	0,074
-399,438	436,422	0,041	0,065
-398,423	800,000	0,055	0,144
-397,409	232,385	-0,059	0,070
-396,394	-195,230	-0,075	-0,000
-395,379	-200,000	0,008	-0,069
-394,365	-85,830	0,113	-0,025
-393,350	-37,545	0,068	-0,026
-392,336	25,282	-0,102	-0,062
-391,321	-200,000	0,032	-0,146
-390,306	-36,605	0,047	-0,018
-389,292	339,905	-0,045	0,064
-388,277	800,000	-0,039	0,091
-387,263	-73,983	0,120	0,031
-386,248	273,793	-0,069	0,088
-385,233	-200,000	0,009	0,031
-384,219	-0,565	-0,101	-0,052
-383,204	-1,378	-0,075	0,038
-382,190	800,000	0,045	-0,107
-381,175	-73,032	-0,113	0,030
-380,160	246,742	0,066	-0,082
-379,146	-200,000	0,011	-0,129
-378,131	-39,506	0,099	0,037
-377,117	-200,000	-0,015	0,086
-376,102	120,851	0,151	-0,136
-375,088	601,558	-0,052	0,095
-374,073	94,997	-0,083	0,069
-373,058	800,000	-0,031	0,066
-372,044	-124,914	0,067	-0,007
-371,029	76,215	-0,087	0,067
-370,015	-35,375	0,043	0,017
-369,000	-200,000	-0,005	0,040
-367,985	646,103	0,053	-0,100
-366,971	550,904	0,067	0,116
-365,956	-55,383	0,094	0,030
-364,942	-200,000	-0,012	-0,046
-363,927	-200,000	-0,024	0,089
-362,912	-37,556	-0,042	-0,016
-361,898	89,431	0,032	0,026
-360,883	-107,897	-0,036	0,006
-359,869	-65,533	-0,108	-0,031
-358,854	-200,000	0,013	0,206
-357,839	32,394	0,061	0,038
-356,825	800,000	0,008	0,017
-355,810	-172,405	-0,044	0,001
-354,796	800,000	-0,017	-0,039
-353,781	800,000	-0,033	0,069
-352,766	-200,000	-0,018	-0,180
-351,752	-200,000	-0,004	0,073
-350,737	-2,338	-0,073	-0,037
-349,723	536,557	0,098	0,170
-348,708	727,151	0,042	0,082
-347,693	800,000	-0,031	-0,085
-346,679	347,609	-0,048	-0,068
-345,664	-88,271	-0,037	-0,008
-344,650	800,000	0,039	0,100
-343,635	-72,846	-0,064	-0,017
-342,620	-200,000	-0,015	0,094
-341,606	-200,000	-0,001	0,226
-340,591	23,748	-0,055	0,033
-339,577	-100,388	-0,089	0,016
-338,562	630,633	-0,045	-0,083
-337,548	376,453	-0,105	0,156
-336,533	-41,538	-0,022	0,008
-335,518	-11,643	0,212	0,101
-334,504	-200,000	-0,016	0,119
-333,489	-122,186	-0,149	-0,017
-332,475	-200,000	-0,002	0,070
-331,460	800,000	0,064	-0,138
-330,445	52,957	-0,091	0,063
-329,431	-200,000	-0,043	0,157
-328,416	800,000	0,028	0,060
-327,402	-63,124	-0,095	0,028
-326,387	299,689	-0,082	-0,110
-325,372	-113,049	0,043	-0,006
-324,358	-200,000	0,038	-0,132
-323,343	800,000	0,052	-0,134
-322,329	800,000	0,046	0,139
-321,314	175,716	0,086	0,091
-320,299	-106,689	0,082	0,013
-319,285	371,719	-0,059	0,087
-318,270	373,049	0,127	-0,187
-317,256	577,268	0,032	0,057
-316,241	116,000	0,055	-0,049
-315,226	-200,000	0,007	0,130
-314,212	800,000	0,047	0,145
-313,197	-15,582	0,079	0,037
-312,183	166,427	0,036	0,037
-311,168	124,652	-0,117	-0,107
-310,153	-200,000	-0,018	-0,099
-309,139	800,000	-0,053	0,140
-308,124	800,000	-0,028	-0,066
-307,110	29,341	0,066	-0,041
-306,095	105,493	0,048	-0,041
-305,080	-101,906	-0,144	0,025
-304,066	-200,000	0,060	0,208
-303,051	-122,906	-0,148	-0,017
-302,037	710,057	-0,032	-0,061
-301,022	-28,916	0,056	-0,023
-300,008	112,332	0,099	-0,087
-298,993	162,046	0,096	0,098
-297,978	221,337	0,046	-0,054
-296,964	-173,283	-0,012	0,000
-295,949	-41,665	-0,104	0,039
-294,935	211,521	0,083	-0,094
-293,920	17,858	-0,038	-0,022
-292,905	232,663	0,036	0,043
-291,891	-200,000	0,024	0,236
-290,876	52,598	0,034	0,023
-289,862	-18,623	-0,023	-0,010
-288,847	269,997	0,059	-0,076
-287,832	-152,819	-0,049	0,002
-286,818	-97,058	-0,188	-0,035
-285,803	-74,476	0,088	-0,023
-284,789	-6,649	0,101	0,050
-283,774	416,624	-0,088	-0,136
-282,759	-42,819	-0,088	-0,032
-281,745	-200,000	-0,004	-0,066
-280,730	332,890	0,028	-0,039
-279,716	-60,487	-0,197	0,060
-278,701	221,162	0,070	0,081
-277,686	-74,617	0,108	0,028
-276,672	800,000	0,040	0,121
-275,657	800,000	-0,026	-0,053
-274,643	-200,000	0,023	-0,111
-273,628	-154,928	-0,130	-0,006
-272,613	291,494	0,042	-0,055
-271,599	186,881	0,068	0,074
-270,584	227,145	0,041	0,048
-269,570	-52,962	0,149	-0,049
-268,555	800,000	0,021	-0,051
-267,540	6,225	-0,167	0,089
-266,526	281,853	-0,113	-0,147
-265,511	81,341	-0,117	0,091
-264,497	800,000	0,075	0,182
-263,482	293,609	0,128	0,169
-262,467	56,443	-0,107	-0,075
-261,453	-200,000	-0,005	-0,064
-260,438	-48,872	-0,085	-0,029
-259,424	-200,000	-0,006	0,028
-258,409	120,563	0,047	0,042
-257,395	-31,840	0,041	0,017
-256,380	-200,000	0,007	0,146
-255,365	172,309	-0,126	0,131
-254,351	-26,228	0,176	-0,074
-253,336	-31,092	-0,090	-0,037
-252,322	-87,487	-0,144	-0,031
-251,307	-86,840	-0,150	-0,033
-250,292	-61,945	0,100	0,030
-249,278	-200,000	-0,018	0,088
-248,263	-200,000	-0,031	0,162
-247,249	547,126	0,085	0,148
-246,234	-200,000	0,022	0,081
-245,219	800,000	-0,050	-0,142
-244,205	-200,000	0,000	0,114
-243,190	-112,625	-0,025	0,004
-242,176	289,810	0,032	-0,043
-241,161	-28,864	0,178	0,074
-240,146	-200,000	-0,015	0,095
-239,132	-200,000	-0,008	-0,066
-238,117	-200,000	-0,011	0,108
-237,103	123,818	0,043	-0,039
-236,088	-200,000	-0,015	-0,099
-235,073	800,000	0,027	-0,066
-234,059	381,066	0,060	0,090
-233,044	48,490	-0,102	0,069
-232,030	142,726	0,062	-0,059
-231,015	-200,000	0,001	-0,039
-230,000	-44,459	-0,036	-0,013
-228,986	40,755	-0,027	0,017
-227,971	315,718	0,038	-0,053
-226,957	-200,000	0,020	0,127
-225,942	457,903	0,027	-0,044
-224,927	800,000	0,032	0,080
-223,913	-37,954	0,106	-0,040
-222,898	-200,000	0,002	-0,062
-221,884	-200,000	-0,035	0,170
-220,869	-200,000	-0,008	0,074
-219,855	98,704	0,078	-0,065
-218,840	-176,760	0,080	-0,001
-217,825	447,988	0,014	-0,022
-216,811	469,731	-0,057	0,093
-215,796	-181,362	0,146	-0,002
-214,782	800,000	0,052	-0,114
-213,767	-110,390	-0,116	-0,017
-212,752	-130,372	0,059	0,006
-211,738	390,230	0,081	0,122
-210,723	-200,000	0,004	-0,185
-209,709	447,256	0,029	-0,046
-208,694	192,524	0,031	-0,034
-207,679	-76,532	0,010	-0,003
-206,665	800,000	-0,032	-0,078
-205,650	-101,713	0,052	-0,009
-204,636	255,122	0,042	-0,053
-203,621	-12,344	-0,051	0,024
-202,606	-129,990	-0,076	0,007
-201,592	588,380	0,084	0,151
-200,577	8,500	0,153	-0,083
-199,563	-179,103	0,101	-0,002
-198,548	36,347	0,061	-0,039
-197,533	72,839	0,081	-0,061
-196,519	-200,000	-0,014	0,060
-195,504	117,047	-0,055	-0,049
-194,490	-200,000	0,003	-0,077
-193,475	-73,091	0,035	-0,009
-192,460	-104,982	0,130	-0,021
-191,446	800,000	-0,010	-0,030
-190,431	-69,424	0,113	0,031
-189,417	34,449	-0,135	0,085
-188,402	800,000	0,019	-0,039
-187,387	450,135	-0,048	-0,077
-186,373	-77,533	-0,202	-0,050
-185,358	80,296	0,101	-0,079
-184,344	800,000	-0,036	0,097
-183,329	-67,667	0,104	0,029
-182,315	-74,426	0,130	-0,034
-181,300	-28,577	-0,162	0,067
-180,285	-48,528	0,070	-0,024
-179,271	-200,000	0,027	-0,099
-178,256	-18,324	-0,078	-0,035
-177,242	-93,154	0,251	-0,050
-176,227	-200,000	0,021	0,122
-175,212	-200,000	-0,021	-0,081
-174,198	-200,000	-0,001	0,105
-173,183	273,367	-0,090	0,115
-172,169	-46,222	-0,136	0,048
-171,154	-200,000	-0,001	0,062
-170,139	155,969	0,091	0,090
-169,125	-102,571	0,091	0,016
-168,110	-200,000	0,012	0,063
-167,096	259,257	0,093	0,116
-166,081	132,753	0,049	0,046
-165,066	203,476	-0,133	-0,149
-164,052	-200,000	-0,001	-0,085
-163,037	-26,830	-0,116	-0,049
-162,023	800,000	-0,061	0,183
-161,008	-200,000	0,012	-0,127
-159,993	13,896	0,108	0,060
-158,979	-200,000	-0,003	-0,074
-157,964	712,841	-0,014	-0,027
-156,950	-180,033	0,038	0,001
-155,935	137,439	0,047	0,044
-154,920	274,594	-0,036	0,046
-153,906	41,628	0,074	0,048
-152,891	179,946	-0,060	-0,064
-151,877	-200,000	-0,025	-0,118
-150,862	86,214	-0,154	-0,122
-149,847	-69,965	0,046	-0,013
-148,833	217,999	-0,047	0,054
-147,818	-200,000	-0,010	0,084
-146,804	-200,000	0,011	0,175
-145,789	800,000	0,046	-0,122
-144,775	800,000	0,037	-0,090
-143,760	-51,682	-0,189	-0,063
-142,745	-200,000	-0,015	-0,092
-141,731	-200,000	0,013	-0,085
-140,716	136,120	0,153	-0,143
-139,702	-110,397	0,107	-0,016
-138,687	77,104	0,057	-0,044
-137,672	-200,000	-0,001	-0,029
-136,658	773,022	0,035	0,069
-135,643	-200,000	0,010	-0,109
-134,629	200,992	-0,036	-0,040
-133,614	19,637	-0,040	0,023
-132,599	800,000	0,010	0,024
-131,585	207,719	0,044	0,050
-130,570	110,411	0,139	-0,120
-129,556	-200,000	0,008	0,063
-128,541	80,396	-0,064	-0,049
-127,526	381,079	0,014	0,020
-126,512	800,000	-0,011	0,029
-125,497	-40,494	0,158	0,059
-124,483	137,208	0,059	0,055
-123,468	301,153	0,092	0,123
-122,453	-200,000	-0,014	-0,117
-121,439	679,736	0,071	0,134
-120,424	210,383	-0,072	-0,082
-119,410	60,301	0,094	0,067
-118,395	355,281	0,038	-0,054
-117,380	800,000	-0,083	0,182
-116,366	175,467	0,087	0,090
-115,351	-42,948	-0,058	0,021
-114,337	108,238	-0,045	0,039
-113,322	-200,000	0,017	-0,071
-112,307	-94,095	0,074	-0,015
-111,293	-146,605	-0,068	0,004
-110,278	-127,261	0,102	-0,011
-109,264	531,964	0,033	0,057
-108,249	-200,000	0,023	-0,095
-107,234	800,000	0,029	0,064
-106,220	10,012	-0,110	-0,060
-105,205	-200,000	0,004	0,074
-104,191	245,548	-0,049	-0,059
-103,176	800,000	-0,053	0,118
-102,162	29,290	-0,065	-0,040
-101,147	147,796	-0,046	0,045
-100,132	69,132	-0,035	0,026
-99,118	-62,062	0,110	-0,033
-98,103	-200,000	0,022	-0,110
-97,089	-200,000	0,043	0,184
-96,074	610,098	0,123	0,222
-95,059	459,502	-0,139	0,223
-94,045	-200,000	-0,009	-0,030
-93,030	-97,082	-0,076	0,014
-92,016	577,649	0,060	-0,107
-91,001	189,439	0,070	-0,076
-89,986	-200,000	-0,025	0,149
-88,972	202,764	-0,055	-0,061
-87,957	-58,012	-0,133	0,041
-86,943	-200,000	-0,014	0,050
-85,928	1,874	-0,080	-0,041
-84,913	-200,000	0,002	-0,146
-83,899	-88,469	-0,039	-0,008
-82,884	-115,214	0,056	-0,007
-81,870	-106,621	-0,096	-0,015
-80,855	-71,795	-0,077	0,020
-79,840	-67,242	-0,106	-0,030
-78,826	61,940	0,078	-0,056
-77,811	16,279	-0,105	-0,059
-76,797	-10,303	0,062	0,029
-75,782	800,000	0,025	-0,063
-74,767	11,337	-0,068	-0,037
-73,753	800,000	0,046	0,130
-72,738	105,741	0,073	-0,062
-71,724	800,000	0,018	-0,054
-70,709	-19,481	0,050	-0,022
-69,694	144,001	-0,063	0,061
-68,680	75,336	-0,059	0,045
-67,665	-7,394	-0,050	0,024
-66,651	-54,526	0,061	0,020
-65,636	57,873	0,020	0,014
-64,622	-184,277	-0,153	-0,002
-63,607	-82,038	-0,175	-0,041
-62,592	-94,283	-0,040	0,008
-61,578	-200,000	-0,001	0,110
-60,563	-41,356	-0,044	-0,016
-59,549	28,911	-0,052	0,032
-58,534	-5,805	-1,945	-0,952
-57,519	-200,000	-0,216	-0,933
-56,505	-200,000	-1,282	-5,026
-55,490	39,541	0,759	0,487
-54,476	800,000	5,385	12,015
-53,461	-200,000	17,626	283,544
-52,446	800,000	727,218	2214,243
-51,432	534,676	1643,184	2806,044
-50,417	109,929	1633,213	1405,637
-49,403	75,323	1285,893	972,337
-48,388	31,972	1027,340	633,750
-47,373	20,140	989,334	571,303
-46,359	18,450	977,196	558,731
-45,344	15,685	973,085	547,315
-44,330	15,869	971,636	547,081
-43,315	15,377	970,032	544,550
-42,300	15,374	968,619	543,723
-41,286	15,354	967,732	543,138
-40,271	15,343	966,652	542,475
-39,257	15,361	965,772	542,020
-38,242	15,428	964,919	541,735
-37,227	15,301	964,168	540,880
-36,213	15,348	963,256	540,501
-35,198	15,334	962,376	539,942
-34,184	15,404	961,632	539,729
-33,169	15,334	960,732	538,977
-32,154	15,296	959,869	538,348
-31,140	15,344	958,841	537,904
-30,125	15,391	958,130	537,635
-29,111	15,315	957,484	537,007
-28,096	15,376	956,767	536,779
-27,082	15,348	956,163	536,330
-26,067	15,365	955,253	535,852
-25,052	15,301	954,580	535,246
-24,038	15,352	953,751	534,926
-23,023	15,307	953,162	534,429
-22,009	15,419	952,475	534,380
-20,994	15,388	951,872	533,923
-19,979	15,337	951,241	533,383
-18,965	15,333	950,585	532,983
-17,950	15,352	950,087	532,743
-16,936	15,328	949,445	532,286
-15,921	15,352	948,544	531,837
-14,906	15,292	947,856	531,237
-13,892	15,224	947,319	530,700
-12,877	15,225	946,866	530,428
-11,863	15,160	946,000	529,715
-10,848	15,255	945,535	529,735
-9,833	15,296	945,191	529,653
-8,819	15,312	944,435	529,259
-7,804	15,222	943,924	528,665
-6,790	15,232	943,376	528,368
-5,775	15,241	942,855	528,083
-4,760	15,272	942,015	527,692
-3,746	15,236	941,541	527,291
-2,731	15,111	940,811	526,465
-1,717	15,037	940,182	525,858
-0,702	15,115	939,348	525,618
0,313	14,920	938,844	525,515
1,327	18,047	936,596	534,055
2,342	26,938	794,164	476,390
3,356	23,665	459,836	270,801
4,371	-2,878	315,596	157,546
5,386	-6,762	297,391	144,500
6,400	-8,849	291,457	139,525
7,415	-9,319	288,849	137,800
8,429	-9,579	287,319	136,801
9,444	-9,442	286,190	136,386
10,459	-9,609	285,826	136,037
11,473	-9,717	285,083	135,566
12,488	-9,503	284,689	135,575
13,502	-9,565	284,164	135,253
14,517	-9,472	283,748	135,133
15,531	-9,744	283,281	134,635
16,546	-9,739	283,004	134,496
17,561	-9,852	282,398	134,087
18,575	-9,850	282,122	133,946
19,590	-9,827	281,681	133,748
20,604	-9,590	281,586	133,918
21,619	-9,808	281,066	133,449
22,634	-9,846	280,811	133,280
23,648	-9,799	280,402	133,119
24,663	-9,696	280,136	133,080
25,677	-9,944	279,837	132,689
26,692	-9,830	279,691	132,716
27,707	-9,722	279,305	132,624
28,721	-9,741	279,207	132,548
29,736	-9,936	278,731	132,125
30,750	-9,768	278,295	132,066
31,765	-9,680	278,208	132,096
32,780	-9,984	278,050	131,721
33,794	-9,921	277,977	131,734
34,809	-9,671	277,390	131,681
35,823	-9,790	277,302	131,515
36,838	-9,892	277,175	131,346
37,853	-9,932	276,807	131,123
38,867	-9,936	276,548	130,984
39,882	-9,899	276,215	130,850
40,896	-9,760	275,981	130,858
41,911	-9,727	275,615	130,704
42,926	-9,939	275,648	130,509
43,940	-9,868	275,258	130,379
44,955	-9,881	275,092	130,277
45,969	-9,880	274,805	130,131
46,984	-10,065	274,483	129,793
47,999	-10,353	274,441	129,492
49,013	-10,456	274,101	129,223
50,028	-10,513	273,823	129,028
51,042	-10,658	273,501	128,729
52,057	-10,634	273,089	128,546
53,071	-10,636	272,980	128,481
54,086	-10,518	272,920	128,552
55,101	-10,383	272,782	128,600
56,115	-10,215	272,616	128,667
57,130	-9,804	272,467	128,967
58,144	-9,623	272,238	129,015
59,159	-9,603	271,958	128,889
60,174	-9,601	271,909	128,857
61,188	-9,464	271,522	128,788
62,203	-9,633	271,294	128,512
63,217	-9,658	270,954	128,317
64,232	-9,739	270,834	128,174
65,247	-9,563	270,663	128,244
66,261	-9,574	270,403	128,099
67,276	-9,955	270,084	127,587
68,290	-10,111	269,863	127,327
69,305	-9,956	269,644	127,355
70,320	-9,868	269,524	127,367
71,334	-9,644	269,292	127,452
72,349	-9,629	269,076	127,352
73,363	-9,644	269,004	127,293
74,378	-9,510	268,668	127,245
75,393	-9,727	268,550	126,979
76,407	-9,534	268,309	127,030
77,422	-9,561	268,053	126,873
78,436	-9,681	267,727	126,598
79,451	-9,614	267,547	126,562
80,466	-9,760	267,381	126,340
81,480	-9,832	267,051	126,108
82,495	-9,947	266,906	125,924
83,509	-9,995	266,869	125,852
84,524	-9,903	266,463	125,732
85,539	-9,874	266,111	125,581
86,553	-10,091	266,066	125,352
87,568	-9,847	265,954	125,509
88,582	-9,928	265,679	125,295
89,597	-9,885	265,556	125,264
90,611	-9,811	265,299	125,199
91,626	-9,605	265,155	125,305
92,641	-9,614	264,929	125,179
93,655	-9,569	264,586	125,046
94,670	-9,741	264,485	124,833
95,684	-9,709	264,289	124,758
96,699	-9,687	263,928	124,596
97,714	-9,734	263,962	124,559
98,728	-9,998	263,743	124,208
99,743	-9,897	263,515	124,180
100,757	-10,087	263,181	123,842
101,772	-10,207	263,207	123,736
102,787	-9,857	262,937	123,910
103,801	-9,730	262,723	123,911
104,816	-9,643	262,624	123,931
105,830	-9,698	262,282	123,710
106,845	-9,598	262,174	123,737
107,860	-9,619	261,972	123,612
108,874	-9,733	261,729	123,385
109,889	-9,732	261,615	123,321
110,903	-9,769	261,310	123,133
111,918	-9,747	261,077	123,032
112,933	-9,630	260,871	123,027
113,947	-9,788	260,886	122,883
114,962	-9,874	260,642	122,682
115,976	-9,484	260,310	122,859
116,991	-9,744	260,074	122,507
118,006	-9,619	260,012	122,578
119,020	-9,720	259,999	122,471
120,035	-9,598	259,673	122,414
121,049	-9,641	259,536	122,301
122,064	-9,779	259,355	122,083
123,079	-9,586	259,184	122,161
124,093	-9,879	259,022	121,817
125,108	-9,861	258,614	121,631
126,122	-10,157	258,405	121,262
127,137	-10,098	258,287	121,248
128,151	-10,065	257,958	121,111
129,166	-9,791	257,742	121,238
130,181	-9,838	257,554	121,097
131,195	-10,015	257,445	120,881
132,210	-9,855	257,259	120,923
133,224	-9,667	257,239	121,066
134,239	-9,527	256,979	121,054
135,254	-9,531	256,829	120,970
136,268	-9,677	256,611	120,729
137,283	-10,061	256,220	120,202
138,297	-10,064	256,041	120,104
139,312	-10,098	255,795	119,949
140,327	-9,718	255,725	120,235
141,341	-9,315	255,724	120,572
142,356	-9,460	255,573	120,364
143,370	-9,495	255,292	120,191
144,385	-9,370	255,168	120,230
145,400	-9,534	255,043	120,019
146,414	-9,288	254,686	120,052
147,429	-9,484	254,582	119,824
148,443	-9,646	254,388	119,582
149,458	-9,482	254,303	119,672
150,473	-9,332	253,993	119,644
151,487	-9,495	253,775	119,392
152,502	-9,356	253,713	119,471
153,516	-9,636	253,564	119,151
154,531	-9,356	253,260	119,237
155,546	-9,505	253,150	119,047
156,560	-9,509	252,963	118,944
157,575	-9,522	252,678	118,789
158,589	-9,588	252,527	118,651
159,604	-9,309	252,396	118,816
160,619	-9,477	252,252	118,595
161,633	-9,479	252,123	118,522
162,648	-9,517	251,823	118,339
163,662	-9,380	251,759	118,415
164,677	-9,535	251,604	118,199
165,692	-9,358	251,444	118,264
166,706	-9,281	251,338	118,268
167,721	-9,518	251,168	117,977
168,735	-9,446	251,005	117,951
169,750	-9,462	250,843	117,851
170,764	-9,319	250,699	117,893
171,779	-9,443	250,664	117,762
172,794	-9,563	250,378	117,515
173,808	-9,420	250,061	117,477
174,823	-9,831	249,762	116,980
175,837	-10,050	249,602	116,710
176,852	-9,590	249,561	117,068
177,867	-9,333	249,436	117,215
178,881	-9,445	249,402	117,094
179,896	-9,488	249,113	116,912
180,910	-9,423	248,978	116,893
181,925	-9,401	248,706	116,773
182,940	-9,440	248,660	116,708
183,954	-9,205	248,388	116,767
184,969	-9,278	248,303	116,655
185,983	-9,318	248,053	116,494
186,998	-9,346	247,850	116,365
188,013	-9,232	247,768	116,412
189,027	-9,486	247,635	116,127
190,042	-9,304	247,506	116,208
191,056	-9,111	247,281	116,252
192,071	-9,233	247,093	116,052
193,086	-9,260	246,888	115,922
194,100	-9,343	246,780	115,792
195,115	-9,090	246,486	115,855
196,129	-9,498	246,386	115,458
197,144	-9,241	246,197	115,573
198,159	-9,403	246,101	115,383
199,173	-9,177	245,863	115,449
200,188	-9,336	245,648	115,206
201,202	-9,457	245,247	114,907
202,217	-10,025	245,195	114,405
203,232	-9,827	244,950	114,443
204,246	-9,515	244,924	114,677
205,261	-8,984	244,997	115,139
206,275	-9,866	244,554	114,195
207,290	-6,088	246,022	117,994
208,304	0,532	247,967	124,415
209,319	3,530	248,818	127,324
210,334	3,980	248,845	127,699
211,348	4,221	248,793	127,861
212,363	4,490	248,679	128,014
213,377	4,541	248,518	127,961
214,392	4,433	248,246	127,721
215,407	4,400	248,165	127,641
216,421	4,346	247,972	127,486
217,436	4,483	247,833	127,516
218,450	4,964	247,614	127,788
219,465	4,386	247,478	127,231
220,480	4,279	247,277	127,027
221,494	4,282	247,072	126,914
222,509	4,093	247,167	126,796
223,523	4,218	246,724	126,659
224,538	3,852	246,388	126,176
225,553	3,956	246,375	126,242
226,567	3,997	246,138	126,143
227,582	3,930	246,117	126,066
228,596	4,019	245,998	126,067
229,611	3,722	245,703	125,663
230,626	3,618	245,500	125,462
231,640	3,771	245,319	125,483
232,655	3,928	245,184	125,532
233,669	3,836	245,077	125,391
234,684	3,523	244,913	125,040
235,699	4,049	245,025	125,515
236,713	4,142	244,777	125,453
237,728	4,126	244,407	125,238
238,742	3,825	244,272	124,914
239,757	3,720	244,061	124,709
240,772	3,938	243,970	124,828
241,786	3,891	243,855	124,721
242,801	3,668	243,671	124,434
243,815	3,686	243,393	124,296
244,830	3,969	243,488	124,562
245,844	3,867	243,315	124,380
246,859	3,922	243,036	124,271
247,874	3,802	242,887	124,087
248,888	3,814	242,769	124,025
249,903	3,908	242,623	124,016
250,917	3,982	242,514	124,008
251,932	4,332	242,377	124,210
252,947	4,272	242,163	124,040
253,961	3,851	241,840	123,526
254,976	4,004	241,744	123,588
255,990	4,150	241,758	123,702
257,005	4,060	241,450	123,461
258,020	3,770	241,202	123,091
259,034	3,776	241,051	123,007
260,049	4,117	240,906	123,195
261,063	3,807	240,813	122,889
262,078	3,764	240,621	122,746
263,093	3,972	240,527	122,852
264,107	4,067	240,436	122,871
265,122	3,812	240,224	122,548
266,136	4,073	240,114	122,689
267,151	4,287	240,055	122,819
268,166	3,798	239,703	122,239
269,180	3,553	239,605	121,983
270,195	4,241	239,531	122,482
271,209	4,377	239,615	122,621
272,224	3,844	239,245	121,998
273,239	3,340	239,100	121,513
274,253	3,824	238,731	121,698
275,268	3,727	238,758	121,625
276,282	3,913	238,573	121,667
277,297	3,696	238,249	121,319
278,312	3,977	238,259	121,536
279,326	3,951	238,168	121,458
280,341	3,848	238,019	121,290
281,355	4,066	237,889	121,384
282,370	4,104	237,662	121,288
283,384	3,869	237,401	120,959
284,399	3,837	237,323	120,883
285,414	3,645	237,087	120,601
286,428	3,726	236,887	120,553
287,443	3,849	236,915	120,652
288,457	4,010	236,739	120,678
289,472	4,078	236,602	120,651
290,487	3,829	236,405	120,345
291,501	3,820	236,135	120,190
292,516	3,781	235,929	120,043
293,530	3,671	235,796	119,879
294,545	3,927	235,953	120,148
295,560	3,998	235,649	120,038
296,574	3,818	235,489	119,806
297,589	3,928	235,330	119,800
298,603	4,285	235,307	120,056
299,618	4,107	235,109	119,805
300,633	3,916	235,137	119,660
301,647	4,048	235,009	119,687
302,662	4,211	234,825	119,709
303,676	4,298	234,602	119,652
304,691	4,307	234,404	119,548
305,706	4,267	234,401	119,504
306,720	4,268	234,220	119,402
307,735	4,345	233,899	119,288
308,749	4,117	233,760	119,029
309,764	3,917	233,607	118,787
310,779	3,730	233,497	118,576
311,793	3,521	233,206	118,257
312,808	3,894	232,955	118,406
313,822	3,588	232,849	118,106
314,837	3,496	232,757	117,978
315,852	3,587	232,699	118,008
316,866	3,922	232,659	118,235
317,881	3,914	232,456	118,114
318,895	4,266	232,360	118,326
319,910	4,046	231,987	117,956
320,925	3,996	231,931	117,879
321,939	4,005	231,832	117,826
322,954	4,137	231,794	117,896
323,968	3,938	231,633	117,653
324,983	3,651	231,390	117,298
325,997	3,765	231,174	117,266
327,012	4,013	231,089	117,402
328,027	3,977	231,003	117,320
329,041	4,299	230,999	117,553
330,056	4,692	231,003	117,844
331,070	4,696	230,815	117,741
332,085	4,340	230,485	117,291
333,100	3,993	230,110	116,826
334,114	4,016	230,182	116,870
335,129	4,206	230,033	116,929
336,143	4,538	229,800	117,051
337,158	4,432	229,813	116,967
338,173	4,251	229,499	116,659
339,187	4,024	229,337	116,395
340,202	3,967	229,386	116,367
341,216	4,181	229,145	116,395
342,231	3,893	228,874	116,030
343,246	4,104	228,848	116,165
344,260	4,315	228,732	116,256
345,275	4,321	228,650	116,208
346,289	4,770	228,319	116,368
347,304	4,370	228,336	116,065
348,319	4,340	228,188	115,957
349,333	4,251	228,063	115,815
350,348	4,112	227,803	115,569
351,362	4,248	227,583	115,549
352,377	3,866	227,394	115,157
353,392	3,828	227,344	115,093
354,406	3,898	227,223	115,074
355,421	194,301	1322,199	1394,825
356,435	155,732	1455,598	1394,821
