DTS Sentinel unit serial number:	SN410029Multiplexer serial number:	ORYXHardware model number:	OX2-SRSoftware version number:	ORYX F/W v4,00 Oryx Data Collector v3.7.2.0data status	okinstallation	B5 Nyhavnadifferential loss correction	single-endedforward channel	channel 2reverse channel	N/Adate	2023/12/11time	20:52:13forward acquisition time	300,00reverse acquisition time	0,00gamma	499,1914k internal	0,3157k external	0,3157temperature offset calibration	1,0000default loss term (dB/km)	0,3820temperature slope calibration	1,0000multiplexer offset coefficient	1,0000multiplexer slope coefficient	1,0000fibre end	0,00T internal ref (°C)	16,10T ext. ref 1 (°C)	0,17T ext. ref 2 (°C)	-0,05length (m)	temperature (°C)	Stokes	anti-Stokes-744,400	65,621	0,110	0,082
-743,385	-102,598	-0,345	0,060
-742,371	-44,940	0,137	-0,050
-741,356	-131,156	-0,279	0,027
-740,342	67,991	0,104	0,078
-739,327	-57,800	-0,340	-0,109
-738,312	76,996	0,092	0,072
-737,298	-103,201	-0,223	-0,038
-736,283	342,176	0,050	-0,072
-735,269	-85,453	-0,190	-0,043
-734,254	-200,000	-0,011	0,119
-733,239	-131,310	-0,443	-0,043
-732,225	394,034	0,080	0,124
-731,210	-36,769	0,138	0,054
-730,196	-103,031	0,177	0,031
-729,181	-200,000	0,017	0,066
-728,167	-57,421	0,055	0,018
-727,152	-99,549	-0,036	-0,007
-726,137	-71,319	-0,048	-0,013
-725,123	202,024	-0,102	-0,116
-724,108	377,930	0,025	-0,037
-723,094	-19,206	-0,091	0,042
-722,079	320,593	-0,057	-0,080
-721,064	56,209	-0,053	-0,038
-720,050	-94,141	-0,051	0,010
-719,035	291,085	0,034	-0,046
-718,021	-200,000	0,002	-0,012
-717,006	-151,555	-0,086	0,005
-715,991	-183,982	-0,171	0,002
-714,977	311,625	-0,073	-0,101
-713,962	7,982	-0,169	-0,093
-712,948	-200,000	-0,007	-0,066
-711,933	478,296	-0,030	-0,051
-710,918	800,000	-0,048	-0,102
-709,904	-200,000	-0,031	-0,116
-708,889	-200,000	-0,025	-0,097
-707,875	299,957	-0,081	-0,111
-706,860	-160,946	0,139	0,005
-705,845	-200,000	0,010	-0,123
-704,831	133,364	-0,038	0,036
-703,816	162,374	-0,052	-0,054
-702,802	-31,558	-0,034	0,014
-701,787	79,211	-0,114	-0,090
-700,772	51,194	0,057	0,040
-699,758	-141,042	0,143	0,011
-698,743	-200,000	0,012	-0,194
-697,729	50,761	0,131	-0,091
-696,714	-200,000	0,041	0,164
-695,699	-200,000	-0,012	-0,105
-694,685	-89,727	0,060	-0,013
-693,670	-80,327	-0,162	0,040
-692,656	-58,470	-0,115	-0,036
-691,641	355,208	-0,046	0,067
-690,627	-200,000	-0,008	-0,067
-689,612	412,084	0,049	0,076
-688,597	23,093	-0,135	-0,081
-687,583	254,804	-0,105	-0,133
-686,568	408,777	-0,125	-0,195
-685,554	177,047	0,096	-0,103
-684,539	-76,813	0,111	-0,028
-683,524	160,831	-0,061	0,063
-682,510	800,000	0,061	0,128
-681,495	-123,760	-0,064	0,007
-680,481	77,395	0,112	-0,088
-679,466	-6,700	-0,086	0,043
-678,451	85,619	-0,095	0,077
-677,437	-200,000	0,015	-0,064
-676,422	-200,000	0,028	0,169
-675,408	-118,009	0,071	0,009
-674,393	-53,788	-0,093	0,031
-673,378	47,698	-0,180	0,123
-672,364	-200,000	0,007	-0,116
-671,349	-84,873	0,035	-0,008
-670,335	-184,717	-0,040	-0,000
-669,320	52,032	-0,063	0,044
-668,305	800,000	0,054	0,128
-667,291	-76,725	0,134	-0,034
-666,276	-200,000	0,036	0,156
-665,262	-145,365	-0,060	0,004
-664,247	225,995	-0,030	-0,036
-663,232	800,000	0,061	0,166
-662,218	-109,092	0,118	0,018
-661,203	26,350	-0,079	0,048
-660,189	-200,000	-0,024	-0,153
-659,174	-15,196	0,096	-0,045
-658,159	62,465	0,120	0,088
-657,145	41,542	-0,045	-0,030
-656,130	800,000	-0,009	-0,023
-655,116	109,590	0,054	0,048
-654,101	-200,000	-0,043	0,140
-653,086	800,000	0,052	-0,109
-652,072	-53,938	0,031	-0,010
-651,057	-90,885	-0,122	-0,026
-650,043	136,978	-0,026	-0,025
-649,028	359,214	-0,134	-0,197
-648,014	-48,236	-0,110	0,039
-646,999	-200,000	-0,006	0,046
-645,984	176,290	-0,083	-0,089
-644,970	774,040	-0,047	-0,095
-643,955	226,353	-0,067	-0,080
-642,941	-181,263	0,023	0,000
-641,926	104,981	0,052	-0,045
-640,911	84,389	-0,049	0,039
-639,897	778,765	0,068	-0,136
-638,882	-200,000	0,000	-0,089
-637,868	-137,301	-0,077	0,006
-636,853	800,000	-0,050	-0,112
-635,838	-200,000	0,022	-0,131
-634,824	409,868	-0,020	-0,032
-633,809	800,000	-0,036	0,096
-632,795	460,390	0,051	0,083
-631,780	-89,683	-0,065	-0,014
-630,765	-153,151	0,098	0,005
-629,751	-200,000	-0,013	-0,050
-628,736	63,812	-0,051	-0,038
-627,722	-200,000	0,017	0,123
-626,707	-200,000	0,003	0,073
-625,692	-5,692	-0,121	0,061
-624,678	734,141	0,058	0,114
-623,663	22,461	0,013	0,008
-622,649	346,310	-0,073	-0,106
-621,634	500,971	-0,066	-0,113
-620,619	-97,647	-0,072	-0,013
-619,605	800,000	0,026	0,061
-618,590	183,751	0,074	-0,080
-617,576	-200,000	0,001	0,110
-616,561	-57,253	0,075	-0,024
-615,546	-200,000	-0,059	-0,236
-614,532	-200,000	0,022	-0,097
-613,517	-200,000	-0,013	-0,220
-612,503	200,262	0,077	-0,087
-611,488	-200,000	-0,009	-0,107
-610,474	174,326	-0,021	-0,022
-609,459	-200,000	-0,003	-0,017
-608,444	154,823	-0,036	-0,036
-607,430	-200,000	-0,009	-0,032
-606,415	167,800	-0,106	-0,110
-605,401	-27,249	0,195	0,083
-604,386	179,737	0,009	-0,009
-603,371	-200,000	0,010	-0,038
-602,357	-200,000	0,018	0,067
-601,342	235,445	0,060	-0,073
-600,328	745,413	-0,039	-0,078
-599,313	-119,956	-0,047	-0,006
-598,298	-169,399	0,106	-0,003
-597,284	213,547	-0,095	0,110
-596,269	800,000	0,013	-0,042
-595,255	314,194	0,090	0,124
-594,240	0,367	-0,099	0,052
-593,225	195,786	-0,102	-0,114
-592,211	2,536	-0,079	-0,042
-591,196	490,548	-0,027	0,045
-590,182	-2,186	0,030	0,015
-589,167	195,056	-0,113	0,126
-588,152	-91,272	0,092	-0,019
-587,138	241,298	0,057	0,069
-586,123	-200,000	-0,019	-0,067
-585,109	320,429	-0,137	-0,191
-584,094	-78,644	-0,106	0,026
-583,079	800,000	0,037	-0,095
-582,065	-200,000	0,009	0,104
-581,050	323,398	-0,094	0,132
-580,036	-92,055	-0,011	-0,002
-579,021	-110,574	0,071	-0,011
-578,006	-131,995	-0,062	-0,006
-576,992	-60,878	-0,093	0,029
-575,977	-200,000	0,021	0,112
-574,963	-79,935	0,080	-0,020
-573,948	248,909	-0,086	-0,107
-572,934	280,146	-0,077	0,101
-571,919	570,917	0,047	-0,084
-570,904	-106,334	0,084	-0,014
-569,890	562,535	-0,047	-0,083
-568,875	543,930	0,028	-0,050
-567,861	800,000	0,019	-0,050
-566,846	-200,000	-0,005	0,039
-565,831	-200,000	-0,008	-0,039
-564,817	95,846	-0,163	-0,137
-563,802	-200,000	-0,024	0,103
-562,788	-200,000	-0,028	-0,100
-561,773	800,000	0,015	-0,040
-560,758	639,352	0,077	-0,144
-559,744	514,590	0,009	-0,016
-558,729	749,506	0,015	-0,029
-557,715	98,365	-0,095	0,080
-556,700	-200,000	-0,001	-0,037
-555,685	-200,000	-0,005	-0,142
-554,671	463,452	-0,055	-0,090
-553,656	202,697	-0,056	-0,063
-552,642	343,134	0,034	-0,049
-551,627	-135,385	-0,106	0,009
-550,612	800,000	0,005	0,010
-549,598	-200,000	-0,000	-0,141
-548,583	-1,281	0,155	0,080
-547,569	800,000	-0,051	0,119
-546,554	327,654	0,014	-0,019
-545,539	-106,516	0,081	-0,013
-544,525	-200,000	0,008	-0,089
-543,510	112,287	-0,157	0,139
-542,496	-34,933	-0,046	0,018
-541,481	401,466	-0,037	-0,056
-540,466	224,082	-0,043	0,051
-539,452	-129,961	0,022	-0,002
-538,437	-200,000	-0,050	-0,175
-537,423	-93,048	0,164	0,033
-536,408	183,751	-0,068	0,073
-535,393	-200,000	0,021	-0,086
-534,379	74,619	-0,071	-0,054
-533,364	-75,125	-0,071	0,018
-532,350	-54,608	0,133	-0,044
-531,335	10,408	0,068	-0,038
-530,321	119,093	0,020	0,018
-529,306	-25,435	0,056	0,024
-528,291	-2,473	0,104	0,053
-527,277	-9,209	-0,112	0,055
-526,262	-67,647	-0,047	-0,013
-525,248	224,320	0,028	-0,033
-524,233	800,000	-0,006	0,015
-523,218	-200,000	0,001	0,106
-522,204	-200,000	0,005	0,044
-521,189	-200,000	-0,006	-0,062
-520,175	329,019	0,069	-0,098
-519,160	-200,000	-0,029	-0,116
-518,145	105,441	-0,067	0,058
-517,131	39,823	0,069	0,045
-516,116	557,183	0,031	-0,055
-515,102	-131,696	-0,056	0,005
-514,087	800,000	-0,056	0,131
-513,072	-70,609	-0,117	-0,032
-512,058	78,329	0,037	-0,029
-511,043	-74,257	0,151	0,040
-510,029	-200,000	-0,002	-0,052
-509,014	600,013	0,055	0,100
-507,999	-131,847	-0,151	-0,014
-506,985	-75,942	0,130	-0,033
-505,970	-47,264	-0,037	-0,013
-504,956	80,606	-0,045	0,035
-503,941	800,000	0,069	-0,145
-502,926	-200,000	-0,052	0,197
-501,912	-163,781	-0,086	0,003
-500,897	-200,000	0,004	0,046
-499,883	462,948	-0,085	-0,140
-498,868	-200,000	0,007	-0,052
-497,853	415,207	-0,025	0,039
-496,839	-200,000	0,004	-0,137
-495,824	-71,599	0,133	-0,036
-494,810	-22,173	0,128	-0,056
-493,795	800,000	0,012	0,037
-492,781	-74,562	0,067	0,017
-491,766	-111,222	0,079	0,012
-490,751	-121,534	0,103	0,012
-489,737	-200,000	-0,023	-0,101
-488,722	800,000	0,020	-0,050
-487,708	121,709	-0,028	-0,026
-486,693	510,888	0,038	-0,064
-485,678	133,426	0,124	-0,117
-484,664	1,364	-0,075	-0,039
-483,649	283,059	0,049	-0,065
-482,635	-200,000	0,011	-0,047
-481,620	-58,918	-0,047	-0,015
-480,605	-149,748	-0,193	-0,011
-479,591	260,601	0,013	-0,016
-478,576	96,193	0,103	0,086
-477,562	127,709	-0,105	-0,097
-476,547	306,201	-0,046	-0,063
-475,532	156,879	0,054	0,055
-474,518	-102,102	0,091	0,016
-473,503	800,000	0,073	0,155
-472,489	-26,852	0,054	0,023
-471,474	-200,000	-0,012	0,060
-470,459	800,000	0,027	0,066
-469,445	800,000	-0,042	-0,134
-468,430	45,561	0,037	-0,025
-467,416	266,435	0,089	-0,114
-466,401	800,000	0,008	0,018
-465,386	-140,736	0,007	0,001
-464,372	-23,840	-0,060	0,026
-463,357	219,541	0,084	0,098
-462,343	-107,563	-0,164	-0,026
-461,328	156,031	0,053	-0,053
-460,313	171,250	-0,053	-0,055
-459,299	-10,171	-0,068	0,033
-458,284	114,846	0,114	-0,101
-457,270	-200,000	0,015	0,099
-456,255	10,898	0,058	0,032
-455,241	800,000	-0,029	-0,092
-454,226	220,752	-0,055	0,064
-453,211	800,000	-0,046	-0,143
-452,197	-111,040	0,083	-0,012
-451,182	800,000	-0,019	0,044
-450,168	-21,479	-0,116	0,051
-449,153	-200,000	0,009	-0,061
-448,138	178,181	-0,077	-0,082
-447,124	-200,000	-0,007	-0,026
-446,109	-200,000	-0,002	-0,067
-445,095	594,420	-0,045	0,082
-444,080	405,038	0,096	0,148
-443,065	-88,400	0,064	-0,014
-442,051	-200,000	-0,018	0,067
-441,036	169,501	0,073	-0,076
-440,022	409,776	0,037	-0,057
-439,007	-160,770	-0,182	0,007
-437,992	55,021	-0,098	0,069
-436,978	-184,609	0,115	-0,001
-435,963	-27,282	0,044	-0,019
-434,949	65,395	0,048	0,035
-433,934	-129,655	-0,186	0,018
-432,919	180,978	-0,094	-0,101
-431,905	800,000	-0,076	-0,190
-430,890	79,613	0,101	0,079
-429,876	396,079	-0,021	0,032
-428,861	800,000	0,056	0,113
-427,846	7,320	-0,050	-0,027
-426,832	-114,182	0,136	0,019
-425,817	-200,000	0,014	-0,176
-424,803	-136,763	0,074	0,006
-423,788	-65,478	-0,064	0,019
-422,773	-200,000	0,006	0,072
-421,759	452,632	-0,085	0,137
-420,744	524,785	-0,040	0,069
-419,730	-200,000	0,006	-0,098
-418,715	-121,172	-0,075	0,009
-417,701	18,786	0,033	0,019
-416,686	-200,000	-0,028	0,100
-415,671	-200,000	0,031	0,134
-414,657	-80,877	0,055	0,013
-413,642	558,196	0,035	0,061
-412,628	208,739	-0,118	0,135
-411,613	41,874	-0,153	-0,101
-410,598	-82,559	-0,034	-0,008
-409,584	800,000	0,053	-0,137
-408,569	37,745	0,112	0,072
-407,555	800,000	0,061	0,174
-406,540	128,524	-0,068	0,063
-405,525	187,019	-0,112	0,122
-404,511	-200,000	0,002	-0,056
-403,496	-89,166	-0,110	-0,024
-402,482	29,928	-0,034	0,021
-401,467	61,789	0,068	0,049
-400,452	407,658	0,051	0,079
-399,438	-200,000	0,005	0,106
-398,423	133,874	0,057	0,054
-397,409	-84,628	0,045	0,010
-396,394	800,000	0,035	-0,079
-395,379	-21,539	-0,132	0,058
-394,365	73,717	-0,081	0,062
-393,350	800,000	0,036	0,097
-392,336	163,338	-0,025	-0,026
-391,321	204,321	0,074	-0,083
-390,306	22,972	-0,065	-0,039
-389,292	800,000	-0,022	0,045
-388,277	36,918	-0,067	0,043
-387,263	-137,597	0,019	-0,002
-386,248	-115,648	0,023	0,003
-385,233	-200,000	0,005	0,047
-384,219	128,229	0,035	0,033
-383,204	36,337	-0,088	-0,057
-382,190	296,698	-0,077	0,103
-381,175	-200,000	-0,021	0,136
-380,160	-200,000	-0,022	-0,075
-379,146	-69,979	0,152	0,042
-378,131	143,463	0,042	0,041
-377,117	800,000	-0,015	-0,042
-376,102	-165,343	-0,142	-0,004
-375,088	214,307	0,016	0,018
-374,073	56,834	-0,074	0,052
-373,058	324,665	0,065	-0,090
-372,044	-49,412	-0,070	-0,024
-371,029	161,699	-0,017	-0,018
-370,015	659,467	0,029	-0,055
-369,000	128,016	-0,130	-0,120
-367,985	-132,070	-0,096	-0,009
-366,971	321,305	0,077	-0,107
-365,956	-200,000	-0,001	0,056
-364,942	-84,572	0,067	0,015
-363,927	-47,590	-0,058	-0,020
-362,912	751,711	0,099	0,195
-361,898	-106,767	0,192	-0,031
-360,883	-47,035	-0,143	-0,051
-359,869	2,174	0,045	0,024
-358,854	-74,908	-0,120	-0,031
-357,839	-94,298	0,107	-0,021
-356,825	-200,000	0,007	-0,042
-355,810	174,233	0,016	0,017
-354,796	-200,000	0,021	-0,071
-353,781	342,879	-0,098	0,140
-352,766	-106,643	-0,096	0,015
-351,752	-24,165	-0,005	0,002
-350,737	-166,614	0,117	0,003
-349,723	587,142	0,042	-0,075
-348,708	-154,034	0,140	-0,007
-347,693	-4,381	-0,110	-0,055
-346,679	-200,000	0,022	-0,090
-345,664	-24,868	-0,055	-0,024
-344,650	-200,000	0,013	-0,045
-343,635	-200,000	0,010	-0,084
-342,620	410,711	-0,003	-0,005
-341,606	351,119	-0,070	-0,100
-340,591	46,075	0,148	0,099
-339,577	45,440	-0,047	0,032
-338,562	79,812	0,123	-0,096
-337,548	93,440	0,055	-0,045
-336,533	-200,000	0,004	-0,079
-335,518	800,000	0,024	0,055
-334,504	-200,000	0,013	0,173
-333,489	322,022	-0,126	0,174
-332,475	-53,720	-0,037	-0,012
-331,460	11,208	0,106	0,059
-330,445	800,000	-0,047	0,102
-329,431	800,000	0,019	-0,039
-328,416	207,539	0,021	0,024
-327,402	-200,000	-0,020	0,183
-326,387	800,000	-0,015	0,047
-325,372	-200,000	0,010	0,074
-324,358	220,899	-0,129	0,150
-323,343	108,892	0,109	-0,094
-322,329	252,586	0,098	0,121
-321,314	-21,457	0,072	0,032
-320,299	-200,000	0,023	-0,083
-319,285	-29,825	0,075	0,031
-318,270	-89,390	-0,128	-0,027
-317,256	-200,000	0,024	0,080
-316,241	120,055	0,025	0,022
-315,226	-138,883	-0,164	0,013
-314,212	-103,065	0,078	-0,013
-313,197	126,892	0,064	-0,059
-312,183	-200,000	-0,022	-0,088
-311,168	121,503	0,058	0,052
-310,153	190,558	-0,062	-0,067
-309,139	3,500	0,047	0,025
-308,124	-179,000	-0,075	0,001
-307,110	84,679	0,169	0,134
-306,095	35,905	-0,058	0,037
-305,080	-26,360	0,071	-0,030
-304,066	-43,279	0,083	0,030
-303,051	-18,006	-0,085	0,039
-302,037	-200,000	-0,002	0,113
-301,022	-80,313	-0,014	-0,003
-300,008	278,957	0,063	-0,081
-298,993	-144,356	0,060	0,004
-297,978	303,206	-0,026	-0,034
-296,964	-55,621	-0,129	-0,041
-295,949	743,911	-0,039	-0,077
-294,935	-172,436	0,102	-0,002
-293,920	-123,340	0,047	0,005
-292,905	-106,720	0,090	0,014
-291,891	-69,310	0,029	0,008
-290,876	-200,000	0,045	0,198
-289,862	-200,000	0,037	-0,133
-288,847	-63,610	-0,146	0,043
-287,832	-119,334	0,133	-0,017
-286,818	32,374	0,045	0,028
-285,803	31,969	0,024	-0,015
-284,789	-55,829	0,195	0,063
-283,774	-200,000	0,010	0,034
-282,759	-33,058	0,057	0,023
-281,745	727,854	-0,041	-0,080
-280,730	-200,000	0,000	-0,035
-279,716	25,396	0,077	-0,046
-278,701	146,324	0,045	0,044
-277,686	800,000	-0,018	0,044
-276,672	430,614	0,076	0,120
-275,657	100,170	-0,075	0,063
-274,643	800,000	-0,028	-0,063
-273,628	-33,130	0,025	0,010
-272,613	599,135	-0,040	-0,072
-271,599	-20,111	-0,084	0,037
-270,584	44,335	0,023	0,015
-269,570	-200,000	-0,028	0,111
-268,555	215,510	0,018	-0,021
-267,540	360,019	0,048	0,069
-266,526	43,920	-0,129	0,085
-265,511	-200,000	-0,013	0,063
-264,497	-104,470	-0,097	-0,016
-263,482	99,091	0,034	0,029
-262,467	800,000	-0,033	0,083
-261,453	-200,000	-0,000	0,059
-260,438	800,000	0,042	-0,120
-259,424	-105,595	0,030	-0,005
-258,409	153,888	0,021	0,020
-257,395	-121,504	-0,120	-0,014
-256,380	-33,414	-0,089	0,035
-255,365	-200,000	0,018	-0,125
-254,351	-43,387	0,118	-0,043
-253,336	89,153	-0,070	0,057
-252,322	13,255	0,068	0,038
-251,307	6,766	-0,028	-0,015
-250,292	63,490	0,085	0,062
-249,278	-200,000	0,001	0,064
-248,263	-200,000	0,005	0,112
-247,249	-66,468	0,090	0,026
-246,234	68,867	-0,127	-0,094
-245,219	68,462	0,047	0,035
-244,205	68,683	-0,130	-0,096
-243,190	216,604	0,070	-0,080
-242,176	-200,000	0,004	0,045
-241,161	-25,986	-0,069	-0,029
-240,146	800,000	-0,038	-0,104
-239,132	0,029	-0,137	-0,070
-238,117	-76,865	0,055	0,014
-237,103	495,802	-0,026	-0,043
-236,088	-108,192	-0,012	0,002
-235,073	800,000	0,049	0,110
-234,059	-200,000	-0,008	0,146
-233,044	-200,000	-0,012	0,141
-232,030	-200,000	-0,001	0,031
-231,015	800,000	-0,035	0,084
-230,000	404,549	0,076	-0,116
-228,986	-111,265	0,089	-0,013
-227,971	-34,365	0,020	-0,008
-226,957	72,201	0,158	0,119
-225,942	261,895	-0,033	-0,041
-224,927	276,100	-0,026	0,034
-223,913	90,560	-0,012	0,010
-222,898	18,119	0,122	-0,070
-221,884	800,000	-0,058	-0,138
-220,869	-119,913	0,093	0,011
-219,855	-81,649	0,123	0,029
-218,840	-109,689	0,045	0,007
-217,825	-200,000	0,025	-0,095
-216,811	-20,948	0,273	0,121
-215,796	579,411	0,025	-0,044
-214,782	-200,000	-0,019	0,098
-213,767	91,616	0,049	0,040
-212,752	105,213	-0,071	0,060
-211,738	-200,000	-0,004	0,186
-210,723	-200,000	0,009	0,034
-209,709	800,000	0,060	-0,144
-208,694	188,588	0,041	-0,044
-207,679	406,771	0,047	-0,071
-206,665	800,000	0,018	-0,049
-205,650	-142,244	-0,062	-0,004
-204,636	-67,567	0,100	0,028
-203,621	99,327	-0,059	0,050
-202,606	-83,715	0,061	0,014
-201,592	495,726	0,064	0,106
-200,577	-200,000	-0,046	-0,181
-199,563	399,367	-0,079	-0,121
-198,548	-144,214	0,177	0,012
-197,533	176,436	0,040	0,042
-196,519	297,504	-0,101	0,134
-195,504	-200,000	-0,005	-0,055
-194,490	48,738	-0,048	0,032
-193,475	36,346	0,072	-0,046
-192,460	-72,827	0,008	-0,002
-191,446	146,945	-0,065	-0,063
-190,431	290,252	-0,073	0,095
-189,417	-114,071	0,039	0,005
-188,402	304,405	-0,104	-0,140
-187,387	-78,618	-0,055	0,013
-186,373	-102,356	-0,117	0,020
-185,358	800,000	-0,020	0,059
-184,344	500,046	-0,041	0,068
-183,329	-200,000	-0,004	0,094
-182,315	-45,689	0,086	0,030
-181,300	-38,605	-0,022	0,009
-180,285	47,521	0,092	-0,062
-179,271	800,000	-0,068	-0,138
-178,256	75,313	-0,040	0,030
-177,242	-1,918	0,043	0,022
-176,227	800,000	0,006	0,017
-175,212	-145,427	-0,079	0,005
-174,198	800,000	-0,016	-0,045
-173,183	-200,000	0,035	0,154
-172,169	800,000	0,038	-0,082
-171,154	-200,000	-0,004	0,045
-170,139	800,000	0,038	0,096
-169,125	18,264	0,183	0,105
-168,110	-200,000	0,003	-0,064
-167,096	-200,000	-0,004	-0,015
-166,081	603,119	-0,028	0,051
-165,066	4,395	-0,020	0,010
-164,052	-200,000	-0,002	-0,036
-163,037	-184,919	0,080	-0,001
-162,023	-129,648	-0,087	0,009
-161,008	178,599	-0,004	0,004
-159,993	-15,200	0,096	-0,044
-158,979	-200,000	-0,008	-0,053
-157,964	800,000	0,028	-0,071
-156,950	-1,420	-0,110	0,056
-155,935	503,678	-0,059	0,100
-154,920	-200,000	0,010	0,062
-153,906	800,000	-0,044	0,124
-152,891	800,000	0,052	0,142
-151,877	-113,603	-0,008	0,001
-150,862	532,949	-0,038	-0,066
-149,847	-84,055	-0,109	-0,025
-148,833	800,000	0,032	-0,099
-147,818	86,288	0,113	-0,089
-146,804	800,000	0,033	0,087
-145,789	783,026	-0,019	0,037
-144,775	281,621	-0,022	-0,028
-143,760	321,818	0,018	0,025
-142,745	186,939	-0,133	-0,142
-141,731	-55,181	-0,095	0,030
-140,716	-200,000	0,038	0,147
-139,702	-200,000	-0,008	0,112
-138,687	-87,200	0,100	0,022
-137,672	-200,000	0,008	-0,113
-136,658	-99,144	-0,138	-0,025
-135,643	119,378	-0,087	0,078
-134,629	-200,000	0,029	-0,128
-133,614	-154,294	-0,066	0,003
-132,599	-200,000	-0,022	0,118
-131,585	371,168	0,023	0,033
-130,570	-200,000	-0,002	0,059
-129,556	-200,000	0,006	-0,045
-128,541	-200,000	-0,000	0,054
-127,526	-6,130	0,130	-0,064
-126,512	-200,000	0,019	-0,170
-125,497	800,000	-0,063	0,138
-124,483	-15,410	-0,096	0,044
-123,468	-129,995	0,083	0,008
-122,453	-50,890	-0,173	-0,058
-121,439	-88,650	0,056	0,012
-120,424	-84,885	-0,065	0,015
-119,410	-12,790	0,101	0,047
-118,395	-200,000	-0,002	0,127
-117,380	800,000	-0,032	-0,080
-116,366	-24,387	-0,010	0,004
-115,351	449,877	0,040	-0,063
-114,337	-6,420	0,032	0,016
-113,322	800,000	0,058	-0,122
-112,307	-200,000	-0,027	-0,121
-111,293	21,542	0,090	0,052
-110,278	197,555	0,038	-0,042
-109,264	800,000	-0,038	-0,106
-108,249	-110,389	-0,092	-0,014
-107,234	663,125	-0,051	-0,096
-106,220	-200,000	-0,026	-0,104
-105,205	172,635	-0,036	-0,037
-104,191	-89,470	0,122	0,026
-103,176	800,000	0,013	-0,036
-102,162	-172,362	-0,199	-0,004
-101,147	-200,000	-0,010	0,052
-100,132	-5,011	-0,043	0,021
-99,118	-200,000	-0,009	-0,147
-98,103	-117,118	0,149	-0,019
-97,089	7,460	0,140	0,075
-96,074	83,063	0,055	-0,043
-95,059	115,941	-0,097	0,085
-94,045	-200,000	-0,004	-0,088
-93,030	3,782	-0,095	-0,050
-92,016	392,226	-0,076	0,114
-91,001	586,032	0,062	-0,110
-89,986	-75,258	0,080	0,020
-88,972	-58,031	0,083	0,026
-87,957	-59,324	-0,112	-0,034
-86,943	-186,799	0,022	-0,000
-85,928	-68,802	-0,053	-0,014
-84,913	-200,000	-0,013	-0,043
-83,899	282,191	0,013	-0,017
-82,884	579,891	-0,071	0,125
-81,870	124,883	-0,063	0,057
-80,855	-200,000	0,004	-0,094
-79,840	800,000	-0,078	-0,225
-78,826	-132,783	0,094	0,009
-77,811	-200,000	0,019	-0,137
-76,797	-200,000	0,011	-0,157
-75,782	-75,239	-0,055	0,014
-74,767	-82,098	0,125	-0,029
-73,753	-200,000	-0,025	0,091
-72,738	553,892	0,064	0,110
-71,724	-200,000	-0,008	-0,030
-70,709	285,157	-0,072	0,093
-69,694	-158,605	0,041	-0,002
-68,680	-200,000	0,027	0,150
-67,665	-51,772	0,068	-0,022
-66,651	-200,000	0,035	0,190
-65,636	315,501	-0,104	-0,142
-64,622	51,823	0,067	-0,046
-63,607	233,954	-0,074	0,087
-62,592	70,656	0,027	-0,020
-61,578	281,015	0,050	0,065
-60,563	800,000	0,013	0,034
-59,549	703,232	0,032	0,061
-58,534	-29,531	-1,906	-0,779
-57,519	-200,000	-0,258	-0,983
-56,505	-200,000	-1,300	-4,774
-55,490	-37,776	0,815	0,310
-54,476	800,000	5,356	12,213
-53,461	-200,000	17,166	281,466
-52,446	800,000	720,989	2224,698
-51,432	545,025	1636,692	2817,366
-50,417	112,699	1630,928	1417,102
-49,403	76,390	1287,103	977,682
-48,388	33,192	1029,766	639,506
-47,373	20,353	991,486	573,347
-46,359	18,839	979,767	561,575
-45,344	16,418	975,724	551,300
-44,330	16,595	974,277	551,039
-43,315	16,195	972,480	548,692
-42,300	16,101	971,439	547,775
-41,286	16,151	970,293	547,271
-40,271	16,160	969,334	546,739
-39,257	16,171	968,337	546,189
-38,242	16,229	967,514	545,892
-37,227	16,142	966,859	545,220
-36,213	16,150	966,023	544,752
-35,198	16,069	965,059	543,925
-34,184	16,157	964,309	543,763
-33,169	16,086	963,337	542,966
-32,154	16,145	962,487	542,657
-31,140	16,140	961,502	542,062
-30,125	16,167	960,752	541,707
-29,111	16,148	959,870	541,126
-28,096	16,150	959,399	540,846
-27,082	16,151	958,666	540,412
-26,067	16,197	957,660	539,971
-25,052	16,167	957,177	539,584
-24,038	16,111	956,433	538,962
-23,023	16,045	955,968	538,467
-22,009	16,111	955,128	538,183
-20,994	16,186	954,562	538,083
-19,979	16,169	953,796	537,577
-18,965	16,095	953,341	537,061
-17,950	16,166	952,812	536,969
-16,936	16,080	952,104	536,273
-15,921	16,024	951,486	535,725
-14,906	16,068	950,520	535,299
-13,892	15,971	950,101	534,734
-12,877	16,019	949,490	534,521
-11,863	15,920	948,763	533,776
-10,848	16,040	948,155	533,795
-9,833	16,115	947,607	533,704
-8,819	16,082	947,037	533,256
-7,804	16,040	946,280	532,676
-6,790	15,979	945,746	532,161
-5,775	16,062	945,298	532,151
-4,760	16,062	944,694	531,790
-3,746	16,016	944,140	531,309
-2,731	15,857	943,336	530,332
-1,717	15,833	942,705	529,881
-0,702	15,884	941,974	529,613
0,313	15,730	941,390	529,596
1,327	18,835	939,285	538,164
2,342	27,775	797,104	480,452
3,356	24,562	461,119	272,983
4,371	-2,346	315,319	158,007
5,386	-6,463	297,002	144,640
6,400	-8,536	291,105	139,691
7,415	-8,771	288,622	138,256
8,429	-9,014	286,996	137,226
9,444	-9,060	286,015	136,699
10,459	-9,041	285,389	136,407
11,473	-9,014	284,875	136,176
12,488	-9,136	284,215	135,730
13,502	-9,218	283,765	135,423
14,517	-9,039	283,444	135,431
15,531	-9,184	282,809	134,975
16,546	-9,169	282,484	134,823
17,561	-9,316	282,072	134,472
18,575	-9,129	281,709	134,468
19,590	-9,247	281,303	134,147
20,604	-9,173	281,106	134,113
21,619	-9,137	280,743	133,962
22,634	-9,203	280,435	133,741
23,648	-9,296	280,119	133,489
24,663	-9,179	279,825	133,449
25,677	-9,358	279,657	133,186
26,692	-9,233	279,294	133,120
27,707	-9,200	278,899	132,952
28,721	-9,203	278,743	132,862
29,736	-9,212	278,367	132,662
30,750	-9,413	278,291	132,424
31,765	-9,233	278,164	132,523
32,780	-9,335	277,749	132,216
33,794	-9,326	277,478	132,084
34,809	-9,351	277,230	131,930
35,823	-9,275	276,962	131,863
36,838	-9,273	276,552	131,658
37,853	-9,278	276,348	131,544
38,867	-9,432	276,291	131,360
39,882	-9,251	276,032	131,396
40,896	-9,179	275,657	131,274
41,911	-9,319	275,452	131,032
42,926	-9,301	275,172	130,904
43,940	-9,247	274,992	130,858
44,955	-9,423	274,787	130,584
45,969	-9,485	274,541	130,397
46,984	-9,591	274,287	130,165
47,999	-9,967	274,061	129,695
49,013	-9,855	273,769	129,651
50,028	-10,154	273,576	129,268
51,042	-10,137	273,372	129,176
52,057	-10,211	272,997	128,918
53,071	-9,947	272,683	129,004
54,086	-9,900	272,468	128,935
55,101	-9,698	272,405	129,081
56,115	-9,627	272,308	129,090
57,130	-9,352	272,136	129,251
58,144	-9,201	272,064	129,345
59,159	-9,164	271,687	129,189
60,174	-9,030	271,481	129,204
61,188	-9,007	271,347	129,149
62,203	-9,078	270,953	128,885
63,217	-9,210	270,827	128,692
64,232	-9,304	270,623	128,497
65,247	-9,247	270,383	128,424
66,261	-9,119	270,187	128,437
67,276	-9,247	269,870	128,157
68,290	-9,468	269,692	127,858
69,305	-9,670	269,390	127,518
70,320	-9,433	269,299	127,681
71,334	-9,186	269,054	127,780
72,349	-9,096	268,745	127,704
73,363	-9,044	268,718	127,727
74,378	-9,131	268,319	127,447
75,393	-9,121	268,228	127,402
76,407	-9,358	268,091	127,109
77,422	-9,148	267,727	127,116
78,436	-9,084	267,502	127,057
79,451	-9,191	267,230	126,818
80,466	-9,226	266,898	126,618
81,480	-9,291	266,933	126,564
82,495	-9,377	266,653	126,342
83,509	-9,362	266,560	126,301
84,524	-9,324	266,286	126,194
85,539	-9,537	266,030	125,869
86,553	-9,498	265,729	125,750
87,568	-9,381	265,609	125,788
88,582	-9,292	265,444	125,778
89,597	-9,476	265,284	125,526
90,611	-9,148	265,117	125,732
91,626	-9,244	264,884	125,522
92,641	-9,181	264,719	125,490
93,655	-9,090	264,543	125,477
94,670	-9,181	264,304	125,271
95,684	-9,282	264,078	125,062
96,699	-9,344	263,859	124,892
97,714	-9,437	263,807	124,773
98,728	-9,454	263,444	124,575
99,743	-9,421	263,170	124,464
100,757	-9,438	263,050	124,380
101,772	-9,381	262,903	124,351
102,787	-9,195	262,491	124,311
103,801	-9,179	262,418	124,279
104,816	-9,207	262,307	124,190
105,830	-9,216	262,224	124,133
106,845	-8,951	261,788	124,150
107,860	-9,090	261,783	124,013
108,874	-9,086	261,523	123,882
109,889	-9,140	261,298	123,717
110,903	-9,213	260,988	123,495
111,918	-9,242	260,847	123,391
112,933	-9,180	260,663	123,348
113,947	-9,141	260,600	123,342
114,962	-9,088	260,333	123,251
115,976	-9,116	260,125	123,117
116,991	-9,328	259,898	122,812
118,006	-8,951	259,654	123,017
119,020	-9,077	259,609	122,874
120,035	-9,015	259,579	122,903
121,049	-9,151	259,398	122,687
122,064	-9,189	259,287	122,591
123,079	-9,164	258,757	122,351
124,093	-9,005	258,650	122,429
125,108	-9,311	258,389	122,026
126,122	-9,466	258,237	121,808
127,137	-9,601	258,017	121,575
128,151	-9,657	257,876	121,449
129,166	-9,288	257,656	121,657
130,181	-9,514	257,525	121,387
131,195	-9,489	257,348	121,315
132,210	-9,270	257,129	121,391
133,224	-9,209	256,964	121,355
134,239	-9,216	256,756	121,240
135,254	-9,137	256,743	121,292
136,268	-9,007	256,278	121,174
137,283	-9,494	256,031	120,625
138,297	-9,586	255,797	120,424
139,312	-9,668	255,760	120,325
140,327	-9,364	255,543	120,475
141,341	-8,944	255,430	120,774
142,356	-8,965	255,297	120,682
143,370	-9,008	255,112	120,546
144,385	-8,896	254,937	120,549
145,400	-9,026	254,789	120,357
146,414	-9,270	254,601	120,048
147,429	-8,984	254,475	120,224
148,443	-8,851	254,144	120,171
149,458	-8,890	254,039	120,077
150,473	-9,034	253,929	119,891
151,487	-9,017	253,600	119,739
152,502	-9,055	253,486	119,642
153,516	-9,196	253,348	119,446
154,531	-8,964	253,153	119,541
155,546	-8,972	253,027	119,464
156,560	-9,161	252,831	119,200
157,575	-9,144	252,592	119,091
158,589	-8,928	252,351	119,151
159,604	-8,913	252,286	119,122
160,619	-8,813	251,948	119,037
161,633	-8,956	252,045	118,951
162,648	-8,973	251,812	118,815
163,662	-8,868	251,484	118,740
164,677	-8,861	251,282	118,639
165,692	-8,941	251,254	118,548
166,706	-9,055	251,147	118,390
167,721	-8,870	250,798	118,371
168,735	-8,805	250,708	118,374
169,750	-8,897	250,716	118,289
170,764	-8,775	250,420	118,241
171,779	-8,722	250,380	118,257
172,794	-8,724	250,124	118,124
173,808	-9,138	249,963	117,688
174,823	-9,370	249,651	117,336
175,837	-9,504	249,284	117,040
176,852	-9,258	249,328	117,257
177,867	-8,849	249,135	117,499
178,881	-9,055	249,162	117,329
179,896	-9,004	248,854	117,216
180,910	-8,850	248,707	117,265
181,925	-8,886	248,571	117,160
182,940	-8,850	248,293	117,049
183,954	-8,912	248,254	116,969
184,969	-9,142	248,175	116,728
185,983	-8,750	247,809	116,873
186,998	-8,929	247,724	116,673
188,013	-8,636	247,468	116,786
189,027	-8,745	247,305	116,609
190,042	-8,785	247,179	116,505
191,056	-8,607	247,047	116,581
192,071	-8,660	246,873	116,444
193,086	-8,862	246,713	116,190
194,100	-8,786	246,538	116,161
195,115	-8,762	246,310	116,063
196,129	-8,752	246,048	115,938
197,144	-8,793	245,840	115,795
198,159	-8,767	245,715	115,747
199,173	-8,654	245,549	115,753
200,188	-8,885	245,322	115,445
201,202	-9,258	245,168	115,054
202,217	-9,362	244,893	114,829
203,232	-9,664	244,702	114,480
204,246	-9,040	244,723	114,994
205,261	-8,342	244,593	115,497
206,275	-9,179	244,327	114,673
207,290	-6,591	245,396	117,299
208,304	-1,024	246,969	122,650
209,319	1,263	247,578	124,835
210,334	1,839	247,616	125,320
211,348	2,201	247,539	125,569
212,363	2,327	247,609	125,698
213,377	2,680	247,550	125,948
214,392	2,716	247,334	125,856
215,407	2,650	247,001	125,621
216,421	2,495	246,987	125,475
217,436	2,827	246,731	125,608
218,450	2,851	246,595	125,547
219,465	2,653	246,353	125,250
220,480	2,394	246,277	124,987
221,494	2,591	246,237	125,118
222,509	2,755	245,974	125,107
223,523	2,578	245,868	124,897
224,538	2,038	245,522	124,268
225,553	2,134	245,209	124,177
226,567	2,365	245,187	124,343
227,582	2,422	245,214	124,393
228,596	2,564	244,917	124,348
229,611	2,171	244,780	123,946
230,626	1,988	244,631	123,710
231,640	2,304	244,474	123,877
232,655	2,363	244,207	123,778
233,669	2,506	244,241	123,901
234,684	2,373	243,825	123,571
235,699	2,747	243,733	123,818
236,713	2,681	243,740	123,756
237,728	2,324	243,615	123,392
238,742	2,398	243,199	123,230
239,757	2,273	243,061	123,048
240,772	2,346	243,044	123,087
241,786	2,532	242,847	123,128
242,801	2,169	242,741	122,769
243,815	2,210	242,332	122,585
244,830	2,300	242,290	122,625
245,844	2,639	242,189	122,836
246,859	2,362	241,983	122,498
247,874	2,248	242,038	122,422
248,888	2,521	241,705	122,463
249,903	2,640	241,595	122,492
250,917	2,715	241,488	122,487
251,932	2,878	241,390	122,558
252,947	2,858	241,029	122,347
253,961	2,288	240,978	121,853
254,976	2,440	240,868	121,908
255,990	2,667	240,677	121,983
257,005	2,405	240,382	121,613
258,020	2,179	240,226	121,343
259,034	2,134	240,296	121,331
260,049	2,550	240,111	121,559
261,063	2,238	239,796	121,140
262,078	2,287	239,611	121,075
263,093	2,533	239,561	121,235
264,107	2,650	239,472	121,272
265,122	2,085	239,425	120,787
266,136	2,373	239,139	120,862
267,151	2,806	238,890	121,069
268,166	2,291	238,864	120,635
269,180	2,194	238,652	120,441
270,195	2,886	238,710	121,009
271,209	2,940	238,365	120,866
272,224	2,169	238,182	120,152
273,239	2,067	237,996	119,967
274,253	2,311	237,754	120,027
275,268	2,534	237,730	120,180
276,282	2,503	237,637	120,098
277,297	2,206	237,410	119,739
278,312	2,218	237,255	119,659
279,326	2,323	237,269	119,738
280,341	2,518	237,047	119,769
281,355	2,498	236,743	119,589
282,370	2,682	236,686	119,694
283,384	2,576	236,471	119,492
284,399	2,293	236,219	119,132
285,414	2,093	236,234	118,971
286,428	2,244	236,090	119,007
287,443	2,428	235,917	119,053
288,457	2,603	235,815	119,127
289,472	2,562	235,767	119,061
290,487	2,612	235,428	118,918
291,501	2,071	235,181	118,361
292,516	1,921	234,954	118,119
293,530	1,920	234,932	118,097
294,545	2,435	234,804	118,423
295,560	2,308	234,749	118,286
296,574	2,092	234,536	118,000
297,589	2,227	234,381	118,016
298,603	2,551	234,339	118,236
299,618	2,764	234,134	118,287
300,633	2,676	233,963	118,123
301,647	2,660	233,967	118,101
302,662	3,028	233,765	118,274
303,676	2,875	233,685	118,104
304,691	2,766	233,544	117,938
305,706	3,007	233,262	117,971
306,720	2,787	233,118	117,718
307,735	2,415	233,073	117,398
308,749	2,592	232,883	117,428
309,764	2,300	232,565	117,033
310,779	2,196	232,488	116,904
311,793	2,088	232,140	116,635
312,808	2,194	232,104	116,688
313,822	2,293	231,933	116,667
314,837	2,009	231,865	116,405
315,852	2,126	231,707	116,405
316,866	2,406	231,619	116,565
317,881	2,714	231,616	116,789
318,895	2,890	231,384	116,796
319,910	2,988	231,323	116,830
320,925	2,744	230,958	116,449
321,939	2,539	230,755	116,180
322,954	2,518	230,928	116,241
323,968	2,490	230,486	115,987
324,983	2,386	230,432	115,870
325,997	2,627	230,491	116,073
327,012	2,640	230,160	115,906
328,027	2,149	229,929	115,405
329,041	2,583	229,788	115,654
330,056	3,075	229,966	116,107
331,070	3,299	229,837	116,202
332,085	2,855	229,549	115,709
333,100	2,819	229,269	115,531
334,114	2,694	229,055	115,318
335,129	2,655	228,892	115,196
336,143	3,023	228,798	115,417
337,158	2,949	228,751	115,327
338,173	2,808	228,595	115,131
339,187	2,773	228,415	115,004
340,202	2,670	228,406	114,911
341,216	2,889	228,168	114,947
342,231	2,686	227,949	114,673
343,246	2,709	227,844	114,627
344,260	2,820	227,773	114,665
345,275	3,111	227,711	114,842
346,289	3,214	227,521	114,814
347,304	3,036	227,369	114,593
348,319	2,941	227,222	114,437
349,333	2,819	227,011	114,229
350,348	2,646	226,728	113,947
351,362	2,860	226,552	114,008
352,377	2,766	226,542	113,923
353,392	2,650	226,435	113,773
354,406	2,762	226,314	113,785
355,421	196,875	1321,735	1402,751
356,435	157,870	1455,201	1402,753
