DTS Sentinel unit serial number:	SN410029Multiplexer serial number:	ORYXHardware model number:	OX2-SRSoftware version number:	ORYX F/W v4,00 Oryx Data Collector v3.7.2.0data status	okinstallation	B5 Nyhavnadifferential loss correction	single-endedforward channel	channel 2reverse channel	N/Adate	2023/12/11time	20:32:13forward acquisition time	300,00reverse acquisition time	0,00gamma	499,1914k internal	0,3157k external	0,3157temperature offset calibration	1,0000default loss term (dB/km)	0,3820temperature slope calibration	1,0000multiplexer offset coefficient	1,0000multiplexer slope coefficient	1,0000fibre end	0,00T internal ref (°C)	16,00T ext. ref 1 (°C)	0,17T ext. ref 2 (°C)	-0,08length (m)	temperature (°C)	Stokes	anti-Stokes-744,400	208,647	-0,032	-0,037
-743,385	-148,797	-0,218	-0,013
-742,371	-118,974	0,029	-0,004
-741,356	14,166	-0,292	0,167
-740,342	-88,411	0,111	0,024
-739,327	-119,593	-0,192	0,024
-738,312	-101,261	0,105	-0,019
-737,298	-85,125	-0,166	0,038
-736,283	-200,000	0,004	-0,066
-735,269	-11,845	-0,228	-0,110
-734,254	1,561	0,243	0,128
-733,239	-30,392	-0,479	-0,199
-732,225	-175,032	0,128	-0,003
-731,210	-109,607	0,065	-0,010
-730,196	61,108	-0,064	-0,046
-729,181	800,000	-0,008	-0,022
-728,167	-157,393	-0,080	0,003
-727,152	163,569	-0,102	-0,105
-726,137	-41,427	0,123	-0,047
-725,123	-156,495	-0,051	0,002
-724,108	-128,711	-0,161	-0,017
-723,094	-200,000	-0,013	-0,132
-722,079	-97,475	-0,133	-0,025
-721,064	413,385	-0,020	0,032
-720,050	800,000	-0,047	0,129
-719,035	426,180	0,029	-0,046
-718,021	370,314	-0,073	-0,110
-717,006	800,000	-0,037	-0,118
-715,991	800,000	-0,052	-0,141
-714,977	-64,143	0,046	-0,014
-713,962	800,000	-0,048	0,106
-712,948	-157,654	0,108	0,005
-711,933	-200,000	0,022	0,108
-710,918	464,362	-0,060	-0,099
-709,904	429,040	0,041	0,066
-708,889	-154,592	-0,065	-0,003
-707,875	341,562	-0,077	-0,111
-706,860	0,745	0,109	0,057
-705,845	-65,488	-0,116	0,034
-704,831	-200,000	0,016	0,057
-703,816	318,354	-0,030	-0,041
-702,802	120,617	-0,147	-0,134
-701,787	24,714	-0,052	-0,031
-700,772	240,890	-0,081	-0,100
-699,758	-79,690	0,059	-0,015
-698,743	-200,000	0,004	-0,059
-697,729	-200,000	0,026	0,171
-696,714	12,580	0,061	0,035
-695,699	-200,000	0,020	0,122
-694,685	-200,000	-0,136	0,000
-693,670	712,023	-0,016	0,031
-692,656	-60,074	0,073	-0,023
-691,641	-86,930	0,096	-0,021
-690,627	800,000	-0,008	-0,025
-689,612	106,586	0,030	0,026
-688,597	-167,927	-0,057	-0,002
-687,583	389,062	-0,057	-0,087
-686,568	-93,006	-0,034	0,007
-685,554	-200,000	-0,033	-0,152
-684,539	-200,000	0,017	0,147
-683,524	222,130	-0,076	0,090
-682,510	-200,000	-0,039	-0,132
-681,495	-200,000	0,012	0,094
-680,481	-200,000	-0,028	-0,104
-679,466	280,097	-0,108	0,143
-678,451	-56,469	-0,161	0,052
-677,437	-200,000	-0,015	-0,078
-676,422	-0,527	0,051	-0,027
-675,408	-168,567	0,024	0,001
-674,393	189,872	0,092	-0,102
-673,378	-82,042	0,035	-0,008
-672,364	-127,535	-0,115	-0,012
-671,349	-45,323	-0,087	-0,032
-670,335	23,588	-0,040	0,024
-669,320	-200,000	0,008	0,116
-668,305	-35,017	-0,116	0,046
-667,291	35,392	-0,076	-0,049
-666,276	88,049	0,021	0,017
-665,262	551,487	-0,056	-0,099
-664,247	5,528	-0,060	0,032
-663,232	-88,833	0,033	0,007
-662,218	720,547	-0,051	0,100
-661,203	800,000	-0,029	0,094
-660,189	-185,073	-0,098	0,001
-659,174	-61,470	-0,028	-0,009
-658,159	-200,000	-0,006	-0,099
-657,145	-200,000	-0,022	-0,089
-656,130	800,000	0,028	0,084
-655,116	373,815	-0,065	0,098
-654,101	800,000	0,033	-0,092
-653,086	-144,724	0,099	-0,007
-652,072	97,763	-0,093	0,079
-651,057	640,730	-0,038	-0,071
-650,043	239,437	0,068	-0,083
-649,028	-36,709	0,026	0,010
-648,014	32,583	0,150	0,095
-646,999	72,202	-0,040	-0,030
-645,984	800,000	-0,056	0,125
-644,970	-77,511	0,044	-0,011
-643,955	173,808	-0,099	-0,105
-642,941	-67,593	0,031	-0,009
-641,926	-179,160	0,053	-0,001
-640,911	405,098	0,049	-0,076
-639,897	636,809	-0,030	0,056
-638,882	-200,000	-0,003	-0,075
-637,868	-2,315	0,127	-0,065
-636,853	800,000	-0,050	-0,156
-635,838	-153,769	-0,037	0,002
-634,824	-160,399	-0,080	-0,003
-633,809	800,000	-0,015	0,045
-632,795	-200,000	-0,030	0,173
-631,780	476,892	0,114	-0,191
-630,765	-33,638	-0,029	0,012
-629,751	800,000	0,026	0,058
-628,736	800,000	-0,008	-0,021
-627,722	195,352	0,077	0,086
-626,707	0,247	-0,074	0,039
-625,692	446,686	0,087	0,141
-624,678	332,091	0,083	0,118
-623,663	99,254	0,059	0,050
-622,649	9,216	-0,127	-0,070
-621,634	268,403	-0,042	-0,055
-620,619	-200,000	0,054	0,000
-619,605	171,192	0,052	-0,054
-618,590	-200,000	-0,009	0,044
-617,576	312,889	0,027	-0,037
-616,561	800,000	-0,010	0,023
-615,546	214,938	-0,155	-0,181
-614,532	-82,572	-0,111	-0,026
-613,517	78,493	0,053	0,042
-612,503	-121,868	-0,052	-0,006
-611,488	376,268	0,082	0,122
-610,474	-127,717	-0,064	-0,007
-609,459	456,094	-0,039	0,063
-608,444	-6,384	-0,123	-0,061
-607,430	-200,000	-0,029	-0,125
-606,415	800,000	0,046	-0,106
-605,401	-48,788	0,083	0,029
-604,386	282,506	0,036	-0,047
-603,371	14,679	0,162	0,093
-602,357	288,863	0,091	-0,121
-601,342	24,717	-0,080	0,049
-600,328	66,437	-0,062	0,046
-599,313	-104,551	-0,044	-0,007
-598,298	-200,000	-0,027	-0,107
-597,284	585,456	-0,033	-0,060
-596,269	-115,587	0,099	0,014
-595,255	-200,000	-0,019	0,145
-594,240	81,088	-0,054	0,043
-593,225	-84,026	-0,087	0,020
-592,211	-10,428	-0,066	-0,032
-591,196	-200,000	0,014	0,153
-590,182	800,000	0,030	-0,088
-589,167	238,020	-0,094	0,114
-588,152	-99,017	0,043	0,008
-587,138	800,000	0,046	-0,106
-586,123	253,855	-0,104	-0,131
-585,109	254,440	-0,019	0,024
-584,094	140,163	0,023	-0,022
-583,079	800,000	0,037	-0,093
-582,065	-200,000	0,003	-0,054
-581,050	13,875	-0,072	-0,041
-580,036	205,064	-0,073	-0,083
-579,021	-200,000	-0,038	-0,125
-578,006	629,690	-0,106	-0,197
-576,992	-200,000	-0,007	0,050
-575,977	-200,000	0,011	0,100
-574,963	140,785	-0,056	0,054
-573,948	-81,022	0,177	-0,043
-572,934	-55,036	-0,088	-0,029
-571,919	564,374	-0,062	-0,111
-570,904	-46,205	-0,056	-0,020
-569,890	800,000	0,014	-0,034
-568,875	-200,000	-0,018	-0,078
-567,861	346,223	-0,049	0,070
-566,846	492,424	-0,063	0,107
-565,831	-200,000	0,051	0,204
-564,817	641,229	-0,021	-0,039
-563,802	112,051	-0,103	-0,091
-562,788	-200,000	0,022	0,083
-561,773	800,000	0,052	-0,138
-560,758	-152,388	-0,060	-0,003
-559,744	48,694	0,063	0,043
-558,729	800,000	0,040	-0,110
-557,715	514,750	0,006	0,011
-556,700	156,600	-0,080	0,081
-555,685	302,347	-0,036	-0,048
-554,671	800,000	0,020	-0,054
-553,656	152,386	-0,033	0,033
-552,642	-200,000	0,022	0,099
-551,627	170,787	-0,052	0,055
-550,612	800,000	-0,024	0,053
-549,598	157,953	-0,063	-0,064
-548,583	54,180	0,047	0,033
-547,569	688,799	-0,024	0,046
-546,554	24,054	-0,073	0,044
-545,539	86,021	0,048	0,039
-544,525	-200,000	-0,012	-0,098
-543,510	343,484	-0,080	-0,116
-542,496	271,912	-0,085	-0,110
-541,481	332,625	0,050	-0,071
-540,466	239,097	-0,017	-0,021
-539,452	800,000	0,022	0,065
-538,437	113,544	-0,113	0,101
-537,423	693,326	0,059	-0,113
-536,408	-112,003	-0,053	-0,008
-535,393	-200,000	-0,013	-0,147
-534,379	-200,000	-0,039	-0,167
-533,364	10,175	0,057	-0,032
-532,350	16,128	0,048	0,028
-531,335	185,806	0,042	-0,045
-530,321	249,065	-0,025	-0,031
-529,306	-3,087	-0,071	0,036
-528,291	42,008	-0,065	-0,043
-527,277	-46,268	-0,236	-0,085
-526,262	800,000	0,058	-0,127
-525,248	-173,543	0,051	0,001
-524,233	52,457	0,099	-0,069
-523,218	-126,210	-0,135	0,015
-522,204	245,109	0,061	-0,075
-521,189	183,436	-0,108	-0,117
-520,175	68,499	0,006	0,005
-519,160	102,778	-0,117	-0,100
-518,145	-200,000	0,032	-0,125
-517,131	-28,630	-0,035	0,014
-516,116	-148,863	0,060	0,003
-515,102	-200,000	-0,018	0,082
-514,087	-200,000	-0,013	0,081
-513,072	21,849	0,067	0,040
-512,058	35,707	0,025	0,016
-511,043	3,215	0,054	-0,029
-510,029	-2,233	-0,126	0,064
-509,014	800,000	-0,013	-0,035
-507,999	-135,977	0,055	0,005
-506,985	514,655	-0,025	0,043
-505,970	501,571	-0,060	0,101
-504,956	-200,000	-0,016	-0,058
-503,941	632,508	-0,068	-0,127
-502,926	273,724	-0,055	-0,071
-501,912	758,699	0,004	0,009
-500,897	-200,000	-0,012	0,075
-499,883	800,000	-0,015	-0,045
-498,868	57,759	0,017	-0,012
-497,853	-200,000	0,006	0,044
-496,839	25,220	-0,134	-0,081
-495,824	-200,000	0,007	0,078
-494,810	41,546	0,064	-0,042
-493,795	800,000	0,012	-0,029
-492,781	55,366	0,094	0,066
-491,766	82,018	-0,145	-0,115
-490,751	25,467	0,113	0,068
-489,737	367,438	0,024	-0,035
-488,722	800,000	-0,085	-0,206
-487,708	162,257	0,016	-0,016
-486,693	246,641	-0,043	0,054
-485,678	263,282	0,018	-0,023
-484,664	-83,853	-0,050	0,011
-483,649	110,764	-0,085	-0,074
-482,635	34,798	0,097	0,062
-481,620	348,287	0,025	-0,036
-480,605	800,000	0,063	-0,175
-479,591	-200,000	0,013	-0,092
-478,576	-37,010	-0,138	0,054
-477,562	304,832	0,046	0,063
-476,547	-200,000	-0,018	-0,095
-475,532	21,430	-0,097	0,057
-474,518	-200,000	-0,007	0,038
-473,503	34,702	0,104	0,066
-472,489	32,377	-0,103	0,065
-471,474	-200,000	0,013	0,094
-470,459	131,875	-0,075	-0,071
-469,445	-35,600	0,096	-0,038
-468,430	-200,000	0,007	-0,052
-467,416	-200,000	-0,014	-0,078
-466,401	-57,832	0,080	0,025
-465,386	-200,000	0,015	0,090
-464,372	114,507	0,045	-0,040
-463,357	800,000	-0,044	0,094
-462,343	203,239	-0,046	-0,052
-461,328	10,434	-0,073	-0,041
-460,313	-200,000	-0,009	0,035
-459,299	60,902	0,079	0,057
-458,284	514,429	0,056	0,096
-457,270	-200,000	0,024	0,133
-456,255	99,815	-0,066	0,056
-455,241	-112,175	-0,073	0,011
-454,226	199,207	0,059	-0,066
-453,211	59,086	-0,006	0,004
-452,197	65,539	0,044	0,032
-451,182	-200,000	-0,027	0,159
-450,168	5,621	0,099	0,053
-449,153	-200,000	-0,001	0,025
-448,138	107,975	-0,088	-0,077
-447,124	800,000	-0,064	-0,166
-446,109	-148,493	-0,068	-0,004
-445,095	218,099	0,105	0,123
-444,080	-200,000	0,004	0,092
-443,065	-200,000	0,000	0,030
-442,051	560,084	-0,028	0,050
-441,036	800,000	0,014	0,043
-440,022	800,000	0,007	0,016
-439,007	-165,772	0,108	-0,003
-437,992	111,610	-0,012	-0,010
-436,978	46,325	0,095	0,064
-435,963	241,437	0,119	0,145
-434,949	250,533	0,014	-0,018
-433,934	-14,052	-0,082	0,038
-432,919	-58,441	0,023	-0,007
-431,905	-200,000	0,032	-0,116
-430,890	113,507	0,069	-0,061
-429,876	-200,000	0,007	0,068
-428,861	-200,000	0,023	0,160
-427,846	800,000	-0,053	0,109
-426,832	800,000	-0,021	0,061
-425,817	-200,000	-0,025	-0,093
-424,803	-51,355	0,062	0,021
-423,788	-200,000	0,039	-0,218
-422,773	-100,003	-0,011	-0,002
-421,759	1,867	0,103	0,054
-420,744	196,754	0,098	0,109
-419,730	-22,363	-0,184	0,081
-418,715	-200,000	-0,019	0,087
-417,701	800,000	-0,018	-0,055
-416,686	1,866	0,063	0,033
-415,671	46,873	0,147	-0,099
-414,657	214,011	-0,073	-0,085
-413,642	54,798	-0,032	0,023
-412,628	-200,000	0,008	-0,105
-411,613	-200,000	0,000	-0,003
-410,598	-200,000	0,008	-0,054
-409,584	-29,162	-0,029	0,012
-408,569	-140,940	-0,138	0,010
-407,555	800,000	0,009	0,025
-406,540	-200,000	0,011	-0,041
-405,525	-139,521	-0,071	0,005
-404,511	-143,997	-0,234	-0,016
-403,496	154,866	0,049	0,049
-402,482	-89,694	0,111	0,023
-401,467	147,803	0,096	0,094
-400,452	150,720	0,015	-0,015
-399,438	800,000	-0,006	0,014
-398,423	257,412	-0,023	-0,028
-397,409	-200,000	0,001	0,018
-396,394	30,316	-0,108	-0,067
-395,379	299,959	0,011	0,014
-394,365	-57,528	-0,098	0,031
-393,350	800,000	-0,014	-0,031
-392,336	-200,000	-0,008	0,062
-391,321	-200,000	-0,005	-0,056
-390,306	-121,022	-0,065	-0,008
-389,292	322,519	0,051	-0,071
-388,277	-128,925	-0,069	0,007
-387,263	-200,000	-0,000	0,066
-386,248	-200,000	-0,006	-0,086
-385,233	-39,648	0,114	0,043
-384,219	-200,000	-0,009	0,044
-383,204	800,000	-0,039	0,101
-382,190	76,116	-0,061	-0,047
-381,175	184,855	0,078	0,084
-380,160	-39,093	0,104	0,040
-379,146	376,394	0,035	-0,052
-378,131	511,364	-0,034	0,058
-377,117	-145,254	0,142	0,009
-376,102	-124,187	-0,185	-0,021
-375,088	-200,000	0,007	0,029
-374,073	-3,617	0,108	0,054
-373,058	274,877	-0,030	-0,039
-372,044	433,123	-0,030	0,048
-371,029	169,936	0,079	-0,082
-370,015	-200,000	0,021	0,078
-369,000	-68,199	-0,093	-0,026
-367,985	-200,000	-0,006	0,079
-366,971	104,171	0,094	0,080
-365,956	107,323	-0,060	-0,052
-364,942	-200,000	0,018	0,063
-363,927	158,295	0,045	-0,045
-362,912	130,640	0,069	-0,065
-361,898	-40,307	0,082	0,031
-360,883	381,716	-0,028	-0,043
-359,869	-200,000	0,003	0,025
-358,854	233,910	0,066	-0,079
-357,839	-35,384	0,147	-0,058
-356,825	800,000	-0,016	0,044
-355,810	129,154	0,048	0,044
-354,796	381,833	0,068	-0,102
-353,781	10,311	0,083	0,045
-352,766	-53,939	-0,093	-0,031
-351,752	-200,000	-0,021	-0,082
-350,737	800,000	-0,011	0,036
-349,723	-103,767	0,131	0,022
-348,708	800,000	0,039	-0,102
-347,693	800,000	-0,066	-0,148
-346,679	-97,602	-0,085	0,016
-345,664	168,820	0,039	0,040
-344,650	46,141	0,063	-0,043
-343,635	203,425	-0,009	-0,010
-342,620	-117,859	0,206	0,027
-341,606	609,801	0,051	0,093
-340,591	800,000	-0,023	0,047
-339,577	-200,000	-0,009	-0,107
-338,562	156,608	0,039	-0,039
-337,548	81,728	0,085	-0,066
-336,533	175,736	-0,027	-0,029
-335,518	-200,000	-0,036	-0,125
-334,504	171,752	0,018	0,019
-333,489	-70,995	0,068	-0,018
-332,475	706,350	0,044	-0,085
-331,460	-200,000	-0,023	-0,086
-330,445	-200,000	0,012	0,041
-329,431	308,156	0,052	0,070
-328,416	-77,173	0,026	0,006
-327,402	28,742	0,087	0,053
-326,387	12,834	0,021	0,012
-325,372	-135,607	0,097	0,008
-324,358	108,168	-0,153	0,133
-323,343	-200,000	0,006	-0,096
-322,329	-138,678	0,142	0,011
-321,314	-200,000	-0,005	-0,062
-320,299	358,577	0,056	0,082
-319,285	-200,000	-0,009	-0,076
-318,270	-200,000	-0,004	-0,017
-317,256	71,178	0,053	-0,040
-316,241	-79,748	0,068	-0,017
-315,226	-200,000	0,006	-0,075
-314,212	-92,813	0,131	0,026
-313,197	-98,283	0,127	0,023
-312,183	191,923	-0,068	0,074
-311,168	104,413	0,052	-0,044
-310,153	144,764	-0,078	0,075
-309,139	542,952	-0,036	-0,062
-308,124	-200,000	-0,003	0,040
-307,110	800,000	0,033	-0,071
-306,095	800,000	0,062	0,160
-305,080	-82,723	0,027	0,006
-304,066	-66,768	-0,140	0,040
-303,051	-117,530	-0,075	0,010
-302,037	-76,808	0,057	-0,014
-301,022	37,052	-0,103	-0,066
-300,008	24,644	0,141	0,084
-298,993	86,290	-0,108	0,086
-297,978	394,259	0,086	0,131
-296,964	-200,000	-0,012	0,043
-295,949	13,639	0,111	-0,062
-294,935	-200,000	0,017	-0,158
-293,920	-55,089	0,084	0,027
-292,905	800,000	0,032	0,078
-291,891	121,237	0,048	0,043
-290,876	-68,763	-0,102	-0,028
-289,862	-200,000	0,006	-0,051
-288,847	-7,605	-0,090	-0,044
-287,832	-38,725	-0,107	0,041
-286,818	39,597	0,092	0,059
-285,803	374,072	0,033	0,049
-284,789	137,190	-0,079	0,075
-283,774	84,636	-0,089	0,071
-282,759	-72,458	0,048	-0,013
-281,745	-48,231	0,119	-0,041
-280,730	-135,709	0,019	-0,002
-279,716	-66,001	0,077	-0,022
-278,701	334,261	0,044	-0,061
-277,686	-129,750	0,068	-0,007
-276,672	-200,000	-0,017	0,059
-275,657	129,738	0,027	0,025
-274,643	-200,000	0,009	-0,151
-273,628	800,000	0,054	-0,113
-272,613	800,000	-0,045	0,094
-271,599	89,097	0,101	-0,081
-270,584	77,593	-0,057	-0,044
-269,570	106,508	0,101	0,087
-268,555	-119,759	0,025	0,003
-267,540	-200,000	0,014	0,091
-266,526	800,000	-0,028	-0,060
-265,511	-200,000	0,014	-0,083
-264,497	-170,367	0,138	-0,003
-263,482	-17,892	0,083	0,037
-262,467	377,096	-0,033	0,049
-261,453	-92,927	-0,154	0,031
-260,438	-200,000	0,021	0,097
-259,424	-43,708	-0,024	-0,009
-258,409	-44,971	0,071	0,025
-257,395	52,392	-0,129	0,089
-256,380	-112,547	0,051	-0,007
-255,365	233,832	-0,069	-0,082
-254,351	577,082	0,061	-0,109
-253,336	-200,000	-0,035	0,135
-252,322	-89,822	-0,065	-0,014
-251,307	104,417	0,091	0,078
-250,292	-200,000	-0,013	0,070
-249,278	141,982	0,040	-0,038
-248,263	-112,827	0,178	0,025
-247,249	-200,000	0,005	0,077
-246,234	-161,956	-0,048	-0,002
-245,219	121,814	-0,040	0,036
-244,205	-75,664	-0,039	0,010
-243,190	653,092	0,067	-0,125
-242,176	543,959	0,050	-0,087
-241,161	118,902	0,023	0,021
-240,146	131,235	-0,043	0,040
-239,132	90,606	-0,082	0,066
-238,117	33,414	-0,168	-0,105
-237,103	-200,000	0,022	-0,092
-236,088	-193,597	-0,039	0,000
-235,073	124,866	0,037	-0,034
-234,059	-37,242	0,078	0,030
-233,044	142,710	0,018	0,018
-232,030	286,009	-0,125	-0,163
-231,015	-200,000	-0,005	0,055
-230,000	113,283	-0,038	-0,034
-228,986	178,114	-0,095	0,101
-227,971	45,352	0,134	0,089
-226,957	26,818	0,239	0,144
-225,942	-200,000	-0,021	0,163
-224,927	800,000	-0,017	-0,044
-223,913	426,409	0,005	-0,008
-222,898	24,310	0,118	-0,070
-221,884	-175,587	0,101	-0,002
-220,869	-78,934	-0,035	0,008
-219,855	-200,000	-0,049	0,168
-218,840	800,000	-0,012	0,025
-217,825	-81,959	-0,069	0,016
-216,811	19,361	-0,061	-0,036
-215,796	-52,624	-0,125	-0,042
-214,782	-39,985	-0,058	-0,022
-213,767	319,371	-0,035	-0,048
-212,752	-200,000	-0,041	0,152
-211,738	-80,958	0,112	-0,027
-210,723	-134,976	-0,088	-0,008
-209,709	79,590	-0,067	0,052
-208,694	79,710	-0,117	0,091
-207,679	-121,356	-0,093	-0,011
-206,665	-96,149	-0,028	-0,005
-205,650	-66,234	0,093	-0,027
-204,636	-69,190	-0,152	0,042
-203,621	-69,798	-0,109	-0,030
-202,606	536,109	0,047	0,081
-201,592	-200,000	0,030	-0,151
-200,577	800,000	0,026	-0,080
-199,563	-200,000	0,007	-0,045
-198,548	12,349	0,042	-0,024
-197,533	139,629	-0,034	0,032
-196,519	53,118	0,044	0,031
-195,504	713,917	-0,026	0,051
-194,490	511,694	0,028	-0,047
-193,475	259,528	-0,069	0,087
-192,460	-200,000	0,015	-0,071
-191,446	-200,000	-0,067	0,226
-190,431	80,492	-0,026	-0,020
-189,417	800,000	0,041	0,086
-188,402	-200,000	-0,020	-0,132
-187,387	42,752	-0,080	-0,053
-186,373	-59,579	-0,157	0,048
-185,358	214,964	0,102	-0,117
-184,344	-200,000	-0,008	-0,033
-183,329	-200,000	0,040	0,141
-182,315	11,843	-0,095	0,052
-181,300	800,000	0,027	-0,071
-180,285	372,903	-0,050	0,074
-179,271	128,415	0,025	-0,023
-178,256	-200,000	-0,005	-0,058
-177,242	-139,823	0,143	-0,011
-176,227	-41,388	0,117	0,043
-175,212	800,000	-0,043	0,108
-174,198	-82,553	0,098	0,023
-173,183	-200,000	-0,009	-0,064
-172,169	219,159	-0,071	0,082
-171,154	-200,000	0,003	-0,071
-170,139	306,968	0,012	0,016
-169,125	438,131	0,079	0,124
-168,110	132,679	-0,068	0,064
-167,096	9,377	-0,038	0,021
-166,081	-59,081	0,060	-0,018
-165,066	-65,153	-0,061	0,018
-164,052	800,000	-0,044	0,091
-163,037	424,984	0,071	0,110
-162,023	503,941	-0,056	0,094
-161,008	38,738	0,119	0,076
-159,993	800,000	0,017	0,040
-158,979	-3,893	-0,162	-0,081
-157,964	398,955	0,038	0,058
-156,950	800,000	0,040	-0,110
-155,935	152,446	-0,065	-0,064
-154,920	-200,000	-0,019	-0,091
-153,906	-200,000	0,023	0,108
-152,891	-200,000	0,006	-0,066
-151,877	-200,000	-0,031	-0,133
-150,862	510,301	0,063	-0,106
-149,847	73,928	0,110	-0,083
-148,833	-200,000	-0,018	0,129
-147,818	800,000	-0,040	-0,087
-146,804	-200,000	-0,008	0,129
-145,789	524,114	-0,041	-0,070
-144,775	-200,000	-0,007	-0,029
-143,760	-36,938	-0,072	0,028
-142,745	50,605	0,055	-0,037
-141,731	194,270	-0,060	-0,066
-140,716	78,094	0,028	-0,022
-139,702	-200,000	0,028	0,098
-138,687	10,720	0,064	-0,035
-137,672	-24,932	0,133	0,057
-136,658	89,745	-0,040	0,032
-135,643	-200,000	-0,008	-0,129
-134,629	785,343	0,030	0,059
-133,614	333,768	-0,023	0,032
-132,599	800,000	-0,025	-0,078
-131,585	107,182	0,108	0,092
-130,570	605,870	0,016	0,029
-129,556	-200,000	0,014	0,099
-128,541	-156,891	-0,082	-0,004
-127,526	-156,797	-0,039	-0,002
-126,512	-129,345	0,127	0,013
-125,497	-86,646	0,136	-0,030
-124,483	800,000	-0,040	-0,126
-123,468	-24,413	0,086	-0,037
-122,453	-108,654	-0,049	0,007
-121,439	47,657	-0,052	-0,035
-120,424	-2,744	0,048	-0,024
-119,410	761,217	0,037	0,073
-118,395	81,240	-0,068	0,053
-117,380	-200,000	-0,034	0,199
-116,366	-35,182	-0,026	-0,010
-115,351	800,000	-0,038	-0,085
-114,337	-200,000	0,022	-0,115
-113,322	328,550	0,091	0,125
-112,307	-200,000	-0,017	0,075
-111,293	-55,854	0,162	-0,052
-110,278	445,005	0,030	0,047
-109,264	656,703	-0,057	0,106
-108,249	-55,249	-0,036	0,012
-107,234	48,684	0,005	-0,004
-106,220	94,819	-0,020	-0,016
-105,205	32,641	0,116	0,072
-104,191	-200,000	0,001	0,005
-103,176	171,778	-0,067	0,069
-102,162	-200,000	0,007	-0,078
-101,147	72,941	0,071	-0,053
-100,132	-200,000	-0,027	-0,097
-99,118	-54,825	0,062	0,020
-98,103	311,001	0,053	0,071
-97,089	634,533	0,028	0,051
-96,074	-200,000	0,030	0,121
-95,059	-53,344	-0,154	0,051
-94,045	160,015	0,065	-0,065
-93,030	-142,972	0,045	-0,003
-92,016	50,705	-0,040	-0,027
-91,001	-20,499	0,108	0,047
-89,986	-111,356	-0,043	-0,006
-88,972	800,000	0,058	0,139
-87,957	531,122	-0,036	0,061
-86,943	-200,000	0,040	0,169
-85,928	257,983	-0,064	0,079
-84,913	-139,865	-0,069	0,005
-83,899	672,430	0,052	0,098
-82,884	285,417	-0,080	0,103
-81,870	-200,000	-0,056	0,180
-80,855	201,027	0,080	-0,088
-79,840	-178,383	-0,160	0,003
-78,826	444,171	0,046	-0,073
-77,811	-200,000	-0,001	-0,187
-76,797	-112,804	0,065	-0,009
-75,782	800,000	-0,066	0,138
-74,767	77,325	0,088	0,067
-73,753	-90,391	0,039	-0,008
-72,738	-99,757	-0,103	-0,018
-71,724	-200,000	-0,007	-0,157
-70,709	86,454	-0,127	-0,100
-69,694	-200,000	0,003	-0,043
-68,680	-5,854	0,152	0,074
-67,665	-145,112	-0,069	0,004
-66,651	-23,381	0,079	-0,034
-65,636	110,176	-0,097	-0,084
-64,622	-200,000	0,023	-0,126
-63,607	-79,512	-0,075	0,018
-62,592	-200,000	-0,030	0,157
-61,578	-66,719	0,078	-0,022
-60,563	-69,566	0,124	-0,034
-59,549	281,720	-0,047	0,060
-58,534	-16,287	-1,874	-0,851
-57,519	800,000	-0,347	-0,789
-56,505	-200,000	-1,219	-4,950
-55,490	20,703	0,694	0,402
-54,476	800,000	5,304	12,094
-53,461	-200,000	17,105	283,724
-52,446	800,000	721,850	2228,076
-51,432	544,123	1637,813	2817,408
-50,417	112,515	1631,297	1416,554
-49,403	76,322	1287,239	977,519
-48,388	33,006	1029,577	638,758
-47,373	20,263	991,352	572,973
-46,359	18,866	979,451	561,485
-45,344	16,360	975,473	550,968
-44,330	16,508	974,140	550,678
-43,315	16,106	972,240	548,269
-42,300	16,020	971,284	547,425
-41,286	16,018	970,159	546,763
-40,271	16,057	969,014	546,225
-39,257	16,074	968,298	545,855
-38,242	16,068	967,221	545,207
-37,227	16,082	966,554	544,852
-36,213	16,098	965,780	544,449
-35,198	16,015	964,818	543,613
-34,184	16,139	964,055	543,565
-33,169	16,002	962,967	542,487
-32,154	16,038	962,047	542,064
-31,140	16,031	961,304	541,600
-30,125	16,092	960,511	541,328
-29,111	16,050	959,787	540,764
-28,096	16,081	959,118	540,466
-27,082	16,086	958,391	540,049
-26,067	16,087	957,615	539,594
-25,052	16,032	956,790	538,930
-24,038	15,997	956,195	538,461
-23,023	16,019	955,551	538,150
-22,009	16,058	954,865	537,866
-20,994	16,006	954,397	537,417
-19,979	16,043	953,720	537,132
-18,965	16,043	953,211	536,824
-17,950	16,042	952,391	536,339
-16,936	16,014	951,666	535,818
-15,921	15,927	951,276	535,297
-14,906	15,913	950,426	534,754
-13,892	15,866	949,961	534,321
-12,877	15,843	949,296	533,852
-11,863	15,845	948,534	533,410
-10,848	15,929	948,015	533,366
-9,833	16,010	947,434	533,275
-8,819	15,955	946,919	532,789
-7,804	15,944	946,190	532,322
-6,790	15,890	945,657	531,828
-5,775	15,943	944,898	531,550
-4,760	16,011	944,341	531,429
-3,746	15,903	943,742	530,730
-2,731	15,838	943,096	530,138
-1,717	15,785	942,479	529,603
-0,702	15,749	941,819	529,098
0,313	15,517	941,301	528,872
1,327	18,684	939,057	537,559
2,342	27,380	796,796	479,223
3,356	24,128	460,789	272,120
4,371	-2,579	315,312	157,754
5,386	-6,605	297,212	144,598
6,400	-8,372	290,961	139,786
7,415	-9,030	288,624	138,001
8,429	-9,048	286,956	137,174
9,444	-9,310	286,046	136,471
10,459	-9,096	285,467	136,391
11,473	-9,196	284,971	136,044
12,488	-9,279	284,362	135,661
13,502	-9,068	283,766	135,570
14,517	-9,250	283,419	135,215
15,531	-9,306	282,760	134,834
16,546	-9,317	282,430	134,654
17,561	-9,290	281,921	134,425
18,575	-9,233	281,595	134,313
19,590	-9,304	281,305	134,095
20,604	-9,145	280,971	134,076
21,619	-9,211	280,667	133,856
22,634	-9,422	280,361	133,496
23,648	-9,313	279,984	133,409
24,663	-9,163	279,673	133,391
25,677	-9,182	279,297	133,183
26,692	-9,180	279,144	133,099
27,707	-9,252	279,052	132,975
28,721	-9,416	278,689	132,635
29,736	-9,301	278,346	132,568
30,750	-9,500	278,190	132,293
31,765	-9,366	277,826	132,236
32,780	-9,379	277,645	132,126
33,794	-9,354	277,359	132,001
34,809	-9,407	277,018	131,778
35,823	-9,400	276,788	131,662
36,838	-9,523	276,742	131,513
37,853	-9,443	276,385	131,406
38,867	-9,379	276,185	131,360
39,882	-9,228	275,789	131,303
40,896	-9,375	275,695	131,107
41,911	-9,552	275,550	130,861
42,926	-9,426	275,132	130,769
43,940	-9,454	275,015	130,675
44,955	-9,335	274,560	130,558
45,969	-9,542	274,388	130,271
46,984	-9,462	274,271	130,279
47,999	-9,642	273,812	129,881
49,013	-9,808	273,579	129,604
50,028	-10,098	273,437	129,256
51,042	-9,994	273,065	129,165
52,057	-10,217	273,024	128,926
53,071	-10,080	272,812	128,942
54,086	-9,818	272,402	128,980
55,101	-9,802	272,239	128,906
56,115	-9,655	272,215	129,020
57,130	-9,181	271,973	129,333
58,144	-9,246	271,837	129,196
59,159	-9,161	271,656	129,178
60,174	-9,132	271,467	129,103
61,188	-9,224	271,264	128,910
62,203	-9,172	271,008	128,825
63,217	-9,369	270,983	128,619
64,232	-9,153	270,516	128,585
65,247	-9,248	270,393	128,428
66,261	-9,411	270,013	128,086
67,276	-9,367	269,755	127,992
68,290	-9,455	269,295	127,683
69,305	-9,687	269,300	127,460
70,320	-9,553	269,065	127,461
71,334	-9,186	268,977	127,744
72,349	-9,061	268,770	127,749
73,363	-9,196	268,615	127,540
74,378	-9,272	268,274	127,297
75,393	-9,197	268,115	127,279
76,407	-9,192	267,891	127,165
77,422	-9,229	267,715	127,037
78,436	-9,153	267,489	126,987
79,451	-9,346	267,334	126,728
80,466	-9,381	266,902	126,479
81,480	-9,394	266,817	126,416
82,495	-9,382	266,609	126,317
83,509	-9,289	266,355	126,270
84,524	-9,262	266,157	126,189
85,539	-9,471	265,906	125,870
86,553	-9,816	265,867	125,529
87,568	-9,447	265,642	125,744
88,582	-9,382	265,267	125,614
89,597	-9,500	265,105	125,420
90,611	-9,208	264,939	125,593
91,626	-9,187	264,840	125,554
92,641	-9,273	264,650	125,376
93,655	-9,454	264,413	125,090
94,670	-9,437	264,144	124,966
95,684	-9,216	263,897	125,036
96,699	-9,412	263,961	124,880
97,714	-9,161	263,441	124,847
98,728	-9,497	263,391	124,511
99,743	-9,646	263,122	124,241
100,757	-9,688	262,845	124,061
101,772	-9,368	262,679	124,257
102,787	-9,414	262,607	124,171
103,801	-9,290	262,448	124,195
104,816	-9,110	262,070	124,165
105,830	-9,256	262,116	124,046
106,845	-9,111	261,817	124,022
107,860	-9,368	261,741	123,747
108,874	-9,149	261,271	123,708
109,889	-9,252	261,180	123,562
110,903	-9,254	260,937	123,435
111,918	-9,395	260,859	123,262
112,933	-9,300	260,642	123,232
113,947	-9,146	260,368	123,228
114,962	-9,219	260,312	123,125
115,976	-9,203	260,169	123,062
116,991	-9,280	259,801	122,809
118,006	-9,184	259,707	122,838
119,020	-9,063	259,614	122,890
120,035	-9,105	259,327	122,705
121,049	-9,102	259,142	122,610
122,064	-9,105	259,123	122,587
123,079	-9,258	258,927	122,349
124,093	-9,405	258,686	122,095
125,108	-9,488	258,325	121,842
126,122	-9,662	258,024	121,537
127,137	-9,629	257,788	121,444
128,151	-9,645	257,680	121,368
129,166	-9,458	257,622	121,493
130,181	-9,484	257,246	121,282
131,195	-9,719	257,176	121,034
132,210	-9,395	256,976	121,210
133,224	-9,357	256,963	121,226
134,239	-9,092	256,734	121,338
135,254	-9,267	256,558	121,092
136,268	-9,234	256,316	120,996
137,283	-9,532	255,959	120,559
138,297	-9,670	255,746	120,328
139,312	-9,734	255,740	120,259
140,327	-9,442	255,478	120,378
141,341	-9,177	255,272	120,499
142,356	-9,078	255,203	120,541
143,370	-8,944	254,948	120,525
144,385	-8,855	254,850	120,545
145,400	-9,198	254,830	120,229
146,414	-9,254	254,484	120,007
147,429	-9,042	254,367	120,123
148,443	-9,041	254,026	119,952
149,458	-8,937	253,875	119,960
150,473	-8,987	253,527	119,741
151,487	-9,262	253,585	119,522
152,502	-9,202	253,456	119,503
153,516	-9,109	253,210	119,456
154,531	-8,914	253,068	119,544
155,546	-9,214	253,046	119,267
156,560	-9,020	252,693	119,255
157,575	-9,403	252,398	118,779
158,589	-8,969	252,263	119,075
159,604	-9,072	252,047	118,875
160,619	-8,957	251,826	118,858
161,633	-9,207	251,881	118,660
162,648	-9,253	251,767	118,557
163,662	-9,150	251,602	118,556
164,677	-8,904	251,315	118,619
165,692	-8,951	251,157	118,494
166,706	-8,911	250,974	118,431
167,721	-9,127	250,718	118,116
168,735	-8,995	250,655	118,188
169,750	-8,905	250,412	118,139
170,764	-8,839	250,345	118,153
171,779	-8,846	250,204	118,070
172,794	-8,955	250,018	117,879
173,808	-8,916	249,721	117,762
174,823	-9,364	249,470	117,256
175,837	-9,638	249,235	116,905
176,852	-9,194	249,146	117,226
177,867	-9,092	249,101	117,280
178,881	-8,884	248,903	117,350
179,896	-8,984	248,725	117,173
180,910	-8,925	248,556	117,131
181,925	-8,850	248,344	117,084
182,940	-8,976	248,140	116,872
183,954	-8,963	248,029	116,820
184,969	-9,119	247,980	116,656
185,983	-8,923	247,714	116,685
186,998	-9,081	247,537	116,459
188,013	-8,947	247,411	116,501
189,027	-8,918	247,188	116,410
190,042	-9,097	247,182	116,247
191,056	-8,851	246,882	116,300
192,071	-8,885	246,714	116,183
193,086	-8,966	246,454	115,982
194,100	-9,079	246,474	115,888
195,115	-8,822	246,228	115,975
196,129	-8,830	246,004	115,852
197,144	-9,024	245,764	115,569
198,159	-8,985	245,750	115,584
199,173	-8,908	245,564	115,549
200,188	-8,834	245,219	115,439
201,202	-9,120	244,959	115,070
202,217	-9,633	244,729	114,530
203,232	-9,453	244,506	114,563
204,246	-9,197	244,545	114,781
205,261	-8,473	244,688	115,434
206,275	-9,090	244,264	114,717
207,290	-6,134	245,397	117,676
208,304	-1,173	246,863	122,475
209,319	1,077	247,408	124,596
210,334	1,872	247,556	125,318
211,348	2,111	247,415	125,432
212,363	2,412	247,419	125,672
213,377	2,710	247,231	125,811
214,392	2,540	247,154	125,620
215,407	2,437	246,915	125,403
216,421	2,664	246,587	125,412
217,436	2,737	246,679	125,508
218,450	2,805	246,425	125,423
219,465	2,296	246,239	124,899
220,480	2,369	246,091	124,873
221,494	2,628	245,958	125,006
222,509	2,752	245,903	125,069
223,523	2,656	245,468	124,758
224,538	2,194	245,375	124,322
225,553	1,995	245,263	124,091
226,567	2,198	245,181	124,205
227,582	2,422	244,924	124,246
228,596	2,672	244,753	124,353
229,611	2,217	244,598	123,891
230,626	2,205	244,414	123,778
231,640	2,462	244,212	123,874
232,655	2,358	244,316	123,831
233,669	2,386	243,876	123,619
234,684	1,994	243,850	123,276
235,699	2,414	243,782	123,572
236,713	2,596	243,606	123,619
237,728	2,389	243,290	123,281
238,742	2,324	243,213	123,178
239,757	2,181	242,979	122,933
240,772	2,341	242,850	122,986
241,786	2,360	242,631	122,879
242,801	2,283	242,280	122,628
243,815	1,817	242,262	122,232
244,830	2,096	242,383	122,508
245,844	2,504	242,142	122,704
246,859	2,407	241,989	122,537
247,874	2,247	241,804	122,304
248,888	2,389	241,574	122,291
249,903	2,313	241,507	122,185
250,917	2,711	241,326	122,402
251,932	2,686	241,236	122,325
252,947	2,525	241,054	122,093
253,961	2,162	240,814	121,670
254,976	2,463	240,733	121,859
255,990	2,477	240,615	121,800
257,005	1,956	240,371	121,249
258,020	2,051	240,045	121,150
259,034	2,194	239,972	121,215
260,049	2,231	239,987	121,243
261,063	2,117	239,650	120,970
262,078	2,082	239,468	120,840
263,093	2,424	239,402	121,068
264,107	2,468	239,235	121,008
265,122	2,217	239,178	120,769
266,136	2,611	238,990	120,976
267,151	2,339	238,906	120,706
268,166	2,358	238,550	120,531
269,180	2,243	238,472	120,390
270,195	2,656	238,406	120,673
271,209	2,877	238,344	120,805
272,224	2,338	237,928	120,158
273,239	1,981	237,812	119,806
274,253	2,409	237,507	119,980
275,268	2,382	237,610	120,000
276,282	2,406	237,360	119,881
277,297	2,127	237,251	119,596
278,312	2,222	237,071	119,570
279,326	2,368	237,104	119,691
280,341	2,563	236,721	119,640
281,355	2,577	236,692	119,625
282,370	2,601	236,495	119,534
283,384	2,642	236,250	119,432
284,399	2,172	236,303	119,080
285,414	2,083	235,985	118,839
286,428	2,336	235,842	118,954
287,443	2,321	235,761	118,890
288,457	2,627	235,576	119,026
289,472	2,753	235,490	119,070
290,487	2,449	235,293	118,722
291,501	2,091	235,116	118,344
292,516	2,051	234,861	118,174
293,530	1,857	234,791	117,977
294,545	2,259	234,669	118,218
295,560	2,313	234,564	118,196
296,574	2,130	234,378	117,950
297,589	2,133	234,132	117,818
298,603	2,626	234,212	118,230
299,618	2,641	234,032	118,140
300,633	2,582	233,812	117,974
301,647	2,678	233,786	118,024
302,662	3,012	233,764	118,262
303,676	2,873	233,592	118,056
304,691	2,720	233,318	117,789
305,706	2,810	233,190	117,784
306,720	2,805	233,081	117,714
307,735	2,755	232,747	117,496
308,749	2,521	232,583	117,223
309,764	2,275	232,344	116,903
310,779	2,157	232,080	116,669
311,793	2,046	232,134	116,600
312,808	1,931	232,024	116,446
313,822	1,966	231,808	116,354
314,837	2,194	231,639	116,434
315,852	2,131	231,479	116,295
316,866	2,466	231,500	116,551
317,881	2,719	231,292	116,630
318,895	3,012	231,154	116,774
319,910	3,129	231,075	116,813
320,925	2,845	230,684	116,389
321,939	2,479	230,664	116,089
322,954	2,596	230,635	116,153
323,968	2,400	230,376	115,863
324,983	2,417	230,360	115,857
325,997	2,865	230,195	116,105
327,012	2,668	229,886	115,789
328,027	2,350	229,684	115,435
329,041	2,101	229,531	115,159
330,056	3,153	229,725	116,045
331,070	3,585	229,651	116,325
332,085	2,801	229,506	115,647
333,100	2,768	229,141	115,428
334,114	2,700	229,069	115,330
335,129	2,528	228,940	115,124
336,143	2,901	228,738	115,295
337,158	2,707	228,799	115,169
338,173	2,704	228,638	115,074
339,187	2,746	228,429	114,991
340,202	2,563	228,255	114,755
341,216	2,744	228,058	114,782
342,231	2,457	227,820	114,437
343,246	2,628	227,892	114,591
344,260	2,999	227,602	114,714
345,275	3,022	227,495	114,666
346,289	3,080	227,489	114,697
347,304	3,142	227,187	114,581
348,319	3,188	226,975	114,498
349,333	2,833	226,700	114,084
350,348	2,739	226,720	114,013
351,362	2,540	226,557	113,772
352,377	2,804	226,333	113,847
353,392	2,645	226,135	113,618
354,406	2,533	226,134	113,525
355,421	195,129	1322,201	1397,705
356,435	156,393	1455,757	1397,714
