DTS Sentinel unit serial number:	SN410029Multiplexer serial number:	ORYXHardware model number:	OX2-SRSoftware version number:	ORYX F/W v4,00 Oryx Data Collector v3.7.2.0data status	okinstallation	B5 Nyhavnadifferential loss correction	single-endedforward channel	channel 2reverse channel	N/Adate	2023/12/12time	09:07:13forward acquisition time	300,00reverse acquisition time	0,00gamma	499,1914k internal	0,3158k external	0,3158temperature offset calibration	1,0000default loss term (dB/km)	0,3820temperature slope calibration	1,0000multiplexer offset coefficient	1,0000multiplexer slope coefficient	1,0000fibre end	0,00T internal ref (°C)	15,04T ext. ref 1 (°C)	-1,31T ext. ref 2 (°C)	-1,59length (m)	temperature (°C)	Stokes	anti-Stokes-744,400	-119,147	0,046	0,006
-743,385	-129,604	-0,327	-0,033
-742,371	-54,911	0,168	0,056
-741,356	-109,159	-0,273	0,042
-740,342	-117,220	0,148	-0,020
-739,327	3,157	-0,175	-0,094
-738,312	98,175	0,024	-0,021
-737,298	-195,724	-0,325	-0,002
-736,283	800,000	0,032	0,073
-735,269	-135,033	-0,323	0,028
-734,254	-35,031	0,177	0,071
-733,239	-28,562	-0,491	-0,208
-732,225	-148,106	0,221	-0,013
-731,210	-200,000	-0,035	0,184
-730,196	-93,837	-0,039	-0,008
-729,181	-28,393	0,051	-0,022
-728,167	135,078	-0,049	-0,047
-727,152	157,546	-0,067	0,069
-726,137	84,979	-0,055	-0,044
-725,123	35,426	0,004	0,003
-724,108	549,985	0,035	-0,063
-723,094	337,766	-0,093	-0,134
-722,079	71,374	-0,156	-0,119
-721,064	-111,512	-0,080	0,012
-720,050	-200,000	-0,003	-0,035
-719,035	-200,000	-0,015	-0,146
-718,021	-200,000	0,006	-0,162
-717,006	-77,338	-0,263	-0,067
-715,991	800,000	-0,041	-0,088
-714,977	28,071	-0,082	0,051
-713,962	394,937	-0,053	-0,082
-712,948	-151,512	-0,073	0,004
-711,933	578,191	-0,081	0,146
-710,918	411,358	-0,031	0,049
-709,904	-137,303	-0,118	-0,010
-708,889	-102,374	-0,066	-0,012
-707,875	109,422	-0,064	0,056
-706,860	100,491	-0,086	0,074
-705,845	508,159	0,057	-0,097
-704,831	-200,000	0,022	0,073
-703,816	516,227	0,018	0,031
-702,802	-200,000	0,028	-0,102
-701,787	335,841	-0,004	0,006
-700,772	115,810	-0,090	-0,081
-699,758	-200,000	0,007	0,143
-698,743	800,000	-0,021	0,051
-697,729	33,998	0,124	-0,079
-696,714	22,223	-0,081	-0,049
-695,699	696,608	-0,046	0,089
-694,685	-200,000	-0,000	0,055
-693,670	800,000	-0,058	0,186
-692,656	9,099	-0,011	0,006
-691,641	375,752	0,078	0,117
-690,627	46,661	-0,060	-0,041
-689,612	800,000	0,036	-0,080
-688,597	528,967	-0,057	-0,100
-687,583	800,000	0,029	-0,081
-686,568	-79,376	-0,150	-0,037
-685,554	273,507	-0,030	0,039
-684,539	42,241	0,059	-0,039
-683,524	116,420	0,073	0,066
-682,510	175,849	-0,108	-0,115
-681,495	-200,000	0,090	0,000
-680,481	-79,350	-0,218	0,054
-679,466	-154,806	-0,183	0,009
-678,451	-200,000	0,021	-0,124
-677,437	-200,000	-0,005	0,031
-676,422	-144,048	-0,115	-0,008
-675,408	193,870	0,032	-0,035
-674,393	-66,662	-0,081	0,023
-673,378	-58,209	-0,128	-0,041
-672,364	-200,000	0,020	-0,088
-671,349	800,000	0,021	-0,054
-670,335	116,880	-0,096	-0,087
-669,320	352,991	0,078	0,114
-668,305	-31,334	-0,027	-0,011
-667,291	-0,305	0,079	-0,041
-666,276	-200,000	-0,029	-0,096
-665,262	-200,000	0,016	-0,067
-664,247	800,000	-0,028	-0,075
-663,232	649,845	0,048	0,090
-662,218	-105,207	0,050	0,008
-661,203	-200,000	0,005	-0,086
-660,189	618,697	-0,068	-0,127
-659,174	-200,000	0,003	-0,057
-658,159	-81,522	-0,207	-0,050
-657,145	800,000	-0,046	-0,141
-656,130	-49,256	-0,171	-0,060
-655,116	-49,293	-0,064	0,022
-654,101	-50,989	0,214	0,073
-653,086	800,000	-0,004	-0,008
-652,072	-200,000	0,004	-0,067
-651,057	-57,419	-0,151	0,049
-650,043	-4,614	-0,175	-0,089
-649,028	-26,881	-0,017	-0,007
-648,014	-111,572	0,025	0,004
-646,999	-14,824	-0,127	0,060
-645,984	379,386	-0,021	-0,032
-644,970	800,000	0,016	-0,047
-643,955	442,802	-0,028	0,046
-642,941	-200,000	-0,006	0,036
-641,926	-200,000	0,021	0,085
-640,911	-82,334	-0,081	0,019
-639,897	115,743	0,083	0,074
-638,882	168,016	0,022	0,023
-637,868	-25,580	0,056	0,024
-636,853	-57,125	-0,046	0,015
-635,838	13,680	-0,025	-0,014
-634,824	31,000	-0,078	0,049
-633,809	800,000	0,009	-0,020
-632,795	75,788	-0,103	-0,080
-631,780	87,272	-0,108	0,088
-630,765	245,103	-0,022	0,028
-629,751	-70,448	-0,033	-0,009
-628,736	800,000	-0,002	0,004
-627,722	328,769	0,092	-0,131
-626,707	150,601	0,101	-0,101
-625,692	-103,407	-0,059	-0,010
-624,678	310,168	0,042	0,058
-623,663	-31,830	-0,157	0,064
-622,649	152,700	-0,093	-0,093
-621,634	-200,000	-0,011	0,088
-620,619	-37,266	-0,051	-0,020
-619,605	285,162	-0,040	-0,053
-618,590	67,635	0,039	-0,029
-617,576	119,717	0,107	0,097
-616,561	-183,155	-0,079	0,001
-615,546	213,579	0,022	0,026
-614,532	99,607	-0,108	0,092
-613,517	480,762	0,032	-0,054
-612,503	73,930	0,029	0,022
-611,488	600,329	0,032	0,058
-610,474	57,792	0,039	0,028
-609,459	792,492	-0,018	0,036
-608,444	676,498	0,041	0,079
-607,430	18,857	-0,017	-0,010
-606,415	523,203	-0,020	0,034
-605,401	-200,000	0,004	0,034
-604,386	-80,208	-0,079	0,019
-603,371	-14,050	-0,145	0,068
-602,357	124,973	0,082	0,076
-601,342	49,219	-0,093	-0,064
-600,328	-67,662	-0,037	0,011
-599,313	-80,123	-0,045	-0,011
-598,298	800,000	0,044	-0,107
-597,284	214,808	-0,054	-0,063
-596,269	800,000	0,037	-0,113
-595,255	131,581	0,089	0,084
-594,240	0,421	0,088	0,046
-593,225	-124,888	-0,217	-0,024
-592,211	254,938	-0,015	-0,019
-591,196	800,000	-0,057	-0,152
-590,182	45,221	-0,181	-0,122
-589,167	88,558	-0,038	0,031
-588,152	-200,000	0,017	-0,132
-587,138	800,000	0,037	0,103
-586,123	257,348	-0,070	-0,088
-585,109	241,469	-0,082	0,100
-584,094	243,236	0,077	-0,094
-583,079	-109,957	0,094	0,014
-582,065	-57,504	0,044	-0,014
-581,050	210,724	0,055	0,064
-580,036	-42,157	-0,017	0,006
-579,021	-134,759	-0,094	0,008
-578,006	-200,000	0,019	-0,132
-576,992	800,000	0,026	-0,071
-575,977	-200,000	-0,013	-0,116
-574,963	445,137	0,032	0,052
-573,948	-27,785	-0,092	-0,039
-572,934	-200,000	0,002	-0,010
-571,919	-200,000	-0,005	0,083
-570,904	-12,664	-0,119	-0,057
-569,890	-200,000	-0,015	0,135
-568,875	157,278	0,024	0,024
-567,861	3,819	-0,043	0,023
-566,846	-182,248	0,093	-0,001
-565,831	91,280	-0,002	0,002
-564,817	-200,000	-0,004	0,021
-563,802	800,000	-0,014	-0,038
-562,788	-186,792	-0,168	-0,002
-561,773	-40,662	0,117	-0,044
-560,758	135,046	-0,051	-0,049
-559,744	5,059	-0,040	-0,021
-558,729	-197,688	0,038	-0,000
-557,715	-46,560	0,077	0,028
-556,700	687,265	-0,010	0,020
-555,685	800,000	0,020	-0,049
-554,671	218,074	-0,083	0,098
-553,656	-91,236	-0,083	-0,017
-552,642	16,178	0,088	-0,050
-551,627	67,715	-0,051	-0,038
-550,612	-93,331	-0,051	0,010
-549,598	800,000	-0,061	-0,127
-548,583	-200,000	0,033	-0,127
-547,569	132,274	0,082	-0,077
-546,554	442,299	-0,101	-0,162
-545,539	-24,470	0,048	0,021
-544,525	521,525	-0,047	-0,081
-543,510	59,990	0,120	-0,087
-542,496	-8,033	-0,097	-0,047
-541,481	310,747	0,037	-0,051
-540,466	800,000	-0,021	-0,044
-539,452	-18,840	-0,041	0,019
-538,437	765,140	0,013	-0,026
-537,423	-19,188	0,015	0,007
-536,408	800,000	0,036	-0,076
-535,393	-200,000	-0,012	-0,073
-534,379	49,071	0,112	0,077
-533,364	-137,073	0,162	0,013
-532,350	-74,104	-0,080	0,021
-531,335	-71,170	-0,055	-0,015
-530,321	-8,190	0,140	-0,069
-529,306	24,652	-0,044	-0,027
-528,291	800,000	-0,009	0,029
-527,277	20,756	-0,084	0,049
-526,262	263,184	0,088	0,112
-525,248	-29,139	-0,037	-0,016
-524,233	-200,000	0,003	-0,029
-523,218	463,952	-0,074	0,122
-522,204	-180,109	-0,226	-0,003
-521,189	141,143	-0,045	0,044
-520,175	800,000	0,023	-0,062
-519,160	31,663	0,033	0,021
-518,145	338,188	0,035	-0,050
-517,131	-200,000	-0,008	-0,070
-516,116	800,000	0,046	0,104
-515,102	-108,248	0,020	0,003
-514,087	51,804	-0,028	0,019
-513,072	16,265	-0,047	-0,027
-512,058	110,518	-0,052	0,046
-511,043	-200,000	-0,011	0,043
-510,029	83,285	0,027	-0,021
-509,014	-168,014	0,076	-0,002
-507,999	403,150	-0,017	0,027
-506,985	47,282	-0,027	-0,018
-505,970	-75,998	0,116	0,030
-504,956	471,590	0,096	0,159
-503,941	-95,369	-0,036	0,007
-502,926	-41,728	0,147	0,055
-501,912	800,000	0,031	0,067
-500,897	-78,908	0,068	0,017
-499,883	-200,000	-0,016	-0,105
-498,868	195,472	-0,069	-0,076
-497,853	148,331	0,063	0,062
-496,839	-117,934	0,098	-0,013
-495,824	-57,278	0,092	0,029
-494,810	-200,000	-0,012	0,046
-493,795	-119,570	-0,059	-0,007
-492,781	-200,000	-0,034	0,112
-491,766	-52,940	0,153	0,051
-490,751	90,103	0,117	0,095
-489,737	374,090	-0,053	-0,079
-488,722	-200,000	0,005	0,045
-487,708	676,461	0,014	0,027
-486,693	-1,752	-0,069	0,035
-485,678	157,998	-0,018	-0,018
-484,664	-131,562	-0,026	0,003
-483,649	-124,555	-0,058	-0,007
-482,635	123,440	0,103	-0,095
-481,620	-75,624	-0,112	-0,029
-480,605	-117,274	-0,112	0,015
-479,591	48,800	-0,033	-0,023
-478,576	23,187	-0,112	-0,067
-477,562	-148,601	0,141	0,008
-476,547	-94,680	-0,153	-0,030
-475,532	471,708	0,063	-0,104
-474,518	-200,000	0,011	-0,056
-473,503	800,000	0,056	0,170
-472,489	-200,000	-0,001	0,035
-471,474	-200,000	-0,007	0,063
-470,459	-34,827	-0,159	0,063
-469,445	89,910	0,140	0,114
-468,430	-200,000	-0,027	0,111
-467,416	-200,000	-0,005	-0,049
-466,401	-69,091	0,151	-0,042
-465,386	-72,617	0,079	0,021
-464,372	-17,909	-0,150	-0,068
-463,357	-8,256	-0,121	0,059
-462,343	-8,269	-0,046	-0,023
-461,328	-75,125	-0,020	-0,005
-460,313	-111,684	0,070	-0,010
-459,299	23,327	0,129	-0,077
-458,284	-73,692	-0,026	0,007
-457,270	-170,197	0,126	-0,003
-456,255	-9,834	-0,083	0,040
-455,241	-200,000	0,035	0,162
-454,226	-200,000	0,021	-0,184
-453,211	-171,393	0,034	0,001
-452,197	338,049	0,011	0,015
-451,182	-200,000	0,001	0,034
-450,168	-200,000	-0,000	0,085
-449,153	800,000	0,008	-0,022
-448,138	-200,000	0,013	-0,164
-447,124	-40,013	-0,164	-0,062
-446,109	598,239	0,040	-0,073
-445,095	119,819	-0,052	-0,047
-444,080	68,444	-0,034	-0,025
-443,065	800,000	0,051	0,107
-442,051	362,957	-0,054	-0,079
-441,036	674,395	-0,046	-0,087
-440,022	-200,000	0,017	0,086
-439,007	-200,000	0,006	0,079
-437,992	-176,856	0,100	-0,002
-436,978	800,000	0,050	-0,160
-435,963	-200,000	0,002	-0,032
-434,949	68,354	0,064	0,048
-433,934	-127,652	0,026	-0,003
-432,919	-158,981	-0,134	0,005
-431,905	800,000	-0,042	-0,115
-430,890	348,022	-0,058	0,083
-429,876	800,000	0,096	0,237
-428,861	800,000	0,010	-0,020
-427,846	14,962	-0,205	0,117
-426,832	796,133	0,017	0,035
-425,817	-35,609	-0,082	-0,032
-424,803	-200,000	0,002	-0,076
-423,788	-140,773	0,069	0,005
-422,773	26,598	0,104	-0,063
-421,759	800,000	-0,026	0,079
-420,744	277,817	0,035	0,046
-419,730	16,949	-0,108	-0,062
-418,715	-125,176	-0,034	-0,004
-417,701	-81,011	0,179	-0,043
-416,686	-200,000	0,017	0,082
-415,671	800,000	-0,024	-0,060
-414,657	-200,000	0,003	0,023
-413,642	758,318	0,029	-0,058
-412,628	12,716	0,095	0,053
-411,613	800,000	-0,033	0,069
-410,598	-79,559	0,049	-0,012
-409,584	16,718	0,050	0,029
-408,569	88,230	-0,028	0,023
-407,555	-200,000	-0,016	-0,099
-406,540	-102,447	-0,113	-0,019
-405,525	418,209	-0,068	0,107
-404,511	-12,089	0,084	-0,040
-403,496	-159,971	0,120	0,005
-402,482	95,854	0,015	0,013
-401,467	80,455	0,113	0,088
-400,452	-200,000	0,012	0,192
-399,438	-200,000	-0,021	0,070
-398,423	94,432	-0,060	0,049
-397,409	-200,000	-0,031	0,156
-396,394	-100,034	0,066	0,012
-395,379	-180,333	-0,053	0,001
-394,365	253,017	0,079	0,098
-393,350	-108,819	-0,101	0,016
-392,336	84,640	-0,052	0,041
-391,321	-72,250	-0,092	0,025
-390,306	159,331	0,044	0,045
-389,292	101,991	-0,052	0,044
-388,277	15,447	-0,084	0,048
-387,263	708,195	-0,017	-0,033
-386,248	38,388	0,135	-0,087
-385,233	800,000	0,023	-0,051
-384,219	233,390	0,038	0,045
-383,204	-200,000	0,013	0,073
-382,190	146,925	-0,069	0,067
-381,175	206,458	0,040	-0,046
-380,160	-87,844	0,037	-0,008
-379,146	800,000	0,045	0,099
-378,131	98,356	-0,039	0,033
-377,117	-17,510	-0,063	0,029
-376,102	800,000	0,073	-0,156
-375,088	-200,000	0,019	0,063
-374,073	-34,153	0,062	0,025
-373,058	138,867	0,021	0,020
-372,044	-56,765	-0,028	-0,009
-371,029	178,839	-0,077	-0,082
-370,015	-200,000	-0,006	0,030
-369,000	436,747	-0,063	0,100
-367,985	800,000	0,037	-0,113
-366,971	-200,000	0,008	0,073
-365,956	-200,000	-0,033	-0,171
-364,942	229,788	0,019	0,023
-363,927	155,191	-0,081	0,081
-362,912	-200,000	0,010	0,128
-361,898	800,000	-0,082	-0,229
-360,883	262,396	-0,017	0,022
-359,869	256,456	0,051	-0,063
-358,854	66,332	0,144	-0,106
-357,839	531,509	0,084	0,145
-356,825	800,000	-0,039	0,089
-355,810	-200,000	0,006	0,067
-354,796	-200,000	0,006	-0,086
-353,781	146,617	0,049	-0,048
-352,766	62,234	0,060	0,044
-351,752	134,702	0,094	0,089
-350,737	-3,376	0,149	0,075
-349,723	58,907	0,059	-0,042
-348,708	800,000	-0,021	0,066
-347,693	-101,084	-0,127	-0,022
-346,679	-200,000	0,020	0,065
-345,664	4,905	-0,145	-0,077
-344,650	522,730	0,011	-0,018
-343,635	-37,774	0,042	-0,016
-342,620	147,064	0,029	-0,028
-341,606	-200,000	0,034	0,114
-340,591	800,000	0,022	-0,065
-339,577	-200,000	0,025	-0,147
-338,562	-55,381	0,012	0,004
-337,548	151,258	-0,055	0,055
-336,533	734,938	-0,012	-0,023
-335,518	-87,599	-0,189	-0,041
-334,504	-200,000	0,033	-0,183
-333,489	800,000	0,026	0,072
-332,475	-200,000	-0,013	-0,068
-331,460	-200,000	0,010	0,078
-330,445	-67,119	-0,041	-0,012
-329,431	-200,000	0,028	-0,097
-328,416	-9,981	0,143	-0,069
-327,402	-200,000	-0,012	0,098
-326,387	-200,000	-0,015	0,166
-325,372	-200,000	-0,050	-0,203
-324,358	-11,080	0,054	0,026
-323,343	40,369	0,080	0,052
-322,329	710,848	0,036	0,069
-321,314	-3,954	-0,063	0,031
-320,299	-200,000	0,003	0,076
-319,285	-116,182	0,095	-0,013
-318,270	-89,985	-0,107	0,022
-317,256	800,000	-0,084	-0,186
-316,241	-200,000	0,020	-0,090
-315,226	-68,778	0,146	-0,041
-314,212	-20,525	0,064	0,028
-313,197	-125,586	-0,013	-0,001
-312,183	-135,013	0,090	-0,008
-311,168	-200,000	-0,025	-0,129
-310,153	-200,000	0,019	-0,199
-309,139	-13,896	-0,067	-0,031
-308,124	-67,453	-0,012	0,003
-307,110	94,699	0,156	0,129
-306,095	62,758	0,026	-0,019
-305,080	54,678	-0,123	0,086
-304,066	-79,837	-0,099	-0,024
-303,051	-147,861	0,104	0,006
-302,037	-200,000	-0,033	-0,119
-301,022	800,000	-0,020	-0,062
-300,008	-75,741	0,047	0,012
-298,993	800,000	-0,017	0,047
-297,978	-92,991	0,171	0,034
-296,964	84,559	0,058	0,046
-295,949	-200,000	-0,007	0,096
-294,935	-109,330	-0,171	-0,026
-293,920	-200,000	0,016	0,071
-292,905	721,211	0,009	0,018
-291,891	363,371	0,053	0,078
-290,876	800,000	-0,053	0,117
-289,862	-200,000	-0,001	0,146
-288,847	1,824	-0,023	-0,012
-287,832	-200,000	-0,000	-0,023
-286,818	800,000	0,034	-0,071
-285,803	-200,000	0,013	-0,043
-284,789	-41,713	0,038	0,014
-283,774	199,646	0,084	0,093
-282,759	105,616	0,028	0,024
-281,745	800,000	-0,036	0,102
-280,730	800,000	-0,040	0,117
-279,716	312,994	0,065	-0,089
-278,701	-200,000	0,059	0,000
-277,686	800,000	0,031	-0,075
-276,672	800,000	-0,022	-0,055
-275,657	-0,618	0,034	0,017
-274,643	-130,890	-0,126	0,012
-273,628	-163,049	0,051	0,002
-272,613	303,113	-0,033	-0,044
-271,599	138,811	0,081	0,077
-270,584	180,818	0,024	-0,025
-269,570	-200,000	-0,025	-0,121
-268,555	-3,133	0,152	0,076
-267,540	-92,988	0,074	0,015
-266,526	-200,000	-0,039	-0,148
-265,511	-200,000	0,007	-0,035
-264,497	289,103	0,057	0,075
-263,482	-200,000	0,034	-0,137
-262,467	188,995	-0,020	0,022
-261,453	576,828	-0,064	-0,114
-260,438	108,676	-0,060	0,052
-259,424	120,443	-0,058	-0,052
-258,409	490,221	-0,049	-0,081
-257,395	-200,000	-0,013	0,126
-256,380	708,104	-0,037	-0,071
-255,365	800,000	0,015	0,039
-254,351	800,000	0,013	0,037
-253,336	36,068	-0,059	0,038
-252,322	-200,000	0,003	-0,053
-251,307	-200,000	0,010	-0,080
-250,292	-200,000	-0,023	-0,130
-249,278	101,610	0,103	-0,087
-248,263	188,871	0,084	-0,091
-247,249	575,971	-0,045	-0,080
-246,234	-43,442	0,232	-0,084
-245,219	-69,894	-0,159	0,043
-244,205	-106,697	-0,079	-0,013
-243,190	-200,000	0,014	0,059
-242,176	-75,522	0,065	-0,016
-241,161	406,511	-0,030	0,046
-240,146	-200,000	-0,033	0,132
-239,132	561,786	0,072	-0,127
-238,117	-153,314	0,101	-0,005
-237,103	-200,000	0,002	0,084
-236,088	137,095	-0,138	-0,130
-235,073	598,500	0,024	-0,043
-234,059	800,000	0,050	0,130
-233,044	89,842	0,023	0,019
-232,030	800,000	-0,009	-0,025
-231,015	761,421	-0,039	-0,077
-230,000	-65,492	-0,086	0,025
-228,986	-107,581	-0,137	0,021
-227,971	51,256	0,091	-0,062
-226,957	-200,000	-0,028	0,128
-225,942	264,838	0,036	-0,045
-224,927	-200,000	0,023	0,121
-223,913	-83,225	-0,124	0,029
-222,898	674,534	0,051	0,096
-221,884	800,000	0,025	0,069
-220,869	-41,999	0,090	0,033
-219,855	800,000	-0,025	0,077
-218,840	114,794	0,042	0,037
-217,825	-200,000	-0,024	0,234
-216,811	-49,443	0,097	-0,033
-215,796	-172,375	-0,098	0,002
-214,782	-43,173	0,130	-0,047
-213,767	-112,079	0,091	-0,013
-212,752	-80,882	0,169	0,040
-211,738	228,726	-0,036	-0,042
-210,723	512,064	0,064	-0,108
-209,709	210,961	-0,045	0,051
-208,694	188,240	0,071	-0,077
-207,679	198,462	-0,071	-0,079
-206,665	183,297	-0,020	0,021
-205,650	-41,122	-0,072	0,027
-204,636	-40,202	0,111	0,041
-203,621	800,000	0,017	0,052
-202,606	-200,000	0,040	-0,155
-201,592	-200,000	-0,024	-0,149
-200,577	57,944	-0,151	-0,107
-199,563	322,659	0,054	0,075
-198,548	-200,000	-0,012	-0,148
-197,533	108,283	0,074	0,063
-196,519	69,183	-0,062	0,046
-195,504	-200,000	-0,013	-0,065
-194,490	97,281	0,021	-0,018
-193,475	-200,000	-0,020	-0,073
-192,460	-200,000	-0,021	0,070
-191,446	-52,374	0,108	-0,036
-190,431	37,813	-0,082	0,052
-189,417	281,031	0,076	0,099
-188,402	82,301	-0,046	0,036
-187,387	-109,099	-0,099	-0,015
-186,373	-121,923	-0,087	0,010
-185,358	800,000	-0,021	0,047
-184,344	-200,000	0,123	0,000
-183,329	186,121	0,038	0,041
-182,315	522,271	-0,035	-0,059
-181,300	-200,000	0,015	-0,104
-180,285	187,183	-0,158	-0,170
-179,271	-42,634	-0,121	-0,044
-178,256	-143,827	-0,080	-0,005
-177,242	477,291	0,044	0,071
-176,227	-200,000	-0,010	0,139
-175,212	-104,130	-0,039	-0,006
-174,198	110,077	-0,126	0,109
-173,183	-200,000	-0,002	-0,153
-172,169	355,447	0,067	0,096
-171,154	-200,000	-0,029	-0,185
-170,139	630,523	-0,026	-0,048
-169,125	-75,426	-0,074	0,019
-168,110	800,000	0,031	0,098
-167,096	232,250	0,090	0,106
-166,081	-200,000	-0,023	-0,160
-165,066	800,000	0,038	-0,098
-164,052	-200,000	-0,010	0,067
-163,037	800,000	-0,026	-0,056
-162,023	800,000	-0,036	0,111
-161,008	-11,587	0,127	-0,060
-159,993	418,354	0,051	0,079
-158,979	91,561	-0,042	-0,034
-157,964	800,000	0,033	-0,097
-156,950	18,059	0,034	0,020
-155,935	132,678	0,060	0,055
-154,920	83,851	0,130	0,102
-153,906	-61,309	-0,153	-0,046
-152,891	-200,000	-0,020	-0,076
-151,877	22,959	-0,066	0,039
-150,862	-115,047	-0,133	0,018
-149,847	-83,707	-0,135	-0,031
-148,833	-200,000	0,038	0,127
-147,818	155,345	0,117	0,117
-146,804	519,748	0,095	0,161
-145,789	352,859	0,064	-0,092
-144,775	-200,000	-0,002	-0,087
-143,760	-200,000	-0,031	-0,143
-142,745	351,106	-0,078	-0,112
-141,731	161,086	-0,034	0,035
-140,716	-200,000	0,021	-0,070
-139,702	204,455	-0,060	0,067
-138,687	-200,000	0,027	0,192
-137,672	-186,637	-0,111	0,001
-136,658	800,000	0,016	-0,050
-135,643	38,170	-0,059	0,037
-134,629	385,366	-0,129	-0,192
-133,614	166,223	-0,028	0,028
-132,599	-44,565	0,054	0,019
-131,585	-69,110	-0,022	0,006
-130,570	-200,000	-0,000	-0,037
-129,556	-200,000	0,024	-0,107
-128,541	-34,852	0,086	-0,034
-127,526	25,209	0,019	-0,011
-126,512	-200,000	0,004	-0,020
-125,497	-200,000	-0,020	-0,086
-124,483	-86,678	0,054	0,012
-123,468	61,382	-0,057	-0,041
-122,453	800,000	-0,044	0,127
-121,439	10,082	-0,121	-0,066
-120,424	-99,036	0,068	-0,012
-119,410	6,450	-0,085	0,045
-118,395	75,048	0,097	0,073
-117,380	341,288	0,039	0,054
-116,366	147,538	-0,110	-0,106
-115,351	10,028	-0,040	-0,022
-114,337	376,906	-0,017	-0,026
-113,322	800,000	0,042	-0,102
-112,307	800,000	0,036	0,073
-111,293	548,403	-0,071	0,123
-110,278	-200,000	0,028	0,112
-109,264	-7,609	-0,047	-0,023
-108,249	313,396	0,038	0,051
-107,234	-200,000	-0,014	0,075
-106,220	172,452	-0,070	0,072
-105,205	-200,000	-0,016	-0,079
-104,191	800,000	-0,016	-0,046
-103,176	335,454	-0,039	-0,055
-102,162	-200,000	0,020	0,066
-101,147	800,000	0,032	-0,087
-100,132	-200,000	-0,016	-0,115
-99,118	-94,981	0,210	-0,040
-98,103	58,347	0,078	-0,055
-97,089	523,033	0,023	-0,039
-96,074	-200,000	-0,010	0,089
-95,059	800,000	0,078	0,207
-94,045	132,186	-0,054	-0,050
-93,030	297,626	-0,121	-0,160
-92,016	-200,000	-0,012	-0,154
-91,001	-200,000	0,014	0,098
-89,986	437,381	0,005	0,008
-88,972	-200,000	-0,011	0,073
-87,957	-200,000	0,004	0,014
-86,943	-200,000	-0,010	-0,065
-85,928	712,847	-0,069	-0,133
-84,913	280,350	0,080	-0,103
-83,899	201,139	-0,066	-0,074
-82,884	70,646	0,015	0,011
-81,870	-200,000	0,024	0,196
-80,855	796,233	0,055	0,110
-79,840	-133,263	-0,124	-0,011
-78,826	-59,226	-0,078	-0,024
-77,811	-56,496	-0,084	0,027
-76,797	185,383	0,107	0,115
-75,782	-200,000	-0,005	-0,130
-74,767	-200,000	0,017	-0,097
-73,753	242,843	-0,061	0,073
-72,738	-143,326	0,111	-0,008
-71,724	-200,000	-0,025	-0,116
-70,709	-24,923	0,064	0,027
-69,694	132,903	0,131	-0,121
-68,680	800,000	-0,029	-0,058
-67,665	360,144	-0,024	0,035
-66,651	6,842	-0,174	0,093
-65,636	245,183	0,051	0,062
-64,622	-200,000	-0,045	0,157
-63,607	-200,000	0,015	-0,077
-62,592	499,670	-0,011	-0,018
-61,578	46,307	-0,098	0,065
-60,563	246,405	-0,073	0,089
-59,549	800,000	0,078	0,205
-58,534	18,367	-1,903	-1,088
-57,519	-200,000	-0,178	-0,823
-56,505	-200,000	-1,256	-5,099
-55,490	72,489	0,692	0,517
-54,476	800,000	5,432	12,237
-53,461	-200,000	17,782	288,780
-52,446	800,000	729,631	2230,393
-51,432	537,240	1645,640	2815,791
-50,417	109,551	1635,588	1405,896
-49,403	75,505	1287,228	974,093
-48,388	31,809	1027,457	633,279
-47,373	20,179	989,162	571,341
-46,359	18,327	976,888	558,163
-45,344	15,323	973,079	546,137
-44,330	15,622	971,405	546,152
-43,315	15,080	969,621	543,358
-42,300	15,029	968,538	542,565
-41,286	15,009	967,752	542,037
-40,271	15,060	966,435	541,445
-39,257	15,044	965,772	541,000
-38,242	15,058	964,852	540,507
-37,227	15,023	963,989	539,889
-36,213	15,078	962,977	539,480
-35,198	15,056	962,064	538,875
-34,184	15,119	961,348	538,656
-33,169	15,059	960,397	537,910
-32,154	15,068	959,390	537,352
-31,140	15,123	958,711	537,127
-30,125	15,155	957,739	536,664
-29,111	15,116	956,959	536,080
-28,096	15,130	956,396	535,790
-27,082	15,075	955,840	535,281
-26,067	15,103	954,961	534,856
-25,052	15,066	954,294	534,342
-24,038	15,042	953,549	533,828
-23,023	15,086	952,897	533,582
-22,009	15,090	952,339	533,261
-20,994	15,089	951,706	532,882
-19,979	15,060	951,223	532,498
-18,965	15,111	950,186	532,059
-17,950	15,070	949,789	531,686
-16,936	14,983	949,175	531,044
-15,921	15,053	948,270	530,740
-14,906	15,005	947,521	530,145
-13,892	14,907	947,191	529,627
-12,877	14,936	946,324	529,213
-11,863	14,892	945,920	528,828
-10,848	14,946	945,260	528,608
-9,833	15,072	944,810	528,735
-8,819	14,995	944,137	528,093
-7,804	14,945	943,600	527,614
-6,790	14,966	943,086	527,373
-5,775	15,008	942,459	527,135
-4,760	15,065	941,543	526,781
-3,746	14,947	941,171	526,180
-2,731	14,854	940,296	525,374
-1,717	14,785	939,903	524,917
-0,702	14,860	938,908	524,576
0,313	14,588	938,500	524,282
1,327	17,912	936,453	533,560
2,342	27,000	792,936	475,825
3,356	23,670	457,797	269,613
4,371	-3,540	313,963	156,024
5,386	-7,594	295,817	142,898
6,400	-9,486	289,795	138,100
7,415	-9,907	287,200	136,437
8,429	-10,036	285,681	135,577
9,444	-10,336	284,876	134,892
10,459	-10,210	284,320	134,739
11,473	-10,195	283,569	134,385
12,488	-10,162	283,158	134,210
13,502	-10,293	282,780	133,893
14,517	-10,153	282,263	133,770
15,531	-10,090	281,629	133,519
16,546	-10,219	281,440	133,293
17,561	-10,168	280,929	133,089
18,575	-10,105	280,554	132,959
19,590	-10,278	280,188	132,609
20,604	-10,167	279,932	132,582
21,619	-10,074	279,646	132,524
22,634	-10,131	279,330	132,308
23,648	-10,276	279,051	132,025
24,663	-10,238	278,742	131,903
25,677	-9,997	278,246	131,886
26,692	-10,234	278,171	131,613
27,707	-10,131	277,919	131,581
28,721	-10,255	277,583	131,292
29,736	-10,210	277,416	131,244
30,750	-10,341	277,037	130,929
31,765	-10,177	276,780	130,951
32,780	-9,900	276,551	131,092
33,794	-10,365	276,429	130,584
34,809	-10,188	276,111	130,589
35,823	-10,275	275,782	130,340
36,838	-10,160	275,477	130,292
37,853	-10,183	275,256	130,154
38,867	-10,094	274,934	130,074
39,882	-10,172	274,806	129,929
40,896	-10,256	274,623	129,752
41,911	-10,110	274,334	129,741
42,926	-10,083	274,050	129,620
43,940	-10,169	273,713	129,369
44,955	-10,293	273,615	129,195
45,969	-10,332	273,372	129,033
46,984	-10,433	273,095	128,796
47,999	-10,655	272,926	128,498
49,013	-10,800	272,556	128,178
50,028	-10,792	272,272	128,041
51,042	-11,012	272,238	127,808
52,057	-11,008	271,911	127,647
53,071	-10,807	271,613	127,683
54,086	-10,692	271,365	127,661
55,101	-10,743	271,311	127,577
56,115	-10,521	271,082	127,663
57,130	-10,032	270,938	128,035
58,144	-10,053	270,768	127,924
59,159	-9,962	270,419	127,832
60,174	-10,003	270,339	127,744
61,188	-9,967	270,032	127,621
62,203	-10,021	269,837	127,468
63,217	-10,187	269,636	127,209
64,232	-10,003	269,417	127,263
65,247	-9,995	269,063	127,092
66,261	-10,146	268,939	126,884
67,276	-10,296	268,731	126,638
68,290	-10,549	268,555	126,312
69,305	-10,492	268,117	126,147
70,320	-10,481	268,116	126,145
71,334	-10,387	267,909	126,122
72,349	-10,215	267,539	126,093
73,363	-9,990	267,316	126,182
74,378	-10,084	267,123	125,994
75,393	-10,093	266,945	125,890
76,407	-10,176	266,784	125,728
77,422	-10,018	266,544	125,747
78,436	-9,896	266,199	125,683
79,451	-9,947	266,076	125,567
80,466	-10,068	265,828	125,331
81,480	-10,225	265,521	125,033
82,495	-10,264	265,401	124,930
83,509	-10,239	265,129	124,813
84,524	-10,361	265,018	124,640
85,539	-10,153	264,713	124,673
86,553	-10,417	264,547	124,346
87,568	-10,240	264,281	124,369
88,582	-10,336	264,204	124,235
89,597	-10,240	263,907	124,170
90,611	-10,131	263,924	124,265
91,626	-9,973	263,570	124,229
92,641	-10,045	263,366	124,057
93,655	-10,045	263,254	123,993
94,670	-10,093	262,942	123,793
95,684	-10,105	262,700	123,657
96,699	-10,273	262,691	123,492
97,714	-10,306	262,382	123,306
98,728	-10,294	262,145	123,194
99,743	-10,282	261,961	123,107
100,757	-10,498	261,590	122,730
101,772	-10,316	261,504	122,841
102,787	-10,107	261,368	122,952
103,801	-10,124	261,096	122,797
104,816	-10,149	261,073	122,753
105,830	-10,209	261,008	122,658
106,845	-9,963	260,716	122,728
107,860	-10,013	260,287	122,471
108,874	-10,039	260,224	122,407
109,889	-10,174	260,136	122,236
110,903	-10,229	259,665	121,956
111,918	-10,142	259,661	122,019
112,933	-10,183	259,402	121,851
113,947	-10,197	259,337	121,797
114,962	-10,176	259,147	121,716
115,976	-10,245	258,911	121,533
116,991	-10,223	258,724	121,454
118,006	-10,028	258,609	121,560
119,020	-10,206	258,368	121,280
120,035	-10,233	258,482	121,299
121,049	-10,024	258,103	121,293
122,064	-10,012	257,886	121,191
123,079	-10,235	257,700	120,898
124,093	-10,110	257,376	120,844
125,108	-10,354	257,202	120,539
126,122	-10,693	256,917	120,100
127,137	-10,413	256,668	120,216
128,151	-10,343	256,540	120,207
129,166	-10,285	256,312	120,139
130,181	-10,353	256,196	120,015
131,195	-10,683	256,036	119,643
132,210	-10,039	255,752	120,057
133,224	-10,306	255,735	119,808
134,239	-10,142	255,606	119,878
135,254	-10,075	255,277	119,771
136,268	-10,305	255,168	119,511
137,283	-10,656	254,946	119,093
138,297	-10,429	254,609	119,121
139,312	-10,761	254,573	118,807
140,327	-10,430	254,325	118,966
141,341	-9,931	254,072	119,265
142,356	-9,948	253,994	119,204
143,370	-9,919	253,808	119,131
144,385	-9,870	253,667	119,096
145,400	-10,069	253,509	118,841
146,414	-10,007	253,289	118,780
147,429	-10,033	252,949	118,587
148,443	-10,023	252,932	118,578
149,458	-9,912	252,786	118,594
150,473	-9,879	252,443	118,450
151,487	-10,009	252,308	118,266
152,502	-9,784	252,080	118,340
153,516	-10,064	252,092	118,096
154,531	-9,835	251,770	118,130
155,546	-10,026	251,620	117,886
156,560	-10,006	251,614	117,891
157,575	-10,003	251,069	117,627
158,589	-9,929	250,942	117,619
159,604	-9,942	250,736	117,501
160,619	-9,871	250,796	117,580
161,633	-9,862	250,434	117,406
162,648	-9,839	250,378	117,389
163,662	-9,854	250,212	117,288
164,677	-9,816	250,091	117,253
165,692	-9,872	249,888	117,100
166,706	-9,937	249,777	116,983
167,721	-9,961	249,582	116,861
168,735	-9,773	249,517	116,979
169,750	-9,959	249,323	116,721
170,764	-9,809	249,144	116,753
171,779	-9,839	249,069	116,682
172,794	-9,735	248,851	116,656
173,808	-9,939	248,463	116,293
174,823	-9,904	248,147	116,165
175,837	-10,383	247,953	115,663
176,852	-10,122	248,055	115,918
177,867	-10,004	247,893	115,931
178,881	-9,878	247,759	115,963
179,896	-9,849	247,628	115,916
180,910	-9,878	247,370	115,760
181,925	-9,887	247,190	115,658
182,940	-10,005	247,061	115,489
183,954	-9,709	246,830	115,617
184,969	-9,936	246,785	115,398
185,983	-9,856	246,553	115,345
186,998	-9,955	246,500	115,228
188,013	-9,836	246,259	115,203
189,027	-9,838	245,982	115,062
190,042	-9,879	245,875	114,967
191,056	-9,975	245,649	114,772
192,071	-10,092	245,579	114,633
193,086	-9,913	245,335	114,656
194,100	-9,822	245,116	114,619
195,115	-9,890	245,046	114,520
196,129	-9,866	244,793	114,411
197,144	-10,024	244,505	114,137
198,159	-9,724	244,229	114,244
199,173	-9,813	244,152	114,125
200,188	-9,954	244,084	113,966
201,202	-10,121	243,717	113,648
202,217	-10,397	243,501	113,312
203,232	-10,676	243,562	113,101
204,246	-10,121	243,401	113,471
205,261	-9,672	243,319	113,790
206,275	-10,523	242,962	112,917
207,290	-6,193	244,588	117,221
208,304	0,786	246,775	124,030
209,319	3,537	247,294	126,551
210,334	3,911	247,194	126,797
211,348	3,951	247,419	126,934
212,363	4,371	247,121	127,117
213,377	4,541	246,946	127,155
214,392	4,314	246,756	126,859
215,407	4,316	246,803	126,873
216,421	4,236	246,573	126,678
217,436	4,514	246,330	126,770
218,450	4,310	246,351	126,603
219,465	4,208	245,955	126,304
220,480	4,083	245,818	126,120
221,494	3,721	245,757	125,781
222,509	3,918	245,456	125,777
223,523	4,099	245,267	125,817
224,538	3,663	244,933	125,279
225,553	3,802	244,888	125,357
226,567	3,905	244,767	125,368
227,582	3,922	244,648	125,310
228,596	4,011	244,629	125,361
229,611	3,616	244,239	124,829
230,626	3,552	244,159	124,725
231,640	3,659	243,896	124,667
232,655	3,657	243,834	124,622
233,669	3,694	243,666	124,555
234,684	3,654	243,404	124,378
235,699	4,048	243,394	124,680
236,713	4,258	243,309	124,796
237,728	3,773	243,122	124,297
238,742	3,611	242,864	124,023
239,757	3,549	242,714	123,886
240,772	3,677	242,513	123,875
241,786	3,885	242,540	124,046
242,801	3,684	242,130	123,663
243,815	3,688	241,937	123,557
244,830	3,879	241,928	123,694
245,844	3,814	241,839	123,586
246,859	3,550	241,673	123,277
247,874	3,582	241,420	123,164
248,888	3,616	241,254	123,094
249,903	3,635	241,147	123,044
250,917	3,876	240,973	123,138
251,932	3,997	240,850	123,161
252,947	4,010	240,688	123,078
253,961	4,061	240,418	122,969
254,976	4,017	240,220	122,822
255,990	3,864	240,245	122,701
257,005	3,588	240,133	122,413
258,020	3,697	239,739	122,289
259,034	3,580	239,746	122,188
260,049	3,628	239,763	122,224
261,063	3,603	239,305	121,960
262,078	3,493	239,293	121,854
263,093	3,841	239,146	122,045
264,107	3,896	238,990	121,999
265,122	3,713	238,742	121,716
266,136	3,727	238,787	121,740
267,151	3,930	238,622	121,805
268,166	3,979	238,166	121,600
269,180	3,667	238,038	121,277
270,195	4,166	238,181	121,734
271,209	4,298	237,927	121,698
272,224	3,855	237,655	121,199
273,239	3,655	237,355	120,877
274,253	3,529	237,276	120,727
275,268	3,828	237,228	120,927
276,282	3,983	237,164	121,005
277,297	3,847	236,762	120,683
278,312	3,759	236,722	120,582
279,326	3,771	236,714	120,577
280,341	4,009	236,442	120,614
281,355	3,839	236,416	120,457
282,370	3,873	236,269	120,398
283,384	3,841	236,187	120,321
284,399	3,691	235,799	119,995
285,414	3,594	235,609	119,812
286,428	3,759	235,655	119,953
287,443	3,776	235,491	119,872
288,457	3,821	235,420	119,861
289,472	3,875	235,204	119,782
290,487	3,843	234,998	119,641
291,501	3,836	234,696	119,472
292,516	3,539	234,648	119,206
293,530	3,439	234,469	119,026
294,545	3,636	234,501	119,185
295,560	3,710	234,272	119,116
296,574	3,582	234,012	118,873
297,589	3,718	234,028	118,977
298,603	3,937	233,886	119,063
299,618	4,013	233,807	119,072
300,633	3,986	233,566	118,917
301,647	3,864	233,427	118,741
302,662	4,406	233,418	119,145
303,676	4,365	233,213	118,998
304,691	4,109	232,981	118,671
305,706	4,476	232,818	118,861
306,720	4,235	232,821	118,666
307,735	3,975	232,532	118,308
308,749	3,867	232,432	118,163
309,764	3,653	232,180	117,861
310,779	3,545	231,965	117,658
311,793	3,610	231,825	117,627
312,808	3,491	231,716	117,470
313,822	3,579	231,571	117,453
314,837	3,498	231,386	117,287
315,852	3,576	231,249	117,266
316,866	3,644	231,193	117,279
317,881	3,866	231,184	117,434
318,895	3,856	231,006	117,325
319,910	4,015	230,865	117,365
320,925	3,663	230,618	116,961
321,939	3,317	230,323	116,537
322,954	3,784	230,306	116,873
323,968	3,923	230,231	116,930
324,983	4,078	229,946	116,893
325,997	4,057	229,842	116,814
327,012	3,525	229,705	116,331
328,027	3,411	229,383	116,071
329,041	3,788	229,543	116,427
330,056	4,630	229,512	117,039
331,070	4,627	229,292	116,913
332,085	4,343	229,008	116,544
333,100	3,923	228,998	116,211
334,114	3,826	228,788	116,021
335,129	4,197	228,599	116,195
336,143	4,271	228,418	116,148
337,158	4,183	228,401	116,063
338,173	4,147	228,170	115,908
339,187	3,858	227,980	115,584
340,202	4,148	227,717	115,658
341,216	3,848	227,827	115,478
342,231	3,568	227,603	115,144
343,246	3,708	227,483	115,178
344,260	3,998	227,326	115,306
345,275	4,241	227,205	115,416
346,289	4,145	227,049	115,255
347,304	4,266	226,999	115,309
348,319	4,130	226,843	115,118
349,333	4,189	226,617	115,038
350,348	4,210	226,386	114,925
351,362	4,034	226,219	114,700
352,377	3,971	226,015	114,539
353,392	3,680	225,779	114,193
354,406	3,805	225,817	114,294
355,421	195,609	1320,197	1396,895
356,435	156,800	1453,514	1396,883
