DTS Sentinel unit serial number:	SN410029Multiplexer serial number:	ORYXHardware model number:	OX2-SRSoftware version number:	ORYX F/W v4,00 Oryx Data Collector v3.7.2.0data status	okinstallation	B5 Nyhavnadifferential loss correction	single-endedforward channel	channel 2reverse channel	N/Adate	2023/12/12time	12:07:13forward acquisition time	300,00reverse acquisition time	0,00gamma	499,1914k internal	0,3158k external	0,3158temperature offset calibration	1,0000default loss term (dB/km)	0,3820temperature slope calibration	1,0000multiplexer offset coefficient	1,0000multiplexer slope coefficient	1,0000fibre end	0,00T internal ref (°C)	15,19T ext. ref 1 (°C)	-0,75T ext. ref 2 (°C)	-1,01length (m)	temperature (°C)	Stokes	anti-Stokes-744,400	27,061	-0,048	0,030
-743,385	-122,297	-0,386	-0,046
-742,371	-26,490	0,124	-0,053
-741,356	-178,961	-0,365	-0,006
-740,342	88,195	0,242	0,198
-739,327	-137,476	-0,294	-0,024
-738,312	169,042	-0,139	-0,146
-737,298	-175,524	-0,166	0,003
-736,283	-200,000	-0,018	0,071
-735,269	-40,895	-0,297	-0,113
-734,254	40,060	0,096	0,063
-733,239	-52,536	-0,493	-0,167
-732,225	-143,917	0,186	0,013
-731,210	110,664	-0,043	0,038
-730,196	-200,000	-0,006	-0,075
-729,181	800,000	0,037	-0,083
-728,167	22,638	-0,024	-0,014
-727,152	81,737	-0,089	0,071
-726,137	-68,352	-0,250	-0,071
-725,123	-200,000	-0,008	-0,042
-724,108	-102,247	-0,040	0,007
-723,094	292,764	-0,096	-0,129
-722,079	-200,000	0,025	0,099
-721,064	215,227	-0,027	0,032
-720,050	564,509	-0,054	0,097
-719,035	-31,794	0,064	0,026
-718,021	33,403	-0,025	0,016
-717,006	-200,000	0,005	-0,093
-715,991	414,594	-0,083	-0,131
-714,977	-200,000	-0,027	-0,098
-713,962	800,000	0,020	-0,056
-712,948	-36,161	0,117	0,046
-711,933	349,308	-0,035	-0,051
-710,918	-111,210	-0,118	0,018
-709,904	-177,564	-0,157	0,003
-708,889	800,000	-0,026	-0,070
-707,875	23,566	-0,062	0,038
-706,860	29,922	0,069	0,043
-705,845	-162,751	-0,050	-0,002
-704,831	473,634	0,039	-0,064
-703,816	-54,599	0,104	-0,034
-702,802	66,274	0,110	-0,082
-701,787	-109,410	-0,070	0,011
-700,772	291,750	0,027	-0,037
-699,758	-84,400	-0,157	-0,036
-698,743	729,820	0,077	0,152
-697,729	-200,000	0,003	0,035
-696,714	6,588	-0,114	-0,062
-695,699	-200,000	-0,007	-0,061
-694,685	-123,777	-0,036	-0,004
-693,670	800,000	-0,007	0,018
-692,656	202,560	-0,063	-0,072
-691,641	385,316	0,026	0,039
-690,627	666,808	0,039	0,075
-689,612	119,906	-0,049	0,044
-688,597	800,000	0,022	-0,057
-687,583	234,651	-0,124	-0,151
-686,568	-200,000	-0,023	-0,172
-685,554	402,820	-0,063	-0,098
-684,539	710,470	0,073	0,143
-683,524	107,467	-0,026	0,022
-682,510	-200,000	0,015	-0,190
-681,495	-200,000	0,005	-0,080
-680,481	-47,468	-0,078	0,028
-679,466	-200,000	-0,029	-0,094
-678,451	-83,756	0,137	-0,032
-677,437	-123,794	-0,166	-0,019
-676,422	25,669	0,093	-0,057
-675,408	7,184	0,110	0,060
-674,393	56,458	-0,051	0,037
-673,378	-2,572	0,138	0,071
-672,364	-200,000	0,051	-0,212
-671,349	106,725	0,065	-0,057
-670,335	708,549	-0,081	0,158
-669,320	-50,766	-0,101	0,035
-668,305	-200,000	0,018	0,197
-667,291	276,658	0,083	-0,109
-666,276	-49,997	-0,142	-0,049
-665,262	-154,513	0,093	0,004
-664,247	-200,000	-0,020	-0,192
-663,232	301,031	-0,040	-0,054
-662,218	800,000	-0,022	-0,064
-661,203	-15,893	-0,162	0,076
-660,189	505,781	-0,054	0,093
-659,174	-200,000	-0,004	0,047
-658,159	149,136	-0,097	-0,097
-657,145	306,984	0,115	0,157
-656,130	-200,000	0,010	-0,079
-655,116	38,494	0,092	0,060
-654,101	-31,952	0,165	0,067
-653,086	-129,712	-0,049	0,005
-652,072	-200,000	-0,004	0,026
-651,057	67,396	-0,124	-0,093
-650,043	-19,069	0,156	-0,071
-649,028	800,000	0,028	0,059
-648,014	-119,726	-0,066	0,008
-646,999	800,000	0,034	-0,079
-645,984	81,862	-0,102	0,081
-644,970	-200,000	-0,029	-0,103
-643,955	27,214	-0,113	0,069
-642,941	510,918	0,008	-0,014
-641,926	-182,434	-0,105	-0,001
-640,911	14,229	0,157	-0,089
-639,897	133,768	-0,056	0,053
-638,882	-200,000	0,005	-0,024
-637,868	-1,011	0,138	-0,072
-636,853	800,000	0,042	-0,122
-635,838	-52,311	0,038	0,013
-634,824	93,161	-0,054	0,044
-633,809	-200,000	-0,037	0,136
-632,795	713,769	0,057	0,112
-631,780	168,553	0,090	0,094
-630,765	444,498	-0,061	0,098
-629,751	397,902	0,028	-0,043
-628,736	-95,063	-0,087	0,017
-627,722	-76,655	0,071	-0,018
-626,707	149,252	0,008	-0,008
-625,692	170,074	-0,052	0,055
-624,678	-68,301	0,131	-0,037
-623,663	719,755	0,031	0,061
-622,649	463,591	-0,037	0,060
-621,634	-64,534	-0,105	-0,031
-620,619	-18,334	-0,086	-0,039
-619,605	-111,807	0,148	-0,022
-618,590	800,000	-0,065	0,180
-617,576	-106,474	0,020	-0,003
-616,561	65,048	-0,035	-0,026
-615,546	-86,616	0,021	-0,005
-614,532	-200,000	0,001	-0,105
-613,517	-94,270	-0,159	0,032
-612,503	502,267	0,065	-0,110
-611,488	-107,928	-0,112	0,018
-610,474	-200,000	-0,007	0,032
-609,459	94,095	0,042	0,035
-608,444	800,000	-0,061	-0,133
-607,430	196,745	0,087	-0,097
-606,415	-127,876	0,241	0,025
-605,401	-200,000	0,005	-0,106
-604,386	-200,000	0,009	0,029
-603,371	-142,773	0,058	-0,004
-602,357	-200,000	0,001	-0,051
-601,342	-147,505	-0,041	0,002
-600,328	-93,138	0,088	0,018
-599,313	-200,000	-0,030	-0,114
-598,298	18,706	-0,095	0,056
-597,284	800,000	0,028	0,074
-596,269	-127,010	0,137	0,015
-595,255	213,611	-0,059	-0,068
-594,240	-200,000	0,021	0,069
-593,225	53,936	-0,044	0,031
-592,211	800,000	-0,055	-0,123
-591,196	800,000	-0,017	-0,039
-590,182	685,978	0,042	-0,081
-589,167	7,023	0,067	-0,036
-588,152	-200,000	-0,001	-0,149
-587,138	-27,556	-0,105	-0,045
-586,123	-200,000	0,010	0,085
-585,109	19,758	-0,055	0,032
-584,094	-200,000	-0,013	-0,085
-583,079	23,213	0,037	-0,022
-582,065	101,165	0,043	0,036
-581,050	374,039	-0,020	0,030
-580,036	32,263	-0,146	-0,092
-579,021	506,196	0,081	-0,138
-578,006	-197,486	0,087	0,000
-576,992	800,000	-0,039	0,114
-575,977	-112,965	0,105	0,015
-574,963	-72,727	0,156	-0,042
-573,948	-27,256	-0,126	0,054
-572,934	-200,000	-0,010	0,138
-571,919	-53,942	-0,092	0,031
-570,904	800,000	-0,015	-0,035
-569,890	124,814	-0,045	-0,042
-568,875	214,945	0,101	-0,117
-567,861	-151,632	-0,084	0,004
-566,846	185,556	0,048	0,053
-565,831	-47,431	-0,056	-0,020
-564,817	-95,438	-0,025	0,005
-563,802	-200,000	0,018	-0,157
-562,788	36,014	0,049	-0,031
-561,773	479,047	0,032	-0,053
-560,758	800,000	0,059	0,175
-559,744	196,055	-0,008	-0,009
-558,729	800,000	0,023	0,054
-557,715	800,000	-0,049	-0,121
-556,700	129,410	-0,121	-0,113
-555,685	351,548	0,081	0,118
-554,671	93,826	0,135	-0,112
-553,656	242,780	0,062	0,076
-552,642	-200,000	-0,009	-0,074
-551,627	800,000	0,041	0,109
-550,612	22,554	-0,157	-0,094
-549,598	55,836	0,103	0,073
-548,583	283,295	-0,067	0,088
-547,569	-200,000	0,003	-0,049
-546,554	-143,211	0,174	-0,012
-545,539	800,000	0,068	-0,145
-544,525	-70,503	-0,042	-0,012
-543,510	-118,953	-0,092	0,012
-542,496	-116,797	-0,109	-0,014
-541,481	185,871	-0,102	-0,111
-540,466	2,431	0,188	-0,099
-539,452	-164,880	0,056	0,002
-538,437	359,499	-0,037	0,054
-537,423	-6,767	-0,074	0,037
-536,408	-91,728	0,076	0,016
-535,393	-114,370	-0,169	-0,023
-534,379	800,000	-0,032	-0,088
-533,364	65,442	0,053	0,039
-532,350	-118,105	0,086	-0,011
-531,335	104,858	0,145	0,125
-530,321	558,174	-0,051	-0,090
-529,306	-200,000	0,019	-0,084
-528,291	76,150	-0,149	-0,115
-527,277	157,896	0,075	-0,076
-526,262	-200,000	-0,000	-0,061
-525,248	33,245	-0,074	-0,047
-524,233	-99,129	0,131	-0,024
-523,218	-162,191	0,049	-0,002
-522,204	-124,989	0,051	0,006
-521,189	100,773	-0,113	-0,096
-520,175	674,883	0,023	-0,043
-519,160	-11,575	0,007	0,003
-518,145	-200,000	-0,021	-0,119
-517,131	295,575	0,072	-0,097
-516,116	-200,000	-0,013	0,124
-515,102	-39,871	-0,124	-0,047
-514,087	-50,198	0,035	0,012
-513,072	-132,750	-0,144	0,013
-512,058	-200,000	-0,004	-0,135
-511,043	-200,000	-0,014	0,139
-510,029	-63,999	0,070	0,021
-509,014	166,032	-0,032	-0,033
-507,999	-200,000	0,012	-0,046
-506,985	233,916	0,035	-0,042
-505,970	-94,381	-0,056	-0,011
-504,956	-144,521	-0,033	0,002
-503,941	-66,596	-0,181	-0,052
-502,926	96,295	-0,034	-0,029
-501,912	-200,000	0,008	-0,059
-500,897	800,000	0,011	-0,025
-499,883	800,000	0,013	0,029
-498,868	694,819	-0,053	-0,102
-497,853	22,031	-0,120	-0,072
-496,839	-200,000	0,020	-0,213
-495,824	61,052	0,035	-0,025
-494,810	1,946	0,158	0,083
-493,795	295,567	0,070	0,094
-492,781	10,520	-0,046	0,026
-491,766	58,614	-0,060	-0,043
-490,751	800,000	-0,018	0,050
-489,737	228,680	-0,032	0,039
-488,722	1,817	0,205	0,108
-487,708	-200,000	-0,006	0,046
-486,693	-200,000	-0,011	-0,062
-485,678	800,000	0,028	0,070
-484,664	-54,277	-0,076	0,025
-483,649	261,645	-0,020	0,025
-482,635	-200,000	-0,013	0,071
-481,620	-24,051	-0,024	0,010
-480,605	-20,887	-0,106	0,047
-479,591	-200,000	0,042	0,137
-478,576	-11,120	-0,186	-0,089
-477,562	800,000	-0,011	-0,028
-476,547	800,000	0,016	-0,037
-475,532	-111,735	-0,063	-0,009
-474,518	-200,000	-0,009	-0,065
-473,503	-200,000	0,017	-0,072
-472,489	87,230	0,069	0,056
-471,474	-200,000	-0,020	0,074
-470,459	-106,804	-0,032	-0,005
-469,445	-116,849	0,020	-0,003
-468,430	-200,000	0,015	-0,067
-467,416	11,150	0,036	-0,020
-466,401	-39,066	0,058	-0,022
-465,386	-200,000	-0,021	0,077
-464,372	-108,925	0,155	-0,024
-463,357	43,469	-0,155	-0,103
-462,343	365,938	-0,032	0,047
-461,328	-200,000	0,009	-0,082
-460,313	-49,147	-0,068	-0,024
-459,299	-200,000	-0,030	0,145
-458,284	665,820	-0,018	-0,034
-457,270	-90,584	0,134	-0,028
-456,255	256,960	-0,059	-0,073
-455,241	-100,661	0,057	0,010
-454,226	800,000	0,044	0,115
-453,211	-200,000	0,006	0,178
-452,197	-134,384	0,056	0,005
-451,182	481,130	-0,036	-0,060
-450,168	-79,965	0,029	0,007
-449,153	614,994	-0,026	-0,048
-448,138	757,513	-0,060	-0,119
-447,124	-200,000	-0,023	-0,160
-446,109	800,000	0,009	-0,025
-445,095	316,786	0,061	-0,085
-444,080	-17,845	-0,022	0,010
-443,065	800,000	0,016	-0,041
-442,051	-14,959	0,104	0,048
-441,036	258,056	-0,096	0,121
-440,022	-200,000	-0,000	-0,083
-439,007	-28,231	-0,083	-0,035
-437,992	82,160	-0,073	-0,057
-436,978	-200,000	-0,042	-0,158
-435,963	382,454	0,036	-0,054
-434,949	230,075	0,123	0,147
-433,934	0,064	-0,109	0,056
-432,919	-200,000	0,015	-0,076
-431,905	-200,000	0,009	-0,153
-430,890	-8,012	0,061	0,030
-429,876	362,158	0,044	0,065
-428,861	-200,000	0,012	0,081
-427,846	-122,697	-0,026	-0,003
-426,832	-200,000	0,010	-0,085
-425,817	-83,286	-0,037	0,009
-424,803	702,910	0,066	0,128
-423,788	-93,610	-0,075	0,015
-422,773	148,123	-0,124	-0,122
-421,759	-200,000	0,017	0,076
-420,744	-60,430	0,103	-0,032
-419,730	695,412	-0,057	-0,110
-418,715	800,000	0,034	0,096
-417,701	137,737	-0,053	0,050
-416,686	-68,605	0,040	0,011
-415,671	584,623	0,035	0,063
-414,657	617,629	-0,074	0,136
-413,642	-200,000	-0,026	0,145
-412,628	-121,554	0,080	0,010
-411,613	-159,261	-0,039	0,002
-410,598	172,789	0,024	0,025
-409,584	5,587	-0,066	0,035
-408,569	-200,000	0,017	0,095
-407,555	28,229	-0,065	0,040
-406,540	-1,041	0,023	-0,012
-405,525	141,560	-0,098	-0,094
-404,511	148,493	-0,011	-0,011
-403,496	800,000	0,007	0,018
-402,482	-200,000	-0,020	0,113
-401,467	-131,701	0,092	-0,009
-400,452	-58,074	-0,104	-0,033
-399,438	54,042	-0,128	0,089
-398,423	800,000	0,005	-0,014
-397,409	-5,704	-0,240	0,119
-396,394	-68,616	-0,063	0,018
-395,379	13,336	-0,043	0,024
-394,365	-200,000	0,002	-0,081
-393,350	-200,000	0,013	0,150
-392,336	633,133	0,016	0,030
-391,321	800,000	-0,019	-0,040
-390,306	-107,026	0,145	0,023
-389,292	121,656	-0,073	0,067
-388,277	131,941	0,068	-0,064
-387,263	84,245	0,109	0,086
-386,248	800,000	0,024	0,066
-385,233	243,177	-0,053	0,064
-384,219	-78,328	0,086	-0,021
-383,204	54,002	0,102	-0,071
-382,190	44,291	0,068	0,045
-381,175	-34,953	0,027	-0,011
-380,160	-200,000	0,010	0,115
-379,146	117,344	0,150	0,134
-378,131	70,321	0,098	-0,073
-377,117	-161,579	0,013	0,000
-376,102	280,274	-0,067	-0,088
-375,088	793,675	-0,061	0,124
-374,073	203,492	0,076	-0,086
-373,058	142,932	0,050	-0,048
-372,044	800,000	-0,058	0,120
-371,029	-11,753	0,102	-0,049
-370,015	762,329	0,027	-0,054
-369,000	694,128	-0,043	-0,082
-367,985	243,448	0,044	0,054
-366,971	-28,848	0,099	-0,041
-365,956	321,131	-0,032	-0,045
-364,942	-200,000	0,006	0,149
-363,927	-37,164	0,038	-0,015
-362,912	90,299	-0,095	-0,077
-361,898	-12,188	0,066	-0,031
-360,883	-200,000	0,024	-0,149
-359,869	39,853	-0,040	-0,026
-358,854	313,899	0,083	0,113
-357,839	800,000	0,030	0,081
-356,825	473,411	-0,057	0,094
-355,810	320,386	-0,061	0,084
-354,796	800,000	-0,052	0,110
-353,781	-65,374	-0,137	0,040
-352,766	162,315	0,073	0,075
-351,752	-200,000	-0,023	0,151
-350,737	16,267	0,031	-0,018
-349,723	-200,000	0,019	0,085
-348,708	800,000	0,089	0,185
-347,693	-200,000	-0,011	-0,080
-346,679	222,982	-0,066	0,078
-345,664	251,836	-0,078	-0,096
-344,650	738,979	-0,037	0,072
-343,635	-76,042	0,107	0,027
-342,620	800,000	-0,056	0,161
-341,606	-200,000	-0,016	-0,069
-340,591	800,000	0,037	-0,077
-339,577	298,399	0,099	0,132
-338,562	800,000	-0,025	-0,052
-337,548	-12,945	0,057	0,027
-336,533	-73,069	-0,048	-0,013
-335,518	800,000	-0,045	0,141
-334,504	-95,382	-0,076	-0,015
-333,489	-41,238	0,034	-0,013
-332,475	70,956	0,056	0,042
-331,460	800,000	-0,038	0,094
-330,445	800,000	0,014	0,044
-329,431	-200,000	-0,012	-0,048
-328,416	56,646	-0,031	0,022
-327,402	-200,000	-0,017	0,067
-326,387	153,129	-0,040	-0,040
-325,372	800,000	0,045	0,117
-324,358	-28,256	0,064	0,027
-323,343	423,773	0,053	-0,084
-322,329	151,310	0,082	0,081
-321,314	-79,934	0,120	0,029
-320,299	-45,145	-0,065	-0,023
-319,285	42,820	0,137	0,090
-318,270	99,374	-0,085	-0,071
-317,256	80,371	0,083	0,064
-316,241	-200,000	-0,001	0,024
-315,226	87,172	0,023	-0,018
-314,212	-143,399	-0,015	-0,001
-313,197	-200,000	-0,014	-0,136
-312,183	111,482	-0,049	0,043
-311,168	371,213	-0,013	-0,020
-310,153	-200,000	0,018	-0,083
-309,139	245,161	0,094	-0,115
-308,124	330,633	-0,082	-0,114
-307,110	11,889	0,090	-0,050
-306,095	202,604	0,028	-0,032
-305,080	64,948	0,045	0,033
-304,066	-200,000	-0,033	0,143
-303,051	-85,786	0,024	-0,005
-302,037	160,255	0,007	0,007
-301,022	-200,000	-0,023	-0,082
-300,008	-27,432	-0,062	0,026
-298,993	233,686	0,018	0,022
-297,978	800,000	0,047	-0,108
-296,964	-31,849	0,078	0,032
-295,949	-200,000	0,003	-0,031
-294,935	-200,000	-0,041	-0,167
-293,920	-110,905	0,074	-0,011
-292,905	277,785	0,020	0,026
-291,891	-200,000	0,018	0,120
-290,876	-146,331	-0,147	0,009
-289,862	800,000	-0,059	-0,177
-288,847	-64,400	-0,051	-0,015
-287,832	-200,000	-0,035	-0,120
-286,818	6,668	-0,076	-0,041
-285,803	0,988	0,166	-0,086
-284,789	0,090	0,022	0,011
-283,774	-200,000	0,005	0,035
-282,759	-4,072	-0,165	-0,082
-281,745	-94,672	0,108	0,021
-280,730	49,676	-0,114	-0,078
-279,716	169,814	0,053	-0,055
-278,701	185,656	0,108	0,116
-277,686	165,772	-0,023	-0,024
-276,672	12,979	0,147	0,082
-275,657	-200,000	-0,009	0,035
-274,643	-125,502	-0,172	0,019
-273,628	800,000	0,037	0,086
-272,613	800,000	-0,036	-0,105
-271,599	-55,262	-0,044	0,014
-270,584	-200,000	0,025	-0,116
-269,570	-200,000	0,002	-0,049
-268,555	-1,028	0,071	-0,036
-267,540	-200,000	-0,022	-0,092
-266,526	-113,614	0,058	0,008
-265,511	-130,225	-0,122	-0,012
-264,497	455,799	0,046	0,075
-263,482	-2,817	0,153	0,077
-262,467	182,284	-0,090	0,097
-261,453	53,492	0,122	-0,084
-260,438	487,453	-0,032	-0,052
-259,424	-164,774	0,053	0,002
-258,409	70,305	0,114	-0,085
-257,395	-200,000	-0,016	-0,055
-256,380	-138,098	0,050	-0,004
-255,365	800,000	0,040	0,122
-254,351	-200,000	-0,021	0,154
-253,336	80,839	0,057	-0,044
-252,322	188,712	0,120	-0,130
-251,307	292,812	-0,068	-0,090
-250,292	-200,000	0,012	-0,057
-249,278	800,000	-0,059	-0,142
-248,263	800,000	-0,055	-0,119
-247,249	137,237	-0,077	0,073
-246,234	-128,650	0,067	-0,007
-245,219	105,040	-0,020	0,017
-244,205	800,000	-0,049	-0,116
-243,190	30,144	0,045	-0,028
-242,176	-59,305	-0,094	-0,029
-241,161	800,000	0,047	0,140
-240,146	471,209	-0,068	0,112
-239,132	-200,000	-0,025	0,152
-238,117	-77,921	0,093	-0,023
-237,103	-200,000	0,009	-0,034
-236,088	-35,447	-0,109	-0,043
-235,073	-200,000	0,012	0,084
-234,059	-85,527	-0,041	0,009
-233,044	-111,089	0,042	0,006
-232,030	-200,000	0,005	0,102
-231,015	-73,167	-0,118	0,031
-230,000	-200,000	-0,002	0,008
-228,986	-200,000	-0,011	-0,097
-227,971	-50,030	-0,060	-0,021
-226,957	586,241	0,040	-0,071
-225,942	22,597	0,075	-0,044
-224,927	-139,633	0,152	0,012
-223,913	41,983	-0,093	0,061
-222,898	800,000	0,018	0,054
-221,884	-44,135	-0,052	0,019
-220,869	222,893	-0,024	-0,028
-219,855	-200,000	0,005	-0,044
-218,840	140,072	-0,081	0,077
-217,825	263,336	-0,052	-0,065
-216,811	-200,000	-0,015	-0,092
-215,796	800,000	-0,037	-0,082
-214,782	103,474	0,007	0,006
-213,767	800,000	-0,024	0,053
-212,752	172,941	-0,022	0,023
-211,738	-118,030	-0,053	0,007
-210,723	588,129	0,039	0,069
-209,709	240,929	0,074	-0,089
-208,694	67,715	0,062	-0,046
-207,679	133,105	-0,077	-0,072
-206,665	280,951	0,049	-0,063
-205,650	38,037	0,073	0,047
-204,636	423,709	0,051	0,079
-203,621	-104,620	-0,163	0,027
-202,606	120,512	0,062	0,056
-201,592	800,000	-0,049	0,126
-200,577	800,000	0,035	0,081
-199,563	-200,000	0,021	0,145
-198,548	149,916	-0,076	-0,074
-197,533	-200,000	-0,014	0,068
-196,519	-35,283	-0,114	-0,044
-195,504	-200,000	-0,018	0,061
-194,490	604,942	-0,101	-0,182
-193,475	28,927	-0,027	0,016
-192,460	25,023	0,079	-0,047
-191,446	183,318	0,019	0,020
-190,431	-137,875	0,063	-0,005
-189,417	-200,000	-0,030	0,181
-188,402	-200,000	0,049	0,176
-187,387	-200,000	-0,001	-0,121
-186,373	800,000	0,045	0,094
-185,358	137,271	-0,047	-0,045
-184,344	503,582	0,018	-0,030
-183,329	439,208	0,095	0,149
-182,315	6,530	0,080	-0,043
-181,300	169,587	-0,057	0,059
-180,285	-91,483	-0,140	0,028
-179,271	43,036	-0,035	0,023
-178,256	-122,683	-0,047	-0,005
-177,242	529,572	0,054	0,093
-176,227	-172,588	0,104	-0,002
-175,212	-9,940	-0,059	0,028
-174,198	-200,000	0,001	0,025
-173,183	-1,028	-0,069	0,035
-172,169	431,855	0,029	0,046
-171,154	-87,638	-0,120	-0,026
-170,139	63,725	0,145	0,105
-169,125	-34,023	0,116	0,046
-168,110	202,838	0,139	0,155
-167,096	137,347	0,045	-0,042
-166,081	-13,616	-0,134	-0,062
-165,066	32,311	-0,023	-0,014
-164,052	-200,000	0,009	-0,036
-163,037	89,624	0,025	0,020
-162,023	140,821	-0,061	-0,058
-161,008	129,165	-0,059	0,054
-159,993	151,113	0,030	0,029
-158,979	800,000	-0,041	-0,088
-157,964	-62,339	-0,063	0,019
-156,950	-101,303	-0,116	-0,020
-155,935	-115,083	-0,178	-0,024
-154,920	-200,000	0,047	-0,153
-153,906	76,162	0,129	0,098
-152,891	37,932	0,003	0,002
-151,877	-200,000	-0,025	-0,142
-150,862	800,000	0,030	0,093
-149,847	-87,512	0,122	0,026
-148,833	-123,121	-0,077	-0,009
-147,818	211,637	-0,040	0,046
-146,804	-97,605	0,068	0,013
-145,789	-149,438	-0,072	0,004
-144,775	-42,218	-0,148	0,054
-143,760	102,382	-0,055	0,046
-142,745	800,000	-0,048	0,098
-141,731	800,000	-0,047	-0,133
-140,716	800,000	0,022	-0,049
-139,702	78,126	-0,108	0,083
-138,687	-52,276	-0,158	0,053
-137,672	-42,537	0,029	0,011
-136,658	310,784	0,014	-0,019
-135,643	638,474	-0,057	-0,104
-134,629	129,527	-0,023	-0,021
-133,614	149,653	0,010	0,010
-132,599	62,335	0,102	-0,073
-131,585	24,689	0,099	0,059
-130,570	72,742	-0,031	0,023
-129,556	11,330	-0,087	0,048
-128,541	-52,501	0,042	0,014
-127,526	-128,589	-0,109	0,011
-126,512	468,726	0,023	-0,037
-125,497	490,445	0,057	0,095
-124,483	-66,286	0,169	0,048
-123,468	27,292	0,066	-0,040
-122,453	172,902	-0,119	-0,124
-121,439	79,288	0,036	-0,027
-120,424	-200,000	-0,037	0,127
-119,410	-101,431	0,214	-0,037
-118,395	-200,000	0,009	-0,092
-117,380	32,797	-0,117	-0,072
-116,366	-119,705	0,110	-0,013
-115,351	142,599	0,052	0,050
-114,337	56,514	-0,074	-0,052
-113,322	800,000	0,006	0,017
-112,307	-200,000	-0,016	-0,056
-111,293	683,050	0,046	-0,086
-110,278	-200,000	-0,002	0,016
-109,264	800,000	0,010	-0,024
-108,249	800,000	0,036	-0,083
-107,234	-200,000	-0,028	-0,110
-106,220	147,821	-0,066	0,064
-105,205	-200,000	-0,002	0,147
-104,191	154,475	0,100	0,099
-103,176	-64,191	-0,093	0,027
-102,162	-200,000	-0,053	0,184
-101,147	-18,361	0,115	0,051
-100,132	-2,698	-0,097	-0,048
-99,118	-48,561	-0,212	0,073
-98,103	90,768	-0,064	0,052
-97,089	106,834	-0,106	0,091
-96,074	800,000	0,042	0,087
-95,059	-95,508	-0,097	0,019
-94,045	-99,237	-0,025	0,004
-93,030	68,379	-0,037	-0,027
-92,016	-189,143	0,037	-0,000
-91,001	87,537	-0,025	0,020
-89,986	-39,784	0,040	-0,015
-88,972	-130,258	0,182	0,018
-87,957	189,205	-0,136	0,146
-86,943	60,187	0,089	-0,063
-85,928	367,279	-0,035	-0,051
-84,913	799,092	0,117	-0,232
-83,899	35,769	0,029	-0,018
-82,884	211,636	-0,050	0,057
-81,870	37,619	-0,037	0,023
-80,855	33,240	-0,078	0,048
-79,840	194,037	0,065	-0,070
-78,826	24,870	-0,105	-0,062
-77,811	462,133	-0,008	-0,013
-76,797	-28,485	-0,051	-0,021
-75,782	141,219	0,110	-0,105
-74,767	-27,421	-0,126	0,053
-73,753	86,669	-0,071	0,056
-72,738	-55,171	-0,072	0,023
-71,724	12,188	0,166	-0,091
-70,709	-200,000	0,009	-0,070
-69,694	-64,386	0,046	0,013
-68,680	103,723	-0,041	-0,035
-67,665	-200,000	-0,011	0,113
-66,651	-157,406	0,124	0,005
-65,636	484,800	-0,047	0,076
-64,622	-200,000	-0,017	0,062
-63,607	800,000	0,081	-0,166
-62,592	-115,523	0,063	-0,008
-61,578	517,532	-0,062	-0,104
-60,563	113,637	0,079	0,069
-59,549	244,720	-0,022	0,027
-58,534	-3,794	-1,967	-0,977
-57,519	-200,000	-0,218	-0,936
-56,505	-200,000	-1,277	-5,085
-55,490	11,670	0,884	0,485
-54,476	800,000	5,306	12,145
-53,461	-200,000	17,587	283,742
-52,446	800,000	727,470	2216,463
-51,432	536,162	1643,335	2809,436
-50,417	110,021	1634,099	1406,813
-49,403	75,822	1286,484	974,761
-48,388	32,000	1027,343	633,834
-47,373	20,157	989,094	571,207
-46,359	18,448	976,828	558,504
-45,344	15,611	972,792	546,898
-44,330	15,822	971,398	546,782
-43,315	15,286	969,616	544,007
-42,300	15,223	968,362	543,076
-41,286	15,203	967,459	542,485
-40,271	15,221	966,508	541,989
-39,257	15,225	965,618	541,482
-38,242	15,193	964,724	540,853
-37,227	15,300	963,783	540,653
-36,213	15,169	963,140	539,845
-35,198	15,133	962,356	539,267
-34,184	15,201	961,525	539,002
-33,169	15,186	960,541	538,381
-32,154	15,248	959,616	538,041
-31,140	15,233	958,613	537,408
-30,125	15,311	957,786	537,172
-29,111	15,276	956,898	536,542
-28,096	15,207	956,739	536,208
-27,082	15,240	955,765	535,750
-26,067	15,222	955,055	535,270
-25,052	15,264	954,086	534,841
-24,038	15,235	953,757	534,543
-23,023	15,199	952,961	533,961
-22,009	15,204	952,277	533,572
-20,994	15,231	951,678	533,302
-19,979	15,210	951,031	532,850
-18,965	15,222	950,433	532,533
-17,950	15,239	949,796	532,211
-16,936	15,175	949,260	531,683
-15,921	15,195	948,400	531,243
-14,906	15,162	947,738	530,748
-13,892	15,101	947,112	530,182
-12,877	15,126	946,395	529,839
-11,863	15,036	945,787	529,192
-10,848	15,093	945,285	529,069
-9,833	15,194	944,901	529,155
-8,819	15,154	944,276	528,659
-7,804	15,112	943,679	528,167
-6,790	15,150	942,942	527,857
-5,775	15,179	942,620	527,746
-4,760	15,101	941,801	527,019
-3,746	15,138	941,158	526,757
-2,731	15,049	940,439	526,052
-1,717	15,036	939,760	525,609
-0,702	15,019	939,087	525,160
0,313	14,791	938,307	524,797
1,327	18,167	936,366	534,292
2,342	27,377	793,625	477,217
3,356	24,321	458,805	271,192
4,371	-2,904	314,271	156,854
5,386	-6,937	296,029	143,659
6,400	-9,119	290,098	138,604
7,415	-9,400	287,665	137,152
8,429	-9,865	285,971	135,878
9,444	-9,666	284,902	135,552
10,459	-9,700	284,330	135,234
11,473	-9,787	283,736	134,856
12,488	-9,689	283,139	134,654
13,502	-9,749	282,705	134,378
14,517	-9,805	282,292	134,116
15,531	-9,792	281,728	133,849
16,546	-9,943	281,538	133,601
17,561	-9,735	280,928	133,499
18,575	-9,867	280,852	133,325
19,590	-9,885	280,259	133,014
20,604	-9,648	279,976	133,095
21,619	-9,970	279,699	132,643
22,634	-9,800	279,318	132,613
23,648	-9,907	279,005	132,351
24,663	-9,884	278,671	132,202
25,677	-9,901	278,555	132,119
26,692	-9,758	278,142	132,048
27,707	-9,893	278,075	131,875
28,721	-9,866	277,666	131,695
29,736	-9,829	277,150	131,474
30,750	-9,992	277,146	131,305
31,765	-9,977	276,919	131,201
32,780	-9,888	276,622	131,133
33,794	-9,870	276,404	131,035
34,809	-9,857	276,172	130,925
35,823	-9,848	275,901	130,794
36,838	-10,106	275,694	130,441
37,853	-9,993	275,466	130,428
38,867	-9,818	275,082	130,398
39,882	-9,847	274,949	130,297
40,896	-9,836	274,679	130,168
41,911	-9,997	274,521	129,930
42,926	-9,980	274,381	129,868
43,940	-9,938	273,975	129,703
44,955	-10,048	273,820	129,516
45,969	-10,157	273,474	129,239
46,984	-10,384	273,339	128,952
47,999	-10,628	273,134	128,617
49,013	-10,433	272,569	128,521
50,028	-10,576	272,331	128,264
51,042	-10,727	272,118	128,012
52,057	-10,743	271,825	127,847
53,071	-10,766	271,644	127,730
54,086	-10,412	271,588	128,020
55,101	-10,503	271,288	127,783
56,115	-10,250	271,441	128,078
57,130	-9,647	271,004	128,418
58,144	-9,663	270,845	128,316
59,159	-9,738	270,752	128,191
60,174	-9,652	270,411	128,097
61,188	-9,789	270,108	127,816
62,203	-9,771	270,062	127,799
63,217	-9,811	269,782	127,619
64,232	-9,858	269,580	127,469
65,247	-9,701	269,321	127,479
66,261	-9,754	269,091	127,310
67,276	-10,018	268,832	126,935
68,290	-10,166	268,785	126,766
69,305	-10,166	268,417	126,581
70,320	-9,823	268,031	126,701
71,334	-9,995	268,008	126,522
72,349	-9,721	267,828	126,675
73,363	-9,832	267,535	126,424
74,378	-9,873	267,370	126,298
75,393	-9,735	267,134	126,300
76,407	-9,938	266,815	125,954
77,422	-10,023	266,769	125,843
78,436	-9,607	266,557	126,109
79,451	-9,701	266,172	125,831
80,466	-9,819	266,030	125,646
81,480	-9,990	265,814	125,378
82,495	-10,091	265,553	125,153
83,509	-9,793	265,422	125,349
84,524	-10,028	265,233	125,037
85,539	-10,153	264,827	124,721
86,553	-10,192	264,780	124,653
87,568	-10,099	264,488	124,588
88,582	-9,973	264,253	124,580
89,597	-9,991	264,139	124,498
90,611	-9,820	264,058	124,603
91,626	-9,720	263,820	124,569
92,641	-9,813	263,562	124,352
93,655	-9,736	263,315	124,294
94,670	-9,783	263,302	124,234
95,684	-9,870	262,874	123,944
96,699	-9,835	262,811	123,935
97,714	-9,813	262,509	123,801
98,728	-10,043	262,373	123,520
99,743	-10,212	262,005	123,186
100,757	-10,239	261,849	123,078
101,772	-10,153	261,722	123,083
102,787	-10,069	261,536	123,059
103,801	-9,925	261,410	123,116
104,816	-10,009	261,174	122,920
105,830	-9,765	261,040	123,062
106,845	-9,841	260,937	122,935
107,860	-9,845	260,808	122,860
108,874	-9,696	260,251	122,718
109,889	-9,592	260,199	122,774
110,903	-9,826	260,033	122,479
111,918	-9,802	259,907	122,430
112,933	-9,890	259,677	122,233
113,947	-9,585	259,547	122,429
114,962	-9,642	259,339	122,270
115,976	-9,747	258,944	121,981
116,991	-9,977	258,984	121,787
118,006	-9,788	258,813	121,862
119,020	-9,890	258,785	121,748
120,035	-9,673	258,446	121,767
121,049	-9,734	258,240	121,606
122,064	-9,900	258,096	121,382
123,079	-9,803	257,861	121,346
124,093	-9,785	257,661	121,257
125,108	-9,905	257,289	120,967
126,122	-10,160	257,143	120,665
127,137	-10,320	256,849	120,377
128,151	-10,057	256,791	120,568
129,166	-9,900	256,632	120,619
130,181	-10,060	256,500	120,408
131,195	-10,186	256,183	120,139
132,210	-9,896	256,005	120,295
133,224	-9,663	255,966	120,468
134,239	-9,705	255,853	120,368
135,254	-9,945	255,634	120,047
136,268	-9,742	255,376	120,090
137,283	-10,016	255,061	119,694
138,297	-10,161	254,706	119,392
139,312	-10,190	254,533	119,276
140,327	-9,962	254,626	119,506
141,341	-9,702	254,450	119,636
142,356	-9,726	254,384	119,574
143,370	-9,615	254,177	119,561
144,385	-9,631	253,909	119,410
145,400	-9,451	253,700	119,456
146,414	-9,533	253,516	119,288
147,429	-9,596	253,188	119,069
148,443	-9,430	252,926	119,077
149,458	-9,532	252,902	118,968
150,473	-9,445	252,776	118,973
151,487	-9,668	252,645	118,710
152,502	-9,451	252,381	118,760
153,516	-9,708	252,276	118,481
154,531	-9,565	251,973	118,451
155,546	-9,555	251,792	118,364
156,560	-9,682	251,669	118,187
157,575	-9,762	251,524	118,040
158,589	-9,341	251,333	118,298
159,604	-9,599	251,038	117,929
160,619	-9,631	250,825	117,792
161,633	-9,641	250,692	117,710
162,648	-9,436	250,551	117,807
163,662	-9,611	250,459	117,606
164,677	-9,348	250,337	117,760
165,692	-9,507	250,150	117,527
166,706	-9,579	250,019	117,395
167,721	-9,521	249,812	117,336
168,735	-9,556	249,608	117,200
169,750	-9,484	249,606	117,248
170,764	-9,485	249,309	117,098
171,779	-9,508	249,136	116,987
172,794	-9,465	249,096	116,994
173,808	-9,504	248,711	116,770
174,823	-9,883	248,368	116,282
175,837	-10,055	248,110	116,006
176,852	-9,691	248,176	116,331
177,867	-9,327	248,155	116,615
178,881	-9,584	248,095	116,362
179,896	-9,679	247,869	116,166
180,910	-9,428	247,706	116,289
181,925	-9,541	247,512	116,093
182,940	-9,494	247,271	116,009
183,954	-9,528	247,172	115,924
184,969	-9,600	247,041	115,792
185,983	-9,493	246,859	115,785
186,998	-9,490	246,699	115,703
188,013	-9,405	246,438	115,640
189,027	-9,357	246,348	115,628
190,042	-9,370	246,015	115,450
191,056	-9,406	245,968	115,389
192,071	-9,303	245,697	115,336
193,086	-9,308	245,553	115,254
194,100	-9,300	245,427	115,191
195,115	-9,334	245,211	115,051
196,129	-9,619	245,037	114,725
197,144	-9,720	244,998	114,613
198,159	-9,397	244,630	114,696
199,173	-9,308	244,627	114,758
200,188	-9,358	244,370	114,586
201,202	-9,803	244,217	114,138
202,217	-9,817	243,798	113,921
203,232	-10,077	243,589	113,600
204,246	-9,648	243,604	113,948
205,261	-8,846	243,553	114,571
206,275	-9,429	243,329	113,979
207,290	-5,314	244,955	118,116
208,304	0,927	246,937	124,222
209,319	3,698	247,427	126,747
210,334	4,123	247,543	127,147
211,348	4,238	247,469	127,192
212,363	4,505	247,352	127,341
213,377	4,562	247,216	127,306
214,392	4,439	247,074	127,120
215,407	4,174	246,845	126,774
216,421	4,310	246,687	126,793
217,436	4,575	246,596	126,952
218,450	4,733	246,430	126,985
219,465	4,079	246,319	126,380
220,480	4,213	246,047	126,340
221,494	4,113	245,970	126,206
222,509	4,164	245,643	126,069
223,523	4,027	245,536	125,891
224,538	3,729	245,332	125,532
225,553	3,923	244,927	125,471
226,567	4,241	244,864	125,687
227,582	4,281	244,787	125,669
228,596	4,197	244,633	125,510
229,611	3,718	244,458	125,019
230,626	3,578	244,349	124,839
231,640	3,765	244,182	124,894
232,655	3,911	243,872	124,844
233,669	3,862	243,815	124,763
234,684	3,610	243,535	124,404
235,699	4,151	243,523	124,826
236,713	4,168	243,377	124,753
237,728	3,952	243,174	124,464
238,742	3,581	242,956	124,041
239,757	3,696	242,790	124,039
240,772	3,923	242,569	124,098
241,786	3,918	242,504	124,049
242,801	3,677	242,266	123,722
243,815	3,704	242,233	123,716
244,830	3,886	242,145	123,806
245,844	4,049	241,993	123,849
246,859	3,895	241,725	123,577
247,874	3,541	241,720	123,279
248,888	3,930	241,366	123,399
249,903	4,133	241,259	123,496
250,917	4,094	241,234	123,441
251,932	4,204	241,033	123,415
252,947	4,094	240,834	123,215
253,961	3,688	240,666	122,793
254,976	4,180	240,373	123,026
255,990	4,133	240,370	122,975
257,005	3,742	240,250	122,591
258,020	3,761	240,003	122,470
259,034	3,724	239,983	122,419
260,049	3,945	239,796	122,488
261,063	3,718	239,611	122,202
262,078	3,850	239,396	122,186
263,093	4,315	239,276	122,484
264,107	4,100	239,284	122,306
265,122	3,934	238,894	121,964
266,136	3,970	238,855	121,962
267,151	4,098	238,839	122,045
268,166	3,971	238,566	121,794
269,180	3,781	238,306	121,500
270,195	4,335	238,408	121,979
271,209	4,445	238,262	121,980
272,224	3,974	237,900	121,412
273,239	3,644	237,643	121,011
274,253	3,926	237,485	121,141
275,268	3,870	237,520	121,104
276,282	4,096	237,090	121,052
277,297	3,615	237,149	120,693
278,312	3,797	236,999	120,749
279,326	4,138	236,729	120,868
280,341	3,914	236,705	120,669
281,355	3,869	236,661	120,601
282,370	4,036	236,409	120,593
283,384	3,939	236,244	120,422
284,399	3,580	236,160	120,088
285,414	3,874	235,910	120,179
286,428	3,645	235,879	119,974
287,443	4,025	235,683	120,160
288,457	3,934	235,587	120,029
289,472	4,081	235,371	120,023
290,487	3,820	235,242	119,743
291,501	3,724	235,003	119,537
292,516	3,577	234,808	119,313
293,530	3,277	234,760	119,044
294,545	3,849	234,672	119,433
295,560	3,849	234,445	119,307
296,574	3,733	234,296	119,131
297,589	3,767	234,159	119,076
298,603	4,178	234,067	119,338
299,618	4,131	234,045	119,279
300,633	3,909	233,869	119,007
301,647	4,002	233,758	119,012
302,662	4,422	233,609	119,250
303,676	4,249	233,423	119,011
304,691	4,069	233,371	118,835
305,706	4,407	232,984	118,888
306,720	4,519	232,876	118,909
307,735	4,123	232,773	118,541
308,749	3,952	232,510	118,265
309,764	3,806	232,245	118,007
310,779	3,577	232,168	117,781
311,793	3,823	231,795	117,770
312,808	3,543	231,735	117,515
313,822	3,610	231,732	117,554
314,837	3,716	231,546	117,530
315,852	3,671	231,327	117,375
316,866	3,846	231,311	117,490
317,881	4,134	231,173	117,629
318,895	3,961	230,942	117,368
319,910	3,802	230,913	117,223
320,925	3,792	230,739	117,116
321,939	4,048	230,718	117,290
322,954	4,040	230,743	117,286
323,968	4,081	230,438	117,152
324,983	3,857	230,158	116,829
325,997	3,625	230,010	116,567
327,012	3,879	229,952	116,720
328,027	4,073	229,734	116,746
329,041	4,382	229,741	116,974
330,056	4,824	229,653	117,253
331,070	4,576	229,499	116,976
332,085	4,277	229,312	116,644
333,100	4,151	229,061	116,411
334,114	4,191	228,787	116,292
335,129	4,337	228,929	116,464
336,143	4,457	228,860	116,509
337,158	4,425	228,529	116,306
338,173	4,076	228,368	115,951
339,187	3,971	228,186	115,768
340,202	4,124	228,042	115,800
341,216	4,168	227,990	115,797
342,231	4,018	227,782	115,568
343,246	3,993	227,558	115,426
344,260	3,937	227,596	115,393
345,275	4,020	227,506	115,398
346,289	4,186	227,295	115,406
347,304	4,443	227,012	115,444
348,319	4,284	227,175	115,398
349,333	4,133	226,691	115,029
350,348	4,128	226,575	114,956
351,362	4,256	226,522	115,015
352,377	4,045	226,383	114,777
353,392	3,764	226,044	114,385
354,406	3,842	226,009	114,415
355,421	194,867	1322,676	1397,104
356,435	156,167	1456,281	1397,094
