DTS Sentinel unit serial number:	SN410029Multiplexer serial number:	ORYXHardware model number:	OX2-SRSoftware version number:	ORYX F/W v4,00 Oryx Data Collector v3.7.2.0data status	okinstallation	B6 Nyhavnadifferential loss correction	single-endedforward channel	channel 2reverse channel	N/Adate	2023/12/10time	08:15:08forward acquisition time	300,00reverse acquisition time	0,00gamma	499,1914k internal	0,3123k external	0,3123temperature offset calibration	1,0000default loss term (dB/km)	0,3820temperature slope calibration	1,0000multiplexer offset coefficient	1,0000multiplexer slope coefficient	1,0000fibre end	0,00T internal ref (°C)	22,57T ext. ref 1 (°C)	6,33T ext. ref 2 (°C)	6,33length (m)	temperature (°C)	Stokes	anti-Stokes-744,400	-55,360	0,068	-0,023
-743,385	243,785	-0,104	0,130
-742,371	-43,793	0,081	-0,030
-741,356	800,000	-0,090	0,217
-740,342	-7,965	0,051	-0,025
-739,327	-72,434	-0,357	0,098
-738,312	472,603	0,082	-0,139
-737,298	-16,210	-0,247	0,116
-736,283	116,832	0,059	-0,054
-735,269	22,975	-0,257	0,157
-734,254	54,060	0,037	0,026
-733,239	-91,915	-0,475	0,099
-732,225	97,852	0,099	-0,085
-731,210	755,733	0,029	0,058
-730,196	800,000	-0,011	0,026
-729,181	-200,000	0,022	-0,074
-728,167	21,420	0,093	-0,056
-727,152	156,277	-0,069	0,070
-726,137	260,119	-0,052	-0,067
-725,123	800,000	-0,057	0,169
-724,108	569,705	-0,100	-0,182
-723,094	245,519	0,046	-0,058
-722,079	73,222	-0,034	0,027
-721,064	-200,000	-0,005	-0,236
-720,050	-200,000	0,018	-0,084
-719,035	141,195	0,062	-0,061
-718,021	458,070	-0,037	-0,062
-717,006	800,000	-0,035	-0,113
-715,991	-200,000	-0,054	-0,272
-714,977	-70,706	-0,093	0,026
-713,962	-200,000	0,001	-0,053
-712,948	800,000	0,019	0,051
-711,933	-18,439	-0,122	0,056
-710,918	153,606	-0,017	0,017
-709,904	118,802	-0,041	-0,038
-708,889	160,601	0,029	-0,030
-707,875	-200,000	0,014	-0,201
-706,860	-200,000	-0,018	0,097
-705,845	-124,793	0,088	-0,010
-704,831	61,439	0,137	0,102
-703,816	-200,000	-0,018	0,140
-702,802	20,382	0,043	-0,026
-701,787	47,872	-0,156	-0,108
-700,772	300,637	0,085	-0,118
-699,758	-110,280	-0,115	-0,018
-698,743	202,683	0,058	-0,067
-697,729	800,000	0,017	0,054
-696,714	-123,387	-0,153	-0,018
-695,699	-200,000	0,015	0,057
-694,685	90,589	-0,103	-0,086
-693,670	-89,740	0,088	0,019
-692,656	455,018	-0,015	-0,024
-691,641	418,015	-0,032	-0,051
-690,627	-200,000	-0,001	0,057
-689,612	91,957	0,116	-0,097
-688,597	-170,972	0,045	-0,001
-687,583	800,000	-0,014	-0,046
-686,568	23,536	-0,100	-0,061
-685,554	-40,304	0,043	0,017
-684,539	800,000	0,046	0,100
-683,524	345,369	0,019	0,028
-682,510	564,345	0,033	0,060
-681,495	141,145	0,020	-0,019
-680,481	176,408	-0,045	-0,048
-679,466	-66,352	-0,092	-0,027
-678,451	-200,000	-0,012	-0,054
-677,437	800,000	-0,014	-0,041
-676,422	165,572	0,075	0,079
-675,408	800,000	-0,047	-0,133
-674,393	-200,000	-0,037	-0,123
-673,378	340,044	-0,092	-0,133
-672,364	762,394	0,043	0,087
-671,349	28,009	-0,056	-0,035
-670,335	474,241	0,073	-0,124
-669,320	129,264	0,059	-0,056
-668,305	-200,000	-0,010	-0,120
-667,291	-200,000	-0,027	0,000
-666,276	800,000	0,052	-0,155
-665,262	-200,000	0,008	-0,048
-664,247	800,000	-0,030	-0,084
-663,232	520,289	0,020	0,035
-662,218	-200,000	0,006	-0,054
-661,203	49,655	0,082	0,057
-660,189	-18,916	-0,076	-0,035
-659,174	386,105	-0,013	-0,020
-658,159	800,000	0,037	0,091
-657,145	395,411	-0,028	-0,044
-656,130	-200,000	0,022	0,101
-655,116	-118,802	-0,057	-0,007
-654,101	23,556	-0,079	0,048
-653,086	-200,000	-0,024	0,091
-652,072	-200,000	0,015	0,073
-651,057	408,424	0,045	-0,071
-650,043	-43,135	-0,090	-0,034
-649,028	-183,501	-0,123	0,002
-648,014	-91,728	0,162	-0,034
-646,999	180,040	0,060	-0,066
-645,984	-200,000	-0,014	-0,080
-644,970	-200,000	0,001	-0,123
-643,955	112,703	-0,074	0,066
-642,941	134,519	0,084	0,081
-641,926	-45,702	-0,051	-0,019
-640,911	583,091	-0,062	-0,113
-639,897	-200,000	0,002	0,035
-638,882	211,109	-0,035	-0,041
-637,868	-20,556	-0,016	-0,007
-636,853	800,000	-0,021	-0,046
-635,838	484,937	-0,061	-0,104
-634,824	125,450	0,022	-0,021
-633,809	124,262	0,022	0,021
-632,795	24,709	0,044	-0,027
-631,780	-35,037	-0,066	-0,027
-630,765	-52,122	-0,056	0,019
-629,751	551,098	0,061	-0,109
-628,736	-56,104	-0,020	0,007
-627,722	-200,000	-0,022	-0,106
-626,707	134,893	0,048	-0,046
-625,692	-0,995	0,088	0,046
-624,678	195,534	-0,103	-0,116
-623,663	-200,000	-0,016	0,073
-622,649	-119,854	-0,110	-0,014
-621,634	18,314	0,105	-0,062
-620,619	556,660	0,046	0,083
-619,605	103,283	-0,098	-0,085
-618,590	40,207	0,146	-0,097
-617,576	168,799	-0,062	-0,066
-616,561	257,813	-0,096	-0,123
-615,546	-50,622	-0,072	-0,025
-614,532	108,564	-0,062	-0,055
-613,517	-51,343	-0,103	-0,036
-612,503	75,576	0,049	0,038
-611,488	422,778	-0,056	0,089
-610,474	469,395	-0,025	-0,042
-609,459	-200,000	-0,007	-0,088
-608,444	-200,000	0,028	0,137
-607,430	159,844	0,051	-0,052
-606,415	-200,000	0,010	-0,058
-605,401	259,823	-0,090	0,115
-604,386	319,462	0,014	0,020
-603,371	-200,000	0,012	0,111
-602,357	800,000	-0,010	0,029
-601,342	13,415	-0,070	-0,040
-600,328	-200,000	0,001	0,016
-599,313	39,786	0,029	-0,019
-598,298	-200,000	0,003	-0,038
-597,284	-200,000	-0,013	0,057
-596,269	63,202	0,060	0,045
-595,255	8,971	0,066	-0,037
-594,240	-200,000	0,030	0,099
-593,225	550,683	0,019	-0,034
-592,211	-40,412	-0,125	-0,048
-591,196	309,875	0,017	0,023
-590,182	85,479	0,133	-0,108
-589,167	-200,000	-0,015	-0,125
-588,152	-21,179	-0,036	0,016
-587,138	113,356	0,007	-0,006
-586,123	347,097	0,015	0,022
-585,109	800,000	-0,012	-0,026
-584,094	45,531	0,127	0,086
-583,079	458,052	0,083	0,137
-582,065	800,000	0,019	0,054
-581,050	-200,000	0,008	0,138
-580,036	668,642	-0,068	0,132
-579,021	-61,638	0,018	0,006
-578,006	-158,189	-0,096	-0,004
-576,992	-200,000	-0,010	0,052
-575,977	173,818	-0,052	0,056
-574,963	-16,839	0,061	0,028
-573,948	371,870	0,010	0,015
-572,934	-92,826	-0,070	0,014
-571,919	-74,249	-0,083	0,022
-570,904	428,255	-0,025	0,040
-569,890	17,458	0,047	-0,028
-568,875	-103,737	0,117	0,020
-567,861	470,997	-0,065	-0,109
-566,846	800,000	-0,047	0,098
-565,831	-77,069	-0,068	-0,017
-564,817	800,000	-0,020	-0,061
-563,802	-111,651	-0,087	0,013
-562,788	370,123	0,027	-0,041
-561,773	-13,768	-0,026	0,012
-560,758	665,523	0,037	0,071
-559,744	419,955	0,099	0,157
-558,729	221,985	-0,027	-0,033
-557,715	-200,000	-0,006	-0,122
-556,700	542,743	0,050	0,089
-555,685	193,465	0,044	0,050
-554,671	181,584	-0,012	-0,013
-553,656	-200,000	0,009	0,128
-552,642	-84,943	0,088	0,020
-551,627	-1,387	0,074	-0,038
-550,612	11,642	-0,101	-0,057
-549,598	-62,049	-0,157	-0,048
-548,583	800,000	-0,043	-0,115
-547,569	-108,003	0,048	0,008
-546,554	776,310	0,053	0,108
-545,539	-97,316	0,122	-0,023
-544,525	800,000	0,023	0,059
-543,510	-160,562	-0,098	0,004
-542,496	660,860	-0,013	-0,026
-541,481	-49,656	-0,091	-0,032
-540,466	26,184	0,100	0,062
-539,452	-200,000	0,020	0,072
-538,437	800,000	0,016	0,039
-537,423	-200,000	-0,001	0,210
-536,408	-47,400	-0,072	0,026
-535,393	-45,725	0,182	-0,066
-534,379	-123,028	-0,106	0,012
-533,364	800,000	0,030	-0,074
-532,350	-36,529	0,029	0,011
-531,335	-19,991	-0,028	0,013
-530,321	-200,000	0,005	0,084
-529,306	70,133	0,125	0,095
-528,291	800,000	0,021	-0,068
-527,277	145,912	-0,060	-0,059
-526,262	38,434	-0,047	0,031
-525,248	155,602	0,058	-0,060
-524,233	-51,951	0,089	0,031
-523,218	177,624	0,023	0,025
-522,204	581,893	-0,030	-0,054
-521,189	-136,636	-0,100	-0,008
-520,175	103,577	0,075	-0,065
-519,160	-200,000	0,002	0,050
-518,145	11,042	0,104	0,059
-517,131	-35,252	0,088	0,035
-516,116	1,389	-0,082	-0,044
-515,102	406,317	0,036	-0,057
-514,087	415,649	-0,059	-0,093
-513,072	316,242	0,081	-0,113
-512,058	800,000	-0,018	0,051
-511,043	11,400	0,107	-0,061
-510,029	800,000	0,041	-0,100
-509,014	468,560	-0,015	0,024
-507,999	800,000	0,054	0,125
-506,985	-43,904	-0,126	-0,047
-505,970	532,739	-0,048	-0,085
-504,956	310,529	-0,098	0,136
-503,941	346,096	0,006	0,009
-502,926	-200,000	0,011	0,160
-501,912	461,405	0,047	-0,078
-500,897	-85,974	-0,088	0,020
-499,883	-200,000	0,035	-0,137
-498,868	800,000	0,025	-0,060
-497,853	151,033	-0,092	0,092
-496,839	-12,969	0,071	-0,034
-495,824	-200,000	0,035	0,175
-494,810	-126,897	-0,033	0,004
-493,795	-159,658	-0,072	0,003
-492,781	416,720	-0,055	-0,087
-491,766	115,935	-0,114	-0,103
-490,751	50,369	-0,084	0,059
-489,737	-132,171	0,087	-0,008
-488,722	458,175	-0,073	0,120
-487,708	478,996	0,059	0,099
-486,693	-200,000	-0,007	0,132
-485,678	761,318	0,065	0,131
-484,664	125,818	0,111	0,103
-483,649	800,000	-0,037	-0,107
-482,635	-115,222	-0,009	-0,001
-481,620	144,564	0,080	-0,079
-480,605	306,916	0,103	0,142
-479,591	-200,000	0,001	0,055
-478,576	-200,000	0,007	0,042
-477,562	93,801	-0,116	0,097
-476,547	-70,396	-0,066	-0,018
-475,532	277,162	-0,016	-0,021
-474,518	-200,000	0,010	-0,053
-473,503	800,000	0,019	-0,055
-472,489	303,739	-0,014	0,019
-471,474	500,302	-0,040	0,068
-470,459	-200,000	-0,001	-0,119
-469,445	-73,553	-0,108	0,029
-468,430	-11,136	-0,006	-0,003
-467,416	-120,337	-0,078	0,010
-466,401	-90,665	0,115	0,024
-465,386	301,093	0,039	0,053
-464,372	-200,000	0,020	-0,066
-463,357	800,000	-0,059	-0,129
-462,343	-114,496	-0,037	0,005
-461,328	-37,548	-0,068	-0,027
-460,313	-200,000	0,003	-0,054
-459,299	-200,000	-0,038	0,123
-458,284	-200,000	-0,003	0,088
-457,270	227,175	-0,075	0,089
-456,255	78,185	0,061	0,048
-455,241	90,981	0,028	0,024
-454,226	-137,346	-0,168	0,014
-453,211	-123,841	-0,047	0,005
-452,197	-68,321	-0,126	0,036
-451,182	630,983	0,054	-0,102
-450,168	-181,687	-0,053	-0,001
-449,153	-157,136	-0,137	0,006
-448,138	800,000	-0,064	-0,136
-447,124	-126,058	0,104	0,011
-446,109	800,000	0,030	-0,091
-445,095	-81,076	0,064	-0,016
-444,080	-200,000	-0,011	0,091
-443,065	800,000	-0,009	0,021
-442,051	-172,270	-0,146	0,003
-441,036	-136,865	-0,072	0,006
-440,022	214,298	0,088	-0,103
-439,007	-200,000	-0,001	-0,089
-437,992	-83,508	0,083	-0,019
-436,978	177,032	0,122	0,130
-435,963	-200,000	0,008	0,082
-434,949	800,000	-0,026	0,056
-433,934	106,333	-0,059	-0,051
-432,919	12,724	0,051	0,029
-431,905	107,195	0,074	0,065
-430,890	-77,708	-0,044	-0,011
-429,876	88,081	-0,076	-0,062
-428,861	-0,968	0,083	0,043
-427,846	243,841	0,045	-0,056
-426,832	158,885	0,026	-0,027
-425,817	-200,000	0,004	-0,051
-424,803	-22,850	0,134	0,059
-423,788	-153,495	0,145	0,007
-422,773	-41,022	0,068	0,026
-421,759	800,000	0,035	0,089
-420,744	-6,049	0,071	0,035
-419,730	386,813	-0,028	0,043
-418,715	800,000	0,012	-0,027
-417,701	-200,000	0,028	-0,161
-416,686	-86,880	-0,067	0,015
-415,671	800,000	-0,017	0,034
-414,657	800,000	0,016	0,037
-413,642	800,000	-0,050	0,105
-412,628	-93,568	0,065	-0,013
-411,613	-49,348	-0,179	-0,063
-410,598	-39,919	-0,152	0,058
-409,584	-44,722	0,034	0,012
-408,569	3,654	-0,137	-0,073
-407,555	-16,024	-0,126	-0,059
-406,540	800,000	0,032	0,082
-405,525	56,237	-0,031	0,022
-404,511	-5,673	-0,063	0,032
-403,496	-53,809	0,130	0,044
-402,482	800,000	-0,032	0,074
-401,467	-33,537	0,116	0,047
-400,452	76,754	0,042	-0,033
-399,438	-118,973	-0,122	0,016
-398,423	-200,000	0,009	-0,066
-397,409	-139,574	-0,027	0,002
-396,394	41,947	0,061	-0,041
-395,379	-39,533	-0,095	-0,036
-394,365	106,770	0,096	0,083
-393,350	800,000	-0,070	0,155
-392,336	410,277	-0,055	-0,086
-391,321	800,000	0,004	-0,012
-390,306	489,501	-0,071	-0,120
-389,292	-200,000	-0,006	0,089
-388,277	2,638	0,045	0,024
-387,263	52,158	0,128	0,089
-386,248	800,000	-0,013	0,035
-385,233	21,821	-0,095	0,057
-384,219	63,352	0,103	-0,076
-383,204	-200,000	0,064	-0,242
-382,190	389,228	-0,078	0,120
-381,175	-200,000	-0,025	-0,140
-380,160	-200,000	0,028	-0,184
-379,146	38,487	0,058	0,038
-378,131	-44,728	-0,048	0,017
-377,117	800,000	-0,024	-0,049
-376,102	218,000	-0,081	-0,095
-375,088	-200,000	-0,008	-0,125
-374,073	-200,000	0,014	0,048
-373,058	-81,644	0,098	0,024
-372,044	-200,000	0,013	0,049
-371,029	-116,465	-0,014	0,002
-370,015	-112,555	-0,086	0,012
-369,000	459,239	-0,079	0,130
-367,985	-200,000	-0,042	-0,138
-366,971	254,428	0,032	-0,040
-365,956	-200,000	0,039	0,134
-364,942	432,397	-0,052	0,084
-363,927	-69,213	0,094	0,026
-362,912	16,828	0,126	0,073
-361,898	-91,501	-0,047	-0,010
-360,883	800,000	0,035	-0,073
-359,869	152,501	-0,053	-0,053
-358,854	176,209	0,064	-0,068
-357,839	-200,000	0,008	-0,034
-356,825	800,000	0,048	0,104
-355,810	-200,000	-0,001	-0,157
-354,796	224,460	0,040	0,048
-353,781	392,443	0,017	-0,027
-352,766	149,084	-0,108	0,107
-351,752	43,021	0,126	0,084
-350,737	-200,000	-0,004	-0,053
-349,723	163,939	0,151	0,156
-348,708	15,978	-0,060	0,035
-347,693	-72,705	-0,159	0,043
-346,679	-200,000	-0,012	-0,118
-345,664	465,470	-0,061	-0,101
-344,650	800,000	0,030	-0,071
-343,635	-200,000	-0,002	0,066
-342,620	-200,000	-0,004	-0,021
-341,606	393,357	0,070	0,108
-340,591	57,729	-0,081	-0,058
-339,577	-138,991	-0,197	-0,015
-338,562	-43,107	0,025	0,009
-337,548	-67,729	0,146	0,042
-336,533	-143,443	0,192	-0,013
-335,518	67,589	-0,063	-0,047
-334,504	-200,000	0,006	0,142
-333,489	-200,000	0,016	0,062
-332,475	366,369	0,021	-0,032
-331,460	516,458	-0,042	-0,072
-330,445	57,445	-0,035	0,025
-329,431	77,443	0,117	0,091
-328,416	800,000	0,006	0,013
-327,402	5,622	0,017	0,009
-326,387	-41,243	0,079	-0,030
-325,372	35,553	-0,144	0,093
-324,358	64,905	0,043	-0,032
-323,343	800,000	-0,019	0,058
-322,329	94,520	0,128	0,106
-321,314	243,882	0,069	0,085
-320,299	348,332	-0,098	-0,142
-319,285	457,071	0,053	-0,086
-318,270	-96,075	0,062	0,012
-317,256	387,729	0,046	0,070
-316,241	800,000	-0,056	0,122
-315,226	13,969	-0,105	-0,060
-314,212	230,104	0,168	-0,202
-313,197	183,483	0,033	-0,036
-312,183	101,909	-0,051	-0,044
-311,168	216,236	-0,040	0,046
-310,153	800,000	-0,040	-0,107
-309,139	213,122	-0,029	-0,034
-308,124	-130,452	0,177	0,017
-307,110	370,714	-0,023	0,034
-306,095	-89,432	0,043	-0,009
-305,080	-84,375	0,054	-0,012
-304,066	300,442	-0,048	0,065
-303,051	-200,000	0,008	0,076
-302,037	-200,000	0,017	-0,100
-301,022	-200,000	0,004	-0,050
-300,008	253,972	0,044	-0,055
-298,993	252,756	0,006	0,007
-297,978	507,650	-0,053	0,090
-296,964	46,442	-0,033	-0,023
-295,949	-45,664	-0,055	0,020
-294,935	277,292	-0,024	-0,031
-293,920	-200,000	0,023	0,101
-292,905	100,811	0,020	-0,017
-291,891	143,598	-0,030	-0,029
-290,876	-36,620	-0,147	0,058
-289,862	800,000	-0,018	0,048
-288,847	-200,000	-0,011	0,047
-287,832	-76,723	-0,126	-0,032
-286,818	348,794	0,067	-0,096
-285,803	-64,275	0,133	0,039
-284,789	-200,000	-0,012	0,055
-283,774	-200,000	-0,012	0,052
-282,759	-114,648	-0,144	-0,020
-281,745	-200,000	0,022	-0,093
-280,730	800,000	0,018	-0,058
-279,716	0,327	-0,065	-0,034
-278,701	30,483	0,028	-0,018
-277,686	130,459	0,064	0,060
-276,672	80,299	0,151	0,119
-275,657	-200,000	0,039	0,187
-274,643	-85,008	-0,075	-0,017
-273,628	786,725	-0,013	-0,026
-272,613	-128,932	0,073	0,007
-271,599	274,271	0,040	-0,052
-270,584	-200,000	0,030	-0,104
-269,570	-200,000	-0,006	-0,047
-268,555	-200,000	-0,005	-0,023
-267,540	267,262	-0,087	0,112
-266,526	-114,947	-0,142	-0,020
-265,511	-200,000	0,012	0,105
-264,497	800,000	-0,034	-0,072
-263,482	-39,549	0,060	0,023
-262,467	56,608	-0,043	0,031
-261,453	120,664	-0,144	-0,131
-260,438	-200,000	0,009	-0,114
-259,424	758,667	-0,047	-0,093
-258,409	362,919	0,067	-0,098
-257,395	-200,000	0,032	-0,141
-256,380	-136,676	0,206	-0,017
-255,365	55,067	0,110	0,078
-254,351	-114,741	-0,141	-0,019
-253,336	226,336	0,074	0,087
-252,322	-133,974	0,076	0,007
-251,307	48,726	0,006	-0,004
-250,292	-200,000	0,001	-0,050
-249,278	-1,895	0,064	-0,033
-248,263	-185,873	0,058	0,001
-247,249	-37,438	0,164	0,064
-246,234	251,422	-0,056	-0,070
-245,219	-117,983	-0,057	0,007
-244,205	-200,000	0,020	-0,079
-243,190	-200,000	-0,001	-0,094
-242,176	-25,244	-0,076	0,033
-241,161	-76,493	-0,052	0,013
-240,146	158,461	0,016	0,016
-239,132	338,950	0,018	-0,026
-238,117	366,915	0,042	0,062
-237,103	-79,078	0,089	0,022
-236,088	-102,140	-0,075	-0,013
-235,073	-200,000	0,010	0,086
-234,059	73,474	0,063	-0,048
-233,044	-200,000	-0,041	0,000
-232,030	128,921	0,029	-0,027
-231,015	-23,101	-0,182	-0,080
-230,000	545,315	-0,058	-0,101
-228,986	485,671	-0,047	-0,079
-227,971	-74,455	0,066	0,017
-226,957	800,000	0,027	-0,081
-225,942	-200,000	0,023	0,128
-224,927	-200,000	-0,008	0,086
-223,913	800,000	0,027	0,061
-222,898	-65,965	-0,085	0,025
-221,884	12,964	-0,067	-0,038
-220,869	157,208	0,064	0,065
-219,855	116,512	0,038	-0,034
-218,840	74,786	0,055	0,042
-217,825	131,725	0,013	-0,012
-216,811	-200,000	0,026	-0,129
-215,796	-200,000	0,036	0,199
-214,782	-155,152	-0,198	-0,009
-213,767	271,686	0,060	-0,078
-212,752	173,323	-0,114	0,120
-211,738	-71,779	0,074	0,020
-210,723	356,228	0,015	0,022
-209,709	-200,000	0,010	-0,099
-208,694	800,000	-0,083	-0,196
-207,679	262,418	0,100	-0,127
-206,665	138,925	-0,055	-0,053
-205,650	-200,000	-0,018	-0,101
-204,636	-87,711	0,053	-0,012
-203,621	91,820	0,112	0,092
-202,606	-99,215	0,091	-0,017
-201,592	-97,899	-0,210	-0,039
-200,577	68,022	0,039	-0,029
-199,563	800,000	0,028	-0,081
-198,548	-54,638	0,119	-0,039
-197,533	140,793	0,184	-0,178
-196,519	-11,512	0,104	-0,050
-195,504	-200,000	0,014	0,108
-194,490	800,000	-0,015	0,044
-193,475	-200,000	-0,040	-0,157
-192,460	-138,063	0,109	-0,009
-191,446	-77,765	-0,032	0,008
-190,431	-92,299	0,092	-0,019
-189,417	75,181	-0,040	0,031
-188,402	-200,000	-0,009	0,124
-187,387	-119,498	-0,104	0,013
-186,373	-200,000	0,003	-0,033
-185,358	-200,000	0,001	0,063
-184,344	800,000	-0,021	-0,050
-183,329	-200,000	0,006	-0,118
-182,315	309,652	0,095	-0,130
-181,300	32,489	0,052	-0,033
-180,285	53,620	-0,099	-0,069
-179,271	-200,000	0,006	0,153
-178,256	129,544	-0,088	0,082
-177,242	-136,804	0,014	0,001
-176,227	80,231	-0,056	0,044
-175,212	-108,032	0,096	-0,015
-174,198	-138,935	-0,112	0,009
-173,183	14,105	-0,086	0,049
-172,169	-8,445	-0,017	-0,009
-171,154	129,541	0,028	0,026
-170,139	190,823	0,134	0,147
-169,125	143,147	0,055	-0,053
-168,110	-200,000	0,005	0,022
-167,096	444,442	0,007	0,012
-166,081	800,000	0,032	-0,100
-165,066	33,789	0,064	-0,040
-164,052	800,000	0,024	-0,073
-163,037	384,461	0,026	0,039
-162,023	118,485	0,086	0,078
-161,008	682,482	-0,024	0,046
-159,993	-66,306	-0,080	-0,023
-158,979	-140,701	-0,064	-0,005
-157,964	-73,647	-0,172	-0,045
-156,950	-21,476	-0,050	0,022
-155,935	-135,288	-0,089	0,008
-154,920	443,055	-0,055	0,088
-153,906	-200,000	-0,006	0,191
-152,891	-129,429	0,027	-0,003
-151,877	800,000	0,010	0,025
-150,862	-200,000	-0,014	-0,057
-149,847	-200,000	-0,002	-0,027
-148,833	-37,671	0,083	-0,032
-147,818	269,092	0,054	0,069
-146,804	800,000	0,048	-0,116
-145,789	341,420	-0,057	0,081
-144,775	310,029	-0,124	0,170
-143,760	-200,000	-0,019	-0,126
-142,745	86,684	0,105	-0,084
-141,731	-200,000	0,010	-0,096
-140,716	-184,793	-0,175	-0,002
-139,702	22,534	0,101	-0,060
-138,687	-75,041	0,120	-0,031
-137,672	-200,000	0,016	-0,134
-136,658	253,081	-0,014	0,018
-135,643	-147,794	0,040	0,002
-134,629	114,223	-0,015	0,013
-133,614	-51,825	0,098	-0,033
-132,599	428,881	-0,019	0,029
-131,585	211,869	-0,025	-0,029
-130,570	597,904	-0,077	0,140
-129,556	-200,000	-0,006	-0,134
-128,541	-137,783	-0,112	-0,009
-127,526	-72,345	-0,033	0,009
-126,512	-148,999	0,094	-0,005
-125,497	-123,696	-0,034	-0,004
-124,483	-73,351	-0,005	-0,001
-123,468	-49,581	-0,078	0,027
-122,453	-200,000	0,000	-0,101
-121,439	-78,751	-0,166	-0,041
-120,424	800,000	0,031	-0,087
-119,410	330,450	-0,038	0,054
-118,395	293,218	0,047	0,063
-117,380	-149,413	-0,137	0,008
-116,366	240,193	-0,033	-0,040
-115,351	800,000	-0,053	-0,165
-114,337	10,640	-0,116	-0,064
-113,322	-200,000	0,006	0,057
-112,307	800,000	-0,020	-0,063
-111,293	7,101	0,119	0,064
-110,278	-200,000	0,031	0,202
-109,264	-135,257	-0,017	-0,001
-108,249	-99,496	-0,110	-0,020
-107,234	143,086	-0,091	0,088
-106,220	174,365	-0,044	0,046
-105,205	-200,000	0,041	0,134
-104,191	-66,294	-0,036	0,010
-103,176	-200,000	-0,003	-0,031
-102,162	-104,862	0,121	0,020
-101,147	800,000	0,050	0,115
-100,132	800,000	-0,014	-0,045
-99,118	-11,344	-0,055	-0,026
-98,103	-35,354	-0,069	0,027
-97,089	-118,334	0,041	0,005
-96,074	-109,161	-0,076	0,012
-95,059	-200,000	-0,014	0,060
-94,045	-62,318	-0,087	-0,026
-93,030	81,345	-0,079	-0,062
-92,016	196,436	-0,020	0,022
-91,001	728,253	-0,017	-0,033
-89,986	-122,184	0,058	0,007
-88,972	-8,783	0,097	-0,047
-87,957	70,352	-0,071	0,053
-86,943	800,000	-0,044	-0,136
-85,928	-200,000	-0,019	-0,095
-84,913	-200,000	0,005	-0,096
-83,899	800,000	-0,024	-0,054
-82,884	-200,000	0,004	-0,071
-81,870	-200,000	0,027	-0,129
-80,855	800,000	0,024	-0,055
-79,840	800,000	-0,072	0,165
-78,826	-147,933	-0,072	-0,004
-77,811	800,000	0,011	-0,030
-76,797	-200,000	-0,024	-0,080
-75,782	-9,619	-0,040	-0,019
-74,767	-24,977	0,123	0,053
-73,753	23,345	-0,071	0,042
-72,738	-36,128	-0,081	0,032
-71,724	800,000	0,015	0,037
-70,709	318,702	0,027	0,037
-69,694	-200,000	-0,002	-0,028
-68,680	-64,404	0,187	-0,055
-67,665	542,449	0,104	0,182
-66,651	-200,000	-0,003	0,010
-65,636	14,387	0,140	0,079
-64,622	-12,470	-0,058	-0,027
-63,607	800,000	-0,023	0,060
-62,592	-200,000	-0,050	-0,186
-61,578	-200,000	0,044	-0,156
-60,563	-200,000	0,015	0,075
-59,549	800,000	-0,075	0,170
-58,534	-177,979	-1,257	-0,021
-57,519	800,000	-0,703	-1,456
-56,505	-200,000	-0,977	-4,415
-55,490	49,296	0,598	-0,408
-54,476	800,000	5,015	11,938
-53,461	-200,000	13,372	253,314
-52,446	-200,000	689,060	2268,964
-51,432	595,651	1623,050	2927,122
-50,417	120,769	1636,185	1476,054
-49,403	73,608	1290,246	979,657
-48,388	38,381	1025,161	661,422
-47,373	24,478	982,512	588,167
-46,359	23,762	972,310	579,687
-45,344	22,774	968,084	573,913
-44,330	22,724	966,692	572,902
-43,315	22,647	965,255	571,777
-42,300	22,596	964,130	570,921
-41,286	22,575	963,322	570,351
-40,271	22,590	962,191	569,709
-39,257	22,584	961,500	569,257
-38,242	22,531	960,459	568,445
-37,227	22,539	959,765	568,040
-36,213	22,559	958,756	567,483
-35,198	22,538	957,829	566,846
-34,184	22,624	957,219	566,739
-33,169	22,508	956,356	565,831
-32,154	22,592	955,453	565,546
-31,140	22,580	954,482	564,910
-30,125	22,570	953,764	564,430
-29,111	22,590	953,030	564,037
-28,096	22,626	952,267	563,679
-27,082	22,573	951,572	563,074
-26,067	22,613	950,730	562,683
-25,052	22,632	949,965	562,268
-24,038	22,672	949,383	562,029
-23,023	22,623	948,751	561,477
-22,009	22,654	948,061	561,144
-20,994	22,661	947,395	560,753
-19,979	22,624	946,966	560,355
-18,965	22,684	946,330	560,149
-17,950	22,653	945,491	559,534
-16,936	22,562	944,966	558,909
-15,921	22,573	944,241	558,492
-14,906	22,518	943,451	557,828
-13,892	22,434	942,924	557,226
-12,877	22,530	942,202	557,083
-11,863	22,524	941,553	556,658
-10,848	22,525	941,120	556,383
-9,833	22,622	940,696	556,420
-8,819	22,590	939,983	555,875
-7,804	22,491	939,255	555,108
-6,790	22,489	938,776	554,796
-5,775	22,514	938,143	554,480
-4,760	22,510	937,701	554,183
-3,746	22,476	937,042	553,664
-2,731	22,374	936,246	552,851
-1,717	22,344	935,465	552,272
-0,702	22,352	934,810	551,889
0,313	22,126	934,315	551,717
1,327	25,117	932,276	559,876
2,342	34,738	796,834	504,184
3,356	32,856	451,974	283,117
4,371	1,727	293,798	152,978
5,386	-2,782	274,673	138,740
6,400	-4,267	268,890	134,430
7,415	-4,506	266,402	132,954
8,429	-4,300	265,199	132,531
9,444	-4,217	264,419	132,204
10,459	-4,060	263,684	131,969
11,473	-4,275	263,119	131,479
12,488	-4,272	262,644	131,232
13,502	-4,350	262,014	130,835
14,517	-4,481	261,569	130,484
15,531	-4,357	261,269	130,434
16,546	-4,398	260,928	130,215
17,561	-4,297	260,489	130,075
18,575	-4,352	260,182	129,861
19,590	-4,368	259,835	129,662
20,604	-4,497	259,716	129,475
21,619	-4,371	259,233	129,336
22,634	-4,567	258,958	129,012
23,648	-4,492	258,526	128,852
24,663	-4,448	258,315	128,775
25,677	-4,337	258,112	128,761
26,692	-4,341	257,800	128,590
27,707	-4,381	257,685	128,485
28,721	-4,582	257,394	128,150
29,736	-4,303	257,044	128,213
30,750	-4,423	256,870	128,008
31,765	-4,529	256,677	127,807
32,780	-4,489	256,325	127,655
33,794	-4,343	256,044	127,632
34,809	-4,583	256,026	127,401
35,823	-4,556	255,765	127,283
36,838	-4,305	255,531	127,377
37,853	-4,804	255,292	126,807
38,867	-4,707	255,022	126,747
39,882	-4,572	254,919	126,803
40,896	-4,659	254,684	126,598
41,911	-4,341	254,276	126,663
42,926	-4,491	254,142	126,454
43,940	-4,568	253,903	126,255
44,955	-4,527	253,482	126,070
45,969	-4,611	253,347	125,919
46,984	-4,898	253,193	125,581
47,999	-5,010	252,935	125,345
49,013	-4,844	252,543	125,284
50,028	-5,132	252,392	124,948
51,042	-5,132	252,269	124,875
52,057	-5,128	251,904	124,687
53,071	-5,263	251,706	124,461
54,086	-5,270	251,594	124,389
55,101	-5,037	251,484	124,525
56,115	-4,705	251,258	124,689
57,130	-4,467	251,311	124,909
58,144	-4,310	251,138	124,947
59,159	-4,236	250,824	124,844
60,174	-4,336	250,769	124,719
61,188	-4,247	250,564	124,683
62,203	-4,281	250,213	124,468
63,217	-4,164	250,002	124,453
64,232	-4,289	249,809	124,238
65,247	-4,625	249,632	123,851
66,261	-4,235	249,430	124,073
67,276	-4,441	248,992	123,669
68,290	-4,819	248,880	123,279
69,305	-4,877	248,585	123,072
70,320	-4,856	248,521	123,047
71,334	-4,509	248,199	123,172
72,349	-4,250	248,264	123,415
73,363	-4,338	248,161	123,277
74,378	-4,298	247,922	123,181
75,393	-4,226	247,523	123,033
76,407	-4,448	247,465	122,805
77,422	-4,433	247,050	122,601
78,436	-4,252	247,004	122,721
79,451	-4,203	246,725	122,613
80,466	-4,351	246,622	122,425
81,480	-4,658	246,406	122,048
82,495	-4,539	246,136	122,003
83,509	-4,608	246,002	121,868
84,524	-4,506	245,829	121,858
85,539	-4,808	245,521	121,439
86,553	-4,915	245,425	121,291
87,568	-4,766	245,263	121,326
88,582	-4,668	245,051	121,293
89,597	-4,774	244,835	121,085
90,611	-4,706	244,830	121,130
91,626	-4,448	244,550	121,197
92,641	-4,497	244,397	121,069
93,655	-4,702	244,136	120,757
94,670	-4,552	244,005	120,807
95,684	-4,597	243,816	120,665
96,699	-4,599	243,590	120,541
97,714	-4,587	243,371	120,432
98,728	-4,713	243,241	120,252
99,743	-4,890	242,994	119,972
100,757	-4,890	242,806	119,868
101,772	-4,928	242,484	119,667
102,787	-4,669	242,548	119,902
103,801	-4,612	242,338	119,835
104,816	-4,764	242,214	119,637
105,830	-4,678	242,120	119,652
106,845	-4,477	242,018	119,757
107,860	-4,465	241,547	119,523
108,874	-4,681	241,452	119,287
109,889	-4,429	241,147	119,333
110,903	-4,708	241,098	119,069
111,918	-4,677	240,738	118,906
112,933	-4,458	240,612	119,013
113,947	-4,548	240,532	118,890
114,962	-4,516	240,442	118,860
115,976	-4,591	240,267	118,701
116,991	-4,480	240,022	118,661
118,006	-4,560	239,847	118,499
119,020	-4,771	239,771	118,277
120,035	-4,432	239,655	118,487
121,049	-4,437	239,634	118,462
122,064	-4,382	239,207	118,285
123,079	-4,659	239,212	118,051
124,093	-4,715	238,842	117,812
125,108	-4,487	238,534	117,835
126,122	-4,867	238,389	117,444
127,137	-4,929	238,207	117,293
128,151	-4,906	238,226	117,311
129,166	-4,651	237,915	117,355
130,181	-4,628	237,642	117,228
131,195	-4,678	237,448	117,082
132,210	-4,669	237,276	116,993
133,224	-4,517	237,335	117,135
134,239	-4,482	237,100	117,037
135,254	-4,450	236,974	116,991
136,268	-4,694	236,675	116,635
137,283	-4,745	236,374	116,436
138,297	-4,754	236,127	116,296
139,312	-4,873	236,039	116,147
140,327	-4,654	236,002	116,295
141,341	-4,377	236,065	116,538
142,356	-4,345	235,792	116,419
143,370	-4,177	235,687	116,492
144,385	-4,252	235,555	116,356
145,400	-4,089	235,357	116,379
146,414	-4,093	235,098	116,237
147,429	-4,410	234,915	115,882
148,443	-4,221	234,809	115,970
149,458	-4,376	234,752	115,808
150,473	-4,297	234,429	115,702
151,487	-4,309	234,306	115,621
152,502	-4,409	234,208	115,482
153,516	-4,233	234,047	115,533
154,531	-4,356	233,779	115,293
155,546	-4,202	233,633	115,333
156,560	-4,304	233,435	115,143
157,575	-4,519	233,263	114,877
158,589	-4,279	233,019	114,937
159,604	-4,158	232,844	114,938
160,619	-4,090	232,773	114,946
161,633	-4,173	232,630	114,799
162,648	-4,118	232,609	114,822
163,662	-4,081	232,276	114,676
164,677	-4,406	232,256	114,400
165,692	-4,408	232,091	114,307
166,706	-4,243	231,792	114,279
167,721	-4,162	231,789	114,332
168,735	-4,069	231,615	114,309
169,750	-4,096	231,523	114,232
170,764	-4,180	231,294	114,042
171,779	-4,276	231,216	113,918
172,794	-4,215	231,047	113,873
173,808	-4,298	230,794	113,673
174,823	-4,524	230,431	113,307
175,837	-4,679	230,286	113,104
176,852	-4,534	230,368	113,248
177,867	-4,215	230,331	113,470
178,881	-4,107	230,185	113,472
179,896	-4,116	229,897	113,313
180,910	-4,062	229,708	113,251
181,925	-4,188	229,693	113,136
182,940	-4,103	229,457	113,076
183,954	-4,043	229,277	113,024
184,969	-4,094	229,232	112,952
185,983	-3,931	229,029	112,969
186,998	-3,954	228,939	112,897
188,013	-3,952	228,727	112,783
189,027	-4,145	228,586	112,554
190,042	-3,971	228,328	112,552
191,056	-4,032	228,365	112,513
192,071	-4,250	228,184	112,244
193,086	-4,056	227,906	112,248
194,100	-3,865	227,694	112,281
195,115	-4,287	227,473	111,836
196,129	-4,729	227,424	111,460
197,144	-1,964	228,222	113,982
198,159	1,889	229,243	117,473
199,173	3,837	229,652	119,184
200,188	4,191	229,552	119,396
201,202	4,294	229,300	119,334
202,217	4,191	229,373	119,281
203,232	4,582	229,142	119,453
204,246	4,738	228,957	119,466
205,261	4,641	228,911	119,357
206,275	4,796	228,922	119,471
207,290	4,912	228,693	119,431
208,304	4,748	228,510	119,198
209,319	4,644	228,307	119,001
210,334	4,677	228,135	118,927
211,348	4,543	227,839	118,659
212,363	4,054	227,711	118,207
213,377	4,063	227,415	118,049
214,392	3,962	227,340	117,922
215,407	4,137	227,164	117,954
216,421	4,277	226,996	117,964
217,436	4,243	226,767	117,808
218,450	3,764	226,597	117,343
219,465	3,642	226,550	117,215
220,480	3,851	226,335	117,254
221,494	3,732	226,298	117,133
222,509	3,739	226,234	117,094
223,523	4,060	225,932	117,172
224,538	3,906	225,810	116,981
225,553	3,872	225,677	116,876
226,567	3,945	225,656	116,910
227,582	4,280	225,533	117,090
228,596	4,252	225,388	116,984
229,611	4,070	225,143	116,708
230,626	3,942	224,816	116,431
231,640	3,807	224,737	116,277
232,655	4,314	224,652	116,607
233,669	4,513	224,725	116,785
234,684	4,553	224,497	116,686
235,699	4,331	224,349	116,431
236,713	4,122	224,157	116,164
237,728	3,944	223,852	115,861
238,742	3,846	223,663	115,679
239,757	3,889	223,589	115,663
240,772	4,004	223,462	115,673
241,786	3,926	223,376	115,560
242,801	4,268	223,219	115,726
243,815	4,368	223,162	115,761
244,830	4,153	223,139	115,577
245,844	3,932	222,835	115,244
246,859	4,022	222,653	115,207
247,874	4,198	222,513	115,256
248,888	4,347	222,352	115,273
249,903	4,086	222,234	115,007
250,917	3,830	222,179	114,777
251,932	3,991	221,902	114,743
252,947	3,682	221,720	114,409
253,961	3,775	221,488	114,348
254,976	3,589	221,606	114,260
255,990	4,029	221,423	114,483
257,005	4,138	221,282	114,481
258,020	4,129	221,102	114,371
259,034	4,200	221,072	114,398
260,049	4,231	220,890	114,317
261,063	4,293	220,677	114,242
262,078	4,366	220,677	114,286
263,093	4,375	220,521	114,202
264,107	4,476	220,328	114,166
265,122	4,095	220,155	113,785
266,136	4,514	219,948	113,977
267,151	4,478	219,826	113,877
268,166	4,322	219,585	113,627
269,180	3,803	219,460	113,170
270,195	3,747	219,307	113,040
271,209	3,689	219,188	112,926
272,224	3,849	219,059	112,967
273,239	3,920	219,052	113,006
274,253	4,095	218,691	112,937
275,268	3,749	218,599	112,626
276,282	3,689	218,477	112,509
277,297	3,641	218,248	112,346
278,312	3,717	218,124	112,328
279,326	3,989	217,986	112,445
280,341	3,982	217,822	112,346
281,355	3,982	217,798	112,324
282,370	3,860	217,556	112,100
283,384	3,757	217,420	111,945
284,399	3,574	217,216	111,697
285,414	3,677	217,196	111,751
286,428	3,971	217,172	111,943
287,443	4,158	216,978	111,968
288,457	3,986	216,874	111,780
289,472	3,892	216,626	111,574
290,487	3,589	216,229	111,140
291,501	3,413	216,136	110,955
292,516	3,542	216,168	111,055
293,530	3,852	215,993	111,180
294,545	3,735	215,657	110,912
295,560	3,909	215,828	111,116
296,574	3,877	215,714	111,024
297,589	3,930	215,525	110,955
298,603	4,166	215,387	111,045
299,618	3,943	215,296	110,827
300,633	4,218	215,174	110,952
301,647	4,161	215,088	110,857
302,662	4,144	215,040	110,810
303,676	4,138	214,764	110,654
304,691	4,207	214,610	110,614
305,706	4,316	214,561	110,657
306,720	4,061	214,414	110,388
307,735	4,032	214,240	110,268
308,749	3,822	214,014	109,992
309,764	3,792	214,053	109,980
310,779	4,232	213,896	110,205
311,793	4,114	213,578	109,947
312,808	4,094	213,513	109,890
313,822	3,916	213,381	109,685
314,837	3,851	213,266	109,569
315,852	4,001	213,046	109,554
316,866	3,968	213,080	109,538
317,881	4,434	212,738	109,683
318,895	4,257	212,762	109,560
319,910	4,124	212,499	109,321
320,925	3,711	212,360	108,947
321,939	3,354	212,051	108,525
322,954	3,480	211,994	108,576
323,968	3,929	212,133	108,955
324,983	4,079	211,885	108,924
325,997	4,391	211,799	109,091
327,012	4,046	211,640	108,756
328,027	4,069	211,566	108,723
329,041	4,329	211,453	108,840
330,056	4,246	211,351	108,719
331,070	3,750	211,078	108,220
332,085	3,514	210,866	107,935
333,100	3,656	210,846	108,015
334,114	3,996	210,694	108,167
335,129	3,927	210,485	108,002
336,143	3,687	210,360	107,759
337,158	3,813	210,219	107,766
338,173	3,907	210,042	107,731
339,187	3,811	209,960	107,612
340,202	3,709	209,657	107,376
341,216	3,468	209,619	107,178
342,231	3,957	209,391	107,393
343,246	3,656	209,381	107,169
344,260	3,638	209,473	107,194
345,275	3,820	209,206	107,174
346,289	4,190	209,003	107,318
347,304	4,160	208,875	107,223
348,319	4,076	208,699	107,065
349,333	3,962	208,645	106,948
350,348	3,915	208,577	106,871
351,362	4,307	208,282	106,982
352,377	4,124	208,288	106,849
353,392	3,921	208,212	106,659
354,406	3,961	208,017	106,578
355,421	194,039	1346,059	1435,136
356,435	154,812	1484,826	1435,264
