DTS Sentinel unit serial number:	SN410029Multiplexer serial number:	ORYXHardware model number:	OX2-SRSoftware version number:	ORYX F/W v4,00 Oryx Data Collector v3.7.2.0data status	okinstallation	B6 Nyhavnadifferential loss correction	single-endedforward channel	channel 2reverse channel	N/Adate	2023/12/10time	17:50:08forward acquisition time	300,00reverse acquisition time	0,00gamma	499,1914k internal	0,3122k external	0,3122temperature offset calibration	1,0000default loss term (dB/km)	0,3820temperature slope calibration	1,0000multiplexer offset coefficient	1,0000multiplexer slope coefficient	1,0000fibre end	0,00T internal ref (°C)	22,39T ext. ref 1 (°C)	6,00T ext. ref 2 (°C)	6,02length (m)	temperature (°C)	Stokes	anti-Stokes-744,400	-22,886	-0,057	-0,026
-743,385	-176,462	-0,238	0,004
-742,371	-100,146	0,129	0,024
-741,356	49,019	-0,210	0,146
-740,342	-65,682	-0,072	0,021
-739,327	-54,431	-0,267	0,090
-738,312	-122,075	0,072	0,009
-737,298	-142,785	-0,294	0,021
-736,283	-81,705	0,012	0,003
-735,269	182,366	-0,123	0,135
-734,254	210,212	0,023	-0,027
-733,239	-82,430	-0,367	-0,088
-732,225	-67,419	0,123	-0,036
-731,210	753,821	0,028	0,057
-730,196	482,784	0,034	0,058
-729,181	-34,125	-0,122	-0,050
-728,167	380,867	0,098	0,150
-727,152	429,027	0,023	0,038
-726,137	-27,666	-0,129	-0,056
-725,123	-200,000	0,000	0,073
-724,108	596,506	-0,092	-0,171
-723,094	800,000	-0,020	-0,053
-722,079	-40,294	0,103	-0,040
-721,064	-200,000	0,007	0,033
-720,050	-200,000	-0,003	-0,039
-719,035	180,745	-0,047	0,051
-718,021	800,000	-0,016	0,038
-717,006	-99,418	-0,084	0,016
-715,991	-126,389	-0,192	0,021
-714,977	13,463	0,065	-0,037
-713,962	59,504	-0,072	-0,053
-712,948	85,096	-0,081	0,066
-711,933	741,532	-0,075	-0,150
-710,918	42,829	0,065	-0,044
-709,904	118,264	-0,070	0,064
-708,889	741,312	-0,052	-0,104
-707,875	29,201	0,080	-0,050
-706,860	109,964	0,073	-0,065
-705,845	-97,785	-0,046	-0,009
-704,831	-200,000	-0,004	0,037
-703,816	446,864	0,025	0,041
-702,802	226,907	-0,061	0,074
-701,787	-200,000	-0,014	0,087
-700,772	-177,791	-0,077	0,001
-699,758	-200,000	0,003	0,024
-698,743	33,918	0,070	0,045
-697,729	-88,031	-0,091	0,020
-696,714	-200,000	0,005	0,020
-695,699	-13,716	-0,131	-0,063
-694,685	94,047	0,039	-0,033
-693,670	-200,000	-0,022	0,077
-692,656	61,375	0,128	0,095
-691,641	-200,000	-0,009	-0,083
-690,627	72,440	-0,027	0,021
-689,612	800,000	0,044	0,108
-688,597	105,884	-0,076	0,067
-687,583	96,697	0,046	-0,039
-686,568	738,832	0,042	-0,084
-685,554	-14,373	0,062	-0,030
-684,539	-2,939	-0,047	0,024
-683,524	7,684	0,080	-0,044
-682,510	31,396	-0,111	0,071
-681,495	-31,115	-0,018	-0,008
-680,481	-200,000	-0,014	-0,128
-679,466	-100,586	0,050	0,009
-678,451	-115,391	-0,034	0,005
-677,437	390,448	-0,035	0,055
-676,422	-10,372	0,047	-0,023
-675,408	-57,687	-0,018	-0,006
-674,393	597,596	0,009	0,017
-673,378	-58,707	-0,092	-0,030
-672,364	-109,466	-0,075	-0,012
-671,349	-200,000	0,005	-0,115
-670,335	-200,000	-0,018	0,101
-669,320	-90,715	-0,091	0,019
-668,305	-200,000	-0,042	-0,147
-667,291	-31,857	0,085	0,035
-666,276	104,638	0,030	0,026
-665,262	-89,319	-0,027	-0,006
-664,247	800,000	0,023	-0,054
-663,232	46,677	0,137	-0,095
-662,218	-200,000	-0,010	-0,034
-661,203	800,000	-0,049	-0,117
-660,189	-27,250	-0,066	0,028
-659,174	800,000	-0,036	0,094
-658,159	800,000	-0,068	-0,175
-657,145	247,849	-0,028	0,035
-656,130	417,294	-0,032	-0,050
-655,116	-200,000	0,006	-0,024
-654,101	-200,000	0,015	0,062
-653,086	-44,989	0,048	0,018
-652,072	142,738	-0,096	0,095
-651,057	-131,263	-0,157	-0,015
-650,043	67,242	-0,043	0,032
-649,028	276,426	-0,018	0,024
-648,014	-71,797	-0,080	-0,022
-646,999	41,787	-0,088	0,059
-645,984	251,271	-0,042	0,053
-644,970	800,000	0,016	0,047
-643,955	54,323	-0,051	0,036
-642,941	-200,000	0,006	-0,195
-641,926	68,847	0,066	0,050
-640,911	438,590	0,021	0,035
-639,897	-31,831	0,063	0,026
-638,882	267,306	0,059	0,077
-637,868	629,706	0,074	-0,139
-636,853	387,895	-0,103	-0,159
-635,838	21,945	-0,025	-0,015
-634,824	800,000	0,029	-0,066
-633,809	-74,524	0,054	0,014
-632,795	-91,260	-0,047	-0,010
-631,780	-39,183	0,127	-0,049
-630,765	305,125	-0,044	0,060
-629,751	491,762	-0,020	0,035
-628,736	565,284	-0,039	0,071
-627,722	420,722	0,036	-0,057
-626,707	-92,208	-0,072	0,015
-625,692	-106,998	0,104	-0,017
-624,678	318,772	-0,084	0,118
-623,663	-28,221	-0,127	0,054
-622,649	-108,297	-0,079	-0,013
-621,634	-200,000	0,016	-0,060
-620,619	800,000	-0,054	0,118
-619,605	-47,346	-0,130	0,047
-618,590	-0,109	0,134	-0,071
-617,576	64,079	0,048	0,036
-616,561	-114,759	-0,041	-0,006
-615,546	186,617	-0,058	0,064
-614,532	-115,496	-0,041	0,006
-613,517	-200,000	0,001	-0,030
-612,503	800,000	-0,032	-0,075
-611,488	-5,917	0,069	-0,035
-610,474	-41,061	0,039	-0,015
-609,459	255,577	-0,030	0,039
-608,444	57,654	0,073	-0,053
-607,430	-200,000	0,050	-0,191
-606,415	800,000	-0,051	-0,119
-605,401	-155,707	0,103	0,005
-604,386	-140,254	-0,106	-0,008
-603,371	-73,146	-0,059	-0,016
-602,357	-200,000	0,038	0,125
-601,342	601,977	-0,065	-0,121
-600,328	228,351	-0,072	-0,087
-599,313	357,001	0,012	-0,018
-598,298	800,000	0,037	-0,078
-597,284	161,012	0,017	-0,018
-596,269	-46,950	0,095	0,034
-595,255	800,000	-0,019	-0,052
-594,240	108,308	0,078	-0,069
-593,225	-119,010	-0,150	0,019
-592,211	-0,764	-0,078	0,041
-591,196	320,666	0,035	-0,049
-590,182	-39,952	0,148	0,057
-589,167	800,000	0,049	0,161
-588,152	-200,000	0,009	-0,068
-587,138	284,655	0,009	0,011
-586,123	-200,000	0,024	-0,081
-585,109	-154,248	-0,164	0,008
-584,094	-27,444	-0,085	0,036
-583,079	-200,000	-0,010	0,048
-582,065	800,000	-0,044	0,096
-581,050	-200,000	0,015	0,099
-580,036	-200,000	-0,008	0,100
-579,021	-81,237	-0,030	-0,007
-578,006	453,383	-0,044	-0,072
-576,992	-200,000	-0,006	0,052
-575,977	-200,000	0,004	-0,039
-574,963	-200,000	-0,003	0,119
-573,948	-81,886	0,090	-0,022
-572,934	-21,124	-0,059	-0,027
-571,919	79,099	0,006	-0,005
-570,904	800,000	-0,042	-0,106
-569,890	-44,363	0,065	-0,024
-568,875	800,000	0,031	-0,068
-567,861	800,000	0,050	-0,115
-566,846	-46,172	0,109	0,040
-565,831	289,000	-0,098	0,132
-564,817	297,486	0,050	-0,068
-563,802	-15,279	-0,044	0,021
-562,788	800,000	-0,007	0,021
-561,773	800,000	0,033	-0,075
-560,758	27,932	-0,058	-0,036
-559,744	247,825	0,072	-0,090
-558,729	-200,000	0,006	-0,026
-557,715	669,782	-0,092	-0,177
-556,700	276,927	0,025	-0,033
-555,685	-200,000	0,011	0,047
-554,671	800,000	-0,026	0,070
-553,656	-200,000	-0,015	-0,112
-552,642	-14,523	0,045	0,022
-551,627	206,823	-0,059	0,068
-550,612	-98,097	-0,030	-0,006
-549,598	157,403	-0,081	-0,083
-548,583	-200,000	0,015	-0,178
-547,569	109,433	-0,057	-0,051
-546,554	-200,000	-0,021	0,121
-545,539	137,967	-0,035	0,034
-544,525	-65,555	0,155	0,046
-543,510	195,452	-0,110	-0,123
-542,496	-200,000	-0,007	0,085
-541,481	-7,205	-0,049	-0,025
-540,466	170,051	0,082	0,087
-539,452	-200,000	-0,044	0,162
-538,437	-163,656	0,144	0,005
-537,423	567,408	-0,025	0,045
-536,408	65,128	-0,072	-0,053
-535,393	254,365	-0,064	0,081
-534,379	406,351	0,040	-0,063
-533,364	-200,000	0,012	0,042
-532,350	-200,000	0,014	-0,069
-531,335	225,111	0,040	0,048
-530,321	-51,298	0,013	0,004
-529,306	800,000	-0,011	-0,030
-528,291	15,387	-0,027	0,016
-527,277	208,553	-0,076	-0,088
-526,262	22,143	0,146	-0,088
-525,248	-4,423	-0,120	-0,061
-524,233	-37,465	0,061	0,024
-523,218	38,231	-0,086	-0,057
-522,204	150,709	-0,044	0,044
-521,189	635,226	-0,042	-0,078
-520,175	-200,000	-0,040	-0,152
-519,160	489,029	0,025	-0,043
-518,145	-164,867	0,108	-0,004
-517,131	-62,943	0,068	0,021
-516,116	-10,929	0,046	0,022
-515,102	356,456	-0,118	-0,174
-514,087	619,216	-0,038	-0,070
-513,072	-200,000	-0,045	-0,168
-512,058	-82,752	0,016	-0,004
-511,043	-200,000	0,025	0,110
-510,029	-85,190	0,153	-0,035
-509,014	784,387	0,041	-0,083
-507,999	-61,825	0,031	0,009
-506,985	41,823	-0,104	-0,070
-505,970	66,202	0,101	0,076
-504,956	13,175	0,031	-0,017
-503,941	8,957	-0,088	-0,049
-502,926	321,835	0,014	-0,020
-501,912	800,000	0,017	-0,035
-500,897	800,000	-0,025	0,067
-499,883	-114,090	0,197	-0,028
-498,868	-200,000	-0,013	0,127
-497,853	11,802	-0,103	0,058
-496,839	-200,000	0,026	0,085
-495,824	-101,856	0,099	0,018
-494,810	800,000	0,023	0,062
-493,795	237,730	0,050	0,061
-492,781	-200,000	0,040	-0,170
-491,766	14,799	-0,147	-0,085
-490,751	-42,479	0,069	0,026
-489,737	473,507	0,023	-0,039
-488,722	-200,000	0,015	0,086
-487,708	-200,000	-0,014	-0,046
-486,693	-53,424	0,105	-0,035
-485,678	-200,000	0,000	0,004
-484,664	179,456	-0,103	-0,111
-483,649	-200,000	-0,053	-0,178
-482,635	312,189	0,042	-0,059
-481,620	-50,979	-0,081	-0,028
-480,605	-82,591	0,085	-0,020
-479,591	29,845	0,085	0,053
-478,576	88,972	-0,131	0,108
-477,562	-9,478	-0,042	-0,021
-476,547	-78,470	-0,108	-0,027
-475,532	-200,000	0,001	0,008
-474,518	45,567	0,067	-0,046
-473,503	161,747	0,073	0,076
-472,489	800,000	0,046	0,096
-471,474	-200,000	-0,004	0,050
-470,459	-44,771	-0,017	-0,006
-469,445	800,000	0,010	-0,029
-468,430	262,245	0,047	-0,061
-467,416	800,000	0,017	0,045
-466,401	79,756	-0,015	0,012
-465,386	-200,000	-0,021	0,155
-464,372	-127,275	0,100	0,011
-463,357	-62,568	0,198	0,060
-462,343	800,000	-0,024	-0,051
-461,328	-132,743	-0,039	-0,004
-460,313	-131,071	0,102	0,010
-459,299	-200,000	-0,033	0,153
-458,284	285,239	0,120	0,160
-457,270	279,672	-0,069	0,091
-456,255	-164,499	-0,118	0,004
-455,241	-200,000	-0,006	-0,043
-454,226	-44,218	-0,105	-0,038
-453,211	-104,585	0,097	-0,016
-452,197	614,816	0,072	0,133
-451,182	308,118	-0,054	0,074
-450,168	800,000	0,015	-0,032
-449,153	-200,000	0,016	0,059
-448,138	458,806	-0,037	0,061
-447,124	450,540	-0,042	-0,068
-446,109	239,012	0,095	0,117
-445,095	-200,000	-0,003	-0,027
-444,080	169,671	0,147	0,155
-443,065	-200,000	-0,001	-0,028
-442,051	195,464	-0,091	0,102
-441,036	-146,679	-0,045	0,003
-440,022	800,000	0,009	0,020
-439,007	66,339	0,102	-0,076
-437,992	432,779	-0,050	-0,080
-436,978	-9,681	0,117	-0,057
-435,963	-57,174	-0,056	-0,018
-434,949	346,754	-0,059	-0,085
-433,934	680,945	0,027	0,052
-432,919	-57,227	-0,120	0,039
-431,905	800,000	-0,062	-0,165
-430,890	6,577	0,020	-0,011
-429,876	112,202	-0,102	0,091
-428,861	207,805	-0,051	0,058
-427,846	-200,000	0,009	-0,067
-426,832	43,681	-0,070	-0,047
-425,817	330,685	-0,095	-0,136
-424,803	-115,012	-0,085	-0,012
-423,788	-63,243	0,061	-0,018
-422,773	-30,484	0,185	0,077
-421,759	119,060	0,034	-0,031
-420,744	-200,000	-0,016	0,052
-419,730	-100,686	-0,085	0,015
-418,715	-153,304	-0,059	0,003
-417,701	277,363	-0,046	-0,060
-416,686	59,478	0,039	-0,028
-415,671	-200,000	-0,001	0,015
-414,657	-88,038	0,125	0,027
-413,642	403,480	-0,019	0,030
-412,628	202,034	-0,019	0,022
-411,613	-200,000	0,006	-0,089
-410,598	147,618	-0,109	0,108
-409,584	8,624	0,115	0,064
-408,569	135,412	-0,053	0,051
-407,555	189,757	0,046	-0,051
-406,540	-89,425	-0,067	-0,014
-405,525	-73,769	0,051	0,014
-404,511	564,090	-0,077	-0,138
-403,496	236,917	-0,095	-0,116
-402,482	-200,000	-0,008	0,096
-401,467	-200,000	-0,005	0,048
-400,452	305,916	-0,018	0,024
-399,438	-19,835	-0,087	-0,039
-398,423	800,000	-0,042	-0,096
-397,409	203,231	0,103	-0,117
-396,394	494,839	0,075	-0,128
-395,379	-10,341	0,066	-0,032
-394,365	-22,740	-0,129	0,057
-393,350	299,255	0,082	0,111
-392,336	800,000	-0,055	0,114
-391,321	800,000	-0,015	0,048
-390,306	267,016	0,072	0,092
-389,292	-70,844	-0,070	0,019
-388,277	270,111	0,109	-0,141
-387,263	-82,543	0,182	0,043
-386,248	86,475	-0,076	0,062
-385,233	56,100	0,070	0,050
-384,219	-171,197	-0,082	0,002
-383,204	-200,000	-0,018	-0,151
-382,190	-200,000	-0,008	-0,081
-381,175	106,253	0,049	-0,042
-380,160	7,854	0,088	0,048
-379,146	-200,000	0,023	0,082
-378,131	-49,857	0,047	-0,016
-377,117	64,718	0,054	-0,040
-376,102	800,000	-0,035	-0,113
-375,088	-110,062	0,079	0,012
-374,073	132,626	0,073	-0,069
-373,058	-200,000	0,012	-0,052
-372,044	316,554	-0,050	0,069
-371,029	-200,000	0,002	0,036
-370,015	-20,119	0,041	0,018
-369,000	-81,216	-0,077	0,018
-367,985	-167,356	-0,032	-0,001
-366,971	135,599	0,116	0,111
-365,956	-116,311	0,060	0,008
-364,942	673,254	0,043	-0,082
-363,927	-163,797	-0,081	0,003
-362,912	-200,000	0,001	-0,044
-361,898	-6,882	0,080	0,040
-360,883	800,000	0,040	-0,108
-359,869	520,365	0,043	-0,073
-358,854	-172,802	0,097	-0,002
-357,839	116,499	0,062	-0,056
-356,825	-122,416	-0,135	0,016
-355,810	41,511	0,128	0,085
-354,796	86,609	-0,151	0,122
-353,781	211,436	-0,081	0,094
-352,766	-200,000	0,016	0,137
-351,752	565,858	0,054	0,096
-350,737	-60,854	0,127	-0,039
-349,723	326,307	-0,022	0,030
-348,708	-33,596	0,069	0,028
-347,693	800,000	-0,054	-0,161
-346,679	11,376	-0,072	-0,040
-345,664	-200,000	0,004	-0,090
-344,650	-200,000	0,017	0,066
-343,635	800,000	0,045	-0,141
-342,620	-97,557	-0,219	-0,041
-341,606	3,170	0,033	-0,017
-340,591	148,617	-0,037	0,037
-339,577	-200,000	0,004	-0,076
-338,562	712,614	0,037	0,073
-337,548	13,990	-0,086	0,049
-336,533	800,000	-0,046	0,125
-335,518	-57,697	0,142	0,046
-334,504	-61,592	-0,057	0,017
-333,489	-7,299	0,044	0,022
-332,475	132,357	0,105	-0,099
-331,460	800,000	-0,099	-0,230
-330,445	72,052	0,133	-0,101
-329,431	20,445	-0,053	0,032
-328,416	206,281	0,036	0,042
-327,402	-102,830	-0,028	0,005
-326,387	-112,318	-0,054	-0,008
-325,372	-149,372	-0,118	-0,007
-324,358	-200,000	-0,027	-0,138
-323,343	-26,206	0,054	0,023
-322,329	-52,288	0,142	0,048
-321,314	-200,000	-0,059	0,247
-320,299	800,000	-0,016	0,049
-319,285	183,423	0,061	0,066
-318,270	42,521	0,082	-0,055
-317,256	27,863	-0,140	-0,086
-316,241	386,933	0,051	-0,078
-315,226	-200,000	0,011	0,121
-314,212	-200,000	-0,009	-0,112
-313,197	-200,000	0,002	0,053
-312,183	-197,804	0,080	-0,000
-311,168	112,516	-0,127	-0,113
-310,153	-143,598	0,053	0,004
-309,139	-39,631	-0,159	0,061
-308,124	-200,000	0,020	-0,069
-307,110	800,000	0,042	0,117
-306,095	100,881	0,088	0,075
-305,080	67,077	0,105	0,078
-304,066	-14,365	0,069	0,032
-303,051	23,016	-0,048	-0,029
-302,037	-116,554	-0,106	-0,014
-301,022	800,000	0,010	0,027
-300,008	-200,000	-0,024	0,206
-298,993	83,294	-0,112	0,089
-297,978	290,514	0,081	-0,108
-296,964	-48,100	-0,098	0,035
-295,949	78,388	-0,073	-0,057
-294,935	115,446	-0,108	-0,097
-293,920	-140,869	-0,056	0,004
-292,905	-200,000	0,020	-0,070
-291,891	-200,000	0,022	-0,074
-290,876	800,000	0,037	0,079
-289,862	579,554	-0,032	-0,058
-288,847	173,029	-0,035	-0,037
-287,832	-6,514	-0,140	0,069
-286,818	800,000	0,042	0,100
-285,803	295,982	0,074	0,099
-284,789	603,650	-0,038	0,070
-283,774	-55,143	0,198	0,065
-282,759	-200,000	-0,028	-0,109
-281,745	-25,324	-0,115	-0,050
-280,730	-200,000	0,029	-0,185
-279,716	111,996	-0,037	0,033
-278,701	221,905	0,016	0,019
-277,686	5,508	0,241	0,130
-276,672	-38,557	0,120	0,046
-275,657	43,566	-0,138	-0,093
-274,643	509,565	0,005	-0,008
-273,628	-200,000	0,006	-0,024
-272,613	-200,000	-0,015	0,051
-271,599	-200,000	0,019	0,154
-270,584	85,715	-0,168	-0,135
-269,570	314,422	0,066	-0,092
-268,555	-49,530	-0,078	0,027
-267,540	-200,000	-0,001	-0,008
-266,526	-16,190	-0,110	0,051
-265,511	532,228	-0,064	0,111
-264,497	-200,000	-0,006	0,045
-263,482	-200,000	0,060	0,208
-262,467	8,431	0,046	0,025
-261,453	-156,138	-0,153	-0,007
-260,438	-200,000	0,020	0,162
-259,424	37,530	0,020	-0,013
-258,409	365,852	-0,016	-0,023
-257,395	800,000	0,060	0,194
-256,380	-200,000	0,031	-0,108
-255,365	-95,462	0,066	-0,013
-254,351	220,279	-0,071	-0,084
-253,336	34,199	-0,059	-0,037
-252,322	800,000	0,042	0,098
-251,307	800,000	0,038	-0,086
-250,292	-200,000	0,012	0,084
-249,278	-200,000	-0,038	0,197
-248,263	-146,274	0,083	0,005
-247,249	406,811	-0,028	-0,044
-246,234	-113,645	-0,137	-0,019
-245,219	800,000	-0,080	-0,206
-244,205	359,573	0,074	-0,109
-243,190	-187,033	0,079	-0,001
-242,176	-200,000	0,000	0,073
-241,161	130,023	0,087	0,081
-240,146	410,957	0,127	0,198
-239,132	-141,634	-0,105	0,008
-238,117	-200,000	0,013	-0,084
-237,103	-150,241	0,029	0,002
-236,088	326,623	-0,090	-0,126
-235,073	800,000	-0,055	-0,125
-234,059	265,461	-0,016	-0,020
-233,044	-79,657	-0,043	-0,011
-232,030	170,221	0,027	0,029
-231,015	281,793	-0,141	-0,185
-230,000	-100,552	-0,155	0,028
-228,986	-200,000	0,010	0,047
-227,971	6,964	0,043	-0,023
-226,957	-132,736	0,263	-0,024
-225,942	-200,000	0,020	0,102
-224,927	-115,606	-0,040	0,005
-223,913	-6,108	0,100	-0,050
-222,898	800,000	-0,042	-0,088
-221,884	800,000	-0,021	-0,062
-220,869	559,765	-0,006	0,011
-219,855	-24,933	-0,077	-0,033
-218,840	-120,221	-0,071	0,009
-217,825	54,834	-0,055	0,038
-216,811	-79,848	0,142	-0,035
-215,796	-200,000	-0,005	-0,040
-214,782	800,000	0,078	0,175
-213,767	-2,308	0,094	0,048
-212,752	-200,000	-0,004	0,116
-211,738	-147,284	0,174	-0,011
-210,723	-130,723	0,144	0,014
-209,709	-200,000	0,028	-0,099
-208,694	-95,374	-0,077	-0,015
-207,679	800,000	0,031	-0,068
-206,665	172,426	-0,041	0,043
-205,650	-200,000	0,001	-0,080
-204,636	147,546	0,045	0,045
-203,621	146,170	-0,092	0,090
-202,606	132,039	-0,066	-0,062
-201,592	61,404	-0,078	-0,057
-200,577	-122,710	-0,077	0,009
-199,563	-47,790	0,181	0,064
-198,548	317,170	0,044	-0,061
-197,533	-200,000	0,016	0,090
-196,519	800,000	0,067	0,155
-195,504	-200,000	0,003	-0,123
-194,490	-200,000	-0,023	-0,219
-193,475	55,367	0,073	-0,051
-192,460	207,029	0,015	0,017
-191,446	-126,600	0,114	0,012
-190,431	20,172	0,209	0,123
-189,417	344,665	0,027	0,039
-188,402	-169,454	-0,041	0,001
-187,387	281,331	-0,120	-0,157
-186,373	6,377	-0,158	0,085
-185,358	12,721	-0,095	-0,053
-184,344	-200,000	0,016	-0,052
-183,329	-113,127	-0,111	0,016
-182,315	-200,000	0,130	0,000
-181,300	188,970	0,024	-0,026
-180,285	1,796	0,061	0,032
-179,271	-33,883	-0,106	-0,042
-178,256	-200,000	0,016	-0,163
-177,242	-200,000	-0,031	-0,108
-176,227	800,000	0,018	0,040
-175,212	800,000	-0,037	0,076
-174,198	-139,738	-0,143	0,011
-173,183	-106,546	0,065	0,010
-172,169	-200,000	0,002	0,015
-171,154	116,121	-0,151	0,135
-170,139	50,821	0,057	0,039
-169,125	338,160	0,070	0,099
-168,110	800,000	-0,065	0,154
-167,096	-200,000	-0,008	-0,136
-166,081	-200,000	0,015	-0,052
-165,066	360,822	0,026	0,038
-164,052	-137,713	-0,033	0,003
-163,037	800,000	-0,003	-0,010
-162,023	-200,000	0,026	0,122
-161,008	800,000	0,040	0,083
-159,993	315,590	0,012	0,016
-158,979	-115,360	-0,038	0,005
-157,964	56,375	-0,057	0,040
-156,950	-12,089	-0,078	-0,037
-155,935	-122,409	-0,093	0,011
-154,920	-45,331	0,082	0,029
-153,906	-200,000	-0,010	0,126
-152,891	-200,000	-0,018	0,129
-151,877	23,133	-0,157	0,093
-150,862	78,331	-0,050	-0,039
-149,847	76,808	0,021	0,016
-148,833	-131,835	0,150	0,014
-147,818	-200,000	-0,007	0,029
-146,804	-173,207	0,161	0,004
-145,789	8,069	-0,088	0,048
-144,775	800,000	0,035	0,112
-143,760	-119,500	0,079	0,010
-142,745	35,017	-0,059	0,037
-141,731	-200,000	-0,014	-0,078
-140,716	32,275	0,097	-0,061
-139,702	-164,790	0,094	0,003
-138,687	256,684	-0,076	0,095
-137,672	18,522	-0,095	0,055
-136,658	-200,000	0,001	0,030
-135,643	-33,600	-0,036	0,014
-134,629	-44,455	-0,081	0,029
-133,614	-200,000	-0,017	0,059
-132,599	84,065	-0,078	0,062
-131,585	-200,000	-0,000	0,005
-130,570	-55,326	-0,029	-0,009
-129,556	255,831	-0,011	-0,013
-128,541	-200,000	-0,029	-0,182
-127,526	194,611	-0,043	0,048
-126,512	-200,000	0,052	0,212
-125,497	9,719	-0,023	0,013
-124,483	800,000	-0,022	-0,046
-123,468	52,244	-0,094	-0,065
-122,453	-44,634	0,061	-0,022
-121,439	63,696	-0,070	-0,051
-120,424	43,118	0,083	0,055
-119,410	-181,056	-0,143	0,002
-118,395	-177,407	-0,040	0,001
-117,380	-200,000	0,021	-0,078
-116,366	168,960	0,042	-0,043
-115,351	-200,000	0,005	0,085
-114,337	305,721	0,095	0,129
-113,322	-15,836	0,061	-0,028
-112,307	-200,000	-0,029	0,120
-111,293	165,073	0,070	0,072
-110,278	-50,999	-0,088	0,030
-109,264	800,000	-0,043	-0,089
-108,249	-57,930	-0,059	-0,019
-107,234	-198,261	-0,074	0,000
-106,220	-29,226	-0,055	0,023
-105,205	38,127	-0,112	0,072
-104,191	289,794	-0,096	0,127
-103,176	-200,000	0,008	0,033
-102,162	-200,000	-0,013	0,116
-101,147	-200,000	-0,037	-0,152
-100,132	33,623	0,038	-0,024
-99,118	-52,071	-0,125	-0,042
-98,103	70,899	0,120	-0,091
-97,089	215,668	0,066	0,076
-96,074	248,226	0,012	0,015
-95,059	48,548	0,092	0,063
-94,045	55,978	0,022	-0,016
-93,030	800,000	0,039	0,116
-92,016	-51,064	-0,184	0,062
-91,001	-200,000	0,000	-0,010
-89,986	346,599	0,110	0,157
-88,972	-100,286	-0,064	-0,011
-87,957	36,345	-0,081	-0,052
-86,943	153,756	0,042	-0,042
-85,928	-131,143	-0,089	0,008
-84,913	-200,000	-0,029	-0,128
-83,899	246,572	-0,031	-0,038
-82,884	800,000	-0,067	0,137
-81,870	800,000	0,005	0,012
-80,855	97,505	0,028	-0,023
-79,840	299,498	-0,039	0,052
-78,826	18,698	-0,043	0,025
-77,811	-103,345	-0,103	-0,017
-76,797	-143,542	0,047	0,003
-75,782	691,887	-0,037	-0,071
-74,767	-61,579	0,096	0,029
-73,753	-50,834	-0,150	0,051
-72,738	-200,000	0,006	0,104
-71,724	321,993	0,048	-0,066
-70,709	567,935	-0,057	-0,102
-69,694	-49,522	-0,088	0,030
-68,680	-145,887	-0,067	-0,004
-67,665	-60,081	-0,041	-0,013
-66,651	-125,948	0,088	0,009
-65,636	179,300	0,017	0,018
-64,622	-200,000	0,010	-0,079
-63,607	333,695	-0,029	-0,041
-62,592	372,552	0,085	-0,126
-61,578	304,468	0,018	0,025
-60,563	207,779	0,044	-0,050
-59,549	-106,490	-0,081	0,013
-58,534	-151,127	-1,433	-0,077
-57,519	376,741	-0,991	-1,473
-56,505	-200,000	-0,942	-4,456
-55,490	143,134	0,544	-0,526
-54,476	800,000	4,988	11,802
-53,461	-200,000	13,613	254,103
-52,446	-200,000	689,775	2263,361
-51,432	592,182	1622,660	2920,231
-50,417	119,579	1635,347	1469,916
-49,403	73,363	1289,318	978,136
-48,388	38,157	1024,398	660,291
-47,373	24,437	981,854	587,745
-46,359	23,607	971,570	578,845
-45,344	22,599	967,485	573,092
-44,330	22,539	966,121	572,067
-43,315	22,435	964,725	570,876
-42,300	22,433	963,686	570,235
-41,286	22,409	962,545	569,457
-40,271	22,447	961,650	569,027
-39,257	22,380	960,823	568,299
-38,242	22,414	959,850	567,813
-37,227	22,437	958,941	567,324
-36,213	22,394	958,124	566,682
-35,198	22,399	957,349	566,216
-34,184	22,436	956,543	565,837
-33,169	22,387	955,726	565,171
-32,154	22,420	954,911	564,774
-31,140	22,372	953,992	564,054
-30,125	22,443	953,074	563,719
-29,111	22,406	952,318	563,127
-28,096	22,431	951,550	562,733
-27,082	22,427	950,939	562,337
-26,067	22,370	950,283	561,743
-25,052	22,451	949,438	561,482
-24,038	22,444	948,767	561,039
-23,023	22,358	948,449	560,555
-22,009	22,488	947,341	560,292
-20,994	22,461	946,838	559,885
-19,979	22,475	946,232	559,550
-18,965	22,419	945,782	559,083
-17,950	22,449	945,171	558,797
-16,936	22,424	944,428	558,255
-15,921	22,314	943,758	557,485
-14,906	22,376	942,840	557,119
-13,892	22,335	942,322	556,659
-12,877	22,293	941,707	556,140
-11,863	22,367	940,929	555,895
-10,848	22,363	940,408	555,551
-9,833	22,453	940,149	555,664
-8,819	22,388	939,449	555,020
-7,804	22,291	938,823	554,322
-6,790	22,297	938,119	553,903
-5,775	22,393	937,479	553,805
-4,760	22,330	936,956	553,277
-3,746	22,313	936,411	552,880
-2,731	22,205	935,923	552,227
-1,717	22,144	935,135	551,547
-0,702	22,176	934,362	551,171
0,313	21,993	933,652	551,008
1,327	25,040	931,709	559,397
2,342	34,520	796,231	503,316
3,356	32,396	451,393	282,112
4,371	1,609	293,421	152,692
5,386	-2,788	274,209	138,526
6,400	-4,493	268,464	134,032
7,415	-4,947	266,205	132,475
8,429	-4,501	264,945	132,245
9,444	-4,532	264,054	131,760
10,459	-4,482	263,379	131,457
11,473	-4,586	262,649	130,986
12,488	-4,871	262,232	130,509
13,502	-4,811	261,618	130,246
14,517	-4,860	261,362	130,063
15,531	-4,781	261,019	129,951
16,546	-4,605	260,668	129,923
17,561	-4,631	260,249	129,679
18,575	-4,352	259,951	129,769
19,590	-4,600	259,436	129,279
20,604	-4,571	259,376	129,264
21,619	-4,675	258,962	128,953
22,634	-4,536	258,548	128,860
23,648	-4,681	258,243	128,567
24,663	-4,708	258,073	128,447
25,677	-4,439	257,748	128,512
26,692	-4,433	257,484	128,375
27,707	-4,630	257,167	128,031
28,721	-4,695	257,040	127,898
29,736	-4,639	256,757	127,796
30,750	-4,747	256,450	127,536
31,765	-4,901	256,308	127,318
32,780	-4,829	255,904	127,169
33,794	-4,597	255,751	127,286
34,809	-4,697	255,562	127,093
35,823	-4,658	255,293	126,982
36,838	-4,911	255,043	126,625
37,853	-4,843	254,868	126,585
38,867	-4,834	254,759	126,529
39,882	-4,881	254,511	126,352
40,896	-4,919	254,157	126,132
41,911	-4,744	253,997	126,195
42,926	-4,847	253,575	125,884
43,940	-4,807	253,466	125,853
44,955	-5,048	253,348	125,573
45,969	-4,917	253,011	125,510
46,984	-5,152	252,800	125,189
47,999	-5,315	252,567	124,921
49,013	-5,332	252,194	124,710
50,028	-5,623	252,013	124,357
51,042	-5,604	251,662	124,190
52,057	-5,686	251,518	124,037
53,071	-5,738	251,440	123,942
54,086	-5,324	251,059	124,100
55,101	-5,303	251,086	124,121
56,115	-5,205	250,996	124,150
57,130	-4,877	250,908	124,378
58,144	-4,422	250,815	124,713
59,159	-4,458	250,411	124,471
60,174	-4,866	250,335	124,071
61,188	-4,490	250,033	124,233
62,203	-4,454	249,778	124,126
63,217	-4,748	249,658	123,803
64,232	-4,649	249,439	123,768
65,247	-4,524	249,209	123,751
66,261	-4,587	248,997	123,581
67,276	-4,884	248,842	123,239
68,290	-5,169	248,540	122,835
69,305	-5,219	248,273	122,649
70,320	-4,992	248,047	122,720
71,334	-4,830	247,873	122,761
72,349	-4,587	247,899	122,969
73,363	-4,530	247,678	122,897
74,378	-4,544	247,511	122,792
75,393	-4,679	247,184	122,504
76,407	-4,760	247,039	122,352
77,422	-4,666	246,904	122,354
78,436	-4,554	246,595	122,285
79,451	-4,712	246,497	122,092
80,466	-4,712	246,153	121,910
81,480	-5,060	246,045	121,553
82,495	-5,066	245,841	121,436
83,509	-4,820	245,499	121,463
84,524	-4,810	245,305	121,365
85,539	-5,108	245,076	120,990
86,553	-5,145	244,874	120,849
87,568	-5,108	244,772	120,819
88,582	-4,994	244,595	120,816
89,597	-5,047	244,435	120,682
90,611	-4,946	244,491	120,784
91,626	-4,780	244,174	120,755
92,641	-4,601	243,858	120,737
93,655	-4,664	243,610	120,551
94,670	-5,086	243,612	120,189
95,684	-4,945	243,302	120,143
96,699	-4,733	243,099	120,208
97,714	-4,980	242,987	119,937
98,728	-5,040	242,819	119,794
99,743	-5,223	242,553	119,500
100,757	-5,181	242,480	119,487
101,772	-4,987	242,135	119,468
102,787	-4,998	242,045	119,403
103,801	-5,023	241,966	119,333
104,816	-4,991	241,834	119,284
105,830	-4,878	241,618	119,260
106,845	-4,739	241,410	119,262
107,860	-4,776	241,316	119,174
108,874	-4,957	241,031	118,874
109,889	-4,768	240,691	118,851
110,903	-5,088	240,693	118,578
111,918	-4,998	240,427	118,511
112,933	-4,956	240,201	118,423
113,947	-4,964	240,205	118,408
114,962	-4,694	240,085	118,560
115,976	-4,820	239,902	118,356
116,991	-4,873	239,744	118,223
118,006	-4,762	239,456	118,161
119,020	-4,697	239,328	118,142
120,035	-4,883	239,222	117,927
121,049	-4,727	239,025	117,946
122,064	-4,627	238,740	117,877
123,079	-4,807	238,714	117,707
124,093	-4,901	238,452	117,491
125,108	-4,772	238,143	117,433
126,122	-5,066	237,927	117,077
127,137	-5,282	237,936	116,895
128,151	-5,164	237,718	116,873
129,166	-5,206	237,708	116,823
130,181	-5,031	237,445	116,826
131,195	-5,122	237,176	116,609
132,210	-4,883	236,973	116,693
133,224	-4,789	236,854	116,700
134,239	-4,860	236,855	116,632
135,254	-4,661	236,547	116,631
136,268	-4,965	236,344	116,275
137,283	-5,112	236,119	116,035
138,297	-5,177	235,726	115,780
139,312	-5,273	235,596	115,629
140,327	-4,940	235,614	115,895
141,341	-4,429	235,542	116,260
142,356	-4,401	235,582	116,292
143,370	-4,345	235,236	116,155
144,385	-4,516	235,247	116,013
145,400	-4,370	235,031	116,013
146,414	-4,316	234,723	115,894
147,429	-4,372	234,710	115,833
148,443	-4,527	234,394	115,543
149,458	-4,332	234,219	115,602
150,473	-4,592	234,118	115,334
151,487	-4,598	233,976	115,249
152,502	-4,525	233,807	115,214
153,516	-4,550	233,632	115,097
154,531	-4,664	233,542	114,952
155,546	-4,511	233,341	114,965
156,560	-4,588	233,109	114,779
157,575	-4,739	232,945	114,568
158,589	-4,760	232,725	114,433
159,604	-4,586	232,712	114,554
160,619	-4,314	232,425	114,618
161,633	-4,409	232,347	114,494
162,648	-4,333	232,133	114,439
163,662	-4,468	232,023	114,267
164,677	-4,785	231,896	113,945
165,692	-4,561	231,809	114,069
166,706	-4,568	231,712	114,005
167,721	-4,427	231,455	113,979
168,735	-4,407	231,169	113,844
169,750	-4,566	231,114	113,682
170,764	-4,319	230,972	113,796
171,779	-4,435	230,862	113,641
172,794	-4,338	230,692	113,623
173,808	-4,594	230,455	113,295
174,823	-5,026	230,193	112,818
175,837	-5,191	230,039	112,603
176,852	-5,042	230,036	112,708
177,867	-4,506	229,986	113,093
178,881	-4,503	229,760	112,974
179,896	-4,489	229,614	112,903
180,910	-4,335	229,458	112,936
181,925	-4,376	229,281	112,808
182,940	-4,361	229,058	112,700
183,954	-4,299	228,934	112,677
184,969	-4,235	228,834	112,668
185,983	-4,197	228,771	112,655
186,998	-4,376	228,670	112,457
188,013	-4,196	228,292	112,401
189,027	-4,194	228,241	112,366
190,042	-4,124	228,032	112,308
191,056	-4,088	227,863	112,242
192,071	-4,174	227,667	112,070
193,086	-4,340	227,524	111,861
194,100	-4,247	227,407	111,865
195,115	-4,559	226,913	111,372
196,129	-5,649	226,917	110,523
197,144	-2,679	227,684	113,183
198,159	1,363	228,804	116,862
199,173	4,039	229,306	119,183
200,188	4,345	229,384	119,450
201,202	4,357	229,316	119,413
202,217	4,684	229,108	119,547
203,232	4,741	229,125	119,589
204,246	5,038	228,899	119,689
205,261	4,794	228,768	119,423
206,275	5,059	228,636	119,547
207,290	4,886	228,491	119,327
208,304	4,990	228,362	119,329
209,319	4,867	228,224	119,152
210,334	4,861	227,977	119,007
211,348	4,678	227,806	118,767
212,363	4,238	227,489	118,254
213,377	4,308	227,254	118,175
214,392	3,911	227,126	117,794
215,407	4,212	226,917	117,905
216,421	4,465	226,823	118,039
217,436	4,059	226,672	117,640
218,450	3,963	226,357	117,393
219,465	3,944	226,335	117,356
220,480	4,002	226,109	117,273
221,494	3,793	226,014	117,054
222,509	4,143	225,953	117,278
223,523	4,073	225,823	117,147
224,538	3,988	225,638	116,976
225,553	4,035	225,615	116,989
226,567	4,088	225,410	116,913
227,582	4,422	225,465	117,185
228,596	4,410	225,289	117,074
229,611	3,984	225,055	116,619
230,626	3,889	224,807	116,408
231,640	3,997	224,451	116,295
232,655	4,051	224,615	116,410
233,669	4,628	224,467	116,759
234,684	4,723	224,366	116,768
235,699	4,148	224,303	116,290
236,713	4,209	223,923	116,130
237,728	4,309	223,803	116,133
238,742	3,947	223,550	115,718
239,757	4,099	223,381	115,735
240,772	4,055	223,309	115,654
241,786	3,991	223,147	115,511
242,801	4,228	223,111	115,660
243,815	4,484	222,999	115,784
244,830	4,356	222,860	115,606
245,844	4,064	222,591	115,237
246,859	4,376	222,517	115,422
247,874	4,387	222,275	115,294
248,888	4,351	222,182	115,209
249,903	4,251	222,072	115,067
250,917	4,037	222,006	114,864
251,932	4,198	221,745	114,838
252,947	4,005	221,523	114,569
253,961	4,264	221,331	114,652
254,976	4,009	221,325	114,449
255,990	4,084	221,334	114,499
257,005	4,390	221,070	114,580
258,020	4,057	221,117	114,347
259,034	4,285	220,873	114,380
260,049	4,398	220,597	114,310
261,063	4,240	220,549	114,158
262,078	4,310	220,500	114,174
263,093	4,604	220,247	114,250
264,107	4,407	220,072	114,004
265,122	4,309	220,051	113,910
266,136	4,528	219,859	113,962
267,151	4,577	219,954	114,038
268,166	4,138	219,541	113,491
269,180	3,996	219,262	113,231
270,195	3,925	219,132	113,102
271,209	3,910	219,052	113,040
272,224	4,348	218,878	113,261
273,239	4,091	218,893	113,070
274,253	4,003	218,555	112,821
275,268	3,731	218,559	112,614
276,282	3,794	218,132	112,430
277,297	3,841	218,065	112,419
278,312	3,772	218,010	112,330
279,326	4,180	217,867	112,545
280,341	4,222	217,739	112,499
281,355	4,238	217,674	112,468
282,370	4,060	217,486	112,230
283,384	3,802	217,460	112,019
284,399	3,657	217,288	111,814
285,414	3,802	216,986	111,755
286,428	4,033	216,885	111,860
287,443	4,251	216,788	111,959
288,457	4,169	216,840	111,916
289,472	4,232	216,558	111,807
290,487	3,940	216,220	111,411
291,501	3,719	216,104	111,181
292,516	3,992	215,849	111,237
293,530	3,642	216,078	111,091
294,545	3,872	215,860	111,136
295,560	3,770	215,670	110,955
296,574	4,034	215,660	111,130
297,589	4,064	215,463	111,041
298,603	4,311	215,282	111,116
299,618	4,220	215,077	110,934
300,633	4,229	215,071	110,928
301,647	4,321	214,837	110,863
302,662	4,367	214,790	110,862
303,676	4,541	214,626	110,892
304,691	4,382	214,447	110,676
305,706	4,635	214,393	110,820
306,720	4,559	214,314	110,715
307,735	3,978	214,160	110,209
308,749	3,898	213,863	109,989
309,764	4,092	213,863	110,118
310,779	4,314	213,733	110,200
311,793	4,231	213,558	110,041
312,808	4,129	213,517	109,937
313,822	4,252	213,185	109,844
314,837	3,899	213,158	109,569
315,852	4,167	212,892	109,613
316,866	4,016	212,716	109,405
317,881	4,163	212,631	109,456
318,895	4,370	212,561	109,558
319,910	4,050	212,466	109,271
320,925	3,761	212,233	108,937
321,939	3,559	212,155	108,744
322,954	3,684	212,009	108,748
323,968	4,278	211,928	109,117
324,983	4,357	211,790	109,092
325,997	4,396	211,684	109,055
327,012	4,244	211,516	108,852
328,027	4,131	211,369	108,687
329,041	4,411	211,243	108,810
330,056	4,525	211,169	108,842
331,070	4,026	210,958	108,373
332,085	3,886	210,604	108,083
333,100	3,869	210,660	108,090
334,114	4,214	210,472	108,226
335,129	4,374	210,363	108,273
336,143	4,044	210,249	107,973
337,158	3,912	210,092	107,790
338,173	4,213	209,999	107,943
339,187	3,853	209,804	107,582
340,202	3,829	209,695	107,499
341,216	3,628	209,441	107,219
342,231	4,078	209,381	107,493
343,246	4,035	209,194	107,358
344,260	4,223	208,963	107,361
345,275	3,751	209,018	107,050
346,289	4,014	208,875	107,151
347,304	4,186	208,821	107,233
348,319	4,118	208,714	107,122
349,333	4,105	208,464	106,974
350,348	4,050	208,449	106,919
351,362	4,235	208,306	106,964
352,377	4,104	208,320	106,871
353,392	3,905	208,107	106,614
354,406	4,142	207,953	106,690
355,421	194,036	1346,097	1435,435
356,435	154,810	1484,867	1435,564
